SpectraSuite Data File
++++++++++++++++++++++++++++++++++++
Date: Thu Oct 24 13:21:11 EDT 2013
User: stostad
Dark Spectrum Present: No
Reference Spectrum Present: No
Number of Sampled Component Spectra: 1
Spectrometers: USB2+H05261
Integration Time (usec): 100000 (USB2+H05261)
Spectra Averaged: 1 (USB2+H05261)
Boxcar Smoothing: 0 (USB2+H05261)
Correct for Electrical Dark: No (USB2+H05261)
Strobe/Lamp Enabled: No (USB2+H05261)
Correct for Detector Non-linearity: No (USB2+H05261)
Correct for Stray Light: No (USB2+H05261)
Number of Pixels in Processed Spectrum: 2048
>>>>>Begin Processed Spectral Data<<<<<
365.73	571.09
365.92	571.09
366.12	571.09
366.32	475.13
366.52	486.83
366.72	533.64
366.91	500.87
367.11	510.24
367.31	404.91
367.51	397.89
367.70	428.32
367.90	463.43
368.10	416.62
368.30	493.85
368.49	444.70
368.69	514.92
368.89	561.73
369.09	482.15
369.28	554.71
369.48	433.00
369.68	500.87
369.87	547.69
370.07	566.41
370.27	603.86
370.47	580.45
370.66	653.01
370.86	711.52
371.06	737.27
371.25	791.10
371.45	744.29
371.65	873.02
371.84	723.23
372.04	688.12
372.24	763.01
372.44	671.73
372.63	772.38
372.83	751.31
373.03	807.48
373.22	716.20
373.42	826.21
373.62	720.88
373.81	807.48
374.01	816.85
374.21	840.25
374.40	734.93
374.60	826.21
374.79	816.85
374.99	842.59
375.19	807.48
375.38	896.43
375.58	880.04
375.78	849.61
375.97	917.49
376.17	814.51
376.37	875.36
376.56	777.06
376.76	863.66
376.95	880.04
377.15	826.21
377.35	866.00
377.54	793.44
377.74	770.04
377.93	894.08
378.13	868.34
378.33	866.00
378.52	854.30
378.72	891.74
378.91	849.61
379.11	880.04
379.31	793.44
379.50	894.08
379.70	791.10
379.89	837.91
380.09	844.93
380.28	933.87
380.48	844.93
380.68	784.08
380.87	823.87
381.07	910.47
381.26	931.53
381.46	828.55
381.65	861.32
381.85	866.00
382.04	875.36
382.24	950.26
382.43	915.15
382.63	866.00
382.83	908.13
383.02	866.00
383.22	929.19
383.41	894.08
383.61	844.93
383.80	933.87
384.00	807.48
384.19	940.90
384.39	905.79
384.58	854.30
384.78	884.72
384.97	861.32
385.17	915.15
385.36	978.34
385.56	903.45
385.75	894.08
385.95	884.72
386.14	894.08
386.34	898.77
386.53	971.32
386.72	950.26
386.92	938.55
387.11	887.06
387.31	901.11
387.50	896.43
387.70	922.17
387.89	1004.09
388.09	917.49
388.28	973.66
388.48	950.26
388.67	952.60
388.86	952.60
389.06	919.83
389.25	919.83
389.45	1013.45
389.64	1001.75
389.84	950.26
390.03	1015.79
390.22	1046.22
390.42	1013.45
390.61	1018.13
390.81	959.62
391.00	971.32
391.19	1015.79
391.39	1015.79
391.58	1060.26
391.78	1050.90
391.97	1034.52
392.16	1006.43
392.36	1029.84
392.55	1053.24
392.75	1048.56
392.94	1006.43
393.13	1050.90
393.33	1018.13
393.52	1025.15
393.71	1118.78
393.91	1057.92
394.10	1050.90
394.29	1046.22
394.49	1062.60
394.68	1125.80
394.88	1074.31
395.07	1121.12
395.26	1107.07
395.46	1088.35
395.65	1123.46
395.84	1121.12
396.04	1130.48
396.23	1151.54
396.42	1125.80
396.62	1151.54
396.81	1097.71
397.00	1086.01
397.19	1086.01
397.39	1125.80
397.58	1158.57
397.77	1027.50
397.97	1111.75
398.16	1167.93
398.35	1263.89
398.55	1184.31
398.74	1144.52
398.93	1109.41
399.12	1238.14
399.32	1123.46
399.51	1310.70
399.70	1226.44
399.90	1181.97
400.09	1238.14
400.28	1184.31
400.47	1313.04
400.67	1280.27
400.86	1254.53
401.05	1238.14
401.24	1256.87
401.44	1205.38
401.63	1277.93
401.82	1336.45
402.01	1301.34
402.21	1301.34
402.40	1308.36
402.59	1315.38
402.78	1306.02
402.97	1287.29
403.17	1373.89
403.36	1256.87
403.55	1329.42
403.74	1425.39
403.93	1371.55
404.13	1472.20
404.32	1434.75
404.51	1490.92
404.70	1430.07
404.89	1425.39
405.09	1441.77
405.28	1441.77
405.47	1497.94
405.66	1387.94
405.85	1451.13
406.05	1430.07
406.24	1453.47
406.43	1502.62
406.62	1593.90
406.81	1570.50
407.00	1394.96
407.20	1451.13
407.39	1462.83
407.58	1472.20
407.77	1481.56
407.96	1504.96
408.15	1582.20
408.34	1554.12
408.54	1577.52
408.73	1540.07
408.92	1586.88
409.11	1563.48
409.30	1579.86
409.49	1619.65
409.68	1593.90
409.87	1617.31
410.07	1638.38
410.26	1706.25
410.45	1680.50
410.64	1586.88
410.83	1633.69
411.02	1638.38
411.21	1739.02
411.40	1678.16
411.59	1636.03
411.78	1661.78
411.98	1682.85
412.17	1774.13
412.36	1753.06
412.55	1753.06
412.74	1886.47
412.93	1764.76
413.12	1797.53
413.31	1961.37
413.50	1921.58
413.69	1785.83
413.88	1832.64
414.07	1870.09
414.26	1937.96
414.45	1872.43
414.64	1984.77
414.83	1874.77
415.02	1933.28
415.22	1968.39
415.41	1921.58
415.60	1937.96
415.79	1935.62
415.98	2108.82
416.17	1994.14
416.36	2015.20
416.55	1893.49
416.74	2111.16
416.93	1989.46
417.12	2097.12
417.31	2038.61
417.50	2050.31
417.69	2169.68
417.88	2134.57
418.07	2099.46
418.26	2125.21
418.45	2134.57
418.64	2190.74
418.83	2066.69
419.02	2165.00
419.21	2263.30
419.39	2272.66
419.58	2216.49
419.77	2209.47
419.96	2258.62
420.15	2317.13
420.34	2228.19
420.53	2270.32
420.72	2253.94
420.91	2296.07
421.10	2270.32
421.29	2354.58
421.48	2310.11
421.67	2354.58
421.86	2429.48
422.05	2314.79
422.24	2331.17
422.43	2321.81
422.61	2396.71
422.80	2312.45
422.99	2401.39
423.18	2389.69
423.37	2436.50
423.56	2356.92
423.75	2441.18
423.94	2289.04
424.13	2296.07
424.32	2249.25
424.50	2401.39
424.69	2499.69
424.88	2541.82
425.07	2420.11
425.26	2415.43
425.45	2352.24
425.64	2392.03
425.83	2403.73
426.01	2399.05
426.20	2462.24
426.39	2518.42
426.58	2377.98
426.77	2345.22
426.96	2502.03
427.15	2420.11
427.33	2511.39
427.52	2443.52
427.71	2532.46
427.90	2483.31
428.09	2558.21
428.28	2511.39
428.46	2452.88
428.65	2544.16
428.84	2579.27
429.03	2609.70
429.22	2675.23
429.40	2527.78
429.59	2614.38
429.78	2485.65
429.97	2452.88
430.16	2633.10
430.34	2670.55
430.53	2612.04
430.72	2647.15
430.91	2588.63
431.10	2651.83
431.28	2656.51
431.47	2656.51
431.66	2602.68
431.85	2572.25
432.03	2698.64
432.22	2827.37
432.41	2715.02
432.60	2729.06
432.79	2841.41
432.97	2715.02
433.16	2712.68
433.35	2708.00
433.54	2754.81
433.72	2803.96
433.91	2832.05
434.10	2789.92
434.28	2766.51
434.47	2881.20
434.66	2878.86
434.85	2829.71
435.03	3038.02
435.22	3117.59
435.41	3358.67
435.59	3265.05
435.78	3272.07
435.97	3129.30
436.16	3021.63
436.34	3075.46
436.53	2928.01
436.72	2991.20
436.90	2843.75
437.09	3009.93
437.28	2822.69
437.46	2953.76
437.65	3002.91
437.84	3080.14
438.02	3129.30
438.21	3075.46
438.40	3080.14
438.58	3042.70
438.77	3133.98
438.96	3152.70
439.14	3213.56
439.33	3262.71
439.52	3155.04
439.70	3309.52
439.89	3290.79
440.08	3185.47
440.26	3274.41
440.45	3272.07
440.63	3129.30
440.82	3330.58
441.01	3276.75
441.19	3365.69
441.38	3480.38
441.57	3391.44
441.75	3300.16
441.94	3433.57
442.12	3433.57
442.31	3529.53
442.50	3557.61
442.68	3522.51
442.87	3517.83
443.05	3585.70
443.24	3616.13
443.43	3576.34
443.61	3630.17
443.80	3641.87
443.98	3449.95
444.17	3421.86
444.35	3473.36
444.54	3571.66
444.73	3487.40
444.91	3595.06
445.10	3644.21
445.28	3555.27
445.47	3471.01
445.65	3578.68
445.84	3478.04
446.02	3639.53
446.21	3667.62
446.39	3564.64
446.58	3721.45
446.77	3653.58
446.95	3646.55
447.14	3688.68
447.32	3744.86
447.51	3662.94
447.69	3559.95
447.88	3721.45
448.06	3669.96
448.25	3660.60
448.43	3691.02
448.62	3637.19
448.80	3702.73
448.99	3679.32
449.17	3742.52
449.36	3723.79
449.54	3721.45
449.73	3707.41
449.91	3721.45
450.10	3829.12
450.28	3878.27
450.46	3798.69
450.65	3859.54
450.83	3967.21
451.02	3763.58
451.20	3995.29
451.39	3953.16
451.57	3925.08
451.76	3845.50
451.94	3911.04
452.13	3995.29
452.31	3861.88
452.49	3969.55
452.68	3971.89
452.86	3985.93
453.05	3953.16
453.23	3971.89
453.42	3847.84
453.60	4060.83
453.78	3927.42
453.97	3988.27
454.15	4002.32
454.34	3929.76
454.52	4154.45
454.70	4032.74
454.89	3873.59
455.07	4107.64
455.26	4086.58
455.44	4198.92
455.62	4105.30
455.81	4351.06
455.99	4257.43
456.17	4105.30
456.36	4191.90
456.54	4259.78
456.73	4311.27
456.91	4306.59
457.09	4425.95
457.28	4479.79
457.46	4344.03
457.64	4266.80
457.83	4306.59
458.01	4390.84
458.19	4479.79
458.38	4355.74
458.56	4341.69
458.74	4491.49
458.93	4468.08
459.11	4517.23
459.29	4538.30
459.48	4440.00
459.66	4447.02
459.84	4603.83
460.03	4634.26
460.21	4585.11
460.39	4557.02
460.57	4521.92
460.76	4711.50
460.94	4594.47
461.12	4573.41
461.31	4638.94
461.49	4652.98
461.67	4526.60
461.85	4699.80
462.04	4720.86
462.22	4983.00
462.40	4711.50
462.59	4592.13
462.77	4685.75
462.95	4706.82
463.13	4779.37
463.32	4748.95
463.50	4840.23
463.68	4828.53
463.86	4812.14
464.05	4809.80
464.23	4828.53
464.41	4741.93
464.59	4755.97
464.78	4947.89
464.96	4786.40
465.14	4816.82
465.32	4910.44
465.50	4940.87
465.69	5053.22
465.87	4985.34
466.05	4980.66
466.23	4884.70
466.41	5022.79
466.60	5057.90
466.78	4973.64
466.96	5008.75
467.14	4990.02
467.32	4933.85
467.51	5191.31
467.69	5008.75
467.87	5163.22
468.05	5149.18
468.23	5071.94
468.41	5011.09
468.60	5144.50
468.78	5231.10
468.96	5093.01
469.14	5247.48
469.32	5327.06
469.50	5060.24
469.69	5163.22
469.87	5305.99
470.05	5242.80
470.23	5212.37
470.41	5369.19
470.59	5268.55
470.77	5280.25
470.95	5247.48
471.14	5418.34
471.32	5228.76
471.50	5432.38
471.68	5366.85
471.86	5313.02
472.04	5558.77
472.22	5612.60
472.40	5373.87
472.58	5408.98
472.77	5537.71
472.95	5614.95
473.13	5647.71
473.31	5479.19
473.49	5561.11
473.67	5483.88
473.85	5762.40
474.03	5858.36
474.21	5774.10
474.39	5699.20
474.57	5799.85
474.75	5973.05
474.93	5874.74
475.12	5905.17
475.30	5870.06
475.48	5923.90
475.66	5963.68
475.84	5914.53
476.02	6040.92
476.20	5987.09
476.38	6099.44
476.56	6375.62
476.74	6319.45
476.92	6167.31
477.10	6256.25
477.28	6307.74
477.46	6286.68
477.64	6136.88
477.82	6480.94
478.00	6609.67
478.18	6494.99
478.36	6593.29
478.54	6663.51
478.72	6525.41
478.90	6839.05
479.08	6623.72
479.26	6731.38
479.44	6796.92
479.62	6860.11
479.80	6923.30
479.98	6953.73
480.16	7098.84
480.34	7016.93
480.52	7279.07
480.70	7159.70
480.88	7180.76
481.06	7119.91
481.24	7400.77
481.41	7201.83
481.59	7485.03
481.77	7403.11
481.95	7428.86
482.13	7604.40
482.31	7566.95
482.49	7742.49
482.67	7634.83
482.85	7782.28
483.03	8021.02
483.21	7873.56
483.39	8086.55
483.57	8011.65
483.74	8084.21
483.92	8135.70
484.10	7969.52
484.28	8290.18
484.46	8390.82
484.64	8528.91
484.82	8222.30
485.00	8322.94
485.18	8645.94
485.35	8615.51
485.53	8720.84
485.71	8697.43
485.89	8816.80
486.07	8816.80
486.25	8950.21
486.43	9064.89
486.61	8961.91
486.78	9107.02
486.96	9259.16
487.14	9289.59
487.32	9184.26
487.50	9490.87
487.68	9504.92
487.85	9476.83
488.03	9551.73
488.21	9736.63
488.39	9851.31
488.57	9865.36
488.75	9650.03
488.92	9867.70
489.10	10115.80
489.28	9991.75
489.46	10197.71
489.64	10057.28
489.81	10366.23
489.99	10312.40
490.17	10366.23
490.35	10586.24
490.53	10368.57
490.70	10431.77
490.88	10506.66
491.06	10555.82
491.24	10548.79
491.41	10635.39
491.59	10829.66
491.77	10916.26
491.95	10986.47
492.13	10785.19
492.30	10970.09
492.48	10881.15
492.66	11162.01
492.84	11194.78
493.01	11449.90
493.19	11190.10
493.37	11375.00
493.54	11253.30
493.72	11342.24
493.90	11538.84
494.08	11534.16
494.25	11815.02
494.43	11665.23
494.61	12044.40
494.79	11988.22
494.96	12018.65
495.14	12056.10
495.32	12128.66
495.49	11990.56
495.67	12362.71
495.85	12259.73
496.02	12301.86
496.20	12552.29
496.38	12592.08
496.55	12486.76
496.73	12601.44
496.91	12655.28
497.09	12683.36
497.26	12678.68
497.44	12720.81
497.62	12685.70
497.79	12814.43
497.97	12898.69
498.14	13092.96
498.32	13069.55
498.50	13427.65
498.67	13200.62
498.85	13233.39
499.03	13259.13
499.20	13179.56
499.38	13186.58
499.56	13614.90
499.73	13385.52
499.91	13703.84
500.08	13731.92
500.26	13413.61
500.44	13451.06
500.61	13483.83
500.79	13729.58
500.97	13811.50
501.14	14246.84
501.32	13930.87
501.49	13781.07
501.67	13881.72
501.84	14040.87
502.02	14090.02
502.20	14265.57
502.37	14134.50
502.55	14005.77
502.72	14204.71
502.90	14101.73
503.07	14424.72
503.25	14640.05
503.43	14073.64
503.60	14504.30
503.78	14590.90
503.95	14523.02
504.13	14890.49
504.30	14651.75
504.48	14553.45
504.65	14647.07
504.83	14944.32
505.01	14988.79
505.18	14803.89
505.36	15061.35
505.53	14757.08
505.71	15002.83
505.88	15035.60
506.06	15101.14
506.23	15220.50
506.41	14934.96
506.58	15367.96
506.76	15382.00
506.93	15293.06
507.11	15412.43
507.28	15449.88
507.46	15475.62
507.63	15489.67
507.81	15618.39
507.98	15351.57
508.16	15438.17
508.33	15602.01
508.50	15751.81
508.68	15716.70
508.85	16042.03
509.03	15864.15
509.20	15836.06
509.38	16128.63
509.55	16332.26
509.73	16135.65
509.90	16119.27
510.08	15932.03
510.25	16109.91
510.42	16042.03
510.60	16091.18
510.77	16407.16
510.95	16276.09
511.12	16559.29
511.30	16091.18
511.47	16449.28
511.64	16690.36
511.82	16540.57
511.99	16491.41
512.17	16781.64
512.34	16552.27
512.51	16807.39
512.69	16751.21
512.86	16870.58
513.04	16854.20
513.21	17015.69
513.38	16980.59
513.56	16746.53
513.73	16978.25
513.90	17018.04
514.08	17022.72
514.25	17366.78
514.43	17273.15
514.60	17121.02
514.77	17149.11
514.95	17308.26
515.12	17053.14
515.29	17226.34
515.47	17128.04
515.64	17334.01
515.81	17387.84
515.99	17554.02
516.16	17500.19
516.33	17556.36
516.51	17790.41
516.68	17844.24
516.85	17806.80
517.03	17776.37
517.20	17916.80
517.37	17820.84
517.54	17825.52
517.72	17886.37
517.89	17706.15
518.06	17741.26
518.24	17748.28
518.41	18150.85
518.58	17750.62
518.75	18010.42
518.93	18106.38
519.10	18160.22
519.27	18317.03
519.45	18246.82
519.62	18256.18
519.79	18197.67
519.96	18375.55
520.14	18185.96
520.31	18270.22
520.48	18338.10
520.65	18520.66
520.83	18487.89
521.00	19023.87
521.17	18656.41
521.34	18534.70
521.52	18595.56
521.69	18691.52
521.86	18398.95
522.03	18595.56
522.20	18635.35
522.38	18923.23
522.55	18871.74
522.72	18918.55
522.89	19115.16
523.07	19007.49
523.24	18909.19
523.41	19138.56
523.58	19257.93
523.75	19227.50
523.92	19047.28
524.10	19239.20
524.27	19335.17
524.44	19374.95
524.61	19456.87
524.78	19138.56
524.96	19321.12
525.13	19557.52
525.30	19756.46
525.47	19723.69
525.64	19527.09
525.81	19573.90
525.98	19971.79
526.16	19618.37
526.33	19379.64
526.50	19833.70
526.67	19906.26
526.84	19861.79
527.01	19789.23
527.18	19976.47
527.36	19730.72
527.53	20006.90
527.70	19997.54
527.87	20016.26
528.04	20198.82
528.21	19962.43
528.38	20126.27
528.55	20290.10
528.72	19829.02
528.89	19967.11
529.07	19892.21
529.24	20149.67
529.41	20123.93
529.58	19978.81
529.75	20247.97
529.92	20299.47
530.09	20149.67
530.26	20404.79
530.43	20229.25
530.60	20346.28
530.77	20376.70
530.94	20720.76
531.11	20360.32
531.28	20367.34
531.46	20479.69
531.63	20601.40
531.80	20575.65
531.97	20430.54
532.14	20669.27
532.31	20720.76
532.48	20893.96
532.65	21008.65
532.82	20411.81
532.99	20786.30
533.16	20795.66
533.33	20884.60
533.50	20858.85
533.67	20851.83
533.84	20922.05
534.01	20805.02
534.18	20680.97
534.35	21275.47
534.52	21369.09
534.69	21186.53
534.86	21284.83
535.03	20809.70
535.20	21179.51
535.37	21200.57
535.54	21191.21
535.71	21245.04
535.88	21212.28
536.05	21095.25
536.22	21128.02
536.38	21270.79
536.55	21589.10
536.72	21273.13
536.89	21561.02
537.06	21724.85
537.23	21692.08
537.40	21710.81
537.57	21371.43
537.74	21577.40
537.91	21727.19
538.08	21621.87
538.25	21479.10
538.42	21671.02
538.59	21862.94
538.75	21619.53
538.92	21888.69
539.09	21895.71
539.26	21586.76
539.43	21909.75
539.60	21799.75
539.77	21743.58
539.94	22043.17
540.11	21986.99
540.28	22214.02
540.44	22068.91
540.61	22101.68
540.78	22115.72
540.95	22281.90
541.12	22469.14
541.29	22511.27
541.46	22696.17
541.62	22707.88
541.79	22466.80
541.96	22640.00
542.13	22497.23
542.30	22576.81
542.47	22647.02
542.63	22778.09
542.80	22764.05
542.97	22691.49
543.14	22869.37
543.31	22778.09
543.48	22726.60
543.64	23159.60
543.81	22869.37
543.98	23262.58
544.15	22965.34
544.32	22923.21
544.48	22881.08
544.65	23185.35
544.82	23175.98
544.99	23021.51
545.16	22967.68
545.32	23201.73
545.49	23693.24
545.66	24063.05
545.83	24348.59
546.00	23941.34
546.16	24074.75
546.33	23728.35
546.50	23550.47
546.67	23515.36
546.83	23133.86
547.00	22951.29
547.17	23089.38
547.34	22852.99
547.50	22948.95
547.67	23239.18
547.84	23442.81
548.00	23623.03
548.17	23541.11
548.34	23087.04
548.51	23194.71
548.67	23328.12
548.84	23489.62
549.01	23374.93
549.18	23592.60
549.34	23410.04
549.51	23683.88
549.68	23236.84
549.84	23229.82
550.01	23119.81
550.18	23634.73
550.34	23414.72
550.51	23274.29
550.68	23295.35
550.84	22998.10
551.01	23744.73
551.18	23332.80
551.34	23445.15
551.51	23620.69
551.68	23751.76
551.84	23473.23
552.01	23323.44
552.18	23667.50
552.34	23494.30
552.51	23728.35
552.68	23838.36
552.84	23728.35
553.01	23676.86
553.18	23761.12
553.34	23777.50
553.51	23426.42
553.67	23672.18
553.84	23651.11
554.01	23967.09
554.17	23697.92
554.34	24030.28
554.51	23836.02
554.67	23812.61
554.84	23810.27
555.00	23601.96
555.17	23775.16
555.33	24018.58
555.50	23646.43
555.67	23508.34
555.83	23871.12
556.00	24112.20
556.16	24063.05
556.33	23894.53
556.50	24210.50
556.66	24004.53
556.83	23906.23
556.99	24091.13
557.16	23915.59
557.32	24201.14
557.49	24144.97
557.65	23896.87
557.82	23983.47
557.98	24006.87
558.15	23892.19
558.32	23997.51
558.48	23906.23
558.65	24395.40
558.81	24390.72
558.98	24154.33
559.14	24252.63
559.31	24095.82
559.47	23934.32
559.64	24034.96
559.80	23948.36
559.97	24224.54
560.13	24095.82
560.30	24163.69
560.46	24238.59
560.63	24226.89
560.79	24673.93
560.96	24570.94
561.12	24149.65
561.29	24409.45
561.45	24271.36
561.61	24432.85
561.78	24524.13
561.94	24444.56
562.11	24491.37
562.27	24315.83
562.44	24367.32
562.60	24151.99
562.77	24467.96
562.93	24463.28
563.10	24673.93
563.26	24287.74
563.42	24299.44
563.59	24900.96
563.75	24503.07
563.92	24432.85
564.08	24453.92
564.24	24659.88
564.41	24582.65
564.57	24765.21
564.74	24477.32
564.90	24547.54
565.07	24477.32
565.23	24416.47
565.39	24421.15
565.56	24702.01
565.72	24493.71
565.88	25017.99
566.05	24432.85
566.21	24348.59
566.38	24437.53
566.54	24554.56
566.70	24856.49
566.87	24912.66
567.03	24788.61
567.19	24889.26
567.36	25032.03
567.52	24584.99
567.68	24580.31
567.85	24575.62
568.01	24879.89
568.17	24566.26
568.34	24638.82
568.50	24922.02
568.66	24580.31
568.83	24800.32
568.99	24575.62
569.15	24821.38
569.32	24641.16
569.48	24645.84
569.64	24797.98
569.81	24507.75
569.97	24643.50
570.13	24882.24
570.30	24673.93
570.46	24617.75
570.62	24748.82
570.78	24711.38
570.95	24327.53
571.11	24936.07
571.27	24587.33
571.43	24631.80
571.60	24746.48
571.76	24577.97
571.92	24739.46
572.09	24886.92
572.25	25116.29
572.41	24872.87
572.57	25247.36
572.74	24870.53
572.90	24865.85
573.06	25069.48
573.22	25010.96
573.38	24599.03
573.55	24793.29
573.71	25074.16
573.87	24687.97
574.03	24718.40
574.20	25116.29
574.36	24568.60
574.52	24641.16
574.68	24615.41
574.84	24950.11
575.01	24716.06
575.17	24978.20
575.33	25177.14
575.49	25261.40
575.65	24718.40
575.82	24938.41
575.98	24713.72
576.14	24814.36
576.30	25200.55
576.46	25118.63
576.62	25188.85
576.79	25057.78
576.95	25167.78
577.11	25127.99
577.27	25186.50
577.43	25036.71
577.59	25156.08
577.75	25015.65
577.92	24849.47
578.08	24999.26
578.24	25036.71
578.40	25230.98
578.56	25404.17
578.72	25479.07
578.88	25593.76
579.04	25270.76
579.21	25357.36
579.37	24893.94
579.53	25027.35
579.69	25226.29
579.85	25205.23
580.01	25394.81
580.17	25317.57
580.33	24893.94
580.49	25233.32
580.65	25135.01
580.82	25123.31
580.98	24652.86
581.14	25266.08
581.30	25195.87
581.46	24959.47
581.62	24847.13
581.78	24945.43
581.94	25223.95
582.10	24996.92
582.26	25326.94
582.42	25088.20
582.58	25200.55
582.74	25188.85
582.90	25289.49
583.06	24912.66
583.22	24971.18
583.38	25214.59
583.54	25085.86
583.70	25029.69
583.86	25413.54
584.02	25270.76
584.18	25563.33
584.34	24950.11
584.50	24882.24
584.66	25092.88
584.82	24821.38
584.98	25127.99
585.14	25179.48
585.30	24748.82
585.46	25060.12
585.62	25025.01
585.78	25060.12
585.94	24978.20
586.10	25146.72
586.26	25233.32
586.42	25043.73
586.58	25177.14
586.74	25015.65
586.90	24950.11
587.06	24898.62
587.22	25104.59
587.38	25277.79
587.54	25298.85
587.70	25380.77
587.86	25326.94
588.02	25249.70
588.18	25191.19
588.34	25441.62
588.49	25207.57
588.65	24807.34
588.81	25027.35
588.97	24985.22
589.13	24879.89
589.29	25397.15
589.45	24952.45
589.61	25481.41
589.77	25483.75
589.93	25142.03
590.08	24996.92
590.24	25399.49
590.40	25404.17
590.56	25085.86
590.72	25139.69
590.88	25099.90
591.04	25333.96
591.20	25359.70
591.35	25261.40
591.51	25766.96
591.67	25738.87
591.83	25802.07
591.99	25663.97
592.15	25399.49
592.31	25273.10
592.46	25069.48
592.62	25312.89
592.78	25214.59
592.94	25408.86
593.10	25095.22
593.26	25291.83
593.41	25453.33
593.57	25443.96
593.73	25331.62
593.89	25476.73
594.05	25549.29
594.20	25083.52
594.36	25263.74
594.52	25439.28
594.68	25270.76
594.84	25280.13
594.99	25537.59
595.15	25207.57
595.31	25511.84
595.47	25198.21
595.62	25174.80
595.78	25432.26
595.94	25708.44
596.10	25083.52
596.25	25144.38
596.41	25364.39
596.57	25369.07
596.73	25371.41
596.88	25226.29
597.04	25331.62
597.20	25511.84
597.36	25668.66
597.51	25294.17
597.67	25357.36
597.83	25362.04
597.99	25617.16
598.14	25797.38
598.30	25387.79
598.46	25404.17
598.61	25575.03
598.77	25434.60
598.93	25336.30
599.09	25472.05
599.24	25535.24
599.40	25366.73
599.56	25343.32
599.71	25568.01
599.87	25696.74
600.03	25256.72
600.18	25486.09
600.34	25373.75
600.50	25200.55
600.65	25642.91
600.81	25465.03
600.97	25493.12
601.12	25642.91
601.28	25570.35
601.44	25537.59
601.59	25593.76
601.75	25509.50
601.91	25619.50
602.06	25289.49
602.22	25495.46
602.37	25446.30
602.53	25394.81
602.69	25460.35
602.84	25626.53
603.00	25816.11
603.16	25542.27
603.31	25333.96
603.47	25413.54
603.62	25273.10
603.78	25392.47
603.94	25104.59
604.09	25336.30
604.25	25497.80
604.40	25549.29
604.56	25132.67
604.71	25486.09
604.87	25472.05
605.03	25689.72
605.18	25001.60
605.34	25497.80
605.49	25102.25
605.65	25612.48
605.80	25067.14
605.96	25472.05
606.12	25254.38
606.27	25509.50
606.43	25619.50
606.58	25277.79
606.74	25233.32
606.89	25427.58
607.05	25366.73
607.20	24978.20
607.36	24926.71
607.51	25322.26
607.67	25085.86
607.82	25149.06
607.98	25191.19
608.13	24931.39
608.29	25301.19
608.44	25205.23
608.60	25268.42
608.75	25537.59
608.91	25156.08
609.06	25074.16
609.22	25376.09
609.37	25254.38
609.53	25638.23
609.68	25111.61
609.84	25289.49
609.99	25383.11
610.15	25158.42
610.30	25682.70
610.46	25837.17
610.61	26225.70
610.76	26558.06
610.92	26340.39
611.07	26202.30
611.23	26529.97
611.38	26417.63
611.54	26225.70
611.69	25905.05
611.84	26354.43
612.00	25792.70
612.15	25876.96
612.31	25832.49
612.46	25493.12
612.62	25268.42
612.77	25303.53
612.92	25284.81
613.08	24999.26
613.23	25425.24
613.39	24851.81
613.54	25523.54
613.69	25216.93
613.85	25151.40
614.00	25277.79
614.15	25130.33
614.31	25221.61
614.46	25530.56
614.62	25116.29
614.77	25074.16
614.92	25034.37
615.08	25142.03
615.23	24870.53
615.38	24758.19
615.54	24718.40
615.69	24835.42
615.84	24762.87
616.00	24863.51
616.15	24584.99
616.30	24999.26
616.46	24690.31
616.61	24627.12
616.76	24690.31
616.92	24198.80
617.07	24477.32
617.22	24306.46
617.37	24439.87
617.53	24552.22
617.68	24638.82
617.83	24807.34
617.99	24683.29
618.14	24528.81
618.29	24861.17
618.45	24442.21
618.60	24631.80
618.75	24460.94
618.90	24584.99
619.06	24381.36
619.21	24414.13
619.36	23988.15
619.51	24287.74
619.67	24063.05
619.82	24381.36
619.97	24554.56
620.12	24119.22
620.28	24446.90
620.43	24381.36
620.58	24589.67
620.73	24423.49
620.89	24271.36
621.04	24531.15
621.19	24320.51
621.34	24479.66
621.49	23828.99
621.65	24259.65
621.80	24297.10
621.95	24222.20
622.10	24095.82
622.25	24491.37
622.41	24264.33
622.56	24247.95
622.71	24381.36
622.86	24257.31
623.01	24079.43
623.16	23997.51
623.32	24140.29
623.47	23672.18
623.62	23950.70
623.77	24205.82
623.92	24049.00
624.07	23988.15
624.23	24442.21
624.38	24074.75
624.53	24060.71
624.68	23807.93
624.83	23964.75
624.98	23599.62
625.13	23601.96
625.29	23892.19
625.44	23482.59
625.59	23784.52
625.74	23810.27
625.89	23709.63
626.04	23742.39
626.19	23793.89
626.34	23950.70
626.49	23770.48
626.65	23601.96
626.80	23583.24
626.95	23726.01
627.10	23131.51
627.25	23510.68
627.40	23576.22
627.55	23194.71
627.70	23873.46
627.85	23562.17
628.00	23520.04
628.15	23566.85
628.30	23587.92
628.45	23386.63
628.60	23393.65
628.76	23285.99
628.91	23023.85
629.06	22874.06
629.21	23323.44
629.36	23215.77
629.51	22939.59
629.66	23253.22
629.81	23138.54
629.96	23358.55
630.11	23398.34
630.26	23700.26
630.41	23506.00
630.56	23503.66
630.71	23477.91
630.86	23569.19
631.01	23531.75
631.16	23494.30
631.31	23211.09
631.46	22955.97
631.61	23344.50
631.76	23185.35
631.91	22979.38
632.06	22843.63
632.21	22897.46
632.36	22991.08
632.51	22913.84
632.66	22993.42
632.81	22773.41
632.96	23073.00
633.10	22733.62
633.25	23009.81
633.40	22899.80
633.55	22864.69
633.70	22799.16
633.85	22560.42
634.00	22775.75
634.15	22541.70
634.30	23136.20
634.45	22632.98
634.60	22422.33
634.75	22747.67
634.90	22569.79
635.05	22838.95
635.19	22534.68
635.34	22750.01
635.49	22588.51
635.64	22684.47
635.79	22546.38
635.94	22658.73
636.09	22478.50
636.24	22815.54
636.39	22614.26
636.53	22965.34
636.68	22616.60
636.83	22469.14
636.98	22515.95
637.13	22621.28
637.28	22548.72
637.43	22658.73
637.57	22256.15
637.72	22312.33
637.87	22450.42
638.02	22134.45
638.17	22298.28
638.32	22480.85
638.46	22082.95
638.61	22757.03
638.76	22436.38
638.91	22225.73
639.06	22579.15
639.20	22368.50
639.35	22553.40
639.50	22036.14
639.65	22146.15
639.80	21996.35
639.94	22321.69
640.09	22160.19
640.24	22181.26
640.39	22176.58
640.54	22059.55
640.68	21977.63
640.83	22263.18
640.98	21879.33
641.13	22118.06
641.27	22122.74
641.42	22022.10
641.57	21823.16
641.72	21895.71
641.86	21743.58
642.01	21345.69
642.16	21961.25
642.31	21961.25
642.45	22136.79
642.60	21916.78
642.75	21905.07
642.90	22050.19
643.04	21764.64
643.19	21898.05
643.34	21886.35
643.48	22160.19
643.63	21888.69
643.78	21708.47
643.93	21678.04
644.07	21579.74
644.22	21291.85
644.37	21404.20
644.51	21891.03
644.66	21619.53
644.81	21745.92
644.95	21656.98
645.10	21729.53
645.25	21834.86
645.39	21656.98
645.54	21816.13
645.69	22232.75
645.83	21362.07
645.98	21766.98
646.13	21406.54
646.27	21722.51
646.42	21511.86
646.57	21383.13
646.71	21287.17
646.86	21226.32
647.00	21783.37
647.15	21703.79
647.30	21507.18
647.44	21467.39
647.59	21605.49
647.74	21411.22
647.88	21532.93
648.03	21193.55
648.17	21619.53
648.32	20996.95
648.47	21200.57
648.61	21130.36
648.76	21432.29
648.90	21338.66
649.05	21425.26
649.20	21483.78
649.34	21401.86
649.49	21392.50
649.63	21333.98
649.78	21025.03
649.92	21439.31
650.07	21268.45
650.21	21558.67
650.36	21366.75
650.51	21032.05
650.65	21525.91
650.80	21242.70
650.94	21032.05
651.09	21132.70
651.23	21125.68
651.38	20851.83
651.52	21130.36
651.67	21106.95
651.81	21364.41
651.96	21160.78
652.10	21184.19
652.25	21233.34
652.39	20980.56
652.54	20985.24
652.68	20936.09
652.83	20830.77
652.97	20978.22
653.12	20919.71
653.26	20961.84
653.41	21071.84
653.55	21118.65
653.70	20570.97
653.84	20922.05
653.99	20760.55
654.13	20884.60
654.27	20702.04
654.42	20711.40
654.56	20933.75
654.71	20702.04
654.85	21095.25
655.00	20547.56
655.14	20680.97
655.29	20753.53
655.43	20886.94
655.57	20713.74
655.72	20767.57
655.86	20966.52
656.01	20559.27
656.15	20418.83
656.30	20807.36
656.44	20503.09
656.58	20423.51
656.73	20226.91
656.87	20666.93
657.01	20599.05
657.16	20458.62
657.30	20231.59
657.45	20315.85
657.59	20336.91
657.73	20350.96
657.88	20130.95
658.02	20369.68
658.16	20538.20
658.31	20414.15
658.45	20379.04
658.60	20458.62
658.74	20259.68
658.88	20496.07
659.03	19927.32
659.17	20327.55
659.31	20276.06
659.46	20072.43
659.60	20018.60
659.74	20081.80
659.89	19934.34
660.03	20020.94
660.17	19936.68
660.32	19997.54
660.46	19964.77
660.60	19770.51
660.74	20009.24
660.89	19807.95
661.03	19889.87
661.17	19850.08
661.32	19747.10
661.46	20044.35
661.60	19798.59
661.74	19669.86
661.89	19751.78
662.03	19590.28
662.17	19321.12
662.31	19576.24
662.46	19442.83
662.60	19482.62
662.74	19782.21
662.88	19536.45
663.03	19637.09
663.17	19517.73
663.31	19538.79
663.45	19604.33
663.60	19674.54
663.74	19805.61
663.88	19314.10
664.02	19351.55
664.17	19281.33
664.31	19470.92
664.45	19058.98
664.59	19278.99
664.73	19012.17
664.88	19042.60
665.02	19159.63
665.16	19066.00
665.30	19098.77
665.44	19105.79
665.59	19157.28
665.73	19197.07
665.87	18735.99
666.01	19138.56
666.15	19208.78
666.29	18815.57
666.44	18663.43
666.58	18647.05
666.72	18698.54
666.86	18916.21
667.00	18590.88
667.14	18630.66
667.28	18370.86
667.43	18618.96
667.57	18672.79
667.71	18651.73
667.85	18588.53
667.99	18548.75
668.13	18487.89
668.27	18565.13
668.41	18663.43
668.56	18108.72
668.70	18466.83
668.84	18284.26
668.98	18300.65
669.12	18305.33
669.26	18693.86
669.40	18281.92
669.54	18171.92
669.68	18251.50
669.82	18221.07
669.96	18155.54
670.10	18125.11
670.25	18146.17
670.39	18059.57
670.53	18059.57
670.67	17968.29
670.81	18251.50
670.95	17717.86
671.09	17837.22
671.23	17921.48
671.37	18012.76
671.51	17792.75
671.65	17467.42
671.79	17605.51
671.93	17549.34
672.07	17575.08
672.21	17179.53
672.35	17509.55
672.49	17783.39
672.63	17474.44
672.77	17383.16
672.91	17216.98
673.05	17259.11
673.19	17025.06
673.33	17226.34
673.47	17067.19
673.61	16926.75
673.75	17078.89
673.89	16945.48
674.03	16910.37
674.17	17170.17
674.31	17099.95
674.45	17060.16
674.59	16938.46
674.73	17020.38
674.87	16919.73
675.01	16760.58
675.15	16851.86
675.29	16999.31
675.43	16552.27
675.56	16812.07
675.70	16884.62
675.84	16889.31
675.98	16201.19
676.12	16489.07
676.26	16776.96
676.40	16271.40
676.54	16578.01
676.68	16395.45
676.82	16112.25
676.96	16549.93
677.10	16673.98
677.23	16500.78
677.37	16226.93
677.51	16257.36
677.65	16133.31
677.79	16027.99
677.93	15793.94
678.07	15875.85
678.21	15590.31
678.34	15737.76
678.48	15704.99
678.62	15749.46
678.76	15555.20
678.90	15538.82
679.04	15604.35
679.18	15442.85
679.31	15239.23
679.45	15454.56
679.59	15173.69
679.73	15433.49
679.87	15648.82
680.00	15201.78
680.14	15110.50
680.28	15005.17
680.42	15119.86
680.56	14998.15
680.70	15122.20
680.83	14607.28
680.97	15021.56
681.11	14965.39
681.25	14956.02
681.39	14911.55
681.52	14965.39
681.66	14717.29
681.80	14888.15
681.94	14839.00
682.07	15030.92
682.21	14815.59
682.35	14721.97
682.49	14693.88
682.62	14443.45
682.76	14317.06
682.90	14611.96
683.04	14368.55
683.17	14171.94
683.31	14445.79
683.45	14359.19
683.59	13965.98
683.72	13741.29
683.86	14228.12
684.00	14104.07
684.13	13783.41
684.27	14026.83
684.41	13720.22
684.55	13596.17
684.68	13853.63
684.82	13694.47
684.96	13699.16
685.09	13834.91
685.23	13614.90
685.37	13825.54
685.50	13879.38
685.64	13607.87
685.78	13425.31
685.91	13376.16
686.05	13380.84
686.19	12973.59
686.32	13305.95
686.46	13259.13
686.60	13266.16
686.73	13385.52
686.87	13184.24
687.01	13130.41
687.14	13177.22
687.28	12910.40
687.42	12966.57
687.55	12840.18
687.69	12989.97
687.82	12657.62
687.96	12791.03
688.10	12748.90
688.23	12788.69
688.37	12465.69
688.50	12662.30
688.64	12617.83
688.78	12472.71
688.91	12706.77
689.05	12685.70
689.18	12292.49
689.32	12142.70
689.46	12432.93
689.59	12233.98
689.73	12177.81
689.86	12194.19
690.00	12236.32
690.13	12222.28
690.27	12095.89
690.41	11978.86
690.54	11782.26
690.68	11772.89
690.81	11936.73
690.95	11754.17
691.08	11793.96
691.22	11679.27
691.35	11786.94
691.49	11777.58
691.62	11550.54
691.76	11683.95
691.89	11541.18
692.03	11740.13
692.16	11499.05
692.30	11485.01
692.43	11468.62
692.57	11470.97
692.70	11152.65
692.84	11447.56
692.97	11169.04
693.11	11309.47
693.24	11173.72
693.38	11075.42
693.51	10892.85
693.65	11019.24
693.78	10937.32
693.92	11019.24
694.05	10991.16
694.19	10834.34
694.32	10827.32
694.45	11019.24
694.59	10700.93
694.72	10572.20
694.86	10509.01
694.99	10342.83
695.13	10420.06
695.26	10310.06
695.39	10387.30
695.53	10492.62
695.66	10359.21
695.80	10321.76
695.93	10167.29
696.07	10218.78
696.20	10026.86
696.33	10319.42
696.47	10064.30
696.60	10052.60
696.73	10059.62
696.87	10085.37
697.00	9935.57
697.14	10008.13
697.27	9902.81
697.40	9816.21
697.54	9827.91
697.67	9699.18
697.80	9776.42
697.94	9818.55
698.07	9778.76
698.21	9605.56
698.34	9638.33
698.47	9600.88
698.61	9380.87
698.74	9249.80
698.87	9490.87
699.01	9493.21
699.14	9399.59
699.27	9275.54
699.40	9521.30
699.54	9371.50
699.67	9336.40
699.80	9210.01
699.94	9057.87
700.07	9132.77
700.20	9029.79
700.34	8966.59
700.47	9043.83
700.60	9081.28
700.73	9167.88
700.87	8828.50
701.00	8739.56
701.13	8816.80
701.26	8751.26
701.40	8915.10
701.53	8664.66
701.66	8798.07
701.79	8753.60
701.93	8659.98
702.06	8739.56
702.19	8470.40
702.32	8446.99
702.46	8702.11
702.59	8503.17
702.72	8414.23
702.85	8461.04
702.99	8327.63
703.12	8280.82
703.25	7922.71
703.38	8098.25
703.51	8238.69
703.65	8077.19
703.78	8226.98
703.91	8231.66
704.04	8332.31
704.17	8168.47
704.31	8032.72
704.44	7861.86
704.57	7899.31
704.70	7789.30
704.83	7681.64
704.96	7691.00
705.10	7878.24
705.23	7850.16
>>>>>End Processed Spectral Data<<<<<
