SpectraSuite Data File
++++++++++++++++++++++++++++++++++++
Date: Thu Oct 24 13:21:14 EDT 2013
User: stostad
Dark Spectrum Present: No
Reference Spectrum Present: No
Number of Sampled Component Spectra: 1
Spectrometers: USB2+H05261
Integration Time (usec): 100000 (USB2+H05261)
Spectra Averaged: 1 (USB2+H05261)
Boxcar Smoothing: 0 (USB2+H05261)
Correct for Electrical Dark: No (USB2+H05261)
Strobe/Lamp Enabled: No (USB2+H05261)
Correct for Detector Non-linearity: No (USB2+H05261)
Correct for Stray Light: No (USB2+H05261)
Number of Pixels in Processed Spectrum: 2048
>>>>>Begin Processed Spectral Data<<<<<
365.73	559.39
365.92	559.39
366.12	559.39
366.32	486.83
366.52	458.74
366.72	493.85
366.91	416.62
367.11	486.83
367.31	449.38
367.51	505.56
367.70	514.92
367.90	491.51
368.10	461.09
368.30	521.94
368.49	465.77
368.69	575.77
368.89	538.32
369.09	482.15
369.28	503.22
369.48	479.81
369.68	475.13
369.87	498.53
370.07	526.62
370.27	538.32
370.47	582.79
370.66	688.12
370.86	690.46
371.06	805.14
371.25	734.93
371.45	823.87
371.65	898.77
371.84	732.59
372.04	849.61
372.24	828.55
372.44	863.66
372.63	868.34
372.83	847.27
373.03	936.21
373.22	915.15
373.42	905.79
373.62	734.93
373.81	851.96
374.01	861.32
374.21	889.40
374.40	917.49
374.60	912.81
374.79	863.66
374.99	880.04
375.19	894.08
375.38	891.74
375.58	931.53
375.78	922.17
375.97	924.51
376.17	1029.84
376.37	976.00
376.56	861.32
376.76	968.98
376.95	891.74
377.15	873.02
377.35	847.27
377.54	903.45
377.74	936.21
377.93	882.38
378.13	964.30
378.33	954.94
378.52	875.36
378.72	964.30
378.91	954.94
379.11	922.17
379.31	968.98
379.50	940.90
379.70	1004.09
379.89	903.45
380.09	933.87
380.28	954.94
380.48	1032.18
380.68	968.98
380.87	1043.88
381.07	997.07
381.26	1004.09
381.46	1022.81
381.65	1022.81
381.85	1013.45
382.04	1036.86
382.24	1043.88
382.43	1034.52
382.63	999.41
382.83	964.30
383.02	1004.09
383.22	990.05
383.41	947.92
383.61	1022.81
383.80	1093.03
384.00	933.87
384.19	1025.15
384.39	987.71
384.58	994.73
384.78	1109.41
384.97	1064.94
385.17	1102.39
385.36	952.60
385.56	1034.52
385.75	994.73
385.95	1027.50
386.14	1036.86
386.34	1081.33
386.53	978.34
386.72	1135.16
386.92	1104.73
387.11	1097.71
387.31	1078.99
387.50	1078.99
387.70	1071.97
387.89	1060.26
388.09	1088.35
388.28	1069.62
388.48	1193.67
388.67	1095.37
388.86	1184.31
389.06	1118.78
389.25	1121.12
389.45	1128.14
389.64	1153.88
389.84	1130.48
390.03	1121.12
390.22	1100.05
390.42	1128.14
390.61	1146.86
390.81	1203.04
391.00	1186.65
391.19	1212.40
391.39	1177.29
391.58	1233.46
391.78	1235.80
391.97	1247.51
392.16	1149.20
392.36	1219.42
392.55	1252.19
392.75	1221.76
392.94	1200.69
393.13	1221.76
393.33	1207.72
393.52	1233.46
393.71	1301.34
393.91	1240.48
394.10	1224.10
394.29	1310.70
394.49	1275.59
394.68	1266.23
394.88	1249.85
395.07	1341.13
395.26	1371.55
395.46	1249.85
395.65	1378.58
395.84	1245.16
396.04	1406.66
396.23	1362.19
396.42	1392.62
396.62	1341.13
396.81	1430.07
397.00	1406.66
397.19	1399.64
397.39	1399.64
397.58	1423.05
397.77	1373.89
397.97	1458.15
398.16	1467.52
398.35	1420.71
398.55	1479.22
398.74	1458.15
398.93	1500.28
399.12	1390.28
399.32	1409.00
399.51	1465.18
399.70	1474.54
399.90	1376.24
400.09	1455.81
400.28	1493.26
400.47	1526.03
400.67	1441.77
400.86	1572.84
401.05	1523.69
401.24	1565.82
401.44	1596.25
401.63	1570.50
401.82	1568.16
402.01	1643.06
402.21	1589.22
402.40	1561.14
402.59	1582.20
402.78	1561.14
402.97	1544.75
403.17	1526.03
403.36	1617.31
403.55	1638.38
403.74	1664.12
403.93	1657.10
404.13	1727.32
404.32	1710.93
404.51	1720.29
404.70	1647.74
404.89	1720.29
405.09	1795.19
405.28	1657.10
405.47	1771.79
405.66	1767.10
405.85	1806.89
406.05	1811.57
406.24	1825.62
406.43	1825.62
406.62	1760.08
406.81	1764.76
407.00	1928.60
407.20	1795.19
407.39	1970.73
407.58	1916.90
407.77	1891.15
407.96	1912.22
408.15	1952.01
408.34	1877.11
408.54	1970.73
408.73	2008.18
408.92	1900.52
409.11	1902.86
409.30	2024.56
409.49	1998.82
409.68	1968.39
409.87	2099.46
410.07	1982.43
410.26	2090.10
410.45	2094.78
410.64	2069.03
410.83	2214.15
411.02	2076.06
411.21	2062.01
411.40	2069.03
411.59	2200.10
411.78	2188.40
411.98	2172.02
412.17	2223.51
412.36	2183.72
412.55	2207.13
412.74	2298.41
412.93	2258.62
413.12	2326.49
413.31	2347.56
413.50	2296.07
413.69	2385.01
413.88	2373.30
414.07	2314.79
414.26	2373.30
414.45	2452.88
414.64	2366.28
414.83	2413.09
415.02	2487.99
415.22	2429.48
415.41	2495.01
415.60	2450.54
415.79	2495.01
415.98	2509.05
416.17	2593.31
416.36	2637.78
416.55	2593.31
416.74	2661.19
416.93	2579.27
417.12	2787.58
417.31	2715.02
417.50	2754.81
417.69	2761.83
417.88	2696.30
418.07	2750.13
418.26	2771.19
418.45	2736.09
418.64	2836.73
418.83	2899.92
419.02	2853.11
419.21	2782.90
419.39	2883.54
419.58	2820.35
419.77	2764.17
419.96	3009.93
420.15	2878.86
420.34	2942.05
420.53	2963.12
420.72	3014.61
420.91	2850.77
421.10	3075.46
421.29	3019.29
421.48	2928.01
421.67	2937.37
421.86	2963.12
422.05	2965.46
422.24	2925.67
422.43	2979.50
422.61	3117.59
422.80	3094.19
422.99	3040.36
423.18	3061.42
423.37	3150.36
423.56	3066.10
423.75	2998.23
423.94	3049.72
424.13	2878.86
424.32	2942.05
424.50	3012.27
424.69	3155.04
424.88	3185.47
425.07	3082.49
425.26	3098.87
425.45	3122.27
425.64	2970.14
425.83	3077.80
426.01	3145.68
426.20	3300.16
426.39	3187.81
426.58	3204.19
426.77	3176.11
426.96	3187.81
427.15	3206.53
427.33	3309.52
427.52	3204.19
427.71	3297.81
427.90	3274.41
428.09	3204.19
428.28	3396.12
428.46	3386.76
428.65	3243.98
428.84	3421.86
429.03	3361.01
429.22	3314.20
429.40	3309.52
429.59	3269.73
429.78	3286.11
429.97	3262.71
430.16	3419.52
430.34	3384.41
430.53	3370.37
430.72	3421.86
430.91	3372.71
431.10	3463.99
431.28	3520.17
431.47	3599.74
431.66	3613.79
431.85	3548.25
432.03	3550.59
432.22	3611.45
432.41	3595.06
432.60	3658.26
432.79	3501.44
432.97	3681.66
433.16	3658.26
433.35	3646.55
433.54	3616.13
433.72	3623.15
433.91	3681.66
434.10	3667.62
434.28	3754.22
434.47	3651.24
434.66	3737.84
434.85	3873.59
435.03	4072.53
435.22	4117.00
435.41	4163.81
435.59	4114.66
435.78	4121.68
435.97	4004.66
436.16	3971.89
436.34	3908.69
436.53	3929.76
436.72	4004.66
436.90	3847.84
437.09	3957.85
437.28	3925.08
437.46	4063.17
437.65	3964.87
437.84	4128.70
438.02	3983.59
438.21	4084.23
438.40	4105.30
438.58	4072.53
438.77	4266.80
438.96	4028.06
439.14	4147.43
439.33	4355.74
439.52	4308.93
439.70	4250.41
439.89	4299.56
440.08	4215.30
440.26	4423.61
440.45	4348.72
440.63	4447.02
440.82	4531.28
441.01	4393.19
441.19	4486.81
441.38	4512.55
441.57	4355.74
441.75	4620.22
441.94	4634.26
442.12	4727.88
442.31	4741.93
442.50	4723.20
442.68	4538.30
442.87	4720.86
443.05	4610.86
443.24	4718.52
443.43	4739.58
443.61	4795.76
443.80	4695.11
443.98	4706.82
444.17	4601.49
444.35	4779.37
444.54	4908.10
444.73	4802.78
444.91	4823.84
445.10	4924.49
445.28	5041.51
445.47	4793.42
445.65	4812.14
445.84	4898.74
446.02	5032.15
446.21	4671.71
446.39	4910.44
446.58	4931.51
446.77	4943.21
446.95	4802.78
447.14	4945.55
447.32	5011.09
447.51	4873.00
447.69	4849.59
447.88	4889.38
448.06	4983.00
448.25	5046.20
448.43	4943.21
448.62	5043.85
448.80	4933.85
448.99	4950.23
449.17	4971.30
449.36	4957.25
449.54	5043.85
449.73	5055.56
449.91	5291.95
450.10	5186.63
450.28	5142.16
450.46	5203.01
450.65	5095.35
450.83	5233.44
451.02	5247.48
451.20	5315.36
451.39	5296.63
451.57	5329.40
451.76	5322.38
451.94	5364.51
452.13	5364.51
452.31	5406.64
452.49	5228.76
452.68	5315.36
452.86	5408.98
453.05	5432.38
453.23	5481.53
453.42	5282.59
453.60	5446.43
453.78	5401.96
453.97	5476.85
454.15	5399.62
454.34	5338.76
454.52	5514.30
454.70	5500.26
454.89	5631.33
455.07	5317.70
455.26	5607.92
455.44	5504.94
455.62	5673.46
455.81	5624.31
455.99	5570.48
456.17	5664.10
456.36	5671.12
456.54	5769.42
456.73	5902.83
456.91	5818.57
457.09	5956.66
457.28	5966.03
457.46	5797.51
457.64	5935.60
457.83	6017.52
458.01	5863.04
458.19	6136.88
458.38	5867.72
458.56	6017.52
458.74	5966.03
458.93	5984.75
459.11	6108.80
459.29	5977.73
459.48	6001.13
459.66	6160.29
459.84	6139.23
460.03	6284.34
460.21	6080.71
460.39	6246.89
460.57	6202.42
460.76	6314.77
460.94	6286.68
461.12	6342.85
461.31	6396.68
461.49	6434.13
461.67	6209.44
461.85	6445.84
462.04	6363.92
462.22	6656.48
462.40	6544.14
462.59	6509.03
462.77	6380.30
462.95	6497.33
463.13	6691.59
463.32	6548.82
463.50	6466.90
463.68	6719.68
463.86	6621.38
464.05	6492.65
464.23	6539.46
464.41	6647.12
464.59	6593.29
464.78	6775.85
464.96	6771.17
465.14	6626.06
465.32	6918.62
465.50	6775.85
465.69	6799.26
465.87	6696.27
466.05	6803.94
466.23	6822.66
466.41	6696.27
466.60	6836.70
466.78	6686.91
466.96	6759.47
467.14	6956.07
467.32	6867.13
467.51	6930.33
467.69	6740.74
467.87	7005.22
468.05	6759.47
468.23	6799.26
468.41	6902.24
468.60	7019.27
468.78	7213.53
468.96	7007.56
469.14	7166.72
469.32	7211.19
469.50	7197.15
469.69	7037.99
469.87	7239.28
470.05	7180.76
470.23	7276.73
470.41	7239.28
470.59	7377.37
470.77	7143.32
470.95	7101.19
471.14	7550.57
471.32	7414.82
471.50	7466.31
471.68	7372.69
471.86	7604.40
472.04	7400.77
472.22	7911.01
472.40	7613.76
472.58	7651.21
472.77	7651.21
472.95	7808.03
473.13	7927.39
473.31	7723.77
473.49	7962.50
473.67	7726.11
473.85	7798.66
474.03	7911.01
474.21	7906.33
474.39	8142.72
474.57	8124.00
474.75	8060.80
474.93	8315.92
475.12	8135.70
475.30	8280.82
475.48	8070.17
475.66	8313.58
475.84	8056.12
476.02	8278.47
476.20	8479.76
476.38	8568.70
476.56	8753.60
476.74	8542.96
476.92	8608.49
477.10	8624.87
477.28	8702.11
477.46	8809.78
477.64	8954.89
477.82	8971.27
478.00	9132.77
478.18	9289.59
478.36	9289.59
478.54	9263.84
478.72	9125.75
478.90	9397.25
479.08	9563.43
479.26	9476.83
479.44	9540.02
479.62	9619.60
479.80	9640.67
479.98	9788.12
480.16	10169.63
480.34	9816.21
480.52	9956.64
480.70	9951.96
480.88	9741.31
481.06	10186.01
481.24	10394.32
481.41	10083.03
481.59	10310.06
481.77	10602.63
481.95	10565.18
482.13	10523.05
482.31	10635.39
482.49	10913.92
482.67	10775.83
482.85	10761.78
483.03	11040.31
483.21	10951.37
483.39	11328.19
483.57	11063.71
483.74	11279.04
483.92	11349.26
484.10	11339.90
484.28	11482.67
484.46	11735.45
484.64	12049.08
484.82	11850.13
485.00	11906.31
485.18	11817.36
485.35	12030.35
485.53	12121.63
485.71	12259.73
485.89	12365.05
486.07	12311.22
486.25	12606.13
486.43	12524.21
486.61	12681.02
486.78	12779.32
486.96	12886.99
487.14	13153.81
487.32	12898.69
487.50	13057.85
487.68	13252.11
487.85	13420.63
488.03	13467.44
488.21	13654.69
488.39	13610.22
488.57	13806.82
488.75	13783.41
488.92	13921.51
489.10	13907.46
489.28	14003.43
489.46	14239.82
489.64	14368.55
489.81	14169.60
489.99	14530.05
490.17	14689.20
490.35	14703.25
490.53	14717.29
490.70	15002.83
490.88	14883.47
491.06	15204.12
491.24	15143.27
491.41	15220.50
491.59	15571.58
491.77	15279.02
491.95	15475.62
492.13	15524.77
492.30	15740.10
492.48	15789.25
492.66	15737.76
492.84	15868.83
493.01	16198.85
493.19	15971.82
493.37	16084.16
493.54	16037.35
493.72	16336.94
493.90	16442.26
494.08	16496.10
494.25	16814.41
494.43	16809.73
494.61	16673.98
494.79	16842.50
494.96	16975.91
495.14	17151.45
495.32	17062.51
495.49	17270.81
495.67	17406.56
495.85	17514.23
496.02	17687.43
496.20	17422.95
496.38	17626.57
496.55	18094.68
496.73	18338.10
496.91	18143.83
497.09	18249.16
497.26	18274.90
497.44	18225.75
497.62	18291.29
497.79	18712.58
497.97	18530.02
498.14	18806.20
498.32	18888.12
498.50	18995.79
498.67	19204.10
498.85	18993.45
499.03	18902.17
499.20	19176.01
499.38	19098.77
499.56	19063.66
499.73	19358.57
499.91	19435.81
500.08	19651.14
500.26	19426.45
500.44	19274.31
500.61	19459.21
500.79	19829.02
500.97	19817.32
501.14	20163.72
501.32	20074.77
501.49	20421.17
501.67	19922.64
501.84	20166.06
502.02	20685.65
502.20	20369.68
502.37	20147.33
502.55	20362.66
502.72	20505.43
502.90	20828.43
503.07	20517.14
503.25	20706.72
503.43	20575.65
503.60	20498.41
503.78	21010.99
503.95	20837.79
504.13	20858.85
504.30	20849.49
504.48	20975.88
504.65	20849.49
504.83	21582.08
505.01	21532.93
505.18	21156.10
505.36	21642.93
505.53	21687.40
505.71	21752.94
505.88	21556.33
506.06	21675.70
506.23	21621.87
506.41	21731.87
506.58	21902.73
506.76	21958.91
506.93	21846.56
507.11	22101.68
507.28	22452.76
507.46	22057.21
507.63	22293.60
507.81	22319.35
507.98	22171.89
508.16	22302.96
508.33	22588.51
508.50	22492.55
508.68	22532.34
508.85	23281.31
509.03	22611.92
509.20	22693.83
509.38	22941.93
509.55	22993.42
509.73	23255.56
509.90	23639.41
510.08	23522.38
510.25	23463.87
510.42	23384.29
510.60	23484.94
510.77	23342.16
510.95	23723.67
511.12	23721.33
511.30	23707.29
511.47	23803.25
511.64	23772.82
511.82	23768.14
511.99	23833.68
512.17	23880.49
512.34	24166.03
512.51	24559.24
512.69	24250.29
512.86	23847.72
513.04	24517.11
513.21	24386.04
513.38	24285.40
513.56	24676.27
513.73	24357.96
513.90	24545.20
514.08	24517.11
514.25	24856.49
514.43	24805.00
514.60	24734.78
514.77	24781.59
514.95	24870.53
515.12	24709.04
515.29	25153.74
515.47	25158.42
515.64	25392.47
515.81	25336.30
515.99	25259.06
516.16	25303.53
516.33	25317.57
516.51	25703.76
516.68	25713.13
516.85	25479.07
517.03	25827.81
517.20	25956.54
517.37	25919.09
517.54	26003.35
517.72	25853.56
517.89	26052.50
518.06	25979.95
518.24	25930.80
518.41	26218.68
518.58	26082.93
518.75	25731.85
518.93	25986.97
519.10	26132.08
519.27	26331.03
519.45	26410.60
519.62	26827.22
519.79	26663.38
519.96	26436.35
520.14	26434.01
520.31	26511.25
520.48	26366.13
520.65	26410.60
520.83	27044.89
521.00	27136.17
521.17	26635.30
521.34	26885.73
521.52	26941.91
521.69	26972.33
521.86	27154.90
522.03	27337.46
522.20	27374.91
522.38	27782.16
522.55	27489.59
522.72	27360.86
522.89	27337.46
523.07	27861.74
523.24	27468.53
523.41	27625.34
523.58	27992.81
523.75	27520.02
523.92	27679.18
524.10	28016.21
524.27	28151.96
524.44	28411.76
524.61	27967.06
524.78	27887.48
524.96	27962.38
525.13	27920.25
525.30	28622.41
525.47	28449.21
525.64	28393.04
525.81	28175.37
525.98	28570.92
526.16	28346.23
526.33	28491.34
526.50	28512.41
526.67	28425.81
526.84	28629.43
527.01	28926.68
527.18	29118.60
527.36	29186.48
527.53	28496.02
527.70	29113.92
527.87	28816.68
528.04	28622.41
528.21	28940.72
528.38	29261.38
528.55	29006.26
528.72	29324.57
528.89	29099.88
529.07	29151.37
529.24	28938.38
529.41	29476.71
529.58	29362.02
529.75	29275.42
529.92	29752.89
530.09	29441.60
530.26	29111.58
530.43	29659.27
530.60	29692.04
530.77	29991.62
530.94	29806.72
531.11	29619.48
531.28	29940.13
531.46	29930.77
531.63	29956.52
531.80	29996.31
531.97	29649.91
532.14	30244.40
532.31	29572.67
532.48	30038.44
532.65	30412.92
532.82	29888.64
532.99	30419.94
533.16	30181.21
533.33	30244.40
533.50	30464.41
533.67	30052.48
533.84	29993.97
534.01	30614.21
534.18	30494.84
534.35	30822.51
534.52	30508.88
534.69	30965.29
534.86	30696.13
535.03	30384.83
535.20	30764.00
535.37	30436.33
535.54	31026.14
535.71	30944.22
535.88	31206.36
536.05	30813.15
536.22	30941.88
536.38	30888.05
536.55	30946.56
536.72	30623.57
536.89	31197.00
537.06	31358.50
537.23	31662.77
537.40	31447.44
537.57	31491.91
537.74	31332.75
537.91	31531.70
538.08	31140.83
538.25	31257.85
538.42	31854.69
538.59	31517.65
538.75	31304.67
538.92	31601.91
539.09	31384.24
539.26	31754.05
539.43	31665.11
539.60	32187.05
539.77	31906.18
539.94	32196.41
540.11	32196.41
540.28	32100.45
540.44	32189.39
540.61	31894.48
540.78	32060.66
540.95	32493.66
541.12	32526.42
541.29	32294.71
541.46	32184.71
541.62	32828.35
541.79	33139.65
541.96	32945.38
542.13	32570.90
542.30	32205.77
542.47	32226.84
542.63	32744.09
542.80	32847.08
542.97	32999.21
543.14	33436.89
543.31	33130.28
543.48	33240.29
543.64	33771.59
543.81	33160.71
543.98	33298.80
544.15	33425.19
544.32	33589.03
544.48	33462.64
544.65	33764.57
544.82	33750.52
544.99	32961.76
545.16	33539.88
545.32	33523.49
545.49	34242.04
545.66	34293.53
545.83	34529.92
546.00	34576.73
546.16	34253.74
546.33	34038.41
546.50	33687.33
546.67	33802.02
546.83	33055.39
547.00	33308.16
547.17	33427.53
547.34	33656.90
547.50	33827.76
547.67	33862.87
547.84	33783.29
548.00	34087.56
548.17	34183.52
548.34	33806.70
548.51	34136.71
548.67	34398.85
548.84	34003.30
549.01	33818.40
549.18	34281.83
549.34	33820.74
549.51	34136.71
549.68	34099.26
549.84	34623.54
550.01	34333.32
550.18	33916.70
550.34	33895.64
550.51	34401.19
550.68	34169.48
550.84	33963.51
551.01	34426.94
551.18	34265.44
551.34	34171.82
551.51	34106.29
551.68	34059.48
551.84	34075.86
552.01	34188.21
552.18	34366.09
552.34	34459.71
552.51	35136.12
552.68	34415.24
552.84	34515.88
553.01	34649.29
553.18	34478.43
553.34	34747.59
553.51	34497.16
553.67	34639.93
553.84	34796.74
554.01	34888.03
554.17	34904.41
554.34	35199.32
554.51	34696.10
554.67	34904.41
554.84	35098.67
555.00	34637.59
555.17	34452.69
555.33	34888.03
555.50	34487.79
555.67	34810.79
555.83	34885.68
556.00	35126.76
556.16	35498.91
556.33	34995.69
556.50	35206.34
556.66	34972.28
556.83	34866.96
556.99	35206.34
557.16	35606.57
557.32	35800.83
557.49	35686.15
557.65	35178.25
557.82	35246.13
557.98	35367.84
558.15	35342.09
558.32	35510.61
558.48	34951.22
558.65	35812.54
558.81	35065.91
558.98	35456.78
559.14	35452.09
559.31	35311.66
559.47	35545.72
559.64	35276.55
559.80	35187.61
559.97	35800.83
560.13	35264.85
560.30	34934.84
560.46	35288.26
560.63	35791.47
560.79	35629.98
560.96	35243.79
561.12	35775.09
561.29	35604.23
561.45	35622.95
561.61	36175.32
561.78	35732.96
561.94	36137.87
562.11	35690.83
562.27	35981.06
562.44	35782.11
562.60	35807.86
562.77	36053.61
562.93	35744.66
563.10	35906.16
563.26	35388.90
563.42	36360.22
563.59	36020.84
563.75	35910.84
563.92	36081.70
564.08	35901.48
564.24	35611.25
564.41	36006.80
564.57	36027.87
564.74	35770.41
564.90	35999.78
565.07	36187.02
565.23	36322.77
565.39	35718.92
565.56	36676.19
565.72	36121.49
565.88	36217.45
566.05	35967.01
566.21	35927.22
566.38	36165.96
566.54	36025.53
566.70	36297.03
566.87	36123.83
567.03	36540.44
567.19	36664.49
567.36	36533.42
567.52	36172.98
567.68	35873.39
567.85	36446.82
568.01	36463.21
568.17	36292.35
568.34	36421.08
568.50	36615.34
568.66	36570.87
568.83	36376.61
568.99	36400.01
569.15	36355.54
569.32	36306.39
569.48	36198.73
569.64	36421.08
569.81	36215.11
569.97	36362.56
570.13	36507.68
570.30	36416.40
570.46	36491.29
570.62	36730.03
570.78	36126.17
570.95	36493.63
571.11	36641.09
571.27	36243.20
571.43	36201.07
571.60	36547.47
571.76	36652.79
571.92	36685.56
572.09	36727.69
572.25	36905.57
572.41	36683.22
572.57	37013.23
572.74	36678.54
572.90	36526.40
573.06	36858.76
573.22	36802.58
573.38	36935.99
573.55	36591.94
573.71	36753.43
573.87	36912.59
574.03	36481.93
574.20	36678.54
574.36	36563.85
574.52	36463.21
574.68	36821.31
574.84	36849.39
575.01	37153.66
575.17	36746.41
575.33	36292.35
575.49	36753.43
575.65	37216.86
575.82	36905.57
575.98	37067.06
576.14	37415.80
576.30	37003.87
576.46	36755.77
576.62	36727.69
576.79	36790.88
576.95	36650.45
577.11	36751.09
577.27	36996.85
577.43	36531.08
577.59	36828.33
577.75	36776.84
577.92	36465.55
578.08	36694.92
578.24	36561.51
578.40	37390.06
578.56	36994.51
578.72	37144.30
578.88	37432.19
579.04	37188.77
579.21	37050.68
579.37	36842.37
579.53	36992.17
579.69	37081.11
579.85	37092.81
580.01	36933.65
580.17	36898.55
580.33	37088.13
580.49	37132.60
580.65	37127.92
580.82	37078.77
580.98	36999.19
581.14	36601.30
581.30	36964.08
581.46	36549.81
581.62	36863.44
581.78	36931.31
581.94	37244.94
582.10	36306.39
582.26	37242.60
582.42	36854.08
582.58	36966.42
582.74	37347.93
582.90	36858.76
583.06	36959.40
583.22	37336.23
583.38	37048.34
583.54	36861.10
583.70	36779.18
583.86	36779.18
584.02	37195.79
584.18	37181.75
584.34	37315.16
584.50	37076.43
584.66	36842.37
584.82	37226.22
584.98	37312.82
585.14	36807.26
585.30	36879.82
585.46	37083.45
585.62	36921.95
585.78	38204.56
585.94	36924.29
586.10	37340.91
586.26	37172.39
586.42	37305.80
586.58	37223.88
586.74	37205.16
586.90	37022.59
587.06	37249.63
587.22	37663.90
587.38	37235.58
587.54	37432.19
587.70	37701.35
587.86	37373.67
588.02	37156.00
588.18	37453.25
588.34	37160.69
588.49	37406.44
588.65	37322.18
588.81	36987.49
588.97	37666.24
589.13	37427.51
589.29	36952.38
589.45	37539.85
589.61	37380.70
589.77	37177.07
589.93	37488.36
590.08	37628.79
590.24	37785.61
590.40	37376.01
590.56	37823.06
590.72	37102.17
590.88	36975.78
591.04	37038.98
591.20	37727.10
591.35	37598.37
591.51	38057.11
591.67	37720.07
591.83	37961.15
591.99	37560.92
592.15	37457.93
592.31	37572.62
592.46	37399.42
592.62	37525.81
592.78	37146.64
592.94	37673.26
593.10	37715.39
593.26	38082.86
593.41	37984.55
593.57	37535.17
593.73	38071.15
593.89	37851.14
594.05	37495.38
594.20	37020.25
594.36	37589.00
594.52	37237.92
594.68	37694.33
594.84	37336.23
594.99	37818.38
595.15	37832.42
595.31	37511.77
595.47	37752.84
595.62	37263.67
595.78	37303.46
595.94	37476.66
596.10	37057.70
596.25	37336.23
596.41	37116.22
596.57	37060.04
596.73	37764.54
596.88	37235.58
597.04	37535.17
597.20	37958.81
597.36	37654.54
597.51	37825.40
597.67	37806.67
597.83	37783.27
597.99	37909.66
598.14	37652.20
598.30	37963.49
598.46	37764.54
598.61	37528.15
598.77	37628.79
598.93	37645.18
599.09	37284.73
599.24	38164.78
599.40	37724.75
599.56	37837.10
599.71	37621.77
599.87	37900.29
600.03	37612.41
600.18	37886.25
600.34	37839.44
600.50	37813.70
600.65	37343.25
600.81	38003.28
600.97	37549.21
601.12	38230.31
601.28	38024.34
601.44	37677.94
601.59	37755.18
601.75	37689.65
601.91	37963.49
602.06	37663.90
602.22	38005.62
602.37	37979.87
602.53	37663.90
602.69	37865.19
602.84	37818.38
603.00	37832.42
603.16	37584.32
603.31	37832.42
603.47	37502.40
603.62	37462.61
603.78	37635.81
603.94	37731.78
604.09	37612.41
604.25	37745.82
604.40	37633.47
604.56	37544.53
604.71	37825.40
604.87	37413.46
605.03	37596.03
605.18	37579.64
605.34	37422.83
605.49	37420.48
605.65	37486.02
605.80	37411.12
605.96	37883.91
606.12	37769.22
606.27	37689.65
606.43	37954.13
606.58	38022.00
606.74	37689.65
606.89	37497.72
607.05	37064.72
607.20	37099.83
607.36	37392.40
607.51	37413.46
607.67	37631.13
607.82	37523.47
607.98	37652.20
608.13	37825.40
608.29	37572.62
608.44	37462.61
608.60	37897.95
608.75	37776.25
608.91	38087.54
609.06	37455.59
609.22	37640.50
609.37	37301.12
609.53	37387.72
609.68	36952.38
609.84	37439.21
609.99	37701.35
610.15	37769.22
610.30	37874.55
610.46	37809.01
610.61	37874.55
610.76	38040.73
610.92	38036.05
611.07	38293.50
611.23	38309.89
611.38	38644.59
611.54	38356.70
611.69	38022.00
611.84	38291.16
612.00	37979.87
612.15	37757.52
612.31	38038.39
612.46	37813.70
612.62	37666.24
612.77	37493.04
612.92	37830.08
613.08	37387.72
613.23	37301.12
613.39	37048.34
613.54	36748.75
613.69	37645.18
613.85	36914.93
614.00	37645.18
614.15	37741.14
614.31	37277.71
614.46	37773.91
614.62	37619.43
614.77	36919.61
614.92	36879.82
615.08	37041.32
615.23	36912.59
615.38	36823.65
615.54	36517.04
615.69	37003.87
615.84	37043.66
616.00	37303.46
616.15	36486.61
616.30	37167.71
616.46	36849.39
616.61	36954.72
616.76	36643.43
616.92	36402.35
617.07	36973.44
617.22	36432.78
617.37	36161.28
617.53	36444.48
617.68	36828.33
617.83	36718.32
617.99	36737.05
618.14	36617.68
618.29	36484.27
618.45	36730.03
618.60	36807.26
618.75	36243.20
618.90	36170.64
619.06	36194.04
619.21	36018.50
619.36	36355.54
619.51	36510.02
619.67	36053.61
619.82	36072.34
619.97	36254.90
620.12	36009.14
620.28	36495.97
620.43	36194.04
620.58	36425.76
620.73	36332.14
620.89	36528.74
621.04	36095.74
621.19	36290.01
621.34	35971.69
621.49	36058.29
621.65	35817.22
621.80	36151.91
621.95	36713.64
622.10	36367.24
622.25	36086.38
622.41	35702.53
622.56	36018.50
622.71	35875.73
622.86	36357.88
623.01	35838.28
623.16	35936.59
623.32	35831.26
623.47	35578.48
623.62	35648.70
623.77	36371.92
623.92	36187.02
624.07	36055.95
624.23	35967.01
624.38	36065.31
624.53	35688.49
624.68	35840.62
624.83	35503.59
624.98	35414.65
625.13	35732.96
625.29	35522.31
625.44	36074.68
625.59	35524.65
625.74	35405.28
625.89	35475.50
626.04	35402.94
626.19	35342.09
626.34	35763.39
626.49	35461.46
626.65	35372.52
626.80	35627.63
626.95	35091.65
627.10	34843.56
627.25	34995.69
627.40	35063.57
627.55	35285.92
627.70	34969.94
627.85	35187.61
628.00	35325.71
628.15	35281.24
628.30	34763.98
628.45	34873.98
628.60	34824.83
628.76	34803.77
628.91	34775.68
629.06	35264.85
629.21	34593.12
629.36	34359.06
629.51	34857.60
629.66	34607.16
629.81	34836.53
629.96	34576.73
630.11	34976.97
630.26	35283.58
630.41	35358.47
630.56	34918.45
630.71	34785.04
630.86	34808.45
631.01	35019.10
631.16	34820.15
631.31	34384.81
631.46	34316.93
631.61	34679.72
631.76	34817.81
631.91	34639.93
632.06	34293.53
632.21	34155.44
632.36	34733.55
632.51	34525.24
632.66	34597.80
632.81	33869.89
632.96	34618.86
633.10	34398.85
633.25	34370.77
633.40	34279.49
633.55	34225.65
633.70	34211.61
633.85	34007.98
634.00	34078.20
634.15	34728.87
634.30	34033.73
634.45	34206.93
634.60	34464.39
634.75	34412.90
634.90	34174.16
635.05	34010.32
635.19	33820.74
635.34	34143.74
635.49	34132.03
635.64	33860.53
635.79	33722.44
635.94	33614.77
636.09	34101.61
636.24	33846.49
636.39	33811.38
636.53	34375.45
636.68	33631.16
636.83	33668.61
636.98	33853.51
637.13	33909.68
637.28	33771.59
637.43	33708.40
637.57	33560.94
637.72	33235.61
637.87	33745.84
638.02	33865.21
638.17	33640.52
638.32	33078.79
638.46	33291.78
638.61	33429.87
638.76	33179.43
638.91	33472.00
639.06	33589.03
639.20	34019.69
639.35	33734.14
639.50	33324.55
639.65	33448.60
639.80	33261.35
639.94	32950.06
640.09	33184.12
640.24	33249.65
640.39	33242.63
640.54	33708.40
640.68	33249.65
640.83	33479.02
640.98	33081.13
641.13	32900.91
641.27	32964.10
641.42	32512.38
641.57	32737.07
641.72	33160.71
641.86	33237.95
642.01	32528.77
642.16	32833.04
642.31	33003.89
642.45	33013.26
642.60	32582.60
642.75	32973.47
642.90	32723.03
643.04	32748.78
643.19	32746.44
643.34	33207.52
643.48	32959.42
643.63	32748.78
643.78	32739.41
643.93	32465.57
644.07	32573.24
644.22	32947.72
644.37	32617.71
644.51	32638.77
644.66	32329.82
644.81	32517.06
644.95	32823.67
645.10	32535.79
645.25	32514.72
645.39	32481.95
645.54	32708.99
645.69	32727.71
645.83	32811.97
645.98	32292.37
646.13	32533.45
646.27	32519.40
646.42	32648.13
646.57	32484.30
646.71	32409.40
646.86	32287.69
647.00	32278.33
647.15	32767.50
647.30	32507.70
647.44	32313.44
647.59	32231.52
647.74	32486.64
647.88	32271.31
648.03	32348.54
648.17	32236.20
648.32	32254.92
648.47	32254.92
648.61	32091.09
648.76	31709.58
648.90	32109.81
649.05	31857.03
649.20	32341.52
649.34	32641.11
649.49	32617.71
649.63	32587.28
649.78	31847.67
649.92	32308.76
650.07	32402.38
650.21	32084.06
650.36	31880.44
650.51	32219.81
650.65	31805.54
650.80	31842.99
650.94	31838.31
651.09	31688.51
651.23	31838.31
651.38	32018.53
651.52	31562.12
651.67	31976.40
651.81	31641.70
651.96	31721.28
652.10	31662.77
652.25	31447.44
652.39	31372.54
652.54	31388.92
652.68	31197.00
652.83	31414.67
652.97	31456.80
653.12	31461.48
653.26	31651.06
653.41	31817.24
653.55	31484.89
653.70	31571.49
653.84	31267.22
653.99	31239.13
654.13	31716.60
654.27	30981.67
654.42	31274.24
654.56	31264.88
654.71	31021.46
654.85	31269.56
655.00	31524.68
655.14	30782.73
655.29	30920.82
655.43	31016.78
655.57	30958.27
655.72	30916.14
655.86	31040.18
656.01	31239.13
656.15	30312.28
656.30	31084.65
656.44	30991.03
656.58	31227.43
656.73	30913.80
656.87	30717.19
657.01	30553.35
657.16	30904.43
657.30	31271.90
657.45	30916.14
657.59	31000.40
657.73	30759.32
657.88	30476.12
658.02	30866.98
658.16	30717.19
658.31	31091.68
658.45	31159.55
658.60	30391.86
658.74	30595.48
658.88	30628.25
659.03	30576.76
659.17	30518.25
659.31	30611.87
659.46	30267.81
659.60	30331.00
659.74	30586.12
659.89	30424.62
660.03	30345.05
660.17	30061.84
660.32	30387.18
660.46	30284.19
660.60	30354.41
660.74	30010.35
660.89	29979.92
661.03	29834.81
661.17	30064.18
661.32	30118.01
661.46	29783.32
661.60	29652.25
661.74	29659.27
661.89	29544.58
662.03	29591.39
662.17	29567.99
662.31	29401.81
662.46	29954.18
662.60	29537.56
662.74	29511.81
662.88	29511.81
663.03	29823.11
663.17	29516.50
663.31	29336.27
663.45	29614.80
663.60	28924.34
663.74	29116.26
663.88	29380.74
664.02	29289.46
664.17	29692.04
664.31	29076.48
664.45	28893.91
664.59	28800.29
664.73	29118.60
664.88	28905.62
665.02	28842.42
665.16	29160.73
665.30	29074.13
665.44	28636.45
665.59	28701.99
665.73	28690.29
665.87	28411.76
666.01	28367.29
666.15	29137.33
666.29	28467.94
666.44	28226.86
666.58	28332.18
666.72	28100.47
666.86	28217.50
667.00	28577.94
667.14	28350.91
667.28	28350.91
667.43	28060.68
667.57	28519.43
667.71	28369.63
667.85	28449.21
667.99	28163.67
668.13	27948.34
668.27	27817.27
668.41	28423.47
668.56	27496.61
668.70	27520.02
668.84	27524.70
668.98	27686.20
669.12	27285.97
669.26	27477.89
669.40	27328.10
669.54	27501.29
669.68	27260.22
669.82	27351.50
669.96	27517.68
670.10	27681.52
670.25	27218.09
670.39	27297.67
670.53	27185.32
670.67	27077.66
670.81	27194.68
670.95	26979.36
671.09	27089.36
671.23	27049.57
671.37	26745.30
671.51	26986.38
671.65	27398.31
671.79	27065.96
671.93	26871.69
672.07	27133.83
672.21	26822.54
672.35	26649.34
672.49	26712.53
672.63	26625.93
672.77	26349.75
672.91	26476.14
673.05	26064.21
673.19	25963.56
673.33	25652.27
673.47	26108.68
673.61	26176.55
673.75	26211.66
673.89	25544.61
674.03	25907.39
674.17	25841.85
674.31	25839.51
674.45	26038.46
674.59	25881.64
674.73	26202.30
674.87	25605.46
675.01	25656.95
675.15	25418.22
675.29	25839.51
675.43	25324.60
675.56	25376.09
675.70	25401.83
675.84	25223.95
675.98	24212.84
676.12	24879.89
676.26	25497.80
676.40	25488.43
676.54	25057.78
676.68	25111.61
676.82	24474.98
676.96	25041.39
677.10	24961.81
677.23	25041.39
677.37	24982.88
677.51	24482.00
677.65	24428.17
677.79	24161.35
677.93	24081.77
678.07	24088.79
678.21	23679.20
678.34	23880.49
678.48	23915.59
678.62	23805.59
678.76	23880.49
678.90	23901.55
679.04	23800.91
679.18	23529.41
679.31	23159.60
679.45	23459.19
679.59	23623.03
679.73	23641.75
679.87	23194.71
680.00	23339.82
680.14	22909.16
680.28	23267.27
680.42	23075.34
680.56	23178.33
680.70	22918.53
680.83	22670.43
680.97	22817.88
681.11	23161.94
681.25	22335.73
681.39	22672.77
681.52	22860.01
681.66	22480.85
681.80	22476.16
681.94	22040.82
682.07	22427.01
682.21	22464.46
682.35	22597.87
682.49	22494.89
682.62	21961.25
682.76	21586.76
682.90	21970.61
683.04	21736.56
683.17	21666.34
683.31	21397.18
683.45	21743.58
683.59	21479.10
683.72	21530.59
683.86	21598.46
684.00	21366.75
684.13	21472.07
684.27	20940.77
684.41	21458.03
684.55	20819.07
684.68	20905.66
684.82	20790.98
684.96	20882.26
685.09	20734.81
685.23	21085.89
685.37	21036.74
685.50	20702.04
685.64	20638.84
685.78	20505.43
685.91	20442.24
686.05	20610.76
686.19	19941.36
686.32	20074.77
686.46	20290.10
686.60	20301.81
686.73	20664.59
686.87	20018.60
687.01	20049.03
687.14	20105.20
687.28	19358.57
687.42	19744.76
687.55	19634.75
687.69	19749.44
687.82	19293.04
687.96	19463.90
688.10	19573.90
688.23	19396.02
688.37	19152.60
688.50	18941.96
688.64	19463.90
688.78	19044.94
688.91	19129.20
689.05	18831.95
689.18	18735.99
689.32	18375.55
689.46	18665.77
689.59	18555.77
689.73	18721.95
689.86	18757.05
690.00	18398.95
690.13	18445.76
690.27	18534.70
690.41	18427.04
690.54	17912.12
690.68	18267.88
690.81	18017.44
690.95	18195.32
691.08	17998.72
691.22	17638.28
691.35	17788.07
691.49	18059.57
691.62	17556.36
691.76	17598.49
691.89	17900.42
692.03	17586.79
692.16	17781.05
692.30	17596.15
692.43	17507.21
692.57	17350.39
692.70	17106.98
692.84	17074.21
692.97	17186.55
693.11	17099.95
693.24	17090.59
693.38	16819.09
693.51	16823.77
693.65	16910.37
693.78	16844.84
693.92	16917.39
694.05	16769.94
694.19	16587.38
694.32	16891.65
694.45	16734.83
694.59	16699.72
694.72	16306.51
694.86	16210.55
694.99	15831.38
695.13	16002.24
695.26	16145.02
695.39	15859.47
695.53	16013.95
695.66	15822.02
695.80	15580.95
695.93	15307.10
696.07	15573.92
696.20	15728.40
696.33	15583.29
696.47	15517.75
696.60	15487.32
696.73	15424.13
696.87	15267.31
697.00	15201.78
697.14	15328.17
697.27	14998.15
697.40	14911.55
697.54	14883.47
697.67	14759.42
697.80	14497.28
697.94	14686.86
698.07	14651.75
698.21	14752.40
698.34	14663.46
698.47	14485.58
698.61	14295.99
698.74	14595.58
698.87	14698.56
699.01	14338.12
699.14	14499.62
699.27	14370.89
699.40	14356.85
699.54	14171.94
699.67	14150.88
699.80	13951.93
699.94	13804.48
700.07	13736.60
700.20	13518.93
700.34	13420.63
700.47	13685.11
700.60	13511.91
700.73	13544.68
700.87	13661.71
701.00	13521.27
701.13	13348.08
701.26	13308.29
701.40	13284.88
701.53	13097.64
701.66	12905.71
701.79	12961.89
701.93	13071.89
702.06	13334.03
702.19	13071.89
702.32	13032.10
702.46	12554.63
702.59	12531.23
702.72	12695.07
702.85	12386.12
702.99	12542.93
703.12	12360.37
703.25	12168.45
703.38	12341.64
703.51	12397.82
703.65	12414.20
703.78	12514.84
703.91	12154.40
704.04	12397.82
704.17	12238.66
704.31	12250.36
704.44	11719.06
704.57	11892.26
704.70	11838.43
704.83	11751.83
704.96	11733.11
705.10	11681.61
705.23	11730.76
>>>>>End Processed Spectral Data<<<<<
