SpectraSuite Data File
++++++++++++++++++++++++++++++++++++
Date: Thu Oct 24 13:21:18 EDT 2013
User: stostad
Dark Spectrum Present: No
Reference Spectrum Present: No
Number of Sampled Component Spectra: 1
Spectrometers: USB2+H05261
Integration Time (usec): 100000 (USB2+H05261)
Spectra Averaged: 1 (USB2+H05261)
Boxcar Smoothing: 0 (USB2+H05261)
Correct for Electrical Dark: No (USB2+H05261)
Strobe/Lamp Enabled: No (USB2+H05261)
Correct for Detector Non-linearity: No (USB2+H05261)
Correct for Stray Light: No (USB2+H05261)
Number of Pixels in Processed Spectrum: 2048
>>>>>Begin Processed Spectral Data<<<<<
365.73	535.98
365.92	535.98
366.12	535.98
366.32	503.22
366.52	514.92
366.72	456.40
366.91	416.62
367.11	397.89
367.31	458.74
367.51	463.43
367.70	463.43
367.90	486.83
368.10	451.72
368.30	451.72
368.49	456.40
368.69	493.85
368.89	447.04
369.09	484.49
369.28	451.72
369.48	500.87
369.68	437.68
369.87	475.13
370.07	484.49
370.27	578.11
370.47	615.56
370.66	690.46
370.86	753.65
371.06	842.59
371.25	905.79
371.45	851.96
371.65	889.40
371.84	905.79
372.04	915.15
372.24	814.51
372.44	821.53
372.63	851.96
372.83	905.79
373.03	854.30
373.22	823.87
373.42	880.04
373.62	961.96
373.81	971.32
374.01	950.26
374.21	912.81
374.40	912.81
374.60	961.96
374.79	1006.43
374.99	910.47
375.19	1004.09
375.38	1008.77
375.58	976.00
375.78	961.96
375.97	1006.43
376.17	917.49
376.37	961.96
376.56	1008.77
376.76	976.00
376.95	1020.47
377.15	990.05
377.35	1027.50
377.54	1083.67
377.74	938.55
377.93	945.58
378.13	1067.28
378.33	980.68
378.52	952.60
378.72	1034.52
378.91	1022.81
379.11	973.66
379.31	964.30
379.50	1083.67
379.70	884.72
379.89	990.05
380.09	1041.54
380.28	1046.22
380.48	992.39
380.68	1064.94
380.87	1078.99
381.07	1078.99
381.26	1067.28
381.46	1062.60
381.65	1132.82
381.85	1074.31
382.04	1004.09
382.24	1114.10
382.43	1076.65
382.63	1069.62
382.83	1128.14
383.02	1043.88
383.22	1062.60
383.41	1071.97
383.61	1158.57
383.80	1149.20
384.00	1179.63
384.19	1116.44
384.39	1163.25
384.58	1121.12
384.78	1111.75
384.97	1114.10
385.17	1046.22
385.36	1142.18
385.56	1149.20
385.75	1198.35
385.95	1128.14
386.14	1100.05
386.34	1100.05
386.53	1221.76
386.72	1174.95
386.92	1174.95
387.11	1284.95
387.31	1163.25
387.50	1163.25
387.70	1235.80
387.89	1273.25
388.09	1240.48
388.28	1249.85
388.48	1252.19
388.67	1275.59
388.86	1181.97
389.06	1287.29
389.25	1277.93
389.45	1259.21
389.64	1282.61
389.84	1327.08
390.03	1249.85
390.22	1245.16
390.42	1184.31
390.61	1282.61
390.81	1331.76
391.00	1362.19
391.19	1345.81
391.39	1266.23
391.58	1331.76
391.78	1315.38
391.97	1294.32
392.16	1306.02
392.36	1350.49
392.55	1387.94
392.75	1399.64
392.94	1313.04
393.13	1401.98
393.33	1329.42
393.52	1327.08
393.71	1416.02
393.91	1352.83
394.10	1364.53
394.29	1369.21
394.49	1343.47
394.68	1397.30
394.88	1519.01
395.07	1472.20
395.26	1404.32
395.46	1521.35
395.65	1598.59
395.84	1533.05
396.04	1542.41
396.23	1476.88
396.42	1497.94
396.62	1486.24
396.81	1570.50
397.00	1439.43
397.19	1465.18
397.39	1507.30
397.58	1607.95
397.77	1509.65
397.97	1526.03
398.16	1568.16
398.35	1661.78
398.55	1565.82
398.74	1647.74
398.93	1640.72
399.12	1675.82
399.32	1605.61
399.51	1640.72
399.70	1549.43
399.90	1619.65
400.09	1774.13
400.28	1652.42
400.47	1600.93
400.67	1774.13
400.86	1753.06
401.05	1675.82
401.24	1795.19
401.44	1769.44
401.63	1816.26
401.82	1760.08
402.01	1710.93
402.21	1729.66
402.40	1769.44
402.59	1802.21
402.78	1713.27
402.97	1830.30
403.17	1844.34
403.36	1834.98
403.55	1802.21
403.74	1834.98
403.93	1963.71
404.13	2033.93
404.32	1970.73
404.51	1956.69
404.70	1963.71
404.89	1996.48
405.09	1998.82
405.28	1940.30
405.47	1858.39
405.66	1926.26
405.85	2073.71
406.05	1935.62
406.24	2111.16
406.43	1956.69
406.62	2087.76
406.81	2153.29
407.00	2012.86
407.20	2090.10
407.39	2022.22
407.58	2181.38
407.77	2059.67
407.96	2125.21
408.15	2148.61
408.34	2099.46
408.54	2237.55
408.73	2160.31
408.92	2244.57
409.11	2277.34
409.30	2256.28
409.49	2211.81
409.68	2263.30
409.87	2237.55
410.07	2246.91
410.26	2370.96
410.45	2380.32
410.64	2324.15
410.83	2321.81
411.02	2324.15
411.21	2375.64
411.40	2349.90
411.59	2434.16
411.78	2422.45
411.98	2410.75
412.17	2495.01
412.36	2438.84
412.55	2518.42
412.74	2663.53
412.93	2827.37
413.12	2590.97
413.31	2623.74
413.50	2614.38
413.69	2712.68
413.88	2612.04
414.07	2661.19
414.26	2672.89
414.45	2780.56
414.64	2825.03
414.83	2750.13
415.02	2799.28
415.22	2902.26
415.41	2895.24
415.60	2843.75
415.79	2967.80
415.98	2923.33
416.17	3040.36
416.36	2942.05
416.55	2930.35
416.74	2974.82
416.93	2841.41
417.12	3103.55
417.31	3112.91
417.50	2958.44
417.69	3112.91
417.88	3136.32
418.07	3035.67
418.26	3281.43
418.45	3143.34
418.64	3396.12
418.83	3204.19
419.02	3311.86
419.21	3260.37
419.39	3232.28
419.58	3197.17
419.77	3162.06
419.96	3281.43
420.15	3300.16
420.34	3309.52
420.53	3286.11
420.72	3358.67
420.91	3400.80
421.10	3379.73
421.29	3382.07
421.48	3363.35
421.67	3424.20
421.86	3353.99
422.05	3375.05
422.24	3382.07
422.43	3461.65
422.61	3501.44
422.80	3531.87
422.99	3606.77
423.18	3471.01
423.37	3435.91
423.56	3564.64
423.75	3412.50
423.94	3412.50
424.13	3332.92
424.32	3454.63
424.50	3365.69
424.69	3667.62
424.88	3599.74
425.07	3566.98
425.26	3468.67
425.45	3569.32
425.64	3602.08
425.83	3527.19
426.01	3515.48
426.20	3559.95
426.39	3611.45
426.58	3595.06
426.77	3620.81
426.96	3611.45
427.15	3581.02
427.33	3712.09
427.52	3723.79
427.71	3749.54
427.90	3655.92
428.09	3646.55
428.28	3782.31
428.46	3770.60
428.65	3810.39
428.84	3861.88
429.03	3817.41
429.22	3723.79
429.40	3941.46
429.59	3777.62
429.78	3723.79
429.97	3672.30
430.16	3845.50
430.34	3887.63
430.53	3946.14
430.72	4007.00
430.91	3847.84
431.10	4067.85
431.28	4077.21
431.47	3997.64
431.66	4086.58
431.85	4004.66
432.03	4117.00
432.22	4145.09
432.41	4100.62
432.60	4227.01
432.79	4135.73
432.97	4095.94
433.16	4177.86
433.35	4329.99
433.54	4255.09
433.72	4390.84
433.91	4229.35
434.10	4245.73
434.28	4109.98
434.47	4287.86
434.66	4414.25
434.85	4229.35
435.03	4521.92
435.22	4746.61
435.41	4767.67
435.59	4669.37
435.78	4603.83
435.97	4702.14
436.16	4489.15
436.34	4463.40
436.53	4440.00
436.72	4589.79
436.90	4440.00
437.09	4414.25
437.28	4447.02
437.46	4587.45
437.65	4472.76
437.84	4695.11
438.02	4638.94
438.21	4676.39
438.40	4695.11
438.58	4812.14
438.77	4746.61
438.96	4744.27
439.14	4905.76
439.33	4915.12
439.52	4945.55
439.70	4889.38
439.89	4814.48
440.08	4947.89
440.26	4997.04
440.45	4973.64
440.63	5060.24
440.82	5191.31
441.01	5170.24
441.19	5186.63
441.38	5355.15
441.57	5259.18
441.75	5261.52
441.94	5191.31
442.12	5336.42
442.31	5469.83
442.50	5465.15
442.68	5444.09
442.87	5348.12
443.05	5439.40
443.24	5507.28
443.43	5514.30
443.61	5647.71
443.80	5757.72
443.98	5465.15
444.17	5404.30
444.35	5596.22
444.54	5626.65
444.73	5565.79
444.91	5509.62
445.10	5666.44
445.28	5771.76
445.47	5572.82
445.65	5598.56
445.84	5645.37
446.02	5757.72
446.21	5633.67
446.39	5626.65
446.58	5650.05
446.77	5544.73
446.95	5558.77
447.14	5589.20
447.32	5860.70
447.51	5746.02
447.69	5844.32
447.88	5638.35
448.06	5788.14
448.25	5643.03
448.43	5750.70
448.62	5762.40
448.80	5851.34
448.99	5837.30
449.17	5785.80
449.36	5743.67
449.54	5994.11
449.73	6001.13
449.91	6045.60
450.10	5799.85
450.28	6087.73
450.46	5996.45
450.65	5987.09
450.83	6120.50
451.02	5947.30
451.20	6176.67
451.39	6050.28
451.57	6111.14
451.76	6118.16
451.94	6059.65
452.13	6300.72
452.31	6274.98
452.49	6246.89
452.68	6160.29
452.86	6267.95
453.05	6214.12
453.23	6499.67
453.42	6291.36
453.60	6267.95
453.78	6331.15
453.97	6366.26
454.15	6375.62
454.34	6354.55
454.52	6487.96
454.70	6232.85
454.89	6342.85
455.07	6537.12
455.26	6579.25
455.44	6621.38
455.62	6492.65
455.81	6607.33
455.99	6731.38
456.17	6661.16
456.36	6665.85
456.54	6665.85
456.73	6775.85
456.91	6902.24
457.09	6792.23
457.28	6974.80
457.46	6778.19
457.64	7045.01
457.83	6986.50
458.01	6932.67
458.19	7019.27
458.38	6946.71
458.56	7136.29
458.74	7007.56
458.93	7077.78
459.11	7180.76
459.29	7115.23
459.48	7068.42
459.66	6967.77
459.84	7201.83
460.03	7447.58
460.21	7325.88
460.39	7087.14
460.57	7138.63
460.76	7433.54
460.94	7417.16
461.12	7274.38
461.31	7461.63
461.49	7440.56
461.67	7412.48
461.85	7630.15
462.04	7576.31
462.22	7775.26
462.40	7674.62
462.59	7482.69
462.77	7618.44
462.95	7665.25
463.13	7625.47
463.32	7534.18
463.50	7648.87
463.68	7749.51
463.86	7908.67
464.05	7531.84
464.23	7772.92
464.41	7831.43
464.59	7578.65
464.78	7854.84
464.96	7948.46
465.14	7819.73
465.32	7810.37
465.50	7929.74
465.69	7903.99
465.87	7850.16
466.05	7962.50
466.23	8028.04
466.41	7992.93
466.60	8091.23
466.78	7906.33
466.96	7925.05
467.14	7948.46
467.32	7929.74
467.51	8161.45
467.69	7798.66
467.87	8407.20
468.05	8189.53
468.23	8063.15
468.41	8135.70
468.60	8198.90
468.78	8400.18
468.96	8234.00
469.14	8369.76
469.32	8320.60
469.50	8109.96
469.69	8432.95
469.87	8489.12
470.05	8493.80
470.23	8599.13
470.41	8582.74
470.59	8585.08
470.77	8659.98
470.95	8397.84
471.14	8498.49
471.32	8816.80
471.50	8716.16
471.68	8805.10
471.86	8793.39
472.04	8793.39
472.22	8973.61
472.40	8894.04
472.58	8929.14
472.77	9078.94
472.95	9043.83
473.13	9439.38
473.31	9039.15
473.49	8980.64
473.67	9123.41
473.85	9312.99
474.03	9160.86
474.21	9385.55
474.39	9493.21
474.57	9481.51
474.75	9418.32
474.93	9694.50
475.12	9575.13
475.30	9743.65
475.48	9565.77
475.66	9696.84
475.84	9811.53
476.02	9745.99
476.20	9687.48
476.38	9975.36
476.56	10146.22
476.74	10221.12
476.92	10171.97
477.10	10108.77
477.28	10513.69
477.46	10429.43
477.64	10541.77
477.82	10721.99
478.00	10939.66
478.18	10670.50
478.36	10913.92
478.54	10993.50
478.72	11159.67
478.90	11052.01
479.08	11222.87
479.26	11274.36
479.44	11169.04
479.62	11293.08
479.80	11449.90
479.98	11475.65
480.16	11763.53
480.34	11676.93
480.52	11831.41
480.70	11974.18
480.88	11716.72
481.06	11962.48
481.24	12004.61
481.41	11929.71
481.59	12334.62
481.77	12280.79
481.95	12231.64
482.13	12706.77
482.31	12475.06
482.49	13008.70
482.67	12573.36
482.85	12802.73
483.03	13032.10
483.21	13249.77
483.39	13085.94
483.57	13226.37
483.74	13394.89
483.92	13598.51
484.10	13268.50
484.28	13610.22
484.46	13816.18
484.64	14008.11
484.82	13650.00
485.00	13954.27
485.18	14223.44
485.35	14164.92
485.53	14356.85
485.71	14698.56
485.89	14370.89
486.07	14586.22
486.25	14684.52
486.43	14803.89
486.61	14853.04
486.78	15084.75
486.96	15183.06
487.14	15314.13
487.32	15295.40
487.50	15667.55
487.68	15674.57
487.85	16222.25
488.03	16264.38
488.21	16255.02
488.39	15981.18
488.57	16292.47
488.75	16297.15
488.92	16697.38
489.10	16833.13
489.28	16741.85
489.46	16856.54
489.64	16783.98
489.81	17315.28
489.99	17261.45
490.17	17015.69
490.35	17483.80
490.53	17549.34
490.70	17736.58
490.88	17834.88
491.06	18068.94
491.24	17834.88
491.41	18153.20
491.59	18211.71
491.77	18106.38
491.95	18279.58
492.13	18457.46
492.30	18511.30
492.48	18513.64
492.66	18728.97
492.84	18970.04
493.01	19468.58
493.19	19073.03
493.37	19552.84
493.54	19112.81
493.72	19335.17
493.90	19660.50
494.08	19597.31
494.25	20023.28
494.43	19932.00
494.61	20285.42
494.79	19789.23
494.96	20128.61
495.14	20257.34
495.32	20711.40
495.49	20528.84
495.67	20582.67
495.85	20678.63
496.02	20947.79
496.20	20933.75
496.38	20903.32
496.55	21238.02
496.73	21867.63
496.91	21458.03
497.09	21516.54
497.26	21818.47
497.44	21422.92
497.62	21909.75
497.79	21972.95
497.97	21837.20
498.14	22415.31
498.32	22485.53
498.50	22202.32
498.67	22569.79
498.85	22600.21
499.03	22675.11
499.20	22810.86
499.38	22754.69
499.56	22738.30
499.73	22913.84
499.91	23110.45
500.08	23332.80
500.26	23094.07
500.44	23367.91
500.61	23754.10
500.79	23391.31
500.97	23564.51
501.14	23627.71
501.32	23548.13
501.49	23695.58
501.67	23536.43
501.84	24308.80
502.02	24252.63
502.20	24231.57
502.37	23782.18
502.55	24519.45
502.72	24622.44
502.90	24589.67
503.07	24266.67
503.25	24922.02
503.43	24563.92
503.60	24732.44
503.78	24711.38
503.95	24849.47
504.13	25090.54
504.30	25106.93
504.48	25270.76
504.65	25427.58
504.83	25614.82
505.01	25699.08
505.18	25326.94
505.36	25853.56
505.53	25671.00
505.71	25816.11
505.88	26162.51
506.06	25614.82
506.23	26087.61
506.41	26066.55
506.58	26029.10
506.76	26029.10
506.93	26256.13
507.11	26183.57
507.28	26424.65
507.46	27058.93
507.63	26370.82
507.81	26679.77
507.98	26256.13
508.16	26824.88
508.33	26808.50
508.50	26785.09
508.68	27417.04
508.85	27487.25
509.03	27190.00
509.20	27178.30
509.38	27564.49
509.55	27489.59
509.73	27679.18
509.90	28109.83
510.08	27700.24
510.25	27421.72
510.42	27812.59
510.60	28048.98
510.77	28217.50
510.95	28156.64
511.12	28109.83
511.30	28102.81
511.47	28423.47
511.64	28559.22
511.82	28701.99
511.99	28432.83
512.17	28528.79
512.34	28662.20
512.51	28858.81
512.69	28833.06
512.86	28936.04
513.04	29380.74
513.21	29064.77
513.38	29078.82
513.56	29137.33
513.73	29205.20
513.90	29235.63
514.08	29170.10
514.25	29701.40
514.43	29792.68
514.60	29556.28
514.77	29802.04
514.95	29677.99
515.12	29509.47
515.29	29570.33
515.47	29961.20
515.64	30057.16
515.81	30000.99
515.99	29862.90
516.16	30291.21
516.33	30125.04
516.51	30410.58
516.68	30452.71
516.85	30246.74
517.03	30682.08
517.20	30838.90
517.37	30691.44
517.54	30471.43
517.72	30874.01
517.89	31000.40
518.06	30899.75
518.24	31002.74
518.41	30857.62
518.58	31161.89
518.75	30962.95
518.93	31571.49
519.10	31101.04
519.27	31094.02
519.45	31136.15
519.62	31421.69
519.79	31630.00
519.96	31545.74
520.14	31658.09
520.31	31419.35
520.48	31852.35
520.65	31555.10
520.83	32065.34
521.00	32250.24
521.17	31943.63
521.34	32488.98
521.52	32388.33
521.69	32088.74
521.86	32421.10
522.03	32339.18
522.20	32627.07
522.38	32835.38
522.55	32725.37
522.72	32919.63
522.89	32809.63
523.07	33088.15
523.24	32528.77
523.41	33039.00
523.58	33233.27
523.75	33287.10
523.92	32769.84
524.10	33392.42
524.27	33347.95
524.44	33598.39
524.61	32921.98
524.78	32982.83
524.96	33467.32
525.13	33764.57
525.30	33525.83
525.47	33612.43
525.64	33776.27
525.81	33921.38
525.98	34265.44
526.16	34045.43
526.33	33582.01
526.50	34541.63
526.67	33820.74
526.84	33811.38
527.01	34291.19
527.18	34220.97
527.36	34206.93
527.53	34293.53
527.70	34747.59
527.87	34483.11
528.04	34520.56
528.21	34583.76
528.38	34876.32
528.55	34653.97
528.72	34639.93
528.89	34574.39
529.07	34806.11
529.24	34876.32
529.41	34782.70
529.58	34969.94
529.75	34707.80
529.92	35515.29
530.09	35365.49
530.26	35173.57
530.43	35253.15
530.60	35353.79
530.77	35395.92
530.94	35667.42
531.11	35358.47
531.28	35531.67
531.46	35791.47
531.63	35725.94
531.80	35508.27
531.97	35482.52
532.14	35599.55
532.31	35728.28
532.48	35489.54
532.65	35929.56
532.82	35831.26
532.99	36259.58
533.16	35835.94
533.33	35840.62
533.50	36308.73
533.67	36002.12
533.84	36266.60
534.01	36266.60
534.18	36077.02
534.35	36376.61
534.52	36751.09
534.69	36444.48
534.86	36521.72
535.03	36510.02
535.20	36421.08
535.37	36308.73
535.54	37205.16
535.71	36753.43
535.88	36811.95
536.05	37198.13
536.22	36928.97
536.38	37490.70
536.55	37141.96
536.72	36882.16
536.89	37577.30
537.06	37305.80
537.23	37471.98
537.40	37237.92
537.57	37118.56
537.74	37518.79
537.91	36811.95
538.08	36989.83
538.25	37041.32
538.42	37530.49
538.59	37912.00
538.75	37420.48
538.92	37628.79
539.09	37832.42
539.26	37816.04
539.43	37794.97
539.60	37860.51
539.77	37661.56
539.94	38436.28
540.11	38190.52
540.28	38057.11
540.44	38422.23
540.61	37895.61
540.78	38167.12
540.95	38323.93
541.12	38677.35
541.29	37944.76
541.46	38656.29
541.62	38583.73
541.79	38878.64
541.96	38513.52
542.13	38305.21
542.30	38691.40
542.47	39054.18
542.63	38684.37
542.80	38843.53
542.97	39372.49
543.14	39632.29
543.31	39140.78
543.48	39278.87
543.64	39438.03
543.81	39466.11
543.98	39693.15
544.15	39742.30
544.32	39264.83
544.48	39765.70
544.65	39613.57
544.82	39885.07
544.99	39442.71
545.16	39842.94
545.32	39543.35
545.49	40238.49
545.66	41053.00
545.83	40243.17
546.00	40804.90
546.16	40601.27
546.33	40334.45
546.50	39718.89
546.67	40332.11
546.83	39887.41
547.00	39997.41
547.17	40383.60
547.34	39910.82
547.50	40016.14
547.67	40495.95
547.84	40942.99
548.00	41020.23
548.17	40622.34
548.34	40231.47
548.51	40357.86
548.67	40748.73
548.84	40540.42
549.01	40369.56
549.18	40437.44
549.34	40627.02
549.51	41043.63
549.68	41383.01
549.84	40987.46
550.01	40163.59
550.18	40727.66
550.34	40533.40
550.51	40559.14
550.68	40882.14
550.84	40418.71
551.01	40828.30
551.18	40547.44
551.34	40605.95
551.51	40442.12
551.68	40921.93
551.84	40781.49
552.01	40781.49
552.18	41139.60
552.34	41097.47
552.51	41184.07
552.68	40652.76
552.84	41446.21
553.01	41511.74
553.18	41429.82
553.34	41483.66
553.51	41113.85
553.67	41631.11
553.84	41942.40
554.01	41457.91
554.17	41776.22
554.34	41490.68
554.51	41500.04
554.67	41600.68
554.84	41755.16
555.00	41439.18
555.17	41401.74
555.33	41823.03
555.50	41284.71
555.67	41638.13
555.83	41347.90
556.00	41663.88
556.16	42047.72
556.33	41684.94
556.50	41436.84
556.66	41907.29
556.83	41373.65
556.99	41956.44
557.16	41750.48
557.32	42103.90
557.49	42319.23
557.65	41773.88
557.82	41937.72
557.98	42057.09
558.15	42038.36
558.32	42281.78
558.48	41813.67
558.65	42466.68
558.81	42787.33
558.98	42307.52
559.14	42333.27
559.31	42213.90
559.47	42099.22
559.64	42312.20
559.80	41830.05
559.97	42658.60
560.13	42293.48
560.30	42157.73
560.46	42602.43
560.63	42946.49
560.79	42813.08
560.96	42412.85
561.12	43005.00
561.29	42682.01
561.45	42567.32
561.61	42979.26
561.78	42492.43
561.94	42869.25
562.11	42740.52
562.27	42731.16
562.44	43150.12
562.60	42782.65
562.77	43061.18
562.93	42464.34
563.10	43063.52
563.26	42375.40
563.42	42794.36
563.59	43180.54
563.75	42902.02
563.92	42890.32
564.08	42316.89
564.24	42770.95
564.41	43096.28
564.57	42600.09
564.74	42988.62
564.90	43477.79
565.07	43175.86
565.23	43777.38
565.39	43246.08
565.56	43295.23
565.72	42946.49
565.88	43391.19
566.05	43086.92
566.21	42754.57
566.38	43030.75
566.54	42784.99
566.70	43122.03
566.87	43421.62
567.03	43262.46
567.19	43632.27
567.36	43533.96
567.52	43236.72
567.68	43393.53
567.85	43023.73
568.01	43487.15
568.17	43283.53
568.34	43423.96
568.50	43569.07
568.66	43260.12
568.83	43545.67
568.99	43213.31
569.15	43395.87
569.32	43461.41
569.48	43564.39
569.64	43576.09
569.81	43157.14
569.97	43342.04
570.13	43318.64
570.30	43573.75
570.46	43646.31
570.62	43756.32
570.78	43421.62
570.95	43529.28
571.11	43519.92
571.27	43529.28
571.43	43430.98
571.60	43407.58
571.76	43222.67
571.92	43213.31
572.09	43536.30
572.25	43529.28
572.41	43791.42
572.57	43761.00
572.74	43899.09
572.90	43812.49
573.06	43676.74
573.22	43732.91
573.38	43246.08
573.55	43559.71
573.71	44020.80
573.87	43753.97
574.03	43503.54
574.20	43505.88
574.36	43763.34
574.52	43557.37
574.68	43634.61
574.84	44048.88
575.01	43746.95
575.17	43688.44
575.33	43955.26
575.49	43693.12
575.65	43751.63
575.82	43866.32
575.98	44016.11
576.14	43725.89
576.30	43807.81
576.46	43878.02
576.62	43658.01
576.79	43768.02
576.95	43606.52
577.11	43983.35
577.27	43770.36
577.43	43999.73
577.59	44168.25
577.75	44172.93
577.92	43782.06
578.08	44020.80
578.24	44027.82
578.40	43821.85
578.56	43966.96
578.72	44039.52
578.88	44580.18
579.04	44650.40
579.21	44116.76
579.37	44240.81
579.53	44219.74
579.69	44172.93
579.85	43859.30
580.01	43983.35
580.17	44205.70
580.33	43959.94
580.49	44598.91
580.65	44170.59
580.82	44414.01
580.98	43990.37
581.14	43882.70
581.30	44179.95
581.46	44128.46
581.62	43805.47
581.78	43676.74
581.94	44121.44
582.10	43660.35
582.26	44067.61
582.42	43709.50
582.58	44025.48
582.74	44212.72
582.90	44196.34
583.06	44147.18
583.22	44414.01
583.38	43920.15
583.54	43885.04
583.70	43540.99
583.86	43950.58
584.02	43887.39
584.18	44559.12
584.34	44259.53
584.50	44376.56
584.66	43995.05
584.82	44069.95
584.98	44069.95
585.14	43920.15
585.30	44112.08
585.46	44332.09
585.62	44058.24
585.78	44158.89
585.94	44121.44
586.10	44425.71
586.26	44650.40
586.42	44631.68
586.58	44268.89
586.74	44383.58
586.90	44275.91
587.06	43985.69
587.22	44362.51
587.38	44030.16
587.54	44662.10
587.70	44605.93
587.86	44790.83
588.02	44467.84
588.18	43962.28
588.34	44889.13
588.49	44500.61
588.65	44151.87
588.81	44198.68
588.97	44652.74
589.13	44500.61
589.29	44669.12
589.45	44797.85
589.61	44641.04
589.77	44568.48
589.93	44432.73
590.08	44390.60
590.24	44933.60
590.40	44650.40
590.56	44678.49
590.72	44154.21
590.88	44191.65
591.04	44556.78
591.20	44509.97
591.35	44722.96
591.51	45324.47
591.67	45539.80
591.83	44863.39
591.99	44945.31
592.15	44563.80
592.31	44531.03
592.46	44769.77
592.62	44774.45
592.78	44582.52
592.94	44996.80
593.10	44767.43
593.26	44779.13
593.41	45244.90
593.57	45059.99
593.73	44823.60
593.89	45160.64
594.05	44545.08
594.20	44371.88
594.36	44996.80
594.52	44355.49
594.68	44556.78
594.84	44568.48
594.99	44931.26
595.15	44854.03
595.31	45013.18
595.47	44680.83
595.62	45092.76
595.78	44734.66
595.94	44797.85
596.10	44172.93
596.25	44626.99
596.41	44952.33
596.57	44428.05
596.73	44900.84
596.88	44669.12
597.04	45256.60
597.20	44538.05
597.36	44821.26
597.51	45532.78
597.67	44938.29
597.83	44931.26
597.99	45043.61
598.14	44842.32
598.30	45153.62
598.46	44877.43
598.61	45116.17
598.77	45198.09
598.93	44884.45
599.09	45031.91
599.24	44964.03
599.40	44905.52
599.56	44744.02
599.71	45270.64
599.87	45406.39
600.03	45406.39
600.18	44973.39
600.34	45099.78
600.50	44992.12
600.65	44683.17
600.81	44964.03
600.97	45059.99
601.12	45193.40
601.28	45272.98
601.44	45235.53
601.59	44973.39
601.75	44884.45
601.91	45287.03
602.06	45132.55
602.22	45230.85
602.37	45184.04
602.53	45315.11
602.69	45397.03
602.84	45024.89
603.00	45062.33
603.16	45462.57
603.31	44935.95
603.47	44999.14
603.62	44692.53
603.78	45029.57
603.94	45104.46
604.09	45092.76
604.25	44828.28
604.40	45001.48
604.56	45170.00
604.71	45003.82
604.87	44596.57
605.03	44952.33
605.18	44772.11
605.34	44608.27
605.49	44678.49
605.65	44779.13
605.80	44751.04
605.96	45144.25
606.12	45198.09
606.27	45411.07
606.43	44910.20
606.58	45368.94
606.74	45081.06
606.89	45036.59
607.05	45001.48
607.20	44573.16
607.36	43962.28
607.51	44687.85
607.67	44524.01
607.82	45020.20
607.98	44584.86
608.13	44893.82
608.29	45158.30
608.44	44648.06
608.60	45109.14
608.75	44945.31
608.91	44774.45
609.06	44734.66
609.22	44952.33
609.37	44580.18
609.53	44512.31
609.68	44795.51
609.84	44465.50
609.99	44870.41
610.15	44933.60
610.30	45125.53
610.46	44861.05
610.61	44973.39
610.76	45705.98
610.92	45144.25
611.07	45137.23
611.23	45427.46
611.38	45514.06
611.54	45291.71
611.69	45600.66
611.84	45600.66
612.00	45572.57
612.15	44772.11
612.31	45146.59
612.46	45069.36
612.62	44680.83
612.77	44608.27
612.92	44931.26
613.08	44624.65
613.23	44428.05
613.39	44650.40
613.54	44334.43
613.69	44449.11
613.85	44598.91
614.00	44399.96
614.15	44549.76
614.31	44664.44
614.46	44863.39
614.62	44591.89
614.77	44699.55
614.92	44575.50
615.08	44219.74
615.23	44261.87
615.38	44123.78
615.54	43908.45
615.69	43873.34
615.84	44053.56
616.00	44554.44
616.15	44009.09
616.30	44247.83
616.46	44168.25
616.61	43697.80
616.76	44062.93
616.92	43871.00
617.07	43920.15
617.22	43601.84
617.37	43297.57
617.53	43627.59
617.68	43826.53
617.83	43423.96
617.99	44210.38
618.14	44201.02
618.29	44126.12
618.45	43971.64
618.60	43812.49
618.75	43906.11
618.90	43545.67
619.06	43419.28
619.21	43159.48
619.36	43337.36
619.51	43147.78
619.67	43297.57
619.82	43477.79
619.97	43232.04
620.12	43597.16
620.28	43641.63
620.43	44098.03
620.58	44034.84
620.73	43323.32
620.89	43573.75
621.04	43227.35
621.19	43147.78
621.34	43491.83
621.49	43187.56
621.65	42925.42
621.80	43597.16
621.95	43058.84
622.10	43683.76
622.25	43269.48
622.41	43269.48
622.56	42560.30
622.71	42906.70
622.86	43351.40
623.01	42646.90
623.16	42829.46
623.32	42955.85
623.47	43187.56
623.62	43299.91
623.77	43049.47
623.92	43082.24
624.07	43103.31
624.23	43372.47
624.38	43320.98
624.53	42593.07
624.68	42618.81
624.83	43103.31
624.98	42639.88
625.13	42213.90
625.29	43016.71
625.44	43002.66
625.59	42672.65
625.74	42604.77
625.89	42759.25
626.04	42480.72
626.19	42361.36
626.34	42600.09
626.49	42696.05
626.65	42658.60
626.80	42766.27
626.95	41961.12
627.10	42017.30
627.25	41907.29
627.40	42225.60
627.55	42106.24
627.70	42050.06
627.85	42246.67
628.00	42171.77
628.15	42216.24
628.30	41827.71
628.45	42136.66
628.60	41972.83
628.76	42391.78
628.91	41722.39
629.06	42483.06
629.21	41897.93
629.36	41668.56
629.51	42057.09
629.66	42344.97
629.81	41930.70
629.96	42012.62
630.11	42078.15
630.26	41776.22
630.41	42045.38
630.56	41614.72
630.71	41703.67
630.86	41691.96
631.01	41460.25
631.16	41677.92
631.31	41626.43
631.46	41308.11
631.61	41488.34
631.76	41223.86
631.91	41794.95
632.06	41509.40
632.21	41254.28
632.36	41521.10
632.51	41647.49
632.66	41504.72
632.81	40961.72
632.96	41109.17
633.10	41500.04
633.25	41366.63
633.40	41151.30
633.55	41347.90
633.70	41193.43
633.85	41233.22
634.00	40917.25
634.15	41631.11
634.30	41137.26
634.45	40884.48
634.60	41317.48
634.75	41507.06
634.90	40907.88
635.05	41153.64
635.19	40720.64
635.34	41015.55
635.49	40423.39
635.64	40519.35
635.79	40603.61
635.94	40414.03
636.09	40762.77
636.24	41057.68
636.39	41333.86
636.53	41394.71
636.68	40793.20
636.83	40339.13
636.98	40769.79
637.13	40163.59
637.28	40627.02
637.43	40191.68
637.57	40816.60
637.72	40170.61
637.87	40378.92
638.02	40301.68
638.17	40069.97
638.32	39992.73
638.46	40318.07
638.61	40402.33
638.76	40299.34
638.91	40706.60
639.06	40596.59
639.20	40664.47
639.35	40744.05
639.50	40755.75
639.65	40549.78
639.80	39889.75
639.94	39871.03
640.09	40100.40
640.24	39866.34
640.39	40055.93
640.54	40311.05
640.68	40184.66
640.83	39786.77
640.98	39889.75
641.13	39730.59
641.27	40002.10
641.42	39608.89
641.57	40081.67
641.72	39754.00
641.86	39377.17
642.01	39316.32
642.16	38953.54
642.31	39386.54
642.45	39842.94
642.60	39447.39
642.75	39585.48
642.90	40053.59
643.04	39686.12
643.19	39559.73
643.34	40074.65
643.48	39887.41
643.63	39599.52
643.78	39414.62
643.93	39498.88
644.07	39283.55
644.22	39295.25
644.37	39309.30
644.51	39414.62
644.66	39585.48
644.81	39594.84
644.95	39672.08
645.10	39203.97
645.25	39131.42
645.39	39318.66
645.54	39374.83
645.69	39185.25
645.83	39274.19
645.98	39068.22
646.13	39108.01
646.27	39105.67
646.42	39264.83
646.57	39402.92
646.71	39016.73
646.86	39030.77
647.00	39103.33
647.15	39171.21
647.30	39103.33
647.44	39112.69
647.59	39009.71
647.74	39178.23
647.88	39117.37
648.03	39075.24
648.17	38586.07
648.32	38855.23
648.47	38637.56
648.61	38380.10
648.76	38923.11
648.90	38948.85
649.05	38670.33
649.20	38480.75
649.34	38948.85
649.49	39367.81
649.63	38972.26
649.78	39005.03
649.92	38490.11
650.07	39260.15
650.21	38817.78
650.36	38609.48
650.51	38614.16
650.65	38749.91
650.80	38462.02
650.94	38462.02
651.09	38602.46
651.23	38515.86
651.38	38272.44
651.52	38291.16
651.67	38342.66
651.81	38396.49
651.96	38359.04
652.10	38361.38
652.25	38188.18
652.39	38246.69
652.54	37930.72
652.68	38197.54
652.83	37766.88
652.97	38082.86
653.12	38115.62
653.26	38174.14
653.41	38377.76
653.55	37895.61
653.70	38108.60
653.84	37888.59
653.99	37970.51
654.13	37731.78
654.27	37764.54
654.42	37961.15
654.56	37904.98
654.71	38052.43
654.85	37860.51
655.00	37844.12
655.14	37109.19
655.29	37598.37
655.43	37919.02
655.57	37275.37
655.72	37457.93
655.86	37778.59
656.01	37827.74
656.15	37209.84
656.30	37853.48
656.44	37848.80
656.58	37509.43
656.73	37406.44
656.87	37670.92
657.01	37769.22
657.16	37886.25
657.30	37392.40
657.45	37284.73
657.59	36875.14
657.73	37209.84
657.88	37476.66
658.02	36975.78
658.16	37291.76
658.31	37553.90
658.45	37144.30
658.60	37170.05
658.74	37315.16
658.88	37097.49
659.03	36884.50
659.17	36673.85
659.31	36734.71
659.46	36559.17
659.60	36493.63
659.74	36638.75
659.89	36744.07
660.03	36863.44
660.17	36765.14
660.32	36624.70
660.46	36254.90
660.60	36067.66
660.74	36423.42
660.89	36627.04
661.03	35859.35
661.17	36783.86
661.32	36172.98
661.46	36416.40
661.60	35936.59
661.74	36100.42
661.89	35878.07
662.03	36116.81
662.17	35941.27
662.31	35765.73
662.46	35908.50
662.60	35967.01
662.74	35718.92
662.88	35849.99
663.03	35711.89
663.17	35679.13
663.31	35690.83
663.45	35866.37
663.60	35379.54
663.74	35321.02
663.88	35524.65
664.02	34476.09
664.17	35152.51
664.31	34852.92
664.45	35035.48
664.59	35199.32
664.73	35484.86
664.88	35007.39
665.02	34611.84
665.16	35012.07
665.30	35276.55
665.44	34806.11
665.59	34607.16
665.73	34672.70
665.87	34305.23
666.01	34529.92
666.15	34653.97
666.29	34637.59
666.44	34616.52
666.58	34263.10
666.72	34080.54
666.86	34522.90
667.00	34010.32
667.14	34321.62
667.28	34066.50
667.43	34087.56
667.57	34522.90
667.71	34506.52
667.85	34309.91
667.99	34085.22
668.13	33783.29
668.27	33584.35
668.41	33834.78
668.56	33624.14
668.70	33654.56
668.84	33092.83
668.98	33078.79
669.12	33200.50
669.26	33413.49
669.40	33273.06
669.54	33621.80
669.68	33408.81
669.82	33172.41
669.96	33525.83
670.10	33312.84
670.25	33696.69
670.39	32840.06
670.53	32610.68
670.67	32552.17
670.81	33394.76
670.95	32528.77
671.09	32678.56
671.23	32477.27
671.37	33053.05
671.51	32694.94
671.65	33240.29
671.79	33090.49
671.93	32811.97
672.07	32589.62
672.21	32636.43
672.35	32650.47
672.49	32395.35
672.63	32002.14
672.77	32257.26
672.91	32376.63
673.05	31955.33
673.19	31658.09
673.33	31290.62
673.47	31559.78
673.61	31227.43
673.75	31711.92
673.89	31889.80
674.03	31777.45
674.17	31531.70
674.31	31590.21
674.45	31814.90
674.59	31639.36
674.73	31943.63
674.87	31374.88
675.01	31110.40
675.15	31154.87
675.29	31208.70
675.43	30890.39
675.56	30806.13
675.70	31019.12
675.84	30565.06
675.98	29802.04
676.12	30092.27
676.26	30338.02
676.40	30611.87
676.54	30417.60
676.68	30871.67
676.82	29783.32
676.96	30316.96
677.10	30204.61
677.23	30089.93
677.37	30080.56
677.51	29696.72
677.65	29654.59
677.79	29385.43
677.93	29193.50
678.07	29530.54
678.21	29359.68
678.34	29343.30
678.48	28975.83
678.62	28893.91
678.76	28861.15
678.90	29230.95
679.04	28856.46
679.18	28786.25
679.31	28166.01
679.45	28386.02
679.59	28765.18
679.73	28769.86
679.87	28594.32
680.00	28257.29
680.14	28154.30
680.28	28348.57
680.42	28100.47
680.56	28058.34
680.70	27754.07
680.83	27754.07
680.97	27686.20
681.11	27370.22
681.25	27707.26
681.39	27606.62
681.52	27461.51
681.66	27255.54
681.80	27154.90
681.94	27384.27
682.07	27339.80
682.21	26932.54
682.35	26986.38
682.49	27218.09
682.62	27026.17
682.76	26843.60
682.90	26593.17
683.04	26616.57
683.17	26237.41
683.31	26384.86
683.45	26630.62
683.59	26246.77
683.72	26307.62
683.86	26061.87
684.00	26162.51
684.13	25954.20
684.27	25577.37
684.41	25741.21
684.55	25879.30
684.68	25507.16
684.82	25575.03
684.96	25404.17
685.09	25303.53
685.23	25654.61
685.37	25509.50
685.50	25591.42
685.64	25097.56
685.78	25106.93
685.91	24912.66
686.05	24847.13
686.19	24671.59
686.32	24718.40
686.46	24540.52
686.60	24561.58
686.73	24952.45
686.87	24627.12
687.01	24559.24
687.14	24386.04
687.28	24542.86
687.42	24231.57
687.55	23934.32
687.69	23838.36
687.82	23765.80
687.96	23812.61
688.10	23718.99
688.23	24151.99
688.37	23885.17
688.50	23555.15
688.64	23304.71
688.78	23440.47
688.91	23379.61
689.05	23065.98
689.18	22965.34
689.32	22731.28
689.46	22824.90
689.59	22827.24
689.73	22551.06
689.86	22663.41
690.00	22616.60
690.13	22551.06
690.27	22370.84
690.41	22412.97
690.54	22054.87
690.68	22164.87
690.81	22192.96
690.95	22113.38
691.08	22031.46
691.22	21776.34
691.35	21310.58
691.49	21965.93
691.62	21755.28
691.76	21884.01
691.89	21820.81
692.03	21745.92
692.16	21553.99
692.30	21099.93
692.43	21195.89
692.57	20966.52
692.70	21373.77
692.84	21097.59
692.97	20697.36
693.11	20765.23
693.24	20439.90
693.38	20379.04
693.51	20620.12
693.65	20669.27
693.78	20463.30
693.92	20821.41
694.05	20173.08
694.19	20294.79
694.32	20271.38
694.45	20294.79
694.59	20203.50
694.72	19983.49
694.86	19819.66
694.99	19428.79
695.13	19548.15
695.26	19697.95
695.39	19527.09
695.53	19337.51
695.66	19531.77
695.80	19082.39
695.93	19227.50
696.07	18937.27
696.20	18878.76
696.33	19300.06
696.47	18864.72
696.60	18855.36
696.73	18705.56
696.87	18904.51
697.00	18906.85
697.14	18693.86
697.27	18314.69
697.40	18171.92
697.54	18270.22
697.67	18176.60
697.80	18120.43
697.94	17837.22
698.07	17596.15
698.21	18251.50
698.34	17855.95
698.47	17617.21
698.61	17411.25
698.74	17703.81
698.87	17734.24
699.01	17387.84
699.14	17453.37
699.27	17652.32
699.40	17570.40
699.54	17539.97
699.67	17254.43
699.80	17081.23
699.94	16713.77
700.07	16666.95
700.20	16528.86
700.34	16592.06
700.47	16774.62
700.60	16798.02
700.73	16432.90
700.87	16683.34
701.00	16538.23
701.13	16407.16
701.26	16128.63
701.40	16135.65
701.53	15990.54
701.66	15744.78
701.79	15925.00
701.93	16217.57
702.06	15943.73
702.19	16027.99
702.32	15922.66
702.46	15339.87
702.59	15538.82
702.72	15386.68
702.85	15594.99
702.99	15253.27
703.12	15169.01
703.25	15101.14
703.38	15225.18
703.51	15468.60
703.65	15124.54
703.78	15473.28
703.91	14941.98
704.04	15021.56
704.17	14892.83
704.31	15178.37
704.44	14626.01
704.57	14478.55
704.70	14408.34
704.83	14097.05
704.96	14338.12
705.10	14204.71
705.23	14211.73
>>>>>End Processed Spectral Data<<<<<
