SpectraSuite Data File
++++++++++++++++++++++++++++++++++++
Date: Thu Oct 24 13:21:42 EDT 2013
User: stostad
Dark Spectrum Present: No
Reference Spectrum Present: No
Number of Sampled Component Spectra: 1
Spectrometers: USB2+H05261
Integration Time (usec): 100000 (USB2+H05261)
Spectra Averaged: 1 (USB2+H05261)
Boxcar Smoothing: 0 (USB2+H05261)
Correct for Electrical Dark: No (USB2+H05261)
Strobe/Lamp Enabled: No (USB2+H05261)
Correct for Detector Non-linearity: No (USB2+H05261)
Correct for Stray Light: No (USB2+H05261)
Number of Pixels in Processed Spectrum: 2048
>>>>>Begin Processed Spectral Data<<<<<
365.73	510.24
365.92	510.24
366.12	510.24
366.32	531.30
366.52	491.51
366.72	582.79
366.91	507.90
367.11	538.32
367.31	468.11
367.51	514.92
367.70	486.83
367.90	484.49
368.10	531.30
368.30	498.53
368.49	475.13
368.69	461.09
368.89	559.39
369.09	444.70
369.28	475.13
369.48	573.43
369.68	547.69
369.87	540.66
370.07	603.86
370.27	526.62
370.47	739.61
370.66	1277.93
370.86	1441.77
371.06	1392.62
371.25	1397.30
371.45	1535.39
371.65	1465.18
371.84	1474.54
372.04	1563.48
372.24	1535.39
372.44	1446.45
372.63	1549.43
372.83	1577.52
373.03	1495.60
373.22	1540.07
373.42	1570.50
373.62	1678.16
373.81	1614.97
374.01	1713.27
374.21	1652.42
374.40	1708.59
374.60	1692.21
374.79	1607.95
374.99	1734.34
375.19	1626.67
375.38	1724.97
375.58	1710.93
375.78	1722.63
375.97	1806.89
376.17	1849.02
376.37	1799.87
376.56	1750.72
376.76	1816.26
376.95	1802.21
377.15	1879.45
377.35	1811.57
377.54	1884.13
377.74	1830.30
377.93	1746.04
378.13	1870.09
378.33	1942.64
378.52	1980.09
378.72	1914.56
378.91	1996.48
379.11	1923.92
379.31	2010.52
379.50	1902.86
379.70	1970.73
379.89	1970.73
380.09	1989.46
380.28	2104.14
380.48	2038.61
380.68	2064.35
380.87	2043.29
381.07	1991.80
381.26	2143.93
381.46	2073.71
381.65	2073.71
381.85	2111.16
382.04	2200.10
382.24	2218.83
382.43	2223.51
382.63	2251.60
382.83	2141.59
383.02	2190.74
383.22	2312.45
383.41	2256.28
383.61	2211.81
383.80	2387.35
384.00	2169.68
384.19	2277.34
384.39	2380.32
384.58	2277.34
384.78	2347.56
384.97	2392.03
385.17	2385.01
385.36	2445.86
385.56	2349.90
385.75	2354.58
385.95	2452.88
386.14	2480.97
386.34	2523.10
386.53	2513.74
386.72	2441.18
386.92	2516.08
387.11	2485.65
387.31	2633.10
387.50	2490.33
387.70	2551.18
387.89	2513.74
388.09	2623.74
388.28	2715.02
388.48	2665.87
388.67	2778.22
388.86	2665.87
389.06	2612.04
389.25	2527.78
389.45	2684.59
389.64	2663.53
389.84	2883.54
390.03	2778.22
390.22	2825.03
390.42	2834.39
390.61	2782.90
390.81	2743.11
391.00	2761.83
391.19	2930.35
391.39	2843.75
391.58	2841.41
391.78	2986.52
391.97	3054.40
392.16	3000.57
392.36	3042.70
392.55	3030.99
392.75	3030.99
392.94	2944.39
393.13	3035.67
393.33	3023.97
393.52	3180.79
393.71	3190.15
393.91	3087.17
394.10	3122.27
394.29	3255.69
394.49	3133.98
394.68	3272.07
394.88	3110.57
395.07	3332.92
395.26	3241.64
395.46	3440.59
395.65	3382.07
395.84	3421.86
396.04	3480.38
396.23	3473.36
396.42	3456.97
396.62	3571.66
396.81	3529.53
397.00	3527.19
397.19	3555.27
397.39	3569.32
397.58	3646.55
397.77	3630.17
397.97	3768.26
398.16	3653.58
398.35	3698.05
398.55	3679.32
398.74	3747.20
398.93	3857.20
399.12	3831.46
399.32	3735.50
399.51	3896.99
399.70	3885.29
399.90	3819.75
400.09	3866.56
400.28	3990.61
400.47	4051.47
400.67	4023.38
400.86	3974.23
401.05	4095.94
401.24	3932.10
401.44	3964.87
401.63	4145.09
401.82	3974.23
402.01	4161.47
402.21	4138.07
402.40	4287.86
402.59	4278.50
402.78	4257.43
402.97	4264.46
403.17	4329.99
403.36	4374.46
403.55	4409.57
403.74	4498.51
403.93	4561.70
404.13	4601.49
404.32	4695.11
404.51	4486.81
404.70	4652.98
404.89	4486.81
405.09	4585.11
405.28	4622.56
405.47	4734.90
405.66	4746.61
405.85	4952.57
406.05	4746.61
406.24	4830.87
406.43	4746.61
406.62	5011.09
406.81	4971.30
407.00	4774.69
407.20	4851.93
407.39	4959.60
407.58	5184.29
407.77	5088.32
407.96	5184.29
408.15	5135.14
408.34	5177.26
408.54	5268.55
408.73	5256.84
408.92	5270.89
409.11	5191.31
409.30	5392.59
409.49	5338.76
409.68	5282.59
409.87	5420.68
410.07	5582.18
410.26	5565.79
410.45	5584.52
410.64	5741.33
410.83	5774.10
411.02	5713.25
411.21	5657.07
411.40	5788.14
411.59	5755.38
411.78	6036.24
411.98	5724.95
412.17	6066.67
412.36	6008.16
412.55	6050.28
412.74	6129.86
412.93	6246.89
413.12	6134.54
413.31	6377.96
413.50	6286.68
413.69	6333.49
413.88	6616.69
414.07	6602.65
414.26	6658.82
414.45	6642.44
414.64	6558.18
414.83	6726.70
415.02	6745.42
415.22	6981.82
415.41	6913.94
415.60	6981.82
415.79	6932.67
415.98	7143.32
416.17	7138.63
416.36	7150.34
416.55	7122.25
416.74	7590.36
416.93	7082.46
417.12	7243.96
417.31	7454.61
417.50	7342.26
417.69	7597.38
417.88	7623.12
418.07	7620.78
418.26	7555.25
418.45	7812.71
418.64	8046.76
418.83	7911.01
419.02	7864.20
419.21	8056.12
419.39	8133.36
419.58	8028.04
419.77	7852.50
419.96	8072.51
420.15	8229.32
420.34	8327.63
420.53	8049.10
420.72	8299.54
420.91	8344.01
421.10	8355.71
421.29	8500.83
421.48	8255.07
421.67	8278.47
421.86	8456.36
422.05	8566.36
422.24	8454.02
422.43	8699.77
422.61	8739.56
422.80	8716.16
422.99	8793.39
423.18	8826.16
423.37	8884.67
423.56	8676.37
423.75	8833.18
423.94	8528.91
424.13	8215.28
424.32	8444.65
424.50	8959.57
424.69	8990.00
424.88	8851.91
425.07	8709.13
425.26	8709.13
425.45	8784.03
425.64	8840.20
425.83	8957.23
426.01	8809.78
426.20	9085.96
426.39	8858.93
426.58	9032.13
426.77	8982.98
426.96	9219.37
427.15	8879.99
427.33	9408.95
427.52	9074.26
427.71	9376.19
427.90	9287.25
428.09	9390.23
428.28	9413.63
428.46	9476.83
428.65	9383.21
428.84	9619.60
429.03	9502.58
429.22	9483.85
429.40	9657.05
429.59	9685.14
429.78	9404.27
429.97	9423.00
430.16	9729.61
430.34	9902.81
430.53	9867.70
430.72	9905.15
430.91	9919.19
431.10	10115.80
431.28	10087.71
431.47	10228.14
431.66	10195.37
431.85	10083.03
432.03	10417.72
432.22	10415.38
432.41	10434.11
432.60	10410.70
432.79	10527.73
432.97	10401.34
433.16	10733.70
433.35	10630.71
433.54	10714.97
433.72	10981.79
433.91	10944.34
434.10	11033.29
434.28	10946.69
434.47	11187.76
434.66	10998.18
434.85	11232.23
435.03	11433.52
435.22	11246.27
435.41	11707.36
435.59	11414.79
435.78	11669.91
435.97	11597.35
436.16	11449.90
436.34	11508.41
436.53	11506.07
436.72	11737.79
436.90	11480.33
437.09	11590.33
437.28	11351.60
437.46	11836.09
437.65	11779.92
437.84	12133.34
438.02	12004.61
438.21	12147.38
438.40	11843.11
438.58	12418.88
438.77	12407.18
438.96	11822.05
439.14	12695.07
439.33	12762.94
439.52	12767.62
439.70	12791.03
439.89	13050.83
440.08	13125.72
440.26	13046.15
440.45	12931.46
440.63	13331.69
440.82	13572.77
441.01	13256.79
441.19	13687.45
441.38	13795.12
441.57	13589.15
441.75	13673.41
441.94	14019.81
442.12	14398.98
442.31	14253.86
442.50	14324.08
442.68	14153.22
442.87	14457.49
443.05	14684.52
443.24	14621.33
443.43	14459.83
443.61	14670.48
443.80	14967.73
443.98	14539.41
444.17	13799.80
444.35	14375.57
444.54	14860.06
444.73	14745.38
444.91	14855.38
445.10	14949.00
445.28	14862.40
445.47	14906.87
445.65	14829.63
445.84	15023.90
446.02	14843.68
446.21	15190.08
446.39	14853.04
446.58	14965.39
446.77	15082.41
446.95	14916.23
447.14	14853.04
447.32	15014.54
447.51	15360.94
447.69	14974.75
447.88	15351.57
448.06	15066.03
448.25	15054.33
448.43	15335.19
448.62	15272.00
448.80	15187.74
448.99	15672.23
449.17	15648.82
449.36	15555.20
449.54	15616.05
449.73	15910.96
449.91	15793.94
450.10	16404.81
450.28	16070.12
450.46	16369.71
450.65	15992.88
450.83	16189.49
451.02	16025.65
451.20	16468.01
451.39	16233.96
451.57	16437.58
451.76	16257.36
451.94	16353.32
452.13	16767.60
452.31	16805.05
452.49	16580.36
452.68	16905.69
452.86	16730.15
453.05	17069.53
453.23	17282.52
453.42	16662.27
453.60	16404.81
453.78	17184.21
453.97	17102.29
454.15	17099.95
454.34	16847.18
454.52	17460.40
454.70	17310.60
454.89	17481.46
455.07	17408.90
455.26	17771.69
455.44	17954.25
455.62	17799.77
455.81	17748.28
455.99	17984.68
456.17	18022.12
456.36	18331.08
456.54	18202.35
456.73	18499.59
456.91	18670.45
457.09	18743.01
457.28	19012.17
457.46	18668.11
457.64	18998.13
457.83	19110.47
458.01	18735.99
458.19	19360.91
458.38	19002.81
458.56	19225.16
458.74	19363.25
458.93	19309.42
459.11	19529.43
459.29	19646.46
459.48	19374.95
459.66	19573.90
459.84	19894.55
460.03	19880.51
460.21	19836.04
460.39	19948.39
460.57	20006.90
460.76	20147.33
460.94	20198.82
461.12	20386.07
461.31	20442.24
461.49	20397.77
461.67	20009.24
461.85	20854.17
462.04	20467.98
462.22	20975.88
462.40	20669.27
462.59	20957.16
462.77	20671.61
462.95	20931.41
463.13	21216.96
463.32	21355.05
463.50	21530.59
463.68	21563.36
463.86	21546.97
464.05	20638.84
464.23	21071.84
464.41	21392.50
464.59	21034.39
464.78	22057.21
464.96	21827.84
465.14	21371.43
465.32	21994.01
465.50	21909.75
465.69	22274.88
465.87	22274.88
466.05	21895.71
466.23	21916.78
466.41	22363.82
466.60	22649.36
466.78	22047.85
466.96	22389.56
467.14	22118.06
467.32	22419.99
467.51	23037.89
467.69	22246.79
467.87	22405.95
468.05	22906.82
468.23	22469.14
468.41	22661.07
468.60	23206.41
468.78	23260.24
468.96	23065.98
469.14	23330.46
469.32	23857.08
469.50	23021.51
469.69	23800.91
469.87	23854.74
470.05	23960.06
470.23	23924.96
470.41	23882.83
470.59	24416.47
470.77	24027.94
470.95	24379.02
471.14	24685.63
471.32	23625.37
471.50	24725.42
471.68	24751.17
471.86	25127.99
472.04	25116.29
472.22	25769.30
472.40	25090.54
472.58	25294.17
472.77	25666.31
472.95	25734.19
473.13	26359.11
473.31	25830.15
473.49	25928.45
473.67	25867.60
473.85	26118.04
474.03	26417.63
474.21	26937.23
474.39	26787.43
474.57	26857.65
474.75	27543.42
474.93	27271.92
475.12	27344.48
475.30	27704.92
475.48	27402.99
475.66	27658.11
475.84	27662.79
476.02	28297.08
476.20	27903.87
476.38	28985.19
476.56	29298.83
476.74	29041.37
476.92	28882.21
477.10	29027.32
477.28	29708.42
477.46	29811.40
477.64	29979.92
477.82	30558.03
478.00	31079.97
478.18	30567.40
478.36	31391.26
478.54	31531.70
478.72	31859.37
478.90	31899.16
479.08	31931.93
479.26	32519.40
479.44	32453.87
479.62	32957.08
479.80	32931.34
479.98	33172.41
480.16	33984.58
480.34	33490.73
480.52	34277.15
480.70	34181.18
480.88	33895.64
481.06	34621.20
481.24	34679.72
481.41	35204.00
481.59	35756.36
481.77	35871.05
481.95	36034.89
482.13	36804.92
482.31	36247.88
482.49	37270.69
482.67	36971.10
482.85	37521.13
483.03	37853.48
483.21	38169.46
483.39	38347.34
483.57	38117.96
483.74	38642.24
483.92	39321.00
484.10	39147.80
484.28	39651.02
484.46	40205.72
484.64	41038.95
484.82	40797.88
485.00	40830.65
485.18	41343.22
485.35	42031.34
485.53	41982.19
485.71	42511.15
485.89	42850.53
486.07	43388.85
486.25	42548.60
486.43	42993.30
486.61	43714.19
486.78	43789.08
486.96	44346.13
487.14	45013.18
487.32	44884.45
487.50	45003.82
487.68	45755.13
487.85	46239.62
488.03	46494.74
488.21	46677.30
488.39	47119.66
488.57	47648.63
488.75	47433.30
488.92	47739.91
489.10	48315.68
489.28	48193.97
489.46	48999.12
489.64	48835.28
489.81	49837.03
489.99	49467.22
490.17	49872.14
490.35	50712.39
490.53	50916.01
490.70	50822.39
490.88	50590.68
491.06	51150.07
491.24	51000.27
491.41	51482.42
491.59	51941.17
491.77	51927.13
491.95	52107.35
492.13	52126.07
492.30	52734.61
492.48	52942.92
492.66	53176.97
492.84	53181.65
493.01	53368.90
493.19	53506.99
493.37	53989.14
493.54	53968.07
493.72	54237.23
493.90	54199.79
494.08	54628.10
494.25	54761.51
494.43	54871.52
494.61	55238.98
494.79	55400.48
494.96	55344.31
495.14	55728.16
495.32	56044.13
495.49	56102.64
495.67	56097.96
495.85	56460.74
496.02	56442.02
496.20	56388.19
496.38	56467.76
496.55	56896.08
496.73	57469.51
496.91	57127.80
497.09	57291.63
497.26	57509.30
497.44	57464.83
497.62	57558.45
497.79	57954.00
497.97	57954.00
498.14	58164.65
498.32	58482.97
498.50	58382.32
498.67	58656.17
498.85	58557.86
499.03	58850.43
499.20	58845.75
499.38	59035.33
499.56	59077.46
499.73	59145.34
499.91	59316.20
500.08	59440.24
500.26	59496.42
500.44	59718.77
500.61	59854.52
500.79	59627.49
500.97	60016.02
501.14	60189.22
501.32	60048.78
501.49	60231.35
501.67	60299.22
501.84	60652.64
502.02	60610.51
502.20	60584.77
502.37	60821.16
502.55	60566.04
502.72	60800.10
502.90	60992.02
503.07	60900.74
503.25	61003.72
503.43	61003.72
503.60	61200.33
503.78	61268.20
503.95	61319.70
504.13	61387.57
504.30	61542.05
504.48	61520.98
504.65	61719.93
504.83	61904.83
505.01	62033.56
505.18	61813.55
505.36	62239.53
505.53	62031.22
505.71	62220.80
505.88	62494.64
506.06	62323.78
506.23	62534.43
506.41	62637.42
506.58	62555.50
506.76	62356.55
506.93	62850.41
507.11	62803.59
507.28	62939.35
507.46	63103.18
507.63	63149.99
507.81	63168.72
507.98	63110.20
508.16	63222.55
508.33	63590.01
508.50	63482.35
508.68	63608.74
508.85	63805.34
509.03	63545.54
509.20	63688.32
509.38	63716.40
509.55	63685.98
509.73	64079.19
509.90	64126.00
510.08	64144.72
510.25	64170.47
510.42	64170.47
510.60	64381.12
510.77	64535.59
510.95	64582.40
511.12	64465.38
511.30	64650.28
511.47	64851.56
511.64	64786.03
511.82	64858.59
511.99	64659.64
512.17	65080.94
512.34	64982.63
512.51	65212.01
512.69	65424.99
512.86	65254.14
513.04	65336.05
513.21	65434.36
513.38	65373.50
513.56	65441.38
513.73	65333.71
513.90	65535.00
514.08	65535.00
514.25	65535.00
514.43	65535.00
514.60	65535.00
514.77	65535.00
514.95	65535.00
515.12	65535.00
515.29	65535.00
515.47	65535.00
515.64	65535.00
515.81	65535.00
515.99	65535.00
516.16	65535.00
516.33	65535.00
516.51	65535.00
516.68	65535.00
516.85	65535.00
517.03	65535.00
517.20	65535.00
517.37	65535.00
517.54	65535.00
517.72	65535.00
517.89	65535.00
518.06	65535.00
518.24	65535.00
518.41	65535.00
518.58	65535.00
518.75	65535.00
518.93	65535.00
519.10	65535.00
519.27	65535.00
519.45	65535.00
519.62	65535.00
519.79	65535.00
519.96	65535.00
520.14	65535.00
520.31	65535.00
520.48	65535.00
520.65	65535.00
520.83	65535.00
521.00	65535.00
521.17	65535.00
521.34	65535.00
521.52	65535.00
521.69	65535.00
521.86	65535.00
522.03	65535.00
522.20	65535.00
522.38	65535.00
522.55	65535.00
522.72	65535.00
522.89	65535.00
523.07	65535.00
523.24	65535.00
523.41	65535.00
523.58	65535.00
523.75	65535.00
523.92	65535.00
524.10	65535.00
524.27	65535.00
524.44	65535.00
524.61	65535.00
524.78	65535.00
524.96	65535.00
525.13	65535.00
525.30	65535.00
525.47	65535.00
525.64	65535.00
525.81	65535.00
525.98	65535.00
526.16	65535.00
526.33	65535.00
526.50	65535.00
526.67	65535.00
526.84	65535.00
527.01	65535.00
527.18	65535.00
527.36	65535.00
527.53	65535.00
527.70	65535.00
527.87	65535.00
528.04	65535.00
528.21	65535.00
528.38	65535.00
528.55	65535.00
528.72	65535.00
528.89	65535.00
529.07	65535.00
529.24	65535.00
529.41	65535.00
529.58	65535.00
529.75	65535.00
529.92	65535.00
530.09	65535.00
530.26	65535.00
530.43	65535.00
530.60	65535.00
530.77	65535.00
530.94	65535.00
531.11	65535.00
531.28	65535.00
531.46	65535.00
531.63	65535.00
531.80	65535.00
531.97	65535.00
532.14	65535.00
532.31	65535.00
532.48	65535.00
532.65	65535.00
532.82	65535.00
532.99	65535.00
533.16	65535.00
533.33	65535.00
533.50	65535.00
533.67	65535.00
533.84	65535.00
534.01	65535.00
534.18	65535.00
534.35	65535.00
534.52	65535.00
534.69	65535.00
534.86	65535.00
535.03	65535.00
535.20	65535.00
535.37	65535.00
535.54	65535.00
535.71	65535.00
535.88	65535.00
536.05	65535.00
536.22	65535.00
536.38	65535.00
536.55	65535.00
536.72	65535.00
536.89	65535.00
537.06	65535.00
537.23	65535.00
537.40	65535.00
537.57	65535.00
537.74	65535.00
537.91	65535.00
538.08	65535.00
538.25	65535.00
538.42	65535.00
538.59	65535.00
538.75	65535.00
538.92	65535.00
539.09	65535.00
539.26	65535.00
539.43	65535.00
539.60	65535.00
539.77	65535.00
539.94	65535.00
540.11	65535.00
540.28	65535.00
540.44	65535.00
540.61	65535.00
540.78	65535.00
540.95	65535.00
541.12	65535.00
541.29	65535.00
541.46	65535.00
541.62	65535.00
541.79	65535.00
541.96	65535.00
542.13	65535.00
542.30	65535.00
542.47	65535.00
542.63	65535.00
542.80	65535.00
542.97	65535.00
543.14	65535.00
543.31	65535.00
543.48	65535.00
543.64	65535.00
543.81	65535.00
543.98	65535.00
544.15	65535.00
544.32	65535.00
544.48	65535.00
544.65	65535.00
544.82	65535.00
544.99	65535.00
545.16	65535.00
545.32	65535.00
545.49	65535.00
545.66	65535.00
545.83	65535.00
546.00	65535.00
546.16	65535.00
546.33	65535.00
546.50	65535.00
546.67	65535.00
546.83	65535.00
547.00	65535.00
547.17	65535.00
547.34	65535.00
547.50	65535.00
547.67	65535.00
547.84	65535.00
548.00	65535.00
548.17	65535.00
548.34	65535.00
548.51	65535.00
548.67	65535.00
548.84	65535.00
549.01	65535.00
549.18	65535.00
549.34	65535.00
549.51	65535.00
549.68	65535.00
549.84	65535.00
550.01	65535.00
550.18	65535.00
550.34	65535.00
550.51	65535.00
550.68	65535.00
550.84	65535.00
551.01	65535.00
551.18	65535.00
551.34	65535.00
551.51	65535.00
551.68	65535.00
551.84	65535.00
552.01	65535.00
552.18	65535.00
552.34	65535.00
552.51	65535.00
552.68	65535.00
552.84	65535.00
553.01	65535.00
553.18	65535.00
553.34	65535.00
553.51	65535.00
553.67	65535.00
553.84	65535.00
554.01	65535.00
554.17	65535.00
554.34	65535.00
554.51	65535.00
554.67	65535.00
554.84	65535.00
555.00	65535.00
555.17	65535.00
555.33	65535.00
555.50	65535.00
555.67	65535.00
555.83	65535.00
556.00	65535.00
556.16	65535.00
556.33	65535.00
556.50	65535.00
556.66	65535.00
556.83	65535.00
556.99	65535.00
557.16	65535.00
557.32	65535.00
557.49	65535.00
557.65	65535.00
557.82	65535.00
557.98	65535.00
558.15	65535.00
558.32	65535.00
558.48	65535.00
558.65	65535.00
558.81	65535.00
558.98	65535.00
559.14	65535.00
559.31	65535.00
559.47	65535.00
559.64	65535.00
559.80	65535.00
559.97	65535.00
560.13	65535.00
560.30	65535.00
560.46	65535.00
560.63	65535.00
560.79	65535.00
560.96	65535.00
561.12	65535.00
561.29	65535.00
561.45	65535.00
561.61	65535.00
561.78	65535.00
561.94	65535.00
562.11	65535.00
562.27	65535.00
562.44	65535.00
562.60	65535.00
562.77	65535.00
562.93	65535.00
563.10	65535.00
563.26	65535.00
563.42	65535.00
563.59	65535.00
563.75	65535.00
563.92	65535.00
564.08	65535.00
564.24	65535.00
564.41	65535.00
564.57	65535.00
564.74	65535.00
564.90	65535.00
565.07	65535.00
565.23	65535.00
565.39	65535.00
565.56	65535.00
565.72	65535.00
565.88	65535.00
566.05	65535.00
566.21	65535.00
566.38	65535.00
566.54	65535.00
566.70	65535.00
566.87	65535.00
567.03	65535.00
567.19	65535.00
567.36	65535.00
567.52	65535.00
567.68	65535.00
567.85	65535.00
568.01	65535.00
568.17	65535.00
568.34	65535.00
568.50	65535.00
568.66	65535.00
568.83	65535.00
568.99	65535.00
569.15	65535.00
569.32	65535.00
569.48	65535.00
569.64	65535.00
569.81	65535.00
569.97	65535.00
570.13	65535.00
570.30	65535.00
570.46	65535.00
570.62	65535.00
570.78	65535.00
570.95	65535.00
571.11	65535.00
571.27	65535.00
571.43	65535.00
571.60	65535.00
571.76	65535.00
571.92	65535.00
572.09	65535.00
572.25	65535.00
572.41	65535.00
572.57	65535.00
572.74	65535.00
572.90	65535.00
573.06	65535.00
573.22	65535.00
573.38	65535.00
573.55	65535.00
573.71	65535.00
573.87	65535.00
574.03	65535.00
574.20	65535.00
574.36	65535.00
574.52	65535.00
574.68	65535.00
574.84	65535.00
575.01	65535.00
575.17	65535.00
575.33	65535.00
575.49	65535.00
575.65	65535.00
575.82	65535.00
575.98	65535.00
576.14	65535.00
576.30	65535.00
576.46	65535.00
576.62	65535.00
576.79	65535.00
576.95	65535.00
577.11	65535.00
577.27	65535.00
577.43	65535.00
577.59	65535.00
577.75	65535.00
577.92	65535.00
578.08	65535.00
578.24	65535.00
578.40	65535.00
578.56	65535.00
578.72	65535.00
578.88	65535.00
579.04	65535.00
579.21	65535.00
579.37	65535.00
579.53	65535.00
579.69	65535.00
579.85	65535.00
580.01	65535.00
580.17	65535.00
580.33	65535.00
580.49	65535.00
580.65	65535.00
580.82	65535.00
580.98	65535.00
581.14	65535.00
581.30	65535.00
581.46	65535.00
581.62	65535.00
581.78	65535.00
581.94	65535.00
582.10	65535.00
582.26	65535.00
582.42	65535.00
582.58	65535.00
582.74	65535.00
582.90	65535.00
583.06	65535.00
583.22	65535.00
583.38	65535.00
583.54	65535.00
583.70	65535.00
583.86	65535.00
584.02	65535.00
584.18	65535.00
584.34	65535.00
584.50	65535.00
584.66	65535.00
584.82	65535.00
584.98	65535.00
585.14	65535.00
585.30	65535.00
585.46	65535.00
585.62	65535.00
585.78	65535.00
585.94	65535.00
586.10	65535.00
586.26	65535.00
586.42	65535.00
586.58	65535.00
586.74	65535.00
586.90	65535.00
587.06	65535.00
587.22	65535.00
587.38	65535.00
587.54	65535.00
587.70	65535.00
587.86	65535.00
588.02	65535.00
588.18	65535.00
588.34	65535.00
588.49	65535.00
588.65	65535.00
588.81	65535.00
588.97	65535.00
589.13	65535.00
589.29	65535.00
589.45	65535.00
589.61	65535.00
589.77	65535.00
589.93	65535.00
590.08	65535.00
590.24	65535.00
590.40	65535.00
590.56	65535.00
590.72	65535.00
590.88	65535.00
591.04	65535.00
591.20	65535.00
591.35	65535.00
591.51	65535.00
591.67	65535.00
591.83	65535.00
591.99	65535.00
592.15	65535.00
592.31	65535.00
592.46	65535.00
592.62	65535.00
592.78	65535.00
592.94	65535.00
593.10	65535.00
593.26	65535.00
593.41	65535.00
593.57	65535.00
593.73	65535.00
593.89	65535.00
594.05	65535.00
594.20	65535.00
594.36	65535.00
594.52	65535.00
594.68	65535.00
594.84	65535.00
594.99	65535.00
595.15	65535.00
595.31	65535.00
595.47	65535.00
595.62	65535.00
595.78	65535.00
595.94	65535.00
596.10	65535.00
596.25	65535.00
596.41	65535.00
596.57	65535.00
596.73	65535.00
596.88	65535.00
597.04	65535.00
597.20	65535.00
597.36	65535.00
597.51	65535.00
597.67	65535.00
597.83	65535.00
597.99	65535.00
598.14	65535.00
598.30	65535.00
598.46	65535.00
598.61	65535.00
598.77	65535.00
598.93	65535.00
599.09	65535.00
599.24	65535.00
599.40	65535.00
599.56	65535.00
599.71	65535.00
599.87	65535.00
600.03	65535.00
600.18	65535.00
600.34	65535.00
600.50	65535.00
600.65	65535.00
600.81	65535.00
600.97	65535.00
601.12	65535.00
601.28	65535.00
601.44	65535.00
601.59	65535.00
601.75	65535.00
601.91	65535.00
602.06	65535.00
602.22	65535.00
602.37	65535.00
602.53	65535.00
602.69	65535.00
602.84	65535.00
603.00	65535.00
603.16	65535.00
603.31	65535.00
603.47	65535.00
603.62	65535.00
603.78	65535.00
603.94	65535.00
604.09	65535.00
604.25	65535.00
604.40	65535.00
604.56	65535.00
604.71	65535.00
604.87	65535.00
605.03	65535.00
605.18	65535.00
605.34	65535.00
605.49	65535.00
605.65	65535.00
605.80	65535.00
605.96	65535.00
606.12	65535.00
606.27	65535.00
606.43	65535.00
606.58	65535.00
606.74	65535.00
606.89	65535.00
607.05	65535.00
607.20	65535.00
607.36	65535.00
607.51	65535.00
607.67	65535.00
607.82	65535.00
607.98	65535.00
608.13	65535.00
608.29	65535.00
608.44	65535.00
608.60	65535.00
608.75	65535.00
608.91	65535.00
609.06	65535.00
609.22	65535.00
609.37	65535.00
609.53	65535.00
609.68	65535.00
609.84	65535.00
609.99	65535.00
610.15	65535.00
610.30	65535.00
610.46	65535.00
610.61	65535.00
610.76	65535.00
610.92	65535.00
611.07	65535.00
611.23	65535.00
611.38	65535.00
611.54	65535.00
611.69	65535.00
611.84	65535.00
612.00	65535.00
612.15	65535.00
612.31	65535.00
612.46	65535.00
612.62	65535.00
612.77	65535.00
612.92	65535.00
613.08	65535.00
613.23	65535.00
613.39	65535.00
613.54	65535.00
613.69	65535.00
613.85	65535.00
614.00	65535.00
614.15	65535.00
614.31	65535.00
614.46	65535.00
614.62	65535.00
614.77	65535.00
614.92	65535.00
615.08	65535.00
615.23	65535.00
615.38	65535.00
615.54	65535.00
615.69	65535.00
615.84	65535.00
616.00	65535.00
616.15	65535.00
616.30	65535.00
616.46	65535.00
616.61	65535.00
616.76	65535.00
616.92	65535.00
617.07	65535.00
617.22	65535.00
617.37	65535.00
617.53	65535.00
617.68	65535.00
617.83	65535.00
617.99	65535.00
618.14	65535.00
618.29	65535.00
618.45	65535.00
618.60	65535.00
618.75	65535.00
618.90	65535.00
619.06	65535.00
619.21	65535.00
619.36	65535.00
619.51	65535.00
619.67	65535.00
619.82	65535.00
619.97	65535.00
620.12	65535.00
620.28	65535.00
620.43	65535.00
620.58	65535.00
620.73	65535.00
620.89	65535.00
621.04	65535.00
621.19	65535.00
621.34	65535.00
621.49	65535.00
621.65	65535.00
621.80	65535.00
621.95	65535.00
622.10	65535.00
622.25	65535.00
622.41	65535.00
622.56	65535.00
622.71	65535.00
622.86	65535.00
623.01	65535.00
623.16	65535.00
623.32	65535.00
623.47	65535.00
623.62	65535.00
623.77	65535.00
623.92	65535.00
624.07	65535.00
624.23	65535.00
624.38	65535.00
624.53	65535.00
624.68	65535.00
624.83	65535.00
624.98	65535.00
625.13	65535.00
625.29	65535.00
625.44	65535.00
625.59	65535.00
625.74	65535.00
625.89	65535.00
626.04	65535.00
626.19	65535.00
626.34	65535.00
626.49	65535.00
626.65	65535.00
626.80	65535.00
626.95	65535.00
627.10	65535.00
627.25	65535.00
627.40	65535.00
627.55	65535.00
627.70	65535.00
627.85	65535.00
628.00	65535.00
628.15	65535.00
628.30	65535.00
628.45	65535.00
628.60	65535.00
628.76	65535.00
628.91	65535.00
629.06	65535.00
629.21	65535.00
629.36	65535.00
629.51	65535.00
629.66	65535.00
629.81	65535.00
629.96	65535.00
630.11	65535.00
630.26	65535.00
630.41	65535.00
630.56	65535.00
630.71	65535.00
630.86	65535.00
631.01	65535.00
631.16	65535.00
631.31	65535.00
631.46	65535.00
631.61	65535.00
631.76	65535.00
631.91	65535.00
632.06	65535.00
632.21	65535.00
632.36	65535.00
632.51	65535.00
632.66	65535.00
632.81	65535.00
632.96	65535.00
633.10	65535.00
633.25	65535.00
633.40	65535.00
633.55	65535.00
633.70	65535.00
633.85	65535.00
634.00	65535.00
634.15	65535.00
634.30	65535.00
634.45	65535.00
634.60	65535.00
634.75	65535.00
634.90	65535.00
635.05	65535.00
635.19	65535.00
635.34	65535.00
635.49	65535.00
635.64	65535.00
635.79	65535.00
635.94	65535.00
636.09	65535.00
636.24	65535.00
636.39	65535.00
636.53	65535.00
636.68	65535.00
636.83	65535.00
636.98	65535.00
637.13	65535.00
637.28	65535.00
637.43	65535.00
637.57	65535.00
637.72	65535.00
637.87	65535.00
638.02	65535.00
638.17	65535.00
638.32	65535.00
638.46	65535.00
638.61	65535.00
638.76	65535.00
638.91	65535.00
639.06	65535.00
639.20	65535.00
639.35	65535.00
639.50	65535.00
639.65	65535.00
639.80	65535.00
639.94	65535.00
640.09	65535.00
640.24	65535.00
640.39	65535.00
640.54	65535.00
640.68	65535.00
640.83	65535.00
640.98	65535.00
641.13	65535.00
641.27	65535.00
641.42	65535.00
641.57	65535.00
641.72	65535.00
641.86	65535.00
642.01	65535.00
642.16	65535.00
642.31	65535.00
642.45	65535.00
642.60	65535.00
642.75	65535.00
642.90	65535.00
643.04	65535.00
643.19	65535.00
643.34	65535.00
643.48	65535.00
643.63	65535.00
643.78	65535.00
643.93	65535.00
644.07	65535.00
644.22	65535.00
644.37	65535.00
644.51	65535.00
644.66	65535.00
644.81	65535.00
644.95	65535.00
645.10	65535.00
645.25	65535.00
645.39	65535.00
645.54	65535.00
645.69	65535.00
645.83	65535.00
645.98	65535.00
646.13	65535.00
646.27	65535.00
646.42	65535.00
646.57	65535.00
646.71	65535.00
646.86	65535.00
647.00	65535.00
647.15	65535.00
647.30	65535.00
647.44	65535.00
647.59	65535.00
647.74	65535.00
647.88	65535.00
648.03	65535.00
648.17	65535.00
648.32	65535.00
648.47	65535.00
648.61	65535.00
648.76	65535.00
648.90	65535.00
649.05	65535.00
649.20	65535.00
649.34	65535.00
649.49	65535.00
649.63	65535.00
649.78	65535.00
649.92	65535.00
650.07	65535.00
650.21	65535.00
650.36	65535.00
650.51	65535.00
650.65	65535.00
650.80	65535.00
650.94	65535.00
651.09	65535.00
651.23	65535.00
651.38	65535.00
651.52	65535.00
651.67	65535.00
651.81	65535.00
651.96	65535.00
652.10	65535.00
652.25	65535.00
652.39	65535.00
652.54	65535.00
652.68	65535.00
652.83	65535.00
652.97	65535.00
653.12	65535.00
653.26	65535.00
653.41	65535.00
653.55	65535.00
653.70	65535.00
653.84	65535.00
653.99	65535.00
654.13	65535.00
654.27	65535.00
654.42	65535.00
654.56	65535.00
654.71	65535.00
654.85	65535.00
655.00	65535.00
655.14	65535.00
655.29	65535.00
655.43	65535.00
655.57	65535.00
655.72	65535.00
655.86	65535.00
656.01	65535.00
656.15	65535.00
656.30	65535.00
656.44	65535.00
656.58	65535.00
656.73	65535.00
656.87	65535.00
657.01	65535.00
657.16	65535.00
657.30	65535.00
657.45	65535.00
657.59	65535.00
657.73	65535.00
657.88	65535.00
658.02	65535.00
658.16	65535.00
658.31	65535.00
658.45	65535.00
658.60	65535.00
658.74	65535.00
658.88	65535.00
659.03	65535.00
659.17	65535.00
659.31	65535.00
659.46	65535.00
659.60	65535.00
659.74	65535.00
659.89	65535.00
660.03	65535.00
660.17	65535.00
660.32	65535.00
660.46	65535.00
660.60	65535.00
660.74	65535.00
660.89	65535.00
661.03	65535.00
661.17	65535.00
661.32	65535.00
661.46	65535.00
661.60	65535.00
661.74	65535.00
661.89	65535.00
662.03	65535.00
662.17	65535.00
662.31	65535.00
662.46	65535.00
662.60	65535.00
662.74	65535.00
662.88	65535.00
663.03	65535.00
663.17	65535.00
663.31	65535.00
663.45	65535.00
663.60	65535.00
663.74	65535.00
663.88	65535.00
664.02	65535.00
664.17	65535.00
664.31	65535.00
664.45	65535.00
664.59	65535.00
664.73	65535.00
664.88	65535.00
665.02	65535.00
665.16	65535.00
665.30	65535.00
665.44	65535.00
665.59	65535.00
665.73	65535.00
665.87	65535.00
666.01	65535.00
666.15	65535.00
666.29	65535.00
666.44	65535.00
666.58	65535.00
666.72	65535.00
666.86	65535.00
667.00	65535.00
667.14	65535.00
667.28	65535.00
667.43	65535.00
667.57	65535.00
667.71	65535.00
667.85	65535.00
667.99	65535.00
668.13	65535.00
668.27	65535.00
668.41	65535.00
668.56	65535.00
668.70	65535.00
668.84	65535.00
668.98	65535.00
669.12	65535.00
669.26	65535.00
669.40	65535.00
669.54	65535.00
669.68	65535.00
669.82	65535.00
669.96	65535.00
670.10	65535.00
670.25	65535.00
670.39	65535.00
670.53	65535.00
670.67	65535.00
670.81	65535.00
670.95	65535.00
671.09	65535.00
671.23	65535.00
671.37	65535.00
671.51	65535.00
671.65	65535.00
671.79	65535.00
671.93	65535.00
672.07	65535.00
672.21	65535.00
672.35	65535.00
672.49	65535.00
672.63	65535.00
672.77	65535.00
672.91	65535.00
673.05	65535.00
673.19	65535.00
673.33	65535.00
673.47	65535.00
673.61	65535.00
673.75	65535.00
673.89	65535.00
674.03	65535.00
674.17	65535.00
674.31	65535.00
674.45	65535.00
674.59	65535.00
674.73	65535.00
674.87	65535.00
675.01	65535.00
675.15	65535.00
675.29	65535.00
675.43	65535.00
675.56	65535.00
675.70	65535.00
675.84	65535.00
675.98	65535.00
676.12	65535.00
676.26	65535.00
676.40	65535.00
676.54	65535.00
676.68	65535.00
676.82	65535.00
676.96	65535.00
677.10	65535.00
677.23	65535.00
677.37	65535.00
677.51	65535.00
677.65	65535.00
677.79	65535.00
677.93	65535.00
678.07	65535.00
678.21	65535.00
678.34	65535.00
678.48	65535.00
678.62	65535.00
678.76	65535.00
678.90	65535.00
679.04	65535.00
679.18	65535.00
679.31	65535.00
679.45	65535.00
679.59	65535.00
679.73	65535.00
679.87	65535.00
680.00	65535.00
680.14	65535.00
680.28	65535.00
680.42	65535.00
680.56	65535.00
680.70	65535.00
680.83	65535.00
680.97	65535.00
681.11	65535.00
681.25	65535.00
681.39	65535.00
681.52	65535.00
681.66	65535.00
681.80	65535.00
681.94	65535.00
682.07	65535.00
682.21	65535.00
682.35	65535.00
682.49	65535.00
682.62	65535.00
682.76	65535.00
682.90	65535.00
683.04	65535.00
683.17	65535.00
683.31	65535.00
683.45	65535.00
683.59	65535.00
683.72	65535.00
683.86	65535.00
684.00	65535.00
684.13	65535.00
684.27	65535.00
684.41	65535.00
684.55	65535.00
684.68	65535.00
684.82	65535.00
684.96	65535.00
685.09	65535.00
685.23	65535.00
685.37	65535.00
685.50	65535.00
685.64	65535.00
685.78	65535.00
685.91	65535.00
686.05	65535.00
686.19	65535.00
686.32	65535.00
686.46	65535.00
686.60	65535.00
686.73	65535.00
686.87	65535.00
687.01	65535.00
687.14	65535.00
687.28	65535.00
687.42	65535.00
687.55	65535.00
687.69	65535.00
687.82	65535.00
687.96	65535.00
688.10	65535.00
688.23	65535.00
688.37	65535.00
688.50	65535.00
688.64	65535.00
688.78	65535.00
688.91	65535.00
689.05	65535.00
689.18	65535.00
689.32	65408.61
689.46	65535.00
689.59	65448.40
689.73	65535.00
689.86	65518.62
690.00	65204.98
690.13	65265.84
690.27	64999.02
690.41	64982.63
690.54	64654.96
690.68	64580.06
690.81	64704.11
690.95	64540.27
691.08	64769.64
691.22	64516.87
691.35	64519.21
691.49	64514.53
691.62	64601.13
691.76	64456.01
691.89	64191.53
692.03	64027.70
692.16	64001.95
692.30	63805.34
692.43	63774.92
692.57	63678.96
692.70	63772.58
692.84	63454.26
692.97	63238.93
693.11	63185.10
693.24	63072.76
693.38	63128.93
693.51	62913.60
693.65	62827.00
693.78	62990.84
693.92	62990.84
694.05	63103.18
694.19	63119.57
694.32	62904.24
694.45	62728.70
694.59	62443.15
694.72	62302.72
694.86	62267.61
694.99	61841.63
695.13	61780.78
695.26	61841.63
695.39	61701.20
695.53	61694.18
695.66	61677.80
695.80	61506.94
695.93	61481.19
696.07	61307.99
696.20	61394.59
696.33	61226.07
696.47	61230.75
696.60	61553.75
696.73	61249.48
696.87	61195.65
697.00	61116.07
697.14	60832.86
697.27	60521.57
697.40	60264.11
697.54	60273.48
697.67	60072.19
697.80	59884.95
697.94	59898.99
698.07	59686.00
698.21	59461.31
698.34	59674.30
698.47	59526.84
698.61	59318.54
698.74	59107.89
698.87	59173.42
699.01	58958.09
699.14	59103.21
699.27	58892.56
699.40	59166.40
699.54	58908.94
699.67	58714.68
699.80	58710.00
699.94	58485.31
700.07	58459.56
700.20	57862.72
700.34	57710.59
700.47	57949.32
700.60	57935.28
700.73	57827.62
700.87	57539.73
701.00	57483.56
701.13	57827.62
701.26	57357.17
701.40	57396.96
701.53	57226.10
701.66	57415.68
701.79	56849.27
701.93	57027.15
702.06	56680.75
702.19	56624.58
702.32	56537.98
702.46	56587.13
702.59	56299.25
702.72	55873.27
702.85	55772.63
702.99	55880.29
703.12	55770.28
703.25	55393.46
703.38	55313.88
703.51	54878.54
703.65	55311.54
703.78	54866.84
703.91	54714.70
704.04	54904.29
704.17	54684.28
704.31	54384.69
704.44	54436.18
704.57	54471.29
704.70	54438.52
704.83	53975.09
704.96	54073.40
705.10	53743.38
705.23	53647.42
>>>>>End Processed Spectral Data<<<<<
