SpectraSuite Data File
++++++++++++++++++++++++++++++++++++
Date: Thu Oct 24 13:21:17 EDT 2013
User: stostad
Dark Spectrum Present: No
Reference Spectrum Present: No
Number of Sampled Component Spectra: 1
Spectrometers: USB2+H05261
Integration Time (usec): 100000 (USB2+H05261)
Spectra Averaged: 1 (USB2+H05261)
Boxcar Smoothing: 0 (USB2+H05261)
Correct for Electrical Dark: No (USB2+H05261)
Strobe/Lamp Enabled: No (USB2+H05261)
Correct for Detector Non-linearity: No (USB2+H05261)
Correct for Stray Light: No (USB2+H05261)
Number of Pixels in Processed Spectrum: 2048
>>>>>Begin Processed Spectral Data<<<<<
365.73	528.96
365.92	528.96
366.12	528.96
366.32	503.22
366.52	458.74
366.72	475.13
366.91	500.87
367.11	477.47
367.31	374.49
367.51	423.64
367.70	493.85
367.90	486.83
368.10	482.15
368.30	444.70
368.49	524.28
368.69	486.83
368.89	545.34
369.09	496.19
369.28	458.74
369.48	489.17
369.68	540.66
369.87	580.45
370.07	540.66
370.27	496.19
370.47	638.97
370.66	767.70
370.86	786.42
371.06	821.53
371.25	858.98
371.45	826.21
371.65	828.55
371.84	828.55
372.04	873.02
372.24	851.96
372.44	863.66
372.63	915.15
372.83	919.83
373.03	840.25
373.22	894.08
373.42	987.71
373.62	903.45
373.81	933.87
374.01	894.08
374.21	868.34
374.40	964.30
374.60	957.28
374.79	910.47
374.99	926.85
375.19	1020.47
375.38	926.85
375.58	933.87
375.78	922.17
375.97	936.21
376.17	947.92
376.37	905.79
376.56	945.58
376.76	901.11
376.95	961.96
377.15	940.90
377.35	976.00
377.54	950.26
377.74	877.70
377.93	931.53
378.13	917.49
378.33	992.39
378.52	966.64
378.72	1029.84
378.91	994.73
379.11	929.19
379.31	980.68
379.50	940.90
379.70	1004.09
379.89	980.68
380.09	945.58
380.28	1018.13
380.48	938.55
380.68	994.73
380.87	999.41
381.07	1034.52
381.26	1046.22
381.46	987.71
381.65	997.07
381.85	931.53
382.04	1015.79
382.24	1074.31
382.43	1046.22
382.63	1100.05
382.83	1128.14
383.02	1074.31
383.22	1081.33
383.41	1083.67
383.61	978.34
383.80	1093.03
384.00	1111.75
384.19	1055.58
384.39	1116.44
384.58	1097.71
384.78	1102.39
384.97	1078.99
385.17	1114.10
385.36	1081.33
385.56	1104.73
385.75	1046.22
385.95	1041.54
386.14	1153.88
386.34	1125.80
386.53	1137.50
386.72	1104.73
386.92	1093.03
387.11	1132.82
387.31	1111.75
387.50	1130.48
387.70	1153.88
387.89	1090.69
388.09	1057.92
388.28	1139.84
388.48	1224.10
388.67	1181.97
388.86	1188.99
389.06	1160.91
389.25	1203.04
389.45	1245.16
389.64	1207.72
389.84	1238.14
390.03	1254.53
390.22	1217.08
390.42	1132.82
390.61	1228.78
390.81	1170.27
391.00	1235.80
391.19	1364.53
391.39	1238.14
391.58	1280.27
391.78	1233.46
391.97	1228.78
392.16	1240.48
392.36	1336.45
392.55	1338.79
392.75	1247.51
392.94	1221.76
393.13	1308.36
393.33	1348.15
393.52	1357.51
393.71	1357.51
393.91	1317.72
394.10	1317.72
394.29	1359.85
394.49	1362.19
394.68	1378.58
394.88	1310.70
395.07	1378.58
395.26	1446.45
395.46	1294.32
395.65	1376.24
395.84	1399.64
396.04	1423.05
396.23	1547.09
396.42	1472.20
396.62	1411.34
396.81	1486.24
397.00	1327.08
397.19	1390.28
397.39	1493.26
397.58	1497.94
397.77	1502.62
397.97	1490.92
398.16	1453.47
398.35	1486.24
398.55	1500.28
398.74	1596.25
398.93	1598.59
399.12	1563.48
399.32	1481.56
399.51	1577.52
399.70	1575.18
399.90	1652.42
400.09	1664.12
400.28	1586.88
400.47	1554.12
400.67	1673.48
400.86	1596.25
401.05	1682.85
401.24	1645.40
401.44	1629.01
401.63	1582.20
401.82	1661.78
402.01	1584.54
402.21	1701.57
402.40	1643.06
402.59	1682.85
402.78	1699.23
402.97	1682.85
403.17	1682.85
403.36	1614.97
403.55	1706.25
403.74	1750.72
403.93	1755.40
404.13	1771.79
404.32	1867.75
404.51	1849.02
404.70	1802.21
404.89	1743.70
405.09	1877.11
405.28	1792.85
405.47	1820.94
405.66	1856.04
405.85	1856.04
406.05	1909.88
406.24	1928.60
406.43	1956.69
406.62	1959.03
406.81	1984.77
407.00	2001.16
407.20	1881.79
407.39	1935.62
407.58	2008.18
407.77	2022.22
407.96	1998.82
408.15	2038.61
408.34	2008.18
408.54	2033.93
408.73	2012.86
408.92	2050.31
409.11	2059.67
409.30	2202.44
409.49	2083.08
409.68	2118.18
409.87	2195.42
410.07	2139.25
410.26	2148.61
410.45	2132.23
410.64	2300.75
410.83	2125.21
411.02	2265.64
411.21	2221.17
411.40	2293.72
411.59	2347.56
411.78	2312.45
411.98	2373.30
412.17	2310.11
412.36	2363.94
412.55	2352.24
412.74	2525.44
412.93	2478.63
413.12	2408.41
413.31	2434.16
413.50	2459.90
413.69	2455.22
413.88	2527.78
414.07	2574.59
414.26	2588.63
414.45	2572.25
414.64	2583.95
414.83	2581.61
415.02	2612.04
415.22	2789.92
415.41	2672.89
415.60	2698.64
415.79	2818.00
415.98	2670.55
416.17	2682.25
416.36	2703.32
416.55	2808.64
416.74	2719.70
416.93	2855.45
417.12	2860.13
417.31	2787.58
417.50	2785.24
417.69	2928.01
417.88	2846.09
418.07	2855.45
418.26	2937.37
418.45	2953.76
418.64	3026.31
418.83	3068.44
419.02	2932.69
419.21	3089.51
419.39	3040.36
419.58	3042.70
419.77	2932.69
419.96	3136.32
420.15	3082.49
420.34	3091.85
420.53	3061.42
420.72	3239.30
420.91	3260.37
421.10	3267.39
421.29	3148.02
421.48	3225.26
421.67	3187.81
421.86	3243.98
422.05	3180.79
422.24	3159.72
422.43	3234.62
422.61	3281.43
422.80	3332.92
422.99	3290.79
423.18	3351.65
423.37	3349.31
423.56	3267.39
423.75	3293.13
423.94	3372.71
424.13	2993.55
424.32	3302.50
424.50	3260.37
424.69	3342.28
424.88	3421.86
425.07	3258.03
425.26	3375.05
425.45	3274.41
425.64	3276.75
425.83	3246.32
426.01	3517.83
426.20	3372.71
426.39	3398.46
426.58	3351.65
426.77	3342.28
426.96	3492.08
427.15	3346.97
427.33	3515.48
427.52	3363.35
427.71	3487.40
427.90	3508.46
428.09	3449.95
428.28	3454.63
428.46	3581.02
428.65	3431.23
428.84	3508.46
429.03	3606.77
429.22	3620.81
429.40	3588.04
429.59	3569.32
429.78	3524.85
429.97	3543.57
430.16	3613.79
430.34	3557.61
430.53	3700.39
430.72	3747.20
430.91	3627.83
431.10	3538.89
431.28	3758.90
431.47	3826.78
431.66	3899.33
431.85	3679.32
432.03	3784.65
432.22	3943.80
432.41	3798.69
432.60	3864.22
432.79	3885.29
432.97	3915.72
433.16	3885.29
433.35	3978.91
433.54	3929.76
433.72	4051.47
433.91	3990.61
434.10	3988.27
434.28	3927.42
434.47	4032.74
434.66	4109.98
434.85	4044.45
435.03	4276.16
435.22	4456.38
435.41	4531.28
435.59	4320.63
435.78	4461.06
435.97	4215.30
436.16	4250.41
436.34	4227.01
436.53	4177.86
436.72	4250.41
436.90	4065.51
437.09	4351.06
437.28	4152.11
437.46	4248.07
437.65	4283.18
437.84	4329.99
438.02	4154.45
438.21	4292.54
438.40	4318.29
438.58	4496.17
438.77	4533.62
438.96	4505.53
439.14	4493.83
439.33	4594.47
439.52	4615.54
439.70	4746.61
439.89	4718.52
440.08	4449.36
440.26	4608.51
440.45	4760.65
440.63	4896.40
440.82	4861.29
441.01	4634.26
441.19	4814.48
441.38	5004.07
441.57	4870.65
441.75	4844.91
441.94	5013.43
442.12	4975.98
442.31	5020.45
442.50	5011.09
442.68	5032.15
442.87	4980.66
443.05	5109.39
443.24	5125.77
443.43	5233.44
443.61	5214.71
443.80	5298.97
443.98	5039.17
444.17	4812.14
444.35	5135.14
444.54	5263.86
444.73	5240.46
444.91	5181.95
445.10	5139.82
445.28	5270.89
445.47	5074.28
445.65	5205.35
445.84	5165.56
446.02	5315.36
446.21	5355.15
446.39	5305.99
446.58	5315.36
446.77	5195.99
446.95	5369.19
447.14	5296.63
447.32	5411.32
447.51	5238.12
447.69	5210.03
447.88	5270.89
448.06	5212.37
448.25	5233.44
448.43	5380.89
448.62	5416.00
448.80	5369.19
448.99	5399.62
449.17	5497.92
449.36	5343.44
449.54	5469.83
449.73	5626.65
449.91	5565.79
450.10	5607.92
450.28	5694.52
450.46	5650.05
450.65	5638.35
450.83	5593.88
451.02	5713.25
451.20	5722.61
451.39	5640.69
451.57	5753.04
451.76	5724.95
451.94	5643.03
452.13	5895.81
452.31	5818.57
452.49	5797.51
452.68	5750.70
452.86	5813.89
453.05	5827.93
453.23	5886.45
453.42	5853.68
453.60	5870.06
453.78	5916.87
453.97	5867.72
454.15	5799.85
454.34	5755.38
454.52	6029.22
454.70	6038.58
454.89	5973.05
455.07	6024.54
455.26	6071.35
455.44	6113.48
455.62	6195.40
455.81	6071.35
455.99	6164.97
456.17	6237.53
456.36	6125.18
456.54	6134.54
456.73	6263.27
456.91	6307.74
457.09	6480.94
457.28	6317.11
457.46	6291.36
457.64	6312.42
457.83	6492.65
458.01	6445.84
458.19	6572.22
458.38	6380.30
458.56	6604.99
458.74	6370.94
458.93	6487.96
459.11	6635.42
459.29	6689.25
459.48	6572.22
459.66	6663.51
459.84	6644.78
460.03	6803.94
460.21	6794.58
460.39	6754.79
460.57	6803.94
460.76	6743.08
460.94	6707.98
461.12	6841.39
461.31	6825.00
461.49	6881.18
461.67	6857.77
461.85	7023.95
462.04	6698.61
462.22	7236.94
462.40	7040.33
462.59	7023.95
462.77	6853.09
462.95	6965.43
463.13	7066.08
463.32	7063.74
463.50	7342.26
463.68	7035.65
463.86	7131.61
464.05	7145.66
464.23	6993.52
464.41	7068.42
464.59	7101.19
464.78	7262.68
464.96	7087.14
465.14	7187.79
465.32	7283.75
465.50	7293.11
465.69	7325.88
465.87	7396.09
466.05	7148.00
466.23	7344.60
466.41	7389.07
466.60	7473.33
466.78	7360.98
466.96	7290.77
467.14	7344.60
467.32	7578.65
467.51	7611.42
467.69	7356.30
467.87	7573.97
468.05	7449.93
468.23	7445.24
468.41	7384.39
468.60	7541.21
468.78	7782.28
468.96	7576.31
469.14	7674.62
469.32	7953.14
469.50	7646.53
469.69	7730.79
469.87	7875.90
470.05	7911.01
470.23	8098.25
470.41	7974.21
470.59	7861.86
470.77	8018.68
470.95	8039.74
471.14	8025.70
471.32	7950.80
471.50	8173.15
471.68	7943.78
471.86	8079.53
472.04	8205.92
472.22	8320.60
472.40	8191.88
472.58	8173.15
472.77	8262.09
472.95	8393.16
473.13	8627.21
473.31	8280.82
473.49	8435.29
473.67	8271.45
473.85	8624.87
474.03	8667.00
474.21	8627.21
474.39	8594.45
474.57	8559.34
474.75	8966.59
474.93	8842.54
475.12	8802.75
475.30	9128.09
475.48	8741.90
475.66	8954.89
475.84	9050.85
476.02	8975.95
476.20	9130.43
476.38	9195.96
476.56	9434.70
476.74	9334.06
476.92	9179.58
477.10	9172.56
477.28	9427.68
477.46	9376.19
477.64	9614.92
477.82	9610.24
478.00	10026.86
478.18	9792.80
478.36	9991.75
478.54	9825.57
478.72	10071.33
478.90	10115.80
479.08	10134.52
479.26	10249.21
479.44	10324.10
479.62	10434.11
479.80	10787.53
479.98	10579.22
480.16	10738.38
480.34	10614.33
480.52	10731.36
480.70	10916.26
480.88	10843.70
481.06	10614.33
481.24	10986.47
481.41	11143.29
481.59	11265.00
481.77	11396.07
481.95	11552.88
482.13	11494.37
482.31	11288.40
482.49	11737.79
482.67	11569.27
482.85	11733.11
483.03	11992.90
483.21	12236.32
483.39	12035.03
483.57	11899.28
483.74	12273.77
483.92	12203.55
484.10	12257.39
484.28	12484.42
484.46	12760.60
484.64	12912.74
484.82	12519.53
485.00	12592.08
485.18	13174.88
485.35	13266.16
485.53	13114.02
485.71	13418.29
485.89	13518.93
486.07	13673.41
486.25	13462.76
486.43	13486.17
486.61	13820.86
486.78	13809.16
486.96	14040.87
487.14	14190.67
487.32	14239.82
487.50	14324.08
487.68	14441.11
487.85	14541.75
488.03	14789.85
488.21	14602.60
488.39	15035.60
488.57	15044.96
488.75	14913.89
488.92	15241.57
489.10	15360.94
489.28	15494.35
489.46	15517.75
489.64	15557.54
489.81	15960.11
489.99	15929.69
490.17	15917.98
490.35	16133.31
490.53	15943.73
490.70	16245.66
490.88	16231.62
491.06	16589.72
491.24	16453.97
491.41	16369.71
491.59	16854.20
491.77	16896.33
491.95	16802.71
492.13	17137.40
492.30	17102.29
492.48	17109.32
492.66	16982.93
492.84	17444.01
493.01	17418.27
493.19	17448.69
493.37	17865.31
493.54	17638.28
493.72	17762.33
493.90	17811.48
494.08	17942.55
494.25	18125.11
494.43	18389.59
494.61	18169.58
494.79	18663.43
494.96	18590.88
495.14	18829.61
495.32	18490.23
495.49	19150.26
495.67	18633.00
495.85	18941.96
496.02	18960.68
496.20	19199.41
496.38	19070.68
496.55	19527.09
496.73	19824.34
496.91	19711.99
497.09	20011.58
497.26	19651.14
497.44	20088.82
497.62	20070.09
497.79	20423.51
497.97	20271.38
498.14	20357.98
498.32	20613.10
498.50	20479.69
498.67	20685.65
498.85	20519.48
499.03	20594.37
499.20	20945.45
499.38	20830.77
499.56	20849.49
499.73	20943.11
499.91	21163.12
500.08	21310.58
500.26	21064.82
500.44	21504.84
500.61	21692.08
500.79	21546.97
500.97	21483.78
501.14	22066.57
501.32	21778.68
501.49	21600.80
501.67	21605.49
501.84	22082.95
502.02	22389.56
502.20	22370.84
502.37	22408.29
502.55	22167.21
502.72	22396.59
502.90	22412.97
503.07	22436.38
503.25	22794.48
503.43	22541.70
503.60	22658.73
503.78	22527.66
503.95	22590.85
504.13	22848.31
504.30	22963.00
504.48	22955.97
504.65	23543.45
504.83	23433.44
505.01	23356.21
505.18	22991.08
505.36	23386.63
505.53	23482.59
505.71	23403.02
505.88	23660.48
506.06	23506.00
506.23	23749.42
506.41	23688.56
506.58	24072.41
506.76	23669.84
506.93	24037.30
507.11	24002.19
507.28	24053.69
507.46	24269.01
507.63	24208.16
507.81	24753.51
507.98	24049.00
508.16	24320.51
508.33	24477.32
508.50	24957.13
508.68	25064.80
508.85	25202.89
509.03	24718.40
509.20	24882.24
509.38	24886.92
509.55	24830.74
509.73	25310.55
509.90	25357.36
510.08	25413.54
510.25	25429.92
510.42	25427.58
510.60	25369.07
510.77	25612.48
510.95	25804.41
511.12	25818.45
511.30	25799.73
511.47	25710.78
511.64	25893.35
511.82	26267.83
511.99	26225.70
512.17	26515.93
512.34	26389.54
512.51	26457.42
512.69	26768.71
512.86	26153.15
513.04	26714.87
513.21	26553.38
513.38	26614.23
513.56	26628.27
513.73	26757.00
513.90	26953.61
514.08	27023.83
514.25	27033.19
514.43	27302.35
514.60	27208.73
514.77	27321.07
514.95	27337.46
515.12	26995.74
515.29	27089.36
515.47	27459.16
515.64	28009.19
515.81	27204.05
515.99	27625.34
516.16	27826.63
516.33	27772.80
516.51	27665.13
516.68	27646.41
516.85	27751.73
517.03	28177.71
517.20	28245.58
517.37	27843.01
517.54	28371.97
517.72	28229.20
517.89	28182.39
518.06	28180.05
518.24	28189.41
518.41	28652.84
518.58	28229.20
518.75	28268.99
518.93	28594.32
519.10	28357.93
519.27	28856.46
519.45	28460.91
519.62	28559.22
519.79	29289.46
519.96	29017.96
520.14	29195.84
520.31	28613.05
520.48	28830.72
520.65	29060.09
520.83	29216.91
521.00	29324.57
521.17	29371.38
521.34	29427.56
521.52	29376.06
521.69	29399.47
521.86	29890.98
522.03	29713.10
522.20	29795.02
522.38	29811.40
522.55	29984.60
522.72	29780.98
522.89	30082.91
523.07	30160.14
523.24	30036.09
523.41	30202.27
523.58	29883.96
523.75	30651.66
523.92	30398.88
524.10	30710.17
524.27	30649.32
524.44	30707.83
524.61	30501.86
524.78	30560.37
524.96	30513.56
525.13	30646.97
525.30	31220.41
525.47	30808.47
525.64	31388.92
525.81	31150.19
525.98	30895.07
526.16	30841.24
526.33	31110.40
526.50	31182.96
526.67	30759.32
526.84	31218.07
527.01	31496.59
527.18	31480.21
527.36	31213.38
527.53	31634.68
527.70	31704.90
527.87	31828.95
528.04	31400.63
528.21	31955.33
528.38	31842.99
528.55	31880.44
528.72	31620.64
528.89	31934.27
529.07	31491.91
529.24	31550.42
529.41	32039.59
529.58	32006.83
529.75	32264.28
529.92	32535.79
530.09	31908.52
530.26	32079.38
530.43	32229.18
530.60	31952.99
530.77	32395.35
530.94	32622.39
531.11	32809.63
531.28	32989.85
531.46	32540.47
531.63	32311.10
531.80	32294.71
531.97	32624.73
532.14	32697.28
532.31	32582.60
532.48	32964.10
532.65	32673.88
532.82	32711.33
532.99	32732.39
533.16	33390.08
533.33	32751.12
533.50	33277.74
533.67	33060.07
533.84	33184.12
534.01	33099.86
534.18	32919.63
534.35	33621.80
534.52	33383.06
534.69	33879.25
534.86	33584.35
535.03	33160.71
535.20	33130.28
535.37	33802.02
535.54	33659.24
535.71	33509.45
535.88	33928.41
536.05	33464.98
536.22	33795.00
536.38	33963.51
536.55	34094.58
536.72	34232.68
536.89	33930.75
537.06	33862.87
537.23	34616.52
537.40	34366.09
537.57	34162.46
537.74	34181.18
537.91	34258.42
538.08	34045.43
538.25	34202.25
538.42	34766.32
538.59	34600.14
538.75	34714.83
538.92	34307.57
539.09	34586.10
539.26	34515.88
539.43	34670.36
539.60	34616.52
539.77	34663.33
539.94	35054.20
540.11	34813.13
540.28	35302.30
540.44	35215.70
540.61	35077.61
540.78	34813.13
540.95	35077.61
541.12	34841.21
541.29	34981.65
541.46	35147.82
541.62	35424.01
541.79	36018.50
541.96	35213.36
542.13	35531.67
542.30	35723.60
542.47	35709.55
542.63	35587.85
542.80	35917.86
542.97	36072.34
543.14	36460.87
543.31	35967.01
543.48	36011.48
543.64	36685.56
543.81	36491.29
543.98	36067.66
544.15	36306.39
544.32	35749.34
544.48	36257.24
544.65	36313.41
544.82	36507.68
544.99	36781.52
545.16	36821.31
545.32	36715.98
545.49	36961.74
545.66	37385.38
545.83	37118.56
546.00	37406.44
546.16	37097.49
546.33	37191.11
546.50	37050.68
546.67	37111.53
546.83	36074.68
547.00	36395.33
547.17	36856.42
547.34	36376.61
547.50	36680.88
547.67	37399.42
547.84	36697.26
548.00	37055.36
548.17	37453.25
548.34	37057.70
548.51	36884.50
548.67	36903.23
548.84	36891.52
549.01	36975.78
549.18	37163.03
549.34	37397.08
549.51	37165.37
549.68	37296.44
549.84	37420.48
550.01	37474.32
550.18	36933.65
550.34	37055.36
550.51	37340.91
550.68	37214.52
550.84	37214.52
551.01	37591.34
551.18	37659.22
551.34	37453.25
551.51	37329.20
551.68	37139.62
551.84	37528.15
552.01	37130.26
552.18	37500.06
552.34	37233.24
552.51	37825.40
552.68	38242.01
552.84	38143.71
553.01	38148.39
553.18	37844.12
553.34	38279.46
553.51	37455.59
553.67	37324.52
553.84	38298.19
554.01	37666.24
554.17	38174.14
554.34	38043.07
554.51	37933.06
554.67	38244.35
554.84	38258.40
555.00	37621.77
555.17	37954.13
555.33	38085.20
555.50	37865.19
555.67	38003.28
555.83	37993.92
556.00	38061.79
556.16	38525.22
556.33	38031.36
556.50	38321.59
556.66	38230.31
556.83	38270.10
556.99	38117.96
557.16	38043.07
557.32	38705.44
557.49	38115.62
557.65	38300.53
557.82	38333.29
557.98	38565.01
558.15	37951.79
558.32	38663.31
558.48	38906.73
558.65	38885.66
558.81	38485.43
558.98	38672.67
559.14	38902.04
559.31	38658.63
559.47	38274.78
559.64	38836.51
559.80	38656.29
559.97	38892.68
560.13	38499.47
560.30	38658.63
560.46	38733.53
560.63	39243.76
560.79	38958.22
560.96	39349.09
561.12	39131.42
561.29	39009.71
561.45	39019.07
561.61	39271.85
561.78	38857.57
561.94	39337.38
562.11	39103.33
562.27	39232.06
562.44	39257.81
562.60	39143.12
562.77	38841.19
562.93	39248.44
563.10	39075.24
563.26	38684.37
563.42	39697.83
563.59	39311.64
563.75	39381.85
563.92	39040.14
564.08	39267.17
564.24	39477.82
564.41	39349.09
564.57	39335.04
564.74	39164.18
564.90	39433.35
565.07	39625.27
565.23	39213.34
565.39	39201.63
565.56	39746.98
565.72	39356.11
565.88	39206.31
566.05	39592.50
566.21	39210.99
566.38	38923.11
566.54	39423.98
566.70	39463.77
566.87	39913.16
567.03	39477.82
567.19	39903.79
567.36	39761.02
567.52	39693.15
567.68	39817.19
567.85	39428.66
568.01	40025.50
568.17	39414.62
568.34	39557.39
568.50	39810.17
568.66	40016.14
568.83	40395.31
568.99	39431.01
569.15	39887.41
569.32	39920.18
569.48	39215.68
569.64	39438.03
569.81	39592.50
569.97	39400.58
570.13	39529.31
570.30	39536.33
570.46	39896.77
570.62	39929.54
570.78	39871.03
570.95	39800.81
571.11	39981.03
571.27	39910.82
571.43	39651.02
571.60	39470.79
571.76	39999.76
571.92	39721.23
572.09	39716.55
572.25	39658.04
572.41	40524.04
572.57	40088.70
572.74	40172.96
572.90	39936.56
573.06	39761.02
573.22	39704.85
573.38	39995.07
573.55	40165.93
573.71	39971.67
573.87	39997.41
574.03	39901.45
574.20	40226.79
574.36	39927.20
574.52	39920.18
574.68	40179.98
574.84	40147.21
575.01	40215.08
575.17	40453.82
575.33	39859.32
575.49	39908.47
575.65	40025.50
575.82	40399.99
575.98	40053.59
576.14	40069.97
576.30	40137.85
576.46	40259.55
576.62	40053.59
576.79	40268.92
576.95	39571.44
577.11	40151.89
577.27	40336.79
577.43	40128.48
577.59	40332.11
577.75	40444.46
577.92	39915.50
578.08	40517.01
578.24	40130.83
578.40	40521.69
578.56	40488.93
578.72	40500.63
578.88	40629.36
579.04	40458.50
579.21	40121.46
579.37	40465.52
579.53	40507.65
579.69	40676.17
579.85	40538.08
580.01	40935.97
580.17	40484.25
580.33	40165.93
580.49	40215.08
580.65	40332.11
580.82	40704.26
580.98	40519.35
581.14	40371.90
581.30	40030.18
581.46	40112.10
581.62	40163.59
581.78	40538.08
581.94	40563.82
582.10	40175.30
582.26	40369.56
582.42	40313.39
582.58	40540.42
582.74	40222.11
582.90	40758.09
583.06	40266.58
583.22	40084.01
583.38	40325.09
583.54	40222.11
583.70	40818.94
583.86	40636.38
584.02	40458.50
584.18	40301.68
584.34	40238.49
584.50	40271.26
584.66	40140.19
584.82	40357.86
584.98	40383.60
585.14	40903.20
585.30	40479.57
585.46	40411.69
585.62	40165.93
585.78	40765.11
585.94	40692.55
586.10	40402.33
586.26	40360.20
586.42	40605.95
586.58	40507.65
586.74	40601.27
586.90	40243.17
587.06	40336.79
587.22	40872.78
587.38	40500.63
587.54	40781.49
587.70	41205.13
587.86	40952.35
588.02	40795.54
588.18	40428.07
588.34	40762.77
588.49	40491.27
588.65	40526.38
588.81	40416.37
588.97	40634.04
589.13	40652.76
589.29	40739.36
589.45	40912.56
589.61	41071.72
589.77	40989.80
589.93	40650.42
590.08	41322.16
590.24	40779.15
590.40	40596.59
590.56	41106.83
590.72	40479.57
590.88	39988.05
591.04	40594.25
591.20	41151.30
591.35	41020.23
591.51	41357.27
591.67	41303.43
591.83	41038.95
591.99	41258.96
592.15	40350.84
592.31	40870.43
592.46	40954.69
592.62	41071.72
592.78	40722.98
592.94	40685.53
593.10	40994.48
593.26	41411.10
593.41	41045.97
593.57	41291.73
593.73	41027.25
593.89	40966.40
594.05	41443.87
594.20	40772.13
594.36	40931.29
594.52	41113.85
594.68	40680.85
594.84	40985.12
594.99	41249.60
595.15	41163.00
595.31	41399.40
595.47	41303.43
595.62	40811.92
595.78	40926.61
595.94	40989.80
596.10	41055.34
596.25	41015.55
596.41	40849.37
596.57	40755.75
596.73	40725.32
596.88	40942.99
597.04	41146.62
597.20	41163.00
597.36	41015.55
597.51	41198.11
597.67	41464.93
597.83	41067.04
597.99	40959.38
598.14	41151.30
598.30	40912.56
598.46	40814.26
598.61	41088.10
598.77	41170.02
598.93	41378.33
599.09	41130.23
599.24	41347.90
599.40	41275.35
599.56	40952.35
599.71	41691.96
599.87	41560.89
600.03	41198.11
600.18	41207.47
600.34	41434.50
600.50	41022.57
600.65	41518.76
600.81	41722.39
600.97	41551.53
601.12	41619.41
601.28	41394.71
601.44	41324.50
601.59	41291.73
601.75	41270.67
601.91	41394.71
602.06	41053.00
602.22	41359.61
602.37	40767.45
602.53	41226.20
602.69	41338.54
602.84	41532.81
603.00	41134.92
603.16	41481.31
603.31	40912.56
603.47	41181.73
603.62	41151.30
603.78	41287.05
603.94	41069.38
604.09	40865.75
604.25	41270.67
604.40	41486.00
604.56	41343.22
604.71	41104.49
604.87	41305.77
605.03	41205.13
605.18	40776.81
605.34	40837.67
605.49	40830.65
605.65	40933.63
605.80	40676.17
605.96	41158.32
606.12	41457.91
606.27	41467.27
606.43	41116.19
606.58	41605.36
606.74	41137.26
606.89	41141.94
607.05	41083.42
607.20	40828.30
607.36	40636.38
607.51	41106.83
607.67	40938.31
607.82	40825.96
607.98	41064.70
608.13	41504.72
608.29	40800.22
608.44	40954.69
608.60	41446.21
608.75	40755.75
608.91	41109.17
609.06	40507.65
609.22	40919.59
609.37	40737.02
609.53	40610.64
609.68	40767.45
609.84	40774.47
609.99	41184.07
610.15	41317.48
610.30	41179.39
610.46	40942.99
610.61	41359.61
610.76	41542.17
610.92	41926.02
611.07	41944.74
611.23	42019.64
611.38	42038.36
611.54	41635.79
611.69	41420.46
611.84	41689.62
612.00	41649.83
612.15	41605.36
612.31	41390.03
612.46	40837.67
612.62	40788.52
612.77	40554.46
612.92	41214.49
613.08	40783.83
613.23	40603.61
613.39	40781.49
613.54	40437.44
613.69	41041.29
613.85	40697.24
614.00	41146.62
614.15	41287.05
614.31	40942.99
614.46	41060.02
614.62	40697.24
614.77	40968.74
614.92	40327.43
615.08	40285.30
615.23	40540.42
615.38	40348.50
615.54	39763.36
615.69	40177.64
615.84	40308.71
616.00	40147.21
616.15	40353.18
616.30	40294.66
616.46	40198.70
616.61	40224.45
616.76	40238.49
616.92	39957.63
617.07	40348.50
617.22	39667.40
617.37	39728.25
617.53	39566.76
617.68	39873.37
617.83	39793.79
617.99	39756.34
618.14	39751.66
618.29	40137.85
618.45	39594.84
618.60	39412.28
618.75	39515.26
618.90	39351.43
619.06	39583.14
619.21	39449.73
619.36	39569.10
619.51	39529.31
619.67	39290.57
619.82	39627.61
619.97	39784.43
620.12	39321.00
620.28	39620.59
620.43	40011.46
620.58	39859.32
620.73	39639.31
620.89	39552.71
621.04	39466.11
621.19	39594.84
621.34	39332.70
621.49	39466.11
621.65	39133.76
621.80	39700.17
621.95	39496.54
622.10	39667.40
622.25	39332.70
622.41	38911.41
622.56	39585.48
622.71	39335.04
622.86	39199.29
623.01	38937.15
623.16	38834.17
623.32	38834.17
623.47	39398.24
623.62	39100.99
623.77	39264.83
623.92	39541.01
624.07	39536.33
624.23	39622.93
624.38	39746.98
624.53	39241.42
624.68	39512.92
624.83	38937.15
624.98	38857.57
625.13	38518.20
625.29	38953.54
625.44	38717.14
625.59	38522.88
625.74	38560.33
625.89	38806.08
626.04	38574.37
626.19	38698.42
626.34	38747.57
626.49	38815.44
626.65	38843.53
626.80	38497.13
626.95	38506.49
627.10	38583.73
627.25	38377.76
627.40	38176.48
627.55	38361.38
627.70	38637.56
627.85	38607.14
628.00	38499.47
628.15	38253.72
628.30	37848.80
628.45	38363.72
628.60	38333.29
628.76	38026.68
628.91	37827.74
629.06	38557.99
629.21	37947.11
629.36	38047.75
629.51	38085.20
629.66	37902.64
629.81	38251.38
629.96	37970.51
630.11	37977.53
630.26	38628.20
630.41	38501.81
630.56	38253.72
630.71	38455.00
630.86	38431.60
631.01	38403.51
631.16	38078.18
631.31	38050.09
631.46	37514.11
631.61	37827.74
631.76	37486.02
631.91	37958.81
632.06	37310.48
632.21	37631.13
632.36	37511.77
632.51	37207.50
632.66	37886.25
632.81	37273.03
632.96	37893.27
633.10	37497.72
633.25	37481.34
633.40	37390.06
633.55	37474.32
633.70	37383.04
633.85	37584.32
634.00	37429.85
634.15	37961.15
634.30	37502.40
634.45	37275.37
634.60	37530.49
634.75	37869.87
634.90	37453.25
635.05	37221.54
635.19	37331.54
635.34	37184.09
635.49	37202.82
635.64	36907.91
635.79	37165.37
635.94	36940.68
636.09	36802.58
636.24	37345.59
636.39	37720.07
636.53	37371.33
636.68	36875.14
636.83	37296.44
636.98	37120.90
637.13	36943.02
637.28	37172.39
637.43	36814.29
637.57	36886.84
637.72	36364.90
637.87	36837.69
638.02	36865.78
638.17	36830.67
638.32	36336.82
638.46	36439.80
638.61	36552.15
638.76	36809.61
638.91	36774.50
639.06	36746.41
639.20	36905.57
639.35	36708.96
639.50	36786.20
639.65	36797.90
639.80	36828.33
639.94	36458.52
640.09	36327.45
640.24	36257.24
640.39	36172.98
640.54	36229.15
640.68	36364.90
640.83	36610.66
640.98	36051.27
641.13	36205.75
641.27	36268.94
641.42	35690.83
641.57	36154.26
641.72	35922.54
641.86	36058.29
642.01	35599.55
642.16	35742.32
642.31	35873.39
642.45	36039.57
642.60	35756.36
642.75	36435.12
642.90	36116.81
643.04	35957.65
643.19	35747.00
643.34	36299.37
643.48	36208.09
643.63	36114.47
643.78	35655.72
643.93	35629.98
644.07	35503.59
644.22	35723.60
644.37	35496.56
644.51	35463.80
644.66	35852.33
644.81	35838.28
644.95	36231.49
645.10	36116.81
645.25	36027.87
645.39	35938.93
645.54	35555.08
645.69	35866.37
645.83	35962.33
645.98	35421.67
646.13	35629.98
646.27	35852.33
646.42	35920.20
646.57	36016.16
646.71	35445.07
646.86	35072.93
647.00	35299.96
647.15	35398.26
647.30	35159.53
647.44	35538.69
647.59	35791.47
647.74	35056.54
647.88	35456.78
648.03	35526.99
648.17	35206.34
648.32	35269.53
648.47	35374.86
648.61	35173.57
648.76	35152.51
648.90	35161.87
649.05	35220.38
649.20	35051.86
649.34	35772.75
649.49	35634.66
649.63	35697.85
649.78	35346.77
649.92	34871.64
650.07	35440.39
650.21	35351.45
650.36	34752.27
650.51	34801.43
650.65	34983.99
650.80	35292.94
650.94	34888.03
651.09	34789.72
651.23	34747.59
651.38	34974.63
651.52	34897.39
651.67	34920.79
651.81	34983.99
651.96	34850.58
652.10	34632.91
652.25	34794.40
652.39	34513.54
652.54	34494.82
652.68	34401.19
652.83	34050.11
652.97	34508.86
653.12	34520.56
653.26	34574.39
653.41	35061.22
653.55	34185.86
653.70	34789.72
653.84	34569.71
653.99	34483.11
654.13	34494.82
654.27	34298.21
654.42	34494.82
654.56	34670.36
654.71	34267.78
654.85	34478.43
655.00	34829.51
655.14	34015.01
655.29	34150.76
655.43	33715.42
655.57	33851.17
655.72	34078.20
655.86	33965.85
656.01	34363.75
656.15	34354.38
656.30	34059.48
656.44	33839.47
656.58	34567.37
656.73	33916.70
656.87	34038.41
657.01	33816.06
657.16	34272.46
657.30	34202.25
657.45	33804.36
657.59	33560.94
657.73	33528.17
657.88	33525.83
658.02	33507.11
658.16	33645.20
658.31	34080.54
658.45	33706.05
658.60	33354.97
658.74	33530.51
658.88	33635.84
659.03	33474.34
659.17	33457.96
659.31	33001.55
659.46	33268.37
659.60	33214.54
659.74	33397.10
659.89	32968.79
660.03	33420.51
660.17	33343.27
660.32	33039.00
660.46	32973.47
660.60	33104.54
660.74	32779.20
660.89	32980.49
661.03	32669.20
661.17	32905.59
661.32	32615.37
661.46	32772.18
661.60	32568.55
661.74	32716.01
661.89	32416.42
662.03	32613.02
662.17	32606.00
662.31	31828.95
662.46	32287.69
662.60	32240.88
662.74	32692.60
662.88	32283.01
663.03	32304.07
663.17	32687.92
663.31	32165.98
663.45	32385.99
663.60	31922.57
663.74	32107.47
663.88	31845.33
664.02	31924.91
664.17	32067.68
664.31	31751.71
664.45	31498.93
664.59	31634.68
664.73	31718.94
664.88	31667.45
665.02	31723.62
665.16	31864.05
665.30	31585.53
665.44	31749.37
665.59	31290.62
665.73	31597.23
665.87	31608.93
666.01	31304.67
666.15	31538.72
666.29	30728.89
666.44	31225.09
666.58	30927.84
666.72	30560.37
666.86	31028.48
667.00	30815.49
667.14	30572.08
667.28	30934.86
667.43	30958.27
667.57	31426.37
667.71	30712.51
667.85	30998.06
667.99	31182.96
668.13	30525.27
668.27	30513.56
668.41	30473.78
668.56	30422.28
668.70	30071.20
668.84	30092.27
668.98	30008.01
669.12	30600.16
669.26	30237.38
669.40	30047.80
669.54	30321.64
669.68	30424.62
669.82	29991.62
669.96	30127.38
670.10	29986.94
670.25	30384.83
670.39	30068.86
670.53	29652.25
670.67	29748.21
670.81	29975.24
670.95	29778.64
671.09	29600.76
671.23	29371.38
671.37	29886.30
671.51	29303.51
671.65	29759.91
671.79	29663.95
671.93	29429.90
672.07	29809.06
672.21	29434.58
672.35	29605.44
672.49	29369.04
672.63	29106.90
672.77	29209.89
672.91	29191.16
673.05	28802.63
673.19	28503.04
673.33	28650.50
673.47	28460.91
673.61	28732.42
673.75	28720.71
673.89	28556.88
674.03	28348.57
674.17	28666.88
674.31	28713.69
674.45	28627.09
674.59	28643.48
674.73	28723.05
674.87	28074.73
675.01	27971.74
675.15	27974.08
675.29	28292.40
675.43	27920.25
675.56	27812.59
675.70	28041.96
675.84	27843.01
675.98	26661.04
676.12	27470.87
676.26	27250.86
676.40	27786.84
676.54	27625.34
676.68	27494.27
676.82	27026.17
676.96	27515.34
677.10	27314.05
677.23	26852.97
677.37	27096.38
677.51	26831.90
677.65	27035.53
677.79	26801.47
677.93	26019.74
678.07	26707.85
678.21	26464.44
678.34	26579.12
678.48	26796.79
678.62	26244.43
678.76	26136.76
678.90	26150.81
679.04	26391.88
679.18	25998.67
679.31	25298.85
679.45	25617.16
679.59	25881.64
679.73	25724.83
679.87	25699.08
680.00	25268.42
680.14	25315.23
680.28	25118.63
680.42	25593.76
680.56	25160.76
680.70	24966.49
680.83	24524.13
680.97	25298.85
681.11	24856.49
681.25	24812.02
681.39	24954.79
681.52	24915.00
681.66	24594.35
681.80	24622.44
681.94	24582.65
682.07	24528.81
682.21	24329.87
682.35	24643.50
682.49	24510.09
682.62	24168.37
682.76	24278.38
682.90	24107.52
683.04	24224.54
683.17	23836.02
683.31	23854.74
683.45	23733.03
683.59	23599.62
683.72	23545.79
683.86	23828.99
684.00	23473.23
684.13	23302.37
684.27	23122.15
684.41	23037.89
684.55	23140.88
684.68	23199.39
684.82	22838.95
684.96	23028.53
685.09	22757.03
685.23	22810.86
685.37	22824.90
685.50	22927.89
685.64	22703.20
685.78	22466.80
685.91	22712.56
686.05	22546.38
686.19	21956.57
686.32	22314.67
686.46	22029.12
686.60	22295.94
686.73	22389.56
686.87	21902.73
687.01	21949.54
687.14	22097.00
687.28	21797.41
687.42	21837.20
687.55	21666.34
687.69	21680.38
687.82	21427.60
687.96	21294.19
688.10	21549.31
688.23	21254.40
688.37	21315.26
688.50	20929.07
688.64	20875.24
688.78	21099.93
688.91	21256.75
689.05	20947.79
689.18	20695.02
689.32	20170.74
689.46	20439.90
689.59	20479.69
689.73	20559.27
689.86	20116.90
690.00	20161.37
690.13	20212.87
690.27	20245.63
690.41	20381.38
690.54	19740.08
690.68	19777.53
690.81	20095.84
690.95	19700.29
691.08	19833.70
691.22	19520.07
691.35	19405.38
691.49	19543.47
691.62	19384.32
691.76	19330.48
691.89	19541.13
692.03	19349.21
692.16	19475.60
692.30	19049.62
692.43	19187.71
692.57	19227.50
692.70	19042.60
692.84	19026.21
692.97	18794.50
693.11	18530.02
693.24	18441.08
693.38	18537.04
693.51	18546.40
693.65	18408.31
693.78	18450.44
693.92	18305.33
694.05	18401.29
694.19	18251.50
694.32	18438.74
694.45	18410.65
694.59	18057.23
694.72	18052.55
694.86	17638.28
694.99	17441.67
695.13	17713.17
695.26	17806.80
695.39	17415.93
695.53	17404.22
695.66	17277.83
695.80	17303.58
695.93	17099.95
696.07	16959.52
696.20	17076.55
696.33	17369.12
696.47	17170.17
696.60	17020.38
696.73	16830.79
696.87	17008.67
697.00	17085.91
697.14	16683.34
697.27	16444.60
697.40	16372.05
697.54	16196.51
697.67	16123.95
697.80	16077.14
697.94	16226.93
698.07	16203.53
698.21	16027.99
698.34	15953.09
698.47	15672.23
698.61	15728.40
698.74	15875.85
698.87	15679.25
699.01	15903.94
699.14	15864.15
699.27	15899.26
699.40	15761.17
699.54	16060.76
699.67	15580.95
699.80	15171.35
699.94	15009.86
700.07	15077.73
700.20	14792.19
700.34	14647.07
700.47	14927.94
700.60	14951.34
700.73	14932.62
700.87	14651.75
701.00	14663.46
701.13	14443.45
701.26	14567.49
701.40	14572.18
701.53	14244.50
701.66	14209.39
701.79	14377.91
701.93	14417.70
702.06	14340.46
702.19	14331.10
702.32	14239.82
702.46	13991.72
702.59	13916.83
702.72	14066.62
702.85	13837.25
702.99	13699.16
703.12	13516.59
703.25	13612.56
703.38	13507.23
703.51	13558.72
703.65	13544.68
703.78	13760.01
703.91	13263.82
704.04	13603.19
704.17	13437.02
704.31	13191.26
704.44	13256.79
704.57	12903.37
704.70	13001.68
704.83	12847.20
704.96	12870.61
705.10	12872.95
705.23	12685.70
>>>>>End Processed Spectral Data<<<<<
