SpectraSuite Data File
++++++++++++++++++++++++++++++++++++
Date: Thu Oct 24 13:21:16 EDT 2013
User: stostad
Dark Spectrum Present: No
Reference Spectrum Present: No
Number of Sampled Component Spectra: 1
Spectrometers: USB2+H05261
Integration Time (usec): 100000 (USB2+H05261)
Spectra Averaged: 1 (USB2+H05261)
Boxcar Smoothing: 0 (USB2+H05261)
Correct for Electrical Dark: No (USB2+H05261)
Strobe/Lamp Enabled: No (USB2+H05261)
Correct for Detector Non-linearity: No (USB2+H05261)
Correct for Stray Light: No (USB2+H05261)
Number of Pixels in Processed Spectrum: 2048
>>>>>Begin Processed Spectral Data<<<<<
365.73	533.64
365.92	533.64
366.12	533.64
366.32	510.24
366.52	496.19
366.72	496.19
366.91	421.30
367.11	456.40
367.31	430.66
367.51	463.43
367.70	472.79
367.90	477.47
368.10	435.34
368.30	463.43
368.49	402.57
368.69	414.27
368.89	503.22
369.09	484.49
369.28	463.43
369.48	449.38
369.68	482.15
369.87	554.71
370.07	477.47
370.27	533.64
370.47	631.94
370.66	734.93
370.86	788.76
371.06	802.80
371.25	807.48
371.45	805.14
371.65	826.21
371.84	873.02
372.04	882.38
372.24	851.96
372.44	912.81
372.63	875.36
372.83	814.51
373.03	947.92
373.22	896.43
373.42	896.43
373.62	943.24
373.81	945.58
374.01	903.45
374.21	870.68
374.40	894.08
374.60	961.96
374.79	999.41
374.99	905.79
375.19	919.83
375.38	891.74
375.58	868.34
375.78	964.30
375.97	973.66
376.17	1013.45
376.37	919.83
376.56	870.68
376.76	870.68
376.95	973.66
377.15	987.71
377.35	961.96
377.54	922.17
377.74	994.73
377.93	915.15
378.13	1022.81
378.33	1102.39
378.52	990.05
378.72	987.71
378.91	952.60
379.11	976.00
379.31	964.30
379.50	980.68
379.70	992.39
379.89	959.62
380.09	1027.50
380.28	994.73
380.48	1011.11
380.68	1050.90
380.87	983.02
381.07	1064.94
381.26	964.30
381.46	976.00
381.65	1020.47
381.85	990.05
382.04	1107.07
382.24	1055.58
382.43	1018.13
382.63	1025.15
382.83	1041.54
383.02	1048.56
383.22	1095.37
383.41	1062.60
383.61	1074.31
383.80	1118.78
384.00	1041.54
384.19	1104.73
384.39	1057.92
384.58	1088.35
384.78	1128.14
384.97	1118.78
385.17	1057.92
385.36	1071.97
385.56	1039.20
385.75	1034.52
385.95	1076.65
386.14	1165.59
386.34	1137.50
386.53	1146.86
386.72	1097.71
386.92	1132.82
387.11	1149.20
387.31	1107.07
387.50	1156.22
387.70	1125.80
387.89	1156.22
388.09	1142.18
388.28	1107.07
388.48	1184.31
388.67	1238.14
388.86	1172.61
389.06	1233.46
389.25	1200.69
389.45	1219.42
389.64	1221.76
389.84	1224.10
390.03	1193.67
390.22	1102.39
390.42	1221.76
390.61	1210.06
390.81	1282.61
391.00	1254.53
391.19	1282.61
391.39	1277.93
391.58	1238.14
391.78	1266.23
391.97	1327.08
392.16	1306.02
392.36	1369.21
392.55	1320.06
392.75	1191.33
392.94	1359.85
393.13	1322.40
393.33	1266.23
393.52	1352.83
393.71	1308.36
393.91	1324.74
394.10	1210.06
394.29	1366.87
394.49	1322.40
394.68	1320.06
394.88	1315.38
395.07	1341.13
395.26	1366.87
395.46	1369.21
395.65	1434.75
395.84	1423.05
396.04	1427.73
396.23	1357.51
396.42	1462.83
396.62	1413.68
396.81	1448.79
397.00	1458.15
397.19	1446.45
397.39	1479.22
397.58	1486.24
397.77	1430.07
397.97	1535.39
398.16	1509.65
398.35	1523.69
398.55	1418.36
398.74	1483.90
398.93	1582.20
399.12	1500.28
399.32	1589.22
399.51	1528.37
399.70	1631.35
399.90	1563.48
400.09	1565.82
400.28	1614.97
400.47	1554.12
400.67	1605.61
400.86	1605.61
401.05	1610.29
401.24	1633.69
401.44	1678.16
401.63	1757.74
401.82	1664.12
402.01	1687.53
402.21	1633.69
402.40	1673.48
402.59	1720.29
402.78	1668.80
402.97	1778.81
403.17	1769.44
403.36	1748.38
403.55	1753.06
403.74	1785.83
403.93	1820.94
404.13	1884.13
404.32	1811.57
404.51	1720.29
404.70	1930.94
404.89	1823.28
405.09	1949.67
405.28	1799.87
405.47	1806.89
405.66	1811.57
405.85	1956.69
406.05	1816.26
406.24	1937.96
406.43	1921.58
406.62	1959.03
406.81	2076.06
407.00	1877.11
407.20	1952.01
407.39	1926.26
407.58	1989.46
407.77	2010.52
407.96	1954.35
408.15	2045.63
408.34	1884.13
408.54	2017.54
408.73	2010.52
408.92	2010.52
409.11	2099.46
409.30	2047.97
409.49	2136.91
409.68	2146.27
409.87	2214.15
410.07	2221.17
410.26	2275.00
410.45	2172.02
410.64	2223.51
410.83	2258.62
411.02	2157.97
411.21	2305.43
411.40	2300.75
411.59	2289.04
411.78	2282.02
411.98	2333.51
412.17	2340.54
412.36	2354.58
412.55	2356.92
412.74	2466.92
412.93	2401.39
413.12	2399.05
413.31	2506.71
413.50	2457.56
413.69	2406.07
413.88	2525.44
414.07	2438.84
414.26	2525.44
414.45	2635.44
414.64	2609.70
414.83	2614.38
415.02	2623.74
415.22	2593.31
415.41	2649.49
415.60	2815.66
415.79	2855.45
415.98	2745.45
416.17	2766.51
416.36	2780.56
416.55	2686.94
416.74	2895.24
416.93	2813.32
417.12	2785.24
417.31	2832.05
417.50	2911.63
417.69	3119.93
417.88	2897.58
418.07	2958.44
418.26	2871.84
418.45	3045.04
418.64	3000.57
418.83	2925.67
419.02	2944.39
419.21	3105.89
419.39	3117.59
419.58	3038.02
419.77	2977.16
419.96	3009.93
420.15	3068.44
420.34	3178.45
420.53	3000.57
420.72	3122.27
420.91	3295.47
421.10	3176.11
421.29	3136.32
421.48	3178.45
421.67	3098.87
421.86	3180.79
422.05	3169.09
422.24	3183.13
422.43	3297.81
422.61	3227.60
422.80	3258.03
422.99	3283.77
423.18	3297.81
423.37	3339.94
423.56	3183.13
423.75	3190.15
423.94	3162.06
424.13	3002.91
424.32	3133.98
424.50	3440.59
424.69	3325.90
424.88	3318.88
425.07	3325.90
425.26	3318.88
425.45	3339.94
425.64	3272.07
425.83	3323.56
426.01	3314.20
426.20	3456.97
426.39	3361.01
426.58	3295.47
426.77	3361.01
426.96	3384.41
427.15	3391.44
427.33	3538.89
427.52	3375.05
427.71	3499.10
427.90	3328.24
428.09	3473.36
428.28	3473.36
428.46	3559.95
428.65	3574.00
428.84	3653.58
429.03	3693.37
429.22	3417.18
429.40	3583.36
429.59	3538.89
429.78	3459.31
429.97	3480.38
430.16	3721.45
430.34	3646.55
430.53	3630.17
430.72	3728.47
430.91	3719.11
431.10	3581.02
431.28	3691.02
431.47	3789.33
431.66	3737.84
431.85	3779.97
432.03	3948.48
432.22	3845.50
432.41	3810.39
432.60	3882.95
432.79	3838.48
432.97	3971.89
433.16	4056.15
433.35	3967.21
433.54	3871.25
433.72	4037.42
433.91	4035.08
434.10	4107.64
434.28	4009.34
434.47	4079.55
434.66	4025.72
434.85	3992.95
435.03	4063.17
435.22	4372.12
435.41	4339.35
435.59	4454.04
435.78	4360.42
435.97	4304.25
436.16	4203.60
436.34	4227.01
436.53	4212.96
436.72	4198.92
436.90	4180.20
437.09	4196.58
437.28	4215.30
437.46	4184.88
437.65	4238.71
437.84	4332.33
438.02	4425.95
438.21	4301.90
438.40	4297.22
438.58	4367.44
438.77	4423.61
438.96	4458.72
439.14	4425.95
439.33	4571.07
439.52	4699.80
439.70	4615.54
439.89	4468.08
440.08	4641.28
440.26	4547.66
440.45	4667.03
440.63	4620.22
440.82	4994.70
441.01	4730.22
441.19	4847.25
441.38	4770.01
441.57	4765.33
441.75	4905.76
441.94	4957.25
442.12	4954.91
442.31	5071.94
442.50	4814.48
442.68	4961.94
442.87	4992.36
443.05	5107.05
443.24	5121.09
443.43	5048.54
443.61	5156.20
443.80	5277.91
443.98	4945.55
444.17	4814.48
444.35	5144.50
444.54	5275.57
444.73	5203.01
444.91	5123.43
445.10	5174.92
445.28	5207.69
445.47	5195.99
445.65	5074.28
445.84	5116.41
446.02	5439.40
446.21	5287.27
446.39	5336.42
446.58	5240.46
446.77	5373.87
446.95	5097.69
447.14	5233.44
447.32	5334.08
447.51	5343.44
447.69	5224.08
447.88	5139.82
448.06	5399.62
448.25	5352.81
448.43	5338.76
448.62	5614.95
448.80	5561.11
448.99	5387.91
449.17	5298.97
449.36	5441.75
449.54	5528.35
449.73	5518.98
449.91	5481.53
450.10	5521.32
450.28	5715.59
450.46	5624.31
450.65	5488.56
450.83	5521.32
451.02	5626.65
451.20	5671.12
451.39	5722.61
451.57	5708.57
451.76	5696.86
451.94	5591.54
452.13	5755.38
452.31	5717.93
452.49	5738.99
452.68	5755.38
452.86	5818.57
453.05	5760.06
453.23	5715.59
453.42	5652.39
453.60	5799.85
453.78	5947.30
453.97	5703.89
454.15	5750.70
454.34	5790.49
454.52	6141.57
454.70	6139.23
454.89	5898.15
455.07	5959.00
455.26	5813.89
455.44	6153.27
455.62	5954.32
455.81	5959.00
455.99	6157.95
456.17	6263.27
456.36	6120.50
456.54	6092.41
456.73	6267.95
456.91	6392.00
457.09	6284.34
457.28	6211.78
457.46	6373.28
457.64	6443.49
457.83	6363.92
458.01	6326.47
458.19	6560.52
458.38	6413.07
458.56	6672.87
458.74	6715.00
458.93	6665.85
459.11	6572.22
459.29	6607.33
459.48	6595.63
459.66	6520.73
459.84	6612.01
460.03	6712.66
460.21	6698.61
460.39	6637.76
460.57	6778.19
460.76	6855.43
460.94	6874.15
461.12	6829.68
461.31	6836.70
461.49	6782.87
461.67	6722.02
461.85	7101.19
462.04	6899.90
462.22	7236.94
462.40	7117.57
462.59	7063.74
462.77	7138.63
462.95	7021.61
463.13	6871.81
463.32	6979.48
463.50	7054.37
463.68	7061.40
463.86	6974.80
464.05	7091.82
464.23	6867.13
464.41	7227.57
464.59	7075.44
464.78	7295.45
464.96	7232.26
465.14	7073.10
465.32	7265.02
465.50	7215.87
465.69	7281.41
465.87	7304.81
466.05	7290.77
466.23	7311.83
466.41	7344.60
466.60	7449.93
466.78	7330.56
466.96	7335.24
467.14	7485.03
467.32	7403.11
467.51	7433.54
467.69	7492.05
467.87	7573.97
468.05	7693.34
468.23	7611.42
468.41	7499.08
468.60	7588.02
468.78	7585.68
468.96	7791.64
469.14	7765.90
469.32	7679.30
469.50	7641.85
469.69	7775.26
469.87	7784.62
470.05	7843.14
470.23	7712.07
470.41	7819.73
470.59	7763.56
470.77	7747.17
470.95	7892.29
471.14	8042.08
471.32	7831.43
471.50	8028.04
471.68	7960.16
471.86	7969.52
472.04	8304.22
472.22	8278.47
472.40	8135.70
472.58	8189.53
472.77	8311.24
472.95	8313.58
473.13	8512.53
473.31	8451.67
473.49	8418.91
473.67	8304.22
473.85	8575.72
474.03	8594.45
474.21	8821.48
474.39	8849.57
474.57	8676.37
474.75	8830.84
474.93	8875.31
475.12	8833.18
475.30	8922.12
475.48	8929.14
475.66	9083.62
475.84	8898.72
476.02	9118.73
476.20	9097.66
476.38	9111.71
476.56	9554.07
476.74	9411.29
476.92	9289.59
477.10	9448.74
477.28	9640.67
477.46	9472.15
477.64	9699.18
477.82	9734.29
478.00	9947.28
478.18	9741.31
478.36	9884.08
478.54	10078.35
478.72	10141.54
478.90	10253.89
479.08	10094.73
479.26	10415.38
479.44	10181.33
479.62	10476.24
479.80	10782.85
479.98	10532.41
480.16	10824.98
480.34	10958.39
480.52	10759.44
480.70	11014.56
480.88	10712.63
481.06	10867.11
481.24	10927.96
481.41	11047.33
481.59	11236.91
481.77	11286.06
481.95	11360.96
482.13	11613.74
482.31	11398.41
482.49	11700.34
482.67	11632.46
482.85	11782.26
483.03	11997.59
483.21	11999.93
483.39	12273.77
483.57	11882.90
483.74	12236.32
483.92	12287.81
484.10	12184.83
484.28	12650.60
484.46	12699.75
484.64	13041.46
484.82	13041.46
485.00	12821.45
485.18	13181.90
485.35	13273.18
485.53	13224.03
485.71	13125.72
485.89	13703.84
486.07	13479.15
486.25	13788.10
486.43	13427.65
486.61	13891.08
486.78	14090.02
486.96	13928.53
487.14	14181.31
487.32	14164.92
487.50	14164.92
487.68	14359.19
487.85	14736.01
488.03	14459.83
488.21	14824.95
488.39	14834.32
488.57	15019.22
488.75	15171.35
488.92	15215.82
489.10	15410.09
489.28	15543.50
489.46	15742.44
489.64	15477.96
489.81	15896.92
489.99	15971.82
490.17	15913.30
490.35	16306.51
490.53	16107.57
490.70	16524.18
490.88	16620.14
491.06	16769.94
491.24	16826.11
491.41	16339.28
491.59	17034.42
491.77	16505.46
491.95	17090.59
492.13	16917.39
492.30	17338.69
492.48	17170.17
492.66	17200.60
492.84	17341.03
493.01	17586.79
493.19	17537.63
493.37	17640.62
493.54	17823.18
493.72	17860.63
493.90	17792.75
494.08	18101.70
494.25	18181.28
494.43	18263.20
494.61	18038.51
494.79	18876.42
494.96	18197.67
495.14	18422.36
495.32	19005.15
495.49	19152.60
495.67	19014.51
495.85	18845.99
496.02	18867.06
496.20	19325.80
496.38	19300.06
496.55	19440.49
496.73	20002.22
496.91	19861.79
497.09	19861.79
497.26	19765.82
497.44	19676.88
497.62	20100.52
497.79	19943.70
497.97	20362.66
498.14	20491.39
498.32	20631.82
498.50	20608.42
498.67	20641.18
498.85	20776.94
499.03	20931.41
499.20	21032.05
499.38	21132.70
499.56	20908.01
499.73	20957.16
499.91	21439.31
500.08	21102.27
500.26	21088.23
500.44	21507.18
500.61	21493.14
500.79	21497.82
500.97	21465.05
501.14	21841.88
501.32	21745.92
501.49	21869.97
501.67	21837.20
501.84	22267.86
502.02	22265.52
502.20	22162.53
502.37	22134.45
502.55	22141.47
502.72	22288.92
502.90	22398.93
503.07	22249.13
503.25	22656.39
503.43	22754.69
503.60	22813.20
503.78	22902.14
503.95	22810.86
504.13	22862.35
504.30	23117.47
504.48	22766.39
504.65	23295.35
504.83	23098.75
505.01	23410.04
505.18	23321.10
505.36	23583.24
505.53	23417.06
505.71	23587.92
505.88	23599.62
506.06	23765.80
506.23	23744.73
506.41	23356.21
506.58	23843.04
506.76	23976.45
506.93	24311.14
507.11	24088.79
507.28	24636.48
507.46	24683.29
507.63	24353.27
507.81	24666.91
507.98	24346.25
508.16	24280.72
508.33	24690.31
508.50	24697.33
508.68	24816.70
508.85	24699.67
509.03	24772.23
509.20	24865.85
509.38	24877.55
509.55	25111.61
509.73	25551.63
509.90	25275.45
510.08	25146.72
510.25	25680.36
510.42	25514.18
510.60	25315.23
510.77	25525.88
510.95	25795.04
511.12	25809.09
511.30	26054.84
511.47	26022.08
511.64	25982.29
511.82	26085.27
511.99	26096.97
512.17	26387.20
512.34	26448.05
512.51	26579.12
512.69	26668.06
512.86	26258.47
513.04	26799.13
513.21	26586.15
513.38	26426.99
513.56	26698.49
513.73	26883.39
513.90	27110.43
514.08	27063.61
514.25	27229.79
514.43	27157.24
514.60	26939.57
514.77	27351.50
514.95	27222.77
515.12	27342.14
515.29	27323.41
515.47	27543.42
515.64	27967.06
515.81	27695.56
515.99	27695.56
516.16	27552.79
516.33	27840.67
516.51	28081.75
516.68	27917.91
516.85	27803.22
517.03	28175.37
517.20	28435.17
517.37	28070.04
517.54	28236.22
517.72	28500.70
517.89	28109.83
518.06	28304.10
518.24	28418.78
518.41	28596.67
518.58	28519.43
518.75	28126.22
518.93	28608.37
519.10	28641.14
519.27	28835.40
519.45	28830.72
519.62	28943.06
519.79	28870.51
519.96	28851.78
520.14	29195.84
520.31	28641.14
520.48	29039.03
520.65	29301.17
520.83	29654.59
521.00	29371.38
521.17	29181.80
521.34	29315.21
521.52	29469.69
521.69	29188.82
521.86	29900.34
522.03	29783.32
522.20	29970.56
522.38	29567.99
522.55	29914.39
522.72	29879.28
522.89	29947.15
523.07	29905.02
523.24	30129.72
523.41	30338.02
523.58	30293.55
523.75	30103.97
523.92	30228.02
524.10	30665.70
524.27	30670.38
524.44	30382.49
524.61	30946.56
524.78	30803.79
524.96	30595.48
525.13	30780.39
525.30	31187.64
525.47	31044.87
525.64	30635.27
525.81	31419.35
525.98	30806.13
526.16	30649.32
526.33	30782.73
526.50	31339.77
526.67	31173.60
526.84	31426.37
527.01	31374.88
527.18	31075.29
527.36	31648.72
527.53	31634.68
527.70	31709.58
527.87	31892.14
528.04	31590.21
528.21	31824.26
528.38	31716.60
528.55	32158.96
528.72	31402.97
528.89	32070.02
529.07	31896.82
529.24	31730.64
529.41	32126.19
529.58	32055.98
529.75	31917.89
529.92	32268.97
530.09	31714.26
530.26	32065.34
530.43	32444.51
530.60	31938.95
530.77	32474.93
530.94	32566.21
531.11	32854.10
531.28	32882.19
531.46	32697.28
531.63	32559.19
531.80	32226.84
531.97	33240.29
532.14	32542.81
532.31	32636.43
532.48	32833.04
532.65	32847.08
532.82	32964.10
532.99	33123.26
533.16	33048.36
533.33	33083.47
533.50	33085.81
533.67	33010.92
533.84	32954.74
534.01	33476.68
534.18	33170.07
534.35	33244.97
534.52	33603.07
534.69	33708.40
534.86	33017.94
535.03	33212.20
535.20	33326.89
535.37	33532.86
535.54	34003.30
535.71	33418.17
535.88	34106.29
536.05	33684.99
536.22	33986.92
536.38	34117.99
536.55	34155.44
536.72	34089.90
536.89	34391.83
537.06	34206.93
537.23	34579.07
537.40	34178.84
537.57	34270.12
537.74	34064.16
537.91	34639.93
538.08	34286.51
538.25	34455.03
538.42	34389.49
538.59	34370.77
538.75	34167.14
538.92	34330.98
539.09	34651.63
539.26	34546.31
539.43	34066.50
539.60	34761.64
539.77	34911.43
539.94	35187.61
540.11	34925.47
540.28	34958.24
540.44	35215.70
540.61	35409.96
540.78	35346.77
540.95	34806.11
541.12	35358.47
541.29	35101.01
541.46	35421.67
541.62	35569.12
541.79	35512.95
541.96	35510.61
542.13	35433.37
542.30	36109.78
542.47	35594.87
542.63	35700.19
542.80	36002.12
542.97	36240.86
543.14	36198.73
543.31	36449.16
543.48	36116.81
543.64	36964.08
543.81	36428.10
543.98	36079.36
544.15	36428.10
544.32	36318.09
544.48	36425.76
544.65	36369.58
544.82	36364.90
544.99	36367.24
545.16	36514.70
545.32	36374.27
545.49	36971.10
545.66	37003.87
545.83	37699.01
546.00	37897.95
546.16	36907.91
546.33	37090.47
546.50	36624.70
546.67	37015.57
546.83	36437.46
547.00	36322.77
547.17	36360.22
547.34	36713.64
547.50	36638.75
547.67	37340.91
547.84	37345.59
548.00	37687.31
548.17	37340.91
548.34	37038.98
548.51	37593.68
548.67	37233.24
548.84	36837.69
549.01	36968.76
549.18	37479.00
549.34	36950.04
549.51	37577.30
549.68	37242.60
549.84	37062.38
550.01	37471.98
550.18	36781.52
550.34	37397.08
550.51	37074.09
550.68	37483.68
550.84	37361.97
551.01	37326.86
551.18	37310.48
551.34	37067.06
551.51	37790.29
551.68	37378.36
551.84	37088.13
552.01	37975.19
552.18	37750.50
552.34	37500.06
552.51	37998.60
552.68	38024.34
552.84	37823.06
553.01	37743.48
553.18	37804.33
553.34	38162.43
553.51	37888.59
553.67	38211.59
553.84	38267.76
554.01	37963.49
554.17	38101.58
554.34	37904.98
554.51	37888.59
554.67	38054.77
554.84	37816.04
555.00	37542.19
555.17	37773.91
555.33	38031.36
555.50	37862.85
555.67	38302.87
555.83	38024.34
556.00	38321.59
556.16	38728.84
556.33	38185.84
556.50	37944.76
556.66	37954.13
556.83	38075.84
556.99	38742.89
557.16	38478.41
557.32	38569.69
557.49	38787.36
557.65	38302.87
557.82	38412.87
557.98	38532.24
558.15	38452.66
558.32	38906.73
558.48	38045.41
558.65	38841.19
558.81	38515.86
558.98	39342.06
559.14	38939.49
559.31	38813.10
559.47	38799.06
559.64	38485.43
559.80	38567.35
559.97	38775.66
560.13	39115.03
560.30	38469.04
560.46	38878.64
560.63	39103.33
560.79	39131.42
560.96	39372.49
561.12	38892.68
561.29	38738.21
561.45	38939.49
561.61	39103.33
561.78	38976.94
561.94	39194.61
562.11	39384.19
562.27	39332.70
562.44	39400.58
562.60	39276.53
562.77	39283.55
562.93	39079.92
563.10	39608.89
563.26	38862.26
563.42	39538.67
563.59	39328.02
563.75	39419.30
563.92	39873.37
564.08	39250.78
564.24	39065.88
564.41	39416.96
564.57	39533.99
564.74	39203.97
564.90	39669.74
565.07	39571.44
565.23	39714.21
565.39	39739.96
565.56	39903.79
565.72	40013.80
565.88	39412.28
566.05	39995.07
566.21	39239.08
566.38	39627.61
566.54	39351.43
566.70	39660.38
566.87	39702.51
567.03	39693.15
567.19	39985.71
567.36	39833.58
567.52	39393.56
567.68	39835.92
567.85	39812.51
568.01	40144.87
568.17	39431.01
568.34	39505.90
568.50	40069.97
568.66	39871.03
568.83	39529.31
568.99	40238.49
569.15	39941.24
569.32	39688.46
569.48	39583.14
569.64	39796.13
569.81	39791.45
569.97	39522.29
570.13	39697.83
570.30	39559.73
570.46	39552.71
570.62	39487.18
570.78	39878.05
570.95	39248.44
571.11	40264.24
571.27	39934.22
571.43	39686.12
571.60	40100.40
571.76	39751.66
571.92	40421.05
572.09	39711.87
572.25	40069.97
572.41	40236.15
572.57	39997.41
572.74	40289.98
572.90	40194.02
573.06	40172.96
573.22	39840.60
573.38	40224.45
573.55	39746.98
573.71	39423.98
573.87	40030.18
574.03	40107.42
574.20	39716.55
574.36	39981.03
574.52	40641.06
574.68	40240.83
574.84	40381.26
575.01	40428.07
575.17	40404.67
575.33	39723.57
575.49	40273.60
575.65	40144.87
575.82	40659.79
575.98	40044.23
576.14	40545.10
576.30	40395.31
576.46	40264.24
576.62	40128.48
576.79	40467.86
576.95	39981.03
577.11	40299.34
577.27	40411.69
577.43	40648.08
577.59	40519.35
577.75	40161.25
577.92	39957.63
578.08	40346.15
578.24	40205.72
578.40	40657.45
578.56	40643.40
578.72	40535.74
578.88	40978.10
579.04	40697.24
579.21	40397.65
579.37	40615.32
579.53	40704.26
579.69	40076.99
579.85	40769.79
580.01	40942.99
580.17	40198.70
580.33	40151.89
580.49	40325.09
580.65	40341.47
580.82	40589.57
580.98	40495.95
581.14	40161.25
581.30	40570.85
581.46	40416.37
581.62	40507.65
581.78	40376.58
581.94	40519.35
582.10	40325.09
582.26	40563.82
582.42	39976.35
582.58	40346.15
582.74	40680.85
582.90	40692.55
583.06	40629.36
583.22	40678.51
583.38	40336.79
583.54	40247.85
583.70	40105.08
583.86	40495.95
584.02	40594.25
584.18	40730.00
584.34	40491.27
584.50	40889.16
584.66	40409.35
584.82	40418.71
584.98	40463.18
585.14	40460.84
585.30	40582.55
585.46	40491.27
585.62	40622.34
585.78	40641.06
585.94	40371.90
586.10	40896.18
586.26	40414.03
586.42	41006.19
586.58	40730.00
586.74	40896.18
586.90	40233.81
587.06	40198.70
587.22	41223.86
587.38	40664.47
587.54	41254.28
587.70	41261.30
587.86	40889.16
588.02	40505.31
588.18	40804.90
588.34	41263.64
588.49	40683.19
588.65	40577.87
588.81	40734.68
588.97	40870.43
589.13	40608.29
589.29	40861.07
589.45	40722.98
589.61	40870.43
589.77	41127.89
589.93	40648.08
590.08	40985.12
590.24	41003.85
590.40	40903.20
590.56	41350.24
590.72	40882.14
590.88	40638.72
591.04	40931.29
591.20	40989.80
591.35	41446.21
591.51	41715.37
591.67	41720.05
591.83	41383.01
591.99	40912.56
592.15	40961.72
592.31	40952.35
592.46	40856.39
592.62	40978.10
592.78	41024.91
592.94	41324.50
593.10	41074.06
593.26	41390.03
593.41	41230.88
593.57	41031.93
593.73	41113.85
593.89	41315.14
594.05	41174.70
594.20	40634.04
594.36	41006.19
594.52	40734.68
594.68	40959.38
594.84	40500.63
594.99	41024.91
595.15	41366.63
595.31	41343.22
595.47	41539.83
595.62	41076.40
595.78	40989.80
595.94	40964.06
596.10	40807.24
596.25	40844.69
596.41	40751.07
596.57	40816.60
596.73	41368.97
596.88	41109.17
597.04	40825.96
597.20	40961.72
597.36	41460.25
597.51	41001.50
597.67	41280.03
597.83	41177.04
597.99	41434.50
598.14	41326.84
598.30	41385.35
598.46	41226.20
598.61	41125.55
598.77	41041.29
598.93	41139.60
599.09	40975.76
599.24	41965.81
599.40	41420.46
599.56	41731.75
599.71	41392.37
599.87	41364.29
600.03	41443.87
600.18	40999.16
600.34	41207.47
600.50	40807.24
600.65	41172.36
600.81	41818.35
600.97	41523.44
601.12	41308.11
601.28	41371.31
601.44	41352.58
601.59	41404.08
601.75	41235.56
601.91	41752.82
602.06	41167.68
602.22	41181.73
602.37	41347.90
602.53	41067.04
602.69	41635.79
602.84	40966.40
603.00	41359.61
603.16	41214.49
603.31	41514.08
603.47	41254.28
603.62	40830.65
603.78	40959.38
603.94	41134.92
604.09	41193.43
604.25	40985.12
604.40	41656.85
604.56	41177.04
604.71	41729.41
604.87	41326.84
605.03	41071.72
605.18	40924.27
605.34	41090.44
605.49	40854.05
605.65	41048.32
605.80	40732.34
605.96	41436.84
606.12	41235.56
606.27	42181.13
606.43	41902.61
606.58	41532.81
606.74	41383.01
606.89	41574.94
607.05	41254.28
607.20	40643.40
607.36	40685.53
607.51	41226.20
607.67	41088.10
607.82	41050.66
607.98	41125.55
608.13	41401.74
608.29	41219.17
608.44	41165.34
608.60	41113.85
608.75	41574.94
608.91	41392.37
609.06	41282.37
609.22	41024.91
609.37	40722.98
609.53	40582.55
609.68	40971.08
609.84	40847.03
609.99	41240.24
610.15	41558.55
610.30	41525.78
610.46	41277.69
610.61	41525.78
610.76	41757.50
610.92	41832.39
611.07	41551.53
611.23	41607.70
611.38	42110.92
611.54	42007.94
611.69	42073.47
611.84	41909.63
612.00	41649.83
612.15	41722.39
612.31	41455.57
612.46	41158.32
612.62	41556.21
612.77	40858.73
612.92	41331.52
613.08	40900.86
613.23	40980.44
613.39	40601.27
613.54	40917.25
613.69	41038.95
613.85	40945.33
614.00	40999.16
614.15	41383.01
614.31	40620.00
614.46	41113.85
614.62	40807.24
614.77	40664.47
614.92	40832.99
615.08	40500.63
615.23	40701.92
615.38	40399.99
615.54	40243.17
615.69	40308.71
615.84	40650.42
616.00	40779.15
616.15	39826.56
616.30	40779.15
616.46	40627.02
616.61	40128.48
616.76	40509.99
616.92	39793.79
617.07	40123.80
617.22	40086.36
617.37	39763.36
617.53	39983.37
617.68	39742.30
617.83	39974.01
617.99	40402.33
618.14	40353.18
618.29	40016.14
618.45	40481.91
618.60	39824.22
618.75	39849.96
618.90	39562.08
619.06	39606.55
619.21	39658.04
619.36	39618.25
619.51	39564.42
619.67	39896.77
619.82	39606.55
619.97	39903.79
620.12	39854.64
620.28	39779.74
620.43	40231.47
620.58	40051.25
620.73	39770.38
620.89	39426.32
621.04	39239.08
621.19	39459.09
621.34	39819.53
621.49	39414.62
621.65	39313.98
621.80	39707.19
621.95	39604.20
622.10	39728.25
622.25	39388.88
622.41	39386.54
622.56	38656.29
622.71	39601.86
622.86	39440.37
623.01	39501.22
623.16	39213.34
623.32	39255.46
623.47	39541.01
623.62	39648.68
623.77	39452.07
623.92	39192.27
624.07	39875.71
624.23	39594.84
624.38	39608.89
624.53	39227.38
624.68	39288.23
624.83	39508.24
624.98	39482.50
625.13	38672.67
625.29	39093.97
625.44	39206.31
625.59	39019.07
625.74	38714.80
625.89	39005.03
626.04	38646.93
626.19	38967.58
626.34	38745.23
626.49	39257.81
626.65	38593.09
626.80	38965.24
626.95	38270.10
627.10	37895.61
627.25	38543.94
627.40	38820.13
627.55	38527.56
627.70	38637.56
627.85	38490.11
628.00	38625.86
628.15	38586.07
628.30	38443.30
628.45	38518.20
628.60	38490.11
628.76	38691.40
628.91	38579.05
629.06	38347.34
629.21	38253.72
629.36	38569.69
629.51	38689.06
629.66	38319.25
629.81	38632.88
629.96	38113.28
630.11	38234.99
630.26	38529.90
630.41	38405.85
630.56	38183.50
630.71	38122.65
630.86	38616.50
631.01	38349.68
631.16	38295.85
631.31	37872.21
631.46	37493.04
631.61	38155.41
631.76	38075.84
631.91	38195.20
632.06	37811.35
632.21	37855.82
632.36	37907.32
632.51	37951.79
632.66	37816.04
632.81	37551.56
632.96	38164.78
633.10	37942.42
633.25	37701.35
633.40	37572.62
633.55	37858.17
633.70	37010.89
633.85	37331.54
634.00	37811.35
634.15	37794.97
634.30	37439.21
634.45	37277.71
634.60	37722.41
634.75	37553.90
634.90	37844.12
635.05	37373.67
635.19	37647.52
635.34	37310.48
635.49	37235.58
635.64	37420.48
635.79	37640.50
635.94	37240.26
636.09	37043.66
636.24	37275.37
636.39	37144.30
636.53	37804.33
636.68	37289.42
636.83	36999.19
636.98	37010.89
637.13	36809.61
637.28	37214.52
637.43	37170.05
637.57	37062.38
637.72	36474.91
637.87	36889.18
638.02	36591.94
638.17	36861.10
638.32	36652.79
638.46	36273.62
638.61	36741.73
638.76	36762.79
638.91	37368.99
639.06	36945.36
639.20	37546.87
639.35	36896.20
639.50	36453.84
639.65	36837.69
639.80	36687.90
639.94	36376.61
640.09	36488.95
640.24	36521.72
640.39	36788.54
640.54	36666.83
640.68	36858.76
640.83	36556.83
640.98	36371.92
641.13	36137.87
641.27	36252.56
641.42	36210.43
641.57	36105.10
641.72	36332.14
641.86	36357.88
642.01	35772.75
642.16	35840.62
642.31	36037.23
642.45	35971.69
642.60	36233.83
642.75	36329.80
642.90	36566.19
643.04	35833.60
643.19	36074.68
643.34	36491.29
643.48	36285.33
643.63	36175.32
643.78	35653.38
643.93	35821.90
644.07	36027.87
644.22	36119.15
644.37	35688.49
644.51	36002.12
644.66	35707.21
644.81	35835.94
644.95	36217.45
645.10	35821.90
645.25	35915.52
645.39	35592.53
645.54	35885.09
645.69	35908.50
645.83	35660.40
645.98	35414.65
646.13	35782.11
646.27	35934.24
646.42	35847.64
646.57	35754.02
646.71	35461.46
646.86	35651.04
647.00	35721.26
647.15	35974.03
647.30	35967.01
647.44	35292.94
647.59	35503.59
647.74	35365.49
647.88	35819.56
648.03	35959.99
648.17	35639.34
648.32	34960.58
648.47	35583.16
648.61	34838.87
648.76	35786.79
648.90	35508.27
649.05	35182.93
649.20	35597.21
649.34	35842.96
649.49	35543.38
649.63	35667.42
649.78	35761.05
649.92	34962.92
650.07	35620.61
650.21	35257.83
650.36	35168.89
650.51	35356.13
650.65	35077.61
650.80	35424.01
650.94	35243.79
651.09	35248.47
651.23	35248.47
651.38	35016.75
651.52	35140.80
651.67	34866.96
651.81	35140.80
651.96	35487.20
652.10	35157.19
652.25	34803.77
652.39	35002.71
652.54	34382.47
652.68	34342.68
652.83	34459.71
652.97	34740.57
653.12	34663.33
653.26	34583.76
653.41	35655.72
653.55	34937.18
653.70	34658.65
653.84	34391.83
653.99	34675.04
654.13	35026.12
654.27	34698.44
654.42	34471.41
654.56	34443.32
654.71	34579.07
654.85	34375.45
655.00	34682.06
655.14	34445.66
655.29	34017.35
655.43	34316.93
655.57	33956.49
655.72	34305.23
655.86	34576.73
656.01	33617.11
656.15	33696.69
656.30	33771.59
656.44	34237.36
656.58	34377.79
656.73	34150.76
656.87	34120.33
657.01	34281.83
657.16	34483.11
657.30	34080.54
657.45	33895.64
657.59	33729.46
657.73	33881.60
657.88	33876.91
658.02	34396.51
658.16	34120.33
658.31	34122.67
658.45	34218.63
658.60	33670.95
658.74	33972.88
658.88	33369.02
659.03	33153.69
659.17	33481.36
659.31	33792.65
659.46	33251.99
659.60	33490.73
659.74	33376.04
659.89	33780.95
660.03	33886.28
660.17	33776.27
660.32	33266.03
660.46	32938.36
660.60	33249.65
660.74	33170.07
660.89	32765.16
661.03	32952.40
661.17	33195.82
661.32	33151.35
661.46	32947.72
661.60	33207.52
661.74	32566.21
661.89	32879.85
662.03	32837.72
662.17	32638.77
662.31	33022.62
662.46	32608.34
662.60	32692.60
662.74	32446.85
662.88	32559.19
663.03	32666.86
663.17	32608.34
663.31	32074.70
663.45	32554.51
663.60	32493.66
663.74	32236.20
663.88	32376.63
664.02	32362.59
664.17	32023.21
664.31	31962.36
664.45	31550.42
664.59	31697.88
664.73	32180.03
664.88	31892.14
665.02	31903.84
665.16	31791.50
665.30	31791.50
665.44	31646.38
665.59	31847.67
665.73	31615.96
665.87	31732.98
666.01	31791.50
666.15	31571.49
666.29	31452.12
666.44	31400.63
666.58	31239.13
666.72	31126.78
666.86	31218.07
667.00	31402.97
667.14	30916.14
667.28	31129.12
667.43	31227.43
667.57	31246.15
667.71	31257.85
667.85	31267.22
667.99	31138.49
668.13	31239.13
668.27	30251.42
668.41	31026.14
668.56	30403.56
668.70	30426.96
668.84	30628.25
668.98	30312.28
669.12	30543.99
669.26	30469.09
669.40	30492.50
669.54	30560.37
669.68	30429.30
669.82	30118.01
669.96	30499.52
670.10	30459.73
670.25	30363.77
670.39	30108.65
670.53	29670.97
670.67	29647.57
670.81	30230.36
670.95	29724.80
671.09	29834.81
671.23	29376.06
671.37	29940.13
671.51	30377.81
671.65	29961.20
671.79	29661.61
671.93	29748.21
672.07	29717.78
672.21	29586.71
672.35	29317.55
672.49	29912.05
672.63	29413.51
672.77	29420.53
672.91	29584.37
673.05	29149.03
673.19	28591.98
673.33	28936.04
673.47	28386.02
673.61	28617.73
673.75	28390.70
673.89	28669.22
674.03	28666.88
674.17	28437.51
674.31	28739.44
674.45	28470.28
674.59	29142.01
674.73	28959.45
674.87	28641.14
675.01	28088.77
675.15	28329.84
675.29	28432.83
675.43	28346.23
675.56	28339.21
675.70	27910.89
675.84	27578.53
675.98	26616.57
676.12	27456.82
676.26	27999.83
676.40	27798.54
676.54	27831.31
676.68	27789.18
676.82	26955.95
676.96	27384.27
677.10	27608.96
677.23	27449.80
677.37	27435.76
677.51	27005.10
677.65	27012.12
677.79	26546.36
677.93	26724.24
678.07	26384.86
678.21	26672.74
678.34	26338.05
678.48	26370.82
678.62	26092.29
678.76	26335.71
678.90	26361.45
679.04	26658.70
679.18	26115.70
679.31	25493.12
679.45	26415.29
679.59	26324.01
679.73	26094.63
679.87	25874.62
680.00	25954.20
680.14	25575.03
680.28	25626.53
680.42	25617.16
680.56	25727.17
680.70	25193.53
680.83	25369.07
680.97	25137.35
681.11	25212.25
681.25	24861.17
681.39	25032.03
681.52	24996.92
681.66	24800.32
681.80	24748.82
681.94	24713.72
682.07	24673.93
682.21	24835.42
682.35	24414.13
682.49	24982.88
682.62	24636.48
682.76	24449.24
682.90	24191.78
683.04	23995.17
683.17	23660.48
683.31	23990.49
683.45	23810.27
683.59	23566.85
683.72	23957.72
683.86	23644.09
684.00	23466.21
684.13	23580.90
684.27	23194.71
684.41	23517.70
684.55	23520.04
684.68	23520.04
684.82	23028.53
684.96	22981.72
685.09	23075.34
685.23	23136.20
685.37	23033.21
685.50	23122.15
685.64	22576.81
685.78	22782.77
685.91	22841.29
686.05	22677.45
686.19	22478.50
686.32	22359.14
686.46	22099.34
686.60	22190.62
686.73	22541.70
686.87	22518.29
687.01	22045.51
687.14	21975.29
687.28	22284.24
687.42	21923.80
687.55	21891.03
687.69	21860.60
687.82	21706.13
687.96	21507.18
688.10	21905.07
688.23	21593.78
688.37	21043.76
688.50	21355.05
688.64	21235.68
688.78	21181.85
688.91	21294.19
689.05	21261.43
689.18	21202.91
689.32	20606.08
689.46	20617.78
689.59	20631.82
689.73	20636.50
689.86	20437.56
690.00	20311.17
690.13	20451.60
690.27	20503.09
690.41	20224.57
690.54	20098.18
690.68	19941.36
690.81	20123.93
690.95	20093.50
691.08	20020.94
691.22	19740.08
691.35	19332.82
691.49	19709.65
691.62	19796.25
691.76	19690.93
691.89	19688.59
692.03	19672.20
692.16	19403.04
692.30	19171.33
692.43	19026.21
692.57	19138.56
692.70	19218.14
692.84	19066.00
692.97	18827.27
693.11	18609.60
693.24	18656.41
693.38	18651.73
693.51	18394.27
693.65	18689.18
693.78	18459.81
693.92	18471.51
694.05	18600.24
694.19	18352.14
694.32	18494.91
694.45	18504.28
694.59	18129.79
694.72	17872.33
694.86	17752.96
694.99	17448.69
695.13	17806.80
695.26	17762.33
695.39	17668.70
695.53	17418.27
695.66	17682.75
695.80	17523.59
695.93	17338.69
696.07	16889.31
696.20	17242.73
696.33	17425.29
696.47	16966.54
696.60	16924.41
696.73	17205.28
696.87	16762.92
697.00	17046.12
697.14	16905.69
697.27	16697.38
697.40	16570.99
697.54	16734.83
697.67	16315.87
697.80	16332.26
697.94	16292.47
698.07	16123.95
698.21	16276.09
698.34	16126.29
698.47	16130.97
698.61	15929.69
698.74	16016.29
698.87	15854.79
699.01	15929.69
699.14	15948.41
699.27	15910.96
699.40	15941.39
699.54	16044.37
699.67	15714.36
699.80	15714.36
699.94	15199.44
700.07	15548.18
700.20	15096.46
700.34	14707.93
700.47	15164.33
700.60	15028.58
700.73	15145.61
700.87	15059.01
701.00	14855.38
701.13	15019.22
701.26	14527.71
701.40	14431.74
701.53	14387.27
701.66	14314.72
701.79	14293.65
701.93	14160.24
702.06	14628.35
702.19	14279.61
702.32	14361.53
702.46	14335.78
702.59	14106.41
702.72	14188.33
702.85	14017.47
702.99	13907.46
703.12	13804.48
703.25	13654.69
703.38	13680.43
703.51	13692.13
703.65	13785.76
703.78	13715.54
703.91	13411.27
704.04	13853.63
704.17	13334.03
704.31	13238.07
704.44	13179.56
704.57	13146.79
704.70	13053.17
704.83	12889.33
704.96	12936.14
705.10	12776.98
705.23	12849.54
>>>>>End Processed Spectral Data<<<<<
