SpectraSuite Data File
++++++++++++++++++++++++++++++++++++
Date: Thu Oct 24 13:21:41 EDT 2013
User: stostad
Dark Spectrum Present: No
Reference Spectrum Present: No
Number of Sampled Component Spectra: 1
Spectrometers: USB2+H05261
Integration Time (usec): 100000 (USB2+H05261)
Spectra Averaged: 1 (USB2+H05261)
Boxcar Smoothing: 0 (USB2+H05261)
Correct for Electrical Dark: No (USB2+H05261)
Strobe/Lamp Enabled: No (USB2+H05261)
Correct for Detector Non-linearity: No (USB2+H05261)
Correct for Stray Light: No (USB2+H05261)
Number of Pixels in Processed Spectrum: 2048
>>>>>Begin Processed Spectral Data<<<<<
365.73	634.29
365.92	634.29
366.12	634.29
366.32	517.26
366.52	454.06
366.72	535.98
366.91	463.43
367.11	463.43
367.31	519.60
367.51	454.06
367.70	437.68
367.90	547.69
368.10	437.68
368.30	454.06
368.49	482.15
368.69	526.62
368.89	517.26
369.09	496.19
369.28	517.26
369.48	578.11
369.68	493.85
369.87	550.03
370.07	596.84
370.27	606.20
370.47	800.46
370.66	1401.98
370.86	1500.28
371.06	1462.83
371.25	1572.84
371.45	1493.26
371.65	1540.07
371.84	1479.22
372.04	1577.52
372.24	1584.54
372.44	1582.20
372.63	1633.69
372.83	1724.97
373.03	1671.14
373.22	1605.61
373.42	1694.55
373.62	1720.29
373.81	1802.21
374.01	1834.98
374.21	1717.95
374.40	1797.53
374.60	1839.66
374.79	1734.34
374.99	1764.76
375.19	1863.07
375.38	1809.23
375.58	1778.81
375.78	1858.39
375.97	1849.02
376.17	1940.30
376.37	1844.34
376.56	1914.56
376.76	1867.75
376.95	1930.94
377.15	1937.96
377.35	1940.30
377.54	1959.03
377.74	2003.50
377.93	2031.58
378.13	2019.88
378.33	2019.88
378.52	2062.01
378.72	2132.23
378.91	2003.50
379.11	2106.48
379.31	2031.58
379.50	2076.06
379.70	2111.16
379.89	2183.72
380.09	2092.44
380.28	2160.31
380.48	2122.87
380.68	2118.18
380.87	2155.63
381.07	2162.66
381.26	2211.81
381.46	2307.77
381.65	2183.72
381.85	2251.60
382.04	2216.49
382.24	2246.91
382.43	2335.85
382.63	2293.72
382.83	2221.17
383.02	2462.24
383.22	2466.92
383.41	2422.45
383.61	2335.85
383.80	2377.98
384.00	2415.43
384.19	2495.01
384.39	2324.15
384.58	2541.82
384.78	2605.02
384.97	2480.97
385.17	2661.19
385.36	2466.92
385.56	2499.69
385.75	2476.29
385.95	2628.42
386.14	2520.76
386.34	2586.29
386.53	2614.38
386.72	2513.74
386.92	2766.51
387.11	2647.15
387.31	2733.75
387.50	2717.36
387.70	2654.17
387.89	2766.51
388.09	2693.96
388.28	2801.62
388.48	2764.17
388.67	2869.50
388.86	2813.32
389.06	2963.12
389.25	2843.75
389.45	2916.31
389.64	2920.99
389.84	2850.77
390.03	3005.25
390.22	2963.12
390.42	2995.89
390.61	2895.24
390.81	2892.90
391.00	3061.42
391.19	3084.83
391.39	3129.30
391.58	3117.59
391.78	3155.04
391.97	3185.47
392.16	3208.87
392.36	3281.43
392.55	3258.03
392.75	3251.00
392.94	3302.50
393.13	3349.31
393.33	3323.56
393.52	3379.73
393.71	3384.41
393.91	3335.26
394.10	3398.46
394.29	3426.54
394.49	3463.99
394.68	3459.31
394.88	3452.29
395.07	3555.27
395.26	3618.47
395.46	3585.70
395.65	3588.04
395.84	3602.08
396.04	3686.34
396.23	3749.54
396.42	3719.11
396.62	3794.01
396.81	3824.44
397.00	3623.15
397.19	3669.96
397.39	3765.92
397.58	3819.75
397.77	3857.20
397.97	3854.86
398.16	3995.29
398.35	3831.46
398.55	4014.02
398.74	3969.55
398.93	3978.91
399.12	4128.70
399.32	4093.60
399.51	4044.45
399.70	4166.15
399.90	4105.30
400.09	4217.65
400.28	4255.09
400.47	4194.24
400.67	4269.14
400.86	4215.30
401.05	4329.99
401.24	4280.84
401.44	4430.63
401.63	4503.19
401.82	4421.27
402.01	4507.87
402.21	4552.34
402.40	4638.94
402.59	4566.39
402.78	4615.54
402.97	4629.58
403.17	4585.11
403.36	4465.74
403.55	4669.37
403.74	4709.16
403.93	4980.66
404.13	4945.55
404.32	4971.30
404.51	4809.80
404.70	4954.91
404.89	4938.53
405.09	4959.60
405.28	5193.65
405.47	5111.73
405.66	5078.96
405.85	4940.87
406.05	5151.52
406.24	5284.93
406.43	5263.86
406.62	5270.89
406.81	5451.11
407.00	5242.80
407.20	5266.21
407.39	5327.06
407.58	5392.59
407.77	5504.94
407.96	5427.70
408.15	5469.83
408.34	5430.04
408.54	5724.95
408.73	5755.38
408.92	5570.48
409.11	5720.27
409.30	5809.21
409.49	5668.78
409.68	5834.96
409.87	5846.66
410.07	5853.68
410.26	6087.73
410.45	5884.11
410.64	5954.32
410.83	6069.01
411.02	6230.51
411.21	6253.91
411.40	6171.99
411.59	6328.81
411.78	6324.13
411.98	6218.80
412.17	6438.81
412.36	6607.33
412.55	6551.16
412.74	6497.33
412.93	6658.82
413.12	6590.95
413.31	6888.20
413.50	6897.56
413.69	6782.87
413.88	6871.81
414.07	6909.26
414.26	6986.50
414.45	7197.15
414.64	7030.97
414.83	7136.29
415.02	7122.25
415.22	7428.86
415.41	7417.16
415.60	7288.43
415.79	7644.19
415.98	7630.15
416.17	7721.43
416.36	7576.31
416.55	7728.45
416.74	7868.88
416.93	7672.28
417.12	7922.71
417.31	7995.27
417.50	7969.52
417.69	8257.41
417.88	8334.65
418.07	8194.22
418.26	8283.16
418.45	8304.22
418.64	8449.33
418.83	8400.18
419.02	8493.80
419.21	8760.63
419.39	8610.83
419.58	8531.25
419.77	8465.72
419.96	8566.36
420.15	8718.50
420.34	8676.37
420.53	8872.97
420.72	8833.18
420.91	8971.27
421.10	9095.32
421.29	9287.25
421.48	8961.91
421.67	8905.74
421.86	9090.64
422.05	9050.85
422.24	9179.58
422.43	9296.61
422.61	9177.24
422.80	9444.06
422.99	9233.41
423.18	9460.45
423.37	9537.68
423.56	9312.99
423.75	9385.55
423.94	9221.71
424.13	8762.97
424.32	9158.52
424.50	9490.87
424.69	9731.95
424.88	9549.39
425.07	9268.52
425.26	9252.14
425.45	9277.88
425.64	9399.59
425.83	9394.91
426.01	9495.55
426.20	9577.47
426.39	9825.57
426.58	9638.33
426.77	9415.98
426.96	9675.77
427.15	9626.62
427.33	9973.02
427.52	9788.12
427.71	10008.13
427.90	9818.55
428.09	10052.60
428.28	10038.56
428.46	10202.40
428.65	10087.71
428.84	10579.22
429.03	10513.69
429.22	10143.88
429.40	10335.81
429.59	10464.54
429.78	10296.02
429.97	9834.93
430.16	10516.03
430.34	10827.32
430.53	10794.55
430.72	10614.33
430.91	10668.16
431.10	10647.10
431.28	10932.64
431.47	11054.35
431.66	11269.68
431.85	11012.22
432.03	11178.40
432.22	11307.13
432.41	11349.26
432.60	11147.97
432.79	11377.34
432.97	11534.16
433.16	11367.98
433.35	11510.75
433.54	11566.93
433.72	11543.52
433.91	11824.39
434.10	11538.84
434.28	11454.58
434.47	11793.96
434.66	11957.80
434.85	11836.09
435.03	12205.89
435.22	12187.17
435.41	12383.77
435.59	12444.63
435.78	12219.94
435.97	12428.24
436.16	12180.15
436.34	12353.35
436.53	12353.35
436.72	12596.76
436.90	12264.41
437.09	12531.23
437.28	12159.08
437.46	12458.67
437.65	12535.91
437.84	12849.54
438.02	12837.84
438.21	13011.04
438.40	12760.60
438.58	13233.39
438.77	13366.80
438.96	13184.24
439.14	13514.25
439.33	13809.16
439.52	13769.37
439.70	13750.65
439.89	14207.05
440.08	14265.57
440.26	13888.74
440.45	13951.93
440.63	13909.80
440.82	14574.52
441.01	14326.42
441.19	14548.77
441.38	14815.59
441.57	14490.26
441.75	15016.88
441.94	15063.69
442.12	15222.84
442.31	15374.98
442.50	15501.37
442.68	15302.42
442.87	15484.98
443.05	15550.52
443.24	15676.91
443.43	15529.45
443.61	15461.58
443.80	16147.36
443.98	15719.04
444.17	15115.18
444.35	15737.76
444.54	15950.75
444.73	16067.78
444.91	15791.59
445.10	16229.27
445.28	16182.46
445.47	15779.89
445.65	16039.69
445.84	16416.52
446.02	16233.96
446.21	16182.46
446.39	16175.44
446.58	16409.50
446.77	16060.76
446.95	15704.99
447.14	16290.13
447.32	16496.10
447.51	16240.98
447.69	16128.63
447.88	16123.95
448.06	16336.94
448.25	16269.06
448.43	16453.97
448.62	16521.84
448.80	16482.05
448.99	16952.50
449.17	16856.54
449.36	16847.18
449.54	16945.48
449.73	17399.54
449.91	17612.53
450.10	17057.82
450.28	17795.09
450.46	17451.03
450.65	17745.94
450.83	17441.67
451.02	17633.60
451.20	17762.33
451.39	17558.70
451.57	17666.36
451.76	17528.27
451.94	17706.15
452.13	17963.61
452.31	17891.06
452.49	18033.83
452.68	18143.83
452.86	18139.15
453.05	18176.60
453.23	18441.08
453.42	17914.46
453.60	18118.09
453.78	18757.05
453.97	18132.13
454.15	18274.90
454.34	18448.10
454.52	18738.33
454.70	18623.64
454.89	18668.11
455.07	18794.50
455.26	19129.20
455.44	19185.37
455.62	19381.98
455.81	19384.32
455.99	19183.03
456.17	19669.86
456.36	19396.02
456.54	19721.35
456.73	19784.55
456.91	20334.57
457.09	19997.54
457.28	20505.43
457.46	20072.43
457.64	20437.56
457.83	20250.32
458.01	20100.52
458.19	20788.64
458.38	20329.89
458.56	20732.47
458.74	20592.03
458.93	20802.68
459.11	20858.85
459.29	21160.78
459.48	21106.95
459.66	20699.70
459.84	21076.52
460.03	21664.00
460.21	21593.78
460.39	21291.85
460.57	21451.01
460.76	21724.85
460.94	21949.54
461.12	21715.49
461.31	21710.81
461.49	21736.56
461.67	21741.24
461.85	22272.54
462.04	21921.46
462.22	22504.25
462.40	22661.07
462.59	22373.18
462.77	22501.91
462.95	22504.25
463.13	22651.70
463.32	22497.23
463.50	23042.57
463.68	22464.46
463.86	23119.81
464.05	22478.50
464.23	22717.24
464.41	23524.72
464.59	22998.10
464.78	23644.09
464.96	23433.44
465.14	22927.89
465.32	23433.44
465.50	23882.83
465.69	23747.08
465.87	23531.75
466.05	23510.68
466.23	24161.35
466.41	23807.93
466.60	24549.88
466.78	23924.96
466.96	23992.83
467.14	23903.89
467.32	24334.55
467.51	24797.98
467.69	24032.62
467.87	24252.63
468.05	24556.90
468.23	24109.86
468.41	24479.66
468.60	24940.75
468.78	24947.77
468.96	24561.58
469.14	25158.42
469.32	25682.70
469.50	24863.51
469.69	25525.88
469.87	25507.16
470.05	25493.12
470.23	26260.81
470.41	25734.19
470.59	26333.37
470.77	26003.35
470.95	26071.23
471.14	26707.85
471.32	26019.74
471.50	26859.99
471.68	26328.69
471.86	26682.11
472.04	26757.00
472.22	27564.49
472.40	27281.28
472.58	27068.30
472.77	27885.14
472.95	27922.59
473.13	28423.47
473.31	27388.95
473.49	28060.68
473.67	28037.28
473.85	28285.37
474.03	28673.90
474.21	28758.16
474.39	28989.88
474.57	29153.71
474.75	29247.33
474.93	29551.60
475.12	29380.74
475.30	29940.13
475.48	29319.89
475.66	29991.62
475.84	29907.37
476.02	30721.87
476.20	30614.21
476.38	30862.30
476.56	31498.93
476.74	31395.95
476.92	31108.06
477.10	31510.63
477.28	32070.02
477.46	32402.38
477.64	32030.23
477.82	32767.50
478.00	33579.67
478.18	32673.88
478.36	33638.18
478.54	34235.02
478.72	33956.49
478.90	34698.44
479.08	34246.72
479.26	34923.13
479.44	34888.03
479.62	35288.26
479.80	35644.02
479.98	35742.32
480.16	36535.76
480.34	36287.67
480.52	36933.65
480.70	36828.33
480.88	36479.59
481.06	37027.28
481.24	37340.91
481.41	37893.27
481.59	38464.36
481.77	38527.56
481.95	38976.94
482.13	38747.57
482.31	38815.44
482.49	40076.99
482.67	39824.22
482.85	40243.17
483.03	40346.15
483.21	40910.22
483.39	41116.19
483.57	41317.48
483.74	41254.28
483.92	41876.86
484.10	42183.48
484.28	42717.12
484.46	43564.39
484.64	44055.90
484.82	43728.23
485.00	43931.86
485.18	44130.80
485.35	45113.83
485.53	45167.66
485.71	45464.91
485.89	46185.79
486.07	45677.90
486.25	45883.86
486.43	46347.29
486.61	46588.36
486.78	46894.97
486.96	47742.25
487.14	48041.84
487.32	47929.49
487.50	48245.46
487.68	48451.43
487.85	49062.31
488.03	49556.16
488.21	49947.03
488.39	49769.15
488.57	49963.42
488.75	50312.16
488.92	50614.08
489.10	51082.19
489.28	51477.74
489.46	51835.84
489.64	51613.49
489.81	52222.03
489.99	52308.63
490.17	52619.92
490.35	53017.82
490.53	52722.91
490.70	53272.93
490.88	53439.11
491.06	53923.60
491.24	53797.21
491.41	54101.48
491.59	54686.62
491.77	54291.07
491.95	54550.87
492.13	54747.47
492.30	55145.36
492.48	54990.89
492.66	55334.95
492.84	55669.64
493.01	55735.18
493.19	55955.19
493.37	56175.20
493.54	56156.47
493.72	56505.21
493.90	56624.58
494.08	56830.55
494.25	57113.75
494.43	57027.15
494.61	57525.69
494.79	57387.60
494.96	57315.04
495.14	57621.65
495.32	57942.30
495.49	58089.76
495.67	58368.28
495.85	58611.70
496.02	58527.44
496.20	58557.86
496.38	58740.42
496.55	58869.15
496.73	59330.24
496.91	59040.01
497.09	59384.07
497.26	59288.11
497.44	59299.81
497.62	59634.51
497.79	60191.56
497.97	59842.82
498.14	60294.54
498.32	60261.77
498.50	60346.03
498.67	60673.71
498.85	60470.08
499.03	60605.83
499.20	60729.88
499.38	60931.17
499.56	61006.06
499.73	61176.92
499.91	61127.77
500.08	61488.21
500.26	61279.91
500.44	61439.06
500.61	61600.56
500.79	61392.25
500.97	61719.93
501.14	62218.46
501.32	62092.07
501.49	62031.22
501.67	61975.05
501.84	62330.81
502.02	62260.59
502.20	62351.87
502.37	62614.01
502.55	62471.24
502.72	62504.01
502.90	62752.10
503.07	62796.57
503.25	62852.75
503.43	62768.49
503.60	63128.93
503.78	63252.98
503.95	63154.68
504.13	63241.28
504.30	63295.11
504.48	63250.64
504.65	63449.58
504.83	63568.95
505.01	63655.55
505.18	63592.36
505.36	63910.67
505.53	63739.81
505.71	64027.70
505.88	64196.21
506.06	64053.44
506.23	64219.62
506.41	64100.25
506.58	64207.92
506.76	64322.60
506.93	64610.49
507.11	64451.33
507.28	64711.13
507.46	64727.52
507.63	64891.35
507.81	65134.77
507.98	64718.15
508.16	65020.08
508.33	64905.40
508.50	65343.08
508.68	65254.14
508.85	65504.57
509.03	65340.74
509.20	65387.55
509.38	65535.00
509.55	65535.00
509.73	65535.00
509.90	65535.00
510.08	65535.00
510.25	65535.00
510.42	65535.00
510.60	65535.00
510.77	65535.00
510.95	65535.00
511.12	65535.00
511.30	65535.00
511.47	65535.00
511.64	65535.00
511.82	65535.00
511.99	65535.00
512.17	65535.00
512.34	65535.00
512.51	65535.00
512.69	65535.00
512.86	65535.00
513.04	65535.00
513.21	65535.00
513.38	65535.00
513.56	65535.00
513.73	65535.00
513.90	65535.00
514.08	65535.00
514.25	65535.00
514.43	65535.00
514.60	65535.00
514.77	65535.00
514.95	65535.00
515.12	65535.00
515.29	65535.00
515.47	65535.00
515.64	65535.00
515.81	65535.00
515.99	65535.00
516.16	65535.00
516.33	65535.00
516.51	65535.00
516.68	65535.00
516.85	65535.00
517.03	65535.00
517.20	65535.00
517.37	65535.00
517.54	65535.00
517.72	65535.00
517.89	65535.00
518.06	65535.00
518.24	65535.00
518.41	65535.00
518.58	65535.00
518.75	65535.00
518.93	65535.00
519.10	65535.00
519.27	65535.00
519.45	65535.00
519.62	65535.00
519.79	65535.00
519.96	65535.00
520.14	65535.00
520.31	65535.00
520.48	65535.00
520.65	65535.00
520.83	65535.00
521.00	65535.00
521.17	65535.00
521.34	65535.00
521.52	65535.00
521.69	65535.00
521.86	65535.00
522.03	65535.00
522.20	65535.00
522.38	65535.00
522.55	65535.00
522.72	65535.00
522.89	65535.00
523.07	65535.00
523.24	65535.00
523.41	65535.00
523.58	65535.00
523.75	65535.00
523.92	65535.00
524.10	65535.00
524.27	65535.00
524.44	65535.00
524.61	65535.00
524.78	65535.00
524.96	65535.00
525.13	65535.00
525.30	65535.00
525.47	65535.00
525.64	65535.00
525.81	65535.00
525.98	65535.00
526.16	65535.00
526.33	65535.00
526.50	65535.00
526.67	65535.00
526.84	65535.00
527.01	65535.00
527.18	65535.00
527.36	65535.00
527.53	65535.00
527.70	65535.00
527.87	65535.00
528.04	65535.00
528.21	65535.00
528.38	65535.00
528.55	65535.00
528.72	65535.00
528.89	65535.00
529.07	65535.00
529.24	65535.00
529.41	65535.00
529.58	65535.00
529.75	65535.00
529.92	65535.00
530.09	65535.00
530.26	65535.00
530.43	65535.00
530.60	65535.00
530.77	65535.00
530.94	65535.00
531.11	65535.00
531.28	65535.00
531.46	65535.00
531.63	65535.00
531.80	65535.00
531.97	65535.00
532.14	65535.00
532.31	65535.00
532.48	65535.00
532.65	65535.00
532.82	65535.00
532.99	65535.00
533.16	65535.00
533.33	65535.00
533.50	65535.00
533.67	65535.00
533.84	65535.00
534.01	65535.00
534.18	65535.00
534.35	65535.00
534.52	65535.00
534.69	65535.00
534.86	65535.00
535.03	65535.00
535.20	65535.00
535.37	65535.00
535.54	65535.00
535.71	65535.00
535.88	65535.00
536.05	65535.00
536.22	65535.00
536.38	65535.00
536.55	65535.00
536.72	65535.00
536.89	65535.00
537.06	65535.00
537.23	65535.00
537.40	65535.00
537.57	65535.00
537.74	65535.00
537.91	65535.00
538.08	65535.00
538.25	65535.00
538.42	65535.00
538.59	65535.00
538.75	65535.00
538.92	65535.00
539.09	65535.00
539.26	65535.00
539.43	65535.00
539.60	65535.00
539.77	65535.00
539.94	65535.00
540.11	65535.00
540.28	65535.00
540.44	65535.00
540.61	65535.00
540.78	65535.00
540.95	65535.00
541.12	65535.00
541.29	65535.00
541.46	65535.00
541.62	65535.00
541.79	65535.00
541.96	65535.00
542.13	65535.00
542.30	65535.00
542.47	65535.00
542.63	65535.00
542.80	65535.00
542.97	65535.00
543.14	65535.00
543.31	65535.00
543.48	65535.00
543.64	65535.00
543.81	65535.00
543.98	65535.00
544.15	65535.00
544.32	65535.00
544.48	65535.00
544.65	65535.00
544.82	65535.00
544.99	65535.00
545.16	65535.00
545.32	65535.00
545.49	65535.00
545.66	65535.00
545.83	65535.00
546.00	65535.00
546.16	65535.00
546.33	65535.00
546.50	65535.00
546.67	65535.00
546.83	65535.00
547.00	65535.00
547.17	65535.00
547.34	65535.00
547.50	65535.00
547.67	65535.00
547.84	65535.00
548.00	65535.00
548.17	65535.00
548.34	65535.00
548.51	65535.00
548.67	65535.00
548.84	65535.00
549.01	65535.00
549.18	65535.00
549.34	65535.00
549.51	65535.00
549.68	65535.00
549.84	65535.00
550.01	65535.00
550.18	65535.00
550.34	65535.00
550.51	65535.00
550.68	65535.00
550.84	65535.00
551.01	65535.00
551.18	65535.00
551.34	65535.00
551.51	65535.00
551.68	65535.00
551.84	65535.00
552.01	65535.00
552.18	65535.00
552.34	65535.00
552.51	65535.00
552.68	65535.00
552.84	65535.00
553.01	65535.00
553.18	65535.00
553.34	65535.00
553.51	65535.00
553.67	65535.00
553.84	65535.00
554.01	65535.00
554.17	65535.00
554.34	65535.00
554.51	65535.00
554.67	65535.00
554.84	65535.00
555.00	65535.00
555.17	65535.00
555.33	65535.00
555.50	65535.00
555.67	65535.00
555.83	65535.00
556.00	65535.00
556.16	65535.00
556.33	65535.00
556.50	65535.00
556.66	65535.00
556.83	65535.00
556.99	65535.00
557.16	65535.00
557.32	65535.00
557.49	65535.00
557.65	65535.00
557.82	65535.00
557.98	65535.00
558.15	65535.00
558.32	65535.00
558.48	65535.00
558.65	65535.00
558.81	65535.00
558.98	65535.00
559.14	65535.00
559.31	65535.00
559.47	65535.00
559.64	65535.00
559.80	65535.00
559.97	65535.00
560.13	65535.00
560.30	65535.00
560.46	65535.00
560.63	65535.00
560.79	65535.00
560.96	65535.00
561.12	65535.00
561.29	65535.00
561.45	65535.00
561.61	65535.00
561.78	65535.00
561.94	65535.00
562.11	65535.00
562.27	65535.00
562.44	65535.00
562.60	65535.00
562.77	65535.00
562.93	65535.00
563.10	65535.00
563.26	65535.00
563.42	65535.00
563.59	65535.00
563.75	65535.00
563.92	65535.00
564.08	65535.00
564.24	65535.00
564.41	65535.00
564.57	65535.00
564.74	65535.00
564.90	65535.00
565.07	65535.00
565.23	65535.00
565.39	65535.00
565.56	65535.00
565.72	65535.00
565.88	65535.00
566.05	65535.00
566.21	65535.00
566.38	65535.00
566.54	65535.00
566.70	65535.00
566.87	65535.00
567.03	65535.00
567.19	65535.00
567.36	65535.00
567.52	65535.00
567.68	65535.00
567.85	65535.00
568.01	65535.00
568.17	65535.00
568.34	65535.00
568.50	65535.00
568.66	65535.00
568.83	65535.00
568.99	65535.00
569.15	65535.00
569.32	65535.00
569.48	65535.00
569.64	65535.00
569.81	65535.00
569.97	65535.00
570.13	65535.00
570.30	65535.00
570.46	65535.00
570.62	65535.00
570.78	65535.00
570.95	65535.00
571.11	65535.00
571.27	65535.00
571.43	65535.00
571.60	65535.00
571.76	65535.00
571.92	65535.00
572.09	65535.00
572.25	65535.00
572.41	65535.00
572.57	65535.00
572.74	65535.00
572.90	65535.00
573.06	65535.00
573.22	65535.00
573.38	65535.00
573.55	65535.00
573.71	65535.00
573.87	65535.00
574.03	65535.00
574.20	65535.00
574.36	65535.00
574.52	65535.00
574.68	65535.00
574.84	65535.00
575.01	65535.00
575.17	65535.00
575.33	65535.00
575.49	65535.00
575.65	65535.00
575.82	65535.00
575.98	65535.00
576.14	65535.00
576.30	65535.00
576.46	65535.00
576.62	65535.00
576.79	65535.00
576.95	65535.00
577.11	65535.00
577.27	65535.00
577.43	65535.00
577.59	65535.00
577.75	65535.00
577.92	65535.00
578.08	65535.00
578.24	65535.00
578.40	65535.00
578.56	65535.00
578.72	65535.00
578.88	65535.00
579.04	65535.00
579.21	65535.00
579.37	65535.00
579.53	65535.00
579.69	65535.00
579.85	65535.00
580.01	65535.00
580.17	65535.00
580.33	65535.00
580.49	65535.00
580.65	65535.00
580.82	65535.00
580.98	65535.00
581.14	65535.00
581.30	65535.00
581.46	65535.00
581.62	65535.00
581.78	65535.00
581.94	65535.00
582.10	65535.00
582.26	65535.00
582.42	65535.00
582.58	65535.00
582.74	65535.00
582.90	65535.00
583.06	65535.00
583.22	65535.00
583.38	65535.00
583.54	65535.00
583.70	65535.00
583.86	65535.00
584.02	65535.00
584.18	65535.00
584.34	65535.00
584.50	65535.00
584.66	65535.00
584.82	65535.00
584.98	65535.00
585.14	65535.00
585.30	65535.00
585.46	65535.00
585.62	65535.00
585.78	65535.00
585.94	65535.00
586.10	65535.00
586.26	65535.00
586.42	65535.00
586.58	65535.00
586.74	65535.00
586.90	65535.00
587.06	65535.00
587.22	65535.00
587.38	65535.00
587.54	65535.00
587.70	65535.00
587.86	65535.00
588.02	65535.00
588.18	65535.00
588.34	65535.00
588.49	65535.00
588.65	65535.00
588.81	65535.00
588.97	65535.00
589.13	65535.00
589.29	65535.00
589.45	65535.00
589.61	65535.00
589.77	65535.00
589.93	65535.00
590.08	65535.00
590.24	65535.00
590.40	65535.00
590.56	65535.00
590.72	65535.00
590.88	65535.00
591.04	65535.00
591.20	65535.00
591.35	65535.00
591.51	65535.00
591.67	65535.00
591.83	65535.00
591.99	65535.00
592.15	65535.00
592.31	65535.00
592.46	65535.00
592.62	65535.00
592.78	65535.00
592.94	65535.00
593.10	65535.00
593.26	65535.00
593.41	65535.00
593.57	65535.00
593.73	65535.00
593.89	65535.00
594.05	65535.00
594.20	65535.00
594.36	65535.00
594.52	65535.00
594.68	65535.00
594.84	65535.00
594.99	65535.00
595.15	65535.00
595.31	65535.00
595.47	65535.00
595.62	65535.00
595.78	65535.00
595.94	65535.00
596.10	65535.00
596.25	65535.00
596.41	65535.00
596.57	65535.00
596.73	65535.00
596.88	65535.00
597.04	65535.00
597.20	65535.00
597.36	65535.00
597.51	65535.00
597.67	65535.00
597.83	65535.00
597.99	65535.00
598.14	65535.00
598.30	65535.00
598.46	65535.00
598.61	65535.00
598.77	65535.00
598.93	65535.00
599.09	65535.00
599.24	65535.00
599.40	65535.00
599.56	65535.00
599.71	65535.00
599.87	65535.00
600.03	65535.00
600.18	65535.00
600.34	65535.00
600.50	65535.00
600.65	65535.00
600.81	65535.00
600.97	65535.00
601.12	65535.00
601.28	65535.00
601.44	65535.00
601.59	65535.00
601.75	65535.00
601.91	65535.00
602.06	65535.00
602.22	65535.00
602.37	65535.00
602.53	65535.00
602.69	65535.00
602.84	65535.00
603.00	65535.00
603.16	65535.00
603.31	65535.00
603.47	65535.00
603.62	65535.00
603.78	65535.00
603.94	65535.00
604.09	65535.00
604.25	65535.00
604.40	65535.00
604.56	65535.00
604.71	65535.00
604.87	65535.00
605.03	65535.00
605.18	65535.00
605.34	65535.00
605.49	65535.00
605.65	65535.00
605.80	65535.00
605.96	65535.00
606.12	65535.00
606.27	65535.00
606.43	65535.00
606.58	65535.00
606.74	65535.00
606.89	65535.00
607.05	65535.00
607.20	65535.00
607.36	65535.00
607.51	65535.00
607.67	65535.00
607.82	65535.00
607.98	65535.00
608.13	65535.00
608.29	65535.00
608.44	65535.00
608.60	65535.00
608.75	65535.00
608.91	65535.00
609.06	65535.00
609.22	65535.00
609.37	65535.00
609.53	65535.00
609.68	65535.00
609.84	65535.00
609.99	65535.00
610.15	65535.00
610.30	65535.00
610.46	65535.00
610.61	65535.00
610.76	65535.00
610.92	65535.00
611.07	65535.00
611.23	65535.00
611.38	65535.00
611.54	65535.00
611.69	65535.00
611.84	65535.00
612.00	65535.00
612.15	65535.00
612.31	65535.00
612.46	65535.00
612.62	65535.00
612.77	65535.00
612.92	65535.00
613.08	65535.00
613.23	65535.00
613.39	65535.00
613.54	65535.00
613.69	65535.00
613.85	65535.00
614.00	65535.00
614.15	65535.00
614.31	65535.00
614.46	65535.00
614.62	65535.00
614.77	65535.00
614.92	65535.00
615.08	65535.00
615.23	65535.00
615.38	65535.00
615.54	65535.00
615.69	65535.00
615.84	65535.00
616.00	65535.00
616.15	65535.00
616.30	65535.00
616.46	65535.00
616.61	65535.00
616.76	65535.00
616.92	65535.00
617.07	65535.00
617.22	65535.00
617.37	65535.00
617.53	65535.00
617.68	65535.00
617.83	65535.00
617.99	65535.00
618.14	65535.00
618.29	65535.00
618.45	65535.00
618.60	65535.00
618.75	65535.00
618.90	65535.00
619.06	65535.00
619.21	65535.00
619.36	65535.00
619.51	65535.00
619.67	65535.00
619.82	65535.00
619.97	65535.00
620.12	65535.00
620.28	65535.00
620.43	65535.00
620.58	65535.00
620.73	65535.00
620.89	65535.00
621.04	65535.00
621.19	65535.00
621.34	65535.00
621.49	65535.00
621.65	65535.00
621.80	65535.00
621.95	65535.00
622.10	65535.00
622.25	65535.00
622.41	65535.00
622.56	65535.00
622.71	65535.00
622.86	65535.00
623.01	65535.00
623.16	65535.00
623.32	65535.00
623.47	65535.00
623.62	65535.00
623.77	65535.00
623.92	65535.00
624.07	65535.00
624.23	65535.00
624.38	65535.00
624.53	65535.00
624.68	65535.00
624.83	65535.00
624.98	65535.00
625.13	65535.00
625.29	65535.00
625.44	65535.00
625.59	65535.00
625.74	65535.00
625.89	65535.00
626.04	65535.00
626.19	65535.00
626.34	65535.00
626.49	65535.00
626.65	65535.00
626.80	65535.00
626.95	65535.00
627.10	65535.00
627.25	65535.00
627.40	65535.00
627.55	65535.00
627.70	65535.00
627.85	65535.00
628.00	65535.00
628.15	65535.00
628.30	65535.00
628.45	65535.00
628.60	65535.00
628.76	65535.00
628.91	65535.00
629.06	65535.00
629.21	65535.00
629.36	65535.00
629.51	65535.00
629.66	65535.00
629.81	65535.00
629.96	65535.00
630.11	65535.00
630.26	65535.00
630.41	65535.00
630.56	65535.00
630.71	65535.00
630.86	65535.00
631.01	65535.00
631.16	65535.00
631.31	65535.00
631.46	65535.00
631.61	65535.00
631.76	65535.00
631.91	65535.00
632.06	65535.00
632.21	65535.00
632.36	65535.00
632.51	65535.00
632.66	65535.00
632.81	65535.00
632.96	65535.00
633.10	65535.00
633.25	65535.00
633.40	65535.00
633.55	65535.00
633.70	65535.00
633.85	65535.00
634.00	65535.00
634.15	65535.00
634.30	65535.00
634.45	65535.00
634.60	65535.00
634.75	65535.00
634.90	65535.00
635.05	65535.00
635.19	65535.00
635.34	65535.00
635.49	65535.00
635.64	65535.00
635.79	65535.00
635.94	65535.00
636.09	65535.00
636.24	65535.00
636.39	65535.00
636.53	65535.00
636.68	65535.00
636.83	65535.00
636.98	65535.00
637.13	65535.00
637.28	65535.00
637.43	65535.00
637.57	65535.00
637.72	65535.00
637.87	65535.00
638.02	65535.00
638.17	65535.00
638.32	65535.00
638.46	65535.00
638.61	65535.00
638.76	65535.00
638.91	65535.00
639.06	65535.00
639.20	65535.00
639.35	65535.00
639.50	65535.00
639.65	65535.00
639.80	65535.00
639.94	65535.00
640.09	65535.00
640.24	65535.00
640.39	65535.00
640.54	65535.00
640.68	65535.00
640.83	65535.00
640.98	65535.00
641.13	65535.00
641.27	65535.00
641.42	65535.00
641.57	65535.00
641.72	65535.00
641.86	65535.00
642.01	65535.00
642.16	65535.00
642.31	65535.00
642.45	65535.00
642.60	65535.00
642.75	65535.00
642.90	65535.00
643.04	65535.00
643.19	65535.00
643.34	65535.00
643.48	65535.00
643.63	65535.00
643.78	65535.00
643.93	65535.00
644.07	65535.00
644.22	65535.00
644.37	65535.00
644.51	65535.00
644.66	65535.00
644.81	65535.00
644.95	65535.00
645.10	65535.00
645.25	65535.00
645.39	65535.00
645.54	65535.00
645.69	65535.00
645.83	65535.00
645.98	65535.00
646.13	65535.00
646.27	65535.00
646.42	65535.00
646.57	65535.00
646.71	65535.00
646.86	65535.00
647.00	65535.00
647.15	65535.00
647.30	65535.00
647.44	65535.00
647.59	65535.00
647.74	65535.00
647.88	65535.00
648.03	65535.00
648.17	65535.00
648.32	65535.00
648.47	65535.00
648.61	65535.00
648.76	65535.00
648.90	65535.00
649.05	65535.00
649.20	65535.00
649.34	65535.00
649.49	65535.00
649.63	65535.00
649.78	65535.00
649.92	65535.00
650.07	65535.00
650.21	65535.00
650.36	65535.00
650.51	65535.00
650.65	65535.00
650.80	65535.00
650.94	65535.00
651.09	65535.00
651.23	65535.00
651.38	65535.00
651.52	65535.00
651.67	65535.00
651.81	65535.00
651.96	65535.00
652.10	65535.00
652.25	65535.00
652.39	65535.00
652.54	65535.00
652.68	65535.00
652.83	65535.00
652.97	65535.00
653.12	65535.00
653.26	65535.00
653.41	65535.00
653.55	65535.00
653.70	65535.00
653.84	65535.00
653.99	65535.00
654.13	65535.00
654.27	65535.00
654.42	65535.00
654.56	65535.00
654.71	65535.00
654.85	65535.00
655.00	65535.00
655.14	65535.00
655.29	65535.00
655.43	65535.00
655.57	65535.00
655.72	65535.00
655.86	65535.00
656.01	65535.00
656.15	65535.00
656.30	65535.00
656.44	65535.00
656.58	65535.00
656.73	65535.00
656.87	65535.00
657.01	65535.00
657.16	65535.00
657.30	65535.00
657.45	65535.00
657.59	65535.00
657.73	65535.00
657.88	65535.00
658.02	65535.00
658.16	65535.00
658.31	65535.00
658.45	65535.00
658.60	65535.00
658.74	65535.00
658.88	65535.00
659.03	65535.00
659.17	65535.00
659.31	65535.00
659.46	65535.00
659.60	65535.00
659.74	65535.00
659.89	65535.00
660.03	65535.00
660.17	65535.00
660.32	65535.00
660.46	65535.00
660.60	65535.00
660.74	65535.00
660.89	65535.00
661.03	65535.00
661.17	65535.00
661.32	65535.00
661.46	65535.00
661.60	65535.00
661.74	65535.00
661.89	65535.00
662.03	65535.00
662.17	65535.00
662.31	65535.00
662.46	65535.00
662.60	65535.00
662.74	65535.00
662.88	65535.00
663.03	65535.00
663.17	65535.00
663.31	65535.00
663.45	65535.00
663.60	65535.00
663.74	65535.00
663.88	65535.00
664.02	65535.00
664.17	65535.00
664.31	65535.00
664.45	65535.00
664.59	65535.00
664.73	65535.00
664.88	65535.00
665.02	65535.00
665.16	65535.00
665.30	65535.00
665.44	65535.00
665.59	65535.00
665.73	65535.00
665.87	65535.00
666.01	65535.00
666.15	65535.00
666.29	65535.00
666.44	65535.00
666.58	65535.00
666.72	65535.00
666.86	65535.00
667.00	65535.00
667.14	65535.00
667.28	65535.00
667.43	65535.00
667.57	65535.00
667.71	65535.00
667.85	65535.00
667.99	65535.00
668.13	65535.00
668.27	65535.00
668.41	65535.00
668.56	65535.00
668.70	65535.00
668.84	65535.00
668.98	65535.00
669.12	65535.00
669.26	65535.00
669.40	65535.00
669.54	65535.00
669.68	65535.00
669.82	65535.00
669.96	65535.00
670.10	65535.00
670.25	65535.00
670.39	65535.00
670.53	65535.00
670.67	65535.00
670.81	65535.00
670.95	65535.00
671.09	65535.00
671.23	65535.00
671.37	65535.00
671.51	65535.00
671.65	65535.00
671.79	65535.00
671.93	65535.00
672.07	65535.00
672.21	65535.00
672.35	65535.00
672.49	65535.00
672.63	65535.00
672.77	65535.00
672.91	65535.00
673.05	65535.00
673.19	65535.00
673.33	65535.00
673.47	65535.00
673.61	65535.00
673.75	65535.00
673.89	65535.00
674.03	65535.00
674.17	65535.00
674.31	65535.00
674.45	65535.00
674.59	65535.00
674.73	65535.00
674.87	65535.00
675.01	65535.00
675.15	65535.00
675.29	65535.00
675.43	65535.00
675.56	65535.00
675.70	65535.00
675.84	65535.00
675.98	65535.00
676.12	65535.00
676.26	65535.00
676.40	65535.00
676.54	65535.00
676.68	65535.00
676.82	65535.00
676.96	65535.00
677.10	65535.00
677.23	65535.00
677.37	65535.00
677.51	65535.00
677.65	65535.00
677.79	65535.00
677.93	65535.00
678.07	65535.00
678.21	65535.00
678.34	65535.00
678.48	65535.00
678.62	65535.00
678.76	65535.00
678.90	65535.00
679.04	65535.00
679.18	65535.00
679.31	65535.00
679.45	65535.00
679.59	65535.00
679.73	65535.00
679.87	65535.00
680.00	65535.00
680.14	65535.00
680.28	65535.00
680.42	65535.00
680.56	65535.00
680.70	65535.00
680.83	65535.00
680.97	65535.00
681.11	65535.00
681.25	65535.00
681.39	65535.00
681.52	65535.00
681.66	65535.00
681.80	65535.00
681.94	65535.00
682.07	65535.00
682.21	65535.00
682.35	65535.00
682.49	65535.00
682.62	65535.00
682.76	65535.00
682.90	65535.00
683.04	65535.00
683.17	65535.00
683.31	65535.00
683.45	65535.00
683.59	65535.00
683.72	65535.00
683.86	65535.00
684.00	65535.00
684.13	65535.00
684.27	65535.00
684.41	65535.00
684.55	65535.00
684.68	65535.00
684.82	65535.00
684.96	65535.00
685.09	65535.00
685.23	65535.00
685.37	65535.00
685.50	65535.00
685.64	65535.00
685.78	65535.00
685.91	65535.00
686.05	65535.00
686.19	65535.00
686.32	65535.00
686.46	65535.00
686.60	65535.00
686.73	65535.00
686.87	65535.00
687.01	65535.00
687.14	65535.00
687.28	65535.00
687.42	65535.00
687.55	65535.00
687.69	65535.00
687.82	65535.00
687.96	65535.00
688.10	65535.00
688.23	65535.00
688.37	65535.00
688.50	65535.00
688.64	65535.00
688.78	65535.00
688.91	65535.00
689.05	65535.00
689.18	65535.00
689.32	65535.00
689.46	65535.00
689.59	65535.00
689.73	65535.00
689.86	65535.00
690.00	65535.00
690.13	65535.00
690.27	65535.00
690.41	65535.00
690.54	65535.00
690.68	65535.00
690.81	65535.00
690.95	65535.00
691.08	65535.00
691.22	65535.00
691.35	65535.00
691.49	65535.00
691.62	65535.00
691.76	65535.00
691.89	65535.00
692.03	65535.00
692.16	65535.00
692.30	65396.91
692.43	65357.12
692.57	65242.43
692.70	65151.15
692.84	64963.91
692.97	64945.18
693.11	65017.74
693.24	64860.93
693.38	64636.23
693.51	64830.50
693.65	64650.28
693.78	64619.85
693.92	64563.68
694.05	64617.51
694.19	64647.94
694.32	64420.90
694.45	64334.31
694.59	64067.48
694.72	63882.58
694.86	64086.21
694.99	63587.67
695.13	63531.50
695.26	63428.52
695.39	63175.74
695.53	63421.50
695.66	63142.97
695.80	62946.37
695.93	63185.10
696.07	62925.30
696.20	63018.92
696.33	63093.82
696.47	62897.22
696.60	62976.79
696.73	62845.72
696.87	62972.11
697.00	62705.29
697.14	62326.13
697.27	62138.88
697.40	62092.07
697.54	62063.99
697.67	61654.39
697.80	61635.67
697.94	61659.07
698.07	61326.72
698.21	61207.35
698.34	61153.52
698.47	61130.11
698.61	61066.92
698.74	61172.24
698.87	61120.75
699.01	60884.36
699.14	60863.29
699.27	60952.23
699.40	60851.59
699.54	60678.39
699.67	60481.78
699.80	60406.89
699.94	60168.15
700.07	60121.34
700.20	59964.52
700.34	59664.94
700.47	59847.50
700.60	59519.82
700.73	59646.21
700.87	59257.68
701.00	59175.76
701.13	59440.24
701.26	59208.53
701.40	59512.80
701.53	59164.06
701.66	59238.96
701.79	58958.09
701.93	58808.30
702.06	58607.01
702.19	58506.37
702.32	58604.67
702.46	58225.51
702.59	58246.57
702.72	57918.90
702.85	58059.33
702.99	58007.84
703.12	57499.94
703.25	57443.77
703.38	57064.60
703.51	57237.80
703.65	56945.23
703.78	56837.57
703.91	56987.36
704.04	56982.68
704.17	56736.93
704.31	56807.14
704.44	56671.39
704.57	56687.78
704.70	56657.35
704.83	56172.86
704.96	55927.10
705.10	56093.28
705.23	55924.76
>>>>>End Processed Spectral Data<<<<<
