SpectraSuite Data File
++++++++++++++++++++++++++++++++++++
Date: Thu Oct 24 13:21:40 EDT 2013
User: stostad
Dark Spectrum Present: No
Reference Spectrum Present: No
Number of Sampled Component Spectra: 1
Spectrometers: USB2+H05261
Integration Time (usec): 100000 (USB2+H05261)
Spectra Averaged: 1 (USB2+H05261)
Boxcar Smoothing: 0 (USB2+H05261)
Correct for Electrical Dark: No (USB2+H05261)
Strobe/Lamp Enabled: No (USB2+H05261)
Correct for Detector Non-linearity: No (USB2+H05261)
Correct for Stray Light: No (USB2+H05261)
Number of Pixels in Processed Spectrum: 2048
>>>>>Begin Processed Spectral Data<<<<<
365.73	524.28
365.92	524.28
366.12	524.28
366.32	507.90
366.52	484.49
366.72	468.11
366.91	470.45
367.11	540.66
367.31	463.43
367.51	531.30
367.70	507.90
367.90	552.37
368.10	454.06
368.30	512.58
368.49	444.70
368.69	528.96
368.89	517.26
369.09	533.64
369.28	578.11
369.48	496.19
369.68	571.09
369.87	596.84
370.07	547.69
370.27	503.22
370.47	805.14
370.66	1390.28
370.86	1493.26
371.06	1537.73
371.25	1544.75
371.45	1542.41
371.65	1526.03
371.84	1586.88
372.04	1621.99
372.24	1568.16
372.44	1664.12
372.63	1603.27
372.83	1668.80
373.03	1640.72
373.22	1631.35
373.42	1692.21
373.62	1659.44
373.81	1769.44
374.01	1657.10
374.21	1739.02
374.40	1825.62
374.60	1778.81
374.79	1671.14
374.99	1689.87
375.19	1832.64
375.38	1797.53
375.58	1802.21
375.78	1919.24
375.97	1933.28
376.17	2008.18
376.37	1975.41
376.56	1987.11
376.76	1865.41
376.95	1919.24
377.15	2005.84
377.35	1947.33
377.54	1928.60
377.74	1942.64
377.93	2005.84
378.13	2003.50
378.33	2157.97
378.52	1942.64
378.72	2122.87
378.91	2036.27
379.11	2069.03
379.31	2148.61
379.50	1987.11
379.70	2167.34
379.89	2118.18
380.09	2106.48
380.28	2132.23
380.48	2141.59
380.68	2174.36
380.87	2193.08
381.07	2242.23
381.26	2333.51
381.46	2340.54
381.65	2279.68
381.85	2331.17
382.04	2242.23
382.24	2300.75
382.43	2408.41
382.63	2193.08
382.83	2368.62
383.02	2349.90
383.22	2420.11
383.41	2380.32
383.61	2429.48
383.80	2445.86
384.00	2345.22
384.19	2452.88
384.39	2534.80
384.58	2621.40
384.78	2466.92
384.97	2511.39
385.17	2478.63
385.36	2487.99
385.56	2689.28
385.75	2558.21
385.95	2602.68
386.14	2548.84
386.34	2581.61
386.53	2616.72
386.72	2644.81
386.92	2663.53
387.11	2677.57
387.31	2668.21
387.50	2736.09
387.70	2668.21
387.89	2754.81
388.09	2792.26
388.28	2747.79
388.48	2782.90
388.67	2836.73
388.86	2792.26
389.06	2839.07
389.25	2923.33
389.45	2892.90
389.64	2981.84
389.84	2930.35
390.03	3000.57
390.22	2935.03
390.42	2913.97
390.61	3091.85
390.81	3023.97
391.00	3042.70
391.19	3126.96
391.39	3169.09
391.58	3155.04
391.78	3084.83
391.97	3272.07
392.16	3145.68
392.36	3272.07
392.55	3164.40
392.75	3365.69
392.94	3213.56
393.13	3325.90
393.33	3407.82
393.52	3382.07
393.71	3356.33
393.91	3494.42
394.10	3438.25
394.29	3372.71
394.49	3517.83
394.68	3574.00
394.88	3510.80
395.07	3609.11
395.26	3529.53
395.46	3487.40
395.65	3637.19
395.84	3705.07
396.04	3646.55
396.23	3730.81
396.42	3712.09
396.62	3779.97
396.81	3840.82
397.00	3712.09
397.19	3911.04
397.39	3918.06
397.58	3922.74
397.77	3918.06
397.97	3978.91
398.16	3904.01
398.35	3875.93
398.55	3913.38
398.74	4016.36
398.93	4131.05
399.12	4079.55
399.32	4088.92
399.51	4002.32
399.70	4318.29
399.90	4067.85
400.09	4259.78
400.28	4215.30
400.47	4217.65
400.67	4325.31
400.86	4421.27
401.05	4250.41
401.24	4461.06
401.44	4243.39
401.63	4493.83
401.82	4397.87
402.01	4297.22
402.21	4491.49
402.40	4500.85
402.59	4599.15
402.78	4535.96
402.97	4615.54
403.17	4671.71
403.36	4702.14
403.55	4802.78
403.74	4873.00
403.93	4908.10
404.13	4945.55
404.32	4795.76
404.51	4837.89
404.70	5053.22
404.89	5064.92
405.09	4980.66
405.28	5071.94
405.47	5011.09
405.66	4975.98
405.85	5093.01
406.05	5193.65
406.24	5193.65
406.43	5226.42
406.62	5298.97
406.81	5385.57
407.00	5165.56
407.20	5170.24
407.39	5362.17
407.58	5390.25
407.77	5533.03
407.96	5542.39
408.15	5523.66
408.34	5432.38
408.54	5645.37
408.73	5514.30
408.92	5661.76
409.11	5596.22
409.30	5909.85
409.49	5657.07
409.68	5898.15
409.87	5923.90
410.07	6052.63
410.26	5998.79
410.45	5774.10
410.64	5961.34
410.83	6052.63
411.02	6108.80
411.21	6246.89
411.40	6127.52
411.59	6253.91
411.78	6431.79
411.98	6518.39
412.17	6565.20
412.36	6532.44
412.55	6506.69
412.74	6670.53
412.93	6703.29
413.12	6579.25
413.31	6785.21
413.50	6827.34
413.69	6963.09
413.88	7028.63
414.07	6953.73
414.26	7052.03
414.45	7063.74
414.64	7112.89
414.83	7274.38
415.02	7337.58
415.22	7426.52
415.41	7417.16
415.60	7522.48
415.79	7588.02
415.98	7744.83
416.17	7782.28
416.36	7698.02
416.55	7747.17
416.74	7962.50
416.93	7791.64
417.12	7913.35
417.31	7974.21
417.50	8013.99
417.69	8105.28
417.88	8163.79
418.07	8116.98
418.26	8224.64
418.45	8390.82
418.64	8575.72
418.83	8451.67
419.02	8610.83
419.21	8681.05
419.39	8566.36
419.58	8594.45
419.77	8559.34
419.96	8767.65
420.15	8777.01
420.34	8706.79
420.53	8767.65
420.72	8968.93
420.91	8856.59
421.10	8905.74
421.29	9076.60
421.48	8929.14
421.67	9172.56
421.86	9172.56
422.05	9046.17
422.24	9104.68
422.43	9296.61
422.61	9277.88
422.80	9291.93
422.99	9291.93
423.18	9399.59
423.37	9345.76
423.56	9320.01
423.75	9551.73
423.94	9245.12
424.13	8767.65
424.32	8997.02
424.50	9577.47
424.69	9717.90
424.88	9650.03
425.07	9563.43
425.26	9371.50
425.45	9425.34
425.64	9366.82
425.83	9338.74
426.01	9600.88
426.20	9738.97
426.39	9757.69
426.58	9507.26
426.77	9586.83
426.96	9966.00
427.15	9743.65
427.33	9998.77
427.52	9717.90
427.71	10087.71
427.90	9916.85
428.09	9781.10
428.28	10040.90
428.46	10157.92
428.65	10195.37
428.84	10389.64
429.03	10417.72
429.22	10293.68
429.40	10359.21
429.59	10413.04
429.78	10085.37
429.97	10071.33
430.16	10459.85
430.34	10710.29
430.53	10588.58
430.72	10787.53
430.91	10611.99
431.10	10853.06
431.28	11052.01
431.47	11070.73
431.66	11056.69
431.85	11215.85
432.03	11243.93
432.22	11470.97
432.41	11222.87
432.60	11150.31
432.79	11293.08
432.97	11405.43
433.16	11419.47
433.35	11323.51
433.54	11625.44
433.72	11531.82
433.91	11595.01
434.10	11613.74
434.28	11477.99
434.47	11798.64
434.66	11737.79
434.85	12035.03
435.03	12112.27
435.22	12269.09
435.41	12491.44
435.59	12428.24
435.78	12521.87
435.97	12217.60
436.16	12365.05
436.34	12353.35
436.53	12484.42
436.72	12727.83
436.90	12395.48
437.09	12924.44
437.28	12355.69
437.46	12468.03
437.65	12531.23
437.84	12800.39
438.02	13022.74
438.21	13177.22
438.40	12835.50
438.58	13238.07
438.77	13521.27
438.96	13425.31
439.14	13584.47
439.33	13488.51
439.52	13888.74
439.70	13912.14
439.89	14164.92
440.08	13886.40
440.26	14108.75
440.45	14216.41
440.63	14466.85
440.82	14651.75
441.01	14352.16
441.19	14705.59
441.38	14565.15
441.57	14740.69
441.75	14951.34
441.94	15131.56
442.12	15091.77
442.31	15297.74
442.50	15300.08
442.68	15239.23
442.87	15424.13
443.05	15337.53
443.24	15707.34
443.43	15646.48
443.61	15651.16
443.80	16276.09
443.98	15302.42
444.17	15037.94
444.35	15569.24
444.54	16013.95
444.73	15719.04
444.91	15917.98
445.10	16102.89
445.28	15957.77
445.47	16212.89
445.65	15693.29
445.84	16250.34
446.02	16465.67
446.21	16154.38
446.39	16051.39
446.58	16343.96
446.77	16329.92
446.95	15971.82
447.14	16063.10
447.32	16566.31
447.51	16348.64
447.69	16128.63
447.88	16374.39
448.06	16163.74
448.25	16636.53
448.43	16854.20
448.62	16552.27
448.80	16402.47
448.99	16716.11
449.17	17025.06
449.36	16889.31
449.54	17067.19
449.73	17228.68
449.91	17284.86
450.10	17444.01
450.28	17556.36
450.46	17298.90
450.65	17682.75
450.83	17600.83
451.02	17310.60
451.20	17619.55
451.39	17624.23
451.57	17544.66
451.76	17577.42
451.94	17785.73
452.13	18059.57
452.31	18068.94
452.49	17771.69
452.68	18160.22
452.86	17797.43
453.05	18464.49
453.23	18293.63
453.42	18223.41
453.60	18211.71
453.78	18284.26
453.97	18202.35
454.15	18576.83
454.34	18277.24
454.52	18726.63
454.70	18970.04
454.89	19035.58
455.07	19035.58
455.26	19075.37
455.44	19246.23
455.62	19168.99
455.81	19311.76
455.99	19690.93
456.17	19573.90
456.36	19454.53
456.54	19779.87
456.73	20105.20
456.91	20355.64
457.09	20002.22
457.28	20533.52
457.46	20009.24
457.64	20343.94
457.83	20222.23
458.01	20100.52
458.19	20912.69
458.38	20294.79
458.56	21048.44
458.74	20631.82
458.93	20711.40
459.11	20975.88
459.29	21050.78
459.48	20877.58
459.66	20945.45
459.84	21223.98
460.03	21167.80
460.21	21397.18
460.39	21467.39
460.57	21226.32
460.76	21610.17
460.94	21832.52
461.12	21970.61
461.31	21893.37
461.49	21603.14
461.67	21785.71
461.85	22197.64
462.04	22232.75
462.22	22977.04
462.40	22450.42
462.59	22553.40
462.77	22387.22
462.95	22459.78
463.13	22555.74
463.32	22544.04
463.50	23058.96
463.68	22888.10
463.86	23065.98
464.05	22632.98
464.23	22635.32
464.41	23412.38
464.59	22993.42
464.78	23679.20
464.96	23342.16
465.14	22892.78
465.32	23285.99
465.50	23152.58
465.69	23859.42
465.87	23838.36
466.05	23330.46
466.23	24002.19
466.41	24023.26
466.60	24109.86
466.78	23578.56
466.96	23854.74
467.14	23648.77
467.32	23791.55
467.51	24395.40
467.69	23754.10
467.87	24418.81
468.05	24533.50
468.23	24463.28
468.41	24247.95
468.60	24549.88
468.78	24725.42
468.96	24493.71
469.14	25340.98
469.32	25516.52
469.50	24683.29
469.69	25446.30
469.87	25727.17
470.05	25703.76
470.23	25654.61
470.41	25603.12
470.59	25603.12
470.77	25874.62
470.95	25867.60
471.14	26326.35
471.32	25881.64
471.50	26443.37
471.68	26675.09
471.86	26742.96
472.04	26719.56
472.22	27618.32
472.40	26946.59
472.58	26757.00
472.77	27424.06
472.95	27749.39
473.13	28236.22
473.31	27274.26
473.49	28140.26
473.67	27648.75
473.85	28346.23
474.03	28748.80
474.21	28606.03
474.39	29146.69
474.57	29060.09
474.75	29226.27
474.93	29350.32
475.12	29277.76
475.30	29893.32
475.48	29130.31
475.66	29926.09
475.84	30050.14
476.02	30251.42
476.20	30113.33
476.38	30925.50
476.56	31278.92
476.74	31412.33
476.92	31026.14
477.10	31175.94
477.28	31695.53
477.46	32116.83
477.64	31941.29
477.82	32465.57
478.00	33354.97
478.18	32959.42
478.36	33469.66
478.54	34068.84
478.72	33827.76
478.90	33897.98
479.08	34356.72
479.26	34892.71
479.44	34988.67
479.62	35239.11
479.80	35690.83
479.98	35885.09
480.16	36776.84
480.34	35805.52
480.52	36418.74
480.70	36364.90
480.88	35983.40
481.06	36994.51
481.24	36708.96
481.41	37717.73
481.59	38424.57
481.77	38602.46
481.95	38630.54
482.13	39253.12
482.31	39154.82
482.49	39871.03
482.67	39732.93
482.85	39746.98
483.03	40634.04
483.21	40940.65
483.39	41294.07
483.57	40631.70
483.74	41708.35
483.92	41787.92
484.10	41736.43
484.28	42396.46
484.46	42873.93
484.64	44034.84
484.82	43112.67
485.00	43564.39
485.18	44020.80
485.35	44889.13
485.53	44570.82
485.71	45490.65
485.89	46036.00
486.07	45420.44
486.25	45399.37
486.43	45954.08
486.61	46791.99
486.78	46611.77
486.96	46988.60
487.14	47847.57
487.32	47728.20
487.50	47915.45
487.68	48409.30
487.85	48907.83
488.03	49443.82
488.21	49509.35
488.39	49748.09
488.57	50089.80
488.75	50052.36
488.92	50508.76
489.10	50927.72
489.28	50997.93
489.46	51632.22
489.64	51662.64
489.81	52254.80
489.99	52175.22
490.17	52172.88
490.35	52701.84
490.53	52842.27
490.70	53256.55
490.88	53048.24
491.06	53741.04
491.24	53698.91
491.41	53727.00
491.59	54127.23
491.77	54227.87
491.95	54457.24
492.13	54426.82
492.30	54705.34
492.48	54948.76
492.66	55058.76
492.84	55384.10
493.01	55702.41
493.19	55650.92
493.37	55847.52
493.54	55980.93
493.72	56348.40
493.90	56278.18
494.08	56811.82
494.25	56727.56
494.43	56704.16
494.61	57165.24
494.79	57322.06
494.96	57303.34
495.14	57483.56
495.32	57815.91
495.49	58087.42
495.67	58295.72
495.85	58171.67
496.02	58302.74
496.20	58457.22
496.38	58658.51
496.55	58780.21
496.73	59107.89
496.91	58869.15
497.09	59126.61
497.26	59550.25
497.44	59501.10
497.62	59501.10
497.79	59861.54
497.97	59728.13
498.14	59903.67
498.32	60205.60
498.50	60320.29
498.67	60519.23
498.85	60037.08
499.03	60430.29
499.20	60750.94
499.38	60797.76
499.56	60893.72
499.73	61050.53
499.91	61151.18
500.08	61317.35
500.26	60954.57
500.44	61354.80
500.61	61478.85
500.79	61605.24
500.97	61420.34
501.14	61923.55
501.32	61949.30
501.49	61869.72
501.67	61883.76
501.84	62326.13
502.02	62115.48
502.20	62232.50
502.37	62300.38
502.55	62251.23
502.72	62494.64
502.90	62482.94
503.07	62583.58
503.25	62777.85
503.43	62604.65
503.60	62913.60
503.78	62937.01
503.95	62876.15
504.13	63028.29
504.30	63260.00
504.48	62988.50
504.65	63501.07
504.83	63622.78
505.01	63646.19
505.18	63421.50
505.36	63744.49
505.53	63690.66
505.71	63798.32
505.88	63957.48
506.06	63788.96
506.23	64161.11
506.41	63983.22
506.58	64046.42
506.76	64254.73
506.93	64427.93
507.11	64334.31
507.28	64495.80
507.46	64582.40
507.63	64640.92
507.81	64769.64
507.98	64615.17
508.16	64678.36
508.33	64823.48
508.50	64933.48
508.68	65038.81
508.85	65352.44
509.03	65064.55
509.20	65204.98
509.38	65497.55
509.55	65535.00
509.73	65523.30
509.90	65535.00
510.08	65535.00
510.25	65535.00
510.42	65535.00
510.60	65535.00
510.77	65535.00
510.95	65535.00
511.12	65535.00
511.30	65535.00
511.47	65535.00
511.64	65535.00
511.82	65535.00
511.99	65535.00
512.17	65535.00
512.34	65535.00
512.51	65535.00
512.69	65535.00
512.86	65535.00
513.04	65535.00
513.21	65535.00
513.38	65535.00
513.56	65535.00
513.73	65535.00
513.90	65535.00
514.08	65535.00
514.25	65535.00
514.43	65535.00
514.60	65535.00
514.77	65535.00
514.95	65535.00
515.12	65535.00
515.29	65535.00
515.47	65535.00
515.64	65535.00
515.81	65535.00
515.99	65535.00
516.16	65535.00
516.33	65535.00
516.51	65535.00
516.68	65535.00
516.85	65535.00
517.03	65535.00
517.20	65535.00
517.37	65535.00
517.54	65535.00
517.72	65535.00
517.89	65535.00
518.06	65535.00
518.24	65535.00
518.41	65535.00
518.58	65535.00
518.75	65535.00
518.93	65535.00
519.10	65535.00
519.27	65535.00
519.45	65535.00
519.62	65535.00
519.79	65535.00
519.96	65535.00
520.14	65535.00
520.31	65535.00
520.48	65535.00
520.65	65535.00
520.83	65535.00
521.00	65535.00
521.17	65535.00
521.34	65535.00
521.52	65535.00
521.69	65535.00
521.86	65535.00
522.03	65535.00
522.20	65535.00
522.38	65535.00
522.55	65535.00
522.72	65535.00
522.89	65535.00
523.07	65535.00
523.24	65535.00
523.41	65535.00
523.58	65535.00
523.75	65535.00
523.92	65535.00
524.10	65535.00
524.27	65535.00
524.44	65535.00
524.61	65535.00
524.78	65535.00
524.96	65535.00
525.13	65535.00
525.30	65535.00
525.47	65535.00
525.64	65535.00
525.81	65535.00
525.98	65535.00
526.16	65535.00
526.33	65535.00
526.50	65535.00
526.67	65535.00
526.84	65535.00
527.01	65535.00
527.18	65535.00
527.36	65535.00
527.53	65535.00
527.70	65535.00
527.87	65535.00
528.04	65535.00
528.21	65535.00
528.38	65535.00
528.55	65535.00
528.72	65535.00
528.89	65535.00
529.07	65535.00
529.24	65535.00
529.41	65535.00
529.58	65535.00
529.75	65535.00
529.92	65535.00
530.09	65535.00
530.26	65535.00
530.43	65535.00
530.60	65535.00
530.77	65535.00
530.94	65535.00
531.11	65535.00
531.28	65535.00
531.46	65535.00
531.63	65535.00
531.80	65535.00
531.97	65535.00
532.14	65535.00
532.31	65535.00
532.48	65535.00
532.65	65535.00
532.82	65535.00
532.99	65535.00
533.16	65535.00
533.33	65535.00
533.50	65535.00
533.67	65535.00
533.84	65535.00
534.01	65535.00
534.18	65535.00
534.35	65535.00
534.52	65535.00
534.69	65535.00
534.86	65535.00
535.03	65535.00
535.20	65535.00
535.37	65535.00
535.54	65535.00
535.71	65535.00
535.88	65535.00
536.05	65535.00
536.22	65535.00
536.38	65535.00
536.55	65535.00
536.72	65535.00
536.89	65535.00
537.06	65535.00
537.23	65535.00
537.40	65535.00
537.57	65535.00
537.74	65535.00
537.91	65535.00
538.08	65535.00
538.25	65535.00
538.42	65535.00
538.59	65535.00
538.75	65535.00
538.92	65535.00
539.09	65535.00
539.26	65535.00
539.43	65535.00
539.60	65535.00
539.77	65535.00
539.94	65535.00
540.11	65535.00
540.28	65535.00
540.44	65535.00
540.61	65535.00
540.78	65535.00
540.95	65535.00
541.12	65535.00
541.29	65535.00
541.46	65535.00
541.62	65535.00
541.79	65535.00
541.96	65535.00
542.13	65535.00
542.30	65535.00
542.47	65535.00
542.63	65535.00
542.80	65535.00
542.97	65535.00
543.14	65535.00
543.31	65535.00
543.48	65535.00
543.64	65535.00
543.81	65535.00
543.98	65535.00
544.15	65535.00
544.32	65535.00
544.48	65535.00
544.65	65535.00
544.82	65535.00
544.99	65535.00
545.16	65535.00
545.32	65535.00
545.49	65535.00
545.66	65535.00
545.83	65535.00
546.00	65535.00
546.16	65535.00
546.33	65535.00
546.50	65535.00
546.67	65535.00
546.83	65535.00
547.00	65535.00
547.17	65535.00
547.34	65535.00
547.50	65535.00
547.67	65535.00
547.84	65535.00
548.00	65535.00
548.17	65535.00
548.34	65535.00
548.51	65535.00
548.67	65535.00
548.84	65535.00
549.01	65535.00
549.18	65535.00
549.34	65535.00
549.51	65535.00
549.68	65535.00
549.84	65535.00
550.01	65535.00
550.18	65535.00
550.34	65535.00
550.51	65535.00
550.68	65535.00
550.84	65535.00
551.01	65535.00
551.18	65535.00
551.34	65535.00
551.51	65535.00
551.68	65535.00
551.84	65535.00
552.01	65535.00
552.18	65535.00
552.34	65535.00
552.51	65535.00
552.68	65535.00
552.84	65535.00
553.01	65535.00
553.18	65535.00
553.34	65535.00
553.51	65535.00
553.67	65535.00
553.84	65535.00
554.01	65535.00
554.17	65535.00
554.34	65535.00
554.51	65535.00
554.67	65535.00
554.84	65535.00
555.00	65535.00
555.17	65535.00
555.33	65535.00
555.50	65535.00
555.67	65535.00
555.83	65535.00
556.00	65535.00
556.16	65535.00
556.33	65535.00
556.50	65535.00
556.66	65535.00
556.83	65535.00
556.99	65535.00
557.16	65535.00
557.32	65535.00
557.49	65535.00
557.65	65535.00
557.82	65535.00
557.98	65535.00
558.15	65535.00
558.32	65535.00
558.48	65535.00
558.65	65535.00
558.81	65535.00
558.98	65535.00
559.14	65535.00
559.31	65535.00
559.47	65535.00
559.64	65535.00
559.80	65535.00
559.97	65535.00
560.13	65535.00
560.30	65535.00
560.46	65535.00
560.63	65535.00
560.79	65535.00
560.96	65535.00
561.12	65535.00
561.29	65535.00
561.45	65535.00
561.61	65535.00
561.78	65535.00
561.94	65535.00
562.11	65535.00
562.27	65535.00
562.44	65535.00
562.60	65535.00
562.77	65535.00
562.93	65535.00
563.10	65535.00
563.26	65535.00
563.42	65535.00
563.59	65535.00
563.75	65535.00
563.92	65535.00
564.08	65535.00
564.24	65535.00
564.41	65535.00
564.57	65535.00
564.74	65535.00
564.90	65535.00
565.07	65535.00
565.23	65535.00
565.39	65535.00
565.56	65535.00
565.72	65535.00
565.88	65535.00
566.05	65535.00
566.21	65535.00
566.38	65535.00
566.54	65535.00
566.70	65535.00
566.87	65535.00
567.03	65535.00
567.19	65535.00
567.36	65535.00
567.52	65535.00
567.68	65535.00
567.85	65535.00
568.01	65535.00
568.17	65535.00
568.34	65535.00
568.50	65535.00
568.66	65535.00
568.83	65535.00
568.99	65535.00
569.15	65535.00
569.32	65535.00
569.48	65535.00
569.64	65535.00
569.81	65535.00
569.97	65535.00
570.13	65535.00
570.30	65535.00
570.46	65535.00
570.62	65535.00
570.78	65535.00
570.95	65535.00
571.11	65535.00
571.27	65535.00
571.43	65535.00
571.60	65535.00
571.76	65535.00
571.92	65535.00
572.09	65535.00
572.25	65535.00
572.41	65535.00
572.57	65535.00
572.74	65535.00
572.90	65535.00
573.06	65535.00
573.22	65535.00
573.38	65535.00
573.55	65535.00
573.71	65535.00
573.87	65535.00
574.03	65535.00
574.20	65535.00
574.36	65535.00
574.52	65535.00
574.68	65535.00
574.84	65535.00
575.01	65535.00
575.17	65535.00
575.33	65535.00
575.49	65535.00
575.65	65535.00
575.82	65535.00
575.98	65535.00
576.14	65535.00
576.30	65535.00
576.46	65535.00
576.62	65535.00
576.79	65535.00
576.95	65535.00
577.11	65535.00
577.27	65535.00
577.43	65535.00
577.59	65535.00
577.75	65535.00
577.92	65535.00
578.08	65535.00
578.24	65535.00
578.40	65535.00
578.56	65535.00
578.72	65535.00
578.88	65535.00
579.04	65535.00
579.21	65535.00
579.37	65535.00
579.53	65535.00
579.69	65535.00
579.85	65535.00
580.01	65535.00
580.17	65535.00
580.33	65535.00
580.49	65535.00
580.65	65535.00
580.82	65535.00
580.98	65535.00
581.14	65535.00
581.30	65535.00
581.46	65535.00
581.62	65535.00
581.78	65535.00
581.94	65535.00
582.10	65535.00
582.26	65535.00
582.42	65535.00
582.58	65535.00
582.74	65535.00
582.90	65535.00
583.06	65535.00
583.22	65535.00
583.38	65535.00
583.54	65535.00
583.70	65535.00
583.86	65535.00
584.02	65535.00
584.18	65535.00
584.34	65535.00
584.50	65535.00
584.66	65535.00
584.82	65535.00
584.98	65535.00
585.14	65535.00
585.30	65535.00
585.46	65535.00
585.62	65535.00
585.78	65535.00
585.94	65535.00
586.10	65535.00
586.26	65535.00
586.42	65535.00
586.58	65535.00
586.74	65535.00
586.90	65535.00
587.06	65535.00
587.22	65535.00
587.38	65535.00
587.54	65535.00
587.70	65535.00
587.86	65535.00
588.02	65535.00
588.18	65535.00
588.34	65535.00
588.49	65535.00
588.65	65535.00
588.81	65535.00
588.97	65535.00
589.13	65535.00
589.29	65535.00
589.45	65535.00
589.61	65535.00
589.77	65535.00
589.93	65535.00
590.08	65535.00
590.24	65535.00
590.40	65535.00
590.56	65535.00
590.72	65535.00
590.88	65535.00
591.04	65535.00
591.20	65535.00
591.35	65535.00
591.51	65535.00
591.67	65535.00
591.83	65535.00
591.99	65535.00
592.15	65535.00
592.31	65535.00
592.46	65535.00
592.62	65535.00
592.78	65535.00
592.94	65535.00
593.10	65535.00
593.26	65535.00
593.41	65535.00
593.57	65535.00
593.73	65535.00
593.89	65535.00
594.05	65535.00
594.20	65535.00
594.36	65535.00
594.52	65535.00
594.68	65535.00
594.84	65535.00
594.99	65535.00
595.15	65535.00
595.31	65535.00
595.47	65535.00
595.62	65535.00
595.78	65535.00
595.94	65535.00
596.10	65535.00
596.25	65535.00
596.41	65535.00
596.57	65535.00
596.73	65535.00
596.88	65535.00
597.04	65535.00
597.20	65535.00
597.36	65535.00
597.51	65535.00
597.67	65535.00
597.83	65535.00
597.99	65535.00
598.14	65535.00
598.30	65535.00
598.46	65535.00
598.61	65535.00
598.77	65535.00
598.93	65535.00
599.09	65535.00
599.24	65535.00
599.40	65535.00
599.56	65535.00
599.71	65535.00
599.87	65535.00
600.03	65535.00
600.18	65535.00
600.34	65535.00
600.50	65535.00
600.65	65535.00
600.81	65535.00
600.97	65535.00
601.12	65535.00
601.28	65535.00
601.44	65535.00
601.59	65535.00
601.75	65535.00
601.91	65535.00
602.06	65535.00
602.22	65535.00
602.37	65535.00
602.53	65535.00
602.69	65535.00
602.84	65535.00
603.00	65535.00
603.16	65535.00
603.31	65535.00
603.47	65535.00
603.62	65535.00
603.78	65535.00
603.94	65535.00
604.09	65535.00
604.25	65535.00
604.40	65535.00
604.56	65535.00
604.71	65535.00
604.87	65535.00
605.03	65535.00
605.18	65535.00
605.34	65535.00
605.49	65535.00
605.65	65535.00
605.80	65535.00
605.96	65535.00
606.12	65535.00
606.27	65535.00
606.43	65535.00
606.58	65535.00
606.74	65535.00
606.89	65535.00
607.05	65535.00
607.20	65535.00
607.36	65535.00
607.51	65535.00
607.67	65535.00
607.82	65535.00
607.98	65535.00
608.13	65535.00
608.29	65535.00
608.44	65535.00
608.60	65535.00
608.75	65535.00
608.91	65535.00
609.06	65535.00
609.22	65535.00
609.37	65535.00
609.53	65535.00
609.68	65535.00
609.84	65535.00
609.99	65535.00
610.15	65535.00
610.30	65535.00
610.46	65535.00
610.61	65535.00
610.76	65535.00
610.92	65535.00
611.07	65535.00
611.23	65535.00
611.38	65535.00
611.54	65535.00
611.69	65535.00
611.84	65535.00
612.00	65535.00
612.15	65535.00
612.31	65535.00
612.46	65535.00
612.62	65535.00
612.77	65535.00
612.92	65535.00
613.08	65535.00
613.23	65535.00
613.39	65535.00
613.54	65535.00
613.69	65535.00
613.85	65535.00
614.00	65535.00
614.15	65535.00
614.31	65535.00
614.46	65535.00
614.62	65535.00
614.77	65535.00
614.92	65535.00
615.08	65535.00
615.23	65535.00
615.38	65535.00
615.54	65535.00
615.69	65535.00
615.84	65535.00
616.00	65535.00
616.15	65535.00
616.30	65535.00
616.46	65535.00
616.61	65535.00
616.76	65535.00
616.92	65535.00
617.07	65535.00
617.22	65535.00
617.37	65535.00
617.53	65535.00
617.68	65535.00
617.83	65535.00
617.99	65535.00
618.14	65535.00
618.29	65535.00
618.45	65535.00
618.60	65535.00
618.75	65535.00
618.90	65535.00
619.06	65535.00
619.21	65535.00
619.36	65535.00
619.51	65535.00
619.67	65535.00
619.82	65535.00
619.97	65535.00
620.12	65535.00
620.28	65535.00
620.43	65535.00
620.58	65535.00
620.73	65535.00
620.89	65535.00
621.04	65535.00
621.19	65535.00
621.34	65535.00
621.49	65535.00
621.65	65535.00
621.80	65535.00
621.95	65535.00
622.10	65535.00
622.25	65535.00
622.41	65535.00
622.56	65535.00
622.71	65535.00
622.86	65535.00
623.01	65535.00
623.16	65535.00
623.32	65535.00
623.47	65535.00
623.62	65535.00
623.77	65535.00
623.92	65535.00
624.07	65535.00
624.23	65535.00
624.38	65535.00
624.53	65535.00
624.68	65535.00
624.83	65535.00
624.98	65535.00
625.13	65535.00
625.29	65535.00
625.44	65535.00
625.59	65535.00
625.74	65535.00
625.89	65535.00
626.04	65535.00
626.19	65535.00
626.34	65535.00
626.49	65535.00
626.65	65535.00
626.80	65535.00
626.95	65535.00
627.10	65535.00
627.25	65535.00
627.40	65535.00
627.55	65535.00
627.70	65535.00
627.85	65535.00
628.00	65535.00
628.15	65535.00
628.30	65535.00
628.45	65535.00
628.60	65535.00
628.76	65535.00
628.91	65535.00
629.06	65535.00
629.21	65535.00
629.36	65535.00
629.51	65535.00
629.66	65535.00
629.81	65535.00
629.96	65535.00
630.11	65535.00
630.26	65535.00
630.41	65535.00
630.56	65535.00
630.71	65535.00
630.86	65535.00
631.01	65535.00
631.16	65535.00
631.31	65535.00
631.46	65535.00
631.61	65535.00
631.76	65535.00
631.91	65535.00
632.06	65535.00
632.21	65535.00
632.36	65535.00
632.51	65535.00
632.66	65535.00
632.81	65535.00
632.96	65535.00
633.10	65535.00
633.25	65535.00
633.40	65535.00
633.55	65535.00
633.70	65535.00
633.85	65535.00
634.00	65535.00
634.15	65535.00
634.30	65535.00
634.45	65535.00
634.60	65535.00
634.75	65535.00
634.90	65535.00
635.05	65535.00
635.19	65535.00
635.34	65535.00
635.49	65535.00
635.64	65535.00
635.79	65535.00
635.94	65535.00
636.09	65535.00
636.24	65535.00
636.39	65535.00
636.53	65535.00
636.68	65535.00
636.83	65535.00
636.98	65535.00
637.13	65535.00
637.28	65535.00
637.43	65535.00
637.57	65535.00
637.72	65535.00
637.87	65535.00
638.02	65535.00
638.17	65535.00
638.32	65535.00
638.46	65535.00
638.61	65535.00
638.76	65535.00
638.91	65535.00
639.06	65535.00
639.20	65535.00
639.35	65535.00
639.50	65535.00
639.65	65535.00
639.80	65535.00
639.94	65535.00
640.09	65535.00
640.24	65535.00
640.39	65535.00
640.54	65535.00
640.68	65535.00
640.83	65535.00
640.98	65535.00
641.13	65535.00
641.27	65535.00
641.42	65535.00
641.57	65535.00
641.72	65535.00
641.86	65535.00
642.01	65535.00
642.16	65535.00
642.31	65535.00
642.45	65535.00
642.60	65535.00
642.75	65535.00
642.90	65535.00
643.04	65535.00
643.19	65535.00
643.34	65535.00
643.48	65535.00
643.63	65535.00
643.78	65535.00
643.93	65535.00
644.07	65535.00
644.22	65535.00
644.37	65535.00
644.51	65535.00
644.66	65535.00
644.81	65535.00
644.95	65535.00
645.10	65535.00
645.25	65535.00
645.39	65535.00
645.54	65535.00
645.69	65535.00
645.83	65535.00
645.98	65535.00
646.13	65535.00
646.27	65535.00
646.42	65535.00
646.57	65535.00
646.71	65535.00
646.86	65535.00
647.00	65535.00
647.15	65535.00
647.30	65535.00
647.44	65535.00
647.59	65535.00
647.74	65535.00
647.88	65535.00
648.03	65535.00
648.17	65535.00
648.32	65535.00
648.47	65535.00
648.61	65535.00
648.76	65535.00
648.90	65535.00
649.05	65535.00
649.20	65535.00
649.34	65535.00
649.49	65535.00
649.63	65535.00
649.78	65535.00
649.92	65535.00
650.07	65535.00
650.21	65535.00
650.36	65535.00
650.51	65535.00
650.65	65535.00
650.80	65535.00
650.94	65535.00
651.09	65535.00
651.23	65535.00
651.38	65535.00
651.52	65535.00
651.67	65535.00
651.81	65535.00
651.96	65535.00
652.10	65535.00
652.25	65535.00
652.39	65535.00
652.54	65535.00
652.68	65535.00
652.83	65535.00
652.97	65535.00
653.12	65535.00
653.26	65535.00
653.41	65535.00
653.55	65535.00
653.70	65535.00
653.84	65535.00
653.99	65535.00
654.13	65535.00
654.27	65535.00
654.42	65535.00
654.56	65535.00
654.71	65535.00
654.85	65535.00
655.00	65535.00
655.14	65535.00
655.29	65535.00
655.43	65535.00
655.57	65535.00
655.72	65535.00
655.86	65535.00
656.01	65535.00
656.15	65535.00
656.30	65535.00
656.44	65535.00
656.58	65535.00
656.73	65535.00
656.87	65535.00
657.01	65535.00
657.16	65535.00
657.30	65535.00
657.45	65535.00
657.59	65535.00
657.73	65535.00
657.88	65535.00
658.02	65535.00
658.16	65535.00
658.31	65535.00
658.45	65535.00
658.60	65535.00
658.74	65535.00
658.88	65535.00
659.03	65535.00
659.17	65535.00
659.31	65535.00
659.46	65535.00
659.60	65535.00
659.74	65535.00
659.89	65535.00
660.03	65535.00
660.17	65535.00
660.32	65535.00
660.46	65535.00
660.60	65535.00
660.74	65535.00
660.89	65535.00
661.03	65535.00
661.17	65535.00
661.32	65535.00
661.46	65535.00
661.60	65535.00
661.74	65535.00
661.89	65535.00
662.03	65535.00
662.17	65535.00
662.31	65535.00
662.46	65535.00
662.60	65535.00
662.74	65535.00
662.88	65535.00
663.03	65535.00
663.17	65535.00
663.31	65535.00
663.45	65535.00
663.60	65535.00
663.74	65535.00
663.88	65535.00
664.02	65535.00
664.17	65535.00
664.31	65535.00
664.45	65535.00
664.59	65535.00
664.73	65535.00
664.88	65535.00
665.02	65535.00
665.16	65535.00
665.30	65535.00
665.44	65535.00
665.59	65535.00
665.73	65535.00
665.87	65535.00
666.01	65535.00
666.15	65535.00
666.29	65535.00
666.44	65535.00
666.58	65535.00
666.72	65535.00
666.86	65535.00
667.00	65535.00
667.14	65535.00
667.28	65535.00
667.43	65535.00
667.57	65535.00
667.71	65535.00
667.85	65535.00
667.99	65535.00
668.13	65535.00
668.27	65535.00
668.41	65535.00
668.56	65535.00
668.70	65535.00
668.84	65535.00
668.98	65535.00
669.12	65535.00
669.26	65535.00
669.40	65535.00
669.54	65535.00
669.68	65535.00
669.82	65535.00
669.96	65535.00
670.10	65535.00
670.25	65535.00
670.39	65535.00
670.53	65535.00
670.67	65535.00
670.81	65535.00
670.95	65535.00
671.09	65535.00
671.23	65535.00
671.37	65535.00
671.51	65535.00
671.65	65535.00
671.79	65535.00
671.93	65535.00
672.07	65535.00
672.21	65535.00
672.35	65535.00
672.49	65535.00
672.63	65535.00
672.77	65535.00
672.91	65535.00
673.05	65535.00
673.19	65535.00
673.33	65535.00
673.47	65535.00
673.61	65535.00
673.75	65535.00
673.89	65535.00
674.03	65535.00
674.17	65535.00
674.31	65535.00
674.45	65535.00
674.59	65535.00
674.73	65535.00
674.87	65535.00
675.01	65535.00
675.15	65535.00
675.29	65535.00
675.43	65535.00
675.56	65535.00
675.70	65535.00
675.84	65535.00
675.98	65535.00
676.12	65535.00
676.26	65535.00
676.40	65535.00
676.54	65535.00
676.68	65535.00
676.82	65535.00
676.96	65535.00
677.10	65535.00
677.23	65535.00
677.37	65535.00
677.51	65535.00
677.65	65535.00
677.79	65535.00
677.93	65535.00
678.07	65535.00
678.21	65535.00
678.34	65535.00
678.48	65535.00
678.62	65535.00
678.76	65535.00
678.90	65535.00
679.04	65535.00
679.18	65535.00
679.31	65535.00
679.45	65535.00
679.59	65535.00
679.73	65535.00
679.87	65535.00
680.00	65535.00
680.14	65535.00
680.28	65535.00
680.42	65535.00
680.56	65535.00
680.70	65535.00
680.83	65535.00
680.97	65535.00
681.11	65535.00
681.25	65535.00
681.39	65535.00
681.52	65535.00
681.66	65535.00
681.80	65535.00
681.94	65535.00
682.07	65535.00
682.21	65535.00
682.35	65535.00
682.49	65535.00
682.62	65535.00
682.76	65535.00
682.90	65535.00
683.04	65535.00
683.17	65535.00
683.31	65535.00
683.45	65535.00
683.59	65535.00
683.72	65535.00
683.86	65535.00
684.00	65535.00
684.13	65535.00
684.27	65535.00
684.41	65535.00
684.55	65535.00
684.68	65535.00
684.82	65535.00
684.96	65535.00
685.09	65535.00
685.23	65535.00
685.37	65535.00
685.50	65535.00
685.64	65535.00
685.78	65535.00
685.91	65535.00
686.05	65535.00
686.19	65535.00
686.32	65535.00
686.46	65535.00
686.60	65535.00
686.73	65535.00
686.87	65535.00
687.01	65535.00
687.14	65535.00
687.28	65535.00
687.42	65535.00
687.55	65535.00
687.69	65535.00
687.82	65535.00
687.96	65535.00
688.10	65535.00
688.23	65535.00
688.37	65535.00
688.50	65535.00
688.64	65535.00
688.78	65535.00
688.91	65535.00
689.05	65535.00
689.18	65535.00
689.32	65535.00
689.46	65535.00
689.59	65535.00
689.73	65535.00
689.86	65535.00
690.00	65535.00
690.13	65535.00
690.27	65535.00
690.41	65535.00
690.54	65520.96
690.68	65535.00
690.81	65535.00
690.95	65535.00
691.08	65535.00
691.22	65535.00
691.35	65535.00
691.49	65481.17
691.62	65535.00
691.76	65535.00
691.89	65350.10
692.03	65043.49
692.16	65013.06
692.30	64961.57
692.43	64729.86
692.57	64519.21
692.70	64617.51
692.84	64154.08
692.97	64306.22
693.11	64484.10
693.24	64214.94
693.38	64072.17
693.51	64069.82
693.65	64034.72
693.78	64104.93
693.92	64207.92
694.05	64200.89
694.19	64006.63
694.32	64015.99
694.45	63725.77
694.59	63257.66
694.72	63367.66
694.86	63412.13
694.99	62990.84
695.13	63089.14
695.26	63002.54
695.39	62742.74
695.53	62560.18
695.66	62564.86
695.80	62351.87
695.93	62656.14
696.07	62361.23
696.20	62602.31
696.33	62478.26
696.47	62482.94
696.60	62358.89
696.73	62122.50
696.87	62284.00
697.00	62042.92
697.14	61757.38
697.27	61762.06
697.40	61495.24
697.54	61485.87
697.67	61031.81
697.80	61272.88
697.94	60914.78
698.07	60533.28
698.21	60441.99
698.34	60299.22
698.47	60722.86
698.61	60214.96
698.74	60477.10
698.87	60341.35
699.01	60264.11
699.14	60287.52
699.27	60434.97
699.40	60200.92
699.54	59920.05
699.67	59627.49
699.80	59671.96
699.94	59725.79
700.07	59693.02
700.20	59372.37
700.34	59072.78
700.47	59117.25
700.60	58805.96
700.73	58824.68
700.87	58759.15
701.00	58625.74
701.13	58688.93
701.26	58588.29
701.40	58820.00
701.53	58623.40
701.66	58686.59
701.79	58237.21
701.93	58021.88
702.06	57640.37
702.19	57673.14
702.32	57766.76
702.46	57724.63
702.59	57403.98
702.72	57102.05
702.85	57286.95
702.99	57513.98
703.12	56699.48
703.25	56685.43
703.38	56523.94
703.51	56264.14
703.65	56341.38
703.78	56013.70
703.91	55831.14
704.04	56147.11
704.17	56107.32
704.31	55704.75
704.44	55781.99
704.57	55744.54
704.70	55700.07
704.83	55690.71
704.96	55447.29
705.10	55194.51
705.23	55068.12
>>>>>End Processed Spectral Data<<<<<
