SpectraSuite Data File
++++++++++++++++++++++++++++++++++++
Date: Thu Oct 24 13:21:16 EDT 2013
User: stostad
Dark Spectrum Present: No
Reference Spectrum Present: No
Number of Sampled Component Spectra: 1
Spectrometers: USB2+H05261
Integration Time (usec): 100000 (USB2+H05261)
Spectra Averaged: 1 (USB2+H05261)
Boxcar Smoothing: 0 (USB2+H05261)
Correct for Electrical Dark: No (USB2+H05261)
Strobe/Lamp Enabled: No (USB2+H05261)
Correct for Detector Non-linearity: No (USB2+H05261)
Correct for Stray Light: No (USB2+H05261)
Number of Pixels in Processed Spectrum: 2048
>>>>>Begin Processed Spectral Data<<<<<
365.73	554.71
365.92	554.71
366.12	554.71
366.32	496.19
366.52	463.43
366.72	437.68
366.91	418.96
367.11	533.64
367.31	470.45
367.51	425.98
367.70	472.79
367.90	514.92
368.10	437.68
368.30	472.79
368.49	477.47
368.69	557.05
368.89	524.28
369.09	498.53
369.28	535.98
369.48	463.43
369.68	528.96
369.87	526.62
370.07	482.15
370.27	547.69
370.47	617.90
370.66	770.04
370.86	837.91
371.06	819.19
371.25	840.25
371.45	807.48
371.65	805.14
371.84	851.96
372.04	833.23
372.24	858.98
372.44	884.72
372.63	875.36
372.83	917.49
373.03	889.40
373.22	894.08
373.42	870.68
373.62	868.34
373.81	917.49
374.01	910.47
374.21	891.74
374.40	952.60
374.60	964.30
374.79	929.19
374.99	919.83
375.19	933.87
375.38	898.77
375.58	931.53
375.78	938.55
375.97	971.32
376.17	938.55
376.37	973.66
376.56	915.15
376.76	959.62
376.95	945.58
377.15	945.58
377.35	978.34
377.54	929.19
377.74	922.17
377.93	1034.52
378.13	980.68
378.33	1022.81
378.52	919.83
378.72	994.73
378.91	999.41
379.11	976.00
379.31	898.77
379.50	1041.54
379.70	1001.75
379.89	1004.09
380.09	1011.11
380.28	1004.09
380.48	987.71
380.68	997.07
380.87	1027.50
381.07	1053.24
381.26	1046.22
381.46	1015.79
381.65	973.66
381.85	971.32
382.04	1083.67
382.24	1053.24
382.43	1114.10
382.63	1041.54
382.83	1097.71
383.02	1069.62
383.22	1081.33
383.41	1067.28
383.61	1142.18
383.80	1064.94
384.00	1078.99
384.19	1076.65
384.39	1104.73
384.58	1090.69
384.78	1109.41
384.97	1139.84
385.17	1193.67
385.36	1100.05
385.56	1041.54
385.75	1170.27
385.95	1167.93
386.14	1104.73
386.34	1067.28
386.53	1174.95
386.72	1062.60
386.92	1191.33
387.11	1114.10
387.31	1160.91
387.50	1219.42
387.70	1142.18
387.89	1226.44
388.09	1160.91
388.28	1165.59
388.48	1125.80
388.67	1090.69
388.86	1221.76
389.06	1226.44
389.25	1191.33
389.45	1186.65
389.64	1214.74
389.84	1317.72
390.03	1270.91
390.22	1205.38
390.42	1135.16
390.61	1249.85
390.81	1214.74
391.00	1228.78
391.19	1277.93
391.39	1359.85
391.58	1247.51
391.78	1308.36
391.97	1287.29
392.16	1231.12
392.36	1303.68
392.55	1369.21
392.75	1270.91
392.94	1252.19
393.13	1296.66
393.33	1294.32
393.52	1362.19
393.71	1303.68
393.91	1397.30
394.10	1289.64
394.29	1352.83
394.49	1369.21
394.68	1399.64
394.88	1392.62
395.07	1437.09
395.26	1486.24
395.46	1430.07
395.65	1502.62
395.84	1458.15
396.04	1418.36
396.23	1465.18
396.42	1416.02
396.62	1451.13
396.81	1460.49
397.00	1413.68
397.19	1444.11
397.39	1469.86
397.58	1497.94
397.77	1434.75
397.97	1460.49
398.16	1500.28
398.35	1519.01
398.55	1551.78
398.74	1511.99
398.93	1547.09
399.12	1523.69
399.32	1547.09
399.51	1493.26
399.70	1584.54
399.90	1591.56
400.09	1619.65
400.28	1645.40
400.47	1619.65
400.67	1661.78
400.86	1657.10
401.05	1678.16
401.24	1671.14
401.44	1694.55
401.63	1734.34
401.82	1708.59
402.01	1713.27
402.21	1701.57
402.40	1631.35
402.59	1837.32
402.78	1732.00
402.97	1717.95
403.17	1624.33
403.36	1753.06
403.55	1813.92
403.74	1874.77
403.93	1804.55
404.13	1781.15
404.32	1769.44
404.51	1746.04
404.70	1860.73
404.89	1830.30
405.09	1912.22
405.28	1802.21
405.47	1909.88
405.66	1874.77
405.85	1959.03
406.05	1996.48
406.24	1937.96
406.43	1856.04
406.62	1975.41
406.81	1989.46
407.00	2003.50
407.20	1959.03
407.39	1933.28
407.58	2045.63
407.77	2031.58
407.96	2062.01
408.15	2179.04
408.34	2047.97
408.54	2038.61
408.73	2122.87
408.92	2165.00
409.11	2097.12
409.30	2193.08
409.49	2106.48
409.68	2155.63
409.87	2150.95
410.07	2197.76
410.26	2235.21
410.45	2169.68
410.64	2216.49
410.83	2317.13
411.02	2193.08
411.21	2307.77
411.40	2289.04
411.59	2326.49
411.78	2260.96
411.98	2251.60
412.17	2380.32
412.36	2363.94
412.55	2429.48
412.74	2382.67
412.93	2490.33
413.12	2434.16
413.31	2530.12
413.50	2527.78
413.69	2497.35
413.88	2612.04
414.07	2497.35
414.26	2717.36
414.45	2785.24
414.64	2560.55
414.83	2743.11
415.02	2726.72
415.22	2808.64
415.41	2642.46
415.60	2801.62
415.79	2715.02
415.98	2754.81
416.17	2768.85
416.36	2750.13
416.55	2792.26
416.74	2904.60
416.93	2869.50
417.12	2848.43
417.31	2974.82
417.50	2888.22
417.69	3019.29
417.88	2911.63
418.07	2970.14
418.26	3110.57
418.45	2953.76
418.64	3105.89
418.83	2963.12
419.02	3007.59
419.21	3068.44
419.39	3138.66
419.58	3019.29
419.77	3176.11
419.96	3080.14
420.15	3183.13
420.34	3187.81
420.53	3225.26
420.72	3283.77
420.91	3222.92
421.10	3243.98
421.29	3178.45
421.48	3243.98
421.67	3288.45
421.86	3258.03
422.05	3260.37
422.24	3304.84
422.43	3293.13
422.61	3339.94
422.80	3300.16
422.99	3227.60
423.18	3363.35
423.37	3424.20
423.56	3323.56
423.75	3286.11
423.94	3297.81
424.13	3101.21
424.32	3344.63
424.50	3344.63
424.69	3412.50
424.88	3424.20
425.07	3438.25
425.26	3328.24
425.45	3361.01
425.64	3255.69
425.83	3274.41
426.01	3361.01
426.20	3393.78
426.39	3475.70
426.58	3316.54
426.77	3272.07
426.96	3372.71
427.15	3499.10
427.33	3578.68
427.52	3557.61
427.71	3653.58
427.90	3524.85
428.09	3531.87
428.28	3606.77
428.46	3693.37
428.65	3655.92
428.84	3691.02
429.03	3665.28
429.22	3482.72
429.40	3733.15
429.59	3440.59
429.78	3489.74
429.97	3398.46
430.16	3782.31
430.34	3716.77
430.53	3641.87
430.72	3719.11
430.91	3873.59
431.10	3693.37
431.28	3810.39
431.47	3747.20
431.66	3878.27
431.85	3754.22
432.03	3845.50
432.22	3985.93
432.41	3915.72
432.60	3805.71
432.79	3962.53
432.97	3922.74
433.16	3946.14
433.35	3941.46
433.54	3906.35
433.72	4046.79
433.91	4105.30
434.10	4025.72
434.28	4072.53
434.47	3985.93
434.66	4065.51
434.85	4042.11
435.03	4229.35
435.22	4374.46
435.41	4512.55
435.59	4414.25
435.78	4283.18
435.97	4299.56
436.16	4355.74
436.34	4222.33
436.53	4252.75
436.72	4367.44
436.90	4180.20
437.09	4442.34
437.28	4243.39
437.46	4299.56
437.65	4241.05
437.84	4402.55
438.02	4369.78
438.21	4372.12
438.40	4372.12
438.58	4587.45
438.77	4620.22
438.96	4550.00
439.14	4662.35
439.33	4713.84
439.52	4685.75
439.70	4641.28
439.89	4762.99
440.08	4716.18
440.26	4599.15
440.45	4746.61
440.63	4753.63
440.82	4894.06
441.01	4793.42
441.19	4781.71
441.38	4863.63
441.57	4802.78
441.75	4987.68
441.94	5057.90
442.12	5057.90
442.31	5210.03
442.50	5149.18
442.68	4943.21
442.87	5170.24
443.05	5121.09
443.24	5228.76
443.43	5231.10
443.61	5317.70
443.80	5345.78
443.98	5200.67
444.17	4936.19
444.35	5247.48
444.54	5268.55
444.73	5359.83
444.91	5329.40
445.10	5303.65
445.28	5275.57
445.47	5303.65
445.65	5352.81
445.84	5380.89
446.02	5331.74
446.21	5383.23
446.39	5334.08
446.58	5404.30
446.77	5495.58
446.95	5343.44
447.14	5327.06
447.32	5549.41
447.51	5556.43
447.69	5291.95
447.88	5369.19
448.06	5390.25
448.25	5371.53
448.43	5434.72
448.62	5451.11
448.80	5317.70
448.99	5406.64
449.17	5551.75
449.36	5495.58
449.54	5462.81
449.73	5593.88
449.91	5584.52
450.10	5685.16
450.28	5912.19
450.46	5563.45
450.65	5570.48
450.83	5591.54
451.02	5769.42
451.20	5865.38
451.39	5682.82
451.57	5619.63
451.76	5584.52
451.94	5813.89
452.13	5806.87
452.31	5809.21
452.49	5879.43
452.68	5757.72
452.86	5769.42
453.05	5930.92
453.23	5930.92
453.42	5891.13
453.60	5893.47
453.78	6017.52
453.97	5935.60
454.15	6050.28
454.34	5818.57
454.52	6031.56
454.70	5949.64
454.89	6104.12
455.07	6101.78
455.26	6087.73
455.44	6150.93
455.62	6085.39
455.81	6143.91
455.99	6263.27
456.17	6251.57
456.36	6221.14
456.54	6392.00
456.73	6413.07
456.91	6548.82
457.09	6417.75
457.28	6392.00
457.46	6401.37
457.64	6516.05
457.83	6576.91
458.01	6483.28
458.19	6691.59
458.38	6572.22
458.56	6836.70
458.74	6827.34
458.93	6640.10
459.11	6782.87
459.29	6785.21
459.48	6604.99
459.66	6789.89
459.84	6686.91
460.03	6920.96
460.21	6829.68
460.39	6836.70
460.57	6785.21
460.76	6871.81
460.94	6745.42
461.12	7002.88
461.31	6916.28
461.49	7115.23
461.67	6853.09
461.85	7201.83
462.04	6958.41
462.22	7265.02
462.40	7105.87
462.59	7155.02
462.77	7040.33
462.95	7201.83
463.13	7089.48
463.32	7208.85
463.50	7229.91
463.68	7183.10
463.86	7112.89
464.05	6956.07
464.23	7176.08
464.41	7337.58
464.59	7208.85
464.78	7487.37
464.96	7435.88
465.14	7185.44
465.32	7410.14
465.50	7391.41
465.69	7529.50
465.87	7370.35
466.05	7370.35
466.23	7604.40
466.41	7344.60
466.60	7583.34
466.78	7393.75
466.96	7499.08
467.14	7316.51
467.32	7417.16
467.51	7630.15
467.69	7478.01
467.87	7545.89
468.05	7798.66
468.23	7524.82
468.41	7606.74
468.60	7566.95
468.78	7798.66
468.96	7676.96
469.14	7861.86
469.32	7906.33
469.50	7829.09
469.69	7948.46
469.87	7943.78
470.05	7976.55
470.23	8077.19
470.41	8063.15
470.59	8084.21
470.77	7880.58
470.95	7925.05
471.14	8308.90
471.32	8084.21
471.50	8053.78
471.68	8077.19
471.86	8224.64
472.04	8128.68
472.22	8379.12
472.40	8320.60
472.58	8311.24
472.77	8313.58
472.95	8489.12
473.13	8842.54
473.31	8306.56
473.49	8510.19
473.67	8493.80
473.85	8538.27
474.03	8863.61
474.21	8638.92
474.39	8959.57
474.57	8865.95
474.75	9074.26
474.93	9057.87
475.12	8938.51
475.30	9064.89
475.48	9008.72
475.66	9282.56
475.84	9247.46
476.02	9357.46
476.20	9303.63
476.38	9448.74
476.56	9467.47
476.74	9612.58
476.92	9411.29
477.10	9474.49
477.28	9790.46
477.46	9556.41
477.64	9680.46
477.82	9612.58
478.00	10256.23
478.18	9914.51
478.36	9975.36
478.54	10186.01
478.72	10382.62
478.90	10382.62
479.08	10331.12
479.26	10569.86
479.44	10534.75
479.62	10520.71
479.80	10684.55
479.98	10729.02
480.16	11033.29
480.34	10841.36
480.52	11044.99
480.70	11021.58
480.88	10789.87
481.06	11124.57
481.24	11103.50
481.41	11262.66
481.59	11531.82
481.77	11557.57
481.95	11578.63
482.13	11871.20
482.31	11978.86
482.49	12004.61
482.67	11985.88
482.85	12133.34
483.03	12336.96
483.21	12418.88
483.39	12217.60
483.57	12243.34
483.74	12411.86
483.92	12556.97
484.10	12456.33
484.28	12737.20
484.46	12966.57
484.64	13469.78
484.82	13294.24
485.00	13317.65
485.18	13378.50
485.35	13329.35
485.53	13530.64
485.71	13628.94
485.89	13764.69
486.07	13738.94
486.25	13996.40
486.43	14146.20
486.61	14003.43
486.78	13984.70
486.96	14298.33
487.14	14188.33
487.32	14361.53
487.50	14705.59
487.68	14682.18
487.85	14848.36
488.03	15028.58
488.21	15019.22
488.39	15218.16
488.57	15180.71
488.75	15187.74
488.92	15541.16
489.10	15536.48
489.28	15646.48
489.46	15920.32
489.64	15606.69
489.81	16463.33
489.99	16123.95
490.17	16292.47
490.35	16400.13
490.53	16582.70
490.70	16816.75
490.88	16758.24
491.06	16776.96
491.24	16779.30
491.41	16994.63
491.59	16945.48
491.77	17144.42
491.95	17158.47
492.13	17282.52
492.30	17397.20
492.48	17502.53
492.66	17544.66
492.84	17708.49
493.01	17584.44
493.19	17661.68
493.37	17923.82
493.54	18024.47
493.72	18408.31
493.90	18459.81
494.08	18359.16
494.25	18452.78
494.43	18553.43
494.61	18836.63
494.79	18719.60
494.96	18738.33
495.14	19063.66
495.32	19199.41
495.49	19126.86
495.67	19250.91
495.85	19454.53
496.02	19711.99
496.20	19997.54
496.38	19807.95
496.55	19515.39
496.73	20100.52
496.91	20102.86
497.09	20006.90
497.26	20215.21
497.44	20072.43
497.62	20273.72
497.79	20795.66
497.97	20561.61
498.14	20926.73
498.32	21160.78
498.50	20826.09
498.67	21039.08
498.85	20776.94
499.03	21172.49
499.20	21387.82
499.38	21160.78
499.56	21633.57
499.73	21411.22
499.91	21699.11
500.08	21638.25
500.26	21359.73
500.44	21640.59
500.61	21958.91
500.79	22082.95
500.97	22249.13
501.14	22281.90
501.32	22183.60
501.49	22202.32
501.67	22434.03
501.84	22408.29
502.02	22424.67
502.20	22431.69
502.37	22686.81
502.55	22455.10
502.72	22679.79
502.90	22862.35
503.07	23026.19
503.25	23101.09
503.43	22684.47
503.60	23145.56
503.78	23124.49
503.95	23075.34
504.13	23300.03
504.30	23152.58
504.48	23080.02
504.65	23946.02
504.83	24161.35
505.01	23587.92
505.18	23597.28
505.36	24102.84
505.53	23833.68
505.71	23908.57
505.88	24147.31
506.06	23887.51
506.23	24556.90
506.41	24432.85
506.58	24484.34
506.76	24201.14
506.93	24882.24
507.11	24554.56
507.28	24376.68
507.46	24620.10
507.63	25219.27
507.81	25085.86
507.98	24357.96
508.16	25006.28
508.33	25249.70
508.50	25296.51
508.68	25181.82
508.85	25673.34
509.03	25277.79
509.20	25383.11
509.38	25483.75
509.55	25757.60
509.73	25865.26
509.90	26038.46
510.08	26181.23
510.25	25879.30
510.42	26132.08
510.60	26363.79
510.77	26228.04
510.95	26731.26
511.12	26214.00
511.30	26501.89
511.47	26068.89
511.64	26174.21
511.82	26768.71
511.99	26469.12
512.17	27009.78
512.34	26855.31
512.51	26899.78
512.69	26895.10
512.86	27136.17
513.04	27098.72
513.21	27133.83
513.38	26874.03
513.56	27232.13
513.73	27267.24
513.90	27374.91
514.08	27398.31
514.25	27520.02
514.43	27344.48
514.60	27871.10
514.77	27461.51
514.95	27962.38
515.12	27328.10
515.29	27749.39
515.47	27803.22
515.64	27967.06
515.81	27941.32
515.99	28100.47
516.16	28554.54
516.33	28238.56
516.51	28254.95
516.68	28601.35
516.85	28676.24
517.03	28797.95
517.20	28795.61
517.37	28301.76
517.54	28914.98
517.72	28622.41
517.89	28276.01
518.06	28826.04
518.24	28769.86
518.41	28914.98
518.58	28945.41
518.75	29118.60
518.93	28989.88
519.10	28924.34
519.27	29521.18
519.45	29472.03
519.62	29500.11
519.79	29418.19
519.96	29273.08
520.14	29181.80
520.31	29647.57
520.48	29205.20
520.65	29776.30
520.83	30106.31
521.00	30085.25
521.17	30040.78
521.34	29788.00
521.52	30099.29
521.69	30209.29
521.86	30160.14
522.03	30284.19
522.20	30459.73
522.38	30742.94
522.55	30543.99
522.72	30621.23
522.89	30597.82
523.07	30780.39
523.24	30656.34
523.41	30745.28
523.58	30780.39
523.75	30967.63
523.92	30801.45
524.10	31215.72
524.27	31096.36
524.44	31218.07
524.61	31119.76
524.78	31096.36
524.96	31189.98
525.13	30911.46
525.30	31866.39
525.47	31550.42
525.64	31667.45
525.81	31707.24
525.98	31566.81
526.16	31370.20
526.33	31810.22
526.50	32205.77
526.67	31515.31
526.84	31889.80
527.01	31737.66
527.18	32196.41
527.36	31777.45
527.53	31791.50
527.70	32173.00
527.87	32151.94
528.04	32177.68
528.21	32484.30
528.38	32367.27
528.55	32547.49
528.72	32301.73
528.89	32444.51
529.07	32575.58
529.24	32247.90
529.41	32573.24
529.58	32613.02
529.75	32914.95
529.92	32889.21
530.09	32716.01
530.26	32945.38
530.43	33116.24
530.60	32587.28
530.77	32652.81
530.94	33151.35
531.11	33167.73
531.28	33357.32
531.46	33670.95
531.63	33123.26
531.80	33521.15
531.97	33343.27
532.14	33303.48
532.31	33275.40
532.48	33668.61
532.65	33905.00
532.82	33354.97
532.99	33619.46
533.16	33315.19
533.33	34007.98
533.50	33984.58
533.67	33546.90
533.84	33535.20
534.01	34244.38
534.18	33907.34
534.35	34403.53
534.52	34251.40
534.69	34321.62
534.86	34232.68
535.03	33631.16
535.20	34291.19
535.37	34242.04
535.54	34394.17
535.71	34445.66
535.88	34558.01
536.05	34370.77
536.22	34312.25
536.38	34960.58
536.55	34740.57
536.72	34822.49
536.89	34871.64
537.06	35058.88
537.23	34815.47
537.40	35096.33
537.57	34890.37
537.74	34845.90
537.91	34902.07
538.08	34824.83
538.25	34607.16
538.42	34873.98
538.59	35218.04
538.75	35131.44
538.92	35044.84
539.09	35199.32
539.26	35093.99
539.43	34918.45
539.60	35264.85
539.77	35267.19
539.94	35665.08
540.11	35819.56
540.28	36385.97
540.44	35859.35
540.61	36058.29
540.78	35529.33
540.95	35899.14
541.12	35639.34
541.29	35917.86
541.46	36219.79
541.62	36229.15
541.79	36362.56
541.96	36229.15
542.13	36444.48
542.30	36409.37
542.47	35962.33
542.63	36313.41
542.80	36950.04
542.97	36837.69
543.14	36807.26
543.31	36914.93
543.48	36961.74
543.64	37020.25
543.81	37195.79
543.98	36943.02
544.15	37024.93
544.32	36844.71
544.48	37614.75
544.65	37235.58
544.82	37586.66
544.99	36828.33
545.16	37383.04
545.32	37235.58
545.49	37787.95
545.66	38429.26
545.83	38281.80
546.00	38216.27
546.16	37820.72
546.33	37839.44
546.50	37406.44
546.67	37537.51
546.83	37378.36
547.00	37254.31
547.17	37457.93
547.34	37563.26
547.50	37443.89
547.67	37743.48
547.84	37897.95
548.00	38300.53
548.17	38417.55
548.34	37546.87
548.51	38146.05
548.67	37483.68
548.84	37907.32
549.01	37731.78
549.18	38251.38
549.34	38024.34
549.51	38286.48
549.68	38167.12
549.84	37806.67
550.01	37794.97
550.18	37794.97
550.34	37975.19
550.51	37888.59
550.68	38295.85
550.84	37926.04
551.01	38064.13
551.18	37790.29
551.34	37897.95
551.51	38195.20
551.68	37902.64
551.84	38036.05
552.01	38349.68
552.18	38284.14
552.34	38780.34
552.51	38380.10
552.68	38499.47
552.84	38761.61
553.01	38438.62
553.18	38675.01
553.34	38691.40
553.51	38731.18
553.67	38520.54
553.84	39007.37
554.01	38770.97
554.17	38808.42
554.34	38892.68
554.51	38707.78
554.67	39290.57
554.84	38822.47
555.00	38682.03
555.17	39147.80
555.33	38923.11
555.50	39108.01
555.67	39014.39
555.83	39150.14
556.00	39222.70
556.16	38995.67
556.33	38560.33
556.50	38834.17
556.66	39346.75
556.83	39030.77
556.99	39564.42
557.16	39203.97
557.32	39084.61
557.49	39754.00
557.65	39061.20
557.82	39248.44
557.98	39089.29
558.15	39236.74
558.32	39370.15
558.48	39159.50
558.65	39620.59
558.81	39203.97
558.98	39536.33
559.14	39622.93
559.31	39620.59
559.47	39473.13
559.64	39721.23
559.80	39405.26
559.97	39756.34
560.13	39517.60
560.30	39711.87
560.46	39494.20
560.63	39562.08
560.79	39536.33
560.96	40191.68
561.12	40184.66
561.29	39983.37
561.45	39716.55
561.61	39908.47
561.78	39683.78
561.94	40044.23
562.11	40091.04
562.27	40275.94
562.44	40357.86
562.60	39978.69
562.77	40156.57
562.93	40179.98
563.10	39924.86
563.26	39943.58
563.42	40069.97
563.59	39997.41
563.75	40343.81
563.92	40432.75
564.08	39950.60
564.24	40006.78
564.41	40156.57
564.57	39751.66
564.74	39882.73
564.90	40362.54
565.07	40456.16
565.23	40105.08
565.39	40416.37
565.56	40865.75
565.72	40299.34
565.88	40484.25
566.05	40112.10
566.21	39880.39
566.38	40294.66
566.54	40210.40
566.70	40243.17
566.87	40673.83
567.03	40561.48
567.19	41067.04
567.36	40957.03
567.52	40325.09
567.68	40734.68
567.85	39969.33
568.01	40814.26
568.17	40776.81
568.34	40568.51
568.50	41282.37
568.66	40596.59
568.83	40552.12
568.99	40793.20
569.15	40378.92
569.32	40404.67
569.48	40325.09
569.64	40802.56
569.81	40376.58
569.97	40638.72
570.13	40470.20
570.30	40189.34
570.46	40465.52
570.62	40725.32
570.78	40432.75
570.95	40304.02
571.11	40542.76
571.27	40306.37
571.43	40428.07
571.60	40765.11
571.76	40561.48
571.92	40584.89
572.09	40959.38
572.25	40987.46
572.41	41022.57
572.57	41127.89
572.74	41153.64
572.90	40938.31
573.06	41120.87
573.22	40495.95
573.38	40840.01
573.55	40676.17
573.71	40957.03
573.87	41024.91
574.03	41003.85
574.20	41085.76
574.36	40912.56
574.52	41069.38
574.68	40765.11
574.84	40868.09
575.01	40659.79
575.17	41181.73
575.33	40797.88
575.49	40931.29
575.65	41069.38
575.82	40847.03
575.98	40893.84
576.14	41476.63
576.30	41308.11
576.46	40821.28
576.62	41219.17
576.79	40563.82
576.95	40465.52
577.11	41284.71
577.27	41179.39
577.43	40814.26
577.59	40933.63
577.75	40875.12
577.92	40704.26
578.08	41034.27
578.24	41024.91
578.40	41172.36
578.56	41546.85
578.72	41352.58
578.88	41488.34
579.04	41280.03
579.21	40917.25
579.37	41212.15
579.53	41511.74
579.69	40748.73
579.85	41305.77
580.01	41567.91
580.17	41071.72
580.33	41062.36
580.49	41436.84
580.65	41638.13
580.82	41291.73
580.98	41467.27
581.14	40947.67
581.30	41130.23
581.46	41397.06
581.62	41240.24
581.78	41045.97
581.94	41247.26
582.10	40753.41
582.26	41027.25
582.42	41200.45
582.58	41144.28
582.74	41406.42
582.90	41277.69
583.06	41048.32
583.22	41013.21
583.38	41198.11
583.54	41113.85
583.70	41249.60
583.86	41736.43
584.02	41130.23
584.18	41535.15
584.34	41172.36
584.50	41406.42
584.66	41375.99
584.82	41041.29
584.98	41280.03
585.14	41340.88
585.30	41469.61
585.46	41010.87
585.62	41221.52
585.78	41565.57
585.94	41287.05
586.10	41200.45
586.26	41773.88
586.42	41528.13
586.58	41556.21
586.74	41261.30
586.90	40690.21
587.06	41329.18
587.22	41460.25
587.38	41610.04
587.54	41544.51
587.70	41886.23
587.86	41691.96
588.02	41862.82
588.18	41670.90
588.34	41588.98
588.49	41439.18
588.65	41495.36
588.81	41464.93
588.97	41811.33
589.13	41514.08
589.29	41790.27
589.45	41680.26
589.61	41787.92
589.77	41642.81
589.93	41706.01
590.08	41572.60
590.24	42279.44
590.40	41771.54
590.56	42139.00
590.72	41556.21
590.88	41455.57
591.04	41511.74
591.20	42141.35
591.35	41764.52
591.51	42443.27
591.67	42270.08
591.83	42431.57
591.99	41521.10
592.15	41804.31
592.31	41916.65
592.46	41883.89
592.62	42029.00
592.78	41600.68
592.94	42007.94
593.10	42244.33
593.26	42337.95
593.41	41855.80
593.57	42258.37
593.73	42127.30
593.89	41918.99
594.05	41918.99
594.20	41057.68
594.36	41729.41
594.52	41422.80
594.68	42110.92
594.84	41853.46
594.99	42548.60
595.15	41766.86
595.31	42234.97
595.47	41956.44
595.62	42260.71
595.78	41750.48
595.94	41872.18
596.10	41661.54
596.25	41914.31
596.41	41799.63
596.57	41441.53
596.73	41958.78
596.88	41553.87
597.04	42581.37
597.20	42267.73
597.36	41832.39
597.51	42059.43
597.67	41954.10
597.83	41897.93
597.99	42581.37
598.14	42429.23
598.30	42136.66
598.46	41918.99
598.61	42019.64
598.77	42260.71
598.93	42291.14
599.09	41872.18
599.24	42731.16
599.40	41897.93
599.56	42171.77
599.71	42330.93
599.87	42375.40
600.03	42146.03
600.18	42108.58
600.34	42281.78
600.50	41900.27
600.65	41954.10
600.81	42234.97
600.97	42499.45
601.12	42146.03
601.28	42092.19
601.44	42368.38
601.59	42307.52
601.75	41586.64
601.91	42433.91
602.06	41801.97
602.22	42356.67
602.37	42340.29
602.53	42014.96
602.69	42829.46
602.84	42260.71
603.00	42260.71
603.16	42501.79
603.31	42321.57
603.47	41970.49
603.62	41720.05
603.78	41996.23
603.94	41759.84
604.09	41808.99
604.25	42241.99
604.40	42164.75
604.56	42422.21
604.71	42232.63
604.87	42127.30
605.03	42361.36
605.18	42040.70
605.34	41837.08
605.49	41911.97
605.65	41759.84
605.80	42153.05
605.96	42447.96
606.12	42424.55
606.27	42962.87
606.43	42373.06
606.58	42560.30
606.74	42382.42
606.89	42143.69
607.05	42007.94
607.20	41659.20
607.36	41619.41
607.51	41240.24
607.67	42096.88
607.82	41741.11
607.98	42347.31
608.13	42213.90
608.29	42263.05
608.44	41986.87
608.60	42284.12
608.75	41858.14
608.91	41926.02
609.06	41839.42
609.22	42014.96
609.37	41605.36
609.53	41553.87
609.68	42054.75
609.84	41668.56
609.99	41961.12
610.15	42153.05
610.30	42316.89
610.46	42036.02
610.61	42361.36
610.76	42721.80
610.92	42429.23
611.07	42698.39
611.23	42658.60
611.38	42871.59
611.54	42478.38
611.69	42447.96
611.84	42712.44
612.00	42719.46
612.15	42602.43
612.31	42450.30
612.46	41816.01
612.62	42286.46
612.77	41937.72
612.92	41888.57
613.08	41827.71
613.23	41808.99
613.39	41556.21
613.54	41572.60
613.69	41544.51
613.85	41326.84
614.00	41895.59
614.15	42171.77
614.31	41832.39
614.46	41731.75
614.62	41633.45
614.77	41551.53
614.92	41277.69
615.08	41265.99
615.23	41317.48
615.38	41635.79
615.54	41261.30
615.69	41354.93
615.84	41495.36
616.00	41673.24
616.15	41375.99
616.30	41666.22
616.46	41270.67
616.61	40664.47
616.76	41139.60
616.92	41060.02
617.07	40666.81
617.22	40687.87
617.37	40474.88
617.53	40828.30
617.68	40999.16
617.83	40666.81
617.99	41097.47
618.14	40917.25
618.29	40992.14
618.45	40879.80
618.60	40931.29
618.75	40531.06
618.90	40697.24
619.06	40329.77
619.21	40343.81
619.36	40730.00
619.51	40247.85
619.67	40512.33
619.82	40416.37
619.97	40924.27
620.12	40659.79
620.28	40664.47
620.43	40715.96
620.58	40538.08
620.73	40741.71
620.89	40463.18
621.04	40552.12
621.19	40341.47
621.34	40301.68
621.49	40238.49
621.65	40128.48
621.80	40957.03
621.95	40395.31
622.10	40105.08
622.25	40589.57
622.41	40275.94
622.56	40397.65
622.71	40252.53
622.86	39997.41
623.01	40236.15
623.16	39662.72
623.32	39856.98
623.47	40608.29
623.62	40594.25
623.77	39974.01
623.92	40528.72
624.07	40596.59
624.23	39856.98
624.38	40456.16
624.53	40009.12
624.68	40156.57
624.83	40442.12
624.98	40086.36
625.13	39725.91
625.29	39526.97
625.44	40179.98
625.59	39651.02
625.74	40261.90
625.89	39859.32
626.04	39686.12
626.19	39452.07
626.34	39643.99
626.49	39658.04
626.65	39358.45
626.80	39744.64
626.95	39028.43
627.10	39421.64
627.25	38967.58
627.40	39651.02
627.55	39477.82
627.70	39456.75
627.85	39695.49
628.00	39938.90
628.15	39491.86
628.30	39234.40
628.45	39604.20
628.60	39028.43
628.76	39536.33
628.91	39208.65
629.06	39206.31
629.21	38787.36
629.36	38440.96
629.51	39147.80
629.66	39318.66
629.81	39192.27
629.96	38700.76
630.11	38384.79
630.26	39189.93
630.41	39269.51
630.56	38831.83
630.71	39044.82
630.86	39187.59
631.01	39222.70
631.16	39175.89
631.31	39248.44
631.46	38656.29
631.61	38658.63
631.76	38939.49
631.91	38990.98
632.06	38820.13
632.21	38864.60
632.36	38611.82
632.51	38565.01
632.66	38288.82
632.81	38597.77
632.96	38845.87
633.10	39068.22
633.25	38611.82
633.40	38927.79
633.55	38403.51
633.70	38227.97
633.85	38260.74
634.00	38703.10
634.15	38785.02
634.30	38038.39
634.45	38387.13
634.60	38513.52
634.75	38607.14
634.90	38132.01
635.05	38354.36
635.19	38071.15
635.34	38466.70
635.49	38249.03
635.64	37752.84
635.79	38136.69
635.94	38085.20
636.09	37970.51
636.24	38061.79
636.39	38075.84
636.53	38656.29
636.68	38237.33
636.83	37645.18
636.98	37970.51
637.13	37923.70
637.28	37844.12
637.43	38085.20
637.57	38103.92
637.72	37448.57
637.87	37525.81
638.02	37715.39
638.17	37361.97
638.32	36947.70
638.46	37153.66
638.61	37493.04
638.76	37621.77
638.91	37462.61
639.06	38031.36
639.20	38054.77
639.35	37977.53
639.50	37464.96
639.65	37895.61
639.80	37589.00
639.94	37273.03
640.09	37191.11
640.24	37305.80
640.39	36954.72
640.54	37053.02
640.68	37230.90
640.83	36914.93
640.98	36851.73
641.13	37109.19
641.27	37563.26
641.42	36896.20
641.57	37352.61
641.72	37221.54
641.86	36975.78
642.01	36369.58
642.16	36231.49
642.31	36903.23
642.45	37102.17
642.60	36823.65
642.75	36627.04
642.90	37486.02
643.04	37106.85
643.19	36723.01
643.34	37523.47
643.48	37038.98
643.63	36884.50
643.78	36500.65
643.93	36641.09
644.07	36575.55
644.22	36938.33
644.37	36247.88
644.51	36631.72
644.66	36402.35
644.81	36987.49
644.95	37034.30
645.10	36643.43
645.25	36657.47
645.39	36889.18
645.54	36610.66
645.69	36751.09
645.83	36816.63
645.98	36385.97
646.13	36638.75
646.27	36795.56
646.42	36400.01
646.57	36463.21
646.71	36432.78
646.86	35955.31
647.00	36402.35
647.15	36575.55
647.30	36491.29
647.44	36217.45
647.59	36151.91
647.74	36301.71
647.88	36336.82
648.03	36165.96
648.17	36126.17
648.32	35995.10
648.47	36374.27
648.61	35924.88
648.76	36400.01
648.90	35901.48
649.05	36079.36
649.20	36287.67
649.34	36673.85
649.49	36142.55
649.63	36484.27
649.78	36268.94
649.92	35845.30
650.07	36201.07
650.21	35920.20
650.36	36025.53
650.51	35854.67
650.65	35995.10
650.80	36151.91
650.94	35997.44
651.09	35857.01
651.23	35629.98
651.38	35739.98
651.52	35512.95
651.67	35758.70
651.81	35686.15
651.96	35672.10
652.10	35938.93
652.25	35906.16
652.39	35274.21
652.54	35199.32
652.68	35119.74
652.83	35152.51
652.97	35206.34
653.12	35342.09
653.26	35285.92
653.41	35906.16
653.55	35419.33
653.70	35665.08
653.84	35627.63
653.99	35487.20
654.13	35442.73
654.27	35225.06
654.42	35243.79
654.56	35402.94
654.71	35246.13
654.85	35339.75
655.00	35150.17
655.14	34939.52
655.29	34668.02
655.43	34932.50
655.57	34836.53
655.72	34817.81
655.86	35110.38
656.01	34988.67
656.15	34857.60
656.30	34909.09
656.44	35157.19
656.58	35091.65
656.73	35077.61
656.87	34925.47
657.01	34890.37
657.16	34813.13
657.30	34759.30
657.45	34628.23
657.59	34976.97
657.73	34295.87
657.88	34693.76
658.02	35077.61
658.16	35093.99
658.31	34785.04
658.45	34920.79
658.60	34368.43
658.74	34134.37
658.88	34192.89
659.03	34277.15
659.17	34155.44
659.31	33998.62
659.46	34057.14
659.60	34295.87
659.74	34171.82
659.89	34497.16
660.03	34195.23
660.17	34115.65
660.32	34110.97
660.46	33743.50
660.60	33759.89
660.74	33968.19
660.89	33806.70
661.03	33539.88
661.17	33743.50
661.32	33579.67
661.46	33137.30
661.60	33511.79
661.74	33598.39
661.89	33270.72
662.03	33563.28
662.17	33275.40
662.31	33266.03
662.46	33413.49
662.60	33165.39
662.74	33167.73
662.88	32690.26
663.03	33371.36
663.17	33144.33
663.31	33006.23
663.45	33324.55
663.60	33029.64
663.74	33113.90
663.88	32723.03
664.02	32687.92
664.17	32615.37
664.31	32460.89
664.45	32690.26
664.59	32275.99
664.73	32744.09
664.88	32840.06
665.02	32755.80
665.16	32725.37
665.30	32566.21
665.44	32769.84
665.59	32053.64
665.73	32552.17
665.87	32240.88
666.01	32130.87
666.15	32261.94
666.29	32308.76
666.44	31964.70
666.58	31512.97
666.72	31765.75
666.86	32079.38
667.00	32243.22
667.14	31955.33
667.28	31828.95
667.43	31906.18
667.57	32217.47
667.71	32130.87
667.85	32013.85
667.99	31501.27
668.13	31550.42
668.27	30841.24
668.41	31407.65
668.56	31360.84
668.70	31372.54
668.84	31377.22
668.98	30801.45
669.12	31241.47
669.26	31145.51
669.40	31063.59
669.54	31304.67
669.68	31035.50
669.82	30930.18
669.96	31316.37
670.10	30913.80
670.25	31257.85
670.39	30515.90
670.53	30349.73
670.67	30398.88
670.81	30536.97
670.95	30574.42
671.09	30508.88
671.23	30291.21
671.37	30817.83
671.51	31122.10
671.65	30593.14
671.79	30340.36
671.93	30623.57
672.07	30728.89
672.21	30258.45
672.35	30450.37
672.49	30249.08
672.63	29944.81
672.77	29977.58
672.91	29909.71
673.05	29816.08
673.19	29944.81
673.33	29280.10
673.47	29165.42
673.61	29177.12
673.75	29263.72
673.89	29596.07
674.03	29362.02
674.17	29340.96
674.31	29523.52
674.45	29336.27
674.59	29415.85
674.73	29525.86
674.87	29085.84
675.01	28907.96
675.15	28573.26
675.29	28982.85
675.43	28748.80
675.56	28879.87
675.70	29036.69
675.84	28465.60
675.98	27637.05
676.12	28098.13
676.26	28060.68
676.40	28650.50
676.54	28360.27
676.68	28212.82
676.82	27992.81
676.96	28250.27
677.10	28091.11
677.23	27896.85
677.37	28161.33
677.51	27410.01
677.65	27531.72
677.79	27056.59
677.93	26909.14
678.07	27255.54
678.21	27328.10
678.34	27435.76
678.48	26808.50
678.62	27192.34
678.76	26824.88
678.90	27023.83
679.04	26843.60
679.18	26864.67
679.31	26260.81
679.45	26431.67
679.59	26686.79
679.73	26588.49
679.87	26462.10
680.00	26223.36
680.14	26171.87
680.28	26232.72
680.42	26005.69
680.56	26436.35
680.70	25560.99
680.83	25965.90
680.97	25610.14
681.11	25537.59
681.25	25654.61
681.39	25839.51
681.52	25649.93
681.66	25413.54
681.80	25221.61
681.94	25067.14
682.07	25238.00
682.21	25003.94
682.35	25113.95
682.49	25422.90
682.62	25261.40
682.76	25017.99
682.90	24929.05
683.04	24596.69
683.17	24528.81
683.31	24423.49
683.45	24573.28
683.59	24418.81
683.72	24355.61
683.86	24519.45
684.00	24353.27
684.13	23747.08
684.27	23700.26
684.41	23683.88
684.55	24027.94
684.68	23723.67
684.82	23700.26
684.96	23768.14
685.09	23414.72
685.23	24142.63
685.37	23419.40
685.50	23349.18
685.64	23307.05
685.78	23180.67
685.91	23410.04
686.05	23255.56
686.19	23028.53
686.32	22541.70
686.46	22546.38
686.60	22906.82
686.73	22850.65
686.87	22436.38
687.01	22623.62
687.14	22382.54
687.28	22597.87
687.42	22485.53
687.55	22157.85
687.69	22396.59
687.82	21825.50
687.96	22340.41
688.10	22057.21
688.23	22396.59
688.37	22363.82
688.50	21771.66
688.64	21738.90
688.78	21668.68
688.91	21942.52
689.05	21507.18
689.18	21563.36
689.32	21055.46
689.46	21149.08
689.59	20947.79
689.73	21184.19
689.86	20725.44
690.00	20786.30
690.13	20950.14
690.27	20573.31
690.41	20706.72
690.54	20325.21
690.68	20554.58
690.81	20666.93
690.95	20741.83
691.08	20381.38
691.22	20306.49
691.35	20189.46
691.49	20269.04
691.62	20283.08
691.76	20140.31
691.89	19861.79
692.03	20121.59
692.16	20077.12
692.30	19690.93
692.43	19861.79
692.57	19559.86
692.70	19433.47
692.84	19719.01
692.97	19124.52
693.11	19475.60
693.24	19103.45
693.38	19077.71
693.51	19094.09
693.65	18972.38
693.78	19225.16
693.92	19073.03
694.05	18656.41
694.19	18813.23
694.32	18991.11
694.45	19068.34
694.59	18661.09
694.72	18412.99
694.86	18204.69
694.99	18143.83
695.13	18101.70
695.26	18324.05
695.39	18106.38
695.53	17940.21
695.66	17888.71
695.80	17930.84
695.93	17886.37
696.07	17514.23
696.20	17701.47
696.33	17490.82
696.47	17757.64
696.60	17689.77
696.73	17380.82
696.87	17530.61
697.00	17415.93
697.14	17221.66
697.27	17076.55
697.40	17104.64
697.54	16816.75
697.67	16931.44
697.80	16695.04
697.94	16603.76
698.07	16561.63
698.21	16297.15
698.34	16446.94
698.47	16219.91
698.61	16505.46
698.74	16547.59
698.87	16297.15
699.01	16243.32
699.14	16472.69
699.27	16095.86
699.40	16510.14
699.54	16400.13
699.67	16016.29
699.80	15658.18
699.94	15594.99
700.07	15620.74
700.20	15489.67
700.34	15456.90
700.47	15269.66
700.60	15407.75
700.73	15403.07
700.87	15358.60
701.00	15211.14
701.13	15363.28
701.26	15075.39
701.40	14824.95
701.53	14501.96
701.66	14871.76
701.79	14843.68
701.93	14934.96
702.06	15059.01
702.19	15044.96
702.32	14548.77
702.46	14413.02
702.59	14319.40
702.72	14129.81
702.85	14012.79
702.99	14487.92
703.12	14202.37
703.25	13998.74
703.38	13963.64
703.51	13848.95
703.65	14054.92
703.78	14429.40
703.91	13872.36
704.04	13933.21
704.17	13916.83
704.31	13818.52
704.44	13448.72
704.57	13490.85
704.70	13385.52
704.83	13256.79
704.96	12917.42
705.10	13184.24
705.23	13144.45
>>>>>End Processed Spectral Data<<<<<
