SpectraSuite Data File
++++++++++++++++++++++++++++++++++++
Date: Thu Oct 24 13:21:22 EDT 2013
User: stostad
Dark Spectrum Present: No
Reference Spectrum Present: No
Number of Sampled Component Spectra: 1
Spectrometers: USB2+H05261
Integration Time (usec): 100000 (USB2+H05261)
Spectra Averaged: 1 (USB2+H05261)
Boxcar Smoothing: 0 (USB2+H05261)
Correct for Electrical Dark: No (USB2+H05261)
Strobe/Lamp Enabled: No (USB2+H05261)
Correct for Detector Non-linearity: No (USB2+H05261)
Correct for Stray Light: No (USB2+H05261)
Number of Pixels in Processed Spectrum: 2048
>>>>>Begin Processed Spectral Data<<<<<
365.73	531.30
365.92	531.30
366.12	531.30
366.32	493.85
366.52	425.98
366.72	425.98
366.91	423.64
367.11	430.66
367.31	498.53
367.51	421.30
367.70	444.70
367.90	451.72
368.10	381.51
368.30	463.43
368.49	470.45
368.69	550.03
368.89	463.43
369.09	449.38
369.28	505.56
369.48	505.56
369.68	507.90
369.87	531.30
370.07	517.26
370.27	564.07
370.47	610.88
370.66	910.47
370.86	894.08
371.06	917.49
371.25	931.53
371.45	938.55
371.65	919.83
371.84	912.81
372.04	849.61
372.24	922.17
372.44	983.02
372.63	954.94
372.83	1022.81
373.03	971.32
373.22	968.98
373.42	978.34
373.62	926.85
373.81	1020.47
374.01	1018.13
374.21	999.41
374.40	1027.50
374.60	990.05
374.79	978.34
374.99	1034.52
375.19	1128.14
375.38	1025.15
375.58	1057.92
375.78	1193.67
375.97	976.00
376.17	1170.27
376.37	1032.18
376.56	1139.84
376.76	1064.94
376.95	1086.01
377.15	1067.28
377.35	1121.12
377.54	1076.65
377.74	1116.44
377.93	1184.31
378.13	1062.60
378.33	1121.12
378.52	1057.92
378.72	1114.10
378.91	1125.80
379.11	1125.80
379.31	1137.50
379.50	1186.65
379.70	1196.01
379.89	1158.57
380.09	1132.82
380.28	1158.57
380.48	1163.25
380.68	1170.27
380.87	1170.27
381.07	1158.57
381.26	1132.82
381.46	1263.89
381.65	1242.82
381.85	1198.35
382.04	1231.12
382.24	1221.76
382.43	1249.85
382.63	1240.48
382.83	1167.93
383.02	1294.32
383.22	1331.76
383.41	1186.65
383.61	1256.87
383.80	1282.61
384.00	1249.85
384.19	1254.53
384.39	1214.74
384.58	1263.89
384.78	1296.66
384.97	1320.06
385.17	1240.48
385.36	1270.91
385.56	1294.32
385.75	1313.04
385.95	1249.85
386.14	1270.91
386.34	1299.00
386.53	1303.68
386.72	1313.04
386.92	1376.24
387.11	1366.87
387.31	1324.74
387.50	1350.49
387.70	1289.64
387.89	1444.11
388.09	1343.47
388.28	1336.45
388.48	1355.17
388.67	1387.94
388.86	1364.53
389.06	1500.28
389.25	1453.47
389.45	1483.90
389.64	1493.26
389.84	1481.56
390.03	1474.54
390.22	1432.41
390.42	1509.65
390.61	1504.96
390.81	1476.88
391.00	1376.24
391.19	1437.09
391.39	1533.05
391.58	1509.65
391.78	1394.96
391.97	1500.28
392.16	1519.01
392.36	1547.09
392.55	1561.14
392.75	1547.09
392.94	1549.43
393.13	1600.93
393.33	1645.40
393.52	1610.29
393.71	1638.38
393.91	1675.82
394.10	1568.16
394.29	1673.48
394.49	1568.16
394.68	1675.82
394.88	1584.54
395.07	1743.70
395.26	1657.10
395.46	1638.38
395.65	1717.95
395.84	1699.23
396.04	1736.68
396.23	1806.89
396.42	1699.23
396.62	1811.57
396.81	1806.89
397.00	1715.61
397.19	1774.13
397.39	1753.06
397.58	1839.66
397.77	1837.32
397.97	1842.00
398.16	1802.21
398.35	1849.02
398.55	1874.77
398.74	1888.81
398.93	1966.05
399.12	1893.49
399.32	1837.32
399.51	1926.26
399.70	1963.71
399.90	1961.37
400.09	1898.17
400.28	1959.03
400.47	2033.93
400.67	2043.29
400.86	2073.71
401.05	2010.52
401.24	2064.35
401.44	2043.29
401.63	1996.48
401.82	2092.44
402.01	2069.03
402.21	2076.06
402.40	2125.21
402.59	2125.21
402.78	2143.93
402.97	2090.10
403.17	2195.42
403.36	2256.28
403.55	2111.16
403.74	2260.96
403.93	2214.15
404.13	2345.22
404.32	2298.41
404.51	2429.48
404.70	2296.07
404.89	2368.62
405.09	2289.04
405.28	2284.36
405.47	2380.32
405.66	2289.04
405.85	2363.94
406.05	2363.94
406.24	2476.29
406.43	2478.63
406.62	2525.44
406.81	2485.65
407.00	2452.88
407.20	2413.09
407.39	2520.76
407.58	2576.93
407.77	2562.89
407.96	2630.76
408.15	2651.83
408.34	2640.12
408.54	2607.36
408.73	2630.76
408.92	2567.57
409.11	2691.62
409.30	2647.15
409.49	2745.45
409.68	2661.19
409.87	2682.25
410.07	2705.66
410.26	2789.92
410.45	2792.26
410.64	2846.09
410.83	2829.71
411.02	2928.01
411.21	2874.18
411.40	2979.50
411.59	2970.14
411.78	2998.23
411.98	2911.63
412.17	3096.53
412.36	3162.06
412.55	3096.53
412.74	3143.34
412.93	3119.93
413.12	3056.74
413.31	3166.74
413.50	3023.97
413.69	3145.68
413.88	3236.96
414.07	3222.92
414.26	3265.05
414.45	3295.47
414.64	3356.33
414.83	3314.20
415.02	3386.76
415.22	3433.57
415.41	3463.99
415.60	3559.95
415.79	3569.32
415.98	3538.89
416.17	3431.23
416.36	3506.12
416.55	3527.19
416.74	3716.77
416.93	3569.32
417.12	3698.05
417.31	3698.05
417.50	3819.75
417.69	3765.92
417.88	3808.05
418.07	3847.84
418.26	3866.56
418.45	3864.22
418.64	3882.95
418.83	3920.40
419.02	3953.16
419.21	4021.04
419.39	3936.78
419.58	3946.14
419.77	3997.64
419.96	4049.13
420.15	4161.47
420.34	4030.40
420.53	4060.83
420.72	4161.47
420.91	4208.28
421.10	4219.99
421.29	4306.59
421.48	4142.75
421.67	4191.90
421.86	4196.58
422.05	4198.92
422.24	4187.22
422.43	4285.52
422.61	4234.03
422.80	4322.97
422.99	4320.63
423.18	4234.03
423.37	4177.86
423.56	4191.90
423.75	4259.78
423.94	4297.22
424.13	4056.15
424.32	4133.39
424.50	4315.95
424.69	4557.02
424.88	4461.06
425.07	4344.03
425.26	4297.22
425.45	4219.99
425.64	4409.57
425.83	4266.80
426.01	4442.34
426.20	4395.53
426.39	4447.02
426.58	4395.53
426.77	4315.95
426.96	4421.27
427.15	4423.61
427.33	4458.72
427.52	4608.51
427.71	4603.83
427.90	4507.87
428.09	4648.30
428.28	4652.98
428.46	4662.35
428.65	4629.58
428.84	4814.48
429.03	4681.07
429.22	4507.87
429.40	4662.35
429.59	4629.58
429.78	4524.26
429.97	4547.66
430.16	4786.40
430.34	4880.02
430.53	4798.10
430.72	4880.02
430.91	4725.54
431.10	4730.22
431.28	5100.03
431.47	5043.85
431.66	4980.66
431.85	4915.12
432.03	5048.54
432.22	5020.45
432.41	5167.90
432.60	5006.41
432.79	5090.67
432.97	5137.48
433.16	5193.65
433.35	5135.14
433.54	5128.11
433.72	5287.27
433.91	5228.76
434.10	5324.72
434.28	5205.35
434.47	5294.29
434.66	5247.48
434.85	5408.98
435.03	5586.86
435.22	5528.35
435.41	5682.82
435.59	5746.02
435.78	5703.89
435.97	5633.67
436.16	5476.85
436.34	5338.76
436.53	5453.45
436.72	5692.18
436.90	5465.15
437.09	5612.60
437.28	5579.84
437.46	5631.33
437.65	5582.18
437.84	5774.10
438.02	5708.57
438.21	5746.02
438.40	5832.62
438.58	5858.36
438.77	6061.99
438.96	5846.66
439.14	6094.76
439.33	6097.10
439.52	6211.78
439.70	6047.94
439.89	6193.06
440.08	6223.48
440.26	6340.51
440.45	6239.87
440.63	6361.58
440.82	6370.94
441.01	6209.44
441.19	6324.13
441.38	6457.54
441.57	6436.47
441.75	6504.35
441.94	6677.55
442.12	6604.99
442.31	6679.89
442.50	6623.72
442.68	6597.97
442.87	6832.02
443.05	6764.15
443.24	6817.98
443.43	6855.43
443.61	6696.27
443.80	6956.07
443.98	6703.29
444.17	6626.06
444.35	6993.52
444.54	7014.59
444.73	6967.77
444.91	6825.00
445.10	7176.08
445.28	6923.30
445.47	6984.16
445.65	6848.41
445.84	7105.87
446.02	7253.32
446.21	7250.98
446.39	7133.95
446.58	7250.98
446.77	7040.33
446.95	6832.02
447.14	7056.72
447.32	7194.81
447.51	6937.35
447.69	6974.80
447.88	7136.29
448.06	6993.52
448.25	7187.79
448.43	7136.29
448.62	6953.73
448.80	7211.19
448.99	7178.42
449.17	7164.38
449.36	7183.10
449.54	7410.14
449.73	7499.08
449.91	7438.22
450.10	7590.36
450.28	7400.77
450.46	7573.97
450.65	7620.78
450.83	7452.27
451.02	7379.71
451.20	7468.65
451.39	7630.15
451.57	7559.93
451.76	7772.92
451.94	7655.89
452.13	7625.47
452.31	7676.96
452.49	7651.21
452.68	7822.07
452.86	7793.98
453.05	7861.86
453.23	7908.67
453.42	7791.64
453.60	7672.28
453.78	7943.78
453.97	7754.19
454.15	7936.76
454.34	7985.91
454.52	7988.25
454.70	7838.45
454.89	8016.33
455.07	7913.35
455.26	8135.70
455.44	8379.12
455.62	8086.55
455.81	8133.36
455.99	8308.90
456.17	8299.54
456.36	8306.56
456.54	8416.57
456.73	8493.80
456.91	8706.79
457.09	8425.93
457.28	8753.60
457.46	8432.95
457.64	8435.29
457.83	8589.77
458.01	8564.02
458.19	8671.68
458.38	8580.40
458.56	8978.30
458.74	8772.33
458.93	8692.75
459.11	8727.86
459.29	8830.84
459.48	8877.65
459.66	8688.07
459.84	9039.15
460.03	9252.14
460.21	9121.07
460.39	9097.66
460.57	9125.75
460.76	9132.77
460.94	9097.66
461.12	9301.29
461.31	9125.75
461.49	9022.77
461.67	9296.61
461.85	9364.48
462.04	9291.93
462.22	9724.93
462.40	9469.81
462.59	9483.85
462.77	9528.32
462.95	9680.46
463.13	9462.79
463.32	9380.87
463.50	9689.82
463.68	9542.36
463.86	9736.63
464.05	9565.77
464.23	9551.73
464.41	9776.42
464.59	9476.83
464.78	9694.50
464.96	9654.71
465.14	9514.28
465.32	9804.50
465.50	9961.32
465.69	9870.04
465.87	9914.51
466.05	9762.37
466.23	9846.63
466.41	10155.58
466.60	10040.90
466.78	9863.02
466.96	9830.25
467.14	9963.66
467.32	9966.00
467.51	10300.70
467.69	10225.80
467.87	10127.50
468.05	10401.34
468.23	9973.02
468.41	10214.10
468.60	10174.31
468.78	10349.85
468.96	10272.61
469.14	10424.75
469.32	10483.26
469.50	10080.69
469.69	10455.17
469.87	10511.35
470.05	10672.84
470.23	10658.80
470.41	10576.88
470.59	10630.71
470.77	10759.44
470.95	10848.38
471.14	11035.63
471.32	10672.84
471.50	10993.50
471.68	10871.79
471.86	10904.56
472.04	11089.46
472.22	11293.08
472.40	11054.35
472.58	11389.05
472.77	11531.82
472.95	11367.98
473.13	11683.95
473.31	11269.68
473.49	11571.61
473.67	11536.50
473.85	11417.13
474.03	11756.51
474.21	11985.88
474.39	11707.36
474.57	11819.71
474.75	11878.22
474.93	12198.87
475.12	12084.19
475.30	12131.00
475.48	12241.00
475.66	12135.68
475.84	12177.81
476.02	12229.30
476.20	12648.26
476.38	12587.40
476.56	12666.98
476.74	12720.81
476.92	12816.77
477.10	12512.50
477.28	12973.59
477.46	12940.82
477.64	13298.92
477.82	13144.45
478.00	13675.75
478.18	13563.40
478.36	13523.62
478.54	14001.08
478.72	13628.94
478.90	13947.25
479.08	14136.84
479.26	14284.29
479.44	14272.59
479.62	14087.68
479.80	14523.02
479.98	14647.07
480.16	14920.92
480.34	14766.44
480.52	15164.33
480.70	15042.62
480.88	14885.81
481.06	14972.41
481.24	15222.84
481.41	15393.70
481.59	15374.98
481.77	15571.58
481.95	15676.91
482.13	15784.57
482.31	15655.84
482.49	15927.35
482.67	16444.60
482.85	16163.74
483.03	16358.00
483.21	16360.34
483.39	16985.27
483.57	16657.59
483.74	16762.92
483.92	17270.81
484.10	16968.88
484.28	17216.98
484.46	17425.29
484.64	17837.22
484.82	17352.73
485.00	17905.10
485.18	17994.04
485.35	18305.33
485.53	18120.43
485.71	18071.28
485.89	18836.63
486.07	18551.09
486.25	18721.95
486.43	18738.33
486.61	18752.37
486.78	19105.79
486.96	19407.72
487.14	19665.18
487.32	19630.07
487.50	19981.15
487.68	19868.81
487.85	19974.13
488.03	20507.77
488.21	20585.01
488.39	20542.88
488.57	20734.81
488.75	20830.77
488.92	21050.78
489.10	21324.62
489.28	21221.64
489.46	21383.13
489.64	21666.34
489.81	21841.88
489.99	22199.98
490.17	21612.51
490.35	22450.42
490.53	22429.35
490.70	22602.55
490.88	22780.43
491.06	22618.94
491.24	22698.52
491.41	23087.04
491.59	23152.58
491.77	23192.37
491.95	23477.91
492.13	23630.05
492.30	23667.50
492.48	23707.29
492.66	23985.81
492.84	23899.21
493.01	24395.40
493.19	24074.75
493.37	24533.50
493.54	24535.84
493.72	24800.32
493.90	24697.33
494.08	24751.17
494.25	25329.28
494.43	25301.19
494.61	25338.64
494.79	25434.60
494.96	25734.19
495.14	25528.22
495.32	26218.68
495.49	26195.28
495.67	26368.48
495.85	26239.75
496.02	26354.43
496.20	26906.80
496.38	26984.04
496.55	26878.71
496.73	27021.48
496.91	27342.14
497.09	27653.43
497.26	27590.24
497.44	27601.94
497.62	27798.54
497.79	28205.80
497.97	27887.48
498.14	28290.06
498.32	28411.76
498.50	28243.24
498.67	28783.91
498.85	28952.43
499.03	28739.44
499.20	28922.00
499.38	28947.75
499.56	29195.84
499.73	29315.21
499.91	29228.61
500.08	29560.97
500.26	29340.96
500.44	29619.48
500.61	29898.00
500.79	30019.71
500.97	30405.90
501.14	30403.56
501.32	30176.53
501.49	30363.77
501.67	30806.13
501.84	30869.33
502.02	30948.90
502.20	30995.71
502.37	30852.94
502.55	30508.88
502.72	31063.59
502.90	31367.86
503.07	31180.62
503.25	31557.44
503.43	31477.86
503.60	31791.50
503.78	31641.70
503.95	31838.31
504.13	31758.73
504.30	31768.09
504.48	32084.06
504.65	32512.38
504.83	32229.18
505.01	32765.16
505.18	32741.75
505.36	32730.05
505.53	32863.46
505.71	33055.39
505.88	33092.83
506.06	33137.30
506.23	33179.43
506.41	33214.54
506.58	33385.40
506.76	33336.25
506.93	33855.85
507.11	33333.91
507.28	33736.48
507.46	33757.55
507.63	33493.07
507.81	34024.37
507.98	34045.43
508.16	33928.41
508.33	34040.75
508.50	34103.95
508.68	34565.03
508.85	34536.94
509.03	34532.26
509.20	34642.27
509.38	35234.42
509.55	35075.27
509.73	35185.27
509.90	35297.62
510.08	35388.90
510.25	35718.92
510.42	35501.25
510.60	35594.87
510.77	35796.15
510.95	35917.86
511.12	35882.75
511.30	36126.17
511.47	36086.38
511.64	36467.89
511.82	36556.83
511.99	36135.53
512.17	36512.36
512.34	36655.13
512.51	36863.44
512.69	36849.39
512.86	36603.64
513.04	37057.70
513.21	36928.97
513.38	36968.76
513.56	37364.31
513.73	36973.44
513.90	37600.71
514.08	37549.21
514.25	37661.56
514.43	37867.53
514.60	37727.10
514.77	38050.09
514.95	37727.10
515.12	37851.14
515.29	38244.35
515.47	38258.40
515.64	38569.69
515.81	38527.56
515.99	37729.44
516.16	38429.26
516.33	38600.12
516.51	38801.40
516.68	38419.89
516.85	38499.47
517.03	38986.30
517.20	39026.09
517.37	38873.96
517.54	39140.78
517.72	39108.01
517.89	39232.06
518.06	39318.66
518.24	39620.59
518.41	39957.63
518.58	39866.34
518.75	39622.93
518.93	39669.74
519.10	39330.36
519.27	40112.10
519.45	39981.03
519.62	39679.10
519.79	40474.88
519.96	40137.85
520.14	40264.24
520.31	39800.81
520.48	40392.97
520.65	40491.27
520.83	41060.02
521.00	41123.21
521.17	40999.16
521.34	41116.19
521.52	41106.83
521.69	40996.82
521.86	41006.19
522.03	41546.85
522.20	41205.13
522.38	41675.58
522.55	41401.74
522.72	41839.42
522.89	41532.81
523.07	41972.83
523.24	41553.87
523.41	42033.68
523.58	42005.59
523.75	42094.53
523.92	42192.84
524.10	42478.38
524.27	42054.75
524.44	41794.95
524.61	42600.09
524.78	42321.57
524.96	42373.06
525.13	43016.71
525.30	43096.28
525.47	43028.41
525.64	42761.59
525.81	43346.72
525.98	43173.52
526.16	42871.59
526.33	43152.46
526.50	43007.34
526.67	43225.01
526.84	43580.78
527.01	43445.02
527.18	43786.74
527.36	43615.88
527.53	43405.23
527.70	43604.18
527.87	44226.76
528.04	43835.89
528.21	44395.28
528.38	44191.65
528.55	44140.16
528.72	44196.34
528.89	43786.74
529.07	44236.12
529.24	44039.52
529.41	44538.05
529.58	44470.18
529.75	44769.77
529.92	44507.63
530.09	44179.95
530.26	44474.86
530.43	44238.47
530.60	44266.55
530.77	44402.30
530.94	44907.86
531.11	45050.63
531.28	45151.27
531.46	45013.18
531.63	45511.72
531.80	45113.83
531.97	44961.69
532.14	45481.29
532.31	45090.42
532.48	45511.72
532.65	45387.67
532.82	45303.41
532.99	45422.78
533.16	45375.97
533.33	45935.35
533.50	45839.39
533.67	45984.51
533.84	45457.88
534.01	45951.74
534.18	46171.75
534.35	46263.03
534.52	46461.97
534.69	46328.56
534.86	46422.19
535.03	45776.20
535.20	46213.88
535.37	46183.45
535.54	46822.42
535.71	46693.69
535.88	47037.75
536.05	46534.53
536.22	47061.15
536.38	47103.28
536.55	46838.80
536.72	47152.43
536.89	46864.55
537.06	46869.23
537.23	47484.79
537.40	47442.66
537.57	46990.94
537.74	47269.46
537.91	47164.14
538.08	47330.31
538.25	46820.08
538.42	47414.57
538.59	47920.13
538.75	47288.18
538.92	47377.12
539.09	47594.79
539.26	47302.23
539.43	47583.09
539.60	48004.39
539.77	47545.64
539.94	47985.66
540.11	48119.07
540.28	48137.80
540.44	48044.18
540.61	48116.73
540.78	48210.35
540.95	48313.34
541.12	48102.69
541.29	47973.96
541.46	48584.84
541.62	48680.80
541.79	48910.17
541.96	48116.73
542.13	48175.25
542.30	48446.75
542.47	48739.32
542.63	48704.21
542.80	49048.27
542.97	49481.27
543.14	49565.52
543.31	49640.42
543.48	49184.02
543.64	49631.06
543.81	48968.69
543.98	49226.15
544.15	49492.97
544.32	49881.50
544.48	49729.36
544.65	49563.18
544.82	49640.42
544.99	49394.67
545.16	49687.23
545.32	49563.18
545.49	49818.30
545.66	50138.96
545.83	50387.05
546.00	50752.18
546.16	50054.70
546.33	50337.90
546.50	49815.96
546.67	50075.76
546.83	49904.90
547.00	49825.32
547.17	49895.54
547.34	49659.15
547.50	50153.00
547.67	50717.07
547.84	50787.28
548.00	50468.97
548.17	50855.16
548.34	50637.49
548.51	50934.74
548.67	50244.28
548.84	50042.99
549.01	50279.39
549.18	50347.26
549.34	50457.27
549.51	50721.75
549.68	50717.07
549.84	50831.75
550.01	50747.50
550.18	50356.63
550.34	50663.24
550.51	50866.86
550.68	50817.71
550.84	50852.82
551.01	50724.09
551.18	50726.43
551.34	50667.92
551.51	51049.42
551.68	50546.21
551.84	50791.97
552.01	50529.83
552.18	50822.39
552.34	50899.63
552.51	50960.48
552.68	51337.31
552.84	51386.46
553.01	51381.78
553.18	51547.96
553.34	51311.56
553.51	51096.24
553.67	51274.12
553.84	51702.43
554.01	51849.89
554.17	51447.32
554.34	51452.00
554.51	51842.87
554.67	51758.61
554.84	51147.73
555.00	51557.32
555.17	51487.10
555.33	51875.63
555.50	51288.16
555.67	51470.72
555.83	51817.12
556.00	51824.14
556.16	52006.70
556.33	51922.44
556.50	51433.27
556.66	51784.35
556.83	51381.78
556.99	51885.00
557.16	52109.69
557.32	52158.84
557.49	52046.49
557.65	51885.00
557.82	51990.32
557.98	51800.74
558.15	51990.32
558.32	51948.19
558.48	52168.20
558.65	52154.16
558.81	52357.78
558.98	52172.88
559.14	52126.07
559.31	52198.63
559.47	52486.51
559.64	52488.85
559.80	52336.72
559.97	52163.52
560.13	52184.58
560.30	52130.75
560.46	52348.42
560.63	52615.24
560.79	52552.05
560.96	52968.66
561.12	52624.60
561.29	52437.36
561.45	52350.76
561.61	52430.34
561.78	52425.66
561.94	52722.91
562.11	52858.66
562.27	53111.44
562.44	52655.03
562.60	52891.43
562.77	52629.29
562.93	52584.82
563.10	52896.11
563.26	52502.90
563.42	52825.89
563.59	52996.75
563.75	53214.42
563.92	53176.97
564.08	52825.89
564.24	52732.27
564.41	52839.93
564.57	52727.59
564.74	52898.45
564.90	53085.69
565.07	52828.23
565.23	53050.58
565.39	53616.99
565.56	53188.67
565.72	52926.53
565.88	52931.22
566.05	53071.65
566.21	52655.03
566.38	53017.82
566.54	52648.01
566.70	53106.76
566.87	53509.33
567.03	53038.88
567.19	53448.47
567.36	53357.19
567.52	52992.07
567.68	53368.90
567.85	53492.94
568.01	53319.74
568.17	53324.43
568.34	53010.79
568.50	53125.48
568.66	53155.91
568.83	53172.29
568.99	53315.06
569.15	53209.74
569.32	53261.23
569.48	52978.03
569.64	53212.08
569.81	52987.39
569.97	53155.91
570.13	53387.62
570.30	53191.01
570.46	53282.30
570.62	53418.05
570.78	53516.35
570.95	53113.78
571.11	53432.09
571.27	53382.94
571.43	53312.72
571.60	53455.50
571.76	53553.80
571.92	53301.02
572.09	53535.07
572.25	53766.79
572.41	53787.85
572.57	53544.44
572.74	53932.96
572.90	53308.04
573.06	53621.67
573.22	53551.46
573.38	53565.50
573.55	53471.88
573.71	53572.52
573.87	53305.70
574.03	53696.57
574.20	53549.12
574.36	53586.57
574.52	53514.01
574.68	53523.37
574.84	53380.60
575.01	53687.21
575.17	53635.72
575.33	53455.50
575.49	53455.50
575.65	53626.35
575.82	53675.51
575.98	53441.45
576.14	53811.26
576.30	53757.42
576.46	53455.50
576.62	53432.09
576.79	53446.13
576.95	53425.07
577.11	53528.05
577.27	53638.06
577.43	53879.13
577.59	53813.60
577.75	53717.64
577.92	53640.40
578.08	53565.50
578.24	53446.13
578.40	53949.35
578.56	53703.59
578.72	53825.30
578.88	53935.30
579.04	53965.73
579.21	53998.50
579.37	53785.51
579.53	54040.63
579.69	53808.92
579.85	53677.85
580.01	53820.62
580.17	53783.17
580.33	53909.56
580.49	53705.93
580.65	53881.47
580.82	54054.67
580.98	53916.58
581.14	53715.29
581.30	54129.57
581.46	53766.79
581.62	53806.58
581.78	53413.37
581.94	53829.98
582.10	53825.30
582.26	53914.24
582.42	54124.89
582.58	53696.57
582.74	53895.52
582.90	54183.40
583.06	54204.47
583.22	53616.99
583.38	54031.27
583.54	53771.47
583.70	53853.39
583.86	53918.92
584.02	53979.78
584.18	54082.76
584.34	54017.22
584.50	54405.75
584.66	53769.13
584.82	54003.18
584.98	53984.46
585.14	53947.01
585.30	54064.03
585.46	53958.71
585.62	53972.75
585.78	54078.08
585.94	53951.69
586.10	53727.00
586.26	53989.14
586.42	54026.59
586.58	54054.67
586.74	53909.56
586.90	53839.34
587.06	54049.99
587.22	54358.94
587.38	54129.57
587.54	54305.11
587.70	54396.39
587.86	54487.67
588.02	54138.93
588.18	54415.11
588.34	54129.57
588.49	54007.86
588.65	53633.38
588.81	54232.55
588.97	54239.57
589.13	54059.35
589.29	54520.44
589.45	54412.77
589.61	54429.16
589.77	54485.33
589.93	54312.13
590.08	54213.83
590.24	54616.40
590.40	54375.33
590.56	54562.57
590.72	54492.35
590.88	54148.29
591.04	54358.94
591.20	54501.71
591.35	54314.47
591.51	54679.60
591.67	54667.89
591.83	54681.94
591.99	54316.81
592.15	54487.67
592.31	54344.90
592.46	54356.60
592.62	54445.54
592.78	54234.89
592.94	54279.36
593.10	54122.55
593.26	54555.55
593.41	54644.49
593.57	54679.60
593.73	54583.63
593.89	54745.13
594.05	54541.50
594.20	54497.03
594.36	54382.35
594.52	54253.62
594.68	54429.16
594.84	54401.07
594.99	54578.95
595.15	54377.67
595.31	54656.19
595.47	54855.14
595.62	54403.41
595.78	54426.82
595.94	54342.56
596.10	54262.98
596.25	54539.16
596.41	54571.93
596.57	54117.87
596.73	54494.69
596.88	54471.29
597.04	54693.64
597.20	54873.86
597.36	54361.28
597.51	54700.66
597.67	54653.85
597.83	54408.09
597.99	54803.64
598.14	54841.09
598.30	54656.19
598.46	54637.47
598.61	54480.65
598.77	54550.87
598.93	54990.89
599.09	54637.47
599.24	55007.27
599.40	54571.93
599.56	54567.25
599.71	54707.68
599.87	54707.68
600.03	54499.37
600.18	54691.30
600.34	54855.14
600.50	54536.82
600.65	54667.89
600.81	54894.92
600.97	54611.72
601.12	54899.61
601.28	54756.83
601.44	54494.69
601.59	54651.51
601.75	54482.99
601.91	54885.56
602.06	54433.84
602.22	54899.61
602.37	54628.10
602.53	54798.96
602.69	54871.52
602.84	54766.20
603.00	54930.03
603.16	54906.63
603.31	54770.88
603.47	54688.96
603.62	54946.42
603.78	54714.70
603.94	54490.01
604.09	54831.73
604.25	54590.66
604.40	54630.44
604.56	54422.14
604.71	54934.71
604.87	54918.33
605.03	54777.90
605.18	54710.02
605.34	54728.75
605.49	54192.76
605.65	54637.47
605.80	54555.55
605.96	54759.17
606.12	54822.37
606.27	54962.80
606.43	54901.95
606.58	55199.19
606.74	54787.26
606.89	54986.21
607.05	54658.53
607.20	54452.56
607.36	54319.15
607.51	54433.84
607.67	54705.34
607.82	54576.61
607.98	54454.90
608.13	54747.47
608.29	54630.44
608.44	54482.99
608.60	54562.57
608.75	54848.11
608.91	54522.78
609.06	54340.22
609.22	54539.16
609.37	54197.44
609.53	54422.14
609.68	54569.59
609.84	54309.79
609.99	54747.47
610.15	54637.47
610.30	54656.19
610.46	54784.92
610.61	54789.60
610.76	55063.44
610.92	55061.10
611.07	54644.49
611.23	54667.89
611.38	54915.99
611.54	55152.38
611.69	54986.21
611.84	54969.82
612.00	54801.30
612.15	54593.00
612.31	54789.60
612.46	54983.86
612.62	54710.02
612.77	54621.08
612.92	54747.47
613.08	54398.73
613.23	54272.34
613.39	54253.62
613.54	54438.52
613.69	54459.58
613.85	54653.85
614.00	55000.25
614.15	54712.36
614.31	54597.68
614.46	54581.29
614.62	54391.71
614.77	54262.98
614.92	54653.85
615.08	54277.02
615.23	54237.23
615.38	54220.85
615.54	54094.46
615.69	53811.26
615.84	54003.18
616.00	54089.78
616.15	53858.07
616.30	54508.74
616.46	54218.51
616.61	54047.65
616.76	54040.63
616.92	53858.07
617.07	53916.58
617.22	53432.09
617.37	53394.64
617.53	53614.65
617.68	54003.18
617.83	53748.06
617.99	54258.30
618.14	54101.48
618.29	54014.88
618.45	53832.32
618.60	53942.33
618.75	53429.75
618.90	53375.92
619.06	53546.78
619.21	53581.88
619.36	53858.07
619.51	53703.59
619.67	53357.19
619.82	53298.68
619.97	53806.58
620.12	53844.02
620.28	53897.86
620.43	53977.43
620.58	53939.99
620.73	53736.36
620.89	53581.88
621.04	53698.91
621.19	53516.35
621.34	53294.00
621.49	53329.11
621.65	52996.75
621.80	53652.10
621.95	53336.13
622.10	53481.24
622.25	53584.22
622.41	53609.97
622.56	53450.81
622.71	53647.42
622.86	53064.63
623.01	53062.29
623.16	52940.58
623.32	53137.18
623.47	53413.37
623.62	53069.31
623.77	53434.43
623.92	53577.20
624.07	53464.86
624.23	53263.57
624.38	53331.45
624.53	53382.94
624.68	53165.27
624.83	53333.79
624.98	53064.63
625.13	52776.74
625.29	53036.54
625.44	53069.31
625.59	52919.51
625.74	52788.44
625.89	52800.15
626.04	52853.98
626.19	53158.25
626.34	53038.88
626.49	52853.98
626.65	53052.92
626.80	52971.00
626.95	52678.44
627.10	52383.53
627.25	52636.31
627.40	52247.78
627.55	52687.80
627.70	52444.38
627.85	52680.78
628.00	52552.05
628.15	52732.27
628.30	52495.88
628.45	52615.24
628.60	52233.74
628.76	52479.49
628.91	52346.08
629.06	52566.09
629.21	52610.56
629.36	52100.32
629.51	52605.88
629.66	52516.94
629.81	52484.17
629.96	52477.15
630.11	52133.09
630.26	52575.45
630.41	52491.19
630.56	52523.96
630.71	52734.61
630.86	52495.88
631.01	52252.46
631.16	52093.30
631.31	52123.73
631.46	51629.88
631.61	52158.84
631.76	52252.46
631.91	52114.37
632.06	52205.65
632.21	52273.52
632.36	52020.75
632.51	52142.45
632.66	52413.96
632.81	51826.48
632.96	52238.42
633.10	51732.86
633.25	51913.08
633.40	51669.67
633.55	52062.88
633.70	51906.06
633.85	51517.53
634.00	51880.31
634.15	51796.06
634.30	51704.77
634.45	51604.13
634.60	51789.03
634.75	51789.03
634.90	51540.94
635.05	51730.52
635.19	51374.76
635.34	51662.64
635.49	51714.14
635.64	51323.27
635.79	51339.65
635.94	51547.96
636.09	51571.36
636.24	51494.13
636.39	51363.06
636.53	51554.98
636.68	51697.75
636.83	51325.61
636.98	51278.80
637.13	51054.11
637.28	51332.63
637.43	51213.26
637.57	51208.58
637.72	51065.81
637.87	51136.02
638.02	51320.93
638.17	51316.25
638.32	50880.91
638.46	50735.79
638.61	51028.36
638.76	51121.98
638.91	51416.89
639.06	51412.21
639.20	51035.38
639.35	51077.51
639.50	51152.41
639.65	51091.55
639.80	50941.76
639.94	50707.71
640.09	50756.86
640.24	51070.49
640.39	50852.82
640.54	50478.33
640.68	50700.68
640.83	50726.43
640.98	50761.54
641.13	50408.12
641.27	50532.17
641.42	50492.38
641.57	50321.52
641.72	50487.70
641.86	50490.04
642.01	49928.31
642.16	50356.63
642.31	50227.90
642.45	50447.91
642.60	50237.26
642.75	50284.07
642.90	50600.04
643.04	50267.69
643.19	49977.46
643.34	50663.24
643.48	50543.87
643.63	50761.54
643.78	50113.21
643.93	50092.15
644.07	50148.32
644.22	50237.26
644.37	49951.71
644.51	50403.44
644.66	50220.87
644.81	50703.03
644.95	50581.32
645.10	50475.99
645.25	50188.11
645.39	50459.61
645.54	49982.14
645.69	50141.30
645.83	50248.96
645.98	49879.16
646.13	49511.69
646.27	49937.67
646.42	50057.04
646.57	49991.50
646.71	49890.86
646.86	50192.79
647.00	49853.41
647.15	50120.23
647.30	49975.12
647.44	50017.25
647.59	50010.23
647.74	49546.80
647.88	49593.61
648.03	49727.02
648.17	49553.82
648.32	49375.94
648.47	49432.11
648.61	49254.23
648.76	49411.05
648.90	49457.86
649.05	49731.70
649.20	49584.25
649.34	49759.79
649.49	49734.04
649.63	50218.53
649.78	49794.90
649.92	49640.42
650.07	49724.68
650.21	49748.09
650.36	49546.80
650.51	49415.73
650.65	49462.54
650.80	49312.75
650.94	49041.24
651.09	49198.06
651.23	48837.62
651.38	48980.39
651.52	49127.84
651.67	49233.17
651.81	49387.64
651.96	49628.72
652.10	49272.96
652.25	48971.03
652.39	49272.96
652.54	49001.46
652.68	48793.15
652.83	49102.10
652.97	48645.69
653.12	48875.07
653.26	49308.07
653.41	49015.50
653.55	48793.15
653.70	49050.61
653.84	48882.09
653.99	48849.32
654.13	48926.56
654.27	48907.83
654.42	48561.44
654.56	48631.65
654.71	48479.52
654.85	48596.54
655.00	48781.45
655.14	48175.25
655.29	48395.26
655.43	48725.27
655.57	47910.77
655.72	48123.75
655.86	48144.82
656.01	48367.17
656.15	48198.65
656.30	48245.46
656.44	48493.56
656.58	48938.26
656.73	48135.46
656.87	48542.71
657.01	48404.62
657.16	48154.18
657.30	48404.62
657.45	47948.21
657.59	47767.99
657.73	47737.57
657.88	47735.23
658.02	48151.84
658.16	47878.00
658.31	47957.58
658.45	48222.06
658.60	47948.21
658.74	47620.54
658.88	47674.37
659.03	47669.69
659.17	47318.61
659.31	47402.87
659.46	47185.20
659.60	47384.15
659.74	47412.23
659.89	47379.46
660.03	47753.95
660.17	47765.65
660.32	47161.79
660.46	47119.66
660.60	46855.18
660.74	47665.01
660.89	46483.04
661.03	46735.82
661.17	46960.51
661.32	46440.91
661.46	46415.16
661.60	46644.54
661.74	46562.62
661.89	46504.10
662.03	46443.25
662.17	46501.76
662.31	46190.47
662.46	46639.86
662.60	46576.66
662.74	46600.07
662.88	46358.99
663.03	45940.04
663.17	46621.13
663.31	46539.21
663.45	46546.23
663.60	46171.75
663.74	45858.12
663.88	45933.01
664.02	45752.79
664.17	45549.17
664.31	45727.05
664.45	45345.54
664.59	45481.29
664.73	45804.28
664.88	45851.09
665.02	45151.27
665.16	45738.75
665.30	45588.95
665.44	45275.32
665.59	44952.33
665.73	45198.09
665.87	45048.29
666.01	44753.38
666.15	44992.12
666.29	44788.49
666.44	45207.45
666.58	44713.59
666.72	44722.96
666.86	44790.83
667.00	45137.23
667.14	44638.70
667.28	44605.93
667.43	44505.29
667.57	44601.25
667.71	44311.02
667.85	44781.47
667.99	44381.24
668.13	44549.76
668.27	44259.53
668.41	44343.79
668.56	44149.53
668.70	44112.08
668.84	43962.28
668.98	43571.41
669.12	43564.39
669.26	43585.46
669.40	43557.37
669.54	43618.22
669.68	43906.11
669.82	43299.91
669.96	43683.76
670.10	43775.04
670.25	43311.61
670.39	42972.24
670.53	42995.64
670.67	42993.30
670.81	43391.19
670.95	42866.91
671.09	42721.80
671.23	42567.32
671.37	42831.80
671.51	43407.58
671.65	43042.45
671.79	43295.23
671.93	42815.42
672.07	42895.00
672.21	42698.39
672.35	42724.14
672.49	42557.96
672.63	42476.04
672.77	41991.55
672.91	41944.74
673.05	41481.31
673.19	41677.92
673.33	41682.60
673.47	41141.94
673.61	41378.33
673.75	41514.08
673.89	41684.94
674.03	41120.87
674.17	41460.25
674.31	41544.51
674.45	41689.62
674.59	41570.25
674.73	41443.87
674.87	41188.75
675.01	40404.67
675.15	40488.93
675.29	40917.25
675.43	40474.88
675.56	40739.36
675.70	40404.67
675.84	40385.94
675.98	38993.32
676.12	40037.20
676.26	39810.17
676.40	39995.07
676.54	39997.41
676.68	39838.26
676.82	38911.41
676.96	39405.26
677.10	39777.40
677.23	39597.18
677.37	39557.39
677.51	39435.69
677.65	39089.29
677.79	38513.52
677.93	38340.32
678.07	38714.80
678.21	38096.90
678.34	38649.27
678.48	38068.81
678.62	38305.21
678.76	38246.69
678.90	38139.03
679.04	38080.52
679.18	37907.32
679.31	37368.99
679.45	37806.67
679.59	38036.05
679.73	37420.48
679.87	37326.86
680.00	36959.40
680.14	37589.00
680.28	37003.87
680.42	36788.54
680.56	37134.94
680.70	36847.05
680.83	36715.98
680.97	36715.98
681.11	36755.77
681.25	36435.12
681.39	36353.20
681.52	36659.81
681.66	36383.63
681.80	35800.83
681.94	35552.74
682.07	35847.64
682.21	35700.19
682.35	35555.08
682.49	36013.82
682.62	35749.34
682.76	35608.91
682.90	35461.46
683.04	35541.03
683.17	35075.27
683.31	34883.34
683.45	35077.61
683.59	34567.37
683.72	34452.69
683.86	34448.00
684.00	34316.93
684.13	34085.22
684.27	33954.15
684.41	33816.06
684.55	34071.18
684.68	34246.72
684.82	33841.81
684.96	33549.24
685.09	33216.88
685.23	33464.98
685.37	33635.84
685.50	33273.06
685.64	33432.21
685.78	33132.62
685.91	33053.05
686.05	33319.87
686.19	32814.31
686.32	32886.87
686.46	32510.04
686.60	32603.66
686.73	32924.32
686.87	32800.27
687.01	32341.52
687.14	32219.81
687.28	31934.27
687.42	32006.83
687.55	31576.17
687.69	31562.12
687.82	31440.42
687.96	31405.31
688.10	31737.66
688.23	31164.23
688.37	31185.30
688.50	30857.62
688.64	31087.00
688.78	31131.47
688.91	30930.18
689.05	30735.92
689.18	30581.44
689.32	30036.09
689.46	30431.65
689.59	30328.66
689.73	30272.49
689.86	29685.01
690.00	29254.36
690.13	29773.95
690.27	29558.63
690.41	29919.07
690.54	29481.39
690.68	29240.31
690.81	29357.34
690.95	29488.41
691.08	29315.21
691.22	29123.29
691.35	28786.25
691.49	29149.03
691.62	28910.30
691.76	28369.63
691.89	28779.23
692.03	28627.09
692.16	28395.38
692.30	28339.21
692.43	28091.11
692.57	28154.30
692.70	28009.19
692.84	27772.80
692.97	27623.00
693.11	27220.43
693.24	27147.87
693.38	27674.49
693.51	26857.65
693.65	27171.28
693.78	27295.33
693.92	27187.66
694.05	26897.44
694.19	26836.58
694.32	26513.59
694.45	26820.20
694.59	26548.70
694.72	26441.03
694.86	25898.03
694.99	25645.25
695.13	26022.08
695.26	25731.85
695.39	25722.49
695.53	25656.95
695.66	25678.02
695.80	25530.56
695.93	25317.57
696.07	25359.70
696.20	25254.38
696.33	25427.58
696.47	25355.02
696.60	25132.67
696.73	24718.40
696.87	24903.30
697.00	24563.92
697.14	24968.84
697.27	24496.05
697.40	24325.19
697.54	24018.58
697.67	23826.65
697.80	23578.56
697.94	23747.08
698.07	23693.24
698.21	23655.79
698.34	23772.82
698.47	23515.36
698.61	22951.29
698.74	23548.13
698.87	23360.89
699.01	23178.33
699.14	23442.81
699.27	23103.43
699.40	23087.04
699.54	22953.63
699.67	23040.23
699.80	23164.28
699.94	22625.96
700.07	22309.99
700.20	22031.46
700.34	21841.88
700.47	22141.47
700.60	22380.20
700.73	22375.52
700.87	21848.90
701.00	21593.78
701.13	21490.80
701.26	21348.03
701.40	21928.48
701.53	21406.54
701.66	20989.92
701.79	20933.75
701.93	21233.34
702.06	20919.71
702.19	20945.45
702.32	20819.07
702.46	20386.07
702.59	20601.40
702.72	20496.07
702.85	20119.24
702.99	20343.94
703.12	20032.65
703.25	20133.29
703.38	20280.74
703.51	20060.73
703.65	20196.48
703.78	20189.46
703.91	19915.62
704.04	19803.27
704.17	20018.60
704.31	19700.29
704.44	19756.46
704.57	19323.46
704.70	19204.10
704.83	18801.52
704.96	18984.09
705.10	19103.45
705.23	19005.15
>>>>>End Processed Spectral Data<<<<<
