SpectraSuite Data File
++++++++++++++++++++++++++++++++++++
Date: Thu Oct 24 13:21:17 EDT 2013
User: stostad
Dark Spectrum Present: No
Reference Spectrum Present: No
Number of Sampled Component Spectra: 1
Spectrometers: USB2+H05261
Integration Time (usec): 100000 (USB2+H05261)
Spectra Averaged: 1 (USB2+H05261)
Boxcar Smoothing: 0 (USB2+H05261)
Correct for Electrical Dark: No (USB2+H05261)
Strobe/Lamp Enabled: No (USB2+H05261)
Correct for Detector Non-linearity: No (USB2+H05261)
Correct for Stray Light: No (USB2+H05261)
Number of Pixels in Processed Spectrum: 2048
>>>>>Begin Processed Spectral Data<<<<<
365.73	540.66
365.92	540.66
366.12	540.66
366.32	465.77
366.52	454.06
366.72	538.32
366.91	512.58
367.11	409.59
367.31	454.06
367.51	461.09
367.70	498.53
367.90	390.87
368.10	425.98
368.30	365.12
368.49	397.89
368.69	524.28
368.89	465.77
369.09	447.04
369.28	505.56
369.48	507.90
369.68	458.74
369.87	561.73
370.07	498.53
370.27	552.37
370.47	592.16
370.66	734.93
370.86	765.36
371.06	812.17
371.25	833.23
371.45	821.53
371.65	858.98
371.84	819.19
372.04	912.81
372.24	856.64
372.44	877.70
372.63	910.47
372.83	870.68
373.03	915.15
373.22	870.68
373.42	901.11
373.62	894.08
373.81	851.96
374.01	987.71
374.21	938.55
374.40	903.45
374.60	994.73
374.79	866.00
374.99	931.53
375.19	882.38
375.38	896.43
375.58	1027.50
375.78	926.85
375.97	922.17
376.17	940.90
376.37	966.64
376.56	1015.79
376.76	964.30
376.95	994.73
377.15	961.96
377.35	1018.13
377.54	940.90
377.74	959.62
377.93	938.55
378.13	987.71
378.33	1011.11
378.52	980.68
378.72	985.37
378.91	1036.86
379.11	983.02
379.31	985.37
379.50	1025.15
379.70	922.17
379.89	1055.58
380.09	1043.88
380.28	1055.58
380.48	1083.67
380.68	968.98
380.87	931.53
381.07	1064.94
381.26	1041.54
381.46	1111.75
381.65	1060.26
381.85	1032.18
382.04	1041.54
382.24	1074.31
382.43	1020.47
382.63	1006.43
382.83	1053.24
383.02	1121.12
383.22	1118.78
383.41	1095.37
383.61	1114.10
383.80	1090.69
384.00	1076.65
384.19	1123.46
384.39	1158.57
384.58	1130.48
384.78	1100.05
384.97	1256.87
385.17	1142.18
385.36	1107.07
385.56	1158.57
385.75	1174.95
385.95	1104.73
386.14	1181.97
386.34	1109.41
386.53	1174.95
386.72	1207.72
386.92	1114.10
387.11	1156.22
387.31	1123.46
387.50	1123.46
387.70	1163.25
387.89	1109.41
388.09	1125.80
388.28	1170.27
388.48	1221.76
388.67	1224.10
388.86	1123.46
389.06	1196.01
389.25	1165.59
389.45	1270.91
389.64	1263.89
389.84	1280.27
390.03	1306.02
390.22	1214.74
390.42	1151.54
390.61	1291.98
390.81	1212.40
391.00	1231.12
391.19	1329.42
391.39	1233.46
391.58	1308.36
391.78	1329.42
391.97	1343.47
392.16	1221.76
392.36	1378.58
392.55	1385.60
392.75	1301.34
392.94	1289.64
393.13	1313.04
393.33	1329.42
393.52	1371.55
393.71	1336.45
393.91	1355.17
394.10	1345.81
394.29	1387.94
394.49	1327.08
394.68	1409.00
394.88	1427.73
395.07	1385.60
395.26	1434.75
395.46	1378.58
395.65	1427.73
395.84	1453.47
396.04	1519.01
396.23	1483.90
396.42	1418.36
396.62	1411.34
396.81	1500.28
397.00	1427.73
397.19	1390.28
397.39	1451.13
397.58	1504.96
397.77	1467.52
397.97	1418.36
398.16	1558.80
398.35	1575.18
398.55	1521.35
398.74	1591.56
398.93	1621.99
399.12	1633.69
399.32	1474.54
399.51	1610.29
399.70	1682.85
399.90	1575.18
400.09	1624.33
400.28	1577.52
400.47	1689.87
400.67	1661.78
400.86	1650.08
401.05	1638.38
401.24	1614.97
401.44	1710.93
401.63	1696.89
401.82	1678.16
402.01	1701.57
402.21	1668.80
402.40	1776.47
402.59	1778.81
402.78	1755.40
402.97	1781.15
403.17	1816.26
403.36	1713.27
403.55	1741.36
403.74	1895.83
403.93	1933.28
404.13	1937.96
404.32	1942.64
404.51	1837.32
404.70	1952.01
404.89	1916.90
405.09	1959.03
405.28	1900.52
405.47	1914.56
405.66	1963.71
405.85	1982.43
406.05	1989.46
406.24	1954.35
406.43	1980.09
406.62	2087.76
406.81	2029.24
407.00	1907.54
407.20	2015.20
407.39	2125.21
407.58	2090.10
407.77	2167.34
407.96	2139.25
408.15	2017.54
408.34	2008.18
408.54	2265.64
408.73	2106.48
408.92	2101.80
409.11	2193.08
409.30	2230.53
409.49	2211.81
409.68	2183.72
409.87	2167.34
410.07	2169.68
410.26	2256.28
410.45	2223.51
410.64	2380.32
410.83	2380.32
411.02	2396.71
411.21	2363.94
411.40	2340.54
411.59	2427.14
411.78	2368.62
411.98	2345.22
412.17	2469.27
412.36	2459.90
412.55	2396.71
412.74	2619.06
412.93	2576.93
413.12	2476.29
413.31	2663.53
413.50	2476.29
413.69	2480.97
413.88	2736.09
414.07	2567.57
414.26	2572.25
414.45	2663.53
414.64	2738.43
414.83	2686.94
415.02	2733.75
415.22	2792.26
415.41	2689.28
415.60	2691.62
415.79	2967.80
415.98	2782.90
416.17	3023.97
416.36	2813.32
416.55	2967.80
416.74	2911.63
416.93	2972.48
417.12	2984.18
417.31	2986.52
417.50	2953.76
417.69	2995.89
417.88	3028.65
418.07	2956.10
418.26	3084.83
418.45	3084.83
418.64	3180.79
418.83	3038.02
419.02	3133.98
419.21	3206.53
419.39	3098.87
419.58	3171.43
419.77	3000.57
419.96	3311.86
420.15	3283.77
420.34	3180.79
420.53	3171.43
420.72	3213.56
420.91	3304.84
421.10	3353.99
421.29	3370.37
421.48	3337.60
421.67	3405.48
421.86	3393.78
422.05	3386.76
422.24	3265.05
422.43	3473.36
422.61	3438.25
422.80	3370.37
422.99	3445.27
423.18	3534.21
423.37	3466.33
423.56	3508.46
423.75	3400.80
423.94	3356.33
424.13	3152.70
424.32	3332.92
424.50	3445.27
424.69	3578.68
424.88	3494.42
425.07	3419.52
425.26	3503.78
425.45	3590.38
425.64	3503.78
425.83	3396.12
426.01	3543.57
426.20	3562.30
426.39	3473.36
426.58	3569.32
426.77	3449.95
426.96	3609.11
427.15	3653.58
427.33	3522.51
427.52	3639.53
427.71	3693.37
427.90	3595.06
428.09	3585.70
428.28	3574.00
428.46	3665.28
428.65	3655.92
428.84	3777.62
429.03	3749.54
429.22	3695.71
429.40	3744.86
429.59	3744.86
429.78	3576.34
429.97	3702.73
430.16	3688.68
430.34	3967.21
430.53	3805.71
430.72	3946.14
430.91	3882.95
431.10	3737.84
431.28	3887.63
431.47	3875.93
431.66	3953.16
431.85	3831.46
432.03	4091.26
432.22	4046.79
432.41	4028.06
432.60	3950.82
432.79	4063.17
432.97	4105.30
433.16	4126.36
433.35	4219.99
433.54	4102.96
433.72	4198.92
433.91	4149.77
434.10	4168.49
434.28	4140.41
434.47	4140.41
434.66	4308.93
434.85	4447.02
435.03	4395.53
435.22	4550.00
435.41	4638.94
435.59	4514.89
435.78	4587.45
435.97	4482.13
436.16	4369.78
436.34	4313.61
436.53	4606.17
436.72	4512.55
436.90	4383.82
437.09	4470.42
437.28	4355.74
437.46	4388.50
437.65	4367.44
437.84	4540.64
438.02	4510.21
438.21	4585.11
438.40	4622.56
438.58	4631.92
438.77	4779.37
438.96	4587.45
439.14	4688.09
439.33	4870.65
439.52	4826.18
439.70	4648.30
439.89	5046.20
440.08	4767.67
440.26	4793.42
440.45	4889.38
440.63	4931.51
440.82	5100.03
441.01	4957.25
441.19	4990.02
441.38	4924.49
441.57	5184.29
441.75	5153.86
441.94	5191.31
442.12	5151.52
442.31	5165.56
442.50	5242.80
442.68	5252.16
442.87	5331.74
443.05	5289.61
443.24	5406.64
443.43	5364.51
443.61	5291.95
443.80	5427.70
443.98	5226.42
444.17	5050.88
444.35	5317.70
444.54	5455.79
444.73	5390.25
444.91	5404.30
445.10	5373.87
445.28	5392.59
445.47	5387.91
445.65	5371.53
445.84	5476.85
446.02	5652.39
446.21	5551.75
446.39	5481.53
446.58	5607.92
446.77	5619.63
446.95	5397.28
447.14	5535.37
447.32	5631.33
447.51	5434.72
447.69	5460.47
447.88	5582.18
448.06	5500.26
448.25	5614.95
448.43	5621.97
448.62	5490.90
448.80	5483.88
448.99	5614.95
449.17	5647.71
449.36	5703.89
449.54	5734.31
449.73	5853.68
449.91	5912.19
450.10	5795.17
450.28	6022.20
450.46	5926.24
450.65	5872.40
450.83	5832.62
451.02	5935.60
451.20	5905.17
451.39	6054.97
451.57	5959.00
451.76	5900.49
451.94	5905.17
452.13	5893.47
452.31	5989.43
452.49	5921.56
452.68	6136.88
452.86	6099.44
453.05	6169.65
453.23	6202.42
453.42	6069.01
453.60	6061.99
453.78	6090.07
453.97	6099.44
454.15	6221.14
454.34	6097.10
454.52	6298.38
454.70	6298.38
454.89	6260.93
455.07	6317.11
455.26	6253.91
455.44	6450.52
455.62	6345.19
455.81	6164.97
455.99	6548.82
456.17	6389.66
456.36	6466.90
456.54	6553.50
456.73	6778.19
456.91	6654.14
457.09	6682.23
457.28	6604.99
457.46	6555.84
457.64	6555.84
457.83	6626.06
458.01	6801.60
458.19	6801.60
458.38	6810.96
458.56	6995.86
458.74	6801.60
458.93	6794.58
459.11	6965.43
459.29	6918.62
459.48	6785.21
459.66	6853.09
459.84	7026.29
460.03	7155.02
460.21	7063.74
460.39	6972.46
460.57	6979.48
460.76	6967.77
460.94	7145.66
461.12	7063.74
461.31	7279.07
461.49	7131.61
461.67	7073.10
461.85	7243.96
462.04	7328.22
462.22	7543.55
462.40	7449.93
462.59	7325.88
462.77	7248.64
462.95	7454.61
463.13	7339.92
463.32	7328.22
463.50	7541.21
463.68	7602.06
463.86	7368.01
464.05	7267.36
464.23	7243.96
464.41	7400.77
464.59	7297.79
464.78	7702.70
464.96	7459.29
465.14	7492.05
465.32	7651.21
465.50	7740.15
465.69	7672.28
465.87	7456.95
466.05	7761.22
466.23	7702.70
466.41	7681.64
466.60	7737.81
466.78	7712.07
466.96	7691.00
467.14	7712.07
467.32	7892.29
467.51	8035.06
467.69	7740.15
467.87	7817.39
468.05	7999.95
468.23	7992.93
468.41	7896.97
468.60	7913.35
468.78	7920.37
468.96	7864.20
469.14	8121.66
469.32	8065.49
469.50	8095.91
469.69	8325.29
469.87	8292.52
470.05	8142.72
470.23	8243.37
470.41	8182.51
470.59	8248.05
470.77	8344.01
470.95	8374.44
471.14	8400.18
471.32	8290.18
471.50	8493.80
471.68	8479.76
471.86	8610.83
472.04	8627.21
472.22	8800.41
472.40	8671.68
472.58	8631.90
472.77	8706.79
472.95	8695.09
473.13	9025.11
473.31	8856.59
473.49	8791.05
473.67	8758.28
473.85	8990.00
474.03	9102.34
474.21	9167.88
474.39	9057.87
474.57	9200.65
474.75	9221.71
474.93	9411.29
475.12	9165.54
475.30	9266.18
475.48	9268.52
475.66	9369.16
475.84	9245.12
476.02	9565.77
476.20	9673.43
476.38	9785.78
476.56	9799.82
476.74	9921.53
476.92	9973.02
477.10	9589.17
477.28	10064.30
477.46	10183.67
477.64	10167.29
477.82	10171.97
478.00	10480.92
478.18	10518.37
478.36	10438.79
478.54	10569.86
478.72	10665.82
478.90	10649.44
479.08	10712.63
479.26	10843.70
479.44	11056.69
479.62	10871.79
479.80	10860.09
479.98	11087.12
480.16	11496.71
480.34	11309.47
480.52	11222.87
480.70	11389.05
480.88	11295.43
481.06	11389.05
481.24	11693.32
481.41	11501.39
481.59	12025.67
481.77	11798.64
481.95	11641.82
482.13	12037.38
482.31	12215.26
482.49	12315.90
482.67	12428.24
482.85	12416.54
483.03	12421.22
483.21	12554.63
483.39	12674.00
483.57	12732.51
483.74	12854.22
483.92	13118.70
484.10	13013.38
484.28	13233.39
484.46	13371.48
484.64	13486.17
484.82	13144.45
485.00	13516.59
485.18	13696.82
485.35	14024.49
485.53	13788.10
485.71	13991.72
485.89	14260.88
486.07	14305.35
486.25	14193.01
486.43	14221.10
486.61	14588.56
486.78	14728.99
486.96	14724.31
487.14	14808.57
487.32	14813.25
487.50	14963.04
487.68	14932.62
487.85	15449.88
488.03	15281.36
488.21	15683.93
488.39	15632.44
488.57	15850.11
488.75	15948.41
488.92	15882.88
489.10	16070.12
489.28	16046.71
489.46	16580.36
489.64	16173.10
489.81	16851.86
489.99	16458.65
490.17	16582.70
490.35	17008.67
490.53	17046.12
490.70	17219.32
490.88	17106.98
491.06	17397.20
491.24	17212.30
491.41	17448.69
491.59	17736.58
491.77	17905.10
491.95	17813.82
492.13	18052.55
492.30	17951.91
492.48	18026.81
492.66	18068.94
492.84	18471.51
493.01	18464.49
493.19	18845.99
493.37	18698.54
493.54	18600.24
493.72	18878.76
493.90	18640.03
494.08	19367.93
494.25	19227.50
494.43	19297.72
494.61	19515.39
494.79	19646.46
494.96	19723.69
495.14	19697.95
495.32	19763.48
495.49	20224.57
495.67	19924.98
495.85	20184.78
496.02	20184.78
496.20	20112.22
496.38	20446.92
496.55	20381.38
496.73	20641.18
496.91	20767.57
497.09	20779.28
497.26	20826.09
497.44	21067.16
497.62	20936.09
497.79	21097.59
497.97	21404.20
498.14	21350.37
498.32	21844.22
498.50	21734.21
498.67	21867.63
498.85	21783.37
499.03	21893.37
499.20	22005.72
499.38	22064.23
499.56	22335.73
499.73	22192.96
499.91	22373.18
500.08	22408.29
500.26	22618.94
500.44	22445.74
500.61	22602.55
500.79	22806.18
500.97	22831.93
501.14	22892.78
501.32	22656.39
501.49	23042.57
501.67	23075.34
501.84	23323.44
502.02	23433.44
502.20	23536.43
502.37	23403.02
502.55	23524.72
502.72	23379.61
502.90	23204.07
503.07	23632.39
503.25	23957.72
503.43	23538.77
503.60	23971.77
503.78	23894.53
503.95	24053.69
504.13	24137.94
504.30	24376.68
504.48	24561.58
504.65	24283.06
504.83	24545.20
505.01	24713.72
505.18	24673.93
505.36	25008.62
505.53	24748.82
505.71	25041.39
505.88	25083.52
506.06	24751.17
506.23	25074.16
506.41	25111.61
506.58	24938.41
506.76	24886.92
506.93	25425.24
507.11	25591.42
507.28	25874.62
507.46	25701.42
507.63	25968.24
507.81	26003.35
507.98	25600.78
508.16	25876.96
508.33	25783.34
508.50	26218.68
508.68	25905.05
508.85	26396.56
509.03	26181.23
509.20	26267.83
509.38	26693.81
509.55	26686.79
509.73	26401.24
509.90	26890.41
510.08	27019.14
510.25	26871.69
510.42	26768.71
510.60	27087.02
510.77	27229.79
510.95	27440.44
511.12	27220.43
511.30	27676.83
511.47	27400.65
511.64	27564.49
511.82	27653.43
511.99	27503.64
512.17	27559.81
512.34	27758.75
512.51	28224.52
512.69	28259.63
512.86	28037.28
513.04	27913.23
513.21	28025.57
513.38	28039.62
513.56	28067.70
513.73	28128.56
513.90	28126.22
514.08	28446.87
514.25	28503.04
514.43	28631.77
514.60	28496.02
514.77	28790.93
514.95	29017.96
515.12	28701.99
515.29	28830.72
515.47	29242.65
515.64	29195.84
515.81	28996.90
515.99	28879.87
516.16	28971.15
516.33	29160.73
516.51	29685.01
516.68	29479.05
516.85	29663.95
517.03	29523.52
517.20	29909.71
517.37	30080.56
517.54	29605.44
517.72	30008.01
517.89	29525.86
518.06	30160.14
518.24	29731.83
518.41	29755.23
518.58	30195.25
518.75	30146.10
518.93	30263.13
519.10	30305.26
519.27	30256.11
519.45	30183.55
519.62	30239.72
519.79	30204.61
519.96	30637.61
520.14	30672.72
520.31	30307.60
520.48	30448.03
520.65	30618.89
520.83	31204.02
521.00	30876.35
521.17	30787.41
521.34	31194.66
521.52	31466.16
521.69	31466.16
521.86	31381.90
522.03	31337.43
522.20	31625.32
522.38	31578.51
522.55	31433.39
522.72	31840.65
522.89	31641.70
523.07	31917.89
523.24	31768.09
523.41	31850.01
523.58	31831.29
523.75	32105.13
523.92	31868.73
524.10	32357.91
524.27	32273.65
524.44	32058.32
524.61	32149.60
524.78	32348.54
524.96	32390.67
525.13	32683.24
525.30	33031.98
525.47	32547.49
525.64	32577.92
525.81	32655.15
525.98	32914.95
526.16	32287.69
526.33	32938.36
526.50	33116.24
526.67	32931.34
526.84	33275.40
527.01	32863.46
527.18	33097.52
527.36	33329.23
527.53	33071.77
527.70	33472.00
527.87	33221.56
528.04	33432.21
528.21	33596.05
528.38	33427.53
528.55	33888.62
528.72	33722.44
528.89	33902.66
529.07	33661.58
529.24	33518.81
529.41	33692.01
529.58	33792.65
529.75	33755.21
529.92	34010.32
530.09	34155.44
530.26	33621.80
530.43	34188.21
530.60	33851.17
530.77	33883.94
530.94	34522.90
531.11	34448.00
531.28	34604.82
531.46	34581.42
531.63	34558.01
531.80	34663.33
531.97	34754.61
532.14	34665.67
532.31	34637.59
532.48	34768.66
532.65	34660.99
532.82	34361.40
532.99	34733.55
533.16	34515.88
533.33	34852.92
533.50	35044.84
533.67	35075.27
533.84	35211.02
534.01	34998.03
534.18	35204.00
534.35	35548.06
534.52	35318.68
534.69	35339.75
534.86	35349.11
535.03	35367.84
535.20	35096.33
535.37	35538.69
535.54	35840.62
535.71	35494.22
535.88	35452.09
536.05	35674.45
536.22	35454.44
536.38	35648.70
536.55	35700.19
536.72	36194.04
536.89	36016.16
537.06	36180.00
537.23	36556.83
537.40	35943.61
537.57	35861.69
537.74	36175.32
537.91	36130.85
538.08	36395.33
538.25	36009.14
538.42	36725.35
538.59	36842.37
538.75	36095.74
538.92	36650.45
539.09	36563.85
539.26	36481.93
539.43	36266.60
539.60	36446.82
539.77	36470.23
539.94	37256.65
540.11	37167.71
540.28	37174.73
540.44	37099.83
540.61	36753.43
540.78	37247.29
540.95	36999.19
541.12	37530.49
541.29	37130.26
541.46	37308.14
541.62	37661.56
541.79	37591.34
541.96	37141.96
542.13	37312.82
542.30	37659.22
542.47	37471.98
542.63	37333.89
542.80	38057.11
542.97	38265.42
543.14	38005.62
543.31	38026.68
543.48	38438.62
543.64	38520.54
543.81	38628.20
543.98	38447.98
544.15	38333.29
544.32	38209.25
544.48	38986.30
544.65	38618.84
544.82	38225.63
544.99	38342.66
545.16	38417.55
545.32	38522.88
545.49	38752.25
545.66	39346.75
545.83	39477.82
546.00	39456.75
546.16	39571.44
546.33	38953.54
546.50	38714.80
546.67	39049.50
546.83	38513.52
547.00	38237.33
547.17	38527.56
547.34	38888.00
547.50	38960.56
547.67	39112.69
547.84	39012.05
548.00	39524.63
548.17	39175.89
548.34	39098.65
548.51	39196.95
548.67	39377.17
548.84	39253.12
549.01	39061.20
549.18	39077.58
549.34	39353.77
549.51	39241.42
549.68	39702.51
549.84	39416.96
550.01	39311.64
550.18	39381.85
550.34	39079.92
550.51	39459.09
550.68	39433.35
550.84	39150.14
551.01	39580.80
551.18	39503.56
551.34	39473.13
551.51	39187.59
551.68	39632.29
551.84	39360.79
552.01	39442.71
552.18	39777.40
552.34	39896.77
552.51	39974.01
552.68	39765.70
552.84	39814.85
553.01	40095.72
553.18	39812.51
553.34	39878.05
553.51	39992.73
553.67	39974.01
553.84	40210.40
554.01	40388.28
554.17	40245.51
554.34	40196.36
554.51	40140.19
554.67	40280.62
554.84	39810.17
555.00	39683.78
555.17	39393.56
555.33	40046.57
555.50	40020.82
555.67	39807.83
555.83	40488.93
556.00	40521.69
556.16	40690.21
556.33	40357.86
556.50	40278.28
556.66	40950.01
556.83	40519.35
556.99	40730.00
557.16	40730.00
557.32	40818.94
557.49	41078.74
557.65	40627.02
557.82	40786.18
557.98	40720.64
558.15	40215.08
558.32	40662.13
558.48	40397.65
558.65	41174.70
558.81	41010.87
558.98	40957.03
559.14	41038.95
559.31	41132.57
559.47	40767.45
559.64	40896.18
559.80	40973.42
559.97	41123.21
560.13	40905.54
560.30	40910.22
560.46	41354.93
560.63	40765.11
560.79	41263.64
560.96	41275.35
561.12	41406.42
561.29	41106.83
561.45	41064.70
561.61	41469.61
561.78	41067.04
561.94	41130.23
562.11	41907.29
562.27	41759.84
562.44	41640.47
562.60	41177.04
562.77	41415.78
562.93	41467.27
563.10	41745.80
563.26	41174.70
563.42	41560.89
563.59	41408.76
563.75	41333.86
563.92	41895.59
564.08	41790.27
564.24	41574.94
564.41	41839.42
564.57	41668.56
564.74	41385.35
564.90	41979.85
565.07	42148.37
565.23	42099.22
565.39	41961.12
565.56	42052.41
565.72	41748.14
565.88	41603.02
566.05	41691.96
566.21	41378.33
566.38	41469.61
566.54	41624.09
566.70	42246.67
566.87	41956.44
567.03	41972.83
567.19	42782.65
567.36	41956.44
567.52	41628.77
567.68	41769.20
567.85	42052.41
568.01	41750.48
568.17	41886.23
568.34	41876.86
568.50	42258.37
568.66	42057.09
568.83	42045.38
568.99	41532.81
569.15	41659.20
569.32	42239.65
569.48	41581.96
569.64	42225.60
569.81	41298.75
569.97	41914.31
570.13	41867.50
570.30	41797.29
570.46	42110.92
570.62	42075.81
570.78	41488.34
570.95	42021.98
571.11	42038.36
571.27	41528.13
571.43	42195.18
571.60	42057.09
571.76	41785.58
571.92	42131.98
572.09	42527.53
572.25	42417.53
572.41	42307.52
572.57	42347.31
572.74	42148.37
572.90	42403.49
573.06	42256.03
573.22	41738.77
573.38	42218.58
573.55	42712.44
573.71	42581.37
573.87	42188.16
574.03	42515.83
574.20	42354.33
574.36	42462.00
574.52	42403.49
574.68	42183.48
574.84	42625.84
575.01	42398.80
575.17	42693.71
575.33	42284.12
575.49	42092.19
575.65	42775.63
575.82	42663.28
575.98	42129.64
576.14	42604.77
576.30	42534.56
576.46	42452.64
576.62	42419.87
576.79	42583.71
576.95	41977.51
577.11	42518.17
577.27	42787.33
577.43	43005.00
577.59	42436.25
577.75	42307.52
577.92	42333.27
578.08	41911.97
578.24	42426.89
578.40	42735.84
578.56	42820.10
578.72	42773.29
578.88	43147.78
579.04	42518.17
579.21	42417.53
579.37	42389.44
579.53	42735.84
579.69	42838.83
579.85	42539.24
580.01	42869.25
580.17	42712.44
580.33	42780.31
580.49	42705.41
580.65	42885.64
580.82	42550.94
580.98	43103.31
581.14	42525.19
581.30	42773.29
581.46	42164.75
581.62	42497.11
581.78	42501.79
581.94	42520.51
582.10	42394.12
582.26	42663.28
582.42	42424.55
582.58	42375.40
582.74	42803.72
582.90	43023.73
583.06	42387.10
583.22	42923.08
583.38	42679.67
583.54	42682.01
583.70	42279.44
583.86	43077.56
584.02	42682.01
584.18	43131.39
584.34	43040.11
584.50	42990.96
584.66	42721.80
584.82	42181.13
584.98	43061.18
585.14	42501.79
585.30	42707.76
585.46	42831.80
585.62	42813.08
585.78	42948.83
585.94	43117.35
586.10	42569.66
586.26	43496.52
586.42	43239.06
586.58	42822.44
586.74	42756.91
586.90	42946.49
587.06	42843.51
587.22	43524.60
587.38	42887.98
587.54	43178.20
587.70	43313.95
587.86	43028.41
588.02	43264.80
588.18	43311.61
588.34	43531.62
588.49	43021.39
588.65	42955.85
588.81	42892.66
588.97	43210.97
589.13	42602.43
589.29	43203.95
589.45	43100.97
589.61	43246.08
589.77	43035.43
589.93	42887.98
590.08	43260.12
590.24	43632.27
590.40	43515.24
590.56	43711.84
590.72	43058.84
590.88	42707.76
591.04	43030.75
591.20	43353.74
591.35	43381.83
591.51	43503.54
591.67	43735.25
591.83	43695.46
591.99	43320.98
592.15	43143.09
592.31	43030.75
592.46	43426.30
592.62	43641.63
592.78	43665.03
592.94	43299.91
593.10	43435.66
593.26	43468.43
593.41	43180.54
593.57	43721.21
593.73	43564.39
593.89	43983.35
594.05	43419.28
594.20	42817.76
594.36	43285.87
594.52	43381.83
594.68	43707.16
594.84	43688.44
594.99	43782.06
595.15	43512.90
595.31	43576.09
595.47	43288.21
595.62	43271.82
595.78	43140.75
595.94	43054.15
596.10	42937.13
596.25	42979.26
596.41	43028.41
596.57	43103.31
596.73	43756.32
596.88	43288.21
597.04	44217.40
597.20	43608.86
597.36	43459.07
597.51	43693.12
597.67	43625.25
597.83	43365.45
597.99	43573.75
598.14	43573.75
598.30	43608.86
598.46	43622.90
598.61	43423.96
598.77	43491.83
598.93	43583.12
599.09	43421.62
599.24	43512.90
599.40	43466.09
599.56	43758.66
599.71	43529.28
599.87	43793.76
600.03	43550.35
600.18	43615.88
600.34	43515.24
600.50	43686.10
600.65	43166.50
600.81	44011.43
600.97	43959.94
601.12	43522.26
601.28	43557.37
601.44	43772.70
601.59	43430.98
601.75	43533.96
601.91	44072.29
602.06	43372.47
602.22	43730.57
602.37	43407.58
602.53	43768.02
602.69	44147.18
602.84	43168.84
603.00	43377.15
603.16	43573.75
603.31	43732.91
603.47	43917.81
603.62	43700.14
603.78	43704.82
603.94	43318.64
604.09	43316.29
604.25	43445.02
604.40	43899.09
604.56	43679.08
604.71	43854.62
604.87	43416.94
605.03	43379.49
605.18	43604.18
605.34	43239.06
605.49	43285.87
605.65	43033.09
605.80	43751.63
605.96	43910.79
606.12	43573.75
606.27	43835.89
606.43	43894.41
606.58	43882.70
606.74	43583.12
606.89	43721.21
607.05	43807.81
607.20	43454.39
607.36	43395.87
607.51	43438.00
607.67	43416.94
607.82	43136.07
607.98	43276.51
608.13	43601.84
608.29	43679.08
608.44	43187.56
608.60	43576.09
608.75	43555.03
608.91	43999.73
609.06	43194.59
609.22	43807.81
609.37	42946.49
609.53	43166.50
609.68	43466.09
609.84	43503.54
609.99	43253.10
610.15	43854.62
610.30	43730.57
610.46	43632.27
610.61	43716.53
610.76	44006.75
610.92	43863.98
611.07	43887.39
611.23	44016.11
611.38	44231.44
611.54	44128.46
611.69	43887.39
611.84	44093.35
612.00	44257.19
612.15	44083.99
612.31	43924.83
612.46	44018.46
612.62	43695.46
612.77	43147.78
612.92	43571.41
613.08	42904.36
613.23	43023.73
613.39	43395.87
613.54	43133.73
613.69	43126.71
613.85	43573.75
614.00	43683.76
614.15	43192.25
614.31	43402.89
614.46	43543.33
614.62	43339.70
614.77	42965.21
614.92	42597.75
615.08	42974.58
615.23	42714.78
615.38	42787.33
615.54	42141.35
615.69	42705.41
615.84	42770.95
616.00	42934.79
616.15	42740.52
616.30	42836.48
616.46	42504.13
616.61	42124.96
616.76	42674.99
616.92	42012.62
617.07	42667.97
617.22	42361.36
617.37	42047.72
617.53	42075.81
617.68	42321.57
617.83	42504.13
617.99	42586.05
618.14	42567.32
618.29	42555.62
618.45	42534.56
618.60	42417.53
618.75	42354.33
618.90	41792.61
619.06	41308.11
619.21	41893.25
619.36	41691.96
619.51	42136.66
619.67	41596.00
619.82	42005.59
619.97	42431.57
620.12	42141.35
620.28	42284.12
620.43	42349.65
620.58	42368.38
620.73	42188.16
620.89	42134.32
621.04	42087.51
621.19	41982.19
621.34	42284.12
621.49	41539.83
621.65	41794.95
621.80	41895.59
621.95	42047.72
622.10	42061.77
622.25	41748.14
622.41	41619.41
622.56	41687.28
622.71	41794.95
622.86	41682.60
623.01	41504.72
623.16	41738.77
623.32	41352.58
623.47	41600.68
623.62	41729.41
623.77	41493.02
623.92	41783.24
624.07	41947.08
624.23	41764.52
624.38	41801.97
624.53	41694.30
624.68	41591.32
624.83	41579.62
624.98	41642.81
625.13	41015.55
625.29	41544.51
625.44	41883.89
625.59	41251.94
625.74	40935.97
625.89	41244.92
626.04	41691.96
626.19	41375.99
626.34	41511.74
626.49	41251.94
626.65	41324.50
626.80	41104.49
626.95	40921.93
627.10	40486.59
627.25	40589.57
627.40	40549.78
627.55	40336.79
627.70	40495.95
627.85	40919.59
628.00	40620.00
628.15	40952.35
628.30	40673.83
628.45	40512.33
628.60	40519.35
628.76	40612.98
628.91	40868.09
629.06	40376.58
629.21	40622.34
629.36	40360.20
629.51	40444.46
629.66	40596.59
629.81	40570.85
629.96	40439.78
630.11	40222.11
630.26	40842.35
630.41	40591.91
630.56	40552.12
630.71	40610.64
630.86	40767.45
631.01	40374.24
631.16	40788.52
631.31	40041.88
631.46	40037.20
631.61	40725.32
631.76	40374.24
631.91	40076.99
632.06	39688.46
632.21	39899.11
632.36	40165.93
632.51	40041.88
632.66	40399.99
632.81	40072.31
632.96	40231.47
633.10	40133.17
633.25	40280.62
633.40	39910.82
633.55	40037.20
633.70	39728.25
633.85	39508.24
634.00	39828.90
634.15	39618.25
634.30	39346.75
634.45	39648.68
634.60	39646.33
634.75	39976.35
634.90	39501.22
635.05	39665.06
635.19	39328.02
635.34	39711.87
635.49	39548.03
635.64	39311.64
635.79	39761.02
635.94	39587.82
636.09	39461.43
636.24	39494.20
636.39	39555.05
636.53	39761.02
636.68	39634.63
636.83	39061.20
636.98	39735.27
637.13	39051.84
637.28	39000.35
637.43	39363.13
637.57	39239.08
637.72	38773.31
637.87	39187.59
638.02	39297.59
638.17	39105.67
638.32	38813.10
638.46	38756.93
638.61	39599.52
638.76	39051.84
638.91	38794.38
639.06	39075.24
639.20	39274.19
639.35	39124.40
639.50	39119.71
639.65	39126.74
639.80	38974.60
639.94	38607.14
640.09	38375.42
640.24	38824.81
640.39	39068.22
640.54	39002.69
640.68	39108.01
640.83	38899.70
640.98	38412.87
641.13	38501.81
641.27	38883.32
641.42	38307.55
641.57	38548.62
641.72	38401.17
641.86	38345.00
642.01	38066.47
642.16	38139.03
642.31	38550.96
642.45	38796.72
642.60	38373.08
642.75	38417.55
642.90	38726.50
643.04	38211.59
643.19	38153.07
643.34	38555.64
643.48	38490.11
643.63	38373.08
643.78	37963.49
643.93	38122.65
644.07	37778.59
644.22	37848.80
644.37	37928.38
644.51	37897.95
644.66	37883.91
644.81	38089.88
644.95	38263.08
645.10	38445.64
645.25	37673.26
645.39	38548.62
645.54	38270.10
645.69	38110.94
645.83	38352.02
645.98	37614.75
646.13	37919.02
646.27	38108.60
646.42	37977.53
646.57	38026.68
646.71	37479.00
646.86	37535.17
647.00	37539.85
647.15	37907.32
647.30	37703.69
647.44	37933.06
647.59	37666.24
647.74	37535.17
647.88	37827.74
648.03	37759.86
648.17	37249.63
648.32	37034.30
648.47	37507.08
648.61	37495.38
648.76	37399.42
648.90	37617.09
649.05	37219.20
649.20	37479.00
649.34	37560.92
649.49	37773.91
649.63	37647.52
649.78	37570.28
649.92	37139.62
650.07	37764.54
650.21	37759.86
650.36	37172.39
650.51	37256.65
650.65	37244.94
650.80	37109.19
650.94	37399.42
651.09	37235.58
651.23	36828.33
651.38	37230.90
651.52	37322.18
651.67	37390.06
651.81	37368.99
651.96	37483.68
652.10	36793.22
652.25	36833.01
652.39	36615.34
652.54	36968.76
652.68	36697.26
652.83	36655.13
652.97	36840.03
653.12	36893.86
653.26	36683.22
653.41	37163.03
653.55	36910.25
653.70	36793.22
653.84	36971.10
653.99	36554.49
654.13	36685.56
654.27	36392.99
654.42	36715.98
654.56	36605.98
654.71	36671.51
654.85	36545.12
655.00	37102.17
655.14	36137.87
655.29	36215.11
655.43	36383.63
655.57	36261.92
655.72	36210.43
655.86	36484.27
656.01	36039.57
656.15	36051.27
656.30	36154.26
656.44	36191.70
656.58	36755.77
656.73	36371.92
656.87	36315.75
657.01	36458.52
657.16	36086.38
657.30	35988.08
657.45	36002.12
657.59	35681.47
657.73	36058.29
657.88	35742.32
658.02	35758.70
658.16	36135.53
658.31	35896.80
658.45	35931.90
658.60	35988.08
658.74	35864.03
658.88	35683.81
659.03	35325.71
659.17	35386.56
659.31	35321.02
659.46	35365.49
659.60	35522.31
659.74	35468.48
659.89	35253.15
660.03	35180.59
660.17	35468.48
660.32	35192.30
660.46	35164.21
660.60	35204.00
660.74	35220.38
660.89	34878.66
661.03	35180.59
661.17	34719.51
661.32	35063.57
661.46	34958.24
661.60	34841.21
661.74	35019.10
661.89	34497.16
662.03	34881.00
662.17	34866.96
662.31	34469.07
662.46	34623.54
662.60	34387.15
662.74	34712.49
662.88	34066.50
663.03	34574.39
663.17	34686.74
663.31	34572.05
663.45	34653.97
663.60	33846.49
663.74	33860.53
663.88	34061.82
664.02	33881.60
664.17	34143.74
664.31	33897.98
664.45	33757.55
664.59	34113.31
664.73	34129.69
664.88	34043.09
665.02	33811.38
665.16	33893.30
665.30	33790.31
665.44	33942.45
665.59	33558.60
665.73	33092.83
665.87	33481.36
666.01	33163.05
666.15	33476.68
666.29	33345.61
666.44	33340.93
666.58	32940.70
666.72	33036.66
666.86	33488.38
667.00	33542.22
667.14	33280.08
667.28	33048.36
667.43	33586.69
667.57	33652.22
667.71	33315.19
667.85	33287.10
667.99	33205.18
668.13	32921.98
668.27	32641.11
668.41	32844.74
668.56	32526.42
668.70	33064.75
668.84	32287.69
668.98	31840.65
669.12	32259.60
669.26	32116.83
669.40	32004.49
669.54	32100.45
669.68	32165.98
669.82	31838.31
669.96	32144.92
670.10	32147.26
670.25	31929.59
670.39	31761.07
670.53	31613.62
670.67	31625.32
670.81	32203.43
670.95	31971.72
671.09	31913.20
671.23	31152.53
671.37	31714.26
671.51	32044.27
671.65	32180.03
671.79	31826.60
671.93	31613.62
672.07	31821.92
672.21	31344.45
672.35	31503.61
672.49	31054.23
672.63	31063.59
672.77	31068.27
672.91	31082.31
673.05	30778.04
673.19	30974.65
673.33	30499.52
673.47	30448.03
673.61	30684.42
673.75	30808.47
673.89	30602.50
674.03	30316.96
674.17	30426.96
674.31	30323.98
674.45	30588.46
674.59	30532.29
674.73	30361.43
674.87	30661.02
675.01	30000.99
675.15	29888.64
675.29	30155.46
675.43	30277.17
675.56	30258.45
675.70	29443.94
675.84	29167.76
675.98	28772.21
676.12	29638.20
676.26	29404.15
676.40	29839.49
676.54	29088.18
676.68	29308.19
676.82	28996.90
676.96	29244.99
677.10	29457.98
677.23	28914.98
677.37	29385.43
677.51	28699.65
677.65	28416.44
677.79	28568.58
677.93	28304.10
678.07	28484.32
678.21	28130.90
678.34	28266.65
678.48	28238.56
678.62	28257.29
678.76	28123.88
678.90	28163.67
679.04	28147.28
679.18	27850.03
679.31	27417.04
679.45	27587.89
679.59	27737.69
679.73	27871.10
679.87	27218.09
680.00	27229.79
680.14	27360.86
680.28	27374.91
680.42	26838.92
680.56	27051.91
680.70	26677.43
680.83	26808.50
680.97	26555.72
681.11	26665.72
681.25	26934.88
681.39	26506.57
681.52	26654.02
681.66	26525.29
681.80	26132.08
681.94	26426.99
682.07	26609.55
682.21	25951.86
682.35	26204.64
682.49	26506.57
682.62	25909.73
682.76	26326.35
682.90	25921.43
683.04	25799.73
683.17	25371.41
683.31	25743.55
683.45	25186.50
683.59	25001.60
683.72	25226.29
683.86	25319.92
684.00	25486.09
684.13	24739.46
684.27	24982.88
684.41	24732.44
684.55	24732.44
684.68	24573.28
684.82	24460.94
684.96	24559.24
685.09	24266.67
685.23	24680.95
685.37	24704.35
685.50	24589.67
685.64	24425.83
685.78	23868.78
685.91	24297.10
686.05	23894.53
686.19	23772.82
686.32	23644.09
686.46	23718.99
686.60	23887.51
686.73	23983.47
686.87	23520.04
687.01	23527.06
687.14	23487.28
687.28	23363.23
687.42	23300.03
687.55	23246.20
687.69	22904.48
687.82	22834.27
687.96	23080.02
688.10	22656.39
688.23	22925.55
688.37	22632.98
688.50	22546.38
688.64	22544.04
688.78	22787.46
688.91	22647.02
689.05	22661.07
689.18	22085.30
689.32	21900.39
689.46	22218.71
689.59	21975.29
689.73	21774.00
689.86	21584.42
690.00	21633.57
690.13	21741.24
690.27	21537.61
690.41	21401.86
690.54	20872.90
690.68	21355.05
690.81	21692.08
690.95	21565.70
691.08	21249.72
691.22	20760.55
691.35	21025.03
691.49	21130.36
691.62	20936.09
691.76	20837.79
691.89	20816.72
692.03	21022.69
692.16	20659.91
692.30	20247.97
692.43	20285.42
692.57	20395.43
692.70	20372.02
692.84	20671.61
692.97	20084.14
693.11	20196.48
693.24	19826.68
693.38	19903.92
693.51	19578.58
693.65	19932.00
693.78	19955.41
693.92	19681.56
694.05	19735.40
694.19	19499.00
694.32	19779.87
694.45	19634.75
694.59	19470.92
694.72	19197.07
694.86	18890.46
694.99	18775.78
695.13	18909.19
695.26	18808.54
695.39	18717.26
695.53	18878.76
695.66	18520.66
695.80	18677.48
695.93	18045.53
696.07	18204.69
696.20	18436.40
696.33	18288.95
696.47	18523.00
696.60	18036.17
696.73	18239.79
696.87	18169.58
697.00	18183.62
697.14	17858.29
697.27	17752.96
697.40	17467.42
697.54	17539.97
697.67	17097.61
697.80	17516.57
697.94	17245.07
698.07	17415.93
698.21	17212.30
698.34	17036.76
698.47	16868.24
698.61	16655.25
698.74	16994.63
698.87	16978.25
699.01	17069.53
699.14	16872.92
699.27	16751.21
699.40	17104.64
699.54	16879.94
699.67	16814.41
699.80	16468.01
699.94	16175.44
700.07	15971.82
700.20	15992.88
700.34	15967.13
700.47	16170.76
700.60	16112.25
700.73	15941.39
700.87	15763.51
701.00	15983.52
701.13	15796.28
701.26	15438.17
701.40	15527.11
701.53	15199.44
701.66	15534.14
701.79	15154.97
701.93	15456.90
702.06	15580.95
702.19	15279.02
702.32	14984.11
702.46	15026.24
702.59	14703.25
702.72	14897.51
702.85	14794.53
702.99	14817.93
703.12	14743.03
703.25	14626.01
703.38	14806.23
703.51	14436.42
703.65	14450.47
703.78	14427.06
703.91	14394.29
704.04	14691.54
704.17	14450.47
704.31	13937.89
704.44	13965.98
704.57	14155.56
704.70	13769.37
704.83	13715.54
704.96	13834.91
705.10	13818.52
705.23	13734.26
>>>>>End Processed Spectral Data<<<<<
