SpectraSuite Data File
++++++++++++++++++++++++++++++++++++
Date: Fri Oct 04 11:48:31 GMT-05:00 2013
User: price-jones
Dark Spectrum Present: No
Reference Spectrum Present: No
Number of Sampled Component Spectra: 1
Spectrometers: USB2+H05261
Integration Time (usec): 100000 (USB2+H05261)
Spectra Averaged: 1 (USB2+H05261)
Boxcar Smoothing: 0 (USB2+H05261)
Correct for Electrical Dark: No (USB2+H05261)
Strobe/Lamp Enabled: No (USB2+H05261)
Correct for Detector Non-linearity: No (USB2+H05261)
Correct for Stray Light: No (USB2+H05261)
Number of Pixels in Processed Spectrum: 2048
>>>>>Begin Processed Spectral Data<<<<<
365.73	32.77
365.92	32.77
366.12	32.77
366.32	0.00
366.52	0.00
366.72	0.00
366.91	0.00
367.11	0.00
367.31	0.00
367.51	0.00
367.70	0.00
367.90	0.00
368.10	0.00
368.30	11.70
368.49	0.00
368.69	0.00
368.89	9.36
369.09	0.00
369.28	0.00
369.48	0.00
369.68	0.00
369.87	0.00
370.07	58.51
370.27	0.00
370.47	145.11
370.66	376.83
370.86	409.59
371.06	463.43
371.25	456.40
371.45	404.91
371.65	507.90
371.84	423.64
372.04	454.06
372.24	486.83
372.44	517.26
372.63	601.52
372.83	564.07
373.03	545.34
373.22	547.69
373.42	578.11
373.62	507.90
373.81	589.82
374.01	533.64
374.21	627.26
374.40	538.32
374.60	550.03
374.79	617.90
374.99	613.22
375.19	624.92
375.38	594.50
375.58	582.79
375.78	685.78
375.97	699.82
376.17	692.80
376.37	629.60
376.56	620.24
376.76	601.52
376.95	706.84
377.15	596.84
377.35	676.41
377.54	601.52
377.74	704.50
377.93	699.82
378.13	695.14
378.33	823.87
378.52	730.25
378.72	678.76
378.91	744.29
379.11	737.27
379.31	699.82
379.50	746.63
379.70	772.38
379.89	748.97
380.09	725.57
380.28	833.23
380.48	816.85
380.68	777.06
380.87	774.72
381.07	692.80
381.26	828.55
381.46	709.18
381.65	812.17
381.85	887.06
382.04	695.14
382.24	819.19
382.43	781.74
382.63	781.74
382.83	802.80
383.02	915.15
383.22	889.40
383.41	809.83
383.61	844.93
383.80	830.89
384.00	863.66
384.19	868.34
384.39	887.06
384.58	961.96
384.78	870.68
384.97	882.38
385.17	947.92
385.36	891.74
385.56	922.17
385.75	847.27
385.95	999.41
386.14	924.51
386.34	1001.75
386.53	931.53
386.72	1001.75
386.92	947.92
387.11	992.39
387.31	1015.79
387.50	915.15
387.70	1048.56
387.89	1060.26
388.09	1053.24
388.28	1071.97
388.48	1069.62
388.67	1095.37
388.86	1062.60
389.06	1041.54
389.25	1121.12
389.45	1043.88
389.64	957.28
389.84	1139.84
390.03	1086.01
390.22	1144.52
390.42	1123.46
390.61	1086.01
390.81	1165.59
391.00	1191.33
391.19	1231.12
391.39	1268.57
391.58	1240.48
391.78	1160.91
391.97	1259.21
392.16	1275.59
392.36	1359.85
392.55	1287.29
392.75	1203.04
392.94	1249.85
393.13	1235.80
393.33	1348.15
393.52	1270.91
393.71	1362.19
393.91	1380.92
394.10	1303.68
394.29	1366.87
394.49	1341.13
394.68	1343.47
394.88	1373.89
395.07	1399.64
395.26	1423.05
395.46	1369.21
395.65	1322.40
395.84	1565.82
396.04	1612.63
396.23	1490.92
396.42	1469.86
396.62	1523.69
396.81	1444.11
397.00	1540.07
397.19	1455.81
397.39	1561.14
397.58	1565.82
397.77	1507.30
397.97	1640.72
398.16	1514.33
398.35	1647.74
398.55	1584.54
398.74	1591.56
398.93	1661.78
399.12	1596.25
399.32	1612.63
399.51	1619.65
399.70	1699.23
399.90	1614.97
400.09	1654.76
400.28	1797.53
400.47	1736.68
400.67	1762.42
400.86	1776.47
401.05	1783.49
401.24	1715.61
401.44	1947.33
401.63	1837.32
401.82	1898.17
402.01	1898.17
402.21	1834.98
402.40	1984.77
402.59	1949.67
402.78	1937.96
402.97	1788.17
403.17	2045.63
403.36	1947.33
403.55	2062.01
403.74	1994.14
403.93	2127.55
404.13	1966.05
404.32	2036.27
404.51	2115.84
404.70	2263.30
404.89	2064.35
405.09	2209.47
405.28	2132.23
405.47	2225.85
405.66	2200.10
405.85	2209.47
406.05	2263.30
406.24	2169.68
406.43	2246.91
406.62	2340.54
406.81	2392.03
407.00	2218.83
407.20	2228.19
407.39	2326.49
407.58	2431.82
407.77	2403.73
407.96	2464.58
408.15	2476.29
408.34	2333.51
408.54	2471.61
408.73	2537.14
408.92	2443.52
409.11	2532.46
409.30	2523.10
409.49	2593.31
409.68	2623.74
409.87	2605.02
410.07	2719.70
410.26	2696.30
410.45	2775.88
410.64	2775.88
410.83	2595.65
411.02	2775.88
411.21	2766.51
411.40	2808.64
411.59	2897.58
411.78	2897.58
411.98	2909.29
412.17	2843.75
412.36	2930.35
412.55	2974.82
412.74	3082.49
412.93	3110.57
413.12	2937.37
413.31	3131.64
413.50	3129.30
413.69	3213.56
413.88	3269.73
414.07	3248.66
414.26	3309.52
414.45	3269.73
414.64	3339.94
414.83	3426.54
415.02	3281.43
415.22	3370.37
415.41	3557.61
415.60	3417.18
415.79	3412.50
415.98	3592.72
416.17	3562.30
416.36	3571.66
416.55	3620.81
416.74	3576.34
416.93	3597.40
417.12	3726.13
417.31	3695.71
417.50	3786.99
417.69	3913.38
417.88	3833.80
418.07	3829.12
418.26	3768.26
418.45	3829.12
418.64	4021.04
418.83	4016.36
419.02	3990.61
419.21	4131.05
419.39	4058.49
419.58	4021.04
419.77	3943.80
419.96	4124.02
420.15	4067.85
420.34	4067.85
420.53	4210.62
420.72	4159.13
420.91	4128.70
421.10	4184.88
421.29	4311.27
421.48	4266.80
421.67	4402.55
421.86	4311.27
422.05	4341.69
422.24	4379.14
422.43	4259.78
422.61	4353.40
422.80	4287.86
422.99	4451.70
423.18	4369.78
423.37	4442.34
423.56	4386.16
423.75	4491.49
423.94	4376.80
424.13	4128.70
424.32	4325.31
424.50	4596.81
424.69	4725.54
424.88	4636.60
425.07	4465.74
425.26	4414.25
425.45	4444.68
425.64	4550.00
425.83	4517.23
426.01	4500.85
426.20	4552.34
426.39	4585.11
426.58	4472.76
426.77	4578.09
426.96	4671.71
427.15	4638.94
427.33	4662.35
427.52	4627.24
427.71	4713.84
427.90	4652.98
428.09	4760.65
428.28	4889.38
428.46	4830.87
428.65	4835.55
428.84	5048.54
429.03	4933.85
429.22	4882.36
429.40	4961.94
429.59	4873.00
429.78	4788.74
429.97	4844.91
430.16	4833.21
430.34	5067.26
430.53	5184.29
430.72	5186.63
430.91	4961.94
431.10	5121.09
431.28	5203.01
431.47	5231.10
431.66	5172.58
431.85	5181.95
432.03	5362.17
432.22	5448.77
432.41	5411.32
432.60	5390.25
432.79	5399.62
432.97	5451.11
433.16	5446.43
433.35	5376.21
433.54	5537.71
433.72	5387.91
433.91	5535.37
434.10	5657.07
434.28	5659.42
434.47	5490.90
434.66	5631.33
434.85	5809.21
435.03	5706.23
435.22	5724.95
435.41	6005.81
435.59	5858.36
435.78	5788.14
435.97	5769.42
436.16	5989.43
436.34	5930.92
436.53	5996.45
436.72	6064.33
436.90	5783.46
437.09	5823.25
437.28	5928.58
437.46	5968.37
437.65	6129.86
437.84	6057.31
438.02	6057.31
438.21	6099.44
438.40	6106.46
438.58	6303.06
438.77	6469.24
438.96	6328.81
439.14	6396.68
439.33	6492.65
439.52	6483.28
439.70	6544.14
439.89	6614.35
440.08	6815.64
440.26	6736.06
440.45	6663.51
440.63	6885.86
440.82	6815.64
441.01	6939.69
441.19	6864.79
441.38	7309.49
441.57	7052.03
441.75	7087.14
441.94	7169.06
442.12	7288.43
442.31	7419.50
442.50	7272.04
442.68	7243.96
442.87	7487.37
443.05	7353.96
443.24	7473.33
443.43	7485.03
443.61	7400.77
443.80	7660.57
443.98	7445.24
444.17	7267.36
444.35	7468.65
444.54	7634.83
444.73	7555.25
444.91	7618.44
445.10	7646.53
445.28	7461.63
445.47	7653.55
445.65	7461.63
445.84	7669.94
446.02	7606.74
446.21	7655.89
446.39	7606.74
446.58	7578.65
446.77	7723.77
446.95	7571.63
447.14	7812.71
447.32	7786.96
447.51	7723.77
447.69	7777.60
447.88	7808.03
448.06	7812.71
448.25	7698.02
448.43	7955.48
448.62	7756.54
448.80	7674.62
448.99	7761.22
449.17	7861.86
449.36	7791.64
449.54	8049.10
449.73	8135.70
449.91	8084.21
450.10	8175.49
450.28	8348.69
450.46	8163.79
450.65	8252.73
450.83	8479.76
451.02	8231.66
451.20	8229.32
451.39	8388.48
451.57	8102.93
451.76	8259.75
451.94	8388.48
452.13	8662.32
452.31	8528.91
452.49	8437.63
452.68	8662.32
452.86	8634.24
453.05	8828.50
453.23	8669.34
453.42	8505.51
453.60	8711.47
453.78	8547.64
453.97	8615.51
454.15	8650.62
454.34	8575.72
454.52	8842.54
454.70	8819.14
454.89	8765.31
455.07	8952.55
455.26	9029.79
455.44	8952.55
455.62	8952.55
455.81	9088.30
455.99	9266.18
456.17	9249.80
456.36	9418.32
456.54	9401.93
456.73	9495.55
456.91	9680.46
457.09	9268.52
457.28	9668.75
457.46	9350.44
457.64	9495.55
457.83	9437.04
458.01	9575.13
458.19	9724.93
458.38	9446.40
458.56	9703.86
458.74	9666.41
458.93	9839.61
459.11	9575.13
459.29	9762.37
459.48	9937.91
459.66	9708.54
459.84	9994.09
460.03	10019.83
460.21	9928.55
460.39	10239.84
460.57	9998.77
460.76	10043.24
460.94	10225.80
461.12	10242.18
461.31	10071.33
461.49	10258.57
461.67	10291.34
461.85	10569.86
462.04	10464.54
462.22	10995.84
462.40	10408.36
462.59	10555.82
462.77	10607.31
462.95	10651.78
463.13	10441.13
463.32	10633.05
463.50	10796.89
463.68	10743.06
463.86	10796.89
464.05	10647.10
464.23	10721.99
464.41	10693.91
464.59	10600.29
464.78	11044.99
464.96	11056.69
465.14	10771.15
465.32	11115.20
465.50	11101.16
465.69	11014.56
465.87	10862.43
466.05	11068.39
466.23	10869.45
466.41	11248.61
466.60	11396.07
466.78	11098.82
466.96	11021.58
467.14	11349.26
467.32	11639.48
467.51	11503.73
467.69	11140.95
467.87	11456.92
468.05	11318.83
468.23	11279.04
468.41	11531.82
468.60	11449.90
468.78	11527.14
468.96	11501.39
469.14	11836.09
469.32	11857.15
469.50	11440.54
469.69	11941.41
469.87	11784.60
470.05	12297.17
470.23	12051.42
470.41	12226.96
470.59	12170.79
470.77	11903.96
470.95	12409.52
471.14	12290.15
471.32	12271.43
471.50	12568.68
471.68	12343.99
471.86	12482.08
472.04	12559.31
472.22	12812.09
472.40	12629.53
472.58	12793.37
472.77	12657.62
472.95	12886.99
473.13	13219.35
473.31	13020.40
473.49	12842.52
473.67	12943.16
473.85	12985.29
474.03	13425.31
474.21	13280.20
474.39	13776.39
474.57	13366.80
474.75	13638.30
474.93	13933.21
475.12	13680.43
475.30	13598.51
475.48	13720.22
475.66	13987.04
475.84	14052.58
476.02	14033.85
476.20	14171.94
476.38	14413.02
476.56	14728.99
476.74	14560.47
476.92	14576.86
477.10	14518.34
477.28	14897.51
477.46	14883.47
477.64	14984.11
477.82	15468.60
478.00	15438.17
478.18	15456.90
478.36	15435.83
478.54	15908.62
478.72	15594.99
478.90	16252.68
479.08	16025.65
479.26	16020.97
479.44	16252.68
479.62	16121.61
479.80	16486.73
479.98	16606.10
480.16	16692.70
480.34	17048.46
480.52	16982.93
480.70	17242.73
480.88	17097.61
481.06	17312.94
481.24	17090.59
481.41	17446.35
481.59	17900.42
481.77	17937.87
481.95	18239.79
482.13	18497.25
482.31	18075.96
482.49	18345.12
482.67	18345.12
482.85	18705.56
483.03	18885.78
483.21	18864.72
483.39	19384.32
483.57	19260.27
483.74	19491.98
483.92	19616.03
484.10	19805.61
484.28	19985.83
484.46	20409.47
484.64	20524.16
484.82	19997.54
485.00	20446.92
485.18	21167.80
485.35	21132.70
485.53	21039.08
485.71	20819.07
485.89	21645.27
486.07	21350.37
486.25	21645.27
486.43	21380.79
486.61	21912.10
486.78	22331.05
486.96	22380.20
487.14	22899.80
487.32	22567.45
487.50	22742.99
487.68	23180.67
487.85	23529.41
488.03	23747.08
488.21	24126.24
488.39	23903.89
488.57	23601.96
488.75	24159.01
488.92	24601.37
489.10	24706.70
489.28	24648.18
489.46	25345.66
489.64	25083.52
489.81	25336.30
489.99	25298.85
490.17	25783.34
490.35	26080.59
490.53	26010.37
490.70	26396.56
490.88	26288.90
491.06	26604.87
491.24	26501.89
491.41	26342.73
491.59	26691.47
491.77	27065.96
491.95	27543.42
492.13	27543.42
492.30	27821.95
492.48	27461.51
492.66	27639.39
492.84	28339.21
493.01	28479.64
493.19	28599.01
493.37	28797.95
493.54	28952.43
493.72	29237.97
493.90	29142.01
494.08	29355.00
494.25	29748.21
494.43	29689.70
494.61	29640.54
494.79	29942.47
494.96	30195.25
495.14	30260.79
495.32	30801.45
495.49	30855.28
495.67	30712.51
495.85	30998.06
496.02	31433.39
496.20	31318.71
496.38	31194.66
496.55	31491.91
496.73	31992.78
496.91	32215.13
497.09	32350.88
497.26	32210.45
497.44	32374.29
497.62	32397.70
497.79	32685.58
497.97	32685.58
498.14	33350.29
498.32	33624.14
498.50	33553.92
498.67	33535.20
498.85	34007.98
499.03	34249.06
499.20	34031.39
499.38	34167.14
499.56	34087.56
499.73	34845.90
499.91	34595.46
500.08	34871.64
500.26	34794.40
500.44	34881.00
500.61	34724.19
500.79	34806.11
500.97	35524.65
501.14	35889.77
501.32	35971.69
501.49	35637.00
501.67	35992.76
501.84	35990.42
502.02	36184.68
502.20	36180.00
502.37	36882.16
502.55	36165.96
502.72	36561.51
502.90	36875.14
503.07	36460.87
503.25	36849.39
503.43	36978.12
503.60	37017.91
503.78	37277.71
503.95	37237.92
504.13	37497.72
504.30	37675.60
504.48	37661.56
504.65	37778.59
504.83	38174.14
505.01	38550.96
505.18	38389.47
505.36	38747.57
505.53	38382.45
505.71	38614.16
505.88	38855.23
506.06	38707.78
506.23	38745.23
506.41	38492.45
506.58	39208.65
506.76	39243.76
506.93	39583.14
507.11	39395.90
507.28	39845.28
507.46	39683.78
507.63	39648.68
507.81	40271.26
507.98	39971.67
508.16	39864.00
508.33	40126.14
508.50	40243.17
508.68	40353.18
508.85	40807.24
509.03	40395.31
509.20	41181.73
509.38	41691.96
509.55	41647.49
509.73	41364.29
509.90	41696.64
510.08	41439.18
510.25	41558.55
510.42	41766.86
510.60	41900.27
510.77	41888.57
510.95	42368.38
511.12	41979.85
511.30	42354.33
511.47	42588.39
511.64	42609.45
511.82	43030.75
511.99	42749.88
512.17	43145.44
512.34	42934.79
512.51	43042.45
512.69	43299.91
512.86	43124.37
513.04	43381.83
513.21	43768.02
513.38	43997.39
513.56	43985.69
513.73	43660.35
513.90	43758.66
514.08	43934.20
514.25	44318.04
514.43	44285.28
514.60	44311.02
514.77	44662.10
514.95	44545.08
515.12	44023.14
515.29	44095.69
515.47	44598.91
515.64	45106.80
515.81	45265.96
515.99	45333.84
516.16	45989.19
516.33	45462.57
516.51	45565.55
516.68	45371.28
516.85	45387.67
517.03	45731.73
517.20	46218.56
517.37	45970.46
517.54	46188.13
517.72	46089.83
517.89	45909.61
518.06	46162.39
518.24	46225.58
518.41	46312.18
518.58	46349.63
518.75	46866.89
518.93	47147.75
519.10	46588.36
519.27	46808.37
519.45	46941.78
519.62	46930.08
519.79	46930.08
519.96	46852.84
520.14	47276.48
520.31	47150.09
520.48	47276.48
520.65	47580.75
520.83	47936.51
521.00	47215.63
521.17	47798.42
521.34	47910.77
521.52	47976.30
521.69	47793.74
521.86	48229.08
522.03	48346.11
522.20	48247.80
522.38	48020.77
522.55	48472.49
522.72	48694.85
522.89	48385.89
523.07	49109.12
523.24	48746.34
523.41	48744.00
523.58	48545.05
523.75	48870.39
523.92	48823.58
524.10	49202.74
524.27	49474.24
524.44	49710.64
524.61	49869.79
524.78	49455.52
524.96	49628.72
525.13	49841.71
525.30	49893.20
525.47	49897.88
525.64	49209.76
525.81	50251.30
525.98	50117.89
526.16	49989.16
526.33	49921.29
526.50	50330.88
526.67	50227.90
526.84	50370.67
527.01	50052.36
527.18	50094.49
527.36	50340.24
527.53	50850.48
527.70	50621.11
527.87	50967.51
528.04	50696.00
528.21	50761.54
528.38	50553.23
528.55	50583.66
528.72	50628.13
528.89	50728.77
529.07	51028.36
529.24	51168.79
529.41	51208.58
529.58	51021.34
529.75	50986.23
529.92	51386.46
530.09	51194.54
530.26	51423.91
530.43	51498.81
530.60	51332.63
530.77	51639.24
530.94	51767.97
531.11	51510.51
531.28	51655.62
531.46	51627.54
531.63	52109.69
531.80	52114.37
531.97	52067.56
532.14	52016.07
532.31	51779.67
532.48	51845.21
532.65	51875.63
532.82	52123.73
532.99	52425.66
533.16	51931.81
533.33	52339.06
533.50	52781.42
533.67	52659.71
533.84	52465.45
534.01	52369.49
534.18	52250.12
534.35	52664.39
534.52	52472.47
534.69	52832.91
534.86	52954.62
535.03	52556.73
535.20	52645.67
535.37	52823.55
535.54	52982.71
535.71	52748.65
535.88	52900.79
536.05	52811.85
536.22	53137.18
536.38	52952.28
536.55	53132.50
536.72	53188.67
536.89	52980.37
537.06	53347.83
537.23	53406.34
537.40	53483.58
537.57	53158.25
537.74	53277.61
537.91	53954.03
538.08	53661.46
538.25	53638.06
538.42	53764.45
538.59	53696.57
538.75	53429.75
538.92	53790.19
539.09	53991.48
539.26	54007.86
539.43	54000.84
539.60	54071.06
539.77	53993.82
539.94	54129.57
540.11	54122.55
540.28	54206.81
540.44	54047.65
540.61	54330.86
540.78	54302.77
540.95	54319.15
541.12	54309.79
541.29	54281.70
541.46	54033.61
541.62	54113.19
541.79	54106.16
541.96	54075.74
542.13	54340.22
542.30	54663.21
542.47	54621.08
542.63	54639.81
542.80	54703.00
542.97	54990.89
543.14	54892.58
543.31	54658.53
543.48	54770.88
543.64	55171.11
543.81	55131.32
543.98	55241.32
544.15	55271.75
544.32	55152.38
544.48	55313.88
544.65	55061.10
544.82	55332.60
544.99	54925.35
545.16	55196.85
545.32	55093.87
545.49	55480.06
545.66	55650.92
545.83	55381.76
546.00	55756.24
546.16	55407.50
546.33	55374.73
546.50	55187.49
546.67	55622.83
546.83	55238.98
547.00	55416.86
547.17	55751.56
547.34	55569.00
547.50	55693.05
547.67	55941.14
547.84	55714.11
548.00	55924.76
548.17	55866.25
548.34	55707.09
548.51	56236.05
548.67	56046.47
548.84	56016.04
549.01	56114.34
549.18	55693.05
549.34	55760.92
549.51	56025.40
549.68	55999.66
549.84	55873.27
550.01	56137.75
550.18	56039.45
550.34	56193.92
550.51	56355.42
550.68	56425.64
550.84	56051.15
551.01	56395.21
551.18	56097.96
551.34	56069.87
551.51	56200.94
551.68	56589.47
551.84	56446.70
552.01	56561.39
552.18	56411.59
552.34	56603.52
552.51	56626.92
552.68	56392.87
552.84	56399.89
553.01	56619.90
553.18	56713.52
553.34	56868.00
553.51	56657.35
553.67	56793.10
553.84	56816.50
554.01	56832.89
554.17	56865.66
554.34	56832.89
554.51	56903.10
554.67	56912.47
554.84	56963.96
555.00	56905.44
555.17	56994.39
555.33	57102.05
555.50	56980.34
555.67	57022.47
555.83	57099.71
556.00	56783.74
556.16	57123.11
556.33	56968.64
556.50	56877.36
556.66	57160.56
556.83	57066.94
556.99	57371.21
557.16	57401.64
557.32	57212.06
557.49	57158.22
557.65	56989.70
557.82	57261.21
557.98	57368.87
558.15	57312.70
558.32	57247.16
558.48	57403.98
558.65	57579.52
558.81	57619.31
558.98	57511.64
559.14	57544.41
559.31	57380.57
559.47	57535.05
559.64	57476.54
559.80	57687.18
559.97	57670.80
560.13	57694.21
560.30	57542.07
560.46	57684.84
560.63	57656.76
560.79	57748.04
560.96	57827.62
561.12	57689.52
561.29	57733.99
561.45	57829.96
561.61	57717.61
561.78	57799.53
561.94	57907.19
562.11	57668.46
562.27	57741.02
562.44	57858.04
562.60	57773.78
562.77	57621.65
562.93	57853.36
563.10	58117.84
563.26	57811.23
563.42	58232.53
563.59	57954.00
563.75	58049.97
563.92	58138.91
564.08	58010.18
564.24	57900.17
564.41	57790.17
564.57	57970.39
564.74	58082.73
564.90	58152.95
565.07	57846.34
565.23	58202.10
565.39	58237.21
565.56	58129.54
565.72	57888.47
565.88	58040.60
566.05	58078.05
566.21	58099.12
566.38	57932.94
566.54	58171.67
566.70	58461.90
566.87	58279.34
567.03	58216.14
567.19	58489.99
567.36	58405.73
567.52	58010.18
567.68	58010.18
567.85	57944.64
568.01	58220.83
568.17	57958.69
568.34	57935.28
568.50	58356.58
568.66	58307.43
568.83	58120.18
568.99	58159.97
569.15	58075.71
569.32	58302.74
569.48	58159.97
569.64	58220.83
569.81	58279.34
569.97	58403.39
570.13	58344.87
570.30	58272.32
570.46	58592.97
570.62	58433.81
570.78	58408.07
570.95	58129.54
571.11	58445.52
571.27	58440.84
571.43	58354.24
571.60	58534.46
571.76	58595.31
571.92	58651.48
572.09	58649.14
572.25	58562.54
572.41	58391.68
572.57	58623.40
572.74	58649.14
572.90	58333.17
573.06	58454.88
573.22	58211.46
573.38	58651.48
573.55	58557.86
573.71	58864.47
573.87	58759.15
574.03	58417.43
574.20	58651.48
574.36	58454.88
574.52	58424.45
574.68	58611.70
574.84	58639.78
575.01	58698.30
575.17	58969.80
575.33	58548.50
575.49	58607.01
575.65	58731.06
575.82	58925.33
575.98	58396.37
576.14	58848.09
576.30	58782.55
576.46	58555.52
576.62	58553.18
576.79	58506.37
576.95	58508.71
577.11	58862.13
577.27	58677.23
577.43	58759.15
577.59	58728.72
577.75	58794.26
577.92	58513.39
578.08	58356.58
578.24	58564.88
578.40	58471.26
578.56	58630.42
578.72	58548.50
578.88	59054.06
579.04	58953.41
579.21	58702.98
579.37	58801.28
579.53	58632.76
579.69	58424.45
579.85	58525.10
580.01	58838.73
580.17	58749.79
580.33	58915.96
580.49	58969.80
580.65	58841.07
580.82	58782.55
580.98	58698.30
581.14	58724.04
581.30	58885.54
581.46	58745.11
581.62	58635.10
581.78	58653.82
581.94	58965.12
582.10	58780.21
582.26	58660.85
582.42	58983.84
582.58	59002.56
582.74	59084.48
582.90	58974.48
583.06	58695.95
583.22	58841.07
583.38	58866.81
583.54	58817.66
583.70	58838.73
583.86	59049.38
584.02	58972.14
584.18	58979.16
584.34	59182.79
584.50	58974.48
584.66	58899.58
584.82	58686.59
584.98	58808.30
585.14	58864.47
585.30	58614.04
585.46	58894.90
585.62	58791.92
585.78	58993.20
585.94	58761.49
586.10	58962.78
586.26	58890.22
586.42	59040.01
586.58	59201.51
586.74	58770.85
586.90	58791.92
587.06	58684.25
587.22	58927.67
587.38	58939.37
587.54	58967.46
587.70	59210.87
587.86	59171.08
588.02	58981.50
588.18	59203.85
588.34	58756.81
588.49	58829.37
588.65	58906.60
588.81	58791.92
588.97	59075.12
589.13	58944.05
589.29	58901.92
589.45	59056.40
589.61	59210.87
589.77	59072.78
589.93	59325.56
590.08	59110.23
590.24	58932.35
590.40	59363.01
590.56	59140.66
590.72	59320.88
590.88	58965.12
591.04	59100.87
591.20	59454.29
591.35	59426.20
591.51	59718.77
591.67	59262.36
591.83	59117.25
591.99	59475.35
592.15	59295.13
592.31	59327.90
592.46	59171.08
592.62	59061.08
592.78	58934.69
592.94	59077.46
593.10	59206.19
593.26	59702.38
593.41	59203.85
593.57	59164.06
593.73	59269.39
593.89	59334.92
594.05	59161.72
594.20	59128.95
594.36	59332.58
594.52	59056.40
594.68	59082.14
594.84	59210.87
594.99	59465.99
595.15	59367.69
595.31	59360.67
595.47	59194.49
595.62	59353.65
595.78	59196.83
595.94	59440.24
596.10	59103.21
596.25	59290.45
596.41	59147.68
596.57	59325.56
596.73	59419.18
596.88	59243.64
597.04	59592.38
597.20	59517.48
597.36	59538.55
597.51	59444.93
597.67	59222.58
597.83	59213.21
597.99	59508.12
598.14	59215.55
598.30	59257.68
598.46	59414.50
598.61	59414.50
598.77	59363.01
598.93	59693.02
599.09	59594.72
599.24	59711.75
599.40	59568.97
599.56	59484.72
599.71	59463.65
599.87	59662.60
600.03	59344.28
600.18	59407.48
600.34	59442.59
600.50	59496.42
600.65	59674.30
600.81	59512.80
600.97	59690.68
601.12	59517.48
601.28	59711.75
601.44	59568.97
601.59	59543.23
601.75	59531.53
601.91	59564.29
602.06	59465.99
602.22	59348.96
602.37	59297.47
602.53	59320.88
602.69	59648.55
602.84	59430.88
603.00	59723.45
603.16	59716.43
603.31	59615.79
603.47	59517.48
603.62	59271.73
603.78	59351.30
603.94	59253.00
604.09	59510.46
604.25	59693.02
604.40	59140.66
604.56	59552.59
604.71	59751.54
604.87	59669.62
605.03	59664.94
605.18	59442.59
605.34	59501.10
605.49	59274.07
605.65	59391.09
605.80	59290.45
605.96	59524.50
606.12	59377.05
606.27	59751.54
606.43	59393.43
606.58	59707.07
606.74	59393.43
606.89	59552.59
607.05	59578.34
607.20	59580.68
607.36	59274.07
607.51	59503.44
607.67	59522.16
607.82	59262.36
607.98	59311.52
608.13	59440.24
608.29	59409.82
608.44	59412.16
608.60	59583.02
608.75	59515.14
608.91	59346.62
609.06	59384.07
609.22	59302.15
609.37	59114.91
609.53	59377.05
609.68	59274.07
609.84	59276.41
609.99	59503.44
610.15	59290.45
610.30	59157.04
610.46	59274.07
610.61	59400.46
610.76	59325.56
610.92	59061.08
611.07	59096.19
611.23	59157.04
611.38	59229.60
611.54	59044.69
611.69	59250.66
611.84	58906.60
612.00	59409.82
612.15	58986.18
612.31	59238.96
612.46	59302.15
612.62	59391.09
612.77	58944.05
612.92	59255.34
613.08	59077.46
613.23	59124.27
613.39	59061.08
613.54	59032.99
613.69	58913.62
613.85	58983.84
614.00	59014.27
614.15	59068.10
614.31	58960.44
614.46	59040.01
614.62	59077.46
614.77	59161.72
614.92	59253.00
615.08	58948.73
615.23	58834.05
615.38	58979.16
615.54	58553.18
615.69	59082.14
615.84	58976.82
616.00	58997.88
616.15	58794.26
616.30	58969.80
616.46	59182.79
616.61	59086.82
616.76	59000.22
616.92	59192.15
617.07	58801.28
617.22	58820.00
617.37	58918.31
617.53	58787.24
617.68	58951.07
617.83	58670.21
617.99	58850.43
618.14	59037.67
618.29	58747.45
618.45	58953.41
618.60	59044.69
618.75	58780.21
618.90	58789.58
619.06	58534.46
619.21	58763.83
619.36	58864.47
619.51	58557.86
619.67	58621.06
619.82	58637.44
619.97	58773.19
620.12	58358.92
620.28	58379.98
620.43	58763.83
620.58	58915.96
620.73	58623.40
620.89	58653.82
621.04	58700.64
621.19	58487.65
621.34	58588.29
621.49	58623.40
621.65	58480.63
621.80	58398.71
621.95	58284.02
622.10	58501.69
622.25	58583.61
622.41	58684.25
622.56	58569.57
622.71	58599.99
622.86	58410.41
623.01	58183.38
623.16	58473.60
623.32	58312.11
623.47	58145.93
623.62	58412.75
623.77	58094.44
623.92	58277.00
624.07	58124.86
624.23	58302.74
624.38	58330.83
624.53	58134.23
624.68	58412.75
624.83	58426.79
624.98	58080.39
625.13	58028.90
625.29	58162.31
625.44	58377.64
625.59	58031.24
625.74	58078.05
625.89	57942.30
626.04	57939.96
626.19	57799.53
626.34	57827.62
626.49	57921.24
626.65	57998.48
626.80	58293.38
626.95	58028.90
627.10	57954.00
627.25	57972.73
627.40	57691.86
627.55	57708.25
627.70	57661.44
627.85	57478.88
628.00	57549.09
628.15	57867.40
628.30	57736.34
628.45	57719.95
628.60	57642.71
628.76	58101.46
628.91	58031.24
629.06	57979.75
629.21	57808.89
629.36	57724.63
629.51	57710.59
629.66	57591.22
629.81	57654.42
629.96	57464.83
630.11	57570.16
630.26	57673.14
630.41	57701.23
630.56	57345.47
630.71	57764.42
630.86	57642.71
631.01	57691.86
631.16	57694.21
631.31	57638.03
631.46	57352.49
631.61	57478.88
631.76	57666.12
631.91	57425.04
632.06	57104.39
632.21	57027.15
632.36	57530.37
632.51	57104.39
632.66	57319.72
632.81	57258.87
632.96	57418.02
633.10	57186.31
633.25	57446.11
633.40	57176.95
633.55	57015.45
633.70	56910.13
633.85	56692.46
634.00	56985.02
634.15	57125.46
634.30	56999.07
634.45	57172.27
634.60	57146.52
634.75	57165.24
634.90	57392.28
635.05	57279.93
635.19	57228.44
635.34	57354.83
635.49	57256.53
635.64	57050.56
635.79	56896.08
635.94	56837.57
636.09	56879.70
636.24	56853.95
636.39	56559.05
636.53	56903.10
636.68	56872.68
636.83	56933.53
636.98	57190.99
637.13	57027.15
637.28	57036.51
637.43	56952.26
637.57	56985.02
637.72	56868.00
637.87	56884.38
638.02	56788.42
638.17	56821.19
638.32	56907.79
638.46	56423.29
638.61	56610.54
638.76	56320.31
638.91	56486.49
639.06	56788.42
639.20	56741.61
639.35	56940.55
639.50	57052.90
639.65	56765.01
639.80	56790.76
639.94	56444.36
640.09	56357.76
640.24	56636.28
640.39	56413.93
640.54	56446.70
640.68	56413.93
640.83	56493.51
640.98	56275.84
641.13	56266.48
641.27	56329.67
641.42	56498.19
641.57	56257.12
641.72	56617.56
641.86	56488.83
642.01	56168.18
642.16	56392.87
642.31	56168.18
642.45	56481.81
642.60	55976.25
642.75	56254.78
642.90	55987.95
643.04	56172.86
643.19	55969.23
643.34	56317.97
643.48	55957.53
643.63	56435.00
643.78	56446.70
643.93	56184.56
644.07	56275.84
644.22	55957.53
644.37	55973.91
644.51	56053.49
644.66	56123.71
644.81	55901.36
644.95	55910.72
645.10	55821.78
645.25	55842.84
645.39	55955.19
645.54	56170.52
645.69	56051.15
645.83	56184.56
645.98	55887.31
646.13	56107.32
646.27	55884.97
646.42	55833.48
646.57	55828.80
646.71	55777.31
646.86	55732.84
647.00	55646.24
647.15	55580.70
647.30	55861.57
647.44	55430.91
647.59	55517.51
647.74	55550.27
647.88	55283.45
648.03	55337.29
648.17	55763.26
648.32	55655.60
648.47	55690.71
648.61	55299.84
648.76	55519.85
648.90	55590.06
649.05	55704.75
649.20	55430.91
649.34	55515.17
649.49	55250.69
649.63	55363.03
649.78	55800.71
649.92	55430.91
650.07	55714.11
650.21	55309.20
650.36	55578.36
650.51	55348.99
650.65	55732.84
650.80	55770.28
650.94	55374.73
651.09	55480.06
651.23	55126.64
651.38	55262.39
651.52	55145.36
651.67	55025.99
651.81	55075.15
651.96	55040.04
652.10	54986.21
652.25	55147.70
652.39	55480.06
652.54	55217.92
652.68	55224.94
652.83	55402.82
652.97	55096.21
653.12	54941.74
653.26	55040.04
653.41	54995.57
653.55	54993.23
653.70	54827.05
653.84	54953.44
653.99	55025.99
654.13	55016.63
654.27	54845.77
654.42	54794.28
654.56	54642.15
654.71	54946.42
654.85	55082.17
655.00	55047.06
655.14	54878.54
655.29	54782.58
655.43	54817.69
655.57	54684.28
655.72	54419.80
655.86	54564.91
656.01	54614.06
656.15	54745.13
656.30	54585.97
656.44	54649.17
656.58	54298.09
656.73	54389.37
656.87	54571.93
657.01	54688.96
657.16	54660.87
657.30	54663.21
657.45	54548.53
657.59	54805.98
657.73	54003.18
657.88	54333.20
658.02	54340.22
658.16	54202.13
658.31	54300.43
658.45	53970.41
658.60	53930.62
658.74	54169.36
658.88	53907.22
659.03	53886.15
659.17	53996.16
659.31	54021.90
659.46	54354.26
659.60	54131.91
659.74	53874.45
659.89	53911.90
660.03	53865.09
660.17	53972.75
660.32	53942.33
660.46	53581.88
660.60	53715.29
660.74	53506.99
660.89	53705.93
661.03	53567.84
661.17	53441.45
661.32	53439.11
661.46	53425.07
661.60	53286.98
661.74	53691.89
661.89	53422.73
662.03	53640.40
662.17	53399.32
662.31	53256.55
662.46	53200.38
662.60	53291.66
662.74	53043.56
662.88	52971.00
663.03	52622.26
663.17	52786.10
663.31	52648.01
663.45	52570.77
663.60	52739.29
663.74	52509.92
663.88	52786.10
664.02	52980.37
664.17	53076.33
664.31	53069.31
664.45	52966.32
664.59	52877.38
664.73	52559.07
664.88	52460.77
665.02	51992.66
665.16	51976.28
665.30	52191.61
665.44	52229.05
665.59	52032.45
665.73	52367.15
665.87	52233.74
666.01	52041.81
666.15	52435.02
666.29	52271.18
666.44	52437.36
666.58	51992.66
666.72	51934.15
666.86	52282.89
667.00	52168.20
667.14	51700.09
667.28	51379.44
667.43	51019.00
667.57	51367.74
667.71	51480.08
667.85	51538.60
667.99	51512.85
668.13	51040.06
668.27	51421.57
668.41	51423.91
668.56	51288.16
668.70	51379.44
668.84	51428.59
668.98	51367.74
669.12	51515.19
669.26	51098.58
669.40	51030.70
669.54	50412.80
669.68	50483.01
669.82	50351.94
669.96	50415.14
670.10	50691.32
670.25	50581.32
670.39	50468.97
670.53	50375.35
670.67	50426.84
670.81	50883.25
670.95	50738.13
671.09	50869.20
671.23	50595.36
671.37	50389.39
671.51	50314.50
671.65	50160.02
671.79	49949.37
671.93	50218.53
672.07	50195.13
672.21	49930.65
672.35	49193.38
672.49	49429.77
672.63	49684.89
672.77	49757.45
672.91	49572.55
673.05	49303.38
673.19	49139.55
673.33	49408.71
673.47	49617.02
673.61	49844.05
673.75	49687.23
673.89	48964.01
674.03	49078.69
674.17	49336.15
674.31	48912.52
674.45	48928.90
674.59	48846.98
674.73	48301.64
674.87	48341.42
675.01	48409.30
675.15	48355.47
675.29	48079.28
675.43	47938.85
675.56	48404.62
675.70	48458.45
675.84	48765.06
675.98	47276.48
676.12	48327.38
676.26	48210.35
676.40	47835.87
676.54	47349.04
676.68	47332.65
676.82	46433.89
676.96	46691.35
677.10	46815.40
677.23	46721.77
677.37	46319.20
677.51	46518.15
677.65	46707.73
677.79	46043.02
677.93	46291.12
678.07	46630.49
678.21	46075.79
678.34	46209.20
678.48	45865.14
678.62	45766.84
678.76	45907.27
678.90	45776.20
679.04	45556.19
679.18	45572.57
679.31	44980.42
679.45	44912.54
679.59	45081.06
679.73	45083.40
679.87	44662.10
680.00	44760.40
680.14	44605.93
680.28	44582.52
680.42	44112.08
680.56	44512.31
680.70	44755.72
680.83	44163.57
680.97	44320.38
681.11	44098.03
681.25	43632.27
681.39	43175.86
681.52	43274.16
681.66	43084.58
681.80	42789.67
681.94	42756.91
682.07	42471.36
682.21	42731.16
682.35	42974.58
682.49	42719.46
682.62	42036.02
682.76	42679.67
682.90	42040.70
683.04	41996.23
683.17	42260.71
683.31	42031.34
683.45	41780.90
683.59	41926.02
683.72	41600.68
683.86	41668.56
684.00	41179.39
684.13	41228.54
684.27	41053.00
684.41	40772.13
684.55	40184.66
684.68	40067.63
684.82	40437.44
684.96	40282.96
685.09	40629.36
685.23	40161.25
685.37	40098.06
685.50	40617.66
685.64	39969.33
685.78	40205.72
685.91	40154.23
686.05	39735.27
686.19	39667.40
686.32	39594.84
686.46	38916.09
686.60	39119.71
686.73	38747.57
686.87	38384.79
687.01	38684.37
687.14	38873.96
687.28	38494.79
687.42	37949.45
687.55	38031.36
687.69	38293.50
687.82	38113.28
687.96	38450.32
688.10	37801.99
688.23	37916.68
688.37	38036.05
688.50	37296.44
688.64	37160.69
688.78	36914.93
688.91	37043.66
689.05	37343.25
689.18	36149.57
689.32	35463.80
689.46	36116.81
689.59	36383.63
689.73	35803.17
689.86	35611.25
690.00	36027.87
690.13	36133.19
690.27	35938.93
690.41	36149.57
690.54	35435.71
690.68	35424.01
690.81	35211.02
690.95	35257.83
691.08	35288.26
691.22	34904.41
691.35	34852.92
691.49	34546.31
691.62	34635.25
691.76	34143.74
691.89	33972.88
692.03	34015.01
692.16	34113.31
692.30	33476.68
692.43	33769.25
692.57	33464.98
692.70	33722.44
692.84	33317.53
692.97	33867.55
693.11	33064.75
693.24	33240.29
693.38	33170.07
693.51	33074.11
693.65	33191.14
693.78	32868.14
693.92	33289.44
694.05	32746.44
694.19	32182.37
694.32	32149.60
694.45	31711.92
694.59	31433.39
694.72	31143.17
694.86	31229.77
694.99	31372.54
695.13	30988.69
695.26	31218.07
695.39	30534.63
695.53	31023.80
695.66	30951.24
695.80	30710.17
695.93	30764.00
696.07	31082.31
696.20	30721.87
696.33	30548.67
696.47	30431.65
696.60	30611.87
696.73	30244.40
696.87	29820.77
697.00	29869.92
697.14	29373.72
697.27	29219.25
697.40	29270.74
697.54	28938.38
697.67	28500.70
697.80	28840.08
697.94	28229.20
698.07	28519.43
698.21	28507.72
698.34	28994.56
698.47	28449.21
698.61	27915.57
698.74	28217.50
698.87	27910.89
699.01	27772.80
699.14	27943.66
699.27	27749.39
699.40	27641.73
699.54	27161.92
699.67	27080.00
699.80	27300.01
699.94	27136.17
700.07	27012.12
700.20	26588.49
700.34	26787.43
700.47	26637.64
700.60	26654.02
700.73	26857.65
700.87	26918.50
701.00	26611.89
701.13	26258.47
701.26	26171.87
701.40	26361.45
701.53	25984.63
701.66	25792.70
701.79	25493.12
701.93	25619.50
702.06	25446.30
702.19	24868.19
702.32	24875.21
702.46	25167.78
702.59	24725.42
702.72	24573.28
702.85	24549.88
702.99	24456.26
703.12	24573.28
703.25	24357.96
703.38	24149.65
703.51	24056.03
703.65	24161.35
703.78	24093.47
703.91	23583.24
704.04	24084.11
704.17	23784.52
704.31	23447.49
704.44	23178.33
704.57	23239.18
704.70	23300.03
704.83	22988.74
704.96	23318.76
705.10	22693.83
705.23	22920.87
>>>>>End Processed Spectral Data<<<<<
