SpectraSuite Data File
++++++++++++++++++++++++++++++++++++
Date: Fri Oct 04 11:48:36 GMT-05:00 2013
User: price-jones
Dark Spectrum Present: No
Reference Spectrum Present: No
Number of Sampled Component Spectra: 1
Spectrometers: USB2+H05261
Integration Time (usec): 100000 (USB2+H05261)
Spectra Averaged: 1 (USB2+H05261)
Boxcar Smoothing: 0 (USB2+H05261)
Correct for Electrical Dark: No (USB2+H05261)
Strobe/Lamp Enabled: No (USB2+H05261)
Correct for Detector Non-linearity: No (USB2+H05261)
Correct for Stray Light: No (USB2+H05261)
Number of Pixels in Processed Spectrum: 2048
>>>>>Begin Processed Spectral Data<<<<<
365.73	56.17
365.92	56.17
366.12	56.17
366.32	0.00
366.52	0.00
366.72	0.00
366.91	0.00
367.11	0.00
367.31	0.00
367.51	0.00
367.70	0.00
367.90	0.00
368.10	0.00
368.30	0.00
368.49	0.00
368.69	0.00
368.89	0.00
369.09	0.00
369.28	0.00
369.48	0.00
369.68	0.00
369.87	0.00
370.07	16.38
370.27	44.47
370.47	49.15
370.66	187.24
370.86	217.67
371.06	320.65
371.25	355.76
371.45	337.04
371.65	238.73
371.84	262.14
372.04	280.86
372.24	334.70
372.44	304.27
372.63	315.97
372.83	360.44
373.03	411.93
373.22	320.65
373.42	395.55
373.62	383.85
373.81	418.96
374.01	395.55
374.21	379.17
374.40	339.38
374.60	440.02
374.79	440.02
374.99	454.06
375.19	414.27
375.38	402.57
375.58	442.36
375.78	458.74
375.97	456.40
376.17	496.19
376.37	411.93
376.56	458.74
376.76	383.85
376.95	416.62
377.15	444.70
377.35	461.09
377.54	397.89
377.74	397.89
377.93	388.53
378.13	484.49
378.33	477.47
378.52	493.85
378.72	423.64
378.91	503.22
379.11	442.36
379.31	454.06
379.50	449.38
379.70	533.64
379.89	463.43
380.09	470.45
380.28	449.38
380.48	442.36
380.68	557.05
380.87	423.64
381.07	421.30
381.26	500.87
381.46	449.38
381.65	557.05
381.85	512.58
382.04	500.87
382.24	589.82
382.43	489.17
382.63	533.64
382.83	552.37
383.02	535.98
383.22	524.28
383.41	575.77
383.61	531.30
383.80	486.83
384.00	526.62
384.19	561.73
384.39	587.47
384.58	503.22
384.78	617.90
384.97	582.79
385.17	601.52
385.36	608.54
385.56	587.47
385.75	557.05
385.95	596.84
386.14	543.00
386.34	580.45
386.53	650.67
386.72	545.34
386.92	559.39
387.11	617.90
387.31	601.52
387.50	624.92
387.70	601.52
387.89	575.77
388.09	620.24
388.28	704.50
388.48	695.14
388.67	678.76
388.86	767.70
389.06	725.57
389.25	753.65
389.45	678.76
389.64	676.41
389.84	739.61
390.03	765.36
390.22	713.86
390.42	758.33
390.61	699.82
390.81	685.78
391.00	699.82
391.19	683.44
391.39	685.78
391.58	753.65
391.78	748.97
391.97	784.08
392.16	786.42
392.36	795.78
392.55	793.44
392.75	828.55
392.94	723.23
393.13	732.59
393.33	791.10
393.52	784.08
393.71	847.27
393.91	816.85
394.10	873.02
394.29	840.25
394.49	718.54
394.68	908.13
394.88	877.70
395.07	910.47
395.26	816.85
395.46	880.04
395.65	968.98
395.84	915.15
396.04	990.05
396.23	976.00
396.42	968.98
396.62	917.49
396.81	990.05
397.00	997.07
397.19	987.71
397.39	1029.84
397.58	933.87
397.77	1053.24
397.97	1022.81
398.16	1057.92
398.35	1165.59
398.55	1163.25
398.74	1093.03
398.93	1135.16
399.12	980.68
399.32	1139.84
399.51	1123.46
399.70	1118.78
399.90	1121.12
400.09	1233.46
400.28	1181.97
400.47	1193.67
400.67	1273.25
400.86	1203.04
401.05	1228.78
401.24	1102.39
401.44	1317.72
401.63	1249.85
401.82	1296.66
402.01	1322.40
402.21	1144.52
402.40	1282.61
402.59	1310.70
402.78	1233.46
402.97	1345.81
403.17	1380.92
403.36	1409.00
403.55	1313.04
403.74	1488.58
403.93	1504.96
404.13	1355.17
404.32	1404.32
404.51	1387.94
404.70	1430.07
404.89	1453.47
405.09	1579.86
405.28	1629.01
405.47	1586.88
405.66	1610.29
405.85	1537.73
406.05	1551.78
406.24	1600.93
406.43	1626.67
406.62	1694.55
406.81	1645.40
407.00	1661.78
407.20	1661.78
407.39	1640.72
407.58	1832.64
407.77	1710.93
407.96	1722.63
408.15	1767.10
408.34	1818.60
408.54	1827.96
408.73	1802.21
408.92	1816.26
409.11	1839.66
409.30	1870.09
409.49	1809.23
409.68	1881.79
409.87	1919.24
410.07	1933.28
410.26	2101.80
410.45	1998.82
410.64	2047.97
410.83	2120.53
411.02	1977.75
411.21	1982.43
411.40	2066.69
411.59	2146.27
411.78	2174.36
411.98	2267.98
412.17	2249.25
412.36	2312.45
412.55	2303.09
412.74	2352.24
412.93	2340.54
413.12	2277.34
413.31	2417.77
413.50	2359.26
413.69	2422.45
413.88	2504.37
414.07	2518.42
414.26	2607.36
414.45	2609.70
414.64	2450.54
414.83	2612.04
415.02	2623.74
415.22	2682.25
415.41	2682.25
415.60	2752.47
415.79	2733.75
415.98	2729.06
416.17	2670.55
416.36	2670.55
416.55	2853.11
416.74	2829.71
416.93	2825.03
417.12	2794.60
417.31	2885.88
417.50	2745.45
417.69	3056.74
417.88	3122.27
418.07	3110.57
418.26	3059.08
418.45	2930.35
418.64	3178.45
418.83	3232.28
419.02	3108.23
419.21	3197.17
419.39	3180.79
419.58	3143.34
419.77	3190.15
419.96	3162.06
420.15	3208.87
420.34	3260.37
420.53	3164.40
420.72	3309.52
420.91	3309.52
421.10	3372.71
421.29	3426.54
421.48	3183.13
421.67	3253.34
421.86	3377.39
422.05	3456.97
422.24	3370.37
422.43	3304.84
422.61	3449.95
422.80	3346.97
422.99	3524.85
423.18	3499.10
423.37	3414.84
423.56	3442.93
423.75	3300.16
423.94	3382.07
424.13	3433.57
424.32	3353.99
424.50	3463.99
424.69	3623.15
424.88	3602.08
425.07	3358.67
425.26	3438.25
425.45	3597.40
425.64	3602.08
425.83	3637.19
426.01	3588.04
426.20	3691.02
426.39	3698.05
426.58	3524.85
426.77	3569.32
426.96	3714.43
427.15	3623.15
427.33	3751.88
427.52	3695.71
427.71	3768.26
427.90	3723.79
428.09	3761.24
428.28	3817.41
428.46	3913.38
428.65	3836.14
428.84	3925.08
429.03	3936.78
429.22	3754.22
429.40	3889.97
429.59	3922.74
429.78	3719.11
429.97	3810.39
430.16	3810.39
430.34	3885.29
430.53	4044.45
430.72	4009.34
430.91	3911.04
431.10	3950.82
431.28	4109.98
431.47	4028.06
431.66	4212.96
431.85	4140.41
432.03	4191.90
432.22	4229.35
432.41	4299.56
432.60	4250.41
432.79	4168.49
432.97	4315.95
433.16	4395.53
433.35	4236.37
433.54	4196.58
433.72	4294.88
433.91	4219.99
434.10	4383.82
434.28	4447.02
434.47	4358.08
434.66	4393.19
434.85	4636.60
435.03	4601.49
435.22	4603.83
435.41	4620.22
435.59	4660.01
435.78	4524.26
435.97	4655.33
436.16	4589.79
436.34	4592.13
436.53	4627.24
436.72	4737.24
436.90	4674.05
437.09	4641.28
437.28	4667.03
437.46	4851.93
437.65	4716.18
437.84	4800.44
438.02	4767.67
438.21	4957.25
438.40	4748.95
438.58	4917.47
438.77	5085.98
438.96	4924.49
439.14	4905.76
439.33	5118.75
439.52	5163.22
439.70	5160.88
439.89	5118.75
440.08	5261.52
440.26	5219.39
440.45	5254.50
440.63	5228.76
440.82	5303.65
441.01	5280.25
441.19	5313.02
441.38	5458.13
441.57	5495.58
441.75	5652.39
441.94	5696.86
442.12	5626.65
442.31	5776.44
442.50	5785.80
442.68	5610.26
442.87	5724.95
443.05	5813.89
443.24	6012.84
443.43	5888.79
443.61	5926.24
443.80	6057.31
443.98	5825.59
444.17	5729.63
444.35	5996.45
444.54	6003.47
444.73	6033.90
444.91	5858.36
445.10	5893.47
445.28	6019.86
445.47	5874.74
445.65	5877.09
445.84	6066.67
446.02	6162.63
446.21	5937.94
446.39	6099.44
446.58	6108.80
446.77	6157.95
446.95	6085.39
447.14	6033.90
447.32	6097.10
447.51	5940.28
447.69	5942.62
447.88	6132.20
448.06	6071.35
448.25	6101.78
448.43	6080.71
448.62	6073.69
448.80	6162.63
448.99	6221.14
449.17	6200.08
449.36	6235.19
449.54	6312.42
449.73	6413.07
449.91	6518.39
450.10	6427.11
450.28	6523.07
450.46	6483.28
450.65	6633.08
450.83	6705.63
451.02	6429.45
451.20	6651.80
451.39	6502.01
451.57	6366.26
451.76	6394.34
451.94	6567.54
452.13	6621.38
452.31	6637.76
452.49	6565.20
452.68	6696.27
452.86	6738.40
453.05	6927.99
453.23	6764.15
453.42	6745.42
453.60	6628.40
453.78	6691.59
453.97	6731.38
454.15	6672.87
454.34	6881.18
454.52	7016.93
454.70	6932.67
454.89	6970.12
455.07	6923.30
455.26	6965.43
455.44	7033.31
455.62	7140.97
455.81	7169.06
455.99	7213.53
456.17	7054.37
456.36	7197.15
456.54	7370.35
456.73	7260.34
456.91	7527.16
457.09	7349.28
457.28	7578.65
457.46	7250.98
457.64	7583.34
457.83	7353.96
458.01	7307.15
458.19	7442.90
458.38	7365.67
458.56	7534.18
458.74	7489.71
458.93	7510.78
459.11	7611.42
459.29	7588.02
459.48	7737.81
459.66	7606.74
459.84	7779.94
460.03	7871.22
460.21	7775.26
460.39	7819.73
460.57	7772.92
460.76	7985.91
460.94	7901.65
461.12	7939.10
461.31	7941.44
461.49	8100.59
461.67	7901.65
461.85	8278.47
462.04	8109.96
462.22	8596.79
462.40	8135.70
462.59	7976.55
462.77	8189.53
462.95	8182.51
463.13	8180.17
463.32	8411.89
463.50	8301.88
463.68	8346.35
463.86	8119.32
464.05	8264.43
464.23	8049.10
464.41	8360.39
464.59	8252.73
464.78	8358.05
464.96	8358.05
465.14	8273.79
465.32	8648.28
465.50	8636.58
465.69	8828.50
465.87	8430.61
466.05	8348.69
466.23	8414.23
466.41	8706.79
466.60	8821.48
466.78	8638.92
466.96	8636.58
467.14	8767.65
467.32	8489.12
467.51	8615.51
467.69	8816.80
467.87	8779.35
468.05	8732.54
468.23	8751.26
468.41	8744.24
468.60	8833.18
468.78	8919.78
468.96	8805.10
469.14	8868.29
469.32	9001.70
469.50	8685.73
469.69	9312.99
469.87	9149.15
470.05	9266.18
470.23	8971.27
470.41	9177.24
470.59	9385.55
470.77	9135.11
470.95	9525.98
471.14	9661.73
471.32	9151.49
471.50	9598.54
471.68	9542.36
471.86	9610.24
472.04	9493.21
472.22	9703.86
472.40	9612.58
472.58	9781.10
472.77	9881.74
472.95	9757.69
473.13	10136.86
473.31	9813.87
473.49	9940.26
473.67	10068.98
473.85	9954.30
474.03	10090.05
474.21	10113.45
474.39	10281.97
474.57	10319.42
474.75	10354.53
474.93	10417.72
475.12	10455.17
475.30	10518.37
475.48	10611.99
475.66	10766.46
475.84	10604.97
476.02	10665.82
476.20	10843.70
476.38	10974.77
476.56	11070.73
476.74	11260.32
476.92	11143.29
477.10	11126.91
477.28	11419.47
477.46	11119.89
477.64	11506.07
477.82	11541.18
478.00	12020.99
478.18	11779.92
478.36	11836.09
478.54	11967.16
478.72	12255.04
478.90	12147.38
479.08	12472.71
479.26	12339.30
479.44	12446.97
479.62	12561.66
479.80	12444.63
479.98	12711.45
480.16	12910.40
480.34	12697.41
480.52	13118.70
480.70	13083.59
480.88	13078.91
481.06	13359.78
481.24	13130.41
481.41	13317.65
481.59	13635.96
481.77	13633.62
481.95	13619.58
482.13	13970.66
482.31	13579.79
482.49	13785.76
482.67	14031.51
482.85	14068.96
483.03	14707.93
483.21	14415.36
483.39	14581.54
483.57	14420.04
483.74	14668.14
483.92	14998.15
484.10	14682.18
484.28	15290.72
484.46	15456.90
484.64	15529.45
484.82	15246.25
485.00	15704.99
485.18	15716.70
485.35	16016.29
485.53	15941.39
485.71	15840.75
485.89	16411.84
486.07	16299.49
486.25	16524.18
486.43	16397.79
486.61	16285.45
486.78	16596.74
486.96	16819.09
487.14	17177.19
487.32	16844.84
487.50	17177.19
487.68	17280.18
487.85	17294.22
488.03	17565.72
488.21	18263.20
488.39	17893.40
488.57	18040.85
488.75	18183.62
488.92	18640.03
489.10	18441.08
489.28	18558.11
489.46	18766.42
489.64	18827.27
489.81	19227.50
489.99	19337.51
490.17	19297.72
490.35	19491.98
490.53	19700.29
490.70	19838.38
490.88	19524.75
491.06	20137.97
491.24	20067.75
491.41	20077.12
491.59	20318.19
491.77	20170.74
491.95	20463.30
492.13	20830.77
492.30	20748.85
492.48	20767.57
492.66	20989.92
492.84	21032.05
493.01	21458.03
493.19	21053.12
493.37	21460.37
493.54	21308.24
493.72	21722.51
493.90	21795.07
494.08	22071.25
494.25	22218.71
494.43	22129.77
494.61	22288.92
494.79	22370.84
494.96	22614.26
495.14	22628.30
495.32	23145.56
495.49	22773.41
495.67	23016.83
495.85	23201.73
496.02	23384.29
496.20	23592.60
496.38	23396.00
496.55	23637.07
496.73	24219.86
496.91	23920.28
497.09	24496.05
497.26	24049.00
497.44	24327.53
497.62	24180.07
497.79	24730.10
497.97	24613.07
498.14	25069.48
498.32	25097.56
498.50	24849.47
498.67	25247.36
498.85	25270.76
499.03	25245.02
499.20	25275.45
499.38	25474.39
499.56	25687.38
499.73	25811.43
499.91	25804.41
500.08	26108.68
500.26	25912.07
500.44	26017.40
500.61	26565.08
500.79	26223.36
500.97	26630.62
501.14	26672.74
501.32	27007.44
501.49	26827.22
501.67	26721.90
501.84	26969.99
502.02	27154.90
502.20	26955.95
502.37	27283.62
502.55	27269.58
502.72	27388.95
502.90	27438.10
503.07	27728.33
503.25	27522.36
503.43	27543.42
503.60	27857.06
503.78	27754.07
503.95	27983.44
504.13	27927.27
504.30	28102.81
504.48	28374.31
504.65	28056.00
504.83	28327.50
505.01	28603.69
505.18	28842.42
505.36	29022.64
505.53	28755.82
505.71	28945.41
505.88	28723.05
506.06	29015.62
506.23	29050.73
506.41	29539.90
506.58	29284.78
506.76	29656.93
506.93	29420.53
507.11	29355.00
507.28	29530.54
507.46	29947.15
507.63	29778.64
507.81	30094.61
507.98	29883.96
508.16	30188.23
508.33	30284.19
508.50	30307.60
508.68	30115.67
508.85	30951.24
509.03	30881.03
509.20	30876.35
509.38	30604.84
509.55	31030.82
509.73	31150.19
509.90	31138.49
510.08	31276.58
510.25	30932.52
510.42	31056.57
510.60	31307.01
510.77	31868.73
510.95	31566.81
511.12	31136.15
511.30	31391.26
511.47	31672.13
511.64	31871.07
511.82	32453.87
511.99	32070.02
512.17	32025.55
512.34	32147.26
512.51	32290.03
512.69	32678.56
512.86	32811.97
513.04	32498.34
513.21	32760.48
513.38	33022.62
513.56	32957.08
513.73	32842.40
513.90	33008.58
514.08	32917.29
514.25	33434.55
514.43	33406.47
514.60	33472.00
514.77	33333.91
514.95	33354.97
515.12	33362.00
515.29	33483.70
515.47	34003.30
515.64	34174.16
515.81	33998.62
515.99	33755.21
516.16	34565.03
516.33	34169.48
516.51	34237.36
516.68	34263.10
516.85	33993.94
517.03	34209.27
517.20	34529.92
517.37	34527.58
517.54	34628.23
517.72	34471.41
517.89	34314.59
518.06	34869.30
518.24	34782.70
518.41	34969.94
518.58	35306.98
518.75	35131.44
518.93	35512.95
519.10	34955.90
519.27	35913.18
519.45	35328.05
519.62	35309.32
519.79	35728.28
519.96	35501.25
520.14	35849.99
520.31	35775.09
520.48	35789.13
520.65	36013.82
520.83	36320.43
521.00	36205.75
521.17	36287.67
521.34	36177.66
521.52	36044.25
521.69	36446.82
521.86	36477.25
522.03	36769.82
522.20	36617.68
522.38	36933.65
522.55	36680.88
522.72	37015.57
522.89	36559.17
523.07	37141.96
523.24	36783.86
523.41	37385.38
523.58	36746.41
523.75	37546.87
523.92	37083.45
524.10	37118.56
524.27	37619.43
524.44	37701.35
524.61	38099.24
524.78	37972.85
524.96	37855.82
525.13	37926.04
525.30	37900.29
525.47	38024.34
525.64	37364.31
525.81	37928.38
525.98	38132.01
526.16	38513.52
526.33	38099.24
526.50	38560.33
526.67	38309.89
526.84	38230.31
527.01	37961.15
527.18	38532.24
527.36	39023.75
527.53	38656.29
527.70	38885.66
527.87	38691.40
528.04	38998.01
528.21	38813.10
528.38	38773.31
528.55	39000.35
528.72	39164.18
528.89	39185.25
529.07	38960.56
529.24	39051.84
529.41	39075.24
529.58	38876.30
529.75	39526.97
529.92	39550.37
530.09	39604.20
530.26	39508.24
530.43	40325.09
530.60	39550.37
530.77	39938.90
530.94	39880.39
531.11	39386.54
531.28	39779.74
531.46	39770.38
531.63	39997.41
531.80	39613.57
531.97	40184.66
532.14	40247.85
532.31	40158.91
532.48	40547.44
532.65	39833.58
532.82	40002.10
532.99	40187.00
533.16	40421.05
533.33	40385.94
533.50	40959.38
533.67	40914.90
533.84	40107.42
534.01	40678.51
534.18	40142.53
534.35	40746.39
534.52	40727.66
534.69	41132.57
534.86	41375.99
535.03	40921.93
535.20	41219.17
535.37	40832.99
535.54	41422.80
535.71	40612.98
535.88	41118.53
536.05	41268.33
536.22	41687.28
536.38	41532.81
536.55	41462.59
536.72	41874.52
536.89	41017.89
537.06	41563.23
537.23	42040.70
537.40	41645.15
537.57	41680.26
537.74	41120.87
537.91	41642.81
538.08	42291.14
538.25	41773.88
538.42	41893.25
538.59	42029.00
538.75	41546.85
538.92	42085.17
539.09	42431.57
539.26	42429.23
539.43	42005.59
539.60	42384.76
539.77	42234.97
539.94	42351.99
540.11	42148.37
540.28	42227.95
540.44	42450.30
540.61	42284.12
540.78	42848.19
540.95	42518.17
541.12	42440.93
541.29	42380.08
541.46	42745.20
541.62	42515.83
541.79	42490.09
541.96	42555.62
542.13	42555.62
542.30	42969.90
542.47	43433.32
542.63	43419.28
542.80	43030.75
542.97	43548.01
543.14	43185.22
543.31	43353.74
543.48	43742.27
543.64	43587.80
543.81	43749.29
543.98	43817.17
544.15	43779.72
544.32	43512.90
544.48	44093.35
544.65	43908.45
544.82	43325.66
544.99	43709.50
545.16	43990.37
545.32	44128.46
545.49	43964.62
545.66	44287.62
545.83	44287.62
546.00	44589.55
546.16	43978.67
546.33	43615.88
546.50	43871.00
546.67	44119.10
546.83	43985.69
547.00	44418.69
547.17	44343.79
547.34	44336.77
547.50	44325.07
547.67	44835.30
547.84	44470.18
548.00	44229.10
548.17	44734.66
548.34	44385.92
548.51	44765.09
548.67	44879.77
548.84	45282.34
549.01	44556.78
549.18	45001.48
549.34	44725.30
549.51	44701.89
549.68	44748.70
549.84	44926.58
550.01	45099.78
550.18	44964.03
550.34	45088.08
550.51	44992.12
550.68	44816.58
550.84	45244.90
551.01	45202.77
551.18	44973.39
551.34	44641.04
551.51	44917.22
551.68	45205.11
551.84	45216.81
552.01	45261.28
552.18	45614.70
552.34	44722.96
552.51	45530.44
552.68	45006.16
552.84	44816.58
553.01	45572.57
553.18	45027.23
553.34	45694.28
553.51	45310.43
553.67	45492.99
553.84	46136.64
554.01	45911.95
554.17	45603.00
554.34	45504.70
554.51	45509.38
554.67	45900.25
554.84	45469.59
555.00	45813.65
555.17	46073.45
555.33	46028.98
555.50	45911.95
555.67	45462.57
555.83	45902.59
556.00	45736.41
556.16	46557.94
556.33	45631.08
556.50	45907.27
556.66	46075.79
556.83	45996.21
556.99	46564.96
557.16	46256.01
557.32	46351.97
557.49	46405.80
557.65	45996.21
557.82	46405.80
557.98	46429.21
558.15	46342.61
558.32	46740.50
558.48	46134.30
558.65	46644.54
558.81	46412.82
558.98	46443.25
559.14	46150.68
559.31	46712.41
559.47	46607.09
559.64	46595.38
559.80	46756.88
559.97	46424.53
560.13	46548.57
560.30	46653.90
560.46	46562.62
560.63	46707.73
560.79	46532.19
560.96	46962.85
561.12	46602.41
561.29	46787.31
561.45	46518.15
561.61	46857.52
561.78	46986.25
561.94	46410.48
562.11	46717.09
562.27	46260.69
562.44	46944.12
562.60	46440.91
562.77	46738.16
562.93	47000.30
563.10	46920.72
563.26	46784.97
563.42	47405.21
563.59	46986.25
563.75	47175.84
563.92	47110.30
564.08	46623.47
564.24	46941.78
564.41	47082.22
564.57	46948.81
564.74	47051.79
564.90	46880.93
565.07	47075.19
565.23	47330.31
565.39	46777.95
565.56	47356.06
565.72	46780.29
565.88	47093.92
566.05	46810.71
566.21	46906.68
566.38	46756.88
566.54	46986.25
566.70	47276.48
566.87	47508.19
567.03	46667.94
567.19	47323.29
567.36	46822.42
567.52	46979.23
567.68	47267.12
567.85	46784.97
568.01	47016.68
568.17	47035.41
568.34	47255.42
568.50	47194.56
568.66	47395.85
568.83	47475.43
568.99	47269.46
569.15	47084.56
569.32	47063.49
569.48	46894.97
569.64	47194.56
569.81	47227.33
569.97	47363.08
570.13	47351.38
570.30	47269.46
570.46	47241.37
570.62	47269.46
570.78	47257.76
570.95	47112.64
571.11	47229.67
571.27	46939.44
571.43	46843.48
571.60	47288.18
571.76	47402.87
571.92	47519.90
572.09	47510.53
572.25	47454.36
572.41	47220.31
572.57	47641.60
572.74	47636.92
572.90	47290.52
573.06	47372.44
573.22	47248.39
573.38	47122.01
573.55	47470.75
573.71	47327.97
573.87	47566.71
574.03	47536.28
574.20	47391.17
574.36	47173.50
574.52	47217.97
574.68	47639.26
574.84	47377.12
575.01	47657.99
575.17	47580.75
575.33	47250.74
575.49	47236.69
575.65	47730.54
575.82	47594.79
575.98	47482.45
576.14	47812.46
576.30	47557.35
576.46	47129.03
576.62	47384.15
576.79	47770.33
576.95	47316.27
577.11	47360.74
577.27	47386.49
577.43	47484.79
577.59	47522.24
577.75	47503.51
577.92	46962.85
578.08	46937.10
578.24	47402.87
578.40	47442.66
578.56	47452.02
578.72	47290.52
578.88	47999.71
579.04	47517.56
579.21	47615.86
579.37	47657.99
579.53	47569.05
579.69	47374.78
579.85	47281.16
580.01	47199.24
580.17	47182.86
580.33	47229.67
580.49	47468.40
580.65	47842.89
580.82	47393.51
580.98	47646.29
581.14	47730.54
581.30	47522.24
581.46	47327.97
581.62	47557.35
581.78	47522.24
581.94	47257.76
582.10	47636.92
582.26	47686.07
582.42	47833.53
582.58	47681.39
582.74	47533.94
582.90	47587.77
583.06	47716.50
583.22	47798.42
583.38	47952.90
583.54	48046.52
583.70	47540.96
583.86	47695.44
584.02	47515.22
584.18	47885.02
584.34	47824.17
584.50	47634.58
584.66	47760.97
584.82	47562.03
584.98	47852.25
585.14	47480.11
585.30	47573.73
585.46	47608.84
585.62	47555.00
585.78	47765.65
585.94	47407.55
586.10	47466.06
586.26	47831.19
586.42	47711.82
586.58	47681.39
586.74	47580.75
586.90	47196.90
587.06	47299.89
587.22	47540.96
587.38	47702.46
587.54	47988.00
587.70	47866.30
587.86	48027.79
588.02	47697.78
588.18	48130.78
588.34	47571.39
588.49	47477.77
588.65	47906.08
588.81	47735.23
588.97	47756.29
589.13	47498.83
589.29	47775.02
589.45	47800.76
589.61	48561.44
589.77	48364.83
589.93	47931.83
590.08	47959.92
590.24	47959.92
590.40	48217.38
590.56	48163.54
590.72	47744.59
590.88	47791.40
591.04	48123.75
591.20	48013.75
591.35	48182.27
591.51	48697.19
591.67	48100.35
591.83	47847.57
591.99	48105.03
592.15	47880.34
592.31	48296.95
592.46	47913.11
592.62	47695.44
592.78	47634.58
592.94	48046.52
593.10	47459.04
593.26	48275.89
593.41	48526.33
593.57	47931.83
593.73	48238.44
593.89	48210.35
594.05	48076.94
594.20	47688.42
594.36	47828.85
594.52	47838.21
594.68	47725.86
594.84	47669.69
594.99	48327.38
595.15	47777.36
595.31	48360.15
595.47	48252.48
595.62	48032.47
595.78	48147.16
595.94	47763.31
596.10	48112.05
596.25	47971.62
596.41	48116.73
596.57	47648.63
596.73	48044.18
596.88	47959.92
597.04	47995.03
597.20	48100.35
597.36	48009.07
597.51	48226.74
597.67	47863.96
597.83	47510.53
597.99	48006.73
598.14	47840.55
598.30	47625.22
598.46	47997.37
598.61	48318.02
598.77	48369.51
598.93	48112.05
599.09	47929.49
599.24	48652.72
599.40	48343.77
599.56	48158.86
599.71	47929.49
599.87	48116.73
600.03	47973.96
600.18	48144.82
600.34	48009.07
600.50	48039.50
600.65	47681.39
600.81	48013.75
600.97	48179.93
601.12	48189.29
601.28	48055.88
601.44	48074.60
601.59	47819.49
601.75	48067.58
601.91	48362.49
602.06	48172.91
602.22	48322.70
602.37	47786.72
602.53	48060.56
602.69	48126.10
602.84	47945.87
603.00	47931.83
603.16	48334.40
603.31	48259.51
603.47	47704.80
603.62	47611.18
603.78	47945.87
603.94	47824.17
604.09	47805.44
604.25	47980.98
604.40	47721.18
604.56	48009.07
604.71	48219.72
604.87	47821.83
605.03	48004.39
605.18	47866.30
605.34	48069.92
605.49	47482.45
605.65	48140.14
605.80	47384.15
605.96	48039.50
606.12	47688.42
606.27	47964.60
606.43	47990.34
606.58	48130.78
606.74	48006.73
606.89	47819.49
607.05	48046.52
607.20	47861.61
607.36	47449.68
607.51	47817.14
607.67	47501.17
607.82	47515.22
607.98	47276.48
608.13	48025.45
608.29	47611.18
608.44	47716.50
608.60	47571.39
608.75	47688.42
608.91	47714.16
609.06	47700.12
609.22	47391.17
609.37	47161.79
609.53	47690.76
609.68	47573.73
609.84	47292.86
609.99	47194.56
610.15	47372.44
610.30	47253.08
610.46	47196.90
610.61	47597.13
610.76	47360.74
610.92	47524.58
611.07	46981.57
611.23	47075.19
611.38	47306.91
611.54	47044.77
611.69	47192.22
611.84	47140.73
612.00	46944.12
612.15	47030.72
612.31	47695.44
612.46	47346.70
612.62	47445.00
612.77	47035.41
612.92	47215.63
613.08	47189.88
613.23	47030.72
613.39	46897.31
613.54	46637.51
613.69	46803.69
613.85	46866.89
614.00	46948.81
614.15	47227.33
614.31	47037.75
614.46	47166.48
614.62	47058.81
614.77	46890.29
614.92	46820.08
615.08	47098.60
615.23	46937.10
615.38	46937.10
615.54	46167.07
615.69	46583.68
615.84	46796.67
616.00	46529.85
616.15	46337.93
616.30	46981.57
616.46	46707.73
616.61	46738.16
616.76	46829.44
616.92	46696.03
617.07	46665.60
617.22	46363.67
617.37	46141.32
617.53	46440.91
617.68	46473.68
617.83	46450.27
617.99	46890.29
618.14	47126.69
618.29	46464.32
618.45	46574.32
618.60	46412.82
618.75	46153.02
618.90	46045.36
619.06	45937.69
619.21	46258.35
619.36	46340.27
619.51	45947.06
619.67	46071.10
619.82	45921.31
619.97	45769.18
620.12	46021.95
620.28	45916.63
620.43	46651.56
620.58	46260.69
620.73	45970.46
620.89	45970.46
621.04	46527.51
621.19	46199.83
621.34	45844.07
621.49	45930.67
621.65	45579.59
621.80	46045.36
621.95	45708.32
622.10	45949.40
622.25	45839.39
622.41	45830.03
622.56	45638.11
622.71	45794.92
622.86	45827.69
623.01	45755.13
623.16	45436.82
623.32	45605.34
623.47	45368.94
623.62	45535.12
623.77	45043.61
623.92	45102.12
624.07	45593.64
624.23	45422.78
624.38	45319.79
624.53	45492.99
624.68	45827.69
624.83	45230.85
624.98	46012.59
625.13	45504.70
625.29	45537.46
625.44	45523.42
625.59	45371.28
625.74	45326.81
625.89	44535.71
626.04	44734.66
626.19	44879.77
626.34	45265.96
626.49	44947.65
626.65	44996.80
626.80	45202.77
626.95	44765.09
627.10	45242.56
627.25	44933.60
627.40	44622.31
627.55	44701.89
627.70	44559.12
627.85	44498.26
628.00	44657.42
628.15	44465.50
628.30	44697.21
628.45	44942.97
628.60	44346.13
628.76	44779.13
628.91	44985.10
629.06	44643.38
629.21	44404.64
629.36	44137.82
629.51	44596.57
629.66	44807.22
629.81	44079.31
629.96	44135.48
630.11	44163.57
630.26	44722.96
630.41	43875.68
630.56	44516.99
630.71	44137.82
630.86	44502.95
631.01	44418.69
631.16	44278.25
631.31	44327.41
631.46	43863.98
631.61	43910.79
631.76	44245.49
631.91	43915.47
632.06	44236.12
632.21	43854.62
632.36	43983.35
632.51	43915.47
632.66	44123.78
632.81	43480.13
632.96	43503.54
633.10	43845.26
633.25	44048.88
633.40	43983.35
633.55	43833.55
633.70	43564.39
633.85	43524.60
634.00	43695.46
634.15	43599.50
634.30	43791.42
634.45	43800.79
634.60	43718.87
634.75	43606.52
634.90	43662.69
635.05	43400.55
635.19	43452.05
635.34	43950.58
635.49	43585.46
635.64	43463.75
635.79	43337.36
635.94	43213.31
636.09	43365.45
636.24	43335.02
636.39	43335.02
636.53	43201.61
636.68	42883.30
636.83	42859.89
636.98	43234.38
637.13	43105.65
637.28	43049.47
637.43	42857.55
637.57	43257.78
637.72	42841.17
637.87	42974.58
638.02	43136.07
638.17	43051.81
638.32	42911.38
638.46	42829.46
638.61	42885.64
638.76	42717.12
638.91	42937.13
639.06	42801.38
639.20	42731.16
639.35	43285.87
639.50	43023.73
639.65	43040.11
639.80	42892.66
639.94	42462.00
640.09	42536.90
640.24	42445.62
640.39	42387.10
640.54	42515.83
640.68	42127.30
640.83	42469.02
640.98	42284.12
641.13	41804.31
641.27	43096.28
641.42	41970.49
641.57	42227.95
641.72	42380.08
641.86	42450.30
642.01	42176.45
642.16	42366.04
642.31	41790.27
642.45	42213.90
642.60	41816.01
642.75	42190.50
642.90	41783.24
643.04	41633.45
643.19	41975.17
643.34	41977.51
643.48	42253.69
643.63	42312.20
643.78	42101.56
643.93	42204.54
644.07	41867.50
644.22	41565.57
644.37	42050.06
644.51	42291.14
644.66	41588.98
644.81	41596.00
644.95	41769.20
645.10	41977.51
645.25	41984.53
645.39	41446.21
645.54	41717.71
645.69	41757.50
645.83	42162.41
645.98	42220.92
646.13	41881.55
646.27	41801.97
646.42	41244.92
646.57	41429.82
646.71	41542.17
646.86	41411.10
647.00	41490.68
647.15	41420.46
647.30	41469.61
647.44	41312.80
647.59	41296.41
647.74	40926.61
647.88	41385.35
648.03	41296.41
648.17	41628.77
648.32	41453.23
648.47	41184.07
648.61	41118.53
648.76	41399.40
648.90	41429.82
649.05	40811.92
649.20	40517.01
649.34	41109.17
649.49	41172.36
649.63	40755.75
649.78	40582.55
649.92	41069.38
650.07	41258.96
650.21	41017.89
650.36	41099.81
650.51	40435.10
650.65	41057.68
650.80	41205.13
650.94	40865.75
651.09	40509.99
651.23	40671.49
651.38	40662.13
651.52	40418.71
651.67	40535.74
651.81	40498.29
651.96	40402.33
652.10	40896.18
652.25	41031.93
652.39	40692.55
652.54	40872.78
652.68	40493.61
652.83	40552.12
652.97	40671.49
653.12	40282.96
653.26	40360.20
653.41	40357.86
653.55	40322.75
653.70	39934.22
653.84	39885.07
653.99	40250.19
654.13	39927.20
654.27	39845.28
654.42	39943.58
654.56	40170.61
654.71	40432.75
654.85	40144.87
655.00	40306.37
655.14	39985.71
655.29	39922.52
655.43	39959.97
655.57	39887.41
655.72	40013.80
655.86	40133.17
656.01	39709.53
656.15	39290.57
656.30	40002.10
656.44	39868.69
656.58	39660.38
656.73	39569.10
656.87	39608.89
657.01	39620.59
657.16	39718.89
657.30	39838.26
657.45	39746.98
657.59	39636.97
657.73	39433.35
657.88	39297.59
658.02	39374.83
658.16	39208.65
658.31	39021.41
658.45	39524.63
658.60	39440.37
658.74	39119.71
658.88	39496.54
659.03	39108.01
659.17	39105.67
659.31	39398.24
659.46	39054.18
659.60	39295.25
659.74	39269.51
659.89	38857.57
660.03	39241.42
660.17	39037.80
660.32	39019.07
660.46	38394.15
660.60	38808.42
660.74	38958.22
660.89	38412.87
661.03	38588.41
661.17	38590.75
661.32	38169.46
661.46	38223.29
661.60	37844.12
661.74	38525.22
661.89	38731.18
662.03	38073.49
662.17	38286.48
662.31	38220.95
662.46	38127.33
662.60	37696.67
662.74	38089.88
662.88	37954.13
663.03	37942.42
663.17	38031.36
663.31	37268.35
663.45	37504.74
663.60	37656.88
663.74	37638.15
663.88	37874.55
664.02	37738.80
664.17	37907.32
664.31	37289.42
664.45	37361.97
664.59	37333.89
664.73	37553.90
664.88	37102.17
665.02	37174.73
665.16	37406.44
665.30	36928.97
665.44	36793.22
665.59	36603.64
665.73	36760.45
665.87	36723.01
666.01	36629.38
666.15	36788.54
666.29	36896.20
666.44	37153.66
666.58	36905.57
666.72	37029.62
666.86	36622.36
667.00	37202.82
667.14	36627.04
667.28	36383.63
667.43	36315.75
667.57	36411.71
667.71	35824.24
667.85	36126.17
667.99	36006.80
668.13	36180.00
668.27	36294.69
668.41	36161.28
668.56	35873.39
668.70	35983.40
668.84	35992.76
668.98	35679.13
669.12	35826.58
669.26	35899.14
669.40	35875.73
669.54	35690.83
669.68	35704.87
669.82	35615.93
669.96	35529.33
670.10	35248.47
670.25	35372.52
670.39	35585.50
670.53	35274.21
670.67	35000.37
670.81	35138.46
670.95	35009.73
671.09	34843.56
671.23	35012.07
671.37	35473.16
671.51	35463.80
671.65	35026.12
671.79	34710.14
671.93	34600.14
672.07	34490.13
672.21	34696.10
672.35	34073.52
672.49	34085.22
672.63	33944.79
672.77	34127.35
672.91	34160.12
673.05	34125.01
673.19	33867.55
673.33	34218.63
673.47	33916.70
673.61	34120.33
673.75	34110.97
673.89	34047.77
674.03	33605.41
674.17	33251.99
674.31	33380.72
674.45	33474.34
674.59	33085.81
674.73	33076.45
674.87	32776.86
675.01	32851.76
675.15	33036.66
675.29	32783.88
675.43	33006.23
675.56	33118.58
675.70	32762.82
675.84	32903.25
675.98	32086.40
676.12	32601.32
676.26	32849.42
676.40	32451.53
676.54	32194.07
676.68	31892.14
676.82	31798.52
676.96	31896.82
677.10	31810.22
677.23	31295.30
677.37	31730.64
677.51	31508.29
677.65	31449.78
677.79	31543.40
677.93	31026.14
678.07	31178.28
678.21	31234.45
678.34	31061.25
678.48	31049.55
678.62	30855.28
678.76	30988.69
678.90	30705.49
679.04	30576.76
679.18	30883.37
679.31	30298.23
679.45	30316.96
679.59	30466.75
679.73	29886.30
679.87	30024.39
680.00	30167.16
680.14	29757.57
680.28	29652.25
680.42	29872.26
680.56	29813.74
680.70	29591.39
680.83	30066.52
680.97	29296.49
681.11	29682.67
681.25	29713.10
681.39	29642.88
681.52	29125.63
681.66	28929.02
681.80	28709.01
681.94	28690.29
682.07	29078.82
682.21	28650.50
682.35	28334.53
682.49	28320.48
682.62	28339.21
682.76	28414.10
682.90	28348.57
683.04	28348.57
683.17	28353.25
683.31	28247.93
683.45	27744.71
683.59	27931.95
683.72	27740.03
683.86	27562.15
684.00	27770.46
684.13	27297.67
684.27	27058.93
684.41	27204.05
684.55	27096.38
684.68	26960.63
684.82	26953.61
684.96	26895.10
685.09	26661.04
685.23	26621.25
685.37	26611.89
685.50	26396.56
685.64	26724.24
685.78	26450.39
685.91	26384.86
686.05	26157.83
686.19	26265.49
686.32	26485.50
686.46	25928.45
686.60	25832.49
686.73	25579.71
686.87	25153.74
687.01	25570.35
687.14	25270.76
687.28	25245.02
687.42	25235.66
687.55	25167.78
687.69	25315.23
687.82	24893.94
687.96	25238.00
688.10	25083.52
688.23	25064.80
688.37	24884.58
688.50	24837.76
688.64	24779.25
688.78	24657.54
688.91	24467.96
689.05	24386.04
689.18	24308.80
689.32	23978.79
689.46	24177.73
689.59	24086.45
689.73	24290.08
689.86	24072.41
690.00	23571.54
690.13	23744.73
690.27	23592.60
690.41	23613.66
690.54	23613.66
690.68	23447.49
690.81	23524.72
690.95	23620.69
691.08	23630.05
691.22	23363.23
691.35	22792.14
691.49	23295.35
691.62	22747.67
691.76	22955.97
691.89	22265.52
692.03	22242.11
692.16	22134.45
692.30	22391.91
692.43	22221.05
692.57	22092.32
692.70	22101.68
692.84	21905.07
692.97	22043.17
693.11	22361.48
693.24	21977.63
693.38	21748.26
693.51	21685.06
693.65	21748.26
693.78	21748.26
693.92	21376.11
694.05	21167.80
694.19	21071.84
694.32	20900.98
694.45	20861.19
694.59	20650.55
694.72	20692.68
694.86	20418.83
694.99	20900.98
695.13	20486.71
695.26	20599.05
695.39	20425.86
695.53	20517.14
695.66	20435.22
695.80	20350.96
695.93	20451.60
696.07	20224.57
696.20	20180.10
696.33	20187.12
696.47	19833.70
696.60	19880.51
696.73	19531.77
696.87	19360.91
697.00	19461.55
697.14	19147.92
697.27	19215.80
697.40	19192.39
697.54	19243.88
697.67	18932.59
697.80	18967.70
697.94	18820.25
698.07	18785.14
698.21	18764.07
698.34	19051.96
698.47	19021.53
698.61	18539.38
698.74	18546.40
698.87	18370.86
699.01	18429.38
699.14	18317.03
699.27	18162.56
699.40	17926.16
699.54	17935.53
699.67	18010.42
699.80	17731.90
699.94	17479.12
700.07	17759.98
700.20	17429.97
700.34	17355.07
700.47	17343.37
700.60	17312.94
700.73	17397.20
700.87	17451.03
701.00	17266.13
701.13	17319.96
701.26	16980.59
701.40	17270.81
701.53	17060.16
701.66	17015.69
701.79	16788.66
701.93	16678.66
702.06	16449.28
702.19	16744.19
702.32	16390.77
702.46	16297.15
702.59	16058.42
702.72	16156.72
702.85	15864.15
702.99	15880.53
703.12	16168.42
703.25	15880.53
703.38	16004.58
703.51	16049.05
703.65	15641.80
703.78	15761.17
703.91	15807.98
704.04	15896.92
704.17	15405.41
704.31	15508.39
704.44	15323.49
704.57	15374.98
704.70	15337.53
704.83	14977.09
704.96	14822.61
705.10	14850.70
705.23	14867.08
>>>>>End Processed Spectral Data<<<<<
