SpectraSuite Data File
++++++++++++++++++++++++++++++++++++
Date: Fri Oct 04 11:48:25 GMT-05:00 2013
User: price-jones
Dark Spectrum Present: No
Reference Spectrum Present: No
Number of Sampled Component Spectra: 1
Spectrometers: USB2+H05261
Integration Time (usec): 100000 (USB2+H05261)
Spectra Averaged: 1 (USB2+H05261)
Boxcar Smoothing: 0 (USB2+H05261)
Correct for Electrical Dark: No (USB2+H05261)
Strobe/Lamp Enabled: No (USB2+H05261)
Correct for Detector Non-linearity: No (USB2+H05261)
Correct for Stray Light: No (USB2+H05261)
Number of Pixels in Processed Spectrum: 2048
>>>>>Begin Processed Spectral Data<<<<<
365.73	25.75
365.92	25.75
366.12	25.75
366.32	0.00
366.52	0.00
366.72	0.00
366.91	0.00
367.11	0.00
367.31	0.00
367.51	0.00
367.70	0.00
367.90	0.00
368.10	0.00
368.30	0.00
368.49	0.00
368.69	0.00
368.89	0.00
369.09	0.00
369.28	0.00
369.48	0.00
369.68	0.00
369.87	0.00
370.07	0.00
370.27	0.00
370.47	37.45
370.66	236.39
370.86	346.40
371.06	294.91
371.25	330.02
371.45	325.33
371.65	390.87
371.84	344.06
372.04	301.93
372.24	383.85
372.44	334.70
372.63	292.57
372.83	374.49
373.03	348.74
373.22	318.31
373.42	376.83
373.62	351.08
373.81	330.02
374.01	402.57
374.21	393.21
374.40	407.25
374.60	404.91
374.79	388.53
374.99	440.02
375.19	454.06
375.38	367.46
375.58	325.33
375.78	472.79
375.97	414.27
376.17	491.51
376.37	428.32
376.56	395.55
376.76	433.00
376.95	421.30
377.15	414.27
377.35	400.23
377.54	409.59
377.74	367.46
377.93	416.62
378.13	435.34
378.33	493.85
378.52	554.71
378.72	435.34
378.91	533.64
379.11	461.09
379.31	372.15
379.50	482.15
379.70	463.43
379.89	472.79
380.09	423.64
380.28	447.04
380.48	517.26
380.68	454.06
380.87	500.87
381.07	517.26
381.26	524.28
381.46	533.64
381.65	503.22
381.85	458.74
382.04	435.34
382.24	521.94
382.43	524.28
382.63	510.24
382.83	491.51
383.02	606.20
383.22	676.41
383.41	545.34
383.61	566.41
383.80	543.00
384.00	636.63
384.19	545.34
384.39	554.71
384.58	610.88
384.78	617.90
384.97	557.05
385.17	692.80
385.36	596.84
385.56	622.58
385.75	512.58
385.95	603.86
386.14	653.01
386.34	550.03
386.53	617.90
386.72	631.94
386.92	587.47
387.11	620.24
387.31	685.78
387.50	627.26
387.70	636.63
387.89	629.60
388.09	636.63
388.28	692.80
388.48	674.07
388.67	695.14
388.86	664.71
389.06	704.50
389.25	802.80
389.45	758.33
389.64	648.33
389.84	826.21
390.03	737.27
390.22	655.35
390.42	774.72
390.61	744.29
390.81	648.33
391.00	800.46
391.19	716.20
391.39	828.55
391.58	767.70
391.78	805.14
391.97	840.25
392.16	732.59
392.36	767.70
392.55	748.97
392.75	894.08
392.94	870.68
393.13	851.96
393.33	781.74
393.52	805.14
393.71	800.46
393.91	903.45
394.10	793.44
394.29	882.38
394.49	873.02
394.68	866.00
394.88	875.36
395.07	882.38
395.26	917.49
395.46	889.40
395.65	973.66
395.84	1036.86
396.04	1067.28
396.23	987.71
396.42	1029.84
396.62	1057.92
396.81	978.34
397.00	992.39
397.19	1008.77
397.39	908.13
397.58	1022.81
397.77	938.55
397.97	983.02
398.16	997.07
398.35	1032.18
398.55	1116.44
398.74	1025.15
398.93	1076.65
399.12	1137.50
399.32	1057.92
399.51	1041.54
399.70	1125.80
399.90	1048.56
400.09	1242.82
400.28	1198.35
400.47	1233.46
400.67	1299.00
400.86	1160.91
401.05	1163.25
401.24	1158.57
401.44	1249.85
401.63	1317.72
401.82	1273.25
402.01	1200.69
402.21	1282.61
402.40	1259.21
402.59	1240.48
402.78	1364.53
402.97	1303.68
403.17	1254.53
403.36	1277.93
403.55	1336.45
403.74	1385.60
403.93	1453.47
404.13	1423.05
404.32	1390.28
404.51	1465.18
404.70	1458.15
404.89	1472.20
405.09	1509.65
405.28	1516.67
405.47	1479.22
405.66	1430.07
405.85	1479.22
406.05	1519.01
406.24	1593.90
406.43	1610.29
406.62	1661.78
406.81	1657.10
407.00	1722.63
407.20	1666.46
407.39	1694.55
407.58	1675.82
407.77	1724.97
407.96	1703.91
408.15	1703.91
408.34	1687.53
408.54	1696.89
408.73	1678.16
408.92	1799.87
409.11	1792.85
409.30	1813.92
409.49	1792.85
409.68	1746.04
409.87	1762.42
410.07	1813.92
410.26	1863.07
410.45	1830.30
410.64	1940.30
410.83	1942.64
411.02	1909.88
411.21	1989.46
411.40	1994.14
411.59	2069.03
411.78	1935.62
411.98	1942.64
412.17	2024.56
412.36	2097.12
412.55	2125.21
412.74	2141.59
412.93	2204.78
413.12	2132.23
413.31	2377.98
413.50	2136.91
413.69	2305.43
413.88	2370.96
414.07	2195.42
414.26	2246.91
414.45	2307.77
414.64	2436.50
414.83	2466.92
415.02	2399.05
415.22	2544.16
415.41	2588.63
415.60	2546.50
415.79	2492.67
415.98	2443.52
416.17	2502.03
416.36	2602.68
416.55	2619.06
416.74	2614.38
416.93	2640.12
417.12	2757.15
417.31	2686.94
417.50	2766.51
417.69	2902.26
417.88	2752.47
418.07	2754.81
418.26	2822.69
418.45	2782.90
418.64	2862.48
418.83	2958.44
419.02	2832.05
419.21	2972.48
419.39	2951.42
419.58	2818.00
419.77	2878.86
419.96	2895.24
420.15	2846.09
420.34	3035.67
420.53	2944.39
420.72	2995.89
420.91	3040.36
421.10	3089.51
421.29	3218.24
421.48	3068.44
421.67	3255.69
421.86	3033.33
422.05	3023.97
422.24	3180.79
422.43	3164.40
422.61	3272.07
422.80	3276.75
422.99	3283.77
423.18	3148.02
423.37	3194.83
423.56	3222.92
423.75	3229.94
423.94	3052.06
424.13	3019.29
424.32	3173.77
424.50	3393.78
424.69	3297.81
424.88	3386.76
425.07	3173.77
425.26	3171.43
425.45	3131.64
425.64	3218.24
425.83	3286.11
426.01	3302.50
426.20	3342.28
426.39	3267.39
426.58	3325.90
426.77	3349.31
426.96	3330.58
427.15	3358.67
427.33	3346.97
427.52	3321.22
427.71	3384.41
427.90	3375.05
428.09	3471.01
428.28	3452.29
428.46	3370.37
428.65	3597.40
428.84	3503.78
429.03	3662.94
429.22	3452.29
429.40	3623.15
429.59	3630.17
429.78	3384.41
429.97	3445.27
430.16	3515.48
430.34	3583.36
430.53	3616.13
430.72	3761.24
430.91	3613.79
431.10	3662.94
431.28	3648.90
431.47	3772.94
431.66	3843.16
431.85	3747.20
432.03	3810.39
432.22	3997.64
432.41	3812.73
432.60	3815.07
432.79	3838.48
432.97	3784.65
433.16	3929.76
433.35	3896.99
433.54	3896.99
433.72	3950.82
433.91	3850.18
434.10	3889.97
434.28	4044.45
434.47	4079.55
434.66	4114.66
434.85	4138.07
435.03	4121.68
435.22	4154.45
435.41	4252.75
435.59	4091.26
435.78	4156.79
435.97	4266.80
436.16	4250.41
436.34	4259.78
436.53	4203.60
436.72	4428.29
436.90	4201.26
437.09	4418.93
437.28	4236.37
437.46	4393.19
437.65	4533.62
437.84	4535.96
438.02	4437.66
438.21	4545.32
438.40	4367.44
438.58	4578.09
438.77	4594.47
438.96	4540.64
439.14	4709.16
439.33	4638.94
439.52	4540.64
439.70	4681.07
439.89	4812.14
440.08	4725.54
440.26	4868.31
440.45	4805.12
440.63	4908.10
440.82	4816.82
441.01	4702.14
441.19	4924.49
441.38	4952.57
441.57	5029.81
441.75	5029.81
441.94	5261.52
442.12	5210.03
442.31	5217.05
442.50	5247.48
442.68	5298.97
442.87	5320.04
443.05	5238.12
443.24	5444.09
443.43	5305.99
443.61	5378.55
443.80	5460.47
443.98	5291.95
444.17	5160.88
444.35	5341.10
444.54	5495.58
444.73	5413.66
444.91	5558.77
445.10	5387.91
445.28	5401.96
445.47	5486.22
445.65	5465.15
445.84	5338.76
446.02	5591.54
446.21	5437.06
446.39	5401.96
446.58	5397.28
446.77	5465.15
446.95	5371.53
447.14	5282.59
447.32	5598.56
447.51	5458.13
447.69	5554.09
447.88	5589.20
448.06	5605.58
448.25	5549.41
448.43	5582.18
448.62	5769.42
448.80	5579.84
448.99	5715.59
449.17	5870.06
449.36	5575.16
449.54	5715.59
449.73	5760.06
449.91	5935.60
450.10	5841.98
450.28	5820.91
450.46	5785.80
450.65	5998.79
450.83	5930.92
451.02	5937.94
451.20	6064.33
451.39	6012.84
451.57	5856.02
451.76	5874.74
451.94	5961.34
452.13	6223.48
452.31	6066.67
452.49	5947.30
452.68	6200.08
452.86	6064.33
453.05	6204.76
453.23	6146.25
453.42	5956.66
453.60	6136.88
453.78	6225.82
453.97	6207.10
454.15	6324.13
454.34	6167.31
454.52	6303.06
454.70	6277.32
454.89	6375.62
455.07	6366.26
455.26	6340.51
455.44	6490.31
455.62	6457.54
455.81	6349.87
455.99	6410.73
456.17	6614.35
456.36	6534.78
456.54	6722.02
456.73	6593.29
456.91	6820.32
457.09	6796.92
457.28	6787.55
457.46	6705.63
457.64	6743.08
457.83	6827.34
458.01	6588.61
458.19	6878.83
458.38	6871.81
458.56	6869.47
458.74	6932.67
458.93	6942.03
459.11	6787.55
459.29	7084.80
459.48	6920.96
459.66	7098.84
459.84	6949.05
460.03	7288.43
460.21	6878.83
460.39	7098.84
460.57	7194.81
460.76	7454.61
460.94	7206.51
461.12	7110.55
461.31	7201.83
461.49	7258.00
461.67	7178.42
461.85	7426.52
462.04	7405.46
462.22	8065.49
462.40	7400.77
462.59	7573.97
462.77	7398.43
462.95	7536.52
463.13	7368.01
463.32	7386.73
463.50	7573.97
463.68	7573.97
463.86	7714.41
464.05	7536.52
464.23	7791.64
464.41	7728.45
464.59	7412.48
464.78	7653.55
464.96	7655.89
465.14	7730.79
465.32	7962.50
465.50	8035.06
465.69	7768.24
465.87	7852.50
466.05	7775.26
466.23	7808.03
466.41	7878.24
466.60	8016.33
466.78	8051.44
466.96	7840.79
467.14	7920.37
467.32	7854.84
467.51	8116.98
467.69	7765.90
467.87	7953.14
468.05	8142.72
468.23	8107.62
468.41	8116.98
468.60	8194.22
468.78	8271.45
468.96	8091.23
469.14	8276.13
469.32	8170.81
469.50	7901.65
469.69	8201.24
469.87	8465.72
470.05	8311.24
470.23	8381.46
470.41	8351.03
470.59	8299.54
470.77	8360.39
470.95	8393.16
471.14	8798.07
471.32	8580.40
471.50	8959.57
471.68	8753.60
471.86	8959.57
472.04	8769.99
472.22	8982.98
472.40	8835.52
472.58	9013.40
472.77	9043.83
472.95	8966.59
473.13	9338.74
473.31	9097.66
473.49	9210.01
473.67	9322.35
473.85	9092.98
474.03	9357.46
474.21	9338.74
474.39	9540.02
474.57	9521.30
474.75	9486.19
474.93	9671.09
475.12	9556.41
475.30	9596.20
475.48	9624.28
475.66	9708.54
475.84	9884.08
476.02	10008.13
476.20	9757.69
476.38	10136.86
476.56	10136.86
476.74	10188.35
476.92	10197.71
477.10	10099.41
477.28	10317.08
477.46	10373.25
477.64	10434.11
477.82	10560.50
478.00	10630.71
478.18	10714.97
478.36	10813.28
478.54	10981.79
478.72	10813.28
478.90	11187.76
479.08	11377.34
479.26	11241.59
479.44	11538.84
479.62	11396.07
479.80	11730.76
479.98	11527.14
480.16	11693.32
480.34	11639.48
480.52	11630.12
480.70	11829.07
480.88	11726.08
481.06	12123.98
481.24	12095.89
481.41	12276.11
481.59	12372.07
481.77	12463.35
481.95	12697.41
482.13	12695.07
482.31	12638.89
482.49	12842.52
482.67	12985.29
482.85	12999.34
483.03	13296.58
483.21	13174.88
483.39	13434.68
483.57	13540.00
483.74	13310.63
483.92	13642.98
484.10	13633.62
484.28	13710.86
484.46	14246.84
484.64	14347.48
484.82	14045.55
485.00	14195.35
485.18	14485.58
485.35	14850.70
485.53	14480.89
485.71	14464.51
485.89	14820.27
486.07	14719.63
486.25	14890.49
486.43	14934.96
486.61	15119.86
486.78	15377.32
486.96	15520.09
487.14	15576.27
487.32	15910.96
487.50	15686.27
487.68	15669.89
487.85	15822.02
488.03	16217.57
488.21	16585.04
488.39	16678.66
488.57	16641.21
488.75	16655.25
488.92	17050.80
489.10	16957.18
489.28	16973.56
489.46	16985.27
489.64	17029.74
489.81	17558.70
489.99	17628.92
490.17	17734.24
490.35	17818.50
490.53	17785.73
490.70	17977.65
490.88	18197.67
491.06	18340.44
491.24	18345.12
491.41	18597.90
491.59	18794.50
491.77	18335.76
491.95	19124.52
492.13	19070.68
492.30	19131.54
492.48	19286.01
492.66	19049.62
492.84	19124.52
493.01	19749.44
493.19	19751.78
493.37	19782.21
493.54	20205.84
493.72	19840.72
493.90	20009.24
494.08	20037.33
494.25	20357.98
494.43	20542.88
494.61	20390.75
494.79	20798.00
494.96	20390.75
495.14	20938.43
495.32	21018.01
495.49	20863.54
495.67	21429.94
495.85	21612.51
496.02	21378.45
496.20	21659.32
496.38	21539.95
496.55	21783.37
496.73	21961.25
496.91	22024.44
497.09	22305.31
497.26	22204.66
497.44	22162.53
497.62	22457.44
497.79	22494.89
497.97	22621.28
498.14	22787.46
498.32	23175.98
498.50	23335.14
498.67	23080.02
498.85	23271.95
499.03	23248.54
499.20	23480.25
499.38	23398.34
499.56	23810.27
499.73	23978.79
499.91	23737.71
500.08	24070.07
500.26	23613.66
500.44	24086.45
500.61	24109.86
500.79	23742.39
500.97	24531.15
501.14	24828.40
501.32	24589.67
501.49	24486.68
501.67	24486.68
501.84	24732.44
502.02	24971.18
502.20	25156.08
502.37	25486.09
502.55	25242.68
502.72	25174.80
502.90	25125.65
503.07	25235.66
503.25	25572.69
503.43	25223.95
503.60	25687.38
503.78	25668.66
503.95	25514.18
504.13	25699.08
504.30	25617.16
504.48	25830.15
504.65	26134.42
504.83	26377.84
505.01	26265.49
505.18	26279.54
505.36	26658.70
505.53	26499.55
505.71	26572.10
505.88	26932.54
506.06	26562.74
506.23	27077.66
506.41	26443.37
506.58	27131.49
506.76	26689.13
506.93	27033.19
507.11	27007.44
507.28	27285.97
507.46	27056.59
507.63	27405.33
507.81	27880.46
507.98	27091.70
508.16	27728.33
508.33	27908.55
508.50	28439.85
508.68	27948.34
508.85	28519.43
509.03	28158.99
509.20	28519.43
509.38	28301.76
509.55	28444.53
509.73	28861.15
509.90	28554.54
510.08	28636.45
510.25	28788.59
510.42	28587.30
510.60	28753.48
510.77	29177.12
510.95	29113.92
511.12	29076.48
511.30	29032.00
511.47	29146.69
511.64	29060.09
511.82	29422.87
511.99	29343.30
512.17	29965.88
512.34	29682.67
512.51	29872.26
512.69	29986.94
512.86	30190.57
513.04	30288.87
513.21	30087.59
513.38	30089.93
513.56	30419.94
513.73	30361.43
513.90	30532.29
514.08	30071.20
514.25	30761.66
514.43	30291.21
514.60	30696.13
514.77	30913.80
514.95	30576.76
515.12	30543.99
515.29	30553.35
515.47	30930.18
515.64	31159.55
515.81	31180.62
515.99	31318.71
516.16	31737.66
516.33	31101.04
516.51	31555.10
516.68	31302.32
516.85	31505.95
517.03	31721.28
517.20	31948.31
517.37	31639.36
517.54	32006.83
517.72	31974.06
517.89	32130.87
518.06	31721.28
518.24	31929.59
518.41	32205.77
518.58	32388.33
518.75	32219.81
518.93	32280.67
519.10	32128.53
519.27	32617.71
519.45	32680.90
519.62	32526.42
519.79	32584.94
519.96	32762.82
520.14	32753.46
520.31	32559.19
520.48	32905.59
520.65	33043.68
520.83	33319.87
521.00	33050.70
521.17	32964.10
521.34	33146.67
521.52	33296.46
521.69	33560.94
521.86	33577.33
522.03	33827.76
522.20	33979.90
522.38	33757.55
522.55	33769.25
522.72	33792.65
522.89	34295.87
523.07	34026.71
523.24	33766.91
523.41	34635.25
523.58	33851.17
523.75	34403.53
523.92	33785.63
524.10	34209.27
524.27	34363.75
524.44	34899.73
524.61	34831.85
524.78	34686.74
524.96	34384.81
525.13	35222.72
525.30	34845.90
525.47	34944.20
525.64	35306.98
525.81	35110.38
525.98	35211.02
526.16	35405.28
526.33	35187.61
526.50	35501.25
526.67	34998.03
526.84	35173.57
527.01	35552.74
527.18	35859.35
527.36	35637.00
527.53	35730.62
527.70	36058.29
527.87	35765.73
528.04	35674.45
528.21	35690.83
528.38	35849.99
528.55	36257.24
528.72	35739.98
528.89	35679.13
529.07	36081.70
529.24	35873.39
529.41	36601.30
529.58	36460.87
529.75	36357.88
529.92	36479.59
530.09	36503.00
530.26	36091.06
530.43	36666.83
530.60	36128.51
530.77	36570.87
530.94	36685.56
531.11	36460.87
531.28	36715.98
531.46	36589.59
531.63	36886.84
531.80	37422.83
531.97	36982.80
532.14	36884.50
532.31	37053.02
532.48	37090.47
532.65	37144.30
532.82	36732.37
532.99	37057.70
533.16	37067.06
533.33	37371.33
533.50	37684.97
533.67	37163.03
533.84	37141.96
534.01	37205.16
534.18	37471.98
534.35	37539.85
534.52	37638.15
534.69	37497.72
534.86	37792.63
535.03	37912.00
535.20	37879.23
535.37	38361.38
535.54	37958.81
535.71	38108.60
535.88	38113.28
536.05	37741.14
536.22	38209.25
536.38	38597.77
536.55	38349.68
536.72	38153.07
536.89	38134.35
537.06	37605.39
537.23	38518.20
537.40	38562.67
537.57	38508.83
537.74	38593.09
537.91	38806.08
538.08	38639.90
538.25	38752.25
538.42	38677.35
538.59	38859.91
538.75	38396.49
538.92	38459.68
539.09	38796.72
539.26	38817.78
539.43	39014.39
539.60	39131.42
539.77	39000.35
539.94	39302.28
540.11	39105.67
540.28	39321.00
540.44	39335.04
540.61	39426.32
540.78	39040.14
540.95	39079.92
541.12	39311.64
541.29	39379.51
541.46	39489.52
541.62	39395.90
541.79	39824.22
541.96	39452.07
542.13	39421.64
542.30	39409.94
542.47	39864.00
542.63	39957.63
542.80	39814.85
542.97	40004.44
543.14	40589.57
543.31	39934.22
543.48	40055.93
543.64	40542.76
543.81	40620.00
543.98	40236.15
544.15	40662.13
544.32	40610.64
544.48	40898.52
544.65	40690.21
544.82	40650.42
544.99	40442.12
545.16	40641.06
545.32	40128.48
545.49	40980.44
545.66	41074.06
545.83	40961.72
546.00	41118.53
546.16	40676.17
546.33	40788.52
546.50	41008.53
546.67	41160.66
546.83	40458.50
547.00	40935.97
547.17	41099.81
547.34	40879.80
547.50	41130.23
547.67	41656.85
547.84	41277.69
548.00	40961.72
548.17	40940.65
548.34	41118.53
548.51	41525.78
548.67	41944.74
548.84	41518.76
549.01	41659.20
549.18	41329.18
549.34	41411.10
549.51	41509.40
549.68	41394.71
549.84	41603.02
550.01	41708.35
550.18	41811.33
550.34	41310.46
550.51	42087.51
550.68	41839.42
550.84	41806.65
551.01	41844.10
551.18	41675.58
551.34	41523.44
551.51	41710.69
551.68	42333.27
551.84	42033.68
552.01	41357.27
552.18	42204.54
552.34	41415.78
552.51	41855.80
552.68	41787.92
552.84	41816.01
553.01	42043.04
553.18	42190.50
553.34	42501.79
553.51	42408.17
553.67	42447.96
553.84	43002.66
554.01	42660.94
554.17	42560.30
554.34	42721.80
554.51	42487.74
554.67	42478.38
554.84	42232.63
555.00	42731.16
555.17	42740.52
555.33	42682.01
555.50	42464.34
555.67	42621.16
555.83	41996.23
556.00	42307.52
556.16	42623.50
556.33	43040.11
556.50	43030.75
556.66	43030.75
556.83	42925.42
556.99	43133.73
557.16	42895.00
557.32	43234.38
557.49	43360.76
557.65	43000.32
557.82	43037.77
557.98	42967.55
558.15	42920.74
558.32	42988.62
558.48	43370.13
558.65	43246.08
558.81	43356.08
558.98	43573.75
559.14	43328.00
559.31	43447.36
559.47	43084.58
559.64	43122.03
559.80	43445.02
559.97	43482.47
560.13	43232.04
560.30	43304.59
560.46	43215.65
560.63	43283.53
560.79	43461.41
560.96	43456.73
561.12	43360.76
561.29	43634.61
561.45	43442.68
561.61	43100.97
561.78	43709.50
561.94	43587.80
562.11	43566.73
562.27	43845.26
562.44	43564.39
562.60	43782.06
562.77	43667.37
562.93	43828.87
563.10	43777.38
563.26	43423.96
563.42	43648.65
563.59	43608.86
563.75	44474.86
563.92	43517.58
564.08	43255.44
564.24	43817.17
564.41	43536.30
564.57	43536.30
564.74	43484.81
564.90	43655.67
565.07	43648.65
565.23	44121.44
565.39	43789.08
565.56	43964.62
565.72	43395.87
565.88	43768.02
566.05	43718.87
566.21	44399.96
566.38	43880.36
566.54	44034.84
566.70	44112.08
566.87	44219.74
567.03	43934.20
567.19	44549.76
567.36	43838.23
567.52	43952.92
567.68	43793.76
567.85	43632.27
568.01	43866.32
568.17	43847.60
568.34	44060.58
568.50	43887.39
568.66	43995.05
568.83	44575.50
568.99	43452.05
569.15	43910.79
569.32	43910.79
569.48	44322.72
569.64	43817.17
569.81	44287.62
569.97	44158.89
570.13	44172.93
570.30	44348.47
570.46	44521.67
570.62	44278.25
570.78	44240.81
570.95	44299.32
571.11	43957.60
571.27	43917.81
571.43	44095.69
571.60	44596.57
571.76	44154.21
571.92	44533.37
572.09	44659.76
572.25	44362.51
572.41	44266.55
572.57	44055.90
572.74	44594.23
572.90	44037.18
573.06	44268.89
573.22	43962.28
573.38	44149.53
573.55	44470.18
573.71	44549.76
573.87	44051.22
574.03	43934.20
574.20	44074.63
574.36	44304.00
574.52	43978.67
574.68	44301.66
574.84	44186.97
575.01	44577.84
575.17	44240.81
575.33	44144.84
575.49	44404.64
575.65	44587.21
575.82	44540.39
575.98	44074.63
576.14	44790.83
576.30	44341.45
576.46	43988.03
576.62	44069.95
576.79	44540.39
576.95	44098.03
577.11	44449.11
577.27	44175.27
577.43	44289.96
577.59	44418.69
577.75	44863.39
577.92	44109.74
578.08	44266.55
578.24	44198.68
578.40	44624.65
578.56	44643.38
578.72	44790.83
578.88	45029.57
579.04	44697.21
579.21	43962.28
579.37	44680.83
579.53	44397.62
579.69	44699.55
579.85	44355.49
580.01	44385.92
580.17	44177.61
580.33	44315.70
580.49	44575.50
580.65	44610.61
580.82	44418.69
580.98	44563.80
581.14	44816.58
581.30	44865.73
581.46	44112.08
581.62	44648.06
581.78	44069.95
581.94	44619.97
582.10	44404.64
582.26	44495.92
582.42	44545.08
582.58	44734.66
582.74	44935.95
582.90	44839.98
583.06	44935.95
583.22	44844.66
583.38	44210.38
583.54	44432.73
583.70	44217.40
583.86	44598.91
584.02	44289.96
584.18	44968.71
584.34	44629.34
584.50	44671.46
584.66	44823.60
584.82	44304.00
584.98	44699.55
585.14	44568.48
585.30	44095.69
585.46	44322.72
585.62	44327.41
585.78	44596.57
585.94	44292.30
586.10	44601.25
586.26	44563.80
586.42	44610.61
586.58	44451.45
586.74	44107.40
586.90	44507.63
587.06	43817.17
587.22	44802.53
587.38	44477.20
587.54	44425.71
587.70	44973.39
587.86	45165.32
588.02	44612.95
588.18	44626.99
588.34	44701.89
588.49	44554.44
588.65	44877.43
588.81	44732.32
588.97	44619.97
589.13	44746.36
589.29	44619.97
589.45	44795.51
589.61	44832.96
589.77	44957.01
589.93	44949.99
590.08	44989.78
590.24	44725.30
590.40	44830.62
590.56	44994.46
590.72	44711.25
590.88	44402.30
591.04	44711.25
591.20	44828.28
591.35	45015.52
591.51	45148.93
591.67	45071.70
591.83	44701.89
591.99	45085.74
592.15	45057.65
592.31	45010.84
592.46	44954.67
592.62	44774.45
592.78	44584.86
592.94	44790.83
593.10	44832.96
593.26	45326.81
593.41	45064.67
593.57	44835.30
593.73	44645.72
593.89	45158.30
594.05	45144.25
594.20	44292.30
594.36	44870.41
594.52	44692.53
594.68	44854.03
594.84	44519.33
594.99	45322.13
595.15	44898.50
595.31	45125.53
595.47	45144.25
595.62	45132.55
595.78	45167.66
595.94	44847.00
596.10	44809.56
596.25	44835.30
596.41	45006.16
596.57	44699.55
596.73	44861.05
596.88	45024.89
597.04	45078.72
597.20	45373.63
597.36	44933.60
597.51	45003.82
597.67	44917.22
597.83	44430.39
597.99	45336.18
598.14	44713.59
598.30	44706.57
598.46	44751.04
598.61	45111.49
598.77	44872.75
598.93	45350.22
599.09	45336.18
599.24	45312.77
599.40	45237.87
599.56	45184.04
599.71	44825.94
599.87	44715.93
600.03	44947.65
600.18	44940.63
600.34	44648.06
600.50	45352.56
600.65	45352.56
600.81	45478.95
600.97	45446.18
601.12	45689.60
601.28	45209.79
601.44	45254.26
601.59	44706.57
601.75	44636.36
601.91	45162.98
602.06	44547.42
602.22	45195.74
602.37	44729.98
602.53	44760.40
602.69	45160.64
602.84	44626.99
603.00	44994.46
603.16	45170.00
603.31	45015.52
603.47	44690.19
603.62	44900.84
603.78	45317.45
603.94	44521.67
604.09	44879.77
604.25	44577.84
604.40	44655.08
604.56	44891.48
604.71	45036.59
604.87	45027.23
605.03	45027.23
605.18	45031.91
605.34	44755.72
605.49	44306.34
605.65	44748.70
605.80	44378.90
605.96	44502.95
606.12	44994.46
606.27	44847.00
606.43	44582.52
606.58	44484.22
606.74	44994.46
606.89	45165.32
607.05	44910.20
607.20	44793.17
607.36	44423.37
607.51	44390.60
607.67	44861.05
607.82	44938.29
607.98	44467.84
608.13	44671.46
608.29	44933.60
608.44	44451.45
608.60	44678.49
608.75	44547.42
608.91	44638.70
609.06	44348.47
609.22	44879.77
609.37	44254.85
609.53	44456.14
609.68	44493.58
609.84	43945.90
609.99	44273.57
610.15	44559.12
610.30	44418.69
610.46	44186.97
610.61	44289.96
610.76	44683.17
610.92	44545.08
611.07	44444.43
611.23	44163.57
611.38	44027.82
611.54	43831.21
611.69	43669.72
611.84	44191.65
612.00	44641.04
612.15	43676.74
612.31	43880.36
612.46	44516.99
612.62	44561.46
612.77	44289.96
612.92	44067.61
613.08	44098.03
613.23	44165.91
613.39	43997.39
613.54	43721.21
613.69	43873.34
613.85	43723.55
614.00	43753.97
614.15	44105.06
614.31	44191.65
614.46	43934.20
614.62	43917.81
614.77	44154.21
614.92	44512.31
615.08	44030.16
615.23	44172.93
615.38	43739.93
615.54	43281.19
615.69	43910.79
615.84	43510.56
616.00	43863.98
616.15	43187.56
616.30	43545.67
616.46	43782.06
616.61	43751.63
616.76	43536.30
616.92	43372.47
617.07	43676.74
617.22	43395.87
617.37	43597.16
617.53	43955.26
617.68	43433.32
617.83	43494.18
617.99	43210.97
618.14	43346.72
618.29	43501.20
618.45	43119.69
618.60	43131.39
618.75	43323.32
618.90	43028.41
619.06	42965.21
619.21	42476.04
619.36	43075.22
619.51	42623.50
619.67	42635.20
619.82	42782.65
619.97	42806.06
620.12	42981.60
620.28	42593.07
620.43	43356.08
620.58	43452.05
620.73	43318.64
620.89	43189.91
621.04	42740.52
621.19	43316.29
621.34	42770.95
621.49	42794.36
621.65	42740.52
621.80	43093.94
621.95	42754.57
622.10	43196.93
622.25	42660.94
622.41	42726.48
622.56	42447.96
622.71	42789.67
622.86	42513.49
623.01	42930.11
623.16	42799.04
623.32	42361.36
623.47	42857.55
623.62	42483.06
623.77	42513.49
623.92	42356.67
624.07	42347.31
624.23	42169.43
624.38	42368.38
624.53	42209.22
624.68	42677.33
624.83	42389.44
624.98	42506.47
625.13	42206.88
625.29	42450.30
625.44	42401.14
625.59	42101.56
625.74	41612.38
625.89	41834.74
626.04	41553.87
626.19	41668.56
626.34	42213.90
626.49	42061.77
626.65	41455.57
626.80	42000.91
626.95	42309.86
627.10	41680.26
627.25	41656.85
627.40	41825.37
627.55	41834.74
627.70	41603.02
627.85	41731.75
628.00	41443.87
628.15	41703.67
628.30	41663.88
628.45	41755.16
628.60	41429.82
628.76	41420.46
628.91	41701.32
629.06	41780.90
629.21	41741.11
629.36	41364.29
629.51	41160.66
629.66	41151.30
629.81	41013.21
629.96	40945.33
630.11	41490.68
630.26	41467.27
630.41	41605.36
630.56	41170.02
630.71	41228.54
630.86	41312.80
631.01	41060.02
631.16	41125.55
631.31	41062.36
631.46	41050.66
631.61	41249.60
631.76	41109.17
631.91	40884.48
632.06	40561.48
632.21	40540.42
632.36	40767.45
632.51	40744.05
632.66	40722.98
632.81	40903.20
632.96	41249.60
633.10	40470.20
633.25	40931.29
633.40	40245.51
633.55	40435.10
633.70	40074.65
633.85	40657.45
634.00	40498.29
634.15	40631.70
634.30	40437.44
634.45	41109.17
634.60	40559.14
634.75	41053.00
634.90	40561.48
635.05	40868.09
635.19	40362.54
635.34	40678.51
635.49	40191.68
635.64	40624.68
635.79	40748.73
635.94	39599.52
636.09	40327.43
636.24	39931.88
636.39	39981.03
636.53	40315.73
636.68	39746.98
636.83	40182.32
636.98	40158.91
637.13	40062.95
637.28	39856.98
637.43	40121.46
637.57	40278.28
637.72	39976.35
637.87	39854.64
638.02	40128.48
638.17	39810.17
638.32	39620.59
638.46	39456.75
638.61	39473.13
638.76	39477.82
638.91	39510.58
639.06	39892.09
639.20	39959.97
639.35	40053.59
639.50	39470.79
639.65	39782.09
639.80	39854.64
639.94	39615.91
640.09	39281.21
640.24	39180.57
640.39	39412.28
640.54	39229.72
640.68	39971.67
640.83	39243.76
640.98	39571.44
641.13	38941.83
641.27	39674.42
641.42	39763.36
641.57	39442.71
641.72	39208.65
641.86	39309.30
642.01	39304.62
642.16	39082.27
642.31	39426.32
642.45	39449.73
642.60	38483.09
642.75	38803.74
642.90	38663.31
643.04	38749.91
643.19	38857.57
643.34	39089.29
643.48	38691.40
643.63	39402.92
643.78	39122.05
643.93	38930.13
644.07	39030.77
644.22	38925.45
644.37	38876.30
644.51	38742.89
644.66	38408.19
644.81	38382.45
644.95	38749.91
645.10	38604.80
645.25	38724.16
645.39	38787.36
645.54	38806.08
645.69	38869.28
645.83	38906.73
645.98	39154.82
646.13	39016.73
646.27	38934.81
646.42	39000.35
646.57	38433.94
646.71	38089.88
646.86	38684.37
647.00	37944.76
647.15	38157.75
647.30	38370.74
647.44	38195.20
647.59	38462.02
647.74	38082.86
647.88	38347.34
648.03	38031.36
648.17	38387.13
648.32	38352.02
648.47	38071.15
648.61	37874.55
648.76	37846.46
648.90	37975.19
649.05	38038.39
649.20	38225.63
649.34	37919.02
649.49	37549.21
649.63	37839.44
649.78	38213.93
649.92	37879.23
650.07	38389.47
650.21	37977.53
650.36	37935.40
650.51	37729.44
650.65	37958.81
650.80	38061.79
650.94	37806.67
651.09	37324.52
651.23	37202.82
651.38	37558.58
651.52	37310.48
651.67	37483.68
651.81	37296.44
651.96	37661.56
652.10	37600.71
652.25	38129.67
652.39	37748.16
652.54	37551.56
652.68	37516.45
652.83	37558.58
652.97	37682.62
653.12	37357.29
653.26	37291.76
653.41	37083.45
653.55	37390.06
653.70	37385.38
653.84	37048.34
653.99	37443.89
654.13	37207.50
654.27	36849.39
654.42	37064.72
654.56	36844.71
654.71	37340.91
654.85	36870.46
655.00	36751.09
655.14	36779.18
655.29	37031.96
655.43	37090.47
655.57	36945.36
655.72	36266.60
655.86	36713.64
656.01	36407.03
656.15	36205.75
656.30	36767.48
656.44	36687.90
656.58	36437.46
656.73	36353.20
656.87	36617.68
657.01	36507.68
657.16	36737.05
657.30	36694.92
657.45	36203.41
657.59	37031.96
657.73	36100.42
657.88	36217.45
658.02	36257.24
658.16	36629.38
658.31	36495.97
658.45	36172.98
658.60	36374.27
658.74	36144.89
658.88	36077.02
659.03	35718.92
659.17	36151.91
659.31	36142.55
659.46	36020.84
659.60	36077.02
659.74	36032.55
659.89	35791.47
660.03	35711.89
660.17	35807.86
660.32	35723.60
660.46	35950.63
660.60	35723.60
660.74	35255.49
660.89	35594.87
661.03	35290.60
661.17	35388.90
661.32	35592.53
661.46	35501.25
661.60	35510.61
661.74	35285.92
661.89	35093.99
662.03	35323.36
662.17	35426.35
662.31	35276.55
662.46	35323.36
662.60	35152.51
662.74	34923.13
662.88	34651.63
663.03	34609.50
663.17	34892.71
663.31	34373.11
663.45	34682.06
663.60	34696.10
663.74	34448.00
663.88	34742.91
664.02	34539.29
664.17	34834.19
664.31	34803.77
664.45	34558.01
664.59	34239.70
664.73	34242.04
664.88	34473.75
665.02	34125.01
665.16	34333.32
665.30	33965.85
665.44	34436.30
665.59	34075.86
665.73	33989.26
665.87	33752.87
666.01	33647.54
666.15	33858.19
666.29	33532.86
666.44	34033.73
666.58	33993.94
666.72	33912.02
666.86	33827.76
667.00	33759.89
667.14	33504.77
667.28	33572.64
667.43	33191.14
667.57	33287.10
667.71	33113.90
667.85	33188.80
667.99	32872.82
668.13	33179.43
668.27	33132.62
668.41	32952.40
668.56	32673.88
668.70	32575.58
668.84	33046.02
668.98	32683.24
669.12	33001.55
669.26	32528.77
669.40	32933.68
669.54	32320.46
669.68	32332.16
669.82	32278.33
669.96	32886.87
670.10	32435.14
670.25	32421.10
670.39	32437.48
670.53	32060.66
670.67	32425.78
670.81	32521.74
670.95	32322.80
671.09	31901.50
671.23	32011.51
671.37	32156.62
671.51	32060.66
671.65	31637.02
671.79	31957.67
671.93	31789.16
672.07	31709.58
672.21	31967.04
672.35	30595.48
672.49	31402.97
672.63	31063.59
672.77	31335.09
672.91	31253.17
673.05	31072.95
673.19	31456.80
673.33	31332.75
673.47	31028.48
673.61	31304.67
673.75	30843.58
673.89	30707.83
674.03	30906.77
674.17	30555.69
674.31	30682.08
674.45	30288.87
674.59	30670.38
674.73	30635.27
674.87	30625.91
675.01	30469.09
675.15	30431.65
675.29	30380.15
675.43	30270.15
675.56	30148.44
675.70	30092.27
675.84	29993.97
675.98	29106.90
676.12	30363.77
676.26	30064.18
676.40	29771.61
676.54	29556.28
676.68	28959.45
676.82	28760.50
676.96	29071.79
677.10	28870.51
677.23	29216.91
677.37	28680.92
677.51	29291.80
677.65	29029.66
677.79	28945.41
677.93	28704.33
678.07	28662.20
678.21	28683.27
678.34	28837.74
678.48	28692.63
678.62	28444.53
678.76	28582.62
678.90	28060.68
679.04	28037.28
679.18	28034.94
679.31	27630.02
679.45	27330.44
679.59	27662.79
679.73	27431.08
679.87	27119.79
680.00	27505.98
680.14	27094.04
680.28	27171.28
680.42	27136.17
680.56	27328.10
680.70	26937.23
680.83	27557.47
680.97	26946.59
681.11	27342.14
681.25	26855.31
681.39	26909.14
681.52	26700.83
681.66	26127.40
681.80	26443.37
681.94	25972.92
682.07	25998.67
682.21	26274.85
682.35	26293.58
682.49	26082.93
682.62	25788.02
682.76	25972.92
682.90	25951.86
683.04	25869.94
683.17	25972.92
683.31	25860.58
683.45	25715.47
683.59	25593.76
683.72	25338.64
683.86	25144.38
684.00	25158.42
684.13	24699.67
684.27	25188.85
684.41	24561.58
684.55	24765.21
684.68	24800.32
684.82	24456.26
684.96	24336.89
685.09	24552.22
685.23	24423.49
685.37	24507.75
685.50	24390.72
685.64	24292.42
685.78	24074.75
685.91	24458.60
686.05	23854.74
686.19	23625.37
686.32	23793.89
686.46	23454.51
686.60	23283.65
686.73	23339.82
686.87	23548.13
687.01	23353.87
687.14	23016.83
687.28	23271.95
687.42	23166.62
687.55	22958.31
687.69	23208.75
687.82	23229.82
687.96	23061.30
688.10	22981.72
688.23	23082.36
688.37	22724.26
688.50	22792.14
688.64	22302.96
688.78	22403.61
688.91	22270.20
689.05	22375.52
689.18	21968.27
689.32	21610.17
689.46	21675.70
689.59	21750.60
689.73	21888.69
689.86	21701.45
690.00	21228.66
690.13	21736.56
690.27	21502.50
690.41	21549.31
690.54	21329.30
690.68	21415.90
690.81	21249.72
690.95	21486.12
691.08	21291.85
691.22	21364.41
691.35	21120.99
691.49	20856.51
691.62	20861.19
691.76	20723.10
691.89	20491.39
692.03	20418.83
692.16	20369.68
692.30	20556.93
692.43	20329.89
692.57	20325.21
692.70	20247.97
692.84	20016.26
692.97	20430.54
693.11	19901.58
693.24	20144.99
693.38	19793.91
693.51	19566.88
693.65	19789.23
693.78	19295.38
693.92	19737.74
694.05	19241.54
694.19	19185.37
694.32	19239.20
694.45	18956.00
694.59	18670.45
694.72	19101.11
694.86	19023.87
694.99	18654.07
695.13	18693.86
695.26	18551.09
695.39	18466.83
695.53	18604.92
695.66	18766.42
695.80	18583.85
695.93	18527.68
696.07	18485.55
696.20	18183.62
696.33	18087.66
696.47	18115.75
696.60	17893.40
696.73	17921.48
696.87	17781.05
697.00	17764.67
697.14	17584.44
697.27	17434.65
697.40	17446.35
697.54	17224.00
697.67	17231.02
697.80	16985.27
697.94	16973.56
698.07	17013.35
698.21	16755.90
698.34	17151.45
698.47	16685.68
698.61	16538.23
698.74	16528.86
698.87	16720.79
699.01	16444.60
699.14	16561.63
699.27	16695.04
699.40	16500.78
699.54	16070.12
699.67	16468.01
699.80	16184.80
699.94	15899.26
700.07	16025.65
700.20	15999.90
700.34	15611.37
700.47	15749.46
700.60	15714.36
700.73	15889.90
700.87	15838.41
701.00	15644.14
701.13	15606.69
701.26	15559.88
701.40	15407.75
701.53	15140.93
701.66	15274.34
701.79	15243.91
701.93	15222.84
702.06	15061.35
702.19	15005.17
702.32	14932.62
702.46	15056.67
702.59	14429.40
702.72	14651.75
702.85	14427.06
702.99	14611.96
703.12	14597.92
703.25	14424.72
703.38	14384.93
703.51	14331.10
703.65	14174.28
703.78	14225.78
703.91	14097.05
704.04	13921.51
704.17	13846.61
704.31	14129.81
704.44	13764.69
704.57	13811.50
704.70	13614.90
704.83	13315.31
704.96	13745.97
705.10	13366.80
705.23	13231.05
>>>>>End Processed Spectral Data<<<<<
