SpectraSuite Data File
++++++++++++++++++++++++++++++++++++
Date: Fri Oct 04 11:48:36 GMT-05:00 2013
User: price-jones
Dark Spectrum Present: No
Reference Spectrum Present: No
Number of Sampled Component Spectra: 1
Spectrometers: USB2+H05261
Integration Time (usec): 100000 (USB2+H05261)
Spectra Averaged: 1 (USB2+H05261)
Boxcar Smoothing: 0 (USB2+H05261)
Correct for Electrical Dark: No (USB2+H05261)
Strobe/Lamp Enabled: No (USB2+H05261)
Correct for Detector Non-linearity: No (USB2+H05261)
Correct for Stray Light: No (USB2+H05261)
Number of Pixels in Processed Spectrum: 2048
>>>>>Begin Processed Spectral Data<<<<<
365.73	0.00
365.92	0.00
366.12	0.00
366.32	0.00
366.52	0.00
366.72	0.00
366.91	0.00
367.11	0.00
367.31	0.00
367.51	0.00
367.70	0.00
367.90	0.00
368.10	0.00
368.30	0.00
368.49	0.00
368.69	0.00
368.89	0.00
369.09	0.00
369.28	0.00
369.48	0.00
369.68	0.00
369.87	0.00
370.07	0.00
370.27	49.15
370.47	37.45
370.66	203.63
370.86	241.08
371.06	229.37
371.25	330.02
371.45	278.52
371.65	278.52
371.84	294.91
372.04	248.10
372.24	273.84
372.44	339.38
372.63	376.83
372.83	367.46
373.03	341.72
373.22	287.89
373.42	306.61
373.62	369.80
373.81	409.59
374.01	409.59
374.21	449.38
374.40	320.65
374.60	425.98
374.79	341.72
374.99	407.25
375.19	404.91
375.38	395.55
375.58	421.30
375.78	418.96
375.97	351.08
376.17	444.70
376.37	425.98
376.56	383.85
376.76	397.89
376.95	400.23
377.15	388.53
377.35	341.72
377.54	404.91
377.74	376.83
377.93	402.57
378.13	383.85
378.33	463.43
378.52	479.81
378.72	517.26
378.91	479.81
379.11	404.91
379.31	428.32
379.50	409.59
379.70	463.43
379.89	475.13
380.09	472.79
380.28	517.26
380.48	475.13
380.68	454.06
380.87	484.49
381.07	407.25
381.26	496.19
381.46	468.11
381.65	397.89
381.85	472.79
382.04	435.34
382.24	557.05
382.43	491.51
382.63	411.93
382.83	498.53
383.02	477.47
383.22	496.19
383.41	475.13
383.61	521.94
383.80	543.00
384.00	559.39
384.19	521.94
384.39	557.05
384.58	521.94
384.78	587.47
384.97	554.71
385.17	568.75
385.36	526.62
385.56	547.69
385.75	554.71
385.95	571.09
386.14	657.69
386.34	524.28
386.53	547.69
386.72	514.92
386.92	664.71
387.11	561.73
387.31	552.37
387.50	554.71
387.70	489.17
387.89	608.54
388.09	641.31
388.28	477.47
388.48	573.43
388.67	681.10
388.86	599.18
389.06	702.16
389.25	596.84
389.45	550.03
389.64	596.84
389.84	676.41
390.03	620.24
390.22	603.86
390.42	638.97
390.61	655.35
390.81	685.78
391.00	723.23
391.19	638.97
391.39	653.01
391.58	678.76
391.78	770.04
391.97	711.52
392.16	755.99
392.36	748.97
392.55	737.27
392.75	692.80
392.94	734.93
393.13	723.23
393.33	720.88
393.52	699.82
393.71	777.06
393.91	784.08
394.10	814.51
394.29	816.85
394.49	765.36
394.68	875.36
394.88	875.36
395.07	844.93
395.26	793.44
395.46	915.15
395.65	903.45
395.84	887.06
396.04	954.94
396.23	882.38
396.42	959.62
396.62	1008.77
396.81	926.85
397.00	828.55
397.19	858.98
397.39	922.17
397.58	994.73
397.77	922.17
397.97	922.17
398.16	873.02
398.35	1015.79
398.55	950.26
398.74	959.62
398.93	1083.67
399.12	1100.05
399.32	1029.84
399.51	980.68
399.70	1151.54
399.90	1074.31
400.09	1090.69
400.28	1083.67
400.47	1111.75
400.67	1151.54
400.86	1167.93
401.05	1109.41
401.24	1097.71
401.44	1188.99
401.63	1181.97
401.82	1191.33
402.01	1090.69
402.21	1299.00
402.40	1196.01
402.59	1259.21
402.78	1277.93
402.97	1214.74
403.17	1308.36
403.36	1296.66
403.55	1338.79
403.74	1315.38
403.93	1247.51
404.13	1235.80
404.32	1327.08
404.51	1409.00
404.70	1432.41
404.89	1348.15
405.09	1472.20
405.28	1413.68
405.47	1416.02
405.66	1425.39
405.85	1493.26
406.05	1533.05
406.24	1504.96
406.43	1521.35
406.62	1645.40
406.81	1626.67
407.00	1699.23
407.20	1547.09
407.39	1533.05
407.58	1682.85
407.77	1647.74
407.96	1668.80
408.15	1619.65
408.34	1741.36
408.54	1795.19
408.73	1720.29
408.92	1715.61
409.11	1755.40
409.30	1832.64
409.49	1842.00
409.68	1884.13
409.87	1863.07
410.07	1905.20
410.26	1895.83
410.45	1834.98
410.64	1891.15
410.83	1870.09
411.02	1900.52
411.21	1886.47
411.40	2080.74
411.59	2064.35
411.78	2073.71
411.98	2054.99
412.17	2047.97
412.36	2120.53
412.55	2216.49
412.74	2242.23
412.93	2246.91
413.12	2230.53
413.31	2359.26
413.50	2286.70
413.69	2408.41
413.88	2450.54
414.07	2438.84
414.26	2333.51
414.45	2462.24
414.64	2408.41
414.83	2569.91
415.02	2546.50
415.22	2579.27
415.41	2668.21
415.60	2511.39
415.79	2548.84
415.98	2719.70
416.17	2647.15
416.36	2581.61
416.55	2693.96
416.74	2626.08
416.93	2590.97
417.12	2696.30
417.31	2806.30
417.50	2906.95
417.69	2867.16
417.88	2892.90
418.07	2874.18
418.26	2942.05
418.45	2911.63
418.64	3002.91
418.83	2998.23
419.02	2862.48
419.21	3019.29
419.39	3014.61
419.58	2972.48
419.77	3087.17
419.96	3026.31
420.15	3133.98
420.34	3075.46
420.53	3049.72
420.72	3164.40
420.91	3265.05
421.10	3269.73
421.29	3241.64
421.48	3253.34
421.67	3316.54
421.86	3194.83
422.05	3335.26
422.24	3260.37
422.43	3328.24
422.61	3234.62
422.80	3382.07
422.99	3445.27
423.18	3377.39
423.37	3337.60
423.56	3330.58
423.75	3332.92
423.94	3449.95
424.13	3199.51
424.32	3222.92
424.50	3442.93
424.69	3449.95
424.88	3534.21
425.07	3311.86
425.26	3300.16
425.45	3405.48
425.64	3375.05
425.83	3363.35
426.01	3506.12
426.20	3459.31
426.39	3382.07
426.58	3435.91
426.77	3438.25
426.96	3527.19
427.15	3353.99
427.33	3501.44
427.52	3569.32
427.71	3576.34
427.90	3637.19
428.09	3782.31
428.28	3583.36
428.46	3576.34
428.65	3686.34
428.84	3693.37
429.03	3733.15
429.22	3585.70
429.40	3679.32
429.59	3765.92
429.78	3618.47
429.97	3679.32
430.16	3574.00
430.34	3868.91
430.53	3866.56
430.72	3908.69
430.91	3819.75
431.10	3824.44
431.28	3981.25
431.47	3988.27
431.66	4009.34
431.85	4121.68
432.03	4032.74
432.22	3953.16
432.41	4023.38
432.60	4156.79
432.79	4074.87
432.97	4173.18
433.16	4063.17
433.35	4119.34
433.54	4248.07
433.72	4084.23
433.91	4217.65
434.10	4191.90
434.28	4285.52
434.47	4252.75
434.66	4367.44
434.85	4290.20
435.03	4250.41
435.22	4276.16
435.41	4486.81
435.59	4411.91
435.78	4365.10
435.97	4477.44
436.16	4402.55
436.34	4454.04
436.53	4461.06
436.72	4589.79
436.90	4428.29
437.09	4519.57
437.28	4442.34
437.46	4645.96
437.65	4440.00
437.84	4493.83
438.02	4664.69
438.21	4535.96
438.40	4545.32
438.58	4786.40
438.77	4678.73
438.96	4727.88
439.14	4903.42
439.33	4929.17
439.52	4868.31
439.70	4922.15
439.89	4980.66
440.08	5186.63
440.26	5060.24
440.45	5020.45
440.63	5097.69
440.82	5200.67
441.01	5214.71
441.19	5324.72
441.38	5303.65
441.57	5317.70
441.75	5291.95
441.94	5472.17
442.12	5242.80
442.31	5458.13
442.50	5458.13
442.68	5411.32
442.87	5633.67
443.05	5535.37
443.24	5729.63
443.43	5600.90
443.61	5636.01
443.80	5703.89
443.98	5451.11
444.17	5437.06
444.35	5685.16
444.54	5753.04
444.73	5790.49
444.91	5603.24
445.10	5570.48
445.28	5844.32
445.47	5671.12
445.65	5675.80
445.84	5610.26
446.02	5701.54
446.21	5605.58
446.39	5591.54
446.58	5902.83
446.77	5746.02
446.95	5720.27
447.14	5628.99
447.32	5989.43
447.51	5809.21
447.69	5830.27
447.88	5757.72
448.06	5781.12
448.25	5898.15
448.43	5884.11
448.62	5916.87
448.80	5839.64
448.99	5900.49
449.17	5909.85
449.36	5816.23
449.54	6064.33
449.73	6155.61
449.91	6160.29
450.10	6040.92
450.28	6148.59
450.46	6129.86
450.65	6282.00
450.83	6115.82
451.02	6183.70
451.20	6104.12
451.39	6338.17
451.57	6282.00
451.76	6331.15
451.94	6230.51
452.13	6368.60
452.31	6296.04
452.49	6040.92
452.68	6438.81
452.86	6401.37
453.05	6326.47
453.23	6476.26
453.42	6331.15
453.60	6464.56
453.78	6296.04
453.97	6459.88
454.15	6576.91
454.34	6422.43
454.52	6562.86
454.70	6630.74
454.89	6567.54
455.07	6492.65
455.26	6789.89
455.44	6787.55
455.62	6663.51
455.81	6782.87
455.99	6752.45
456.17	6822.66
456.36	6768.83
456.54	6888.20
456.73	6794.58
456.91	7101.19
457.09	7246.30
457.28	7234.60
457.46	7122.25
457.64	7192.47
457.83	7201.83
458.01	6965.43
458.19	7180.76
458.38	7187.79
458.56	7194.81
458.74	7183.10
458.93	7241.62
459.11	7213.53
459.29	7375.03
459.48	7302.47
459.66	7419.50
459.84	7288.43
460.03	7620.78
460.21	7478.01
460.39	7311.83
460.57	7468.65
460.76	7438.22
460.94	7599.72
461.12	7494.40
461.31	7588.02
461.49	7536.52
461.67	7583.34
461.85	7798.66
462.04	7770.58
462.22	8456.36
462.40	7765.90
462.59	7899.31
462.77	7861.86
462.95	7901.65
463.13	7918.03
463.32	7707.38
463.50	7831.43
463.68	7786.96
463.86	7929.74
464.05	7772.92
464.23	7815.05
464.41	8002.29
464.59	7691.00
464.78	8205.92
464.96	7953.14
465.14	8006.97
465.32	8138.04
465.50	8311.24
465.69	8217.62
465.87	8044.42
466.05	8037.40
466.23	8116.98
466.41	8276.13
466.60	8437.63
466.78	8018.68
466.96	8262.09
467.14	8458.70
467.32	8339.33
467.51	8549.98
467.69	8276.13
467.87	8311.24
468.05	8409.54
468.23	8203.58
468.41	8278.47
468.60	8610.83
468.78	8631.90
468.96	8386.14
469.14	8681.05
469.32	8851.91
469.50	8517.21
469.69	8769.99
469.87	8641.26
470.05	9022.77
470.23	8629.56
470.41	8582.74
470.59	8917.44
470.77	8727.86
470.95	8975.95
471.14	8980.64
471.32	8889.35
471.50	9200.65
471.68	9184.26
471.86	9092.98
472.04	9277.88
472.22	9163.20
472.40	9102.34
472.58	9458.10
472.77	9334.06
472.95	9565.77
473.13	9530.66
473.31	9451.08
473.49	9458.10
473.67	9544.70
473.85	9621.94
474.03	9984.73
474.21	9872.38
474.39	10022.17
474.57	9902.81
474.75	9982.38
474.93	9994.09
475.12	9991.75
475.30	10298.36
475.48	10134.52
475.66	10113.45
475.84	10099.41
476.02	10403.68
476.20	10588.58
476.38	10684.55
476.56	10850.72
476.74	10696.25
476.92	10736.04
477.10	10733.70
477.28	10684.55
477.46	10972.43
477.64	10754.76
477.82	11227.55
478.00	11426.50
478.18	11463.94
478.36	11377.34
478.54	11585.65
478.72	11508.41
478.90	11356.28
479.08	11599.70
479.26	11843.11
479.44	12023.33
479.62	11997.59
479.80	11981.20
479.98	11967.16
480.16	12128.66
480.34	12264.41
480.52	12351.01
480.70	12278.45
480.88	12442.29
481.06	12538.25
481.24	12718.47
481.41	12491.44
481.59	12957.21
481.77	13018.06
481.95	12933.80
482.13	13219.35
482.31	12842.52
482.49	13467.44
482.67	13488.51
482.85	13488.51
483.03	13783.41
483.21	13958.96
483.39	13991.72
483.57	13926.19
483.74	13970.66
483.92	14050.24
484.10	14090.02
484.28	14480.89
484.46	14689.20
484.64	14684.52
484.82	14750.06
485.00	14558.13
485.18	15084.75
485.35	15330.51
485.53	15103.48
485.71	15321.15
485.89	15646.48
486.07	15662.86
486.25	15541.16
486.43	15435.83
486.61	15859.47
486.78	16119.27
486.96	15939.05
487.14	16360.34
487.32	16362.69
487.50	16617.80
487.68	16322.90
487.85	16786.32
488.03	16863.56
488.21	17006.33
488.39	17336.35
488.57	17359.75
488.75	17577.42
488.92	17666.36
489.10	17752.96
489.28	18162.56
489.46	18104.04
489.64	17633.60
489.81	18031.49
489.99	18214.05
490.17	18293.63
490.35	18827.27
490.53	18642.37
490.70	19110.47
490.88	19239.20
491.06	19002.81
491.24	19058.98
491.41	19040.26
491.59	19194.73
491.77	19459.21
491.95	19660.50
492.13	19840.72
492.30	19924.98
492.48	19831.36
492.66	19847.74
492.84	19992.86
493.01	20276.06
493.19	20556.93
493.37	20559.27
493.54	20655.23
493.72	20592.03
493.90	20673.95
494.08	21078.86
494.25	21195.89
494.43	21018.01
494.61	21373.77
494.79	21682.72
494.96	21371.43
495.14	21783.37
495.32	21846.56
495.49	22094.66
495.67	21979.97
495.85	22108.70
496.02	22719.58
496.20	22434.03
496.38	22333.39
496.55	22792.14
496.73	22902.14
496.91	22972.36
497.09	23009.81
497.26	23342.16
497.44	23007.47
497.62	23049.60
497.79	23803.25
497.97	23599.62
498.14	23871.12
498.32	24009.22
498.50	24140.29
498.67	24091.13
498.85	24142.63
499.03	23983.47
499.20	24201.14
499.38	24261.99
499.56	24397.74
499.73	24397.74
499.91	24596.69
500.08	24723.08
500.26	24603.71
500.44	25036.71
500.61	24875.21
500.79	25137.35
500.97	25254.38
501.14	25600.78
501.32	25490.77
501.49	25682.70
501.67	25366.73
501.84	25795.04
502.02	25720.15
502.20	25919.09
502.37	26174.21
502.55	25874.62
502.72	26132.08
502.90	26052.50
503.07	25949.52
503.25	26078.25
503.43	26244.43
503.60	26492.52
503.78	26522.95
503.95	26780.41
504.13	26864.67
504.30	27030.85
504.48	27072.98
504.65	27026.17
504.83	27349.16
505.01	27255.54
505.18	27206.39
505.36	27728.33
505.53	27337.46
505.71	27300.01
505.88	27477.89
506.06	27199.37
506.23	27906.21
506.41	27828.97
506.58	27978.76
506.76	28140.26
506.93	27955.36
507.11	27885.14
507.28	28261.97
507.46	28676.24
507.63	28135.58
507.81	28701.99
507.98	28629.43
508.16	28023.23
508.33	29090.52
508.50	28809.65
508.68	28905.62
508.85	29252.02
509.03	29221.59
509.20	29425.22
509.38	29441.60
509.55	29298.83
509.73	29619.48
509.90	29603.10
510.08	29802.04
510.25	29532.88
510.42	30106.31
510.60	30471.43
510.77	30082.91
510.95	30061.84
511.12	30429.30
511.30	30115.67
511.47	30185.89
511.64	30459.73
511.82	30707.83
511.99	30696.13
512.17	30848.26
512.34	30885.71
512.51	30616.55
512.69	31021.46
512.86	30890.39
513.04	31304.67
513.21	31044.87
513.38	31435.74
513.56	31768.09
513.73	31566.81
513.90	31351.48
514.08	31367.86
514.25	31665.11
514.43	31950.65
514.60	32086.40
514.77	32325.14
514.95	31838.31
515.12	31847.67
515.29	32140.24
515.47	32020.87
515.64	32547.49
515.81	32311.10
515.99	32723.03
516.16	32851.76
516.33	32615.37
516.51	32657.49
516.68	32708.99
516.85	32624.73
517.03	32659.84
517.20	33273.06
517.37	32697.28
517.54	32999.21
517.72	33015.60
517.89	33193.48
518.06	33322.21
518.24	32952.40
518.41	33296.46
518.58	33785.63
518.75	33390.08
518.93	33649.88
519.10	33525.83
519.27	34106.29
519.45	33652.22
519.62	33638.18
519.79	33603.07
519.96	34052.45
520.14	34312.25
520.31	33879.25
520.48	34499.50
520.65	34078.20
520.83	34602.48
521.00	34375.45
521.17	34574.39
521.34	34630.57
521.52	34677.38
521.69	35009.73
521.86	34679.72
522.03	34841.21
522.20	35042.50
522.38	34789.72
522.55	34621.20
522.72	34923.13
522.89	35086.97
523.07	36004.46
523.24	35416.99
523.41	35117.40
523.58	35641.68
523.75	35131.44
523.92	35543.38
524.10	35644.02
524.27	35498.91
524.44	35716.58
524.61	36336.82
524.78	35739.98
524.96	36346.18
525.13	36163.62
525.30	36062.97
525.47	36133.19
525.64	36037.23
525.81	36411.71
525.98	36287.67
526.16	36542.78
526.33	36481.93
526.50	36390.65
526.67	36465.55
526.84	36753.43
527.01	36273.62
527.18	36793.22
527.36	36474.91
527.53	36800.24
527.70	37226.22
527.87	37207.50
528.04	36903.23
528.21	36884.50
528.38	37153.66
528.55	37172.39
528.72	37237.92
528.89	37013.23
529.07	37123.24
529.24	37261.33
529.41	37551.56
529.58	37343.25
529.75	37291.76
529.92	37457.93
530.09	37205.16
530.26	37787.95
530.43	38148.39
530.60	37092.81
530.77	37450.91
530.94	37853.48
531.11	37984.55
531.28	38089.88
531.46	38174.14
531.63	37991.58
531.80	37907.32
531.97	38471.39
532.14	38403.51
532.31	38340.32
532.48	38363.72
532.65	38288.82
532.82	38080.52
532.99	38073.49
533.16	38361.38
533.33	38953.54
533.50	38883.32
533.67	38436.28
533.84	38295.85
534.01	38574.37
534.18	38518.20
534.35	39126.74
534.52	38667.99
534.69	39328.02
534.86	39358.45
535.03	39086.95
535.20	39496.54
535.37	39140.78
535.54	39580.80
535.71	39208.65
535.88	39075.24
536.05	39562.08
536.22	39419.30
536.38	39997.41
536.55	39749.32
536.72	39674.42
536.89	39433.35
537.06	39402.92
537.23	39835.92
537.40	39154.82
537.57	39138.44
537.74	39786.77
537.91	40006.78
538.08	40215.08
538.25	40252.53
538.42	39714.21
538.59	40381.26
538.75	39934.22
538.92	40254.87
539.09	40416.37
539.26	40350.84
539.43	40318.07
539.60	40247.85
539.77	40004.44
539.94	40751.07
540.11	40332.11
540.28	40421.05
540.44	40538.08
540.61	40627.02
540.78	40224.45
540.95	40542.76
541.12	40423.39
541.29	40596.59
541.46	40643.40
541.62	40488.93
541.79	40552.12
541.96	40411.69
542.13	40575.53
542.30	40837.67
542.47	41270.67
542.63	41294.07
542.80	41242.58
542.97	41556.21
543.14	41537.49
543.31	41481.31
543.48	41310.46
543.64	41862.82
543.81	41715.37
543.98	41745.80
544.15	41427.48
544.32	41516.42
544.48	42014.96
544.65	41542.17
544.82	41617.07
544.99	41429.82
545.16	41881.55
545.32	41900.27
545.49	41839.42
545.66	42464.34
545.83	42176.45
546.00	42279.44
546.16	42164.75
546.33	41717.71
546.50	41607.70
546.67	42230.29
546.83	41783.24
547.00	42476.04
547.17	42314.55
547.34	42443.27
547.50	42405.83
547.67	42721.80
547.84	42253.69
548.00	42450.30
548.17	42515.83
548.34	42265.39
548.51	42775.63
548.67	42789.67
548.84	42462.00
549.01	42756.91
549.18	42639.88
549.34	42712.44
549.51	42595.41
549.68	42782.65
549.84	42773.29
550.01	43035.43
550.18	42759.25
550.34	43000.32
550.51	43339.70
550.68	43124.37
550.84	42735.84
551.01	43278.85
551.18	42237.31
551.34	42824.78
551.51	42822.44
551.68	43377.15
551.84	43063.52
552.01	43435.66
552.18	43217.99
552.34	43061.18
552.51	43257.78
552.68	42923.08
552.84	43335.02
553.01	43426.30
553.18	43391.19
553.34	43578.43
553.51	43573.75
553.67	43597.16
553.84	43943.56
554.01	43812.49
554.17	43606.52
554.34	44062.93
554.51	43543.33
554.67	43543.33
554.84	43372.47
555.00	43564.39
555.17	43658.01
555.33	43803.13
555.50	43765.68
555.67	43381.83
555.83	43540.99
556.00	43658.01
556.16	44107.40
556.33	43761.00
556.50	43789.08
556.66	43777.38
556.83	43611.20
556.99	44184.63
557.16	44240.81
557.32	43955.26
557.49	43913.13
557.65	43475.45
557.82	43929.51
557.98	44013.77
558.15	44004.41
558.32	44435.07
558.48	44018.46
558.65	44528.69
558.81	44072.29
558.98	44112.08
559.14	43786.74
559.31	44123.78
559.47	43952.92
559.64	44264.21
559.80	44458.48
559.97	44671.46
560.13	44313.36
560.30	44477.20
560.46	44121.44
560.63	44725.30
560.79	44418.69
560.96	44371.88
561.12	44287.62
561.29	44224.42
561.45	44041.86
561.61	44425.71
561.78	44495.92
561.94	44624.65
562.11	44643.38
562.27	45083.40
562.44	44584.86
562.60	44350.81
562.77	44278.25
562.93	44414.01
563.10	44608.27
563.26	44685.51
563.42	45137.23
563.59	44879.77
563.75	44884.45
563.92	44516.99
564.08	44893.82
564.24	44917.22
564.41	44767.43
564.57	45076.38
564.74	44156.55
564.90	44737.00
565.07	44947.65
565.23	44849.35
565.39	44502.95
565.56	44683.17
565.72	45034.25
565.88	44795.51
566.05	44479.54
566.21	44683.17
566.38	44645.72
566.54	44610.61
566.70	45212.13
566.87	45361.92
567.03	45291.71
567.19	45177.02
567.36	45352.56
567.52	44842.32
567.68	45139.57
567.85	44460.82
568.01	44811.90
568.17	44961.69
568.34	45099.78
568.50	44800.19
568.66	45315.11
568.83	45298.73
568.99	45177.02
569.15	44823.60
569.32	44790.83
569.48	44591.89
569.64	44765.09
569.81	45195.74
569.97	45233.19
570.13	45209.79
570.30	45244.90
570.46	45125.53
570.62	44701.89
570.78	45083.40
570.95	44818.92
571.11	44898.50
571.27	44919.56
571.43	44734.66
571.60	45067.02
571.76	45436.82
571.92	45258.94
572.09	45221.49
572.25	45317.45
572.41	44786.15
572.57	44966.37
572.74	45539.80
572.90	45160.64
573.06	45380.65
573.22	45076.38
573.38	45102.12
573.55	44767.43
573.71	45399.37
573.87	45406.39
574.03	45048.29
574.20	45265.96
574.36	45312.77
574.52	45092.76
574.68	45268.30
574.84	45057.65
575.01	45464.91
575.17	45317.45
575.33	45425.12
575.49	45099.78
575.65	44905.52
575.82	45586.61
575.98	44868.07
576.14	45237.87
576.30	45387.67
576.46	45109.14
576.62	44879.77
576.79	45579.59
576.95	45123.19
577.11	44900.84
577.27	45277.66
577.43	45015.52
577.59	45258.94
577.75	44971.05
577.92	45399.37
578.08	44907.86
578.24	45291.71
578.40	45216.81
578.56	45647.47
578.72	45282.34
578.88	45577.25
579.04	45368.94
579.21	45301.07
579.37	45324.47
579.53	45202.77
579.69	45015.52
579.85	45347.88
580.01	45333.84
580.17	45144.25
580.33	45195.74
580.49	45570.23
580.65	45432.14
580.82	45755.13
580.98	45467.25
581.14	45186.38
581.30	45556.19
581.46	45027.23
581.62	45205.11
581.78	44704.23
581.94	45081.06
582.10	44992.12
582.26	45696.62
582.42	45352.56
582.58	45390.01
582.74	45280.00
582.90	45422.78
583.06	45055.31
583.22	45195.74
583.38	45092.76
583.54	45212.13
583.70	45476.61
583.86	45244.90
584.02	44971.05
584.18	45823.01
584.34	45272.98
584.50	45638.11
584.66	45586.61
584.82	44847.00
584.98	45378.31
585.14	45188.72
585.30	45113.83
585.46	45270.64
585.62	45698.96
585.78	45727.05
585.94	44898.50
586.10	45188.72
586.26	45392.35
586.42	45446.18
586.58	45750.45
586.74	45794.92
586.90	45413.41
587.06	45338.52
587.22	45446.18
587.38	45422.78
587.54	45813.65
587.70	45717.68
587.86	45696.62
588.02	45544.48
588.18	45869.82
588.34	45570.23
588.49	45586.61
588.65	44961.69
588.81	45530.44
588.97	45371.28
589.13	45588.95
589.29	45399.37
589.45	45350.22
589.61	45649.81
589.77	45989.19
589.93	45528.10
590.08	45925.99
590.24	45680.24
590.40	45956.42
590.56	45958.76
590.72	45436.82
590.88	45322.13
591.04	45600.66
591.20	45666.19
591.35	46052.38
591.51	46366.01
591.67	46199.83
591.83	46120.26
591.99	45605.34
592.15	45797.26
592.31	45823.01
592.46	45221.49
592.62	45640.45
592.78	45628.74
592.94	46017.27
593.10	45244.90
593.26	45897.91
593.41	45886.20
593.57	45982.16
593.73	45874.50
593.89	45670.87
594.05	45378.31
594.20	45340.86
594.36	45933.01
594.52	45464.91
594.68	45815.99
594.84	45443.84
594.99	45975.14
595.15	45656.83
595.31	46117.92
595.47	45940.04
595.62	46106.21
595.78	45394.69
595.94	45581.93
596.10	45792.58
596.25	45773.86
596.41	45595.98
596.57	45848.75
596.73	45808.96
596.88	45862.80
597.04	45558.53
597.20	45808.96
597.36	45961.10
597.51	45607.68
597.67	45181.70
597.83	45390.01
597.99	45698.96
598.14	45462.57
598.30	45668.53
598.46	45464.91
598.61	45787.90
598.77	45612.36
598.93	46014.93
599.09	46148.34
599.24	46567.30
599.40	45911.95
599.56	45748.11
599.71	45401.71
599.87	46134.30
600.03	45312.77
600.18	46050.04
600.34	45638.11
600.50	45790.24
600.65	45584.27
600.81	45614.70
600.97	45975.14
601.12	45993.87
601.28	46169.41
601.44	45853.44
601.59	45907.27
601.75	45689.60
601.91	45902.59
602.06	45256.60
602.22	45940.04
602.37	45675.55
602.53	45645.13
602.69	46256.01
602.84	45481.29
603.00	45785.56
603.16	45848.75
603.31	46298.14
603.47	45668.53
603.62	45345.54
603.78	45509.38
603.94	45544.48
604.09	45244.90
604.25	45029.57
604.40	45593.64
604.56	45216.81
604.71	45511.72
604.87	45736.41
605.03	45553.85
605.18	45591.30
605.34	45504.70
605.49	44898.50
605.65	45170.00
605.80	45270.64
605.96	45413.41
606.12	45432.14
606.27	46045.36
606.43	45539.80
606.58	45336.18
606.74	45806.62
606.89	45380.65
607.05	45272.98
607.20	45270.64
607.36	45537.46
607.51	45713.00
607.67	45092.76
607.82	45099.78
607.98	45446.18
608.13	45492.99
608.29	45354.90
608.44	45296.39
608.60	45244.90
608.75	45514.06
608.91	45378.31
609.06	45188.72
609.22	45223.83
609.37	44842.32
609.53	45287.03
609.68	45132.55
609.84	44528.69
609.99	45593.64
610.15	44926.58
610.30	45373.63
610.46	44903.18
610.61	44788.49
610.76	44954.67
610.92	44952.33
611.07	44722.96
611.23	44856.37
611.38	44772.11
611.54	44942.97
611.69	45354.90
611.84	45109.14
612.00	45200.43
612.15	44769.77
612.31	45010.84
612.46	44987.44
612.62	45385.33
612.77	44886.79
612.92	44772.11
613.08	44662.10
613.23	44715.93
613.39	44610.61
613.54	44355.49
613.69	44144.84
613.85	44577.84
614.00	44463.16
614.15	45029.57
614.31	44348.47
614.46	44629.34
614.62	44959.35
614.77	44189.31
614.92	44727.64
615.08	44350.81
615.23	44406.98
615.38	44493.58
615.54	44093.35
615.69	44292.30
615.84	44378.90
616.00	44989.78
616.15	44428.05
616.30	44587.21
616.46	43959.94
616.61	43929.51
616.76	44582.52
616.92	44158.89
617.07	44069.95
617.22	44460.82
617.37	44074.63
617.53	44177.61
617.68	43875.68
617.83	43828.87
617.99	44430.39
618.14	44062.93
618.29	44074.63
618.45	43709.50
618.60	44137.82
618.75	43929.51
618.90	43629.93
619.06	43744.61
619.21	43842.92
619.36	44006.75
619.51	43508.22
619.67	43709.50
619.82	43721.21
619.97	44107.40
620.12	43330.34
620.28	43012.02
620.43	43594.82
620.58	43646.31
620.73	43751.63
620.89	43892.07
621.04	43580.78
621.19	43517.58
621.34	43463.75
621.49	43428.64
621.65	43187.56
621.80	43445.02
621.95	43098.62
622.10	43491.83
622.25	43189.91
622.41	43131.39
622.56	43192.25
622.71	43854.62
622.86	43302.25
623.01	43072.88
623.16	43267.14
623.32	42969.90
623.47	43026.07
623.62	42876.27
623.77	42794.36
623.92	43133.73
624.07	42916.06
624.23	42988.62
624.38	43150.12
624.53	43234.38
624.68	43512.90
624.83	42979.26
624.98	42789.67
625.13	43000.32
625.29	43016.71
625.44	42986.28
625.59	42731.16
625.74	42546.26
625.89	42373.06
626.04	42864.57
626.19	42815.42
626.34	42342.63
626.49	42478.38
626.65	42403.49
626.80	42803.72
626.95	42548.60
627.10	42328.59
627.25	42838.83
627.40	42784.99
627.55	42162.41
627.70	42410.51
627.85	42293.48
628.00	41778.56
628.15	42225.60
628.30	42010.28
628.45	42036.02
628.60	42080.49
628.76	42288.80
628.91	42618.81
629.06	42328.59
629.21	42094.53
629.36	42087.51
629.51	41750.48
629.66	42120.28
629.81	41532.81
629.96	41832.39
630.11	42050.06
630.26	41818.35
630.41	41399.40
630.56	41626.43
630.71	42122.62
630.86	41675.58
631.01	42368.38
631.16	42204.54
631.31	41649.83
631.46	41977.51
631.61	41645.15
631.76	41626.43
631.91	41570.25
632.06	41603.02
632.21	41581.96
632.36	41663.88
632.51	41305.77
632.66	41174.70
632.81	41195.77
632.96	41827.71
633.10	41645.15
633.25	41525.78
633.40	41916.65
633.55	41553.87
633.70	41282.37
633.85	41036.61
634.00	41034.27
634.15	41570.25
634.30	41453.23
634.45	41317.48
634.60	41191.09
634.75	41036.61
634.90	41057.68
635.05	40818.94
635.19	40905.54
635.34	41354.93
635.49	40861.07
635.64	41024.91
635.79	40830.65
635.94	41191.09
636.09	40842.35
636.24	40725.32
636.39	40449.14
636.53	40694.89
636.68	40903.20
636.83	40893.84
636.98	40535.74
637.13	40526.38
637.28	40882.14
637.43	40512.33
637.57	41045.97
637.72	40341.47
637.87	40325.09
638.02	40495.95
638.17	40498.29
638.32	40755.75
638.46	40360.20
638.61	40282.96
638.76	40247.85
638.91	40395.31
639.06	40339.13
639.20	40804.90
639.35	40322.75
639.50	40306.37
639.65	40257.21
639.80	40631.70
639.94	40210.40
640.09	40116.78
640.24	40037.20
640.39	40016.14
640.54	39828.90
640.68	40051.25
640.83	39861.66
640.98	39669.74
641.13	39304.62
641.27	40119.12
641.42	39849.96
641.57	39882.73
641.72	40236.15
641.86	39995.07
642.01	39489.52
642.16	39927.20
642.31	39662.72
642.45	39543.35
642.60	39243.76
642.75	39318.66
642.90	39983.37
643.04	39718.89
643.19	39391.22
643.34	39906.13
643.48	39536.33
643.63	39924.86
643.78	39365.47
643.93	39690.80
644.07	39594.84
644.22	39257.81
644.37	39337.38
644.51	39072.90
644.66	39210.99
644.81	39311.64
644.95	39323.34
645.10	39138.44
645.25	39442.71
645.39	39161.84
645.54	38815.44
645.69	39168.87
645.83	39264.83
645.98	39131.42
646.13	39318.66
646.27	39557.39
646.42	39033.11
646.57	38665.65
646.71	39213.34
646.86	39337.38
647.00	39269.51
647.15	38822.47
647.30	39173.55
647.44	38880.98
647.59	39236.74
647.74	38972.26
647.88	38792.04
648.03	38667.99
648.17	38616.50
648.32	38866.94
648.47	38958.22
648.61	38660.97
648.76	38649.27
648.90	38862.26
649.05	39079.92
649.20	38651.61
649.34	38576.71
649.49	38169.46
649.63	38422.23
649.78	38831.83
649.92	38813.10
650.07	38808.42
650.21	38405.85
650.36	38520.54
650.51	38527.56
650.65	38883.32
650.80	38590.75
650.94	38370.74
651.09	38780.34
651.23	38176.48
651.38	38677.35
651.52	38033.71
651.67	38323.93
651.81	38440.96
651.96	37879.23
652.10	37940.08
652.25	38433.94
652.39	38216.27
652.54	38330.95
652.68	38202.22
652.83	38253.72
652.97	38185.84
653.12	38218.61
653.26	37584.32
653.41	37818.38
653.55	37684.97
653.70	37837.10
653.84	37656.88
653.99	37528.15
654.13	38153.07
654.27	37464.96
654.42	37436.87
654.56	37631.13
654.71	37757.52
654.85	37872.21
655.00	37750.50
655.14	37464.96
655.29	37710.71
655.43	38225.63
655.57	37308.14
655.72	37544.53
655.86	37647.52
656.01	37579.64
656.15	37258.99
656.30	37471.98
656.44	37703.69
656.58	37638.15
656.73	37120.90
656.87	37092.81
657.01	37755.18
657.16	37581.98
657.30	37460.27
657.45	37097.49
657.59	37418.14
657.73	36907.91
657.88	37596.03
658.02	36861.10
658.16	36931.31
658.31	36605.98
658.45	37010.89
658.60	36783.86
658.74	36919.61
658.88	36858.76
659.03	36943.02
659.17	37226.22
659.31	36540.44
659.46	36282.98
659.60	36697.26
659.74	36851.73
659.89	36453.84
660.03	36240.86
660.17	36704.28
660.32	36449.16
660.46	36554.49
660.60	36070.00
660.74	36245.54
660.89	36369.58
661.03	36407.03
661.17	36025.53
661.32	36385.97
661.46	36191.70
661.60	36144.89
661.74	36348.52
661.89	36210.43
662.03	35924.88
662.17	35770.41
662.31	35868.71
662.46	35845.30
662.60	35573.80
662.74	35922.54
662.88	35470.82
663.03	35330.39
663.17	35232.08
663.31	35264.85
663.45	35246.13
663.60	35545.72
663.74	35557.42
663.88	35363.15
664.02	35421.67
664.17	35096.33
664.31	35377.20
664.45	35419.33
664.59	35253.15
664.73	35000.37
664.88	34895.05
665.02	34529.92
665.16	34794.40
665.30	34618.86
665.44	34820.15
665.59	34876.32
665.73	34588.44
665.87	34515.88
666.01	34508.86
666.15	34621.20
666.29	34700.78
666.44	34904.41
666.58	34469.07
666.72	34644.61
666.86	34415.24
667.00	34705.46
667.14	34251.40
667.28	34153.10
667.43	33905.00
667.57	34235.02
667.71	33958.83
667.85	34487.79
667.99	33951.81
668.13	33319.87
668.27	33612.43
668.41	34155.44
668.56	33490.73
668.70	33947.13
668.84	33844.15
668.98	33755.21
669.12	33411.15
669.26	33869.89
669.40	33682.65
669.54	33722.44
669.68	33270.72
669.82	33134.96
669.96	33357.32
670.10	32751.12
670.25	33195.82
670.39	32987.51
670.53	32804.95
670.67	32828.35
670.81	33294.12
670.95	33305.82
671.09	33008.58
671.23	33041.34
671.37	32793.25
671.51	32498.34
671.65	32978.15
671.79	32708.99
671.93	32746.44
672.07	32224.50
672.21	32313.44
672.35	32114.49
672.49	31936.61
672.63	32055.98
672.77	32180.03
672.91	31967.04
673.05	32261.94
673.19	31915.54
673.33	31901.50
673.47	32236.20
673.61	31938.95
673.75	31496.59
673.89	31634.68
674.03	31744.69
674.17	31339.77
674.31	31480.21
674.45	31419.35
674.59	31009.76
674.73	31068.27
674.87	30944.22
675.01	30838.90
675.15	31005.08
675.29	30728.89
675.43	30836.56
675.56	31040.18
675.70	30700.81
675.84	30920.82
675.98	29848.85
676.12	30850.60
676.26	30829.54
676.40	30754.64
676.54	30225.68
676.68	30167.16
676.82	29535.22
676.96	29851.19
677.10	30115.67
677.23	29680.33
677.37	29511.81
677.51	29486.07
677.65	29731.83
677.79	29528.20
677.93	29420.53
678.07	29172.44
678.21	29371.38
678.34	29268.40
678.48	29200.52
678.62	28926.68
678.76	29127.97
678.90	28917.32
679.04	28879.87
679.18	28807.31
679.31	28503.04
679.45	28233.88
679.59	28285.37
679.73	28243.24
679.87	28287.71
680.00	28070.04
680.14	28386.02
680.28	27803.22
680.42	28166.01
680.56	27690.88
680.70	27880.46
680.83	27927.27
680.97	27810.25
681.11	27960.04
681.25	27190.00
681.39	27349.16
681.52	27697.90
681.66	27131.49
681.80	27253.20
681.94	26911.48
682.07	27152.55
682.21	26759.34
682.35	26881.05
682.49	26773.39
682.62	26654.02
682.76	26764.03
682.90	26663.38
683.04	26169.53
683.17	26382.52
683.31	26431.67
683.45	26188.25
683.59	26656.36
683.72	26202.30
683.86	26071.23
684.00	25759.94
684.13	25764.62
684.27	25289.49
684.41	25394.81
684.55	25326.94
684.68	25113.95
684.82	25074.16
684.96	25170.12
685.09	24996.92
685.23	25020.33
685.37	25116.29
685.50	25413.54
685.64	24872.87
685.78	25097.56
685.91	24627.12
686.05	24933.73
686.19	24697.33
686.32	24692.65
686.46	24357.96
686.60	24233.91
686.73	23871.12
686.87	24041.98
687.01	24159.01
687.14	23995.17
687.28	23807.93
687.42	23660.48
687.55	23538.77
687.69	23976.45
687.82	23674.52
687.96	23740.05
688.10	23611.32
688.23	23548.13
688.37	23419.40
688.50	23129.17
688.64	23248.54
688.78	23005.13
688.91	22815.54
689.05	22750.01
689.18	22651.70
689.32	22185.94
689.46	22469.14
689.59	22569.79
689.73	22455.10
689.86	22398.93
690.00	22422.33
690.13	22300.62
690.27	21951.88
690.41	22071.25
690.54	21797.41
690.68	22185.94
690.81	21977.63
690.95	21895.71
691.08	21813.79
691.22	21682.72
691.35	21816.13
691.49	21186.53
691.62	21331.64
691.76	20959.50
691.89	21289.51
692.03	20877.58
692.16	20896.30
692.30	20741.83
692.43	20844.81
692.57	20475.01
692.70	20662.25
692.84	20711.40
692.97	20774.60
693.11	20739.49
693.24	20482.03
693.38	20549.90
693.51	20159.03
693.65	20339.26
693.78	20091.16
693.92	20297.13
694.05	19676.88
694.19	19737.74
694.32	19852.42
694.45	19487.30
694.59	19344.53
694.72	19372.61
694.86	19168.99
694.99	19250.91
695.13	19026.21
695.26	19288.35
695.39	19271.97
695.53	19199.41
695.66	19335.17
695.80	18752.37
695.93	19035.58
696.07	19016.85
696.20	18932.59
696.33	18780.46
696.47	18644.71
696.60	18515.98
696.73	18382.57
696.87	18274.90
697.00	18090.00
697.14	17825.52
697.27	18087.66
697.40	17947.23
697.54	17867.65
697.67	17607.85
697.80	17420.61
697.94	17713.17
698.07	17631.26
698.21	17558.70
698.34	17668.70
698.47	17404.22
698.61	17209.96
698.74	17444.01
698.87	17731.90
699.01	16875.26
699.14	16854.20
699.27	16800.37
699.40	17053.14
699.54	16617.80
699.67	16531.20
699.80	16657.59
699.94	16662.27
700.07	16587.38
700.20	16231.62
700.34	16280.77
700.47	16339.28
700.60	16383.75
700.73	16250.34
700.87	16189.49
701.00	15819.68
701.13	16198.85
701.26	16189.49
701.40	16198.85
701.53	16100.55
701.66	15730.74
701.79	15468.60
701.93	15459.24
702.06	15272.00
702.19	15524.77
702.32	15419.45
702.46	15138.58
702.59	14995.81
702.72	14911.55
702.85	15187.74
702.99	14831.97
703.12	15087.09
703.25	14576.86
703.38	14686.86
703.51	14747.72
703.65	14993.47
703.78	15035.60
703.91	14876.44
704.04	14710.27
704.17	14705.59
704.31	14483.24
704.44	14466.85
704.57	14197.69
704.70	14085.34
704.83	13837.25
704.96	13912.14
705.10	13818.52
705.23	13973.00
>>>>>End Processed Spectral Data<<<<<
