SpectraSuite Data File
++++++++++++++++++++++++++++++++++++
Date: Fri Oct 04 11:48:35 GMT-05:00 2013
User: price-jones
Dark Spectrum Present: No
Reference Spectrum Present: No
Number of Sampled Component Spectra: 1
Spectrometers: USB2+H05261
Integration Time (usec): 100000 (USB2+H05261)
Spectra Averaged: 1 (USB2+H05261)
Boxcar Smoothing: 0 (USB2+H05261)
Correct for Electrical Dark: No (USB2+H05261)
Strobe/Lamp Enabled: No (USB2+H05261)
Correct for Detector Non-linearity: No (USB2+H05261)
Correct for Stray Light: No (USB2+H05261)
Number of Pixels in Processed Spectrum: 2048
>>>>>Begin Processed Spectral Data<<<<<
365.73	72.56
365.92	72.56
366.12	72.56
366.32	0.00
366.52	0.00
366.72	21.06
366.91	0.00
367.11	0.00
367.31	0.00
367.51	0.00
367.70	0.00
367.90	0.00
368.10	0.00
368.30	0.00
368.49	0.00
368.69	0.00
368.89	0.00
369.09	0.00
369.28	0.00
369.48	0.00
369.68	0.00
369.87	0.00
370.07	21.06
370.27	0.00
370.47	28.09
370.66	257.46
370.86	252.78
371.06	315.97
371.25	313.63
371.45	306.61
371.65	334.70
371.84	255.12
372.04	257.46
372.24	327.68
372.44	353.42
372.63	404.91
372.83	442.36
373.03	362.78
373.22	318.31
373.42	341.72
373.62	397.89
373.81	339.38
374.01	390.87
374.21	461.09
374.40	449.38
374.60	409.59
374.79	395.55
374.99	409.59
375.19	386.19
375.38	458.74
375.58	397.89
375.78	475.13
375.97	442.36
376.17	454.06
376.37	505.56
376.56	433.00
376.76	447.04
376.95	402.57
377.15	395.55
377.35	388.53
377.54	404.91
377.74	372.15
377.93	411.93
378.13	507.90
378.33	512.58
378.52	514.92
378.72	456.40
378.91	395.55
379.11	388.53
379.31	535.98
379.50	461.09
379.70	517.26
379.89	552.37
380.09	479.81
380.28	430.66
380.48	519.60
380.68	505.56
380.87	533.64
381.07	451.72
381.26	477.47
381.46	514.92
381.65	486.83
381.85	491.51
382.04	477.47
382.24	587.47
382.43	545.34
382.63	561.73
382.83	517.26
383.02	599.18
383.22	599.18
383.41	550.03
383.61	608.54
383.80	617.90
384.00	571.09
384.19	601.52
384.39	615.56
384.58	543.00
384.78	587.47
384.97	589.82
385.17	547.69
385.36	608.54
385.56	566.41
385.75	566.41
385.95	514.92
386.14	676.41
386.34	634.29
386.53	620.24
386.72	552.37
386.92	533.64
387.11	601.52
387.31	716.20
387.50	676.41
387.70	554.71
387.89	751.31
388.09	711.52
388.28	585.13
388.48	643.65
388.67	732.59
388.86	681.10
389.06	713.86
389.25	739.61
389.45	695.14
389.64	798.12
389.84	753.65
390.03	690.46
390.22	739.61
390.42	755.99
390.61	695.14
390.81	725.57
391.00	739.61
391.19	704.50
391.39	805.14
391.58	781.74
391.78	877.70
391.97	826.21
392.16	809.83
392.36	807.48
392.55	823.87
392.75	772.38
392.94	770.04
393.13	837.91
393.33	791.10
393.52	842.59
393.71	842.59
393.91	786.42
394.10	802.80
394.29	816.85
394.49	880.04
394.68	1011.11
394.88	884.72
395.07	870.68
395.26	870.68
395.46	903.45
395.65	926.85
395.84	917.49
396.04	947.92
396.23	952.60
396.42	954.94
396.62	903.45
396.81	994.73
397.00	952.60
397.19	999.41
397.39	1006.43
397.58	980.68
397.77	954.94
397.97	1022.81
398.16	940.90
398.35	1083.67
398.55	1050.90
398.74	1008.77
398.93	1093.03
399.12	1015.79
399.32	1170.27
399.51	1095.37
399.70	1181.97
399.90	1137.50
400.09	1125.80
400.28	1282.61
400.47	1139.84
400.67	1163.25
400.86	1172.61
401.05	1179.63
401.24	1275.59
401.44	1221.76
401.63	1228.78
401.82	1273.25
402.01	1252.19
402.21	1313.04
402.40	1343.47
402.59	1322.40
402.78	1277.93
402.97	1462.83
403.17	1320.06
403.36	1343.47
403.55	1317.72
403.74	1362.19
403.93	1390.28
404.13	1327.08
404.32	1432.41
404.51	1444.11
404.70	1465.18
404.89	1486.24
405.09	1540.07
405.28	1563.48
405.47	1568.16
405.66	1605.61
405.85	1582.20
406.05	1586.88
406.24	1652.42
406.43	1652.42
406.62	1593.90
406.81	1621.99
407.00	1626.67
407.20	1696.89
407.39	1680.50
407.58	1678.16
407.77	1657.10
407.96	1722.63
408.15	1720.29
408.34	1802.21
408.54	1830.30
408.73	1792.85
408.92	1846.68
409.11	1870.09
409.30	1872.43
409.49	1912.22
409.68	1970.73
409.87	1825.62
410.07	1902.86
410.26	1888.81
410.45	2047.97
410.64	1933.28
410.83	1977.75
411.02	2083.08
411.21	2204.78
411.40	2087.76
411.59	2104.14
411.78	2160.31
411.98	2176.70
412.17	2197.76
412.36	2083.08
412.55	2314.79
412.74	2375.64
412.93	2279.68
413.12	2279.68
413.31	2452.88
413.50	2216.49
413.69	2317.13
413.88	2462.24
414.07	2406.07
414.26	2438.84
414.45	2609.70
414.64	2457.56
414.83	2450.54
415.02	2574.59
415.22	2635.44
415.41	2628.42
415.60	2544.16
415.79	2609.70
415.98	2771.19
416.17	2689.28
416.36	2656.51
416.55	2633.10
416.74	2747.79
416.93	2778.22
417.12	2775.88
417.31	2939.71
417.50	2841.41
417.69	3030.99
417.88	2906.95
418.07	2935.03
418.26	2946.73
418.45	2991.20
418.64	3126.96
418.83	2888.22
419.02	3047.38
419.21	2970.14
419.39	3185.47
419.58	3045.04
419.77	3056.74
419.96	3173.77
420.15	3162.06
420.34	3176.11
420.53	3227.60
420.72	3358.67
420.91	3215.90
421.10	3234.62
421.29	3286.11
421.48	3199.51
421.67	3391.44
421.86	3309.52
422.05	3361.01
422.24	3368.03
422.43	3178.45
422.61	3265.05
422.80	3403.14
422.99	3419.52
423.18	3557.61
423.37	3515.48
423.56	3370.37
423.75	3384.41
423.94	3438.25
424.13	3337.60
424.32	3279.09
424.50	3356.33
424.69	3482.72
424.88	3520.17
425.07	3478.04
425.26	3162.06
425.45	3438.25
425.64	3449.95
425.83	3438.25
426.01	3536.55
426.20	3445.27
426.39	3513.14
426.58	3564.64
426.77	3454.63
426.96	3538.89
427.15	3461.65
427.33	3473.36
427.52	3634.85
427.71	3611.45
427.90	3707.41
428.09	3655.92
428.28	3686.34
428.46	3609.11
428.65	3831.46
428.84	3735.50
429.03	3847.84
429.22	3726.13
429.40	3805.71
429.59	3911.04
429.78	3733.15
429.97	3604.42
430.16	3742.52
430.34	3906.35
430.53	3960.19
430.72	4009.34
430.91	3812.73
431.10	3955.51
431.28	4030.40
431.47	3941.46
431.66	3936.78
431.85	4053.81
432.03	4189.56
432.22	4227.01
432.41	3964.87
432.60	4119.34
432.79	4135.73
432.97	4229.35
433.16	4255.09
433.35	4159.13
433.54	4278.50
433.72	4227.01
433.91	4215.30
434.10	4374.46
434.28	4322.97
434.47	4227.01
434.66	4194.24
434.85	4191.90
435.03	4416.59
435.22	4390.84
435.41	4540.64
435.59	4521.92
435.78	4369.78
435.97	4489.15
436.16	4418.93
436.34	4517.23
436.53	4379.14
436.72	4594.47
436.90	4416.59
437.09	4503.19
437.28	4561.70
437.46	4489.15
437.65	4657.67
437.84	4636.60
438.02	4683.41
438.21	4704.48
438.40	4641.28
438.58	4922.15
438.77	5020.45
438.96	4865.97
439.14	5067.26
439.33	4912.78
439.52	4994.70
439.70	5135.14
439.89	5081.30
440.08	5163.22
440.26	5214.71
440.45	5315.36
440.63	5109.39
440.82	5275.57
441.01	5224.08
441.19	5322.38
441.38	5334.08
441.57	5408.98
441.75	5369.19
441.94	5518.98
442.12	5598.56
442.31	5526.00
442.50	5514.30
442.68	5526.00
442.87	5596.22
443.05	5490.90
443.24	5802.19
443.43	5755.38
443.61	5830.27
443.80	5778.78
443.98	5654.73
444.17	5490.90
444.35	5750.70
444.54	5851.34
444.73	5830.27
444.91	5893.47
445.10	5823.25
445.28	5530.69
445.47	5762.40
445.65	5741.33
445.84	6043.26
446.02	5849.00
446.21	5921.56
446.39	5785.80
446.58	5966.03
446.77	5996.45
446.95	5827.93
447.14	5846.66
447.32	6024.54
447.51	5937.94
447.69	5982.41
447.88	6019.86
448.06	5977.73
448.25	5956.66
448.43	5923.90
448.62	5947.30
448.80	6015.18
448.99	6249.23
449.17	6106.46
449.36	6143.91
449.54	6221.14
449.73	6263.27
449.91	6235.19
450.10	6162.63
450.28	6167.31
450.46	6324.13
450.65	6279.66
450.83	6239.87
451.02	6232.85
451.20	6443.49
451.39	6331.15
451.57	6223.48
451.76	6443.49
451.94	6340.51
452.13	6537.12
452.31	6394.34
452.49	6546.48
452.68	6499.67
452.86	6651.80
453.05	6537.12
453.23	6633.08
453.42	6483.28
453.60	6530.09
453.78	6656.48
453.97	6609.67
454.15	6658.82
454.34	6656.48
454.52	6815.64
454.70	6715.00
454.89	6731.38
455.07	6867.13
455.26	6862.45
455.44	6923.30
455.62	7005.22
455.81	6841.39
455.99	6815.64
456.17	7096.50
456.36	6892.88
456.54	7190.13
456.73	7178.42
456.91	7239.28
457.09	7318.86
457.28	7269.70
457.46	7206.51
457.64	7211.19
457.83	7300.13
458.01	7323.54
458.19	7398.43
458.38	7262.68
458.56	7253.32
458.74	7548.23
458.93	7382.05
459.11	7494.40
459.29	7473.33
459.48	7571.63
459.66	7597.38
459.84	7578.65
460.03	7756.54
460.21	7543.55
460.39	7700.36
460.57	7508.44
460.76	7475.67
460.94	7676.96
461.12	7772.92
461.31	7786.96
461.49	7857.18
461.67	7747.17
461.85	8121.66
462.04	7829.09
462.22	8355.71
462.40	7854.84
462.59	7985.91
462.77	7997.61
462.95	7871.22
463.13	7939.10
463.32	8079.53
463.50	7976.55
463.68	8145.06
463.86	8119.32
464.05	8292.52
464.23	7999.95
464.41	8245.71
464.59	8119.32
464.78	8163.79
464.96	8273.79
465.14	8205.92
465.32	8365.07
465.50	8552.32
465.69	8446.99
465.87	8205.92
466.05	8519.55
466.23	8194.22
466.41	8463.38
466.60	8809.78
466.78	8374.44
466.96	8386.14
467.14	8439.97
467.32	8465.72
467.51	8746.58
467.69	8262.09
467.87	8580.40
468.05	8641.26
468.23	8765.31
468.41	8774.67
468.60	8732.54
468.78	8767.65
468.96	8683.39
469.14	8746.58
469.32	8840.20
469.50	8669.34
469.69	9053.19
469.87	8868.29
470.05	8868.29
470.23	9064.89
470.41	9114.05
470.59	9060.21
470.77	9057.87
470.95	9121.07
471.14	9259.16
471.32	9057.87
471.50	9327.03
471.68	9277.88
471.86	9458.10
472.04	9186.60
472.22	9717.90
472.40	9479.17
472.58	9556.41
472.77	9549.39
472.95	9722.59
473.13	9926.21
473.31	9612.58
473.49	9872.38
473.67	9912.17
473.85	9844.29
474.03	10061.96
474.21	10052.60
474.39	10071.33
474.57	10143.88
474.75	10296.02
474.93	10647.10
475.12	10380.28
475.30	10274.95
475.48	10256.23
475.66	10377.94
475.84	10478.58
476.02	10721.99
476.20	10586.24
476.38	10904.56
476.56	10832.00
476.74	10857.75
476.92	10904.56
477.10	10836.68
477.28	10843.70
477.46	11094.14
477.64	11187.76
477.82	11564.59
478.00	11702.68
478.18	11569.27
478.36	11716.72
478.54	11805.66
478.72	11749.49
478.90	12018.65
479.08	12077.16
479.26	12306.54
479.44	12217.60
479.62	12248.02
479.80	12252.70
479.98	12224.62
480.16	12692.73
480.34	12631.87
480.52	12812.09
480.70	12898.69
480.88	12528.89
481.06	13057.85
481.24	12875.29
481.41	12964.23
481.59	13121.04
481.77	13217.01
481.95	13205.30
482.13	13427.65
482.31	13472.12
482.49	13692.13
482.67	13635.96
482.85	14141.52
483.03	14174.28
483.21	14429.40
483.39	14569.83
483.57	14157.90
483.74	14347.48
483.92	14576.86
484.10	14581.54
484.28	14789.85
484.46	15105.82
484.64	15227.53
484.82	14913.89
485.00	15339.87
485.18	15800.96
485.35	15693.29
485.53	15508.39
485.71	15756.49
485.89	16098.20
486.07	16018.63
486.25	16098.20
486.43	16084.16
486.61	16299.49
486.78	16465.67
486.96	16685.68
487.14	16739.51
487.32	16919.73
487.50	17067.19
487.68	17111.66
487.85	17338.69
488.03	17727.22
488.21	17865.31
488.39	17963.61
488.57	17937.87
488.75	17752.96
488.92	18387.25
489.10	18288.95
489.28	18420.02
489.46	18785.14
489.64	18391.93
489.81	18970.04
489.99	18785.14
490.17	18885.78
490.35	19328.14
490.53	19246.23
490.70	19566.88
490.88	19147.92
491.06	19564.54
491.24	19541.13
491.41	19852.42
491.59	19513.05
491.77	19957.75
491.95	20315.85
492.13	20421.17
492.30	20437.56
492.48	20683.31
492.66	20833.11
492.84	20643.52
493.01	21153.76
493.19	21170.15
493.37	21081.21
493.54	21259.09
493.72	21336.32
493.90	21771.66
494.08	21551.65
494.25	21830.18
494.43	22155.51
494.61	22216.36
494.79	22672.77
494.96	22174.24
495.14	22441.06
495.32	22696.17
495.49	22642.34
495.67	22888.10
495.85	23070.66
496.02	23384.29
496.20	23016.83
496.38	23091.73
496.55	23566.85
496.73	23791.55
496.91	23744.73
497.09	23885.17
497.26	23924.96
497.44	23957.72
497.62	24030.28
497.79	24360.30
497.97	23908.57
498.14	24748.82
498.32	24538.18
498.50	24786.27
498.67	25078.84
498.85	24812.02
499.03	25362.04
499.20	24966.49
499.38	25366.73
499.56	25441.62
499.73	25348.00
499.91	25738.87
500.08	25450.99
500.26	25532.90
500.44	25685.04
500.61	25575.03
500.79	25909.73
500.97	26410.60
501.14	26616.57
501.32	26300.60
501.49	26197.62
501.67	26450.39
501.84	27005.10
502.02	26377.84
502.20	26532.31
502.37	27129.15
502.55	27063.61
502.72	26937.23
502.90	26979.36
503.07	27108.08
503.25	27199.37
503.43	27285.97
503.60	27461.51
503.78	27740.03
503.95	27391.29
504.13	27477.89
504.30	27735.35
504.48	27564.49
504.65	28107.49
504.83	27866.42
505.01	28538.15
505.18	28357.93
505.36	28648.16
505.53	28287.71
505.71	28411.76
505.88	28603.69
506.06	28982.85
506.23	29142.01
506.41	28900.94
506.58	28982.85
506.76	28964.13
506.93	28886.89
507.11	29123.29
507.28	29493.09
507.46	29469.69
507.63	29439.26
507.81	29919.07
507.98	30029.07
508.16	29750.55
508.33	29865.24
508.50	29869.92
508.68	30153.12
508.85	30448.03
509.03	30178.87
509.20	30639.95
509.38	30536.97
509.55	30298.23
509.73	30525.27
509.90	30448.03
510.08	30623.57
510.25	30937.20
510.42	30902.09
510.60	31257.85
510.77	31452.12
510.95	31295.30
511.12	31494.25
511.30	31126.78
511.47	31253.17
511.64	31601.91
511.82	31756.39
511.99	31519.99
512.17	32081.72
512.34	31995.12
512.51	31690.85
512.69	31931.93
512.86	32053.64
513.04	32346.20
513.21	32353.23
513.38	32463.23
513.56	32666.86
513.73	32643.45
513.90	32891.55
514.08	32601.32
514.25	32877.51
514.43	32622.39
514.60	33195.82
514.77	33085.81
514.95	33549.24
515.12	33170.07
515.29	33301.14
515.47	33493.07
515.64	33605.41
515.81	33682.65
515.99	33443.91
516.16	33780.95
516.33	33879.25
516.51	33778.61
516.68	33427.53
516.85	33535.20
517.03	33872.23
517.20	34022.03
517.37	34377.79
517.54	34675.04
517.72	34464.39
517.89	34410.56
518.06	34361.40
518.24	34469.07
518.41	34892.71
518.58	34373.11
518.75	34602.48
518.93	34710.14
519.10	34565.03
519.27	34939.52
519.45	35049.52
519.62	34574.39
519.79	35119.74
519.96	35187.61
520.14	35737.64
520.31	35618.27
520.48	35917.86
520.65	35353.79
520.83	35728.28
521.00	35599.55
521.17	35583.16
521.34	35952.97
521.52	36275.96
521.69	36217.45
521.86	36203.41
522.03	36343.84
522.20	36395.33
522.38	36713.64
522.55	36416.40
522.72	36484.27
522.89	36781.52
523.07	36613.00
523.24	36697.26
523.41	36510.02
523.58	36362.56
523.75	36943.02
523.92	36814.29
524.10	36830.67
524.27	37106.85
524.44	37474.32
524.61	38117.96
524.78	37614.75
524.96	37500.06
525.13	37764.54
525.30	37797.31
525.47	37670.92
525.64	37895.61
525.81	37635.81
525.98	38164.78
526.16	37841.78
526.33	37666.24
526.50	37846.46
526.67	37801.99
526.84	38506.49
527.01	38199.88
527.18	38206.90
527.36	38630.54
527.53	38330.95
527.70	38520.54
527.87	38717.14
528.04	38469.04
528.21	38581.39
528.38	38323.93
528.55	38658.63
528.72	38656.29
528.89	38890.34
529.07	38576.71
529.24	38689.06
529.41	39208.65
529.58	38941.83
529.75	38536.92
529.92	39140.78
530.09	39166.52
530.26	39466.11
530.43	39679.10
530.60	39016.73
530.77	39131.42
530.94	39349.09
531.11	39374.83
531.28	39587.82
531.46	39501.22
531.63	39431.01
531.80	39936.56
531.97	39718.89
532.14	39831.24
532.31	39725.91
532.48	39983.37
532.65	40432.75
532.82	39840.60
532.99	40402.33
533.16	40044.23
533.33	40442.12
533.50	40390.62
533.67	40453.82
533.84	40102.74
534.01	40046.57
534.18	40369.56
534.35	40790.86
534.52	40430.41
534.69	40624.68
534.86	40935.97
535.03	40772.13
535.20	40612.98
535.37	40484.25
535.54	40903.20
535.71	40832.99
535.88	40973.42
536.05	41357.27
536.22	41729.41
536.38	41305.77
536.55	40879.80
536.72	41483.66
536.89	40861.07
537.06	41614.72
537.23	41511.74
537.40	41523.44
537.57	41181.73
537.74	41439.18
537.91	41706.01
538.08	41902.61
538.25	42003.25
538.42	41916.65
538.59	41773.88
538.75	41710.69
538.92	41261.30
539.09	41720.05
539.26	41979.85
539.43	41876.86
539.60	41881.55
539.77	41528.13
539.94	42373.06
540.11	42031.34
540.28	41724.73
540.44	41862.82
540.61	41965.81
540.78	42557.96
540.95	42211.56
541.12	42361.36
541.29	42424.55
541.46	42469.02
541.62	42239.65
541.79	42417.53
541.96	42340.29
542.13	42555.62
542.30	42256.03
542.47	42911.38
542.63	42909.04
542.80	43166.50
542.97	42916.06
543.14	43065.86
543.31	43306.93
543.48	42979.26
543.64	43480.13
543.81	43299.91
543.98	43257.78
544.15	43152.46
544.32	43571.41
544.48	43753.97
544.65	43707.16
544.82	43997.39
544.99	43440.34
545.16	43805.47
545.32	43461.41
545.49	43721.21
545.66	43924.83
545.83	43915.47
546.00	44215.06
546.16	44023.14
546.33	43716.53
546.50	43449.70
546.67	43845.26
546.83	43370.13
547.00	43728.23
547.17	44245.49
547.34	43964.62
547.50	44320.38
547.67	44648.06
547.84	44432.73
548.00	44397.62
548.17	44112.08
548.34	44664.44
548.51	44699.55
548.67	44935.95
548.84	44402.30
549.01	44285.28
549.18	44680.83
549.34	44435.07
549.51	44481.88
549.68	44765.09
549.84	44715.93
550.01	44776.79
550.18	44748.70
550.34	44737.00
550.51	45258.94
550.68	45385.33
550.84	44861.05
551.01	45048.29
551.18	44655.08
551.34	44556.78
551.51	44884.45
551.68	45291.71
551.84	45492.99
552.01	45116.17
552.18	45041.27
552.34	44957.01
552.51	45336.18
552.68	44776.79
552.84	45523.42
553.01	45771.52
553.18	45457.88
553.34	45261.28
553.51	45551.51
553.67	45415.76
553.84	46073.45
554.01	45532.78
554.17	45406.39
554.34	45577.25
554.51	45792.58
554.67	45993.87
554.84	45663.85
555.00	45446.18
555.17	45553.85
555.33	45930.67
555.50	45642.79
555.67	45780.88
555.83	45453.20
556.00	45914.29
556.16	46230.26
556.33	45865.14
556.50	45762.15
556.66	45982.16
556.83	45937.69
556.99	46349.63
557.16	46534.53
557.32	46148.34
557.49	46511.13
557.65	45823.01
557.82	46223.24
557.98	46241.96
558.15	46323.88
558.32	46143.66
558.48	46101.53
558.65	46660.92
558.81	46382.40
558.98	46511.13
559.14	46370.69
559.31	46096.85
559.47	46239.62
559.64	46237.28
559.80	46405.80
559.97	46534.53
560.13	46305.16
560.30	46698.37
560.46	46630.49
560.63	46492.40
560.79	46967.53
560.96	46274.73
561.12	46433.89
561.29	46356.65
561.45	46487.72
561.61	46511.13
561.78	46955.83
561.94	46618.79
562.11	46806.03
562.27	46209.20
562.44	46616.45
562.60	46347.29
562.77	46829.44
562.93	46749.86
563.10	47023.70
563.26	46653.90
563.42	47337.33
563.59	46817.74
563.75	46607.09
563.92	46511.13
564.08	46997.96
564.24	46845.82
564.41	46829.44
564.57	46550.91
564.74	46831.78
564.90	46892.63
565.07	47028.38
565.23	47161.79
565.39	46909.02
565.56	46621.13
565.72	46976.89
565.88	46628.15
566.05	46677.30
566.21	47075.19
566.38	47189.88
566.54	47037.75
566.70	46862.21
566.87	47180.52
567.03	47049.45
567.19	47182.86
567.36	47054.13
567.52	46630.49
567.68	47487.13
567.85	46995.62
568.01	46962.85
568.17	47105.62
568.34	47007.32
568.50	47166.48
568.66	47349.04
568.83	47482.45
568.99	47288.18
569.15	46958.17
569.32	46995.62
569.48	46934.76
569.64	47517.56
569.81	47351.38
569.97	47262.44
570.13	47648.63
570.30	47437.98
570.46	47533.94
570.62	47112.64
570.78	47445.00
570.95	46995.62
571.11	47346.70
571.27	47091.58
571.43	46988.60
571.60	47299.89
571.76	47302.23
571.92	47409.89
572.09	47480.11
572.25	47391.17
572.41	47084.56
572.57	47622.88
572.74	47775.02
572.90	47377.12
573.06	47229.67
573.22	47445.00
573.38	47594.79
573.55	47323.29
573.71	47758.63
573.87	47770.33
574.03	47269.46
574.20	47489.47
574.36	47578.41
574.52	47503.51
574.68	47358.40
574.84	47367.76
575.01	47786.72
575.17	47283.50
575.33	47047.11
575.49	47063.49
575.65	47580.75
575.82	47739.91
575.98	47487.13
576.14	47674.37
576.30	47576.07
576.46	47608.84
576.62	47374.78
576.79	47124.35
576.95	47103.28
577.11	47442.66
577.27	47791.40
577.43	47742.25
577.59	47704.80
577.75	47615.86
577.92	47309.25
578.08	47498.83
578.24	47636.92
578.40	47861.61
578.56	47873.32
578.72	47346.70
578.88	47449.68
579.04	47800.76
579.21	47590.11
579.37	47587.77
579.53	47452.02
579.69	47330.31
579.85	47281.16
580.01	47597.13
580.17	47693.10
580.33	47320.95
580.49	47849.91
580.65	47990.34
580.82	48161.20
580.98	47894.38
581.14	47901.40
581.30	47590.11
581.46	47505.85
581.62	47859.27
581.78	47224.99
581.94	47510.53
582.10	47693.10
582.26	47475.43
582.42	47601.82
582.58	48032.47
582.74	47526.92
582.90	47498.83
583.06	47798.42
583.22	47505.85
583.38	47732.89
583.54	47585.43
583.70	47973.96
583.86	47784.38
584.02	47421.59
584.18	47856.93
584.34	47983.32
584.50	48032.47
584.66	47852.25
584.82	47875.66
584.98	47466.06
585.14	47861.61
585.30	47524.58
585.46	47253.08
585.62	47985.66
585.78	47908.43
585.94	47775.02
586.10	47859.27
586.26	47840.55
586.42	47821.83
586.58	47894.38
586.74	47690.76
586.90	47576.07
587.06	47826.51
587.22	47634.58
587.38	47622.88
587.54	47985.66
587.70	48002.05
587.86	47714.16
588.02	47655.65
588.18	48151.84
588.34	48030.13
588.49	48067.58
588.65	47353.72
588.81	47547.98
588.97	48137.80
589.13	47714.16
589.29	47569.05
589.45	47707.14
589.61	47976.30
589.77	48182.27
589.93	48027.79
590.08	48193.97
590.24	48133.12
590.40	48060.56
590.56	48460.79
590.72	48163.54
590.88	47803.10
591.04	47899.06
591.20	48135.46
591.35	48472.49
591.51	48652.72
591.67	48341.42
591.83	48533.35
591.99	48133.12
592.15	48130.78
592.31	48170.57
592.46	47878.00
592.62	47873.32
592.78	47730.54
592.94	48240.78
593.10	48231.42
593.26	48456.11
593.41	48215.04
593.57	48292.27
593.73	48006.73
593.89	48156.52
594.05	47990.34
594.20	48233.76
594.36	47995.03
594.52	48041.84
594.68	47819.49
594.84	47885.02
594.99	48329.72
595.15	48055.88
595.31	48404.62
595.47	48687.82
595.62	48121.41
595.78	48603.56
595.94	48245.46
596.10	47854.59
596.25	47840.55
596.41	48135.46
596.57	47826.51
596.73	48245.46
596.88	47723.52
597.04	48341.42
597.20	48247.80
597.36	48266.53
597.51	48671.44
597.67	48348.45
597.83	47817.14
597.99	48271.21
598.14	48208.01
598.30	47838.21
598.46	48158.86
598.61	48046.52
598.77	48041.84
598.93	48081.63
599.09	48355.47
599.24	48846.98
599.40	48226.74
599.56	48224.40
599.71	48229.08
599.87	48273.55
600.03	48264.19
600.18	47913.11
600.34	48102.69
600.50	48177.59
600.65	47859.27
600.81	48701.87
600.97	48568.46
601.12	48463.13
601.28	48736.98
601.44	48388.24
601.59	48306.32
601.75	48074.60
601.91	48306.32
602.06	48587.18
602.22	47943.53
602.37	48109.71
602.53	48266.53
602.69	48596.54
602.84	48381.21
603.00	48343.77
603.16	48308.66
603.31	48411.64
603.47	48678.46
603.62	47711.82
603.78	48170.57
603.94	47870.98
604.09	47674.37
604.25	48006.73
604.40	47847.57
604.56	48116.73
604.71	48690.16
604.87	48371.85
605.03	48648.03
605.18	47992.68
605.34	47765.65
605.49	47866.30
605.65	47746.93
605.80	47931.83
605.96	47929.49
606.12	48095.67
606.27	48545.05
606.43	48053.54
606.58	48175.25
606.74	48292.27
606.89	47917.79
607.05	48044.18
607.20	48006.73
607.36	47849.91
607.51	47922.47
607.67	47590.11
607.82	47828.85
607.98	47854.59
608.13	47917.79
608.29	47819.49
608.44	47454.36
608.60	47807.78
608.75	47716.50
608.91	48182.27
609.06	48140.14
609.22	47679.05
609.37	47124.35
609.53	47327.97
609.68	47697.78
609.84	47510.53
609.99	48048.86
610.15	47866.30
610.30	47758.63
610.46	47613.52
610.61	47800.76
610.76	47510.53
610.92	47606.50
611.07	47215.63
611.23	47725.86
611.38	47435.64
611.54	47536.28
611.69	47487.13
611.84	47377.12
612.00	47580.75
612.15	47831.19
612.31	47718.84
612.46	47686.07
612.62	47784.38
612.77	47657.99
612.92	47728.20
613.08	47423.93
613.23	47241.37
613.39	47468.40
613.54	46892.63
613.69	47248.39
613.85	47248.39
614.00	47189.88
614.15	47409.89
614.31	47232.01
614.46	47232.01
614.62	47215.63
614.77	47384.15
614.92	47276.48
615.08	47292.86
615.23	47395.85
615.38	47166.48
615.54	46993.28
615.69	46859.87
615.84	47009.66
616.00	47180.52
616.15	47091.58
616.30	47318.61
616.46	47189.88
616.61	46934.76
616.76	47063.49
616.92	46857.52
617.07	47360.74
617.22	47000.30
617.37	46925.40
617.53	46731.14
617.68	46440.91
617.83	46894.97
617.99	46862.21
618.14	46831.78
618.29	46909.02
618.45	46607.09
618.60	46871.57
618.75	46672.62
618.90	46883.27
619.06	46534.53
619.21	46667.94
619.36	46635.17
619.51	46312.18
619.67	46277.07
619.82	46157.70
619.97	46302.82
620.12	46321.54
620.28	46459.63
620.43	46876.25
620.58	46602.41
620.73	46834.12
620.89	46714.75
621.04	46426.87
621.19	46623.47
621.34	46138.98
621.49	46204.52
621.65	46061.74
621.80	46667.94
621.95	46326.22
622.10	45984.51
622.25	46445.59
622.41	46382.40
622.56	46281.75
622.71	46340.27
622.86	46206.86
623.01	46087.49
623.16	46300.48
623.32	45916.63
623.47	45769.18
623.62	46143.66
623.77	45715.34
623.92	46206.86
624.07	45928.33
624.23	46429.21
624.38	46192.81
624.53	46134.30
624.68	45677.90
624.83	45858.12
624.98	46050.04
625.13	45132.55
625.29	45982.16
625.44	45958.76
625.59	45422.78
625.74	45687.26
625.89	45251.92
626.04	45242.56
626.19	45418.10
626.34	45581.93
626.49	45453.20
626.65	45401.71
626.80	45839.39
626.95	45595.98
627.10	45441.50
627.25	45308.09
627.40	45272.98
627.55	45277.66
627.70	45118.51
627.85	45008.50
628.00	45146.59
628.15	45305.75
628.30	45134.89
628.45	45083.40
628.60	44966.37
628.76	45305.75
628.91	45368.94
629.06	44765.09
629.21	44769.77
629.36	44538.05
629.51	44982.76
629.66	44914.88
629.81	44474.86
629.96	44851.69
630.11	44949.99
630.26	44807.22
630.41	44711.25
630.56	44516.99
630.71	44884.45
630.86	45088.08
631.01	44598.91
631.16	44739.34
631.31	44533.37
631.46	44364.85
631.61	44498.26
631.76	44481.88
631.91	44683.17
632.06	44835.30
632.21	44676.15
632.36	44414.01
632.51	44327.41
632.66	44423.37
632.81	43571.41
632.96	44318.04
633.10	44278.25
633.25	44449.11
633.40	44343.79
633.55	44378.90
633.70	44231.44
633.85	43927.17
634.00	43693.12
634.15	44020.80
634.30	44203.36
634.45	44149.53
634.60	44252.51
634.75	44013.77
634.90	44009.09
635.05	44245.49
635.19	44128.46
635.34	44252.51
635.49	44224.42
635.64	43700.14
635.79	44100.37
635.94	43803.13
636.09	43639.29
636.24	43512.90
636.39	43456.73
636.53	43985.69
636.68	43835.89
636.83	43325.66
636.98	43700.14
637.13	43550.35
637.28	43414.60
637.43	43587.80
637.57	43466.09
637.72	43393.53
637.87	43796.10
638.02	43665.03
638.17	43779.72
638.32	43381.83
638.46	43093.94
638.61	42852.87
638.76	43068.20
638.91	43316.29
639.06	43519.92
639.20	43498.86
639.35	43393.53
639.50	43690.78
639.65	43669.72
639.80	43648.65
639.94	43091.60
640.09	42969.90
640.24	42909.04
640.39	43122.03
640.54	43274.16
640.68	42796.70
640.83	42836.48
640.98	42859.89
641.13	42443.27
641.27	42967.55
641.42	42412.85
641.57	42955.85
641.72	42646.90
641.86	42663.28
642.01	42473.70
642.16	42679.67
642.31	43028.41
642.45	42263.05
642.60	42424.55
642.75	42609.45
642.90	42323.91
643.04	42719.46
643.19	41851.12
643.34	42422.21
643.48	42188.16
643.63	42466.68
643.78	42443.27
643.93	42511.15
644.07	42454.98
644.22	42476.04
644.37	42075.81
644.51	41984.53
644.66	42218.58
644.81	42244.33
644.95	42136.66
645.10	42026.66
645.25	42663.28
645.39	42684.35
645.54	42302.84
645.69	42408.17
645.83	42536.90
645.98	42344.97
646.13	42169.43
646.27	42190.50
646.42	42036.02
646.57	42225.60
646.71	42244.33
646.86	42300.50
647.00	42342.63
647.15	41720.05
647.30	41858.14
647.44	42026.66
647.59	41769.20
647.74	41724.73
647.88	41703.67
648.03	41799.63
648.17	42181.13
648.32	41584.30
648.47	42218.58
648.61	41612.38
648.76	41979.85
648.90	41738.77
649.05	41500.04
649.20	41677.92
649.34	41228.54
649.49	41474.29
649.63	41598.34
649.78	41794.95
649.92	41558.55
650.07	41897.93
650.21	41329.18
650.36	41467.27
650.51	41244.92
650.65	41806.65
650.80	41572.60
650.94	41415.78
651.09	41446.21
651.23	41394.71
651.38	41315.14
651.52	41015.55
651.67	41191.09
651.81	41141.94
651.96	41111.51
652.10	40718.30
652.25	40875.12
652.39	40896.18
652.54	40921.93
652.68	40973.42
652.83	41277.69
652.97	40432.75
653.12	40928.95
653.26	40187.00
653.41	40547.44
653.55	40598.93
653.70	40603.61
653.84	40266.58
653.99	40793.20
654.13	40692.55
654.27	40985.12
654.42	40610.64
654.56	40327.43
654.71	41085.76
654.85	40713.62
655.00	41060.02
655.14	41181.73
655.29	40294.66
655.43	40603.61
655.57	40273.60
655.72	40318.07
655.86	40044.23
656.01	40399.99
656.15	40449.14
656.30	40165.93
656.44	40212.74
656.58	40299.34
656.73	39971.67
656.87	40268.92
657.01	40292.32
657.16	40517.01
657.30	40687.87
657.45	40201.04
657.59	40069.97
657.73	39981.03
657.88	39887.41
658.02	39489.52
658.16	40058.27
658.31	39571.44
658.45	39885.07
658.60	39536.33
658.74	39943.58
658.88	39786.77
659.03	39807.83
659.17	39707.19
659.31	39976.35
659.46	39075.24
659.60	39246.10
659.74	39552.71
659.89	39344.41
660.03	39473.13
660.17	39175.89
660.32	39133.76
660.46	39580.80
660.60	38838.85
660.74	38873.96
660.89	39232.06
661.03	39026.09
661.17	39058.86
661.32	39180.57
661.46	39082.27
661.60	38906.73
661.74	39096.31
661.89	39278.87
662.03	38616.50
662.17	38227.97
662.31	38579.05
662.46	38719.48
662.60	38476.07
662.74	38328.61
662.88	38515.86
663.03	38195.20
663.17	37942.42
663.31	38188.18
663.45	38085.20
663.60	37886.25
663.74	37912.00
663.88	38139.03
664.02	37759.86
664.17	38330.95
664.31	38012.64
664.45	38124.99
664.59	37617.09
664.73	37804.33
664.88	37965.83
665.02	37057.70
665.16	37570.28
665.30	37425.17
665.44	37589.00
665.59	37296.44
665.73	37612.41
665.87	37165.37
666.01	37048.34
666.15	37214.52
666.29	37198.13
666.44	37474.32
666.58	37242.60
666.72	36907.91
666.86	37188.77
667.00	37249.63
667.14	37193.45
667.28	37228.56
667.43	36730.03
667.57	36692.58
667.71	36868.12
667.85	36802.58
667.99	36596.62
668.13	36783.86
668.27	36781.52
668.41	36180.00
668.56	36458.52
668.70	36627.04
668.84	36472.57
668.98	36486.61
669.12	36336.82
669.26	36620.02
669.40	36210.43
669.54	36062.97
669.68	35889.77
669.82	35959.99
669.96	35835.94
670.10	35718.92
670.25	36072.34
670.39	35674.45
670.53	35117.40
670.67	35215.70
670.81	35489.54
670.95	35409.96
671.09	35475.50
671.23	35388.90
671.37	35648.70
671.51	35681.47
671.65	35580.82
671.79	35012.07
671.93	35147.82
672.07	34782.70
672.21	34789.72
672.35	34288.85
672.49	34195.23
672.63	34583.76
672.77	34490.13
672.91	34148.42
673.05	34857.60
673.19	34658.65
673.33	34710.14
673.47	34419.92
673.61	34487.79
673.75	34242.04
673.89	34323.96
674.03	34274.80
674.17	34412.90
674.31	33963.51
674.45	33699.03
674.59	33472.00
674.73	33890.96
674.87	33659.24
675.01	33467.32
675.15	33514.13
675.29	33460.30
675.43	33289.44
675.56	33130.28
675.70	33219.22
675.84	33116.24
675.98	32503.02
676.12	33179.43
676.26	32664.52
676.40	33029.64
676.54	32634.09
676.68	32701.96
676.82	32369.61
676.96	32121.51
677.10	32271.31
677.23	31873.42
677.37	32025.55
677.51	32086.40
677.65	31625.32
677.79	32100.45
677.93	32067.68
678.07	31770.43
678.21	31625.32
678.34	31641.70
678.48	31639.36
678.62	31400.63
678.76	31388.92
678.90	31377.22
679.04	30923.16
679.18	31351.48
679.31	30354.41
679.45	30583.78
679.59	30518.25
679.73	30864.64
679.87	30445.69
680.00	30501.86
680.14	29996.31
680.28	29977.58
680.42	30298.23
680.56	30380.15
680.70	29926.09
680.83	30169.51
680.97	29809.06
681.11	30204.61
681.25	29495.43
681.39	29392.45
681.52	29724.80
681.66	29191.16
681.80	28765.18
681.94	29261.38
682.07	29167.76
682.21	28847.10
682.35	28809.65
682.49	28919.66
682.62	28872.85
682.76	28922.00
682.90	28519.43
683.04	28680.92
683.17	28524.11
683.31	28652.84
683.45	28685.61
683.59	28107.49
683.72	28198.77
683.86	28226.86
684.00	28203.46
684.13	27520.02
684.27	27365.54
684.41	27683.86
684.55	27386.61
684.68	27433.42
684.82	27166.60
684.96	27101.06
685.09	27026.17
685.23	27285.97
685.37	26831.90
685.50	27168.94
685.64	27124.47
685.78	26890.41
685.91	26684.45
686.05	26906.80
686.19	26625.93
686.32	27089.36
686.46	26078.25
686.60	26001.01
686.73	25984.63
686.87	25883.98
687.01	25546.95
687.14	25961.22
687.28	25436.94
687.42	25507.16
687.55	25289.49
687.69	25593.76
687.82	25610.14
687.96	25219.27
688.10	24964.15
688.23	25238.00
688.37	25158.42
688.50	25067.14
688.64	25280.13
688.78	24601.37
688.91	24622.44
689.05	24659.88
689.18	24814.36
689.32	23985.81
689.46	24180.07
689.59	24364.98
689.73	24144.97
689.86	24339.23
690.00	24060.71
690.13	24020.92
690.27	23892.19
690.41	23810.27
690.54	23679.20
690.68	23543.45
690.81	23733.03
690.95	23756.44
691.08	23482.59
691.22	23307.05
691.35	23297.69
691.49	23346.84
691.62	23318.76
691.76	22590.85
691.89	22878.74
692.03	22710.22
692.16	22513.61
692.30	22532.34
692.43	22178.92
692.57	22382.54
692.70	22466.80
692.84	22377.86
692.97	22244.45
693.11	22169.55
693.24	22408.29
693.38	22471.48
693.51	21942.52
693.65	22064.23
693.78	21766.98
693.92	21855.92
694.05	21525.91
694.19	21539.95
694.32	21102.27
694.45	21153.76
694.59	21130.36
694.72	20940.77
694.86	20767.57
694.99	20929.07
695.13	21097.59
695.26	20355.64
695.39	20697.36
695.53	20624.80
695.66	20592.03
695.80	20498.41
695.93	20634.16
696.07	20898.64
696.20	20306.49
696.33	20210.53
696.47	20166.06
696.60	20046.69
696.73	20163.72
696.87	19676.88
697.00	19899.23
697.14	19669.86
697.27	19293.04
697.40	19262.61
697.54	19250.91
697.67	19082.39
697.80	18888.12
697.94	19293.04
698.07	19105.79
698.21	18867.06
698.34	19157.28
698.47	19360.91
698.61	18885.78
698.74	18796.84
698.87	18972.38
699.01	18686.84
699.14	18707.90
699.27	18415.34
699.40	18518.32
699.54	18022.12
699.67	17984.68
699.80	17881.69
699.94	18228.09
700.07	18066.60
700.20	17956.59
700.34	17685.09
700.47	17521.25
700.60	17710.83
700.73	17914.46
700.87	17617.21
701.00	17488.48
701.13	17514.23
701.26	17238.05
701.40	17245.07
701.53	17118.68
701.66	17453.37
701.79	16919.73
701.93	16704.40
702.06	16847.18
702.19	16709.08
702.32	16716.11
702.46	16404.81
702.59	16631.85
702.72	16386.09
702.85	16322.90
702.99	16304.17
703.12	16409.50
703.25	16091.18
703.38	16049.05
703.51	16437.58
703.65	16004.58
703.78	16208.21
703.91	15871.17
704.04	15908.62
704.17	15742.44
704.31	15452.22
704.44	15578.61
704.57	15688.61
704.70	15267.31
704.83	15276.68
704.96	15384.34
705.10	15154.97
705.23	14963.04
>>>>>End Processed Spectral Data<<<<<
