SpectraSuite Data File
++++++++++++++++++++++++++++++++++++
Date: Fri Oct 04 11:48:29 GMT-05:00 2013
User: price-jones
Dark Spectrum Present: No
Reference Spectrum Present: No
Number of Sampled Component Spectra: 1
Spectrometers: USB2+H05261
Integration Time (usec): 100000 (USB2+H05261)
Spectra Averaged: 1 (USB2+H05261)
Boxcar Smoothing: 0 (USB2+H05261)
Correct for Electrical Dark: No (USB2+H05261)
Strobe/Lamp Enabled: No (USB2+H05261)
Correct for Detector Non-linearity: No (USB2+H05261)
Correct for Stray Light: No (USB2+H05261)
Number of Pixels in Processed Spectrum: 2048
>>>>>Begin Processed Spectral Data<<<<<
365.73	42.13
365.92	42.13
366.12	42.13
366.32	0.00
366.52	0.00
366.72	0.00
366.91	0.00
367.11	0.00
367.31	0.00
367.51	0.00
367.70	0.00
367.90	0.00
368.10	0.00
368.30	0.00
368.49	0.00
368.69	0.00
368.89	0.00
369.09	0.00
369.28	11.70
369.48	0.00
369.68	0.00
369.87	0.00
370.07	11.70
370.27	18.72
370.47	124.05
370.66	367.46
370.86	397.89
371.06	409.59
371.25	444.70
371.45	397.89
371.65	496.19
371.84	465.77
372.04	416.62
372.24	461.09
372.44	479.81
372.63	592.16
372.83	528.96
373.03	535.98
373.22	456.40
373.42	484.49
373.62	517.26
373.81	528.96
374.01	578.11
374.21	603.86
374.40	596.84
374.60	599.18
374.79	566.41
374.99	669.39
375.19	629.60
375.38	561.73
375.58	674.07
375.78	638.97
375.97	641.31
376.17	580.45
376.37	617.90
376.56	676.41
376.76	636.63
376.95	645.99
377.15	650.67
377.35	765.36
377.54	643.65
377.74	695.14
377.93	697.48
378.13	702.16
378.33	767.70
378.52	739.61
378.72	697.48
378.91	791.10
379.11	709.18
379.31	734.93
379.50	669.39
379.70	814.51
379.89	692.80
380.09	608.54
380.28	744.29
380.48	788.76
380.68	697.48
380.87	671.73
381.07	690.46
381.26	828.55
381.46	770.04
381.65	854.30
381.85	765.36
382.04	772.38
382.24	833.23
382.43	779.40
382.63	791.10
382.83	800.46
383.02	868.34
383.22	908.13
383.41	805.14
383.61	922.17
383.80	814.51
384.00	889.40
384.19	924.51
384.39	905.79
384.58	826.21
384.78	858.98
384.97	840.25
385.17	922.17
385.36	912.81
385.56	957.28
385.75	915.15
385.95	952.60
386.14	1001.75
386.34	971.32
386.53	887.06
386.72	936.21
386.92	1121.12
387.11	849.61
387.31	1001.75
387.50	950.26
387.70	961.96
387.89	1034.52
388.09	992.39
388.28	1048.56
388.48	1067.28
388.67	1086.01
388.86	1071.97
389.06	1097.71
389.25	1064.94
389.45	1069.62
389.64	1135.16
389.84	1118.78
390.03	1167.93
390.22	1165.59
390.42	1111.75
390.61	1174.95
390.81	1062.60
391.00	1102.39
391.19	1247.51
391.39	1109.41
391.58	1167.93
391.78	1193.67
391.97	1139.84
392.16	1184.31
392.36	1252.19
392.55	1219.42
392.75	1273.25
392.94	1179.63
393.13	1387.94
393.33	1200.69
393.52	1184.31
393.71	1366.87
393.91	1266.23
394.10	1299.00
394.29	1284.95
394.49	1315.38
394.68	1343.47
394.88	1291.98
395.07	1385.60
395.26	1315.38
395.46	1355.17
395.65	1387.94
395.84	1507.30
396.04	1526.03
396.23	1416.02
396.42	1479.22
396.62	1486.24
396.81	1502.62
397.00	1486.24
397.19	1481.56
397.39	1439.43
397.58	1486.24
397.77	1488.58
397.97	1561.14
398.16	1568.16
398.35	1547.09
398.55	1589.22
398.74	1626.67
398.93	1596.25
399.12	1589.22
399.32	1661.78
399.51	1579.86
399.70	1837.32
399.90	1680.50
400.09	1706.25
400.28	1781.15
400.47	1729.66
400.67	1771.79
400.86	1682.85
401.05	1692.21
401.24	1769.44
401.44	1827.96
401.63	1926.26
401.82	1846.68
402.01	1741.36
402.21	1893.49
402.40	1795.19
402.59	1881.79
402.78	1963.71
402.97	1989.46
403.17	1987.11
403.36	1837.32
403.55	1996.48
403.74	2017.54
403.93	1975.41
404.13	2040.95
404.32	2078.40
404.51	2059.67
404.70	2104.14
404.89	2083.08
405.09	2242.23
405.28	2101.80
405.47	2059.67
405.66	2087.76
405.85	2127.55
406.05	2188.40
406.24	2150.95
406.43	2232.87
406.62	2270.32
406.81	2415.43
407.00	2289.04
407.20	2235.21
407.39	2200.10
407.58	2331.17
407.77	2406.07
407.96	2424.80
408.15	2464.58
408.34	2406.07
408.54	2436.50
408.73	2565.23
408.92	2436.50
409.11	2462.24
409.30	2469.27
409.49	2581.61
409.68	2525.44
409.87	2548.84
410.07	2693.96
410.26	2593.31
410.45	2806.30
410.64	2562.89
410.83	2747.79
411.02	2698.64
411.21	2888.22
411.40	2759.49
411.59	2696.30
411.78	2810.98
411.98	2836.73
412.17	2839.07
412.36	2935.03
412.55	2956.10
412.74	2876.52
412.93	3049.72
413.12	3009.93
413.31	3145.68
413.50	3035.67
413.69	3185.47
413.88	3187.81
414.07	3199.51
414.26	3208.87
414.45	3279.09
414.64	3274.41
414.83	3463.99
415.02	3365.69
415.22	3351.65
415.41	3459.31
415.60	3346.97
415.79	3379.73
415.98	3517.83
416.17	3599.74
416.36	3487.40
416.55	3632.51
416.74	3627.83
416.93	3819.75
417.12	3782.31
417.31	3712.09
417.50	3655.92
417.69	3840.82
417.88	3840.82
418.07	3721.45
418.26	3810.39
418.45	3904.01
418.64	3906.35
418.83	3983.59
419.02	3850.18
419.21	3990.61
419.39	4011.68
419.58	3892.31
419.77	3922.74
419.96	4133.39
420.15	4149.77
420.34	4049.13
420.53	4219.99
420.72	4191.90
420.91	4248.07
421.10	4241.05
421.29	4304.25
421.48	4133.39
421.67	4224.67
421.86	4187.22
422.05	4414.25
422.24	4461.06
422.43	4367.44
422.61	4304.25
422.80	4397.87
422.99	4372.12
423.18	4416.59
423.37	4475.10
423.56	4334.67
423.75	4388.50
423.94	4400.21
424.13	4023.38
424.32	4154.45
424.50	4465.74
424.69	4435.32
424.88	4519.57
425.07	4339.35
425.26	4362.76
425.45	4414.25
425.64	4411.91
425.83	4423.61
426.01	4479.79
426.20	4395.53
426.39	4552.34
426.58	4533.62
426.77	4538.30
426.96	4620.22
427.15	4463.40
427.33	4547.66
427.52	4479.79
427.71	4582.77
427.90	4772.35
428.09	4730.22
428.28	4690.43
428.46	4777.03
428.65	4809.80
428.84	4856.61
429.03	4915.12
429.22	4746.61
429.40	4938.53
429.59	4915.12
429.78	4781.71
429.97	4760.65
430.16	4725.54
430.34	4947.89
430.53	5116.41
430.72	4999.38
430.91	5060.24
431.10	5100.03
431.28	5212.37
431.47	5170.24
431.66	5224.08
431.85	5153.86
432.03	5355.15
432.22	5245.14
432.41	5315.36
432.60	5359.83
432.79	5336.42
432.97	5277.91
433.16	5373.87
433.35	5352.81
433.54	5301.31
433.72	5486.22
433.91	5458.13
434.10	5568.13
434.28	5378.55
434.47	5469.83
434.66	5563.45
434.85	5561.11
435.03	5584.52
435.22	5628.99
435.41	5790.49
435.59	5650.05
435.78	5863.04
435.97	5734.31
436.16	5722.61
436.34	5895.81
436.53	5746.02
436.72	5865.38
436.90	5785.80
437.09	5935.60
437.28	5858.36
437.46	5851.34
437.65	5994.11
437.84	5970.71
438.02	6230.51
438.21	6057.31
438.40	6026.88
438.58	6307.74
438.77	6300.72
438.96	6274.98
439.14	6434.13
439.33	6504.35
439.52	6399.02
439.70	6630.74
439.89	6565.20
440.08	6509.03
440.26	6516.05
440.45	6588.61
440.63	6553.50
440.82	6815.64
441.01	6700.95
441.19	6780.53
441.38	6965.43
441.57	7033.31
441.75	6895.22
441.94	7080.12
442.12	6979.48
442.31	7255.66
442.50	7276.73
442.68	7293.11
442.87	7360.98
443.05	7204.17
443.24	7349.28
443.43	7393.75
443.61	7297.79
443.80	7555.25
443.98	7365.67
444.17	7311.83
444.35	7363.33
444.54	7648.87
444.73	7581.00
444.91	7627.81
445.10	7508.44
445.28	7571.63
445.47	7524.82
445.65	7604.40
445.84	7372.69
446.02	7641.85
446.21	7602.06
446.39	7555.25
446.58	7559.93
446.77	7543.55
446.95	7466.31
447.14	7639.51
447.32	7782.28
447.51	7658.23
447.69	7499.08
447.88	8049.10
448.06	7627.81
448.25	7681.64
448.43	7918.03
448.62	7674.62
448.80	7843.14
448.99	7861.86
449.17	7777.60
449.36	7850.16
449.54	8147.40
449.73	8081.87
449.91	8133.36
450.10	8119.32
450.28	8175.49
450.46	8133.36
450.65	8084.21
450.83	8142.72
451.02	8060.80
451.20	8140.38
451.39	8217.62
451.57	8397.84
451.76	8234.00
451.94	8194.22
452.13	8594.45
452.31	8381.46
452.49	8362.73
452.68	8674.03
452.86	8486.78
453.05	8634.24
453.23	8503.17
453.42	8376.78
453.60	8512.53
453.78	8566.36
453.97	8458.70
454.15	8486.78
454.34	8559.34
454.52	8809.78
454.70	8777.01
454.89	8744.24
455.07	8800.41
455.26	8894.04
455.44	9109.36
455.62	9034.47
455.81	8842.54
455.99	9053.19
456.17	9186.60
456.36	9153.84
456.54	9282.56
456.73	9289.59
456.91	9509.60
457.09	9504.92
457.28	9444.06
457.46	9462.79
457.64	9509.60
457.83	9626.62
458.01	9324.69
458.19	9659.39
458.38	9729.61
458.56	9668.75
458.74	9535.34
458.93	9708.54
459.11	9479.17
459.29	9846.63
459.48	9928.55
459.66	9963.66
459.84	9701.52
460.03	10033.88
460.21	9844.29
460.39	9982.38
460.57	9888.76
460.76	10052.60
460.94	9982.38
461.12	10190.69
461.31	10071.33
461.49	10141.54
461.67	10274.95
461.85	10408.36
462.04	10132.18
462.22	10782.85
462.40	10497.30
462.59	10382.62
462.77	10443.47
462.95	10630.71
463.13	10441.13
463.32	10525.39
463.50	10726.68
463.68	10726.68
463.86	10518.37
464.05	10452.83
464.23	10410.70
464.41	10899.87
464.59	10658.80
464.78	10759.44
464.96	10738.38
465.14	10609.65
465.32	11133.93
465.50	10963.07
465.69	10949.03
465.87	10703.27
466.05	11171.38
466.23	10920.94
466.41	11014.56
466.60	11459.26
466.78	11080.10
466.96	10871.79
467.14	11026.26
467.32	11145.63
467.51	11447.56
467.69	11000.52
467.87	11218.19
468.05	11178.40
468.23	11190.10
468.41	11302.45
468.60	11307.13
468.78	11742.47
468.96	11414.79
469.14	11576.29
469.32	11658.21
469.50	11496.71
469.69	11552.88
469.87	11920.35
470.05	11918.01
470.23	12224.62
470.41	11969.50
470.59	11812.68
470.77	11887.58
470.95	11939.07
471.14	12142.70
471.32	11943.75
471.50	12561.66
471.68	12290.15
471.86	12332.28
472.04	12650.60
472.22	12636.55
472.40	12393.14
472.58	12603.78
472.77	12248.02
472.95	12879.97
473.13	13088.28
473.31	12664.64
473.49	12905.71
473.67	12894.01
473.85	13060.19
474.03	13111.68
474.21	13289.56
474.39	13315.31
474.57	13394.89
474.75	13603.19
474.93	13858.31
475.12	13558.72
475.30	13774.05
475.48	13717.88
475.66	13671.07
475.84	13912.14
476.02	13989.38
476.20	13792.78
476.38	14085.34
476.56	14347.48
476.74	14420.04
476.92	14452.81
477.10	14497.28
477.28	14508.98
477.46	14831.97
477.64	14874.10
477.82	15026.24
478.00	15250.93
478.18	15154.97
478.36	15377.32
478.54	15578.61
478.72	15637.12
478.90	15730.74
479.08	15957.77
479.26	16100.55
479.44	15997.56
479.62	16456.31
479.80	16379.07
479.98	16224.59
480.16	16704.40
480.34	16341.62
480.52	16826.11
480.70	16912.71
480.88	16720.79
481.06	17224.00
481.24	16961.86
481.41	17249.75
481.59	17699.13
481.77	17949.57
481.95	17720.20
482.13	17820.84
482.31	18059.57
482.49	18455.12
482.67	18501.93
482.85	18733.65
483.03	18822.59
483.21	18878.76
483.39	18902.17
483.57	18974.72
483.74	19398.36
483.92	19616.03
484.10	19080.05
484.28	19674.54
484.46	20496.07
484.64	20456.28
484.82	19978.81
485.00	20437.56
485.18	20652.89
485.35	20828.43
485.53	20886.94
485.71	21060.14
485.89	21397.18
486.07	21053.12
486.25	21502.50
486.43	21420.58
486.61	21668.68
486.78	21776.34
486.96	22033.80
487.14	22553.40
487.32	22579.15
487.50	22654.05
487.68	22939.59
487.85	23007.47
488.03	23496.64
488.21	23639.41
488.39	23711.97
488.57	23943.68
488.75	23679.20
488.92	24416.47
489.10	24507.75
489.28	24402.43
489.46	24786.27
489.64	24496.05
489.81	25619.50
489.99	25172.46
490.17	25671.00
490.35	25469.71
490.53	25851.22
490.70	26256.13
490.88	25937.82
491.06	26527.63
491.24	25984.63
491.41	26742.96
491.59	26974.67
491.77	26946.59
491.95	27131.49
492.13	27384.27
492.30	27683.86
492.48	27566.83
492.66	27428.74
492.84	27803.22
493.01	27969.40
493.19	28393.04
493.37	28489.00
493.54	28343.89
493.72	28474.96
493.90	28723.05
494.08	28947.75
494.25	29570.33
494.43	29752.89
494.61	30003.33
494.79	30050.14
494.96	29647.57
495.14	29638.20
495.32	30153.12
495.49	30232.70
495.67	30211.64
495.85	30747.62
496.02	31014.44
496.20	31108.06
496.38	31021.46
496.55	31281.26
496.73	31730.64
496.91	31669.79
497.09	31920.23
497.26	32339.18
497.44	31730.64
497.62	32046.62
497.79	32641.11
497.97	32769.84
498.14	33113.90
498.32	33088.15
498.50	33284.76
498.67	33179.43
498.85	33249.65
499.03	33537.54
499.20	33771.59
499.38	33689.67
499.56	34419.92
499.73	34405.88
499.91	33965.85
500.08	34368.43
500.26	33905.00
500.44	34321.62
500.61	34602.48
500.79	34953.56
500.97	35189.95
501.14	35470.82
501.32	35269.53
501.49	35187.61
501.67	35812.54
501.84	35707.21
502.02	35548.06
502.20	36154.26
502.37	36032.55
502.55	36385.97
502.72	36151.91
502.90	36631.72
503.07	36102.76
503.25	36573.21
503.43	36212.77
503.60	36694.92
503.78	37163.03
503.95	37010.89
504.13	37310.48
504.30	37095.15
504.48	37041.32
504.65	37703.69
504.83	37839.44
505.01	38082.86
505.18	37734.12
505.36	38024.34
505.53	37600.71
505.71	38569.69
505.88	38195.20
506.06	38164.78
506.23	38576.71
506.41	38487.77
506.58	38560.33
506.76	38768.63
506.93	39318.66
507.11	38675.01
507.28	38888.00
507.46	39086.95
507.63	39620.59
507.81	39749.32
507.98	39859.32
508.16	39702.51
508.33	39789.11
508.50	40208.06
508.68	40453.82
508.85	40432.75
509.03	40369.56
509.20	40680.85
509.38	41214.49
509.55	40914.90
509.73	40437.44
509.90	41041.29
510.08	41184.07
510.25	40971.08
510.42	41015.55
510.60	41305.77
510.77	41544.51
510.95	42384.76
511.12	41593.66
511.30	41923.68
511.47	41876.86
511.64	42300.50
511.82	42422.21
511.99	42031.34
512.17	42595.41
512.34	42494.77
512.51	43007.34
512.69	42696.05
512.86	42876.27
513.04	43819.51
513.21	43540.99
513.38	43611.20
513.56	43250.76
513.73	43356.08
513.90	43634.61
514.08	43253.10
514.25	43622.90
514.43	43660.35
514.60	43838.23
514.77	43817.17
514.95	44472.52
515.12	44041.86
515.29	44086.33
515.47	44989.78
515.64	44772.11
515.81	44418.69
515.99	44673.81
516.16	45411.07
516.33	44999.14
516.51	45158.30
516.68	45001.48
516.85	45177.02
517.03	45478.95
517.20	45949.40
517.37	45523.42
517.54	45890.88
517.72	45982.16
517.89	45413.41
518.06	45874.50
518.24	45701.30
518.41	45928.33
518.58	46225.58
518.75	46066.42
518.93	46148.34
519.10	45965.78
519.27	46628.15
519.45	46522.83
519.62	46337.93
519.79	46586.02
519.96	46454.95
520.14	47002.64
520.31	47028.38
520.48	47395.85
520.65	47206.26
520.83	47082.22
521.00	47367.76
521.17	47215.63
521.34	47292.86
521.52	47676.71
521.69	47501.17
521.86	47562.03
522.03	48252.48
522.20	48088.65
522.38	48217.38
522.55	48507.60
522.72	48037.16
522.89	48456.11
523.07	48601.22
523.24	48203.33
523.41	48891.45
523.58	48362.49
523.75	48266.53
523.92	48355.47
524.10	48388.24
524.27	48708.89
524.44	48914.86
524.61	49109.12
524.78	48938.26
524.96	49263.60
525.13	49188.70
525.30	49111.46
525.47	49223.81
525.64	49427.43
525.81	49659.15
525.98	50003.20
526.16	49631.06
526.33	49804.26
526.50	49937.67
526.67	49645.10
526.84	49834.69
527.01	49794.90
527.18	49944.69
527.36	50183.43
527.53	50422.16
527.70	50553.23
527.87	50356.63
528.04	50195.13
528.21	50342.58
528.38	50113.21
528.55	50569.61
528.72	50471.31
528.89	50466.63
529.07	50618.77
529.24	50735.79
529.41	51033.04
529.58	50803.67
529.75	50855.16
529.92	51028.36
530.09	50901.97
530.26	50988.57
530.43	51175.81
530.60	51379.44
530.77	50976.87
530.94	51077.51
531.11	51360.72
531.28	51007.29
531.46	51304.54
531.63	51297.52
531.80	51526.89
531.97	51800.74
532.14	51693.07
532.31	51641.58
532.48	51805.42
532.65	51536.26
532.82	51543.28
532.99	52055.85
533.16	51908.40
533.33	52018.41
533.50	52299.27
533.67	52310.97
533.84	52044.15
534.01	52142.45
534.18	52226.71
534.35	52170.54
534.52	52449.06
534.69	52306.29
534.86	52708.86
535.03	52418.64
535.20	52697.16
535.37	52706.52
535.54	52779.08
535.71	52596.52
535.88	52692.48
536.05	52493.54
536.22	52823.55
536.38	52963.98
536.55	52907.81
536.72	53090.37
536.89	52804.83
537.06	52973.34
537.23	52980.37
537.40	53043.56
537.57	52961.64
537.74	53151.23
537.91	53539.75
538.08	53247.19
538.25	53169.95
538.42	53174.63
538.59	53499.97
538.75	53022.50
538.92	53371.24
539.09	53476.56
539.26	53624.01
539.43	53556.14
539.60	53759.76
539.77	53925.94
539.94	53954.03
540.11	53682.53
540.28	53666.14
540.44	53544.44
540.61	53642.74
540.78	54000.84
540.95	54017.22
541.12	54122.55
541.29	54150.63
541.46	54258.30
541.62	53717.64
541.79	53954.03
541.96	53801.89
542.13	53949.35
542.30	54183.40
542.47	54387.03
542.63	54562.57
542.80	54405.75
542.97	54726.41
543.14	54644.49
543.31	54466.61
543.48	54415.11
543.64	54738.11
543.81	54932.37
543.98	54930.03
544.15	54820.03
544.32	55185.15
544.48	55112.59
544.65	54770.88
544.82	55168.77
544.99	54571.93
545.16	54838.75
545.32	55159.41
545.49	55250.69
545.66	55161.75
545.83	55327.92
546.00	55529.21
546.16	55000.25
546.33	55077.49
546.50	54609.38
546.67	55323.24
546.83	54920.67
547.00	55341.97
547.17	55576.02
547.34	55166.43
547.50	55496.44
547.67	55629.85
547.84	55372.39
548.00	55583.04
548.17	56016.04
548.34	55632.19
548.51	55793.69
548.67	55910.72
548.84	55676.66
549.01	55714.11
549.18	55751.56
549.34	55957.53
549.51	55618.15
549.68	55667.30
549.84	55735.18
550.01	55821.78
550.18	55803.05
550.34	55763.26
550.51	55978.59
550.68	56130.73
550.84	55786.67
551.01	55854.54
551.18	55772.63
551.34	55863.91
551.51	55964.55
551.68	56156.47
551.84	56486.49
552.01	56158.81
552.18	56435.00
552.34	56062.85
552.51	56320.31
552.68	56292.22
552.84	56128.39
553.01	56528.62
553.18	56392.87
553.34	56430.32
553.51	56451.38
553.67	56678.41
553.84	56704.16
554.01	56442.02
554.17	56591.81
554.34	56640.96
554.51	56509.89
554.67	56750.97
554.84	56954.60
555.00	56610.54
555.17	56645.65
555.33	56767.35
555.50	56706.50
555.67	56790.76
555.83	56671.39
556.00	56797.78
556.16	56938.21
556.33	56828.21
556.50	56636.28
556.66	56942.89
556.83	57006.09
556.99	57270.57
557.16	56935.87
557.32	57050.56
557.49	57172.27
557.65	56765.01
557.82	57024.81
557.98	57137.16
558.15	57048.22
558.32	57125.46
558.48	57172.27
558.65	57291.63
558.81	56952.26
558.98	57139.50
559.14	57310.36
559.31	57261.21
559.47	57322.06
559.64	57366.53
559.80	57506.96
559.97	57219.08
560.13	57345.47
560.30	57265.89
560.46	57481.22
560.63	57265.89
560.79	57382.91
560.96	57382.91
561.12	57645.05
561.29	57464.83
561.45	57474.20
561.61	57483.56
561.78	57553.77
561.94	57598.24
562.11	57506.96
562.27	57525.69
562.44	57485.90
562.60	57322.06
562.77	57411.00
562.93	57530.37
563.10	57851.02
563.26	57509.30
563.42	57846.34
563.59	57909.53
563.75	57539.73
563.92	57888.47
564.08	57691.86
564.24	57806.55
564.41	57668.46
564.57	57764.42
564.74	57839.32
564.90	57923.58
565.07	58024.22
565.23	57836.98
565.39	57888.47
565.56	57834.64
565.72	57614.63
565.88	57612.29
566.05	57787.83
566.21	57631.01
566.38	57766.76
566.54	57961.03
566.70	58150.61
566.87	58223.17
567.03	57982.09
567.19	58358.92
567.36	57968.05
567.52	57851.02
567.68	57991.45
567.85	57869.75
568.01	57783.15
568.17	57890.81
568.34	57956.35
568.50	58265.30
568.66	58141.25
568.83	57872.09
568.99	57975.07
569.15	58068.69
569.32	58066.35
569.48	57942.30
569.64	58337.85
569.81	57956.35
569.97	58213.80
570.13	58497.01
570.30	58461.90
570.46	58234.87
570.62	58075.71
570.78	58007.84
570.95	58136.57
571.11	58211.46
571.27	58075.71
571.43	58216.14
571.60	58260.62
571.76	58422.11
571.92	58176.36
572.09	58199.76
572.25	58230.19
572.41	58190.40
572.57	58003.16
572.74	58375.30
572.90	58295.72
573.06	58323.81
573.22	58281.68
573.38	58499.35
573.55	58281.68
573.71	58445.52
573.87	58691.27
574.03	58159.97
574.20	58253.59
574.36	58288.70
574.52	58155.29
574.68	58166.99
574.84	58237.21
575.01	58433.81
575.17	58564.88
575.33	58354.24
575.49	58206.78
575.65	58585.95
575.82	58478.28
575.98	58445.52
576.14	58333.17
576.30	58298.06
576.46	58403.39
576.62	58436.16
576.79	58258.27
576.95	58152.95
577.11	58457.22
577.27	58543.82
577.43	58607.01
577.59	58728.72
577.75	58625.74
577.92	58391.68
578.08	58174.02
578.24	58475.94
578.40	58401.05
578.56	58309.77
578.72	58291.04
578.88	58429.13
579.04	58789.58
579.21	58639.78
579.37	58520.41
579.53	58597.65
579.69	58218.49
579.85	58347.21
580.01	58637.44
580.17	58564.88
580.33	58468.92
580.49	58585.95
580.65	58862.13
580.82	58775.53
580.98	58707.66
581.14	58763.83
581.30	58691.27
581.46	58443.18
581.62	58356.58
581.78	58260.62
581.94	58871.49
582.10	58417.43
582.26	58913.62
582.42	58632.76
582.58	58710.00
582.74	58841.07
582.90	58815.32
583.06	58621.06
583.22	58731.06
583.38	58450.20
583.54	58642.12
583.70	58721.70
583.86	58763.83
584.02	58691.27
584.18	58782.55
584.34	58862.13
584.50	58712.34
584.66	58801.28
584.82	58548.50
584.98	58663.19
585.14	58667.87
585.30	58445.52
585.46	58527.44
585.62	58532.12
585.78	58857.45
585.94	58592.97
586.10	58592.97
586.26	58880.86
586.42	58702.98
586.58	58836.39
586.74	58747.45
586.90	58656.17
587.06	58646.80
587.22	58684.25
587.38	58670.21
587.54	58913.62
587.70	58890.22
587.86	58866.81
588.02	58862.13
588.18	59061.08
588.34	58803.62
588.49	58763.83
588.65	58672.55
588.81	58768.51
588.97	58731.06
589.13	58852.77
589.29	58724.04
589.45	58941.71
589.61	58927.67
589.77	59014.27
589.93	58899.58
590.08	59171.08
590.24	58948.73
590.40	59262.36
590.56	59206.19
590.72	58908.94
590.88	58698.30
591.04	59093.85
591.20	58965.12
591.35	59126.61
591.51	59320.88
591.67	59084.48
591.83	59253.00
591.99	59018.95
592.15	58965.12
592.31	59072.78
592.46	58906.60
592.62	58873.84
592.78	58925.33
592.94	59035.33
593.10	58969.80
593.26	59166.40
593.41	59243.64
593.57	59056.40
593.73	59304.49
593.89	59407.48
594.05	59098.53
594.20	59018.95
594.36	59051.72
594.52	58958.09
594.68	58967.46
594.84	59047.04
594.99	59306.83
595.15	59194.49
595.31	59372.37
595.47	59154.70
595.62	59135.98
595.78	58965.12
595.94	59344.28
596.10	59032.99
596.25	58972.14
596.41	59054.06
596.57	59063.42
596.73	59166.40
596.88	59068.10
597.04	59269.39
597.20	59442.59
597.36	59018.95
597.51	59281.09
597.67	59093.85
597.83	58960.44
597.99	59477.69
598.14	59091.51
598.30	59138.32
598.46	59189.81
598.61	59189.81
598.77	59182.79
598.93	59398.12
599.09	59236.62
599.24	59751.54
599.40	59189.81
599.56	59309.18
599.71	59192.15
599.87	59250.66
600.03	59086.82
600.18	59288.11
600.34	59121.93
600.50	59164.06
600.65	59372.37
600.81	59524.50
600.97	59480.03
601.12	59470.67
601.28	59377.05
601.44	59187.47
601.59	59482.37
601.75	59178.10
601.91	59419.18
602.06	59117.25
602.22	59234.28
602.37	59058.74
602.53	59358.33
602.69	59564.29
602.84	59241.30
603.00	59470.67
603.16	59444.93
603.31	59217.89
603.47	59465.99
603.62	59182.79
603.78	59367.69
603.94	59267.05
604.09	59178.10
604.25	59140.66
604.40	59152.36
604.56	59299.81
604.71	59461.31
604.87	59463.65
605.03	59440.24
605.18	59430.88
605.34	59421.52
605.49	58937.03
605.65	59107.89
605.80	58997.88
605.96	59138.32
606.12	59290.45
606.27	59306.83
606.43	59372.37
606.58	59325.56
606.74	59253.00
606.89	59412.16
607.05	59491.74
607.20	59227.26
607.36	59353.65
607.51	59082.14
607.67	59185.13
607.82	59025.97
607.98	59070.44
608.13	59194.49
608.29	59007.25
608.44	59112.57
608.60	59269.39
608.75	59344.28
608.91	59283.43
609.06	59035.33
609.22	59227.26
609.37	59068.10
609.53	58951.07
609.68	59250.66
609.84	59056.40
609.99	58939.37
610.15	59121.93
610.30	59182.79
610.46	59089.16
610.61	59058.74
610.76	59143.00
610.92	59260.02
611.07	59243.64
611.23	59117.25
611.38	59063.42
611.54	58939.37
611.69	59187.47
611.84	58972.14
612.00	59105.55
612.15	58892.56
612.31	59138.32
612.46	59150.02
612.62	59178.10
612.77	58904.26
612.92	59075.12
613.08	59018.95
613.23	59030.65
613.39	58958.09
613.54	58843.41
613.69	59004.91
613.85	58789.58
614.00	58930.01
614.15	58944.05
614.31	58848.09
614.46	59068.10
614.62	58808.30
614.77	58951.07
614.92	58955.75
615.08	58660.85
615.23	58897.24
615.38	58843.41
615.54	58759.15
615.69	58686.59
615.84	58726.38
616.00	58663.19
616.15	58581.27
616.30	58798.94
616.46	58773.19
616.61	58693.61
616.76	58880.86
616.92	58649.14
617.07	58805.96
617.22	58609.35
617.37	58614.04
617.53	58688.93
617.68	58590.63
617.83	58466.58
617.99	58812.98
618.14	58749.79
618.29	58595.31
618.45	58705.32
618.60	58712.34
618.75	58637.44
618.90	58628.08
619.06	58625.74
619.21	58710.00
619.36	58405.73
619.51	58447.86
619.67	58342.53
619.82	58424.45
619.97	58464.24
620.12	58368.28
620.28	58387.00
620.43	58609.35
620.58	58787.24
620.73	58611.70
620.89	58384.66
621.04	58426.79
621.19	58672.55
621.34	58405.73
621.49	58293.38
621.65	58181.04
621.80	58328.49
621.95	58206.78
622.10	58277.00
622.25	58436.16
622.41	58307.43
622.56	58239.55
622.71	58525.10
622.86	58227.85
623.01	58049.97
623.16	58071.03
623.32	57954.00
623.47	58082.73
623.62	58436.16
623.77	58110.82
623.92	58054.65
624.07	58101.46
624.23	57961.03
624.38	58328.49
624.53	58183.38
624.68	58262.96
624.83	58209.12
624.98	58007.84
625.13	57867.40
625.29	58089.76
625.44	57944.64
625.59	57776.12
625.74	57872.09
625.89	57853.36
626.04	57684.84
626.19	57944.64
626.34	57752.72
626.49	57558.45
626.65	57790.17
626.80	57907.19
626.95	57724.63
627.10	57783.15
627.25	57593.56
627.40	57790.17
627.55	57733.99
627.70	57364.19
627.85	57439.09
628.00	57146.52
628.15	57420.36
628.30	57483.56
628.45	57715.27
628.60	57521.01
628.76	57661.44
628.91	57689.52
629.06	57670.80
629.21	57710.59
629.36	57415.68
629.51	57565.48
629.66	57249.50
629.81	57361.85
629.96	57453.13
630.11	57408.66
630.26	57406.32
630.41	57228.44
630.56	57270.57
630.71	57579.52
630.86	57408.66
631.01	57476.54
631.16	57560.79
631.31	57296.31
631.46	57251.84
631.61	57609.95
631.76	57420.36
631.91	57186.31
632.06	57125.46
632.21	56975.66
632.36	57202.69
632.51	57237.80
632.66	57219.08
632.81	57279.93
632.96	57256.53
633.10	57200.35
633.25	57324.40
633.40	57200.35
633.55	57055.24
633.70	56889.06
633.85	56736.93
634.00	56678.41
634.15	56706.50
634.30	57097.37
634.45	57120.77
634.60	57120.77
634.75	57132.48
634.90	57195.67
635.05	57048.22
635.19	57230.78
635.34	57422.70
635.49	57017.79
635.64	56928.85
635.79	57071.62
635.94	56837.57
636.09	56685.43
636.24	56783.74
636.39	56505.21
636.53	56643.30
636.68	56704.16
636.83	56900.76
636.98	56982.68
637.13	56809.48
637.28	56828.21
637.43	56746.29
637.57	56750.97
637.72	56727.56
637.87	56680.75
638.02	56521.60
638.17	56587.13
638.32	56442.02
638.46	56172.86
638.61	56467.76
638.76	56205.62
638.91	56596.49
639.06	56633.94
639.20	56739.27
639.35	56605.86
639.50	56521.60
639.65	56687.78
639.80	56622.24
639.94	56179.88
640.09	56240.73
640.24	56243.07
640.39	55906.04
640.54	56016.04
640.68	56168.18
640.83	56055.83
640.98	56020.72
641.13	56205.62
641.27	56198.60
641.42	56016.04
641.57	55936.46
641.72	56282.86
641.86	56168.18
642.01	56200.94
642.16	56168.18
642.31	55920.08
642.45	56289.88
642.60	55884.97
642.75	55964.55
642.90	55966.89
643.04	55908.38
643.19	55929.44
643.34	55728.16
643.48	55941.14
643.63	56563.73
643.78	56058.17
643.93	56177.54
644.07	56060.51
644.22	55824.12
644.37	55690.71
644.51	55770.28
644.66	55735.18
644.81	55854.54
644.95	55671.98
645.10	55807.73
645.25	55646.24
645.39	56016.04
645.54	55838.16
645.69	55620.49
645.83	55915.40
645.98	56041.79
646.13	55936.46
646.27	55842.84
646.42	55735.18
646.57	55997.32
646.71	55756.24
646.86	55728.16
647.00	55571.34
647.15	55882.63
647.30	55458.99
647.44	55473.04
647.59	55629.85
647.74	55304.52
647.88	55117.28
648.03	55463.67
648.17	55545.59
648.32	55683.69
648.47	55334.95
648.61	55334.95
648.76	55557.30
648.90	55508.14
649.05	55466.02
649.20	55234.30
649.34	55400.48
649.49	54981.52
649.63	55348.99
649.78	55419.20
649.92	55456.65
650.07	55601.77
650.21	55166.43
650.36	55311.54
650.51	55271.75
650.65	55475.38
650.80	55299.84
650.94	55302.18
651.09	54986.21
651.23	55042.38
651.38	54848.11
651.52	54880.88
651.67	55150.04
651.81	54887.90
651.96	54930.03
652.10	54742.79
652.25	54967.48
652.39	54901.95
652.54	55044.72
652.68	55161.75
652.83	55018.97
652.97	54946.42
653.12	54630.44
653.26	54850.45
653.41	54862.16
653.55	54618.74
653.70	54595.34
653.84	54569.59
653.99	54848.11
654.13	54590.66
654.27	54602.36
654.42	54511.08
654.56	54372.99
654.71	54838.75
654.85	54801.30
655.00	54878.54
655.14	54836.41
655.29	54623.42
655.43	54578.95
655.57	54681.94
655.72	54045.31
655.86	54529.80
656.01	54527.46
656.15	54169.36
656.30	54171.70
656.44	54527.46
656.58	54267.66
656.73	54394.05
656.87	54705.34
657.01	54401.07
657.16	54506.40
657.30	54571.93
657.45	54436.18
657.59	54248.94
657.73	54195.10
657.88	54197.44
658.02	54101.48
658.16	53954.03
658.31	54375.33
658.45	53918.92
658.60	53588.91
658.74	53867.43
658.88	54007.86
659.03	53518.69
659.17	53602.95
659.31	53916.58
659.46	53790.19
659.60	53895.52
659.74	53790.19
659.89	53769.13
660.03	53736.36
660.17	54017.22
660.32	53595.93
660.46	53741.04
660.60	53478.90
660.74	53354.85
660.89	53914.24
661.03	53624.01
661.17	53539.75
661.32	53509.33
661.46	53382.94
661.60	53043.56
661.74	53373.58
661.89	53062.29
662.03	53183.99
662.17	53258.89
662.31	53048.24
662.46	53083.35
662.60	53132.50
662.74	52877.38
662.88	52743.97
663.03	52266.50
663.17	52818.87
663.31	52739.29
663.45	52711.20
663.60	52699.50
663.74	52467.79
663.88	53078.67
664.02	52797.80
664.17	52846.96
664.31	52956.96
664.45	52835.25
664.59	52538.01
664.73	52374.17
664.88	52390.55
665.02	51662.64
665.16	51779.67
665.30	52060.54
665.44	52156.50
665.59	51882.66
665.73	52325.02
665.87	51929.47
666.01	52133.09
666.15	52027.77
666.29	52128.41
666.44	52044.15
666.58	52018.41
666.72	51885.00
666.86	52048.83
667.00	52088.62
667.14	51554.98
667.28	51510.51
667.43	51114.96
667.57	51166.45
667.71	50908.99
667.85	51173.47
667.99	51325.61
668.13	50941.76
668.27	50740.47
668.41	51320.93
668.56	50883.25
668.70	51341.99
668.84	51164.11
668.98	51049.42
669.12	51353.69
669.26	51021.34
669.40	50848.14
669.54	50607.06
669.68	50440.89
669.82	50667.92
669.96	50216.19
670.10	50188.11
670.25	50358.97
670.39	50298.11
670.53	50365.99
670.67	50586.00
670.81	50529.83
670.95	50588.34
671.09	50309.82
671.23	50337.90
671.37	50347.26
671.51	50490.04
671.65	49998.52
671.79	49790.22
671.93	49509.35
672.07	49825.32
672.21	49352.54
672.35	49455.52
672.49	49139.55
672.63	49689.57
672.77	49090.40
672.91	49146.57
673.05	49031.88
673.19	48992.09
673.33	49298.70
673.47	49764.47
673.61	49301.04
673.75	48891.45
673.89	49324.45
674.03	49221.47
674.17	48732.29
674.31	48818.89
674.45	48952.30
674.59	48526.33
674.73	48715.91
674.87	48224.40
675.01	47913.11
675.15	47732.89
675.29	48336.74
675.43	48055.88
675.56	48055.88
675.70	48168.22
675.84	47732.89
675.98	46813.05
676.12	48161.20
676.26	47896.72
676.40	47433.30
676.54	46810.71
676.68	47316.27
676.82	46302.82
676.96	46944.12
677.10	46637.51
677.23	46279.41
677.37	46358.99
677.51	46373.03
677.65	46129.62
677.79	45722.37
677.93	46368.35
678.07	46073.45
678.21	45907.27
678.34	45626.40
678.48	45284.68
678.62	45497.67
678.76	45839.39
678.90	45617.04
679.04	45567.89
679.18	45090.42
679.31	45067.02
679.45	45015.52
679.59	44451.45
679.73	44554.44
679.87	44385.92
680.00	44353.15
680.14	44362.51
680.28	44311.02
680.42	43990.37
680.56	44254.85
680.70	44051.22
680.83	44402.30
680.97	44123.78
681.11	44067.61
681.25	43639.29
681.39	43007.34
681.52	43028.41
681.66	42997.98
681.80	42323.91
681.94	42279.44
682.07	42457.32
682.21	42286.46
682.35	42375.40
682.49	42433.91
682.62	42307.52
682.76	42572.00
682.90	42014.96
683.04	42204.54
683.17	41797.29
683.31	41858.14
683.45	41918.99
683.59	41729.41
683.72	41839.42
683.86	41600.68
684.00	41633.45
684.13	40528.72
684.27	40601.27
684.41	40678.51
684.55	40126.14
684.68	40095.72
684.82	40514.67
684.96	40275.94
685.09	40500.63
685.23	39632.29
685.37	39779.74
685.50	39974.01
685.64	39452.07
685.78	39723.57
685.91	39658.04
686.05	39964.65
686.19	39849.96
686.32	39086.95
686.46	38909.07
686.60	38223.29
686.73	39166.52
686.87	38541.60
687.01	38014.98
687.14	38188.18
687.28	37813.70
687.42	38033.71
687.55	37741.14
687.69	37628.79
687.82	37848.80
687.96	38050.09
688.10	37322.18
688.23	37432.19
688.37	37500.06
688.50	37504.74
688.64	36800.24
688.78	36868.12
688.91	36624.70
689.05	36751.09
689.18	36201.07
689.32	35442.73
689.46	35629.98
689.59	35906.16
689.73	35711.89
689.86	35292.94
690.00	35372.52
690.13	35653.38
690.27	35756.36
690.41	35618.27
690.54	34939.52
690.68	34754.61
690.81	34916.11
690.95	34927.81
691.08	34745.25
691.22	34749.93
691.35	34642.27
691.49	34728.87
691.62	34548.65
691.76	34153.10
691.89	34052.45
692.03	33530.51
692.16	33647.54
692.30	33923.72
692.43	33565.62
692.57	33476.68
692.70	33818.40
692.84	33352.63
692.97	33591.37
693.11	33282.42
693.24	33324.55
693.38	33062.41
693.51	33017.94
693.65	32748.78
693.78	32547.49
693.92	32828.35
694.05	32084.06
694.19	31976.40
694.32	31828.95
694.45	31323.39
694.59	31164.23
694.72	31290.62
694.86	31402.97
694.99	31204.02
695.13	31077.63
695.26	30878.69
695.39	30621.23
695.53	30946.56
695.66	30632.93
695.80	30845.92
695.93	30635.27
696.07	30125.04
696.20	30534.63
696.33	30462.07
696.47	30057.16
696.60	30188.23
696.73	30080.56
696.87	29488.41
697.00	29268.40
697.14	29095.20
697.27	29617.14
697.40	28936.04
697.54	28961.79
697.67	28343.89
697.80	28514.75
697.94	28503.04
698.07	28355.59
698.21	28615.39
698.34	28673.90
698.47	28496.02
698.61	28067.70
698.74	28407.08
698.87	28130.90
699.01	27730.67
699.14	27641.73
699.27	27243.84
699.40	27267.24
699.54	27185.32
699.67	27227.45
699.80	27316.39
699.94	26796.79
700.07	26916.16
700.20	26625.93
700.34	26677.43
700.47	26361.45
700.60	26644.66
700.73	26426.99
700.87	26426.99
701.00	26263.15
701.13	25720.15
701.26	25984.63
701.40	26300.60
701.53	25575.03
701.66	25729.51
701.79	25495.46
701.93	25289.49
702.06	25156.08
702.19	24484.34
702.32	25017.99
702.46	25013.31
702.59	24631.80
702.72	24474.98
702.85	24182.42
702.99	24409.45
703.12	23995.17
703.25	23669.84
703.38	24098.16
703.51	23924.96
703.65	23716.65
703.78	23814.95
703.91	23548.13
704.04	23875.80
704.17	23559.83
704.31	23367.91
704.44	23197.05
704.57	23370.25
704.70	23229.82
704.83	23054.28
704.96	22986.40
705.10	22934.91
705.23	22862.35
>>>>>End Processed Spectral Data<<<<<
