SpectraSuite Data File
++++++++++++++++++++++++++++++++++++
Date: Fri Oct 04 11:48:31 GMT-05:00 2013
User: price-jones
Dark Spectrum Present: No
Reference Spectrum Present: No
Number of Sampled Component Spectra: 1
Spectrometers: USB2+H05261
Integration Time (usec): 100000 (USB2+H05261)
Spectra Averaged: 1 (USB2+H05261)
Boxcar Smoothing: 0 (USB2+H05261)
Correct for Electrical Dark: No (USB2+H05261)
Strobe/Lamp Enabled: No (USB2+H05261)
Correct for Detector Non-linearity: No (USB2+H05261)
Correct for Stray Light: No (USB2+H05261)
Number of Pixels in Processed Spectrum: 2048
>>>>>Begin Processed Spectral Data<<<<<
365.73	0.00
365.92	0.00
366.12	0.00
366.32	0.00
366.52	0.00
366.72	0.00
366.91	0.00
367.11	0.00
367.31	0.00
367.51	0.00
367.70	0.00
367.90	0.00
368.10	0.00
368.30	0.00
368.49	0.00
368.69	0.00
368.89	0.00
369.09	0.00
369.28	0.00
369.48	0.00
369.68	0.00
369.87	28.09
370.07	0.00
370.27	4.68
370.47	114.69
370.66	376.83
370.86	393.21
371.06	397.89
371.25	454.06
371.45	383.85
371.65	514.92
371.84	468.11
372.04	433.00
372.24	543.00
372.44	505.56
372.63	500.87
372.83	610.88
373.03	568.75
373.22	524.28
373.42	489.17
373.62	587.47
373.81	547.69
374.01	669.39
374.21	638.97
374.40	594.50
374.60	599.18
374.79	594.50
374.99	606.20
375.19	678.76
375.38	608.54
375.58	601.52
375.78	702.16
375.97	596.84
376.17	711.52
376.37	620.24
376.56	751.31
376.76	615.56
376.95	645.99
377.15	737.27
377.35	662.37
377.54	706.84
377.74	624.92
377.93	702.16
378.13	695.14
378.33	777.06
378.52	671.73
378.72	812.17
378.91	770.04
379.11	716.20
379.31	763.01
379.50	688.12
379.70	793.44
379.89	723.23
380.09	784.08
380.28	786.42
380.48	716.20
380.68	746.63
380.87	718.54
381.07	821.53
381.26	823.87
381.46	777.06
381.65	849.61
381.85	847.27
382.04	858.98
382.24	802.80
382.43	805.14
382.63	777.06
382.83	945.58
383.02	882.38
383.22	875.36
383.41	840.25
383.61	882.38
383.80	875.36
384.00	1001.75
384.19	917.49
384.39	905.79
384.58	912.81
384.78	992.39
384.97	938.55
385.17	882.38
385.36	999.41
385.56	961.96
385.75	964.30
385.95	999.41
386.14	1088.35
386.34	983.02
386.53	1036.86
386.72	943.24
386.92	1064.94
387.11	1055.58
387.31	1060.26
387.50	997.07
387.70	1018.13
387.89	1130.48
388.09	1097.71
388.28	1137.50
388.48	1067.28
388.67	1078.99
388.86	1074.31
389.06	1062.60
389.25	1132.82
389.45	1137.50
389.64	1104.73
389.84	1177.29
390.03	1151.54
390.22	1139.84
390.42	1193.67
390.61	1121.12
390.81	1214.74
391.00	1184.31
391.19	1114.10
391.39	1228.78
391.58	1252.19
391.78	1226.44
391.97	1327.08
392.16	1249.85
392.36	1280.27
392.55	1273.25
392.75	1394.96
392.94	1256.87
393.13	1296.66
393.33	1245.16
393.52	1334.11
393.71	1352.83
393.91	1404.32
394.10	1324.74
394.29	1413.68
394.49	1343.47
394.68	1481.56
394.88	1458.15
395.07	1369.21
395.26	1472.20
395.46	1451.13
395.65	1514.33
395.84	1474.54
396.04	1643.06
396.23	1432.41
396.42	1554.12
396.62	1514.33
396.81	1607.95
397.00	1549.43
397.19	1526.03
397.39	1572.84
397.58	1568.16
397.77	1497.94
397.97	1643.06
398.16	1591.56
398.35	1640.72
398.55	1685.19
398.74	1643.06
398.93	1668.80
399.12	1722.63
399.32	1586.88
399.51	1603.27
399.70	1849.02
399.90	1722.63
400.09	1799.87
400.28	1736.68
400.47	1888.81
400.67	1895.83
400.86	1778.81
401.05	1912.22
401.24	1895.83
401.44	1966.05
401.63	1811.57
401.82	1863.07
402.01	1865.41
402.21	1994.14
402.40	1802.21
402.59	1914.56
402.78	2001.16
402.97	2005.84
403.17	2029.24
403.36	2005.84
403.55	1912.22
403.74	2136.91
403.93	2115.84
404.13	2113.50
404.32	2085.42
404.51	2040.95
404.70	2129.89
404.89	2108.82
405.09	2157.97
405.28	2169.68
405.47	2293.72
405.66	2363.94
405.85	2209.47
406.05	2272.66
406.24	2356.92
406.43	2324.15
406.62	2417.77
406.81	2434.16
407.00	2286.70
407.20	2368.62
407.39	2427.14
407.58	2420.11
407.77	2523.10
407.96	2576.93
408.15	2576.93
408.34	2516.08
408.54	2605.02
408.73	2527.78
408.92	2654.17
409.11	2597.99
409.30	2731.41
409.49	2614.38
409.68	2731.41
409.87	2726.72
410.07	2855.45
410.26	2722.04
410.45	2761.83
410.64	2773.53
410.83	2890.56
411.02	2761.83
411.21	2843.75
411.40	2899.92
411.59	2953.76
411.78	2946.73
411.98	2904.60
412.17	3012.27
412.36	3035.67
412.55	3049.72
412.74	3148.02
412.93	3082.49
413.12	2974.82
413.31	3082.49
413.50	3166.74
413.69	3255.69
413.88	3262.71
414.07	3349.31
414.26	3428.88
414.45	3215.90
414.64	3386.76
414.83	3452.29
415.02	3520.17
415.22	3515.48
415.41	3515.48
415.60	3566.98
415.79	3487.40
415.98	3684.00
416.17	3665.28
416.36	3691.02
416.55	3709.75
416.74	3726.13
416.93	3721.45
417.12	3838.48
417.31	3810.39
417.50	3758.90
417.69	3997.64
417.88	3955.51
418.07	3960.19
418.26	3854.86
418.45	3955.51
418.64	4133.39
418.83	4102.96
419.02	4063.17
419.21	4105.30
419.39	4241.05
419.58	4004.66
419.77	4023.38
419.96	4285.52
420.15	4182.54
420.34	4278.50
420.53	4306.59
420.72	4362.76
420.91	4353.40
421.10	4294.88
421.29	4566.39
421.48	4198.92
421.67	4538.30
421.86	4428.29
422.05	4456.38
422.24	4369.78
422.43	4411.91
422.61	4521.92
422.80	4608.51
422.99	4386.16
423.18	4414.25
423.37	4451.70
423.56	4550.00
423.75	4606.17
423.94	4472.76
424.13	4369.78
424.32	4367.44
424.50	4535.96
424.69	4720.86
424.88	4727.88
425.07	4629.58
425.26	4634.26
425.45	4456.38
425.64	4519.57
425.83	4606.17
426.01	4568.73
426.20	4608.51
426.39	4655.33
426.58	4613.20
426.77	4622.56
426.96	4751.29
427.15	4770.01
427.33	4741.93
427.52	4791.08
427.71	4910.44
427.90	4725.54
428.09	4851.93
428.28	4997.04
428.46	4851.93
428.65	4957.25
428.84	5060.24
429.03	5146.84
429.22	5055.56
429.40	5050.88
429.59	5153.86
429.78	4882.36
429.97	4814.48
430.16	4961.94
430.34	5266.21
430.53	5198.33
430.72	5116.41
430.91	5160.88
431.10	5252.16
431.28	5385.57
431.47	5121.09
431.66	5284.93
431.85	5219.39
432.03	5430.04
432.22	5483.88
432.41	5390.25
432.60	5418.34
432.79	5427.70
432.97	5420.68
433.16	5493.24
433.35	5425.36
433.54	5572.82
433.72	5603.24
433.91	5577.50
434.10	5809.21
434.28	5678.14
434.47	5727.29
434.66	5692.18
434.85	5853.68
435.03	5891.13
435.22	5795.17
435.41	5944.96
435.59	6087.73
435.78	5891.13
435.97	5858.36
436.16	5877.09
436.34	5802.19
436.53	5963.68
436.72	6183.70
436.90	5994.11
437.09	6153.27
437.28	6047.94
437.46	6153.27
437.65	6069.01
437.84	6253.91
438.02	6279.66
438.21	6317.11
438.40	6092.41
438.58	6633.08
438.77	6483.28
438.96	6424.77
439.14	6649.46
439.33	6689.25
439.52	6715.00
439.70	6593.29
439.89	6764.15
440.08	6827.34
440.26	6986.50
440.45	6848.41
440.63	6981.82
440.82	7082.46
441.01	6965.43
441.19	7061.40
441.38	7239.28
441.57	7208.85
441.75	7311.83
441.94	7379.71
442.12	7440.56
442.31	7419.50
442.50	7480.35
442.68	7351.62
442.87	7473.33
443.05	7480.35
443.24	7763.56
443.43	7515.46
443.61	7595.04
443.80	7934.42
443.98	7543.55
444.17	7449.93
444.35	7475.67
444.54	7707.38
444.73	7854.84
444.91	7805.69
445.10	7798.66
445.28	7768.24
445.47	7625.47
445.65	7707.38
445.84	7812.71
446.02	7758.88
446.21	7943.78
446.39	7768.24
446.58	7908.67
446.77	7822.07
446.95	7681.64
447.14	7885.26
447.32	7997.61
447.51	7960.16
447.69	7981.23
447.88	7908.67
448.06	8093.57
448.25	7756.54
448.43	7880.58
448.62	7953.14
448.80	8168.47
448.99	7971.86
449.17	8095.91
449.36	7964.84
449.54	8271.45
449.73	8458.70
449.91	8177.83
450.10	8376.78
450.28	8421.25
450.46	8360.39
450.65	8353.37
450.83	8435.29
451.02	8456.36
451.20	8566.36
451.39	8631.90
451.57	8479.76
451.76	8580.40
451.94	8601.47
452.13	8589.77
452.31	8786.37
452.49	8468.06
452.68	8777.01
452.86	8723.18
453.05	8786.37
453.23	8699.77
453.42	8542.96
453.60	8681.05
453.78	8922.12
453.97	8954.89
454.15	8814.46
454.34	8842.54
454.52	9231.07
454.70	9167.88
454.89	9186.60
455.07	9228.73
455.26	9235.75
455.44	9465.13
455.62	9191.28
455.81	9219.37
455.99	9387.89
456.17	9430.02
456.36	9275.54
456.54	9612.58
456.73	9535.34
456.91	9729.61
457.09	9741.31
457.28	9863.02
457.46	9715.56
457.64	9984.73
457.83	9790.46
458.01	9741.31
458.19	10036.22
458.38	9678.12
458.56	9926.21
458.74	10197.71
458.93	10001.11
459.11	9905.15
459.29	9848.97
459.48	10045.58
459.66	10150.90
459.84	10090.05
460.03	10406.02
460.21	10040.90
460.39	10223.46
460.57	10265.59
460.76	10483.26
460.94	10263.25
461.12	10438.79
461.31	10389.64
461.49	10523.05
461.67	10501.98
461.85	10775.83
462.04	10501.98
462.22	11346.92
462.40	10787.53
462.59	10700.93
462.77	10672.84
462.95	11059.03
463.13	11021.58
463.32	10916.26
463.50	10768.80
463.68	11096.48
463.86	10899.87
464.05	10888.17
464.23	11014.56
464.41	11028.60
464.59	10892.85
464.78	11351.60
464.96	11112.86
465.14	11035.63
465.32	11265.00
465.50	11269.68
465.69	11447.56
465.87	11253.30
466.05	11283.72
466.23	11300.11
466.41	11494.37
466.60	11538.84
466.78	11276.70
466.96	11639.48
467.14	11384.37
467.32	11363.30
467.51	11770.55
467.69	11627.78
467.87	11660.55
468.05	11779.92
468.23	11674.59
468.41	11576.29
468.60	11555.22
468.78	11854.81
468.96	11903.96
469.14	11796.30
469.32	12163.76
469.50	12030.35
469.69	12383.77
469.87	12046.74
470.05	12250.36
470.23	12184.83
470.41	12273.77
470.59	12458.67
470.77	12456.33
470.95	12528.89
471.14	12645.91
471.32	12351.01
471.50	12917.42
471.68	12571.02
471.86	12886.99
472.04	12898.69
472.22	13219.35
472.40	12980.61
472.58	13043.81
472.77	13064.87
472.95	13336.37
473.13	13593.83
473.31	13193.60
473.49	13233.39
473.67	13268.50
473.85	13645.32
474.03	13668.73
474.21	13624.26
474.39	13783.41
474.57	14019.81
474.75	13951.93
474.93	14218.75
475.12	14143.86
475.30	14223.44
475.48	13874.70
475.66	14148.54
475.84	14080.66
476.02	14408.34
476.20	14600.26
476.38	14670.48
476.56	14831.97
476.74	15096.46
476.92	14684.52
477.10	15239.23
477.28	15138.58
477.46	15222.84
477.64	15279.02
477.82	15527.11
478.00	16023.31
478.18	15782.23
478.36	15770.53
478.54	15882.88
478.72	16210.55
478.90	16168.42
479.08	16449.28
479.26	16692.70
479.44	16847.18
479.62	16690.36
479.80	17043.78
479.98	16854.20
480.16	17371.46
480.34	17177.19
480.52	17535.29
480.70	17844.24
480.88	17357.41
481.06	17530.61
481.24	17434.65
481.41	17785.73
481.59	18574.49
481.77	18307.67
481.95	18480.87
482.13	18586.19
482.31	18162.56
482.49	18838.97
482.67	18705.56
482.85	19075.37
483.03	19377.30
483.21	19609.01
483.39	19908.60
483.57	20044.35
483.74	20102.86
483.92	20184.78
484.10	19922.64
484.28	20350.96
484.46	20725.44
484.64	21233.34
484.82	20706.72
485.00	20776.94
485.18	21486.12
485.35	21781.03
485.53	21699.11
485.71	22094.66
485.89	22113.38
486.07	22036.14
486.25	22134.45
486.43	22417.65
486.61	22572.13
486.78	22890.44
486.96	23129.17
487.14	23384.29
487.32	23063.64
487.50	23489.62
487.68	23929.64
487.85	23992.83
488.03	24187.10
488.21	24755.85
488.39	24414.13
488.57	24821.38
488.75	24545.20
488.92	25060.12
489.10	25266.08
489.28	25212.25
489.46	25579.71
489.64	25720.15
489.81	26267.83
489.99	26134.42
490.17	26038.46
490.35	26380.18
490.53	26567.42
490.70	27030.85
490.88	27016.80
491.06	27182.98
491.24	27051.91
491.41	27580.87
491.59	27508.32
491.77	27620.66
491.95	27702.58
492.13	28128.56
492.30	28355.59
492.48	27922.59
492.66	28397.72
492.84	28783.91
493.01	28971.15
493.19	28966.47
493.37	28996.90
493.54	29462.66
493.72	29949.50
493.90	29724.80
494.08	30071.20
494.25	30391.86
494.43	30637.61
494.61	30747.62
494.79	30735.92
494.96	30630.59
495.14	30906.77
495.32	31281.26
495.49	31569.15
495.67	31559.78
495.85	32072.36
496.02	32063.00
496.20	32067.68
496.38	32526.42
496.55	32280.67
496.73	33139.65
496.91	32863.46
497.09	32966.45
497.26	33223.90
497.44	32921.98
497.62	32959.42
497.79	34033.73
497.97	33537.54
498.14	33881.60
498.32	34293.53
498.50	34281.83
498.67	34382.47
498.85	34899.73
499.03	34686.74
499.20	34869.30
499.38	35056.54
499.56	35115.06
499.73	35447.41
499.91	35400.60
500.08	35833.60
500.26	35189.95
500.44	35611.25
500.61	35985.74
500.79	35945.95
500.97	36467.89
501.14	36809.61
501.32	36582.57
501.49	36718.32
501.67	36943.02
501.84	37022.59
502.02	36500.65
502.20	37284.73
502.37	37846.46
502.55	37060.04
502.72	37464.96
502.90	37542.19
503.07	37696.67
503.25	37661.56
503.43	38000.94
503.60	38508.83
503.78	38478.41
503.95	38113.28
504.13	38335.63
504.30	38642.24
504.48	38333.29
504.65	38955.88
504.83	38972.26
505.01	39461.43
505.18	39260.15
505.36	39894.43
505.53	39241.42
505.71	39583.14
505.88	39576.12
506.06	39576.12
506.23	40374.24
506.41	39784.43
506.58	40273.60
506.76	40601.27
506.93	40165.93
507.11	40491.27
507.28	40671.49
507.46	40872.78
507.63	40837.67
507.81	41347.90
507.98	40631.70
508.16	40945.33
508.33	41144.28
508.50	41375.99
508.68	41296.41
508.85	41968.15
509.03	41837.08
509.20	41741.11
509.38	42164.75
509.55	41984.53
509.73	42256.03
509.90	42595.41
510.08	42110.92
510.25	42422.21
510.42	42667.97
510.60	43126.71
510.77	43079.90
510.95	43288.21
511.12	43140.75
511.30	43098.62
511.47	43381.83
511.64	43789.08
511.82	44194.00
511.99	43679.08
512.17	44091.01
512.34	44058.24
512.51	44142.50
512.69	44109.74
512.86	43999.73
513.04	44718.28
513.21	44884.45
513.38	45134.89
513.56	44861.05
513.73	44605.93
513.90	44863.39
514.08	44589.55
514.25	45193.40
514.43	45338.52
514.60	45532.78
514.77	45577.25
514.95	45720.02
515.12	45532.78
515.29	45600.66
515.47	46047.70
515.64	46160.05
515.81	46136.64
515.99	46375.37
516.16	46389.42
516.33	46298.14
516.51	46691.35
516.68	46340.27
516.85	46417.50
517.03	46625.81
517.20	46997.96
517.37	46990.94
517.54	47349.04
517.72	47110.30
517.89	46848.16
518.06	46941.78
518.24	47391.17
518.41	47463.72
518.58	47573.73
518.75	47377.12
518.93	47501.17
519.10	48093.33
519.27	47468.40
519.45	47676.71
519.62	48313.34
519.79	48156.52
519.96	48247.80
520.14	48219.72
520.31	48105.03
520.48	48528.67
520.65	48669.10
520.83	48322.70
521.00	48378.87
521.17	48928.90
521.34	48552.07
521.52	48732.29
521.69	48662.08
521.86	49387.64
522.03	49340.83
522.20	49120.82
522.38	49249.55
522.55	49469.56
522.72	49460.20
522.89	49186.36
523.07	49631.06
523.24	49738.72
523.41	49858.09
523.58	49748.09
523.75	49712.98
523.92	49577.23
524.10	49591.27
524.27	50068.74
524.44	50562.59
524.61	50450.25
524.78	50419.82
524.96	50356.63
525.13	50061.72
525.30	50354.29
525.47	50801.33
525.64	50401.10
525.81	50637.49
525.98	51096.24
526.16	50740.47
526.33	51040.06
526.50	50873.88
526.67	50733.45
526.84	51189.86
527.01	51220.28
527.18	51470.72
527.36	51107.94
527.53	51449.66
527.70	51915.42
527.87	51751.59
528.04	51526.89
528.21	51313.90
528.38	51732.86
528.55	51831.16
528.72	51777.33
528.89	51613.49
529.07	51702.43
529.24	51695.41
529.41	51936.49
529.58	51753.93
529.75	51896.70
529.92	51990.32
530.09	52060.54
530.26	51938.83
530.43	52205.65
530.60	52163.52
530.77	52151.82
530.94	52247.78
531.11	52299.27
531.28	52013.73
531.46	52598.86
531.63	52500.56
531.80	52715.89
531.97	53092.71
532.14	52893.77
532.31	52495.88
532.48	53013.13
532.65	52582.48
532.82	52790.78
532.99	52978.03
533.16	52926.53
533.33	53427.41
533.50	53432.09
533.67	53263.57
533.84	53305.70
534.01	53151.23
534.18	53113.78
534.35	53549.12
534.52	53446.13
534.69	53600.61
534.86	53961.05
535.03	53464.86
535.20	53673.16
535.37	53785.51
535.54	53738.70
535.71	53766.79
535.88	53825.30
536.05	53937.65
536.22	54096.80
536.38	54021.90
536.55	54124.89
536.72	53979.78
536.89	54031.27
537.06	53932.96
537.23	54220.85
537.40	53900.20
537.57	54007.86
537.74	53970.41
537.91	54546.18
538.08	54475.97
538.25	54415.11
538.42	54110.85
538.59	54431.50
538.75	54478.31
538.92	54384.69
539.09	54597.68
539.26	54546.18
539.43	54796.62
539.60	54831.73
539.77	54745.13
539.94	54848.11
540.11	54862.16
540.28	54578.95
540.44	54913.65
540.61	55047.06
540.78	54864.50
540.95	55021.31
541.12	55103.23
541.29	55051.74
541.46	55154.72
541.62	54628.10
541.79	55138.34
541.96	54773.22
542.13	55075.15
542.30	54937.05
542.47	55290.48
542.63	55519.85
542.80	55615.81
542.97	55540.91
543.14	55601.77
543.31	55611.13
543.48	55641.56
543.64	55704.75
543.81	55688.37
543.98	55711.77
544.15	55840.50
544.32	55800.71
544.48	56163.50
544.65	56013.70
544.82	55721.13
544.99	55634.53
545.16	56009.02
545.32	56009.02
545.49	56207.97
545.66	56470.11
545.83	56229.03
546.00	56488.83
546.16	56165.84
546.33	55994.98
546.50	55863.91
546.67	56275.84
546.83	55868.59
547.00	56411.59
547.17	56296.91
547.34	56303.93
547.50	56418.61
547.67	56671.39
547.84	56252.44
548.00	56547.34
548.17	56694.80
548.34	56554.36
548.51	56678.41
548.67	56921.83
548.84	56842.25
549.01	56666.71
549.18	56659.69
549.34	56603.52
549.51	56715.86
549.68	56584.79
549.84	56760.33
550.01	57022.47
550.18	56498.19
550.34	56832.89
550.51	56891.40
550.68	56975.66
550.84	56570.75
551.01	56931.19
551.18	56928.85
551.34	56999.07
551.51	56987.36
551.68	56935.87
551.84	57396.96
552.01	57144.18
552.18	57469.51
552.34	57240.14
552.51	57268.23
552.68	57106.73
552.84	57038.86
553.01	57553.77
553.18	57460.15
553.34	57368.87
553.51	57439.09
553.67	57502.28
553.84	57588.88
554.01	57682.50
554.17	57598.24
554.34	57343.12
554.51	57521.01
554.67	57602.92
554.84	57834.64
555.00	57670.80
555.17	57457.81
555.33	57729.31
555.50	57570.16
555.67	57748.04
555.83	57668.46
556.00	57755.06
556.16	57764.42
556.33	57701.23
556.50	57801.87
556.66	57766.76
556.83	57673.14
556.99	58047.63
557.16	58075.71
557.32	57874.43
557.49	58181.04
557.65	57827.62
557.82	57722.29
557.98	57963.37
558.15	57925.92
558.32	58143.59
558.48	58117.84
558.65	58262.96
558.81	58190.40
558.98	58277.00
559.14	58113.16
559.31	58260.62
559.47	58096.78
559.64	58197.42
559.80	58227.85
559.97	58412.75
560.13	58174.02
560.30	58213.80
560.46	58258.27
560.63	58262.96
560.79	58232.53
560.96	58536.80
561.12	58293.38
561.29	58159.97
561.45	58335.51
561.61	58422.11
561.78	58489.99
561.94	58482.97
562.11	58471.26
562.27	58482.97
562.44	58375.30
562.60	58494.67
562.77	58412.75
562.93	58410.41
563.10	58665.53
563.26	58595.31
563.42	58780.21
563.59	58653.82
563.75	58698.30
563.92	58564.88
564.08	58607.01
564.24	58623.40
564.41	58684.25
564.57	58597.65
564.74	58646.80
564.90	58681.91
565.07	58794.26
565.23	58815.32
565.39	58733.40
565.56	58810.64
565.72	58494.67
565.88	58553.18
566.05	58817.66
566.21	58576.59
566.38	58599.99
566.54	58733.40
566.70	59051.72
566.87	59077.46
567.03	58887.88
567.19	59206.19
567.36	58850.43
567.52	58679.57
567.68	58927.67
567.85	58644.46
568.01	58901.92
568.17	58883.20
568.34	58890.22
568.50	58944.05
568.66	58939.37
568.83	58948.73
568.99	58768.51
569.15	58937.03
569.32	58913.62
569.48	58843.41
569.64	58745.11
569.81	58836.39
569.97	58815.32
570.13	59138.32
570.30	59164.06
570.46	59035.33
570.62	59173.42
570.78	59135.98
570.95	58824.68
571.11	59098.53
571.27	58733.40
571.43	59075.12
571.60	59306.83
571.76	59348.96
571.92	59260.02
572.09	59419.18
572.25	59100.87
572.41	59227.26
572.57	59112.57
572.74	59121.93
572.90	58960.44
573.06	59105.55
573.22	58972.14
573.38	59096.19
573.55	59210.87
573.71	59412.16
573.87	59442.59
574.03	59234.28
574.20	58908.94
574.36	59042.35
574.52	59213.21
574.68	59110.23
574.84	59208.53
575.01	59292.79
575.17	59461.31
575.33	59316.20
575.49	59339.60
575.65	59274.07
575.82	59400.46
575.98	59140.66
576.14	59515.14
576.30	59348.96
576.46	59391.09
576.62	59152.36
576.79	59302.15
576.95	59154.70
577.11	59278.75
577.27	59372.37
577.43	59405.14
577.59	59477.69
577.75	59215.55
577.92	59119.59
578.08	58990.86
578.24	59161.72
578.40	59447.27
578.56	59468.33
578.72	59360.67
578.88	59601.74
579.04	59576.00
579.21	59423.86
579.37	59370.03
579.53	59487.06
579.69	59178.10
579.85	59370.03
580.01	59381.73
580.17	59325.56
580.33	59337.26
580.49	59440.24
580.65	59533.87
580.82	59484.72
580.98	59491.74
581.14	59536.21
581.30	59683.66
581.46	59323.22
581.62	59381.73
581.78	59131.29
581.94	59529.19
582.10	59568.97
582.26	59526.84
582.42	59508.12
582.58	59554.93
582.74	59620.47
582.90	59505.78
583.06	59309.18
583.22	59611.10
583.38	59653.23
583.54	59468.33
583.70	59592.38
583.86	59463.65
584.02	59538.55
584.18	59669.62
584.34	59550.25
584.50	59767.92
584.66	59604.08
584.82	59428.54
584.98	59449.61
585.14	59559.61
585.30	59545.57
585.46	59496.42
585.62	59482.37
585.78	59845.16
585.94	59337.26
586.10	59590.04
586.26	59597.06
586.42	59868.56
586.58	59744.51
586.74	59587.70
586.90	59505.78
587.06	59477.69
587.22	59786.64
587.38	59456.63
587.54	59812.39
587.70	59821.75
587.86	59863.88
588.02	59714.09
588.18	59791.33
588.34	59784.30
588.49	59758.56
588.65	59512.80
588.81	59810.05
588.97	59807.71
589.13	59650.89
589.29	59599.40
589.45	59716.43
589.61	59620.47
589.77	59772.60
589.93	59805.37
590.08	60027.72
590.24	59707.07
590.40	59854.52
590.56	59983.25
590.72	59695.36
590.88	59753.88
591.04	60034.74
591.20	60037.08
591.35	59994.95
591.51	60219.64
591.67	60086.23
591.83	59964.52
591.99	59973.89
592.15	59854.52
592.31	59856.86
592.46	59849.84
592.62	59880.27
592.78	59814.73
592.94	59859.20
593.10	59854.52
593.26	60308.58
593.41	60109.64
593.57	59901.33
593.73	60119.00
593.89	60055.81
594.05	59938.78
594.20	59817.07
594.36	60088.57
594.52	59838.14
594.68	59877.93
594.84	59901.33
594.99	60130.70
595.15	60128.36
595.31	60140.07
595.47	60095.60
595.62	60198.58
595.78	60114.32
595.94	59983.25
596.10	59948.14
596.25	60093.25
596.41	60083.89
596.57	59941.12
596.73	59882.61
596.88	59835.80
597.04	60238.37
597.20	60523.91
597.36	60221.98
597.51	60320.29
597.67	59931.76
597.83	59870.90
597.99	60060.49
598.14	59884.95
598.30	59957.50
598.46	59969.21
598.61	60081.55
598.77	60013.68
598.93	60081.55
599.09	60236.03
599.24	60449.02
599.40	60165.81
599.56	60210.28
599.71	60254.75
599.87	60278.16
600.03	60219.64
600.18	59875.58
600.34	59976.23
600.50	60144.75
600.65	60369.44
600.81	60245.39
600.97	60376.46
601.12	60523.91
601.28	60231.35
601.44	60025.38
601.59	60210.28
601.75	60205.60
601.91	60193.90
602.06	60090.91
602.22	60200.92
602.37	60023.04
602.53	60116.66
602.69	60266.45
602.84	60273.48
603.00	60268.79
603.16	60388.16
603.31	60161.13
603.47	60219.64
603.62	59861.54
603.78	60154.11
603.94	60065.17
604.09	60051.12
604.25	60144.75
604.40	59971.55
604.56	60083.89
604.71	60409.23
604.87	60163.47
605.03	60320.29
605.18	60266.45
605.34	60013.68
605.49	59938.78
605.65	59957.50
605.80	60076.87
605.96	60123.68
606.12	60224.32
606.27	60154.11
606.43	60093.25
606.58	60182.19
606.74	60264.11
606.89	60308.58
607.05	60371.78
607.20	60177.51
607.36	60193.90
607.51	60210.28
607.67	60048.78
607.82	60027.72
607.98	59955.16
608.13	59952.82
608.29	59887.29
608.44	60006.65
608.60	60177.51
608.75	60294.54
608.91	60303.90
609.06	59983.25
609.22	60048.78
609.37	60097.94
609.53	59880.27
609.68	59948.14
609.84	60004.31
609.99	59910.69
610.15	60076.87
610.30	60018.36
610.46	59788.98
610.61	60170.49
610.76	59922.40
610.92	60081.55
611.07	59976.23
611.23	59964.52
611.38	60046.44
611.54	59920.05
611.69	60065.17
611.84	59852.18
612.00	60023.04
612.15	59707.07
612.31	59810.05
612.46	60060.49
612.62	59845.16
612.77	60004.31
612.92	60067.51
613.08	59536.21
613.23	59948.14
613.39	59781.96
613.54	59639.19
613.69	59730.47
613.85	59391.09
614.00	59882.61
614.15	59821.75
614.31	60023.04
614.46	59973.89
614.62	59774.94
614.77	59709.41
614.92	59887.29
615.08	59819.41
615.23	59735.15
615.38	59704.73
615.54	59629.83
615.69	59641.53
615.84	59545.57
616.00	59859.20
616.15	59639.19
616.30	59859.20
616.46	59402.80
616.61	59657.91
616.76	59641.53
616.92	59786.64
617.07	59714.09
617.22	59620.47
617.37	59536.21
617.53	59566.63
617.68	59561.95
617.83	59367.69
617.99	59470.67
618.14	59477.69
618.29	59650.89
618.45	59576.00
618.60	59484.72
618.75	59627.49
618.90	59456.63
619.06	59491.74
619.21	59318.54
619.36	59611.10
619.51	59192.15
619.67	59363.01
619.82	59327.90
619.97	59421.52
620.12	59089.16
620.28	59323.22
620.43	59503.44
620.58	59608.76
620.73	59253.00
620.89	59529.19
621.04	59519.82
621.19	59412.16
621.34	59292.79
621.49	59178.10
621.65	59105.55
621.80	59199.17
621.95	59091.51
622.10	59243.64
622.25	59049.38
622.41	59068.10
622.56	59133.63
622.71	59421.52
622.86	59004.91
623.01	59016.61
623.16	59128.95
623.32	58941.71
623.47	59049.38
623.62	58962.78
623.77	58925.33
623.92	58913.62
624.07	59061.08
624.23	59004.91
624.38	58988.52
624.53	59002.56
624.68	59309.18
624.83	59025.97
624.98	59061.08
625.13	58878.52
625.29	58974.48
625.44	58969.80
625.59	58658.51
625.74	58607.01
625.89	58705.32
626.04	58848.09
626.19	58780.21
626.34	58728.72
626.49	58585.95
626.65	58454.88
626.80	58934.69
626.95	58630.42
627.10	58588.29
627.25	58787.24
627.40	58665.53
627.55	58702.98
627.70	58375.30
627.85	58485.31
628.00	58375.30
628.15	58534.46
628.30	58129.54
628.45	58471.26
628.60	58747.45
628.76	58782.55
628.91	58726.38
629.06	58607.01
629.21	58717.02
629.36	58639.78
629.51	58557.86
629.66	58305.09
629.81	58365.94
629.96	58286.36
630.11	58176.36
630.26	58473.60
630.41	58405.73
630.56	58047.63
630.71	58445.52
630.86	58403.39
631.01	58269.98
631.16	58384.66
631.31	58204.44
631.46	58054.65
631.61	58202.10
631.76	58185.72
631.91	58185.72
632.06	57853.36
632.21	58092.10
632.36	58349.56
632.51	57808.89
632.66	58101.46
632.81	57790.17
632.96	58007.84
633.10	58122.52
633.25	57961.03
633.40	57741.02
633.55	57825.28
633.70	57881.45
633.85	57631.01
634.00	57717.61
634.15	57790.17
634.30	58021.88
634.45	57965.71
634.60	58021.88
634.75	58145.93
634.90	58108.48
635.05	58157.63
635.19	58033.58
635.34	58134.23
635.49	57900.17
635.64	57635.69
635.79	57696.55
635.94	57647.39
636.09	57567.82
636.24	57532.71
636.39	57558.45
636.53	57654.42
636.68	57626.33
636.83	57535.05
636.98	57780.81
637.13	57914.22
637.28	57797.19
637.43	57614.63
637.57	57694.21
637.72	57586.54
637.87	57663.78
638.02	57549.09
638.17	57738.68
638.32	57268.23
638.46	57265.89
638.61	57387.60
638.76	57076.30
638.91	57457.81
639.06	57539.73
639.20	57670.80
639.35	57738.68
639.50	57427.38
639.65	57771.44
639.80	57436.75
639.94	57303.34
640.09	57457.81
640.24	57083.33
640.39	56912.47
640.54	57146.52
640.68	57277.59
640.83	57106.73
640.98	57043.54
641.13	56975.66
641.27	57308.02
641.42	57190.99
641.57	57209.71
641.72	57195.67
641.86	57169.93
642.01	57340.78
642.16	57059.92
642.31	56753.31
642.45	57219.08
642.60	57041.20
642.75	56917.15
642.90	56849.27
643.04	56996.73
643.19	56669.05
643.34	57008.43
643.48	57097.37
643.63	57024.81
643.78	56980.34
643.93	56966.30
644.07	56954.60
644.22	56772.03
644.37	56860.97
644.51	56652.67
644.66	56783.74
644.81	56879.70
644.95	56734.59
645.10	56743.95
645.25	56942.89
645.39	56570.75
645.54	56842.25
645.69	56575.43
645.83	57038.86
645.98	56926.51
646.13	56825.87
646.27	56776.72
646.42	56671.39
646.57	56608.20
646.71	56647.99
646.86	56472.45
647.00	56671.39
647.15	56498.19
647.30	56549.68
647.44	56280.52
647.59	56701.82
647.74	56292.22
647.88	56219.67
648.03	56399.89
648.17	56650.33
648.32	56271.16
648.47	56666.71
648.61	56271.16
648.76	56631.60
648.90	56147.11
649.05	56397.55
649.20	56533.30
649.34	56348.40
649.49	55849.86
649.63	56446.70
649.78	56657.35
649.92	56203.28
650.07	56577.77
650.21	56346.06
650.36	56252.44
650.51	56243.07
650.65	56322.65
650.80	56341.38
650.94	56350.74
651.09	56027.74
651.23	55971.57
651.38	55763.26
651.52	56083.92
651.67	55819.44
651.81	56238.39
651.96	55955.19
652.10	55690.71
652.25	56018.38
652.39	56030.08
652.54	56051.15
652.68	56102.64
652.83	55934.12
652.97	56140.09
653.12	55833.48
653.26	55833.48
653.41	55817.10
653.55	55737.52
653.70	55550.27
653.84	55538.57
653.99	55550.27
654.13	55566.66
654.27	55650.92
654.42	55524.53
654.56	55781.99
654.71	55739.86
654.85	55882.63
655.00	55845.18
655.14	55849.86
655.29	55332.60
655.43	55679.00
655.57	55430.91
655.72	55196.85
655.86	55351.33
656.01	55693.05
656.15	55419.20
656.30	55367.71
656.44	55302.18
656.58	55309.20
656.73	55288.13
656.87	55449.63
657.01	55309.20
657.16	55379.42
657.30	55358.35
657.45	55295.16
657.59	55529.21
657.73	55077.49
657.88	55260.05
658.02	55267.07
658.16	55182.81
658.31	55042.38
658.45	54768.54
658.60	54899.61
658.74	54887.90
658.88	54939.39
659.03	54754.49
659.17	54724.07
659.31	55030.68
659.46	54915.99
659.60	55023.65
659.74	55068.12
659.89	54787.26
660.03	54841.09
660.17	54967.48
660.32	54511.08
660.46	54482.99
660.60	54368.30
660.74	54653.85
660.89	54560.23
661.03	54546.18
661.17	54721.72
661.32	54113.19
661.46	54363.62
661.60	54543.84
661.74	54649.17
661.89	54557.89
662.03	54593.00
662.17	54110.85
662.31	54319.15
662.46	54412.77
662.60	54045.31
662.74	54038.29
662.88	53834.66
663.03	53661.46
663.17	54136.59
663.31	53811.26
663.45	54005.52
663.60	53717.64
663.74	53755.08
663.88	53832.32
664.02	54045.31
664.17	54176.38
664.31	53909.56
664.45	53506.99
664.59	53408.68
664.73	53492.94
664.88	53584.22
665.02	53113.78
665.16	53525.71
665.30	53518.69
665.44	53294.00
665.59	53048.24
665.73	53088.03
665.87	53212.08
666.01	53179.31
666.15	53207.40
666.29	53198.04
666.44	53464.86
666.58	53146.54
666.72	52987.39
666.86	53038.88
667.00	53144.20
667.14	52893.77
667.28	52554.39
667.43	52247.78
667.57	52594.18
667.71	52545.03
667.85	52580.13
667.99	52575.45
668.13	52479.49
668.27	51920.10
668.41	52193.95
668.56	51803.08
668.70	52348.42
668.84	52425.66
668.98	52275.87
669.12	52203.31
669.26	51831.16
669.40	51688.39
669.54	51601.79
669.68	51604.13
669.82	51760.95
669.96	51459.02
670.10	51489.45
670.25	51723.50
670.39	51444.98
670.53	51690.73
670.67	51339.65
670.81	51442.63
670.95	51798.40
671.09	51468.38
671.23	51412.21
671.37	51693.07
671.51	51531.57
671.65	51098.58
671.79	51009.64
671.93	51002.61
672.07	50745.15
672.21	50705.37
672.35	50347.26
672.49	50590.68
672.63	50548.55
672.77	50248.96
672.91	50609.40
673.05	50614.08
673.19	50546.21
673.33	50244.28
673.47	50459.61
673.61	50258.32
673.75	50335.56
673.89	50461.95
674.03	50286.41
674.17	49982.14
674.31	50272.37
674.45	49497.65
674.59	49874.48
674.73	49528.08
674.87	49481.27
675.01	49294.02
675.15	49282.32
675.29	49357.22
675.43	49354.88
675.56	49495.31
675.70	49588.93
675.84	49610.00
675.98	48301.64
676.12	49347.86
676.26	48835.28
676.40	48877.41
676.54	48584.84
676.68	48746.34
676.82	47669.69
676.96	48123.75
677.10	47650.97
677.23	48144.82
677.37	47758.63
677.51	47927.15
677.65	47475.43
677.79	47224.99
677.93	47391.17
678.07	47760.97
678.21	47601.82
678.34	47079.88
678.48	46749.86
678.62	46897.31
678.76	47047.11
678.90	46986.25
679.04	46555.60
679.18	46642.20
679.31	46120.26
679.45	46092.17
679.59	45823.01
679.73	46398.78
679.87	46506.44
680.00	45642.79
680.14	45834.71
680.28	45855.78
680.42	45848.75
680.56	45837.05
680.70	45642.79
680.83	45485.97
680.97	46014.93
681.11	45886.20
681.25	45120.85
681.39	44533.37
681.52	44243.15
681.66	43791.42
681.80	44154.21
681.94	43524.60
682.07	43744.61
682.21	43789.08
682.35	43494.18
682.49	44278.25
682.62	43517.58
682.76	43817.17
682.90	43388.85
683.04	43372.47
683.17	43704.82
683.31	43784.40
683.45	43182.88
683.59	42880.95
683.72	42941.81
683.86	43014.37
684.00	42698.39
684.13	42438.59
684.27	42136.66
684.41	41404.08
684.55	41673.24
684.68	41518.76
684.82	41736.43
684.96	41371.31
685.09	41523.44
685.23	41741.11
685.37	41556.21
685.50	41429.82
685.64	41296.41
685.78	41331.52
685.91	41160.66
686.05	41235.56
686.19	40982.78
686.32	40610.64
686.46	39962.31
686.60	40336.79
686.73	39784.43
686.87	39646.33
687.01	39831.24
687.14	39641.65
687.28	38724.16
687.42	39257.81
687.55	39021.41
687.69	39627.61
687.82	39541.01
687.96	39108.01
688.10	39126.74
688.23	38717.14
688.37	39044.82
688.50	38653.95
688.64	38234.99
688.78	38600.12
688.91	38279.46
689.05	38307.55
689.18	37837.10
689.32	36914.93
689.46	36708.96
689.59	37614.75
689.73	37633.47
689.86	37134.94
690.00	36957.06
690.13	37296.44
690.27	37031.96
690.41	37497.72
690.54	36741.73
690.68	36512.36
690.81	36540.44
690.95	36477.25
691.08	36205.75
691.22	35772.75
691.35	36011.48
691.49	35943.61
691.62	35498.91
691.76	35725.94
691.89	35164.21
692.03	34920.79
692.16	34747.59
692.30	34925.47
692.43	34548.65
692.57	34132.03
692.70	34775.68
692.84	34691.42
692.97	34866.96
693.11	34330.98
693.24	34246.72
693.38	34298.21
693.51	34010.32
693.65	34103.95
693.78	33972.88
693.92	34029.05
694.05	33483.70
694.19	33104.54
694.32	32884.53
694.45	32587.28
694.59	32320.46
694.72	32318.12
694.86	32549.83
694.99	32451.53
695.13	31592.55
695.26	31875.76
695.39	31971.72
695.53	31800.86
695.66	32273.65
695.80	31835.97
695.93	32107.47
696.07	31571.49
696.20	31758.73
696.33	31044.87
696.47	31426.37
696.60	31527.02
696.73	30813.15
696.87	30967.63
697.00	30490.16
697.14	30675.06
697.27	29830.13
697.40	30150.78
697.54	29766.93
697.67	29350.32
697.80	29689.70
697.94	29516.50
698.07	29656.93
698.21	29617.14
698.34	29539.90
698.47	29411.17
698.61	28748.80
698.74	29259.04
698.87	28709.01
699.01	28744.12
699.14	28732.42
699.27	28519.43
699.40	28219.84
699.54	28121.54
699.67	28175.37
699.80	27791.52
699.94	27763.43
700.07	27613.64
700.20	27637.05
700.34	27461.51
700.47	27461.51
700.60	27821.95
700.73	27641.73
700.87	27218.09
701.00	27475.55
701.13	27056.59
701.26	26955.95
701.40	27431.08
701.53	26625.93
701.66	26932.54
701.79	26298.26
701.93	26225.70
702.06	25837.17
702.19	26169.53
702.32	25792.70
702.46	25954.20
702.59	25500.14
702.72	25371.41
702.85	25252.04
702.99	25170.12
703.12	25132.67
703.25	24952.45
703.38	25453.33
703.51	24781.59
703.65	24645.84
703.78	24776.91
703.91	24943.09
704.04	24664.57
704.17	24437.53
704.31	24439.87
704.44	24119.22
704.57	24201.14
704.70	23807.93
704.83	23983.47
704.96	23718.99
705.10	23723.67
705.23	23253.22
>>>>>End Processed Spectral Data<<<<<
