SpectraSuite Data File
++++++++++++++++++++++++++++++++++++
Date: Fri Oct 04 11:48:33 GMT-05:00 2013
User: price-jones
Dark Spectrum Present: No
Reference Spectrum Present: No
Number of Sampled Component Spectra: 1
Spectrometers: USB2+H05261
Integration Time (usec): 100000 (USB2+H05261)
Spectra Averaged: 1 (USB2+H05261)
Boxcar Smoothing: 0 (USB2+H05261)
Correct for Electrical Dark: No (USB2+H05261)
Strobe/Lamp Enabled: No (USB2+H05261)
Correct for Detector Non-linearity: No (USB2+H05261)
Correct for Stray Light: No (USB2+H05261)
Number of Pixels in Processed Spectrum: 2048
>>>>>Begin Processed Spectral Data<<<<<
365.73	39.79
365.92	39.79
366.12	39.79
366.32	0.00
366.52	0.00
366.72	9.36
366.91	0.00
367.11	0.00
367.31	0.00
367.51	0.00
367.70	0.00
367.90	0.00
368.10	0.00
368.30	0.00
368.49	0.00
368.69	0.00
368.89	0.00
369.09	0.00
369.28	0.00
369.48	0.00
369.68	25.75
369.87	0.00
370.07	0.00
370.27	49.15
370.47	95.96
370.66	294.91
370.86	292.57
371.06	355.76
371.25	407.25
371.45	315.97
371.65	383.85
371.84	327.68
372.04	339.38
372.24	409.59
372.44	367.46
372.63	400.23
372.83	444.70
373.03	442.36
373.22	409.59
373.42	437.68
373.62	454.06
373.81	423.64
374.01	484.49
374.21	601.52
374.40	402.57
374.60	486.83
374.79	517.26
374.99	496.19
375.19	524.28
375.38	531.30
375.58	547.69
375.78	475.13
375.97	519.60
376.17	489.17
376.37	489.17
376.56	557.05
376.76	550.03
376.95	538.32
377.15	554.71
377.35	585.13
377.54	559.39
377.74	510.24
377.93	526.62
378.13	521.94
378.33	596.84
378.52	519.60
378.72	550.03
378.91	601.52
379.11	526.62
379.31	592.16
379.50	526.62
379.70	592.16
379.89	589.82
380.09	592.16
380.28	585.13
380.48	669.39
380.68	554.71
380.87	561.73
381.07	643.65
381.26	678.76
381.46	575.77
381.65	587.47
381.85	608.54
382.04	603.86
382.24	582.79
382.43	716.20
382.63	617.90
382.83	648.33
383.02	695.14
383.22	753.65
383.41	610.88
383.61	667.05
383.80	657.69
384.00	725.57
384.19	671.73
384.39	720.88
384.58	662.37
384.78	643.65
384.97	678.76
385.17	678.76
385.36	692.80
385.56	732.59
385.75	690.46
385.95	732.59
386.14	720.88
386.34	718.54
386.53	767.70
386.72	758.33
386.92	763.01
387.11	814.51
387.31	828.55
387.50	704.50
387.70	819.19
387.89	737.27
388.09	734.93
388.28	758.33
388.48	837.91
388.67	770.04
388.86	786.42
389.06	837.91
389.25	826.21
389.45	870.68
389.64	915.15
389.84	851.96
390.03	866.00
390.22	917.49
390.42	884.72
390.61	866.00
390.81	910.47
391.00	980.68
391.19	847.27
391.39	884.72
391.58	926.85
391.78	985.37
391.97	987.71
392.16	947.92
392.36	959.62
392.55	1034.52
392.75	922.17
392.94	1039.20
393.13	1057.92
393.33	945.58
393.52	950.26
393.71	1001.75
393.91	1046.22
394.10	1008.77
394.29	1055.58
394.49	1111.75
394.68	1137.50
394.88	1097.71
395.07	1123.46
395.26	1137.50
395.46	992.39
395.65	1132.82
395.84	1177.29
396.04	1200.69
396.23	1153.88
396.42	1228.78
396.62	1144.52
396.81	1165.59
397.00	1193.67
397.19	1111.75
397.39	1104.73
397.58	1254.53
397.77	1256.87
397.97	1383.26
398.16	1320.06
398.35	1217.08
398.55	1254.53
398.74	1331.76
398.93	1334.11
399.12	1362.19
399.32	1254.53
399.51	1348.15
399.70	1397.30
399.90	1261.55
400.09	1448.79
400.28	1537.73
400.47	1306.02
400.67	1474.54
400.86	1507.30
401.05	1453.47
401.24	1497.94
401.44	1500.28
401.63	1519.01
401.82	1647.74
402.01	1516.67
402.21	1528.37
402.40	1563.48
402.59	1584.54
402.78	1528.37
402.97	1579.86
403.17	1603.27
403.36	1586.88
403.55	1647.74
403.74	1680.50
403.93	1699.23
404.13	1664.12
404.32	1764.76
404.51	1645.40
404.70	1795.19
404.89	1898.17
405.09	1774.13
405.28	1820.94
405.47	1916.90
405.66	1797.53
405.85	1858.39
406.05	1942.64
406.24	1914.56
406.43	1907.54
406.62	1942.64
406.81	1914.56
407.00	1895.83
407.20	1811.57
407.39	2059.67
407.58	1900.52
407.77	1996.48
407.96	2043.29
408.15	2232.87
408.34	1989.46
408.54	2101.80
408.73	2139.25
408.92	2211.81
409.11	2230.53
409.30	2132.23
409.49	2230.53
409.68	2160.31
409.87	2237.55
410.07	2326.49
410.26	2312.45
410.45	2218.83
410.64	2244.57
410.83	2328.83
411.02	2396.71
411.21	2387.35
411.40	2476.29
411.59	2520.76
411.78	2457.56
411.98	2459.90
412.17	2520.76
412.36	2562.89
412.55	2665.87
412.74	2665.87
412.93	2658.85
413.12	2696.30
413.31	2862.48
413.50	2635.44
413.69	2792.26
413.88	2806.30
414.07	2942.05
414.26	2796.94
414.45	2946.73
414.64	2932.69
414.83	2970.14
415.02	3035.67
415.22	2995.89
415.41	3124.62
415.60	3138.66
415.79	3272.07
415.98	3148.02
416.17	3197.17
416.36	3152.70
416.55	3222.92
416.74	3286.11
416.93	3173.77
417.12	3337.60
417.31	3466.33
417.50	3337.60
417.69	3372.71
417.88	3417.18
418.07	3344.63
418.26	3471.01
418.45	3447.61
418.64	3562.30
418.83	3552.93
419.02	3574.00
419.21	3679.32
419.39	3639.53
419.58	3688.68
419.77	3653.58
419.96	3623.15
420.15	3747.20
420.34	3555.27
420.53	3714.43
420.72	3796.35
420.91	3798.69
421.10	3875.93
421.29	3889.97
421.48	3772.94
421.67	3957.85
421.86	3808.05
422.05	3988.27
422.24	3836.14
422.43	3751.88
422.61	3880.61
422.80	4060.83
422.99	4025.72
423.18	3957.85
423.37	4140.41
423.56	3948.48
423.75	4025.72
423.94	3918.06
424.13	3693.37
424.32	3929.76
424.50	3995.29
424.69	4117.00
424.88	4053.81
425.07	3971.89
425.26	3981.25
425.45	4079.55
425.64	4009.34
425.83	4114.66
426.01	4128.70
426.20	4074.87
426.39	4002.32
426.58	3992.95
426.77	3990.61
426.96	4084.23
427.15	4105.30
427.33	4196.58
427.52	4241.05
427.71	4210.62
427.90	4273.82
428.09	4369.78
428.28	4212.96
428.46	4353.40
428.65	4287.86
428.84	4498.51
429.03	4498.51
429.22	4383.82
429.40	4339.35
429.59	4454.04
429.78	4332.33
429.97	4212.96
430.16	4421.27
430.34	4510.21
430.53	4545.32
430.72	4456.38
430.91	4507.87
431.10	4634.26
431.28	4716.18
431.47	4662.35
431.66	4559.36
431.85	4664.69
432.03	4678.73
432.22	4788.74
432.41	4952.57
432.60	5025.13
432.79	4762.99
432.97	4875.34
433.16	4812.14
433.35	4823.84
433.54	4844.91
433.72	4858.95
433.91	5018.11
434.10	4844.91
434.28	4894.06
434.47	5069.60
434.66	5074.28
434.85	5137.48
435.03	5310.68
435.22	5109.39
435.41	5266.21
435.59	5137.48
435.78	5263.86
435.97	5252.16
436.16	5310.68
436.34	5205.35
436.53	5315.36
436.72	5266.21
436.90	5385.57
437.09	5563.45
437.28	5331.74
437.46	5425.36
437.65	5420.68
437.84	5493.24
438.02	5439.40
438.21	5434.72
438.40	5427.70
438.58	5678.14
438.77	5614.95
438.96	5788.14
439.14	5755.38
439.33	5825.59
439.52	5940.28
439.70	5820.91
439.89	5942.62
440.08	5996.45
440.26	5984.75
440.45	6057.31
440.63	6113.48
440.82	6188.38
441.01	6160.29
441.19	6171.99
441.38	6317.11
441.57	6377.96
441.75	6417.75
441.94	6370.94
442.12	6527.75
442.31	6604.99
442.50	6427.11
442.68	6600.31
442.87	6672.87
443.05	6616.69
443.24	6658.82
443.43	6670.53
443.61	6743.08
443.80	6895.22
443.98	6516.05
444.17	6492.65
444.35	6963.09
444.54	6920.96
444.73	6815.64
444.91	6925.65
445.10	6679.89
445.28	6808.62
445.47	6733.72
445.65	6780.53
445.84	6827.34
446.02	6906.92
446.21	6855.43
446.39	6839.05
446.58	6888.20
446.77	6939.69
446.95	6825.00
447.14	7012.24
447.32	7037.99
447.51	6925.65
447.69	6827.34
447.88	6930.33
448.06	6864.79
448.25	6888.20
448.43	6942.03
448.62	7002.88
448.80	6977.14
448.99	7077.78
449.17	7119.91
449.36	7250.98
449.54	7241.62
449.73	7222.89
449.91	7243.96
450.10	7241.62
450.28	7456.95
450.46	7346.94
450.65	7417.16
450.83	7412.48
451.02	7358.64
451.20	7386.73
451.39	7454.61
451.57	7494.40
451.76	7407.80
451.94	7379.71
452.13	7506.10
452.31	7583.34
452.49	7459.29
452.68	7534.18
452.86	7810.37
453.05	7613.76
453.23	7534.18
453.42	7681.64
453.60	7515.46
453.78	7756.54
453.97	7868.88
454.15	7854.84
454.34	7833.77
454.52	7981.23
454.70	8042.08
454.89	7887.61
455.07	7983.57
455.26	8093.57
455.44	8070.17
455.62	8049.10
455.81	8035.06
455.99	8023.36
456.17	8325.29
456.36	7896.97
456.54	8346.35
456.73	8454.02
456.91	8535.93
457.09	8489.12
457.28	8571.04
457.46	8329.97
457.64	8510.19
457.83	8369.76
458.01	8454.02
458.19	8627.21
458.38	8486.78
458.56	8894.04
458.74	8458.70
458.93	8594.45
459.11	8755.94
459.29	8922.12
459.48	8805.10
459.66	9032.13
459.84	8856.59
460.03	9130.43
460.21	8901.06
460.39	9039.15
460.57	9128.09
460.76	9259.16
460.94	9057.87
461.12	9247.46
461.31	8975.95
461.49	9205.33
461.67	9001.70
461.85	9387.89
462.04	9261.50
462.22	9811.53
462.40	9289.59
462.59	9455.76
462.77	9350.44
462.95	9336.40
463.13	9413.63
463.32	9327.03
463.50	9406.61
463.68	9420.66
463.86	9556.41
464.05	9327.03
464.23	9628.96
464.41	9638.33
464.59	9483.85
464.78	9820.89
464.96	9451.08
465.14	9486.19
465.32	9715.56
465.50	9923.87
465.69	10085.37
465.87	9846.63
466.05	9968.34
466.23	10005.79
466.41	10038.56
466.60	10111.11
466.78	10022.17
466.96	9926.21
467.14	9893.44
467.32	10050.26
467.51	10200.05
467.69	9886.42
467.87	10064.30
468.05	10237.50
468.23	10125.16
468.41	10125.16
468.60	10389.64
468.78	10363.89
468.96	9994.09
469.14	10345.17
469.32	10321.76
469.50	10106.43
469.69	10359.21
469.87	10684.55
470.05	10518.37
470.23	10431.77
470.41	10429.43
470.59	10600.29
470.77	10401.34
470.95	10539.43
471.14	10897.53
471.32	10628.37
471.50	11330.53
471.68	10967.75
471.86	11077.76
472.04	11307.13
472.22	11176.06
472.40	10949.03
472.58	11227.55
472.77	11208.83
472.95	11257.98
473.13	12049.08
473.31	11459.26
473.49	11297.77
473.67	11522.46
473.85	11466.28
474.03	11641.82
474.21	11700.34
474.39	12131.00
474.57	11964.82
474.75	12255.04
474.93	12245.68
475.12	12301.86
475.30	12072.48
475.48	12271.43
475.66	12432.93
475.84	12503.14
476.02	12479.74
476.20	12776.98
476.38	12458.67
476.56	12685.70
476.74	13060.19
476.92	12828.48
477.10	12753.58
477.28	12807.41
477.46	12830.82
477.64	13329.35
477.82	13369.14
478.00	13689.79
478.18	13549.36
478.36	13785.76
478.54	13792.78
478.72	13809.16
478.90	13837.25
479.08	14073.64
479.26	14061.94
479.44	14328.76
479.62	14312.38
479.80	14310.04
479.98	14462.17
480.16	14736.01
480.34	14586.22
480.52	15094.11
480.70	15159.65
480.88	15133.90
481.06	15089.43
481.24	15157.31
481.41	15290.72
481.59	16114.59
481.77	15716.70
481.95	15894.58
482.13	15948.41
482.31	15983.52
482.49	16018.63
482.67	15995.22
482.85	16479.71
483.03	16744.19
483.21	16711.42
483.39	17226.34
483.57	16814.41
483.74	17245.07
483.92	17401.88
484.10	17160.81
484.28	17500.19
484.46	17816.16
484.64	17958.93
484.82	17717.86
485.00	17996.38
485.18	18139.15
485.35	18476.19
485.53	18520.66
485.71	18691.52
485.89	18665.77
486.07	18759.39
486.25	18930.25
486.43	18986.43
486.61	19098.77
486.78	19676.88
486.96	19772.85
487.14	19852.42
487.32	19679.22
487.50	19957.75
487.68	20236.27
487.85	20606.08
488.03	20556.93
488.21	20952.48
488.39	20877.58
488.57	20753.53
488.75	21057.80
488.92	21326.96
489.10	21488.46
489.28	21254.40
489.46	21446.33
489.64	21495.48
489.81	22382.54
489.99	22258.49
490.17	22223.39
490.35	22614.26
490.53	22731.28
490.70	22944.27
490.88	23047.26
491.06	23098.75
491.24	22977.04
491.41	23283.65
491.59	23625.37
491.77	23683.88
491.95	24191.78
492.13	24123.90
492.30	23843.04
492.48	24254.97
492.66	24339.23
492.84	24266.67
493.01	24694.99
493.19	24828.40
493.37	25092.88
493.54	25130.33
493.72	25432.26
493.90	25558.65
494.08	25432.26
494.25	26153.15
494.43	25844.20
494.61	26188.25
494.79	26260.81
494.96	26242.09
495.14	26625.93
495.32	26801.47
495.49	26991.06
495.67	26773.39
495.85	27178.30
496.02	27503.64
496.20	27321.07
496.38	27515.34
496.55	27363.20
496.73	27938.97
496.91	28039.62
497.09	28346.23
497.26	28477.30
497.44	28395.38
497.62	28589.64
497.79	28687.95
497.97	28788.59
498.14	29525.86
498.32	29083.50
498.50	29130.31
498.67	29270.74
498.85	29092.86
499.03	29661.61
499.20	29788.00
499.38	29841.83
499.56	29869.92
499.73	30195.25
499.91	30054.82
500.08	30469.09
500.26	29944.81
500.44	30239.72
500.61	30356.75
500.79	30396.54
500.97	31157.21
501.14	31206.36
501.32	31215.72
501.49	30974.65
501.67	31321.05
501.84	31061.25
502.02	31213.38
502.20	31887.46
502.37	31995.12
502.55	31651.06
502.72	31782.13
502.90	31927.25
503.07	31634.68
503.25	32350.88
503.43	32002.14
503.60	32240.88
503.78	32486.64
503.95	32694.94
504.13	32528.77
504.30	32849.42
504.48	32786.22
504.65	32727.71
504.83	33273.06
505.01	33593.71
505.18	33233.27
505.36	33642.86
505.53	33455.62
505.71	33259.01
505.88	33565.62
506.06	33383.06
506.23	34305.23
506.41	33902.66
506.58	33963.51
506.76	33893.30
506.93	34347.36
507.11	34178.84
507.28	34464.39
507.46	34401.19
507.63	34651.63
507.81	34742.91
507.98	34361.40
508.16	34892.71
508.33	35248.47
508.50	34986.33
508.68	35077.61
508.85	35356.13
509.03	35662.74
509.20	35721.26
509.38	35868.71
509.55	36371.92
509.73	36273.62
509.90	35901.48
510.08	35857.01
510.25	36098.08
510.42	36641.09
510.60	36720.66
510.77	36645.77
510.95	36786.20
511.12	36584.91
511.30	36760.45
511.47	37237.92
511.64	37038.98
511.82	37088.13
511.99	37280.05
512.17	37497.72
512.34	37270.69
512.51	37750.50
512.69	37956.47
512.86	37518.79
513.04	38340.32
513.21	38143.71
513.38	38089.88
513.56	38398.83
513.73	37846.46
513.90	38419.89
514.08	37963.49
514.25	38628.20
514.43	39100.99
514.60	39108.01
514.77	38408.19
514.95	39243.76
515.12	38838.85
515.29	38794.38
515.47	38937.15
515.64	39353.77
515.81	39842.94
515.99	40053.59
516.16	39749.32
516.33	39786.77
516.51	39852.30
516.68	39407.60
516.85	39622.93
517.03	40137.85
517.20	40236.15
517.37	40149.55
517.54	40521.69
517.72	40378.92
517.89	40243.17
518.06	40601.27
518.24	40114.44
518.41	40418.71
518.58	40304.02
518.75	40753.41
518.93	41312.80
519.10	40219.77
519.27	41111.51
519.45	40680.85
519.62	41060.02
519.79	41368.97
519.96	41399.40
520.14	41301.09
520.31	41383.01
520.48	41607.70
520.65	42085.17
520.83	42155.39
521.00	41844.10
521.17	42019.64
521.34	41897.93
521.52	41989.21
521.69	41982.19
521.86	42368.38
522.03	42391.78
522.20	42045.38
522.38	42494.77
522.55	42583.71
522.72	42553.28
522.89	42536.90
523.07	42632.86
523.24	43047.13
523.41	43061.18
523.58	43000.32
523.75	42946.49
523.92	43000.32
524.10	43122.03
524.27	43271.82
524.44	43838.23
524.61	44098.03
524.78	43835.89
524.96	43824.19
525.13	43611.20
525.30	43775.04
525.47	43901.43
525.64	43739.93
525.81	43981.01
525.98	44631.68
526.16	44018.46
526.33	44002.07
526.50	44479.54
526.67	44208.04
526.84	44231.44
527.01	43934.20
527.18	44488.90
527.36	44788.49
527.53	44491.24
527.70	45228.51
527.87	45532.78
528.04	45069.36
528.21	44968.71
528.38	45146.59
528.55	45029.57
528.72	45174.68
528.89	45806.62
529.07	45647.47
529.24	45294.05
529.41	45294.05
529.58	45233.19
529.75	45247.24
529.92	45663.85
530.09	45610.02
530.26	45724.71
530.43	45347.88
530.60	45865.14
530.77	45684.92
530.94	46038.34
531.11	45851.09
531.28	45750.45
531.46	45890.88
531.63	46293.46
531.80	46291.12
531.97	46036.00
532.14	46328.56
532.31	46057.06
532.48	46260.69
532.65	46394.10
532.82	46396.44
532.99	46878.59
533.16	46541.55
533.33	47070.51
533.50	47299.89
533.67	46838.80
533.84	46415.16
534.01	46763.90
534.18	46679.64
534.35	47070.51
534.52	46890.29
534.69	46913.70
534.86	47416.91
535.03	47021.36
535.20	46941.78
535.37	47178.18
535.54	47557.35
535.71	47192.22
535.88	47222.65
536.05	47222.65
536.22	47927.15
536.38	47887.36
536.55	47739.91
536.72	47569.05
536.89	47529.26
537.06	47620.54
537.23	47669.69
537.40	48013.75
537.57	47978.64
537.74	47985.66
537.91	48175.25
538.08	48315.68
538.25	47966.94
538.42	48210.35
538.59	48205.67
538.75	48051.20
538.92	48205.67
539.09	48332.06
539.26	48439.73
539.43	48250.14
539.60	48568.46
539.77	48313.34
539.94	48542.71
540.11	48715.91
540.28	48804.85
540.44	48638.67
540.61	48505.26
540.78	48650.38
540.95	49066.99
541.12	49008.48
541.29	49256.57
541.46	48493.56
541.62	48985.07
541.79	48846.98
541.96	48301.64
542.13	48676.12
542.30	49254.23
542.47	49261.26
542.63	49404.03
542.80	49326.79
542.97	49794.90
543.14	49724.68
543.31	49525.74
543.48	49408.71
543.64	49989.16
543.81	49689.57
543.98	49794.90
544.15	49993.84
544.32	49853.41
544.48	50323.86
544.65	49989.16
544.82	49904.90
544.99	49825.32
545.16	49937.67
545.32	50080.44
545.49	50082.78
545.66	50473.65
545.83	50497.06
546.00	50731.11
546.16	50536.85
546.33	50003.20
546.50	50000.86
546.67	50459.61
546.83	49984.48
547.00	50141.30
547.17	50188.11
547.34	50536.85
547.50	50522.80
547.67	50815.37
547.84	50660.90
548.00	50836.44
548.17	50543.87
548.34	50581.32
548.51	51131.34
548.67	50827.07
548.84	50876.22
549.01	50555.57
549.18	51002.61
549.34	50784.94
549.51	51131.34
549.68	50766.22
549.84	50855.16
550.01	51138.36
550.18	50775.58
550.34	51133.68
550.51	51356.03
550.68	51239.01
550.84	51063.47
551.01	50908.99
551.18	50836.44
551.34	50932.40
551.51	51173.47
551.68	51356.03
551.84	51377.10
552.01	51147.73
552.18	51353.69
552.34	51550.30
552.51	51721.16
552.68	51276.46
552.84	51594.77
553.01	51489.45
553.18	51480.08
553.34	51693.07
553.51	51660.30
553.67	51847.55
553.84	51838.18
554.01	52055.85
554.17	51992.66
554.34	51784.35
554.51	51765.63
554.67	51707.12
554.84	51779.67
555.00	51796.06
555.17	51892.02
555.33	51959.89
555.50	51957.55
555.67	51913.08
555.83	51613.49
556.00	51676.69
556.16	52126.07
556.33	51856.91
556.50	51639.24
556.66	52137.77
556.83	51929.47
556.99	52182.24
557.16	52481.83
557.32	52184.58
557.49	52254.80
557.65	52177.56
557.82	51882.66
557.98	52453.75
558.15	52158.84
558.32	52346.08
558.48	52474.81
558.65	52519.28
558.81	52186.92
558.98	52177.56
559.14	52526.30
559.31	52184.58
559.47	52402.25
559.64	52547.37
559.80	52664.39
559.97	52631.63
560.13	52755.68
560.30	52435.02
560.46	52430.34
560.63	52390.55
560.79	52442.04
560.96	52795.46
561.12	52493.54
561.29	52505.24
561.45	52535.66
561.61	52734.61
561.78	52774.40
561.94	52772.06
562.11	53024.84
562.27	52519.28
562.44	52568.43
562.60	52788.44
562.77	52493.54
562.93	52657.37
563.10	52734.61
563.26	52750.99
563.42	53198.04
563.59	52645.67
563.75	53127.82
563.92	53073.99
564.08	52556.73
564.24	52769.72
564.41	52439.70
564.57	52942.92
564.74	52678.44
564.90	53102.07
565.07	52835.25
565.23	53041.22
565.39	52861.00
565.56	53258.89
565.72	52821.21
565.88	52947.60
566.05	52720.57
566.21	52795.46
566.38	52800.15
566.54	53151.23
566.70	53125.48
566.87	53275.27
567.03	52844.62
567.19	53284.64
567.36	53071.65
567.52	52956.96
567.68	53237.83
567.85	52917.17
568.01	53148.88
568.17	53029.52
568.34	53137.18
568.50	53106.76
568.66	53249.53
568.83	53158.25
568.99	52846.96
569.15	52931.22
569.32	53003.77
569.48	52875.04
569.64	52999.09
569.81	53113.78
569.97	53275.27
570.13	53380.60
570.30	53048.24
570.46	53207.40
570.62	53247.19
570.78	53167.61
570.95	53123.14
571.11	53450.81
571.27	52837.59
571.43	53183.99
571.60	52954.62
571.76	53244.85
571.92	53212.08
572.09	53411.02
572.25	53464.86
572.41	53041.22
572.57	53256.55
572.74	53474.22
572.90	53399.32
573.06	53162.93
573.22	53209.74
573.38	53406.34
573.55	53251.87
573.71	53724.66
573.87	53413.37
574.03	53092.71
574.20	53263.57
574.36	53282.30
574.52	52900.79
574.68	53256.55
574.84	53373.58
575.01	53532.73
575.17	53738.70
575.33	53352.51
575.49	53308.04
575.65	53399.32
575.82	53502.31
575.98	53308.04
576.14	53755.08
576.30	53502.31
576.46	53244.85
576.62	53251.87
576.79	53174.63
576.95	53160.59
577.11	53918.92
577.27	53305.70
577.43	53675.51
577.59	53525.71
577.75	53179.31
577.92	53242.51
578.08	53139.52
578.24	53289.32
578.40	53572.52
578.56	53698.91
578.72	53666.14
578.88	53649.76
579.04	53418.05
579.21	53352.51
579.37	53584.22
579.53	53661.46
579.69	53076.33
579.85	53532.73
580.01	53785.51
580.17	53544.44
580.33	53464.86
580.49	53675.51
580.65	53602.95
580.82	53619.33
580.98	53570.18
581.14	53595.93
581.30	53759.76
581.46	53432.09
581.62	53345.49
581.78	53244.85
581.94	53659.12
582.10	53404.00
582.26	53560.82
582.42	53572.52
582.58	53614.65
582.74	53350.17
582.90	53645.08
583.06	53727.00
583.22	53404.00
583.38	53715.29
583.54	53656.78
583.70	53759.76
583.86	53624.01
584.02	53265.91
584.18	53808.92
584.34	53553.80
584.50	53818.28
584.66	53425.07
584.82	53560.82
584.98	53663.80
585.14	53427.41
585.30	53263.57
585.46	53331.45
585.62	53148.88
585.78	53584.22
585.94	53443.79
586.10	53645.08
586.26	53366.55
586.42	53937.65
586.58	53631.04
586.74	53404.00
586.90	53389.96
587.06	53310.38
587.22	53535.07
587.38	53322.08
587.54	53584.22
587.70	53839.34
587.86	53654.44
588.02	53858.07
588.18	53783.17
588.34	53776.15
588.49	53680.19
588.65	53420.39
588.81	53443.79
588.97	53525.71
589.13	53439.11
589.29	53588.91
589.45	53558.48
589.61	53888.49
589.77	53944.67
589.93	53820.62
590.08	53844.02
590.24	53673.16
590.40	53839.34
590.56	53876.79
590.72	54014.88
590.88	53769.13
591.04	53654.44
591.20	53956.37
591.35	53729.34
591.51	54113.19
591.67	54148.29
591.83	53968.07
591.99	53764.45
592.15	53848.71
592.31	53982.12
592.46	53668.48
592.62	53705.93
592.78	53743.38
592.94	53928.28
593.10	53677.85
593.26	54160.00
593.41	54143.61
593.57	53841.68
593.73	54108.50
593.89	54167.02
594.05	53689.55
594.20	53698.91
594.36	53829.98
594.52	54033.61
594.68	53715.29
594.84	53710.61
594.99	53979.78
595.15	53956.37
595.31	54255.96
595.47	54080.42
595.62	54047.65
595.78	53633.38
595.94	53930.62
596.10	53900.20
596.25	54035.95
596.41	53652.10
596.57	53918.92
596.73	54171.70
596.88	53588.91
597.04	53993.82
597.20	54291.07
597.36	54253.62
597.51	53815.94
597.67	53860.41
597.83	53818.28
597.99	54085.10
598.14	54094.46
598.30	53895.52
598.46	53712.95
598.61	53876.79
598.77	53483.58
598.93	53982.12
599.09	53738.70
599.24	54330.86
599.40	54120.21
599.56	54167.02
599.71	53869.77
599.87	53904.88
600.03	53972.75
600.18	53937.65
600.34	53993.82
600.50	54115.53
600.65	54089.78
600.81	54057.01
600.97	54270.00
601.12	54279.36
601.28	54211.49
601.44	53893.18
601.59	53909.56
601.75	53675.51
601.91	54031.27
602.06	53916.58
602.22	53846.36
602.37	54026.59
602.53	54138.93
602.69	53900.20
602.84	53911.90
603.00	54021.90
603.16	54272.34
603.31	54073.40
603.47	53792.53
603.62	53822.96
603.78	53745.72
603.94	53731.68
604.09	53769.13
604.25	53668.48
604.40	53790.19
604.56	53851.05
604.71	54010.20
604.87	53979.78
605.03	53858.07
605.18	53769.13
605.34	53902.54
605.49	53654.44
605.65	53893.18
605.80	53771.47
605.96	53895.52
606.12	53549.12
606.27	53661.46
606.43	53813.60
606.58	53904.88
606.74	53647.42
606.89	53748.06
607.05	54033.61
607.20	53956.37
607.36	53532.73
607.51	53689.55
607.67	53694.23
607.82	53645.08
607.98	53272.93
608.13	53673.16
608.29	53811.26
608.44	53801.89
608.60	53883.81
608.75	53951.69
608.91	53916.58
609.06	53478.90
609.22	53439.11
609.37	53326.77
609.53	53609.97
609.68	53350.17
609.84	53401.66
609.99	53771.47
610.15	53516.35
610.30	53495.28
610.46	53345.49
610.61	53251.87
610.76	53598.27
610.92	53773.81
611.07	53408.68
611.23	53757.42
611.38	53251.87
611.54	53495.28
611.69	53254.21
611.84	53249.53
612.00	53567.84
612.15	53385.28
612.31	53546.78
612.46	53415.71
612.62	53436.77
612.77	53071.65
612.92	53256.55
613.08	53265.91
613.23	53158.25
613.39	53228.46
613.54	53134.84
613.69	53286.98
613.85	53073.99
614.00	53368.90
614.15	53289.32
614.31	52851.64
614.46	53495.28
614.62	53181.65
614.77	53539.75
614.92	53116.12
615.08	53111.44
615.23	53237.83
615.38	53148.88
615.54	52846.96
615.69	53059.94
615.84	52746.31
616.00	52788.44
616.15	52938.24
616.30	53116.12
616.46	53169.95
616.61	53097.39
616.76	53242.51
616.92	52961.64
617.07	53179.31
617.22	52914.83
617.37	52692.48
617.53	52959.30
617.68	52556.73
617.83	52774.40
617.99	52931.22
618.14	52868.02
618.29	52589.50
618.45	52708.86
618.60	53078.67
618.75	52811.85
618.90	52603.54
619.06	52832.91
619.21	52259.48
619.36	52858.66
619.51	52631.63
619.67	52222.03
619.82	52442.04
619.97	52624.60
620.12	52538.01
620.28	52259.48
620.43	52346.08
620.58	52289.91
620.73	52769.72
620.89	52341.40
621.04	52437.36
621.19	52530.98
621.34	52362.46
621.49	52215.01
621.65	51978.62
621.80	52158.84
621.95	52264.16
622.10	52507.58
622.25	52184.58
622.41	52252.46
622.56	52336.72
622.71	52453.75
622.86	52261.82
623.01	52334.38
623.16	52294.59
623.32	52268.84
623.47	52116.71
623.62	52219.69
623.77	52179.90
623.92	52037.13
624.07	52079.26
624.23	52135.43
624.38	51578.39
624.53	52074.58
624.68	52044.15
624.83	51992.66
624.98	52062.88
625.13	51693.07
625.29	51952.87
625.44	51693.07
625.59	51533.92
625.74	51498.81
625.89	51672.01
626.04	51613.49
626.19	51716.48
626.34	51571.36
626.49	51543.28
626.65	51620.52
626.80	51711.80
626.95	51480.08
627.10	51522.21
627.25	51650.94
627.40	51714.14
627.55	51519.87
627.70	51388.80
627.85	51356.03
628.00	51227.31
628.15	51325.61
628.30	51021.34
628.45	51313.90
628.60	51536.26
628.76	51313.90
628.91	51391.14
629.06	51157.09
629.21	51185.18
629.36	51180.49
629.51	51217.94
629.66	51070.49
629.81	50876.22
629.96	50852.82
630.11	51292.84
630.26	51037.72
630.41	50990.91
630.56	50672.60
630.71	51147.73
630.86	51267.09
631.01	50880.91
631.16	51047.08
631.31	50901.97
631.46	50880.91
631.61	50543.87
631.76	51105.60
631.91	50688.98
632.06	50588.34
632.21	50541.53
632.36	50848.14
632.51	50541.53
632.66	50436.20
632.81	50630.47
632.96	50859.84
633.10	50473.65
633.25	50415.14
633.40	50649.19
633.55	50375.35
633.70	50092.15
633.85	50255.98
634.00	50263.00
634.15	50433.86
634.30	50576.64
634.45	50475.99
634.60	50567.27
634.75	50436.20
634.90	50192.79
635.05	50148.32
635.19	50438.54
635.34	50270.03
635.49	50670.26
635.64	50150.66
635.79	50089.80
635.94	50019.59
636.09	50202.15
636.24	50078.10
636.39	49766.81
636.53	50059.38
636.68	49818.30
636.83	50263.00
636.98	50756.86
637.13	50127.25
637.28	50197.47
637.43	49975.12
637.57	50061.72
637.72	49886.18
637.87	49734.04
638.02	49925.97
638.17	50017.25
638.32	49710.64
638.46	49598.29
638.61	50190.45
638.76	49516.37
638.91	49862.77
639.06	49839.37
639.20	49776.17
639.35	49696.59
639.50	49418.07
639.65	50021.93
639.80	49663.83
639.94	49483.61
640.09	49624.04
640.24	49397.01
640.39	49298.70
640.54	49228.49
640.68	49275.30
640.83	49439.14
640.98	49258.91
641.13	49184.02
641.27	49584.25
641.42	49134.87
641.57	49481.27
641.72	49359.56
641.86	49172.31
642.01	49074.01
642.16	49144.23
642.31	49078.69
642.45	49160.61
642.60	48736.98
642.75	49347.86
642.90	49209.76
643.04	49083.37
643.19	48844.64
643.34	48933.58
643.48	48622.29
643.63	49104.44
643.78	49247.21
643.93	48893.79
644.07	48765.06
644.22	49097.42
644.37	48879.75
644.51	48797.83
644.66	49013.16
644.81	48842.30
644.95	48444.41
645.10	48636.33
645.25	48774.42
645.39	48409.30
645.54	48495.90
645.69	48882.09
645.83	48884.43
645.98	48659.74
646.13	48507.60
646.27	48814.21
646.42	48786.13
646.57	48397.60
646.71	48126.10
646.86	48746.34
647.00	48039.50
647.15	48217.38
647.30	48285.25
647.44	47978.64
647.59	48582.50
647.74	47945.87
647.88	48191.63
648.03	48624.63
648.17	48762.72
648.32	48306.32
648.47	48266.53
648.61	48301.64
648.76	48133.12
648.90	47896.72
649.05	48154.18
649.20	47973.96
649.34	48615.27
649.49	47550.32
649.63	48109.71
649.78	48582.50
649.92	48137.80
650.07	48807.19
650.21	47814.80
650.36	47999.71
650.51	48011.41
650.65	47985.66
650.80	48172.91
650.94	47669.69
651.09	47915.45
651.23	47344.36
651.38	47536.28
651.52	47505.85
651.67	47004.98
651.81	47756.29
651.96	47419.25
652.10	47501.17
652.25	47339.68
652.39	47779.70
652.54	48009.07
652.68	48006.73
652.83	47365.42
652.97	47873.32
653.12	47885.02
653.26	47285.84
653.41	47573.73
653.55	47402.87
653.70	47337.33
653.84	47030.72
653.99	47580.75
654.13	47257.76
654.27	47056.47
654.42	47159.45
654.56	47419.25
654.71	47323.29
654.85	47281.16
655.00	47072.85
655.14	47224.99
655.29	47182.86
655.43	46948.81
655.57	46941.78
655.72	46499.42
655.86	46539.21
656.01	46300.48
656.15	46351.97
656.30	46651.56
656.44	47000.30
656.58	46492.40
656.73	46735.82
656.87	46616.45
657.01	46696.03
657.16	46997.96
657.30	46593.04
657.45	46614.11
657.59	46880.93
657.73	46490.06
657.88	46564.96
658.02	46305.16
658.16	46396.44
658.31	46115.58
658.45	46384.74
658.60	45954.08
658.74	46361.33
658.88	45780.88
659.03	45865.14
659.17	45874.50
659.31	45909.61
659.46	46202.18
659.60	45989.19
659.74	45867.48
659.89	45860.46
660.03	45947.06
660.17	45968.12
660.32	45705.98
660.46	45560.87
660.60	45724.71
660.74	45799.60
660.89	45617.04
661.03	45584.27
661.17	45525.76
661.32	45434.48
661.46	45361.92
661.60	45308.09
661.74	45607.68
661.89	45478.95
662.03	45268.30
662.17	45198.09
662.31	45280.00
662.46	45071.70
662.60	45074.04
662.74	44636.36
662.88	44734.66
663.03	44414.01
663.17	44500.61
663.31	44306.34
663.45	44559.12
663.60	44371.88
663.74	44456.14
663.88	44402.30
664.02	44259.53
664.17	44320.38
664.31	44229.10
664.45	44341.45
664.59	44196.34
664.73	43704.82
664.88	44058.24
665.02	43271.82
665.16	43702.48
665.30	43725.89
665.44	43533.96
665.59	43540.99
665.73	43913.13
665.87	44126.12
666.01	43615.88
666.15	43915.47
666.29	43690.78
666.44	43728.23
666.58	43522.26
666.72	43653.33
666.86	43585.46
667.00	43381.83
667.14	43292.89
667.28	43569.07
667.43	43442.68
667.57	43255.44
667.71	43208.63
667.85	42848.19
667.99	42602.43
668.13	42478.38
668.27	42656.26
668.41	42761.59
668.56	42557.96
668.70	42859.89
668.84	42515.83
668.98	42700.73
669.12	42499.45
669.26	42120.28
669.40	42206.88
669.54	42110.92
669.68	41998.57
669.82	41743.45
669.96	42017.30
670.10	42164.75
670.25	42099.22
670.39	41860.48
670.53	41598.34
670.67	41268.33
670.81	41961.12
670.95	41249.60
671.09	41937.72
671.23	41439.18
671.37	41556.21
671.51	41242.58
671.65	41720.05
671.79	41125.55
671.93	40807.24
672.07	40919.59
672.21	40687.87
672.35	40641.06
672.49	40575.53
672.63	40575.53
672.77	40355.52
672.91	40212.74
673.05	40367.22
673.19	40451.48
673.33	40179.98
673.47	40135.51
673.61	40076.99
673.75	39892.09
673.89	40350.84
674.03	40121.46
674.17	39711.87
674.31	39810.17
674.45	39604.20
674.59	39761.02
674.73	39517.60
674.87	39178.23
675.01	39234.40
675.15	39264.83
675.29	39435.69
675.43	39185.25
675.56	39583.14
675.70	38990.98
675.84	38892.68
675.98	38087.54
676.12	38946.51
676.26	38906.73
676.40	38916.09
676.54	38576.71
676.68	38588.41
676.82	37411.12
676.96	37769.22
677.10	38286.48
677.23	37926.04
677.37	37640.50
677.51	37471.98
677.65	37907.32
677.79	37366.65
677.93	37600.71
678.07	37633.47
678.21	37277.71
678.34	37244.94
678.48	36849.39
678.62	36781.52
678.76	36718.32
678.90	36613.00
679.04	36842.37
679.18	36102.76
679.31	35899.14
679.45	36378.95
679.59	35393.58
679.73	35952.97
679.87	36037.23
680.00	35655.72
680.14	35405.28
680.28	35997.44
680.42	35344.43
680.56	35297.62
680.70	35054.20
680.83	35321.02
680.97	35229.74
681.11	35672.10
681.25	35124.42
681.39	35086.97
681.52	34349.70
681.66	34204.59
681.80	34450.35
681.94	34424.60
682.07	34408.22
682.21	34167.14
682.35	34237.36
682.49	34059.48
682.62	33589.03
682.76	33631.16
682.90	33469.66
683.04	33413.49
683.17	33675.63
683.31	33352.63
683.45	33462.64
683.59	33411.15
683.72	33120.92
683.86	33125.60
684.00	32971.13
684.13	33134.96
684.27	32481.95
684.41	32133.21
684.55	32400.04
684.68	32236.20
684.82	31964.70
684.96	32016.19
685.09	31875.76
685.23	31875.76
685.37	32102.79
685.50	31702.56
685.64	31826.60
685.78	31653.40
685.91	31608.93
686.05	31758.73
686.19	30698.47
686.32	31138.49
686.46	31007.42
686.60	30696.13
686.73	30792.09
686.87	30433.99
687.01	30703.15
687.14	30328.66
687.28	30164.82
687.42	30382.49
687.55	30136.74
687.69	30361.43
687.82	30155.46
687.96	30143.76
688.10	29979.92
688.23	30164.82
688.37	29972.90
688.50	29357.34
688.64	29577.35
688.78	29343.30
688.91	29237.97
689.05	28849.44
689.18	29223.93
689.32	28472.62
689.46	28395.38
689.59	28926.68
689.73	28407.08
689.86	28273.67
690.00	28107.49
690.13	28210.48
690.27	28189.41
690.41	27864.08
690.54	28119.20
690.68	27749.39
690.81	27810.25
690.95	28173.03
691.08	27882.80
691.22	28056.00
691.35	27454.48
691.49	27763.43
691.62	27091.70
691.76	27080.00
691.89	27012.12
692.03	26576.78
692.16	26759.34
692.30	26438.69
692.43	26927.86
692.57	26389.54
692.70	26693.81
692.84	26136.76
692.97	26188.25
693.11	25968.24
693.24	26134.42
693.38	25975.27
693.51	26164.85
693.65	26274.85
693.78	25654.61
693.92	25947.18
694.05	25762.28
694.19	25074.16
694.32	24931.39
694.45	24865.85
694.59	25261.40
694.72	24680.95
694.86	24435.19
694.99	24430.51
695.13	24453.92
695.26	24542.86
695.39	24577.97
695.53	24842.45
695.66	24453.92
695.80	24364.98
695.93	24322.85
696.07	24032.62
696.20	23843.04
696.33	24105.18
696.47	23566.85
696.60	23679.20
696.73	23711.97
696.87	23658.14
697.00	22970.02
697.14	23103.43
697.27	22890.44
697.40	22998.10
697.54	22998.10
697.67	22604.89
697.80	22480.85
697.94	22031.46
698.07	22492.55
698.21	22415.31
698.34	22267.86
698.47	22424.67
698.61	22141.47
698.74	22125.08
698.87	22185.94
699.01	22162.53
699.14	21855.92
699.27	21661.66
699.40	21919.12
699.54	21458.03
699.67	21441.65
699.80	20954.82
699.94	21097.59
700.07	21116.31
700.20	20816.72
700.34	20676.29
700.47	20938.43
700.60	21048.44
700.73	20980.56
700.87	20533.52
701.00	20301.81
701.13	20484.37
701.26	20662.25
701.40	20428.20
701.53	20297.13
701.66	20191.80
701.79	19971.79
701.93	19878.17
702.06	19824.34
702.19	19417.08
702.32	19440.49
702.46	19538.79
702.59	19538.79
702.72	19218.14
702.85	18974.72
702.99	19234.52
703.12	19185.37
703.25	18661.09
703.38	19218.14
703.51	18785.14
703.65	19286.01
703.78	18911.53
703.91	18974.72
704.04	18630.66
704.17	18747.69
704.31	18562.79
704.44	17942.55
704.57	18122.77
704.70	18012.76
704.83	17982.34
704.96	17771.69
705.10	17867.65
705.23	17544.66
>>>>>End Processed Spectral Data<<<<<
