SpectraSuite Data File
++++++++++++++++++++++++++++++++++++
Date: Fri Oct 04 11:48:21 GMT-05:00 2013
User: price-jones
Dark Spectrum Present: No
Reference Spectrum Present: No
Number of Sampled Component Spectra: 1
Spectrometers: USB2+H05261
Integration Time (usec): 100000 (USB2+H05261)
Spectra Averaged: 1 (USB2+H05261)
Boxcar Smoothing: 0 (USB2+H05261)
Correct for Electrical Dark: No (USB2+H05261)
Strobe/Lamp Enabled: No (USB2+H05261)
Correct for Detector Non-linearity: No (USB2+H05261)
Correct for Stray Light: No (USB2+H05261)
Number of Pixels in Processed Spectrum: 2048
>>>>>Begin Processed Spectral Data<<<<<
365.73	49.15
365.92	49.15
366.12	49.15
366.32	0.00
366.52	0.00
366.72	0.00
366.91	0.00
367.11	0.00
367.31	0.00
367.51	0.00
367.70	0.00
367.90	0.00
368.10	0.00
368.30	0.00
368.49	0.00
368.69	0.00
368.89	0.00
369.09	0.00
369.28	0.00
369.48	0.00
369.68	0.00
369.87	0.00
370.07	0.00
370.27	124.05
370.47	58.51
370.66	28.09
370.86	63.19
371.06	131.07
371.25	107.66
371.45	23.41
371.65	95.96
371.84	98.30
372.04	93.62
372.24	112.35
372.44	126.39
372.63	105.32
372.83	142.77
373.03	138.09
373.22	58.51
373.42	138.09
373.62	105.32
373.81	163.84
374.01	161.50
374.21	142.77
374.40	180.22
374.60	227.03
374.79	98.30
374.99	180.22
375.19	210.65
375.38	189.58
375.58	198.95
375.78	152.13
375.97	234.05
376.17	180.22
376.37	177.88
376.56	217.67
376.76	212.99
376.95	177.88
377.15	133.41
377.35	234.05
377.54	105.32
377.74	163.84
377.93	189.58
378.13	175.54
378.33	140.43
378.52	142.77
378.72	231.71
378.91	184.90
379.11	58.51
379.31	112.35
379.50	149.79
379.70	149.79
379.89	159.16
380.09	88.94
380.28	114.69
380.48	140.43
380.68	156.82
380.87	191.92
381.07	145.11
381.26	163.84
381.46	177.88
381.65	107.66
381.85	142.77
382.04	126.39
382.24	175.54
382.43	161.50
382.63	140.43
382.83	187.24
383.02	255.12
383.22	128.73
383.41	145.11
383.61	222.35
383.80	189.58
384.00	156.82
384.19	222.35
384.39	124.05
384.58	191.92
384.78	175.54
384.97	264.48
385.17	145.11
385.36	212.99
385.56	229.37
385.75	217.67
385.95	173.20
386.14	255.12
386.34	184.90
386.53	248.10
386.72	126.39
386.92	152.13
387.11	180.22
387.31	189.58
387.50	166.18
387.70	152.13
387.89	154.48
388.09	198.95
388.28	177.88
388.48	191.92
388.67	220.01
388.86	212.99
389.06	220.01
389.25	191.92
389.45	175.54
389.64	201.29
389.84	205.97
390.03	245.76
390.22	278.52
390.42	196.60
390.61	208.31
390.81	173.20
391.00	194.26
391.19	245.76
391.39	208.31
391.58	194.26
391.78	194.26
391.97	266.82
392.16	255.12
392.36	252.78
392.55	175.54
392.75	201.29
392.94	327.68
393.13	259.80
393.33	255.12
393.52	280.86
393.71	259.80
393.91	250.44
394.10	227.03
394.29	273.84
394.49	257.46
394.68	287.89
394.88	325.33
395.07	248.10
395.26	292.57
395.46	198.95
395.65	271.50
395.84	299.59
396.04	367.46
396.23	365.12
396.42	325.33
396.62	276.18
396.81	208.31
397.00	243.42
397.19	229.37
397.39	299.59
397.58	416.62
397.77	332.36
397.97	250.44
398.16	353.42
398.35	360.44
398.55	252.78
398.74	358.10
398.93	400.23
399.12	365.12
399.32	402.57
399.51	339.38
399.70	407.25
399.90	330.02
400.09	404.91
400.28	358.10
400.47	360.44
400.67	362.78
400.86	447.04
401.05	386.19
401.24	388.53
401.44	348.74
401.63	461.09
401.82	433.00
402.01	416.62
402.21	404.91
402.40	411.93
402.59	475.13
402.78	416.62
402.97	372.15
403.17	425.98
403.36	475.13
403.55	428.32
403.74	390.87
403.93	566.41
404.13	491.51
404.32	512.58
404.51	447.04
404.70	425.98
404.89	454.06
405.09	538.32
405.28	409.59
405.47	543.00
405.66	662.37
405.85	557.05
406.05	510.24
406.24	547.69
406.43	608.54
406.62	587.47
406.81	634.29
407.00	578.11
407.20	582.79
407.39	519.60
407.58	643.65
407.77	606.20
407.96	657.69
408.15	730.25
408.34	636.63
408.54	648.33
408.73	657.69
408.92	690.46
409.11	709.18
409.30	657.69
409.49	702.16
409.68	631.94
409.87	828.55
410.07	755.99
410.26	709.18
410.45	636.63
410.64	709.18
410.83	753.65
411.02	812.17
411.21	816.85
411.40	833.23
411.59	786.42
411.78	880.04
411.98	870.68
412.17	821.53
412.36	924.51
412.55	889.40
412.74	866.00
412.93	971.32
413.12	844.93
413.31	891.74
413.50	905.79
413.69	966.64
413.88	889.40
414.07	983.02
414.26	1025.15
414.45	964.30
414.64	931.53
414.83	1008.77
415.02	964.30
415.22	999.41
415.41	1036.86
415.60	1090.69
415.79	1086.01
415.98	1123.46
416.17	1036.86
416.36	1034.52
416.55	1074.31
416.74	1048.56
416.93	1018.13
417.12	1107.07
417.31	1071.97
417.50	1027.50
417.69	1235.80
417.88	1167.93
418.07	1210.06
418.26	1151.54
418.45	1252.19
418.64	1233.46
418.83	1235.80
419.02	1139.84
419.21	1247.51
419.39	1259.21
419.58	1226.44
419.77	1233.46
419.96	1268.57
420.15	1266.23
420.34	1170.27
420.53	1303.68
420.72	1317.72
420.91	1277.93
421.10	1385.60
421.29	1362.19
421.48	1329.42
421.67	1235.80
421.86	1324.74
422.05	1385.60
422.24	1350.49
422.43	1334.11
422.61	1343.47
422.80	1376.24
422.99	1324.74
423.18	1383.26
423.37	1329.42
423.56	1310.70
423.75	1320.06
423.94	1315.38
424.13	1259.21
424.32	1336.45
424.50	1394.96
424.69	1348.15
424.88	1430.07
425.07	1291.98
425.26	1376.24
425.45	1266.23
425.64	1376.24
425.83	1427.73
426.01	1390.28
426.20	1320.06
426.39	1394.96
426.58	1437.09
426.77	1437.09
426.96	1306.02
427.15	1343.47
427.33	1427.73
427.52	1490.92
427.71	1411.34
427.90	1432.41
428.09	1451.13
428.28	1535.39
428.46	1596.25
428.65	1570.50
428.84	1558.80
429.03	1668.80
429.22	1549.43
429.40	1551.78
429.59	1549.43
429.78	1469.86
429.97	1490.92
430.16	1420.71
430.34	1528.37
430.53	1596.25
430.72	1605.61
430.91	1589.22
431.10	1390.28
431.28	1598.59
431.47	1694.55
431.66	1671.14
431.85	1563.48
432.03	1631.35
432.22	1774.13
432.41	1631.35
432.60	1708.59
432.79	1591.56
432.97	1776.47
433.16	1755.40
433.35	1612.63
433.54	1708.59
433.72	1750.72
433.91	1713.27
434.10	1795.19
434.28	1610.29
434.47	1746.04
434.66	1860.73
434.85	1692.21
435.03	1732.00
435.22	1818.60
435.41	1844.34
435.59	1717.95
435.78	1802.21
435.97	1788.17
436.16	1804.55
436.34	1797.53
436.53	1834.98
436.72	1860.73
436.90	1823.28
437.09	1877.11
437.28	1799.87
437.46	1849.02
437.65	1900.52
437.84	1874.77
438.02	2008.18
438.21	1916.90
438.40	1900.52
438.58	1884.13
438.77	1818.60
438.96	1970.73
439.14	1994.14
439.33	1975.41
439.52	1947.33
439.70	1928.60
439.89	2071.37
440.08	2139.25
440.26	2054.99
440.45	1987.11
440.63	2064.35
440.82	2120.53
441.01	2106.48
441.19	2150.95
441.38	2235.21
441.57	2136.91
441.75	2181.38
441.94	2237.55
442.12	2132.23
442.31	2195.42
442.50	2296.07
442.68	2354.58
442.87	2253.94
443.05	2326.49
443.24	2228.19
443.43	2413.09
443.61	2300.75
443.80	2256.28
443.98	2225.85
444.17	2160.31
444.35	2296.07
444.54	2349.90
444.73	2265.64
444.91	2260.96
445.10	2373.30
445.28	2195.42
445.47	2422.45
445.65	2216.49
445.84	2293.72
446.02	2291.38
446.21	2335.85
446.39	2361.60
446.58	2303.09
446.77	2434.16
446.95	2279.68
447.14	2375.64
447.32	2434.16
447.51	2307.77
447.69	2202.44
447.88	2356.92
448.06	2338.20
448.25	2387.35
448.43	2239.89
448.62	2363.94
448.80	2483.31
448.99	2401.39
449.17	2321.81
449.36	2450.54
449.54	2516.08
449.73	2431.82
449.91	2415.43
450.10	2373.30
450.28	2511.39
450.46	2555.86
450.65	2513.74
450.83	2469.27
451.02	2558.21
451.20	2544.16
451.39	2492.67
451.57	2450.54
451.76	2565.23
451.94	2523.10
452.13	2581.61
452.31	2616.72
452.49	2574.59
452.68	2588.63
452.86	2518.42
453.05	2710.34
453.23	2602.68
453.42	2621.40
453.60	2574.59
453.78	2693.96
453.97	2710.34
454.15	2630.76
454.34	2663.53
454.52	2593.31
454.70	2675.23
454.89	2715.02
455.07	2691.62
455.26	2752.47
455.44	2698.64
455.62	2740.77
455.81	2700.98
455.99	2703.32
456.17	2668.21
456.36	2874.18
456.54	2710.34
456.73	2761.83
456.91	2846.09
457.09	2862.48
457.28	2822.69
457.46	2794.60
457.64	2942.05
457.83	2867.16
458.01	2829.71
458.19	3038.02
458.38	2895.24
458.56	2974.82
458.74	2963.12
458.93	2771.19
459.11	2944.39
459.29	2864.82
459.48	2916.31
459.66	2953.76
459.84	2995.89
460.03	3199.51
460.21	2981.84
460.39	2970.14
460.57	2977.16
460.76	3045.04
460.94	3000.57
461.12	3087.17
461.31	3005.25
461.49	3145.68
461.67	3101.21
461.85	3164.40
462.04	3129.30
462.22	3588.04
462.40	3232.28
462.59	2995.89
462.77	3176.11
462.95	3178.45
463.13	3176.11
463.32	3119.93
463.50	3157.38
463.68	3194.83
463.86	3307.18
464.05	3192.49
464.23	3272.07
464.41	3253.34
464.59	3148.02
464.78	3304.84
464.96	3197.17
465.14	3276.75
465.32	3269.73
465.50	3407.82
465.69	3314.20
465.87	3300.16
466.05	3183.13
466.23	3115.25
466.41	3435.91
466.60	3424.20
466.78	3222.92
466.96	3311.86
467.14	3293.13
467.32	3241.64
467.51	3445.27
467.69	3346.97
467.87	3417.18
468.05	3421.86
468.23	3421.86
468.41	3508.46
468.60	3433.57
468.78	3251.00
468.96	3335.26
469.14	3452.29
469.32	3473.36
469.50	3318.88
469.69	3475.70
469.87	3555.27
470.05	3499.10
470.23	3459.31
470.41	3583.36
470.59	3648.90
470.77	3569.32
470.95	3548.25
471.14	3674.64
471.32	3613.79
471.50	3712.09
471.68	3583.36
471.86	3733.15
472.04	3786.99
472.22	3660.60
472.40	3723.79
472.58	3735.50
472.77	3679.32
472.95	3786.99
473.13	3887.63
473.31	3815.07
473.49	3604.42
473.67	3840.82
473.85	3850.18
474.03	4025.72
474.21	4049.13
474.39	3894.65
474.57	4023.38
474.75	3999.98
474.93	4072.53
475.12	3871.25
475.30	3988.27
475.48	4095.94
475.66	4060.83
475.84	4004.66
476.02	4081.89
476.20	4255.09
476.38	4198.92
476.56	4212.96
476.74	4304.25
476.92	4231.69
477.10	4175.52
477.28	4458.72
477.46	4308.93
477.64	4442.34
477.82	4440.00
478.00	4360.42
478.18	4524.26
478.36	4423.61
478.54	4648.30
478.72	4542.98
478.90	4723.20
479.08	4664.69
479.26	4648.30
479.44	4816.82
479.62	4784.06
479.80	4767.67
479.98	4798.10
480.16	4865.97
480.34	4947.89
480.52	4994.70
480.70	4957.25
480.88	5039.17
481.06	4959.60
481.24	4887.04
481.41	5139.82
481.59	5095.35
481.77	5118.75
481.95	5212.37
482.13	5156.20
482.31	5240.46
482.49	5387.91
482.67	5348.12
482.85	5427.70
483.03	5275.57
483.21	5561.11
483.39	5502.60
483.57	5535.37
483.74	5554.09
483.92	5589.20
484.10	5645.37
484.28	5797.51
484.46	5898.15
484.64	6066.67
484.82	5657.07
485.00	5727.29
485.18	5860.70
485.35	6017.52
485.53	6010.50
485.71	6181.35
485.89	6113.48
486.07	6209.44
486.25	6155.61
486.43	6113.48
486.61	6176.67
486.78	6298.38
486.96	6228.17
487.14	6406.05
487.32	6553.50
487.50	6551.16
487.68	6668.19
487.85	6548.82
488.03	6623.72
488.21	6801.60
488.39	6623.72
488.57	7047.35
488.75	6949.05
488.92	7152.68
489.10	7073.10
489.28	6832.02
489.46	7061.40
489.64	6937.35
489.81	7089.48
489.99	7290.77
490.17	7384.39
490.35	7419.50
490.53	7513.12
490.70	7286.09
490.88	7452.27
491.06	7520.14
491.24	7513.12
491.41	7452.27
491.59	7620.78
491.77	7719.09
491.95	7836.11
492.13	7637.17
492.30	7751.85
492.48	7789.30
492.66	7672.28
492.84	7896.97
493.01	7878.24
493.19	7808.03
493.37	8030.38
493.54	7962.50
493.72	8072.51
493.90	8077.19
494.08	8372.10
494.25	8278.47
494.43	8348.69
494.61	8423.59
494.79	8351.03
494.96	8388.48
495.14	8446.99
495.32	8500.83
495.49	8603.81
495.67	8507.85
495.85	8641.26
496.02	8751.26
496.20	8765.31
496.38	8809.78
496.55	8877.65
496.73	8936.17
496.91	9025.11
497.09	9121.07
497.26	9158.52
497.44	9039.15
497.62	9121.07
497.79	9214.69
497.97	9170.22
498.14	9074.26
498.32	9224.05
498.50	9516.62
498.67	9404.27
498.85	9458.10
499.03	9521.30
499.20	9467.47
499.38	9383.21
499.56	9650.03
499.73	9661.73
499.91	9734.29
500.08	9689.82
500.26	9680.46
500.44	9717.90
500.61	9757.69
500.79	9729.61
500.97	9886.42
501.14	9865.36
501.32	9879.40
501.49	10017.49
501.67	9888.76
501.84	10113.45
502.02	10026.86
502.20	10148.56
502.37	10305.38
502.55	10296.02
502.72	10193.03
502.90	10298.36
503.07	10136.86
503.25	10380.28
503.43	10260.91
503.60	10373.25
503.78	10242.18
503.95	10562.84
504.13	10420.06
504.30	10410.70
504.48	10513.69
504.65	10623.69
504.83	10420.06
505.01	10806.25
505.18	10710.29
505.36	10927.96
505.53	10583.90
505.71	10792.21
505.88	10808.59
506.06	10565.18
506.23	10981.79
506.41	10995.84
506.58	10934.98
506.76	10960.73
506.93	10995.84
507.11	10944.34
507.28	11063.71
507.46	11180.74
507.63	11360.96
507.81	11108.18
507.98	11035.63
508.16	11199.46
508.33	11260.32
508.50	11133.93
508.68	11307.13
508.85	11529.48
509.03	11414.79
509.20	11431.18
509.38	11510.75
509.55	11503.73
509.73	11562.25
509.90	11559.91
510.08	11562.25
510.25	11576.29
510.42	11576.29
510.60	11932.05
510.77	11838.43
510.95	11908.65
511.12	11789.28
511.30	11927.37
511.47	11969.50
511.64	11929.71
511.82	11995.25
511.99	11843.11
512.17	12187.17
512.34	12138.02
512.51	11943.75
512.69	12184.83
512.86	12046.74
513.04	12325.26
513.21	12285.47
513.38	12463.35
513.56	12243.34
513.73	12175.47
513.90	12290.15
514.08	12461.01
514.25	12458.67
514.43	12376.75
514.60	12470.37
514.77	12372.07
514.95	12706.77
515.12	12526.55
515.29	12564.00
515.47	12617.83
515.64	12734.85
515.81	12458.67
515.99	12985.29
516.16	12947.84
516.33	13043.81
516.51	12854.22
516.68	12961.89
516.85	12786.35
517.03	12645.91
517.20	13036.78
517.37	13160.83
517.54	13132.75
517.72	13069.55
517.89	12973.59
518.06	13020.40
518.24	13144.45
518.41	13104.66
518.58	13121.04
518.75	13067.21
518.93	13371.48
519.10	13043.81
519.27	13345.73
519.45	13399.57
519.62	13212.32
519.79	13263.82
519.96	13284.88
520.14	13422.97
520.31	13380.84
520.48	13682.77
520.65	13451.06
520.83	13357.44
521.00	13715.54
521.17	13497.87
521.34	13535.32
521.52	13589.15
521.69	13591.49
521.86	13797.46
522.03	13614.90
522.20	13832.57
522.38	13774.05
522.55	13563.40
522.72	13989.38
522.89	13635.96
523.07	13937.89
523.24	13902.78
523.41	13839.59
523.58	13731.92
523.75	14022.15
523.92	13830.23
524.10	14005.77
524.27	14225.78
524.44	14141.52
524.61	14036.19
524.78	14169.60
524.96	14064.28
525.13	14190.67
525.30	14265.57
525.47	14340.46
525.64	14178.97
525.81	14359.19
525.98	14125.13
526.16	14420.04
526.33	14347.48
526.50	14075.98
526.67	14197.69
526.84	14169.60
527.01	14485.58
527.18	14572.18
527.36	14443.45
527.53	14457.49
527.70	14656.43
527.87	14588.56
528.04	14466.85
528.21	14342.80
528.38	14420.04
528.55	14492.60
528.72	14473.87
528.89	14658.78
529.07	14478.55
529.24	14427.06
529.41	15030.92
529.58	14656.43
529.75	14829.63
529.92	14789.85
530.09	14768.78
530.26	14951.34
530.43	15131.56
530.60	14822.61
530.77	14803.89
530.94	15068.37
531.11	14930.28
531.28	14874.10
531.46	15264.97
531.63	15012.20
531.80	15157.31
531.97	14984.11
532.14	15236.89
532.31	15054.33
532.48	15136.24
532.65	15487.32
532.82	15253.27
532.99	15061.35
533.16	14995.81
533.33	15169.01
533.50	15417.11
533.67	15396.04
533.84	15150.29
534.01	15360.94
534.18	14974.75
534.35	15372.64
534.52	15302.42
534.69	15468.60
534.86	15269.66
535.03	15410.09
535.20	15679.25
535.37	15541.16
535.54	15428.81
535.71	15346.89
535.88	15583.29
536.05	15463.92
536.22	15459.24
536.38	15534.14
536.55	15681.59
536.72	15688.61
536.89	15475.62
537.06	15580.95
537.23	15660.52
537.40	15812.66
537.57	15974.16
537.74	15590.31
537.91	15822.02
538.08	15840.75
538.25	15665.21
538.42	15878.19
538.59	15885.22
538.75	15798.62
538.92	15779.89
539.09	15957.77
539.26	15676.91
539.43	16123.95
539.60	15875.85
539.77	15927.35
539.94	15983.52
540.11	16121.61
540.28	16116.93
540.44	15927.35
540.61	15953.09
540.78	16159.06
540.95	15894.58
541.12	15967.13
541.29	16116.93
541.46	15960.11
541.62	15943.73
541.79	16299.49
541.96	16322.90
542.13	16091.18
542.30	16133.31
542.47	16414.18
542.63	16212.89
542.80	16154.38
542.97	16126.29
543.14	16376.73
543.31	16493.76
543.48	16376.73
543.64	16121.61
543.81	16358.00
543.98	16601.42
544.15	16496.10
544.32	16720.79
544.48	16472.69
544.65	16561.63
544.82	16353.32
544.99	16615.46
545.16	16428.22
545.32	16692.70
545.49	16816.75
545.66	16795.68
545.83	16908.03
546.00	16872.92
546.16	16842.50
546.33	16650.57
546.50	16531.20
546.67	16849.52
546.83	16367.37
547.00	16666.95
547.17	16718.45
547.34	16723.13
547.50	16655.25
547.67	16875.26
547.84	16954.84
548.00	16943.14
548.17	16795.68
548.34	17062.51
548.51	16788.66
548.67	16910.37
548.84	17018.04
549.01	16978.25
549.18	16744.19
549.34	16648.23
549.51	16844.84
549.68	17067.19
549.84	16989.95
550.01	17090.59
550.18	16947.82
550.34	16910.37
550.51	17228.68
550.68	16945.48
550.84	17266.13
551.01	17324.65
551.18	17111.66
551.34	16931.44
551.51	16886.97
551.68	17146.76
551.84	17109.32
552.01	16915.05
552.18	17224.00
552.34	16931.44
552.51	16816.75
552.68	17095.27
552.84	17188.89
553.01	17554.02
553.18	17076.55
553.34	17193.58
553.51	17282.52
553.67	17144.42
553.84	17474.44
554.01	17373.80
554.17	17280.18
554.34	17390.18
554.51	17193.58
554.67	17481.46
554.84	17448.69
555.00	17371.46
555.17	17287.20
555.33	17472.10
555.50	17446.35
555.67	17149.11
555.83	17298.90
556.00	17668.70
556.16	17483.80
556.33	17462.74
556.50	17329.33
556.66	17778.71
556.83	17649.98
556.99	17523.59
557.16	17607.85
557.32	17373.80
557.49	17479.12
557.65	17476.78
557.82	17266.13
557.98	17418.27
558.15	17427.63
558.32	17783.39
558.48	17465.08
558.65	17500.19
558.81	17509.55
558.98	17633.60
559.14	17642.96
559.31	17516.57
559.47	17399.54
559.64	17708.49
559.80	17362.09
559.97	17425.29
560.13	17589.13
560.30	17640.62
560.46	17830.20
560.63	17778.71
560.79	17731.90
560.96	17481.46
561.12	17598.49
561.29	17769.35
561.45	17774.03
561.61	17774.03
561.78	17837.22
561.94	17797.43
562.11	17448.69
562.27	17905.10
562.44	17799.77
562.60	17837.22
562.77	17661.68
562.93	17909.78
563.10	17965.95
563.26	17682.75
563.42	17741.26
563.59	17563.38
563.75	17869.99
563.92	17458.06
564.08	17764.67
564.24	17631.26
564.41	17483.80
564.57	17755.30
564.74	17453.37
564.90	17647.64
565.07	18026.81
565.23	17575.08
565.39	17584.44
565.56	17659.34
565.72	17605.51
565.88	17542.32
566.05	18073.62
566.21	17610.19
566.38	17745.94
566.54	17797.43
566.70	18033.83
566.87	17891.06
567.03	17570.40
567.19	17848.93
567.36	18113.41
567.52	17839.56
567.68	18150.85
567.85	18001.06
568.01	17818.50
568.17	17642.96
568.34	17846.58
568.50	17813.82
568.66	17633.60
568.83	17937.87
568.99	17767.01
569.15	18073.62
569.32	17867.65
569.48	17537.63
569.64	17886.37
569.81	17633.60
569.97	17820.84
570.13	17951.91
570.30	17717.86
570.46	18066.60
570.62	17914.46
570.78	17991.70
570.95	17813.82
571.11	17547.00
571.27	17757.64
571.43	17869.99
571.60	18066.60
571.76	18181.28
571.92	17994.04
572.09	17872.33
572.25	17855.95
572.41	17750.62
572.57	17818.50
572.74	17980.00
572.90	17996.38
573.06	17717.86
573.22	17874.67
573.38	17928.50
573.55	18134.47
573.71	18216.39
573.87	17972.97
574.03	17827.86
574.20	17994.04
574.36	17900.42
574.52	17802.11
574.68	17762.33
574.84	17848.93
575.01	17872.33
575.17	17874.67
575.33	17834.88
575.49	17980.00
575.65	18024.47
575.82	18080.64
575.98	17750.62
576.14	17914.46
576.30	17958.93
576.46	17781.05
576.62	17914.46
576.79	18097.02
576.95	18090.00
577.11	17867.65
577.27	17771.69
577.43	18146.17
577.59	18022.12
577.75	17998.72
577.92	17762.33
578.08	17661.68
578.24	17680.41
578.40	17919.14
578.56	17610.19
578.72	17881.69
578.88	18139.15
579.04	17865.31
579.21	18113.41
579.37	17972.97
579.53	17942.55
579.69	18024.47
579.85	17628.92
580.01	18185.96
580.17	18099.36
580.33	17862.97
580.49	17834.88
580.65	17905.10
580.82	17998.72
580.98	17963.61
581.14	17825.52
581.30	18050.21
581.46	18153.20
581.62	17832.54
581.78	17893.40
581.94	18012.76
582.10	17731.90
582.26	17977.65
582.42	18075.96
582.58	18040.85
582.74	18050.21
582.90	18295.97
583.06	18326.39
583.22	17909.78
583.38	17659.34
583.54	17797.43
583.70	17804.46
583.86	18015.10
584.02	17841.90
584.18	17951.91
584.34	17902.76
584.50	18125.11
584.66	17701.47
584.82	17720.20
584.98	18228.09
585.14	18139.15
585.30	17909.78
585.46	17909.78
585.62	17998.72
585.78	18127.45
585.94	17963.61
586.10	18092.34
586.26	17907.44
586.42	18047.87
586.58	18347.46
586.74	18045.53
586.90	18010.42
587.06	18108.72
587.22	18038.51
587.38	17844.24
587.54	17895.74
587.70	18115.75
587.86	17891.06
588.02	18031.49
588.18	18132.13
588.34	18019.78
588.49	17902.76
588.65	17888.71
588.81	18045.53
588.97	18249.16
589.13	17958.93
589.29	17989.36
589.45	17909.78
589.61	18040.85
589.77	18602.58
589.93	18225.75
590.08	18075.96
590.24	18038.51
590.40	18143.83
590.56	18141.49
590.72	18263.20
590.88	18005.74
591.04	17982.34
591.20	18267.88
591.35	18485.55
591.51	18321.71
591.67	17848.93
591.83	18302.99
591.99	18361.50
592.15	17832.54
592.31	18134.47
592.46	18059.57
592.62	18073.62
592.78	17900.42
592.94	17933.18
593.10	18335.76
593.26	18047.87
593.41	18235.11
593.57	18146.17
593.73	18230.43
593.89	17895.74
594.05	18040.85
594.20	18108.72
594.36	18122.77
594.52	17862.97
594.68	17982.34
594.84	18015.10
594.99	18134.47
595.15	17881.69
595.31	18361.50
595.47	18113.41
595.62	18333.42
595.78	17898.08
595.94	18310.01
596.10	18204.69
596.25	18174.26
596.41	18026.81
596.57	17731.90
596.73	17991.70
596.88	17940.21
597.04	18120.43
597.20	18230.43
597.36	18272.56
597.51	18349.80
597.67	18389.59
597.83	18307.67
597.99	18340.44
598.14	18401.29
598.30	18085.32
598.46	18008.08
598.61	18331.08
598.77	18197.67
598.93	18328.74
599.09	18043.19
599.24	18153.20
599.40	18221.07
599.56	18295.97
599.71	18150.85
599.87	18492.57
600.03	18267.88
600.18	18052.55
600.34	18125.11
600.50	18019.78
600.65	17975.31
600.81	18033.83
600.97	18300.65
601.12	18300.65
601.28	18153.20
601.44	17975.31
601.59	18157.88
601.75	17769.35
601.91	18408.31
602.06	18010.42
602.22	18146.17
602.37	18162.56
602.53	18029.15
602.69	18192.98
602.84	17965.95
603.00	18136.81
603.16	18005.74
603.31	18111.07
603.47	18033.83
603.62	18195.32
603.78	18134.47
603.94	18195.32
604.09	18403.63
604.25	18078.30
604.40	17872.33
604.56	18230.43
604.71	18221.07
604.87	17987.02
605.03	18190.64
605.18	17998.72
605.34	18258.52
605.49	17689.77
605.65	17769.35
605.80	17673.39
605.96	18036.17
606.12	17720.20
606.27	17963.61
606.43	18026.81
606.58	18036.17
606.74	18001.06
606.89	18031.49
607.05	17865.31
607.20	17888.71
607.36	17902.76
607.51	17862.97
607.67	17748.28
607.82	17886.37
607.98	17664.02
608.13	17902.76
608.29	17834.88
608.44	18036.17
608.60	17951.91
608.75	17989.36
608.91	17722.54
609.06	18040.85
609.22	17788.07
609.37	17476.78
609.53	17722.54
609.68	17729.56
609.84	17989.36
609.99	17682.75
610.15	17673.39
610.30	17956.59
610.46	17568.06
610.61	17591.47
610.76	17771.69
610.92	17729.56
611.07	17757.64
611.23	17603.17
611.38	17804.46
611.54	17469.76
611.69	17542.32
611.84	17748.28
612.00	17598.49
612.15	17495.50
612.31	17699.13
612.46	17666.36
612.62	17710.83
612.77	17682.75
612.92	17860.63
613.08	17495.50
613.23	17439.33
613.39	17495.50
613.54	17530.61
613.69	17649.98
613.85	17673.39
614.00	17591.47
614.15	17422.95
614.31	17448.69
614.46	17736.58
614.62	17666.36
614.77	17682.75
614.92	17507.21
615.08	17291.88
615.23	17317.62
615.38	17720.20
615.54	17427.63
615.69	17394.86
615.84	17556.36
616.00	17507.21
616.15	17341.03
616.30	17586.79
616.46	17577.42
616.61	17348.05
616.76	17708.49
616.92	17703.81
617.07	17179.53
617.22	17130.38
617.37	17252.09
617.53	17317.62
617.68	17240.39
617.83	17118.68
617.99	17383.16
618.14	17371.46
618.29	17221.66
618.45	17371.46
618.60	17493.16
618.75	17261.45
618.90	17436.99
619.06	17329.33
619.21	17266.13
619.36	17432.31
619.51	17020.38
619.67	17247.41
619.82	17233.36
619.97	17399.54
620.12	17106.98
620.28	17029.74
620.43	17294.22
620.58	17090.59
620.73	17092.93
620.89	17240.39
621.04	17261.45
621.19	17198.26
621.34	17151.45
621.49	16980.59
621.65	16961.86
621.80	17074.21
621.95	16968.88
622.10	17284.86
622.25	17088.25
622.41	16788.66
622.56	16964.20
622.71	17200.60
622.86	17130.38
623.01	17097.61
623.16	16940.80
623.32	17149.11
623.47	16828.45
623.62	17067.19
623.77	16753.55
623.92	17032.08
624.07	16795.68
624.23	17020.38
624.38	16856.54
624.53	16744.19
624.68	16931.44
624.83	17062.51
624.98	17003.99
625.13	16837.81
625.29	16910.37
625.44	17001.65
625.59	16739.51
625.74	16755.90
625.89	16940.80
626.04	16732.49
626.19	16606.10
626.34	16835.47
626.49	16512.48
626.65	16737.17
626.80	16772.28
626.95	16620.14
627.10	16723.13
627.25	16570.99
627.40	16589.72
627.55	16903.35
627.70	16339.28
627.85	16472.69
628.00	16720.79
628.15	16657.59
628.30	16872.92
628.45	16706.74
628.60	16514.82
628.76	16891.65
628.91	16723.13
629.06	16397.79
629.21	16695.04
629.36	16931.44
629.51	16299.49
629.66	16294.81
629.81	16290.13
629.96	16215.23
630.11	16580.36
630.26	16545.25
630.41	16428.22
630.56	16362.69
630.71	16475.03
630.86	16358.00
631.01	16444.60
631.16	16568.65
631.31	16341.62
631.46	16362.69
631.61	16418.86
631.76	16578.01
631.91	16280.77
632.06	16355.66
632.21	16091.18
632.36	16130.97
632.51	16238.64
632.66	16224.59
632.81	16374.39
632.96	16432.90
633.10	16458.65
633.25	16430.56
633.40	16290.13
633.55	16383.75
633.70	15922.66
633.85	16072.46
634.00	16121.61
634.15	15910.96
634.30	16409.50
634.45	15836.06
634.60	16145.02
634.75	16346.30
634.90	15960.11
635.05	16327.58
635.19	16065.44
635.34	16311.19
635.49	16020.97
635.64	16049.05
635.79	16063.10
635.94	15985.86
636.09	16184.80
636.24	16182.46
636.39	15817.34
636.53	15925.00
636.68	16020.97
636.83	15700.31
636.98	16219.91
637.13	15957.77
637.28	16109.91
637.43	16006.92
637.57	16147.36
637.72	15948.41
637.87	15833.72
638.02	15999.90
638.17	15831.38
638.32	15915.64
638.46	15695.63
638.61	15985.86
638.76	15723.72
638.91	15751.81
639.06	15712.02
639.20	15964.79
639.35	15744.78
639.50	15784.57
639.65	15707.34
639.80	15929.69
639.94	15751.81
640.09	15985.86
640.24	15529.45
640.39	15758.83
640.54	15658.18
640.68	15477.96
640.83	15632.44
640.98	15604.35
641.13	15662.86
641.27	15585.63
641.42	15721.38
641.57	15625.42
641.72	15735.42
641.86	15712.02
642.01	15751.81
642.16	15520.09
642.31	15625.42
642.45	15925.00
642.60	15419.45
642.75	15431.15
642.90	15524.77
643.04	15524.77
643.19	15428.81
643.34	15728.40
643.48	15470.94
643.63	15489.67
643.78	15482.64
643.93	15307.10
644.07	15683.93
644.22	15594.99
644.37	15475.62
644.51	15751.81
644.66	15487.32
644.81	15178.37
644.95	15431.15
645.10	15618.39
645.25	15316.47
645.39	15391.36
645.54	15583.29
645.69	15438.17
645.83	15492.01
645.98	15571.58
646.13	15353.91
646.27	15531.80
646.42	15353.91
646.57	15108.16
646.71	15426.47
646.86	15279.02
647.00	15419.45
647.15	15391.36
647.30	15431.15
647.44	15063.69
647.59	15183.06
647.74	15080.07
647.88	15227.53
648.03	15241.57
648.17	15337.53
648.32	15241.57
648.47	15344.55
648.61	15122.20
648.76	15145.61
648.90	15185.40
649.05	15138.58
649.20	14906.87
649.34	15075.39
649.49	15082.41
649.63	15246.25
649.78	15215.82
649.92	14846.02
650.07	15597.33
650.21	15037.94
650.36	15243.91
650.51	15159.65
650.65	15054.33
650.80	14897.51
650.94	15007.52
651.09	15171.35
651.23	14979.43
651.38	14963.04
651.52	15044.96
651.67	15042.62
651.81	15075.39
651.96	15126.88
652.10	15044.96
652.25	14970.07
652.39	15180.71
652.54	15185.40
652.68	14916.23
652.83	15063.69
652.97	15089.43
653.12	14843.68
653.26	14846.02
653.41	14960.70
653.55	14799.21
653.70	14647.07
653.84	14782.82
653.99	14712.61
654.13	14801.55
654.27	14909.21
654.42	15133.90
654.56	14902.19
654.71	14946.66
654.85	14815.59
655.00	14869.42
655.14	14773.46
655.29	14867.08
655.43	14829.63
655.57	14951.34
655.72	14918.57
655.86	14764.10
656.01	14733.67
656.15	14778.14
656.30	14633.03
656.44	14743.03
656.58	14628.35
656.73	14817.93
656.87	14637.71
657.01	14707.93
657.16	14654.09
657.30	14642.39
657.45	14740.69
657.59	14600.26
657.73	14485.58
657.88	14658.78
658.02	14640.05
658.16	14595.58
658.31	14600.26
658.45	14335.78
658.60	14546.43
658.74	14565.15
658.88	14476.21
659.03	14417.70
659.17	14518.34
659.31	14670.48
659.46	14317.06
659.60	14583.88
659.74	14361.53
659.89	14401.32
660.03	14167.26
660.17	14279.61
660.32	14272.59
660.46	14228.12
660.60	13930.87
660.74	14342.80
660.89	14097.05
661.03	14083.00
661.17	14059.60
661.32	14246.84
661.46	14361.53
661.60	14214.07
661.74	13977.68
661.89	14335.78
662.03	14225.78
662.17	14148.54
662.31	14080.66
662.46	14188.33
662.60	13961.30
662.74	14050.24
662.88	13949.59
663.03	13994.06
663.17	13806.82
663.31	13914.48
663.45	14342.80
663.60	14059.60
663.74	13755.33
663.88	13757.67
664.02	13792.78
664.17	13832.57
664.31	13647.66
664.45	13928.53
664.59	13806.82
664.73	13930.87
664.88	13862.99
665.02	13748.31
665.16	13493.19
665.30	13514.25
665.44	13741.29
665.59	13626.60
665.73	13392.55
665.87	13671.07
666.01	13785.76
666.15	13659.37
666.29	13916.83
666.44	13809.16
666.58	13373.82
666.72	13217.01
666.86	13434.68
667.00	13638.30
667.14	13502.55
667.28	13305.95
667.43	13301.26
667.57	13568.09
667.71	13291.90
667.85	13486.17
667.99	13277.86
668.13	13195.94
668.27	13523.62
668.41	13432.33
668.56	13172.54
668.70	13188.92
668.84	13245.09
668.98	13266.16
669.12	13209.98
669.26	12975.93
669.40	13348.08
669.54	13217.01
669.68	13301.26
669.82	12908.05
669.96	13217.01
670.10	13181.90
670.25	13041.46
670.39	12865.92
670.53	12961.89
670.67	12844.86
670.81	12975.93
670.95	13081.25
671.09	12718.47
671.23	12772.30
671.37	12774.64
671.51	13078.91
671.65	12968.91
671.79	12503.14
671.93	12652.94
672.07	12898.69
672.21	12840.18
672.35	12425.90
672.49	12758.26
672.63	12690.38
672.77	12702.09
672.91	12470.37
673.05	12453.99
673.19	12610.81
673.33	12435.27
673.47	12526.55
673.61	12360.37
673.75	12226.96
673.89	12475.06
674.03	12332.28
674.17	12404.84
674.31	12423.56
674.45	12112.27
674.59	12154.40
674.73	12273.77
674.87	12351.01
675.01	12276.11
675.15	12107.59
675.29	12145.04
675.43	12456.33
675.56	12145.04
675.70	12215.26
675.84	12159.08
675.98	11751.83
676.12	12121.63
676.26	12175.47
676.40	12063.12
676.54	11946.09
676.68	12056.10
676.82	11796.30
676.96	11913.33
677.10	11800.98
677.23	11602.04
677.37	11527.14
677.51	11564.59
677.65	11798.64
677.79	11669.91
677.93	11585.65
678.07	11686.29
678.21	11580.97
678.34	11487.35
678.48	11370.32
678.62	11592.67
678.76	11419.47
678.90	11276.70
679.04	11220.53
679.18	11183.08
679.31	11218.19
679.45	11122.23
679.59	11040.31
679.73	11187.76
679.87	11220.53
680.00	11002.86
680.14	10853.06
680.28	11185.42
680.42	10946.69
680.56	11002.86
680.70	10995.84
680.83	10839.02
680.97	10862.43
681.11	10934.98
681.25	10768.80
681.39	10789.87
681.52	10771.15
681.66	10822.64
681.80	10480.92
681.94	10607.31
682.07	10740.72
682.21	10518.37
682.35	10576.88
682.49	10562.84
682.62	10483.26
682.76	10211.76
682.90	10546.45
683.04	10525.39
683.17	10455.17
683.31	10363.89
683.45	10574.54
683.59	10305.38
683.72	10427.09
683.86	10274.95
684.00	10232.82
684.13	10331.12
684.27	10120.48
684.41	9951.96
684.55	10174.31
684.68	9956.64
684.82	10239.84
684.96	9980.04
685.09	9870.04
685.23	9783.44
685.37	9921.53
685.50	9954.30
685.64	9905.15
685.78	9877.06
685.91	9722.59
686.05	9715.56
686.19	9516.62
686.32	9720.24
686.46	9565.77
686.60	9687.48
686.73	9448.74
686.87	9392.57
687.01	9420.66
687.14	9376.19
687.28	9554.07
687.42	9308.31
687.55	9268.52
687.69	9710.88
687.82	9170.22
687.96	9404.27
688.10	9334.06
688.23	9235.75
688.37	9200.65
688.50	9043.83
688.64	9048.51
688.78	9121.07
688.91	9053.19
689.05	9165.54
689.18	9020.42
689.32	8968.93
689.46	8819.14
689.59	8858.93
689.73	8926.80
689.86	8926.80
690.00	8727.86
690.13	8688.07
690.27	8734.88
690.41	8814.46
690.54	8762.97
690.68	8802.75
690.81	8828.50
690.95	8575.72
691.08	8634.24
691.22	8697.43
691.35	8531.25
691.49	8437.63
691.62	8521.89
691.76	8484.44
691.89	8245.71
692.03	8336.99
692.16	8168.47
692.30	8116.98
692.43	8301.88
692.57	8266.77
692.70	8241.03
692.84	8168.47
692.97	8278.47
693.11	8004.63
693.24	8126.34
693.38	8145.06
693.51	8170.81
693.65	7964.84
693.78	8109.96
693.92	7887.61
694.05	7857.18
694.19	7646.53
694.32	7770.58
694.45	7789.30
694.59	7737.81
694.72	7754.19
694.86	7595.04
694.99	7578.65
695.13	7562.27
695.26	7728.45
695.39	7712.07
695.53	7667.60
695.66	7480.35
695.80	7501.42
695.93	7590.36
696.07	7438.22
696.20	7349.28
696.33	7393.75
696.47	7323.54
696.60	7400.77
696.73	7311.83
696.87	7227.57
697.00	7342.26
697.14	7150.34
697.27	7094.16
697.40	7150.34
697.54	7045.01
697.67	6839.05
697.80	7012.24
697.94	7000.54
698.07	7070.76
698.21	6942.03
698.34	6965.43
698.47	6956.07
698.61	6906.92
698.74	6815.64
698.87	6878.83
699.01	6857.77
699.14	6846.07
699.27	6637.76
699.40	6869.47
699.54	6614.35
699.67	6597.97
699.80	6551.16
699.94	6670.53
700.07	6473.92
700.20	6408.39
700.34	6553.50
700.47	6590.95
700.60	6335.83
700.73	6492.65
700.87	6389.66
701.00	6284.34
701.13	6466.90
701.26	6452.86
701.40	6267.95
701.53	6368.60
701.66	6230.51
701.79	6305.40
701.93	6153.27
702.06	6120.50
702.19	6150.93
702.32	6246.89
702.46	6078.37
702.59	6031.56
702.72	5921.56
702.85	6129.86
702.99	6031.56
703.12	6022.20
703.25	5860.70
703.38	5907.51
703.51	5898.15
703.65	5853.68
703.78	5888.79
703.91	5984.75
704.04	5935.60
704.17	5816.23
704.31	5930.92
704.44	5820.91
704.57	5682.82
704.70	5537.71
704.83	5685.16
704.96	5558.77
705.10	5474.51
705.23	5664.10
>>>>>End Processed Spectral Data<<<<<
