SpectraSuite Data File
++++++++++++++++++++++++++++++++++++
Date: Fri Oct 04 11:48:28 GMT-05:00 2013
User: price-jones
Dark Spectrum Present: No
Reference Spectrum Present: No
Number of Sampled Component Spectra: 1
Spectrometers: USB2+H05261
Integration Time (usec): 100000 (USB2+H05261)
Spectra Averaged: 1 (USB2+H05261)
Boxcar Smoothing: 0 (USB2+H05261)
Correct for Electrical Dark: No (USB2+H05261)
Strobe/Lamp Enabled: No (USB2+H05261)
Correct for Detector Non-linearity: No (USB2+H05261)
Correct for Stray Light: No (USB2+H05261)
Number of Pixels in Processed Spectrum: 2048
>>>>>Begin Processed Spectral Data<<<<<
365.73	46.81
365.92	46.81
366.12	46.81
366.32	0.00
366.52	0.00
366.72	0.00
366.91	0.00
367.11	0.00
367.31	0.00
367.51	0.00
367.70	0.00
367.90	0.00
368.10	0.00
368.30	0.00
368.49	0.00
368.69	0.00
368.89	0.00
369.09	0.00
369.28	0.00
369.48	0.00
369.68	0.00
369.87	11.70
370.07	0.00
370.27	74.90
370.47	112.35
370.66	365.12
370.86	388.53
371.06	374.49
371.25	449.38
371.45	395.55
371.65	463.43
371.84	458.74
372.04	498.53
372.24	524.28
372.44	500.87
372.63	554.71
372.83	629.60
373.03	582.79
373.22	468.11
373.42	514.92
373.62	554.71
373.81	582.79
374.01	545.34
374.21	653.01
374.40	608.54
374.60	571.09
374.79	631.94
374.99	559.39
375.19	578.11
375.38	620.24
375.58	620.24
375.78	603.86
375.97	671.73
376.17	690.46
376.37	608.54
376.56	660.03
376.76	580.45
376.95	627.26
377.15	695.14
377.35	763.01
377.54	744.29
377.74	681.10
377.93	683.44
378.13	716.20
378.33	645.99
378.52	739.61
378.72	770.04
378.91	695.14
379.11	683.44
379.31	737.27
379.50	671.73
379.70	697.48
379.89	723.23
380.09	772.38
380.28	748.97
380.48	730.25
380.68	765.36
380.87	730.25
381.07	786.42
381.26	835.57
381.46	798.12
381.65	837.91
381.85	774.72
382.04	877.70
382.24	910.47
382.43	830.89
382.63	774.72
382.83	854.30
383.02	844.93
383.22	901.11
383.41	931.53
383.61	891.74
383.80	858.98
384.00	887.06
384.19	940.90
384.39	898.77
384.58	938.55
384.78	924.51
384.97	933.87
385.17	863.66
385.36	933.87
385.56	980.68
385.75	908.13
385.95	964.30
386.14	1001.75
386.34	980.68
386.53	980.68
386.72	931.53
386.92	1034.52
387.11	973.66
387.31	945.58
387.50	1022.81
387.70	952.60
387.89	1043.88
388.09	1027.50
388.28	1015.79
388.48	1020.47
388.67	1071.97
388.86	1118.78
389.06	1123.46
389.25	1004.09
389.45	1165.59
389.64	1102.39
389.84	1034.52
390.03	1069.62
390.22	1153.88
390.42	1116.44
390.61	1160.91
390.81	1146.86
391.00	1179.63
391.19	1179.63
391.39	1198.35
391.58	1093.03
391.78	1224.10
391.97	1203.04
392.16	1191.33
392.36	1256.87
392.55	1149.20
392.75	1280.27
392.94	1259.21
393.13	1317.72
393.33	1249.85
393.52	1170.27
393.71	1359.85
393.91	1490.92
394.10	1247.51
394.29	1301.34
394.49	1413.68
394.68	1378.58
394.88	1406.66
395.07	1420.71
395.26	1350.49
395.46	1420.71
395.65	1434.75
395.84	1446.45
396.04	1558.80
396.23	1507.30
396.42	1411.34
396.62	1561.14
396.81	1519.01
397.00	1434.75
397.19	1523.69
397.39	1556.46
397.58	1572.84
397.77	1652.42
397.97	1596.25
398.16	1591.56
398.35	1460.49
398.55	1570.50
398.74	1668.80
398.93	1687.53
399.12	1591.56
399.32	1624.33
399.51	1732.00
399.70	1771.79
399.90	1692.21
400.09	1736.68
400.28	1762.42
400.47	1809.23
400.67	1809.23
400.86	1879.45
401.05	1713.27
401.24	1844.34
401.44	1863.07
401.63	1816.26
401.82	1797.53
402.01	1923.92
402.21	1895.83
402.40	1877.11
402.59	1820.94
402.78	1893.49
402.97	1956.69
403.17	2087.76
403.36	2120.53
403.55	1959.03
403.74	2031.58
403.93	2019.88
404.13	2148.61
404.32	1977.75
404.51	2057.33
404.70	2272.66
404.89	2129.89
405.09	2279.68
405.28	2080.74
405.47	2167.34
405.66	2139.25
405.85	2230.53
406.05	2160.31
406.24	2094.78
406.43	2293.72
406.62	2296.07
406.81	2363.94
407.00	2232.87
407.20	2324.15
407.39	2232.87
407.58	2406.07
407.77	2499.69
407.96	2368.62
408.15	2462.24
408.34	2476.29
408.54	2483.31
408.73	2509.05
408.92	2523.10
409.11	2504.37
409.30	2509.05
409.49	2558.21
409.68	2499.69
409.87	2602.68
410.07	2677.57
410.26	2729.06
410.45	2619.06
410.64	2726.72
410.83	2780.56
411.02	2815.66
411.21	2810.98
411.40	2801.62
411.59	2841.41
411.78	2846.09
411.98	2820.35
412.17	2932.69
412.36	2895.24
412.55	2988.86
412.74	2944.39
412.93	3014.61
413.12	3026.31
413.31	3218.24
413.50	3047.38
413.69	3169.09
413.88	3197.17
414.07	3047.38
414.26	3169.09
414.45	3150.36
414.64	3281.43
414.83	3372.71
415.02	3410.16
415.22	3332.92
415.41	3499.10
415.60	3459.31
415.79	3531.87
415.98	3510.80
416.17	3588.04
416.36	3440.59
416.55	3641.87
416.74	3531.87
416.93	3655.92
417.12	3744.86
417.31	3707.41
417.50	3805.71
417.69	3733.15
417.88	3810.39
418.07	3885.29
418.26	3782.31
418.45	3859.54
418.64	4011.68
418.83	4009.34
419.02	3941.46
419.21	3974.23
419.39	4084.23
419.58	3899.33
419.77	3896.99
419.96	4081.89
420.15	4257.43
420.34	4021.04
420.53	4156.79
420.72	4285.52
420.91	4205.94
421.10	4196.58
421.29	4346.37
421.48	4217.65
421.67	4297.22
421.86	4142.75
422.05	4292.54
422.24	4189.56
422.43	4383.82
422.61	4397.87
422.80	4365.10
422.99	4386.16
423.18	4383.82
423.37	4432.97
423.56	4425.95
423.75	4334.67
423.94	4334.67
424.13	4154.45
424.32	4283.18
424.50	4547.66
424.69	4507.87
424.88	4561.70
425.07	4465.74
425.26	4360.42
425.45	4465.74
425.64	4500.85
425.83	4432.97
426.01	4542.98
426.20	4505.53
426.39	4552.34
426.58	4542.98
426.77	4751.29
426.96	4678.73
427.15	4571.07
427.33	4606.17
427.52	4622.56
427.71	4716.18
427.90	4695.11
428.09	4816.82
428.28	4706.82
428.46	4697.46
428.65	4770.01
428.84	4919.81
429.03	5032.15
429.22	4798.10
429.40	4901.08
429.59	4826.18
429.78	4781.71
429.97	4809.80
430.16	4718.52
430.34	5006.41
430.53	5198.33
430.72	4903.42
430.91	4936.19
431.10	5069.60
431.28	5186.63
431.47	5284.93
431.66	5291.95
431.85	5177.26
432.03	5416.00
432.22	5614.95
432.41	5451.11
432.60	5163.22
432.79	5238.12
432.97	5329.40
433.16	5448.77
433.35	5385.57
433.54	5549.41
433.72	5427.70
433.91	5387.91
434.10	5394.93
434.28	5603.24
434.47	5657.07
434.66	5710.91
434.85	5685.16
435.03	5753.04
435.22	5556.43
435.41	5982.41
435.59	5743.67
435.78	5792.83
435.97	5797.51
436.16	5975.39
436.34	5846.66
436.53	5781.12
436.72	6003.47
436.90	5788.14
437.09	6022.20
437.28	5827.93
437.46	5834.96
437.65	6024.54
437.84	6146.25
438.02	6090.07
438.21	6101.78
438.40	5998.79
438.58	6228.17
438.77	6380.30
438.96	6298.38
439.14	6314.77
439.33	6424.77
439.52	6546.48
439.70	6478.60
439.89	6644.78
440.08	6583.93
440.26	6689.25
440.45	6773.51
440.63	6705.63
440.82	6796.92
441.01	6902.24
441.19	6953.73
441.38	7026.29
441.57	7021.61
441.75	7178.42
441.94	7262.68
442.12	7208.85
442.31	7304.81
442.50	7239.28
442.68	7155.02
442.87	7328.22
443.05	7281.41
443.24	7363.33
443.43	7494.40
443.61	7342.26
443.80	7583.34
443.98	7342.26
444.17	7222.89
444.35	7456.95
444.54	7566.95
444.73	7606.74
444.91	7459.29
445.10	7508.44
445.28	7688.66
445.47	7637.17
445.65	7576.31
445.84	7705.04
446.02	7847.82
446.21	7634.83
446.39	7691.00
446.58	7700.36
446.77	7478.01
446.95	7368.01
447.14	7627.81
447.32	7695.68
447.51	7686.32
447.69	7817.39
447.88	7803.35
448.06	7630.15
448.25	7751.85
448.43	7672.28
448.62	7810.37
448.80	7695.68
448.99	8035.06
449.17	7974.21
449.36	7892.29
449.54	8088.89
449.73	8124.00
449.91	8262.09
450.10	8081.87
450.28	8119.32
450.46	8245.71
450.65	8114.64
450.83	8051.44
451.02	8238.69
451.20	8217.62
451.39	8313.58
451.57	8395.50
451.76	8236.35
451.94	8395.50
452.13	8571.04
452.31	8376.78
452.49	8369.76
452.68	8411.89
452.86	8346.35
453.05	8500.83
453.23	8578.06
453.42	8542.96
453.60	8800.41
453.78	8493.80
453.97	8561.68
454.15	8538.27
454.34	8709.13
454.52	8746.58
454.70	8772.33
454.89	8847.22
455.07	9029.79
455.26	8826.16
455.44	9029.79
455.62	9004.04
455.81	8992.34
455.99	9104.68
456.17	9221.71
456.36	9092.98
456.54	9350.44
456.73	9467.47
456.91	9441.72
457.09	9425.34
457.28	9605.56
457.46	9338.74
457.64	9408.95
457.83	9621.94
458.01	9551.73
458.19	9612.58
458.38	9626.62
458.56	9823.23
458.74	9586.83
458.93	9708.54
459.11	9745.99
459.29	9769.40
459.48	9753.01
459.66	9713.22
459.84	9853.66
460.03	10101.75
460.21	9940.26
460.39	10019.83
460.57	9858.34
460.76	10078.35
460.94	9984.73
461.12	10068.98
461.31	10143.88
461.49	10277.29
461.67	10186.01
461.85	10403.68
462.04	10279.63
462.22	10979.45
462.40	10523.05
462.59	10499.64
462.77	10429.43
462.95	10377.94
463.13	10494.96
463.32	10501.98
463.50	10572.20
463.68	10640.08
463.86	10656.46
464.05	10607.31
464.23	10679.86
464.41	10771.15
464.59	10501.98
464.78	11145.63
464.96	10951.37
465.14	11007.54
465.32	10871.79
465.50	11066.05
465.69	11150.31
465.87	11131.59
466.05	10986.47
466.23	10888.17
466.41	11211.17
466.60	11393.73
466.78	11178.40
466.96	11084.78
467.14	11082.44
467.32	11274.36
467.51	11461.60
467.69	10909.24
467.87	11503.73
468.05	11349.26
468.23	11349.26
468.41	11407.77
468.60	11279.04
468.78	11536.50
468.96	11529.48
469.14	11501.39
469.32	11875.88
469.50	11667.57
469.69	11843.11
469.87	12131.00
470.05	11985.88
470.23	11784.60
470.41	12051.42
470.59	12175.47
470.77	11962.48
470.95	12067.80
471.14	12245.68
471.32	11971.84
471.50	12592.08
471.68	12294.83
471.86	12449.31
472.04	12318.24
472.22	12894.01
472.40	12542.93
472.58	12739.54
472.77	12835.50
472.95	12901.03
473.13	13116.36
473.31	12683.36
473.49	12870.61
473.67	13125.72
473.85	13039.12
474.03	13242.75
474.21	13102.32
474.39	13355.10
474.57	13511.91
474.75	13673.41
474.93	13956.61
475.12	13511.91
475.30	13703.84
475.48	13783.41
475.66	13785.76
475.84	13914.48
476.02	14281.95
476.20	14024.49
476.38	14398.98
476.56	14511.32
476.74	14525.36
476.92	14420.04
477.10	14485.58
477.28	14719.63
477.46	14991.13
477.64	14916.23
477.82	15414.77
478.00	15510.73
478.18	15431.15
478.36	15580.95
478.54	15566.90
478.72	15751.81
478.90	15889.90
479.08	15934.37
479.26	16369.71
479.44	16252.68
479.62	16121.61
479.80	16299.49
479.98	16343.96
480.16	16985.27
480.34	16662.27
480.52	16671.64
480.70	17177.19
480.88	16994.63
481.06	17390.18
481.24	17053.14
481.41	17448.69
481.59	17879.35
481.77	18022.12
481.95	17734.24
482.13	18087.66
482.31	17788.07
482.49	18600.24
482.67	18670.45
482.85	18801.52
483.03	18527.68
483.21	18972.38
483.39	19386.66
483.57	19185.37
483.74	19061.32
483.92	19634.75
484.10	19494.32
484.28	20072.43
484.46	19868.81
484.64	20428.20
484.82	19946.05
485.00	20362.66
485.18	20751.19
485.35	21226.32
485.53	20912.69
485.71	21088.23
485.89	21130.36
486.07	21514.20
486.25	21427.60
486.43	21607.83
486.61	21689.74
486.78	22160.19
486.96	22185.94
487.14	22604.89
487.32	22150.83
487.50	22623.62
487.68	22731.28
487.85	23260.24
488.03	23433.44
488.21	23777.50
488.39	23833.68
488.57	23763.46
488.75	24348.59
488.92	24629.46
489.10	24610.73
489.28	24285.40
489.46	25149.06
489.64	24554.56
489.81	25158.42
489.99	25202.89
490.17	25483.75
490.35	25738.87
490.53	25865.26
490.70	26609.55
490.88	26019.74
491.06	26417.63
491.24	26356.77
491.41	26885.73
491.59	26782.75
491.77	26906.80
491.95	27208.73
492.13	27960.04
492.30	27318.73
492.48	27597.26
492.66	27803.22
492.84	27695.56
493.01	28577.94
493.19	27821.95
493.37	28929.02
493.54	28641.14
493.72	28819.02
493.90	28903.28
494.08	29324.57
494.25	29694.38
494.43	29771.61
494.61	29748.21
494.79	29715.44
494.96	30368.45
495.14	29937.79
495.32	30520.59
495.49	30298.23
495.67	30913.80
495.85	31349.14
496.02	31194.66
496.20	30976.99
496.38	31358.50
496.55	31461.48
496.73	31931.93
496.91	32357.91
497.09	32222.16
497.26	31917.89
497.44	32266.63
497.62	32638.77
497.79	32833.04
497.97	32519.40
498.14	33195.82
498.32	33397.10
498.50	33574.98
498.67	33642.86
498.85	33464.98
499.03	33582.01
499.20	33731.80
499.38	34263.10
499.56	34335.66
499.73	34113.31
499.91	34841.21
500.08	34965.26
500.26	34656.31
500.44	34806.11
500.61	34981.65
500.79	35262.51
500.97	35349.11
501.14	35337.41
501.32	35260.17
501.49	35611.25
501.67	35786.79
501.84	35798.49
502.02	36243.20
502.20	35798.49
502.37	36542.78
502.55	36350.86
502.72	36210.43
502.90	36395.33
503.07	36561.51
503.25	36753.43
503.43	36730.03
503.60	36950.04
503.78	37495.38
503.95	37303.46
504.13	37436.87
504.30	37294.10
504.48	37081.11
504.65	37823.06
504.83	38078.18
505.01	38197.54
505.18	37984.55
505.36	38686.71
505.53	38234.99
505.71	38543.94
505.88	38546.28
506.06	38529.90
506.23	39180.57
506.41	38965.24
506.58	38721.82
506.76	39023.75
506.93	38995.67
507.11	39091.63
507.28	39159.50
507.46	39772.72
507.63	39978.69
507.81	40142.53
507.98	40069.97
508.16	40318.07
508.33	40053.59
508.50	40119.12
508.68	40156.57
508.85	40842.35
509.03	40306.37
509.20	40982.78
509.38	41282.37
509.55	41235.56
509.73	41390.03
509.90	41926.02
510.08	41198.11
510.25	41610.04
510.42	41570.25
510.60	41745.80
510.77	41869.84
510.95	42600.09
511.12	41696.64
511.30	41830.05
511.47	42106.24
511.64	42401.14
511.82	43049.47
511.99	42646.90
512.17	42876.27
512.34	42726.48
512.51	42756.91
512.69	43096.28
512.86	43456.73
513.04	43627.59
513.21	43786.74
513.38	43917.81
513.56	44105.06
513.73	43730.57
513.90	43634.61
514.08	43695.46
514.25	43938.88
514.43	44392.94
514.60	44456.14
514.77	44170.59
514.95	44795.51
515.12	44673.81
515.29	44481.88
515.47	44875.09
515.64	44891.48
515.81	44519.33
515.99	44889.13
516.16	45886.20
516.33	45254.26
516.51	44790.83
516.68	45095.10
516.85	45553.85
517.03	45521.08
517.20	46087.49
517.37	45769.18
517.54	46274.73
517.72	45851.09
517.89	45837.05
518.06	45930.67
518.24	45982.16
518.41	46251.33
518.58	46429.21
518.75	46031.32
518.93	46312.18
519.10	46632.83
519.27	46791.99
519.45	46382.40
519.62	46644.54
519.79	46955.83
519.96	47281.16
520.14	47576.07
520.31	46658.58
520.48	47468.40
520.65	47229.67
520.83	47569.05
521.00	47337.33
521.17	47557.35
521.34	47929.49
521.52	47746.93
521.69	48027.79
521.86	47976.30
522.03	48147.16
522.20	48011.41
522.38	48413.98
522.55	48844.64
522.72	48495.90
522.89	48556.75
523.07	48968.69
523.24	48875.07
523.41	48655.06
523.58	48809.53
523.75	48891.45
523.92	49020.18
524.10	48788.47
524.27	49027.20
524.44	49399.35
524.61	49717.66
524.78	49317.43
524.96	49577.23
525.13	49640.42
525.30	49071.67
525.47	49474.24
525.64	49743.41
525.81	50042.99
525.98	50028.95
526.16	50000.86
526.33	49612.34
526.50	50124.91
526.67	50160.02
526.84	50188.11
527.01	50335.56
527.18	49830.01
527.36	50295.77
527.53	50473.65
527.70	50768.56
527.87	50897.29
528.04	50461.95
528.21	50749.84
528.38	50363.65
528.55	50798.99
528.72	50768.56
528.89	51136.02
529.07	50749.84
529.24	50813.03
529.41	50986.23
529.58	50983.89
529.75	50806.01
529.92	50707.71
530.09	51337.31
530.26	51353.69
530.43	51363.06
530.60	51480.08
530.77	51447.32
530.94	51454.34
531.11	51257.73
531.28	51447.32
531.46	51554.98
531.63	51885.00
531.80	52126.07
531.97	51985.64
532.14	52006.70
532.31	51819.46
532.48	52002.02
532.65	51742.22
532.82	51782.01
532.99	51718.82
533.16	51880.31
533.33	52507.58
533.50	52610.56
533.67	52196.29
533.84	52694.82
534.01	52083.94
534.18	52320.34
534.35	52495.88
534.52	52666.73
534.69	52282.89
534.86	52608.22
535.03	52411.62
535.20	52924.19
535.37	52856.32
535.54	53249.53
535.71	52762.70
535.88	53111.44
536.05	53291.66
536.22	53207.40
536.38	53249.53
536.55	53223.78
536.72	53305.70
536.89	53247.19
537.06	53106.76
537.23	53228.46
537.40	53076.33
537.57	53153.57
537.74	53469.54
537.91	53631.04
538.08	53691.89
538.25	53511.67
538.42	53698.91
538.59	53535.07
538.75	53432.09
538.92	53490.60
539.09	53785.51
539.26	53787.85
539.43	53701.25
539.60	54239.57
539.77	53872.11
539.94	54110.85
540.11	54089.78
540.28	53848.71
540.44	53902.54
540.61	54005.52
540.78	54127.23
540.95	54277.02
541.12	54600.02
541.29	54230.21
541.46	53961.05
541.62	54223.19
541.79	54410.43
541.96	54239.57
542.13	54024.25
542.30	54461.93
542.47	54808.32
542.63	54494.69
542.80	54677.25
542.97	54719.38
543.14	54738.11
543.31	54724.07
543.48	54904.29
543.64	55285.79
543.81	55000.25
543.98	55372.39
544.15	54934.71
544.32	55187.49
544.48	55332.60
544.65	55194.51
544.82	55089.19
544.99	55238.98
545.16	55182.81
545.32	55079.83
545.49	55377.08
545.66	55744.54
545.83	55554.96
546.00	55648.58
546.16	55334.95
546.33	55168.77
546.50	55267.07
546.67	55419.20
546.83	54988.55
547.00	55508.14
547.17	55519.85
547.34	55468.36
547.50	55580.70
547.67	55908.38
547.84	55650.92
548.00	55927.10
548.17	55934.12
548.34	55852.20
548.51	56376.48
548.67	55943.48
548.84	56102.64
549.01	56074.55
549.18	56072.21
549.34	55833.48
549.51	56067.53
549.68	56116.68
549.84	55887.31
550.01	56210.31
550.18	55941.14
550.34	56196.26
550.51	56217.33
550.68	56245.41
550.84	56102.64
551.01	56444.36
551.18	56212.65
551.34	56107.32
551.51	56533.30
551.68	56582.45
551.84	56446.70
552.01	56212.65
552.18	56570.75
552.34	56458.40
552.51	56519.26
552.68	56552.02
552.84	56317.97
553.01	56324.99
553.18	56629.26
553.34	56650.33
553.51	56713.52
553.67	56729.90
553.84	56966.30
554.01	56914.81
554.17	56809.48
554.34	56877.36
554.51	56753.31
554.67	56947.57
554.84	57207.37
555.00	57048.22
555.17	57055.24
555.33	56966.30
555.50	57008.43
555.67	56968.64
555.83	57134.82
556.00	57247.16
556.16	57249.50
556.33	57057.58
556.50	57343.12
556.66	57160.56
556.83	57045.88
556.99	57476.54
557.16	57162.90
557.32	57202.69
557.49	57198.01
557.65	56989.70
557.82	57069.28
557.98	57188.65
558.15	57301.00
558.32	57441.43
558.48	57258.87
558.65	57467.17
558.81	57331.42
558.98	57329.08
559.14	57237.80
559.31	57434.41
559.47	57668.46
559.64	57467.17
559.80	57464.83
559.97	57750.38
560.13	57551.43
560.30	57687.18
560.46	57565.48
560.63	57687.18
560.79	57528.03
560.96	57811.23
561.12	57684.84
561.29	57818.25
561.45	57738.68
561.61	57694.21
561.78	57939.96
561.94	57689.52
562.11	57762.08
562.27	57766.76
562.44	57640.37
562.60	57726.97
562.77	57712.93
562.93	57647.39
563.10	57914.22
563.26	57745.70
563.42	58099.12
563.59	57724.63
563.75	57979.75
563.92	57954.00
564.08	57808.89
564.24	57808.89
564.41	57818.25
564.57	57790.17
564.74	57872.09
564.90	58005.50
565.07	58094.44
565.23	58145.93
565.39	58049.97
565.56	57984.43
565.72	57675.48
565.88	58113.16
566.05	58038.26
566.21	57846.34
566.38	58120.18
566.54	58094.44
566.70	58344.87
566.87	58321.47
567.03	58152.95
567.19	58426.79
567.36	58113.16
567.52	58174.02
567.68	58166.99
567.85	57928.26
568.01	58291.04
568.17	58045.29
568.34	58066.35
568.50	58220.83
568.66	58424.45
568.83	58412.75
568.99	58052.31
569.15	58120.18
569.32	58099.12
569.48	58209.12
569.64	58227.85
569.81	58272.32
569.97	58138.91
570.13	58457.22
570.30	58515.73
570.46	58295.72
570.62	58356.58
570.78	58457.22
570.95	58284.02
571.11	58239.55
571.27	58155.29
571.43	58546.16
571.60	58377.64
571.76	58628.08
571.92	58508.71
572.09	58501.69
572.25	58494.67
572.41	58328.49
572.57	58288.70
572.74	58515.73
572.90	58382.32
573.06	58356.58
573.22	58157.63
573.38	58674.89
573.55	58415.09
573.71	58677.23
573.87	58820.00
574.03	58539.14
574.20	58747.45
574.36	58415.09
574.52	58550.84
574.68	58443.18
574.84	58688.93
575.01	58787.24
575.17	58618.72
575.33	58595.31
575.49	58515.73
575.65	58883.20
575.82	58681.91
575.98	58670.21
576.14	58803.62
576.30	58702.98
576.46	58766.17
576.62	58445.52
576.79	58445.52
576.95	58426.79
577.11	58672.55
577.27	58677.23
577.43	58604.67
577.59	58590.63
577.75	58698.30
577.92	58468.92
578.08	58702.98
578.24	58607.01
578.40	58742.77
578.56	58513.39
578.72	58803.62
578.88	58796.60
579.04	58747.45
579.21	58801.28
579.37	58787.24
579.53	58841.07
579.69	58489.99
579.85	58569.57
580.01	58660.85
580.17	58574.25
580.33	58766.17
580.49	58981.50
580.65	58897.24
580.82	58763.83
580.98	58784.90
581.14	58869.15
581.30	58745.11
581.46	58672.55
581.62	58628.08
581.78	58637.44
581.94	58784.90
582.10	58712.34
582.26	58918.31
582.42	58904.26
582.58	59119.59
582.74	58937.03
582.90	59096.19
583.06	59002.56
583.22	58871.49
583.38	58890.22
583.54	59082.14
583.70	58665.53
583.86	58965.12
584.02	58749.79
584.18	58801.28
584.34	58918.31
584.50	58948.73
584.66	58951.07
584.82	58824.68
584.98	59047.04
585.14	58805.96
585.30	59054.06
585.46	58871.49
585.62	58700.64
585.78	59035.33
585.94	58642.12
586.10	58710.00
586.26	58967.46
586.42	58974.48
586.58	59030.65
586.74	58862.13
586.90	58941.71
587.06	58965.12
587.22	58908.94
587.38	58859.79
587.54	59040.01
587.70	59175.76
587.86	58901.92
588.02	59145.34
588.18	59143.00
588.34	59025.97
588.49	59143.00
588.65	59011.93
588.81	58955.75
588.97	58944.05
589.13	59077.46
589.29	58808.30
589.45	59327.90
589.61	59203.85
589.77	59187.47
589.93	59143.00
590.08	59440.24
590.24	59316.20
590.40	59306.83
590.56	59161.72
590.72	59035.33
590.88	58939.37
591.04	59105.55
591.20	59241.30
591.35	59269.39
591.51	59653.23
591.67	59529.19
591.83	59341.94
591.99	59337.26
592.15	59391.09
592.31	59248.32
592.46	59152.36
592.62	59157.04
592.78	59098.53
592.94	59236.62
593.10	59135.98
593.26	59391.09
593.41	59564.29
593.57	59374.71
593.73	59407.48
593.89	59412.16
594.05	59332.58
594.20	59426.20
594.36	59346.62
594.52	59037.67
594.68	59192.15
594.84	59150.02
594.99	59512.80
595.15	59096.19
595.31	59409.82
595.47	59297.47
595.62	59372.37
595.78	59128.95
595.94	59346.62
596.10	59058.74
596.25	59367.69
596.41	59536.21
596.57	59150.02
596.73	59337.26
596.88	59119.59
597.04	59468.33
597.20	59669.62
597.36	59571.32
597.51	59533.87
597.67	59245.98
597.83	58990.86
597.99	59536.21
598.14	59531.53
598.30	59554.93
598.46	59278.75
598.61	59353.65
598.77	59299.81
598.93	59208.53
599.09	59456.63
599.24	59777.28
599.40	59576.00
599.56	59391.09
599.71	59250.66
599.87	59299.81
600.03	59126.61
600.18	59194.49
600.34	59405.14
600.50	59475.35
600.65	59625.15
600.81	59760.90
600.97	59571.32
601.12	59660.26
601.28	59718.77
601.44	59522.16
601.59	59732.81
601.75	59407.48
601.91	59573.66
602.06	59451.95
602.22	59405.14
602.37	59346.62
602.53	59414.50
602.69	59554.93
602.84	59653.23
603.00	59746.86
603.16	59798.35
603.31	59568.97
603.47	59505.78
603.62	59288.11
603.78	59414.50
603.94	59615.79
604.09	59508.12
604.25	59327.90
604.40	59473.01
604.56	59344.28
604.71	59704.73
604.87	59590.04
605.03	59688.34
605.18	59405.14
605.34	59372.37
605.49	59295.13
605.65	59405.14
605.80	59344.28
605.96	59412.16
606.12	59370.03
606.27	59510.46
606.43	59255.34
606.58	59592.38
606.74	59681.32
606.89	59777.28
607.05	59482.37
607.20	59547.91
607.36	59487.06
607.51	59571.32
607.67	59554.93
607.82	59372.37
607.98	59269.39
608.13	59260.02
608.29	59423.86
608.44	59437.90
608.60	59084.48
608.75	59568.97
608.91	59482.37
609.06	59171.08
609.22	59330.24
609.37	59262.36
609.53	59131.29
609.68	59068.10
609.84	59248.32
609.99	59217.89
610.15	59367.69
610.30	59257.68
610.46	59248.32
610.61	59400.46
610.76	59250.66
610.92	59309.18
611.07	59290.45
611.23	59271.73
611.38	59384.07
611.54	59248.32
611.69	59143.00
611.84	59110.23
612.00	59054.06
612.15	59269.39
612.31	59348.96
612.46	59234.28
612.62	59224.92
612.77	59295.13
612.92	59255.34
613.08	59152.36
613.23	59065.76
613.39	59159.38
613.54	59131.29
613.69	59044.69
613.85	58944.05
614.00	59224.92
614.15	59248.32
614.31	59128.95
614.46	59150.02
614.62	58850.43
614.77	59077.46
614.92	59119.59
615.08	59210.87
615.23	59086.82
615.38	59042.35
615.54	58710.00
615.69	59054.06
615.84	58876.18
616.00	58885.54
616.15	58747.45
616.30	58988.52
616.46	58901.92
616.61	58918.31
616.76	59241.30
616.92	58932.35
617.07	59056.40
617.22	58894.90
617.37	58773.19
617.53	59082.14
617.68	58859.79
617.83	58859.79
617.99	58845.75
618.14	58876.18
618.29	58787.24
618.45	58899.58
618.60	58885.54
618.75	58784.90
618.90	59058.74
619.06	58997.88
619.21	58658.51
619.36	58752.13
619.51	58621.06
619.67	58660.85
619.82	58637.44
619.97	58712.34
620.12	58515.73
620.28	58571.91
620.43	58887.88
620.58	58717.02
620.73	58719.36
620.89	58599.99
621.04	58754.47
621.19	58433.81
621.34	58468.92
621.49	58461.90
621.65	58639.78
621.80	58686.59
621.95	58429.13
622.10	58597.65
622.25	58607.01
622.41	58515.73
622.56	58747.45
622.71	58227.85
622.86	58492.33
623.01	58204.44
623.16	58202.10
623.32	58157.63
623.47	58337.85
623.62	58497.01
623.77	58176.36
623.92	58295.72
624.07	58185.72
624.23	58300.40
624.38	58401.05
624.53	58401.05
624.68	58405.73
624.83	58532.12
624.98	58342.53
625.13	57982.09
625.29	58368.28
625.44	58244.23
625.59	58291.04
625.74	58059.33
625.89	57918.90
626.04	58035.92
626.19	58225.51
626.34	57937.62
626.49	58096.78
626.65	58026.56
626.80	58127.20
626.95	57804.21
627.10	57961.03
627.25	57897.83
627.40	57937.62
627.55	57696.55
627.70	57598.24
627.85	57832.30
628.00	57670.80
628.15	57748.04
628.30	57865.06
628.45	57783.15
628.60	57733.99
628.76	57895.49
628.91	57975.07
629.06	58003.16
629.21	57731.65
629.36	57504.62
629.51	57752.72
629.66	57640.37
629.81	57457.81
629.96	57553.77
630.11	57675.48
630.26	57558.45
630.41	57764.42
630.56	57467.17
630.71	57677.82
630.86	57799.53
631.01	57616.97
631.16	57694.21
631.31	57794.85
631.46	57537.39
631.61	57455.47
631.76	57680.16
631.91	57462.49
632.06	57310.36
632.21	57488.24
632.36	57584.20
632.51	57097.37
632.66	57621.65
632.81	57162.90
632.96	57301.00
633.10	57256.53
633.25	57598.24
633.40	57588.88
633.55	57284.61
633.70	57020.13
633.85	57216.74
634.00	57116.09
634.15	57083.33
634.30	57008.43
634.45	57291.63
634.60	57329.08
634.75	57495.26
634.90	57460.15
635.05	57284.61
635.19	57347.81
635.34	57588.88
635.49	57092.69
635.64	56956.94
635.79	57085.67
635.94	57062.26
636.09	56905.44
636.24	56746.29
636.39	56870.34
636.53	57146.52
636.68	56690.12
636.83	56858.63
636.98	57270.57
637.13	57097.37
637.28	56928.85
637.43	57010.77
637.57	56853.95
637.72	56821.19
637.87	57064.60
638.02	56699.48
638.17	56882.04
638.32	56772.03
638.46	56399.89
638.61	56355.42
638.76	56353.08
638.91	56547.34
639.06	56722.88
639.20	56748.63
639.35	57031.83
639.50	56736.93
639.65	56587.13
639.80	56800.12
639.94	56495.85
640.09	56463.08
640.24	56327.33
640.39	56413.93
640.54	56203.28
640.68	56411.59
640.83	56399.89
640.98	56289.88
641.13	56432.66
641.27	56472.45
641.42	56296.91
641.57	56296.91
641.72	56329.67
641.86	56662.03
642.01	56470.11
642.16	56303.93
642.31	55929.44
642.45	56334.35
642.60	56212.65
642.75	56062.85
642.90	56126.05
643.04	56158.81
643.19	56011.36
643.34	56303.93
643.48	56390.53
643.63	56404.57
643.78	56271.16
643.93	56390.53
644.07	56418.61
644.22	55877.95
644.37	56062.85
644.51	56065.19
644.66	56074.55
644.81	55929.44
644.95	56002.00
645.10	56034.77
645.25	55941.14
645.39	55990.30
645.54	56100.30
645.69	56006.68
645.83	55875.61
645.98	56011.36
646.13	55959.87
646.27	56004.34
646.42	55945.83
646.57	55880.29
646.71	55908.38
646.86	56079.24
647.00	55831.14
647.15	55554.96
647.30	55557.30
647.44	55636.87
647.59	55559.64
647.74	55716.45
647.88	55613.47
648.03	55634.53
648.17	55751.56
648.32	55664.96
648.47	55576.02
648.61	55458.99
648.76	55711.77
648.90	55585.38
649.05	55618.15
649.20	55625.17
649.34	55463.67
649.49	55327.92
649.63	55456.65
649.78	55760.92
649.92	55161.75
650.07	55604.11
650.21	55437.93
650.36	55643.90
650.51	55477.72
650.65	55941.14
650.80	55374.73
650.94	55709.43
651.09	55440.27
651.23	55100.89
651.38	55206.22
651.52	55458.99
651.67	55257.71
651.81	55210.90
651.96	55033.02
652.10	54827.05
652.25	55173.45
652.39	55257.71
652.54	55482.40
652.68	55377.08
652.83	55121.96
652.97	55201.53
653.12	55124.30
653.26	54873.86
653.41	54976.84
653.55	54887.90
653.70	55103.23
653.84	55117.28
653.99	55096.21
654.13	55164.09
654.27	54698.32
654.42	55075.15
654.56	54724.07
654.71	54695.98
654.85	54930.03
655.00	55018.97
655.14	55004.93
655.29	54759.17
655.43	54752.15
655.57	54454.90
655.72	54337.88
655.86	54490.01
656.01	54770.88
656.15	54234.89
656.30	54457.24
656.44	54415.11
656.58	54408.09
656.73	54614.06
656.87	54632.78
657.01	54770.88
657.16	54733.43
657.30	54794.28
657.45	54436.18
657.59	54897.27
657.73	54515.76
657.88	54733.43
658.02	54504.06
658.16	54440.86
658.31	54190.42
658.45	54155.32
658.60	53778.49
658.74	53811.26
658.88	54181.06
659.03	54021.90
659.17	53972.75
659.31	54096.80
659.46	54057.01
659.60	54415.11
659.74	54178.72
659.89	53996.16
660.03	54230.21
660.17	53975.09
660.32	53762.11
660.46	54061.69
660.60	53624.01
660.74	53766.79
660.89	54106.16
661.03	53717.64
661.17	53727.00
661.32	53455.50
661.46	53598.27
661.60	53822.96
661.74	53666.14
661.89	53509.33
662.03	53851.05
662.17	53207.40
662.31	53244.85
662.46	53682.53
662.60	52692.48
662.74	53326.77
662.88	52750.99
663.03	52868.02
663.17	52949.94
663.31	52872.70
663.45	52870.36
663.60	53174.63
663.74	52837.59
663.88	52975.69
664.02	53109.10
664.17	53329.11
664.31	52891.43
664.45	52889.09
664.59	52856.32
664.73	52900.79
664.88	52769.72
665.02	52109.69
665.16	52306.29
665.30	52271.18
665.44	52280.55
665.59	52041.81
665.73	52102.67
665.87	52165.86
666.01	51987.98
666.15	52296.93
666.29	52428.00
666.44	52168.20
666.58	52360.12
666.72	52215.01
666.86	52402.25
667.00	52474.81
667.14	51812.44
667.28	51702.43
667.43	51653.28
667.57	51842.87
667.71	51372.42
667.85	51636.90
667.99	51618.17
668.13	51297.52
668.27	51461.36
668.41	51648.60
668.56	51316.25
668.70	51697.75
668.84	51470.72
668.98	51426.25
669.12	51367.74
669.26	51557.32
669.40	51246.03
669.54	50946.44
669.68	51147.73
669.82	50721.75
669.96	50745.15
670.10	50663.24
670.25	50586.00
670.39	50358.97
670.53	50314.50
670.67	50649.19
670.81	50761.54
670.95	50911.33
671.09	50635.15
671.23	50483.01
671.37	50660.90
671.51	50490.04
671.65	50485.36
671.79	50150.66
671.93	49956.39
672.07	50323.86
672.21	49998.52
672.35	49792.56
672.49	49579.57
672.63	49453.18
672.77	49432.11
672.91	49947.03
673.05	49315.09
673.19	49387.64
673.33	49743.41
673.47	49411.05
673.61	49844.05
673.75	49694.25
673.89	49624.04
674.03	48928.90
674.17	49364.24
674.31	49420.41
674.45	49062.31
674.59	49022.52
674.73	48800.17
674.87	48680.80
675.01	48580.16
675.15	48442.07
675.29	48133.12
675.43	48250.14
675.56	48603.56
675.70	48547.39
675.84	48413.98
675.98	47459.04
676.12	48154.18
676.26	48095.67
676.40	47461.38
676.54	47332.65
676.68	47058.81
676.82	46768.58
676.96	47133.71
677.10	47007.32
677.23	46824.76
677.37	46920.72
677.51	46286.43
677.65	46492.40
677.79	46122.60
677.93	46178.77
678.07	46459.63
678.21	46195.15
678.34	46199.83
678.48	45977.48
678.62	45722.37
678.76	45893.22
678.90	45902.59
679.04	45806.62
679.18	45888.54
679.31	45394.69
679.45	45132.55
679.59	45413.41
679.73	45244.90
679.87	44804.88
680.00	44870.41
680.14	44465.50
680.28	44734.66
680.42	44428.05
680.56	44931.26
680.70	45015.52
680.83	44662.10
680.97	44641.04
681.11	44514.65
681.25	43676.74
681.39	43929.51
681.52	43552.69
681.66	43622.90
681.80	43026.07
681.94	42815.42
682.07	42895.00
682.21	42948.83
682.35	42862.23
682.49	42763.93
682.62	42429.23
682.76	42366.04
682.90	42625.84
683.04	42384.76
683.17	42550.94
683.31	42330.93
683.45	42431.57
683.59	42164.75
683.72	42014.96
683.86	41998.57
684.00	41701.32
684.13	41277.69
684.27	41031.93
684.41	40432.75
684.55	40369.56
684.68	40289.98
684.82	40395.31
684.96	40786.18
685.09	40278.28
685.23	40292.32
685.37	40350.84
685.50	40273.60
685.64	39732.93
685.78	40189.34
685.91	39611.23
686.05	40364.88
686.19	39903.79
686.32	39880.39
686.46	39058.86
686.60	38841.19
686.73	39136.10
686.87	38698.42
687.01	38813.10
687.14	38546.28
687.28	38054.77
687.42	38279.46
687.55	37757.52
687.69	37940.08
687.82	38410.53
687.96	37783.27
688.10	37855.82
688.23	37701.35
688.37	37860.51
688.50	37612.41
688.64	37713.05
688.78	37139.62
688.91	36872.80
689.05	36753.43
689.18	36823.65
689.32	35770.41
689.46	35569.12
689.59	36355.54
689.73	36369.58
689.86	36060.63
690.00	35917.86
690.13	36102.76
690.27	35683.81
690.41	36137.87
690.54	35138.46
690.68	35442.73
690.81	35414.65
690.95	35503.59
691.08	35651.04
691.22	35321.02
691.35	35030.80
691.49	35101.01
691.62	34675.04
691.76	34806.11
691.89	34380.13
692.03	34293.53
692.16	34000.96
692.30	33841.81
692.43	33811.38
692.57	33628.82
692.70	33736.48
692.84	33820.74
692.97	33441.57
693.11	33656.90
693.24	33347.95
693.38	33383.06
693.51	33034.32
693.65	32865.80
693.78	33113.90
693.92	32732.39
694.05	32634.09
694.19	32053.64
694.32	32039.59
694.45	32055.98
694.59	31487.23
694.72	31585.53
694.86	31634.68
694.99	31484.89
695.13	31304.67
695.26	31297.64
695.39	31014.44
695.53	31182.96
695.66	31056.57
695.80	30754.64
695.93	30815.49
696.07	30712.51
696.20	30480.80
696.33	30661.02
696.47	30176.53
696.60	30335.68
696.73	30326.32
696.87	30286.53
697.00	30005.67
697.14	29521.18
697.27	29340.96
697.40	29039.03
697.54	29046.05
697.67	28821.36
697.80	28652.84
697.94	28769.86
698.07	28945.41
698.21	28900.94
698.34	28872.85
698.47	28554.54
698.61	28627.09
698.74	28528.79
698.87	28580.28
699.01	28048.98
699.14	27775.14
699.27	27758.75
699.40	27620.66
699.54	27697.90
699.67	27000.42
699.80	27033.19
699.94	27541.08
700.07	27204.05
700.20	26717.22
700.34	26682.11
700.47	26726.58
700.60	26586.15
700.73	26986.38
700.87	26644.66
701.00	26384.86
701.13	26478.48
701.26	26230.38
701.40	26665.72
701.53	25813.77
701.66	25589.08
701.79	25687.38
701.93	25694.40
702.06	25305.87
702.19	24709.04
702.32	25130.33
702.46	25010.96
702.59	24779.25
702.72	24350.93
702.85	24636.48
702.99	24528.81
703.12	24601.37
703.25	24531.15
703.38	24388.38
703.51	24386.04
703.65	24063.05
703.78	24088.79
703.91	23985.81
704.04	23655.79
704.17	23768.14
704.31	23723.67
704.44	23625.37
704.57	23543.45
704.70	23630.05
704.83	23370.25
704.96	23033.21
705.10	23023.85
705.23	22796.82
>>>>>End Processed Spectral Data<<<<<
