SpectraSuite Data File
++++++++++++++++++++++++++++++++++++
Date: Fri Oct 04 11:48:40 GMT-05:00 2013
User: price-jones
Dark Spectrum Present: No
Reference Spectrum Present: No
Number of Sampled Component Spectra: 1
Spectrometers: USB2+H05261
Integration Time (usec): 100000 (USB2+H05261)
Spectra Averaged: 1 (USB2+H05261)
Boxcar Smoothing: 0 (USB2+H05261)
Correct for Electrical Dark: No (USB2+H05261)
Strobe/Lamp Enabled: No (USB2+H05261)
Correct for Detector Non-linearity: No (USB2+H05261)
Correct for Stray Light: No (USB2+H05261)
Number of Pixels in Processed Spectrum: 2048
>>>>>Begin Processed Spectral Data<<<<<
365.73	30.43
365.92	30.43
366.12	30.43
366.32	0.00
366.52	0.00
366.72	0.00
366.91	0.00
367.11	0.00
367.31	0.00
367.51	0.00
367.70	0.00
367.90	0.00
368.10	0.00
368.30	0.00
368.49	0.00
368.69	0.00
368.89	0.00
369.09	0.00
369.28	0.00
369.48	0.00
369.68	0.00
369.87	32.77
370.07	0.00
370.27	4.68
370.47	74.90
370.66	177.88
370.86	238.73
371.06	304.27
371.25	313.63
371.45	273.84
371.65	262.14
371.84	248.10
372.04	280.86
372.24	311.29
372.44	313.63
372.63	322.99
372.83	451.72
373.03	416.62
373.22	388.53
373.42	322.99
373.62	376.83
373.81	388.53
374.01	383.85
374.21	383.85
374.40	397.89
374.60	484.49
374.79	376.83
374.99	397.89
375.19	355.76
375.38	383.85
375.58	355.76
375.78	400.23
375.97	454.06
376.17	423.64
376.37	425.98
376.56	339.38
376.76	381.51
376.95	437.68
377.15	435.34
377.35	470.45
377.54	383.85
377.74	327.68
377.93	411.93
378.13	465.77
378.33	493.85
378.52	435.34
378.72	461.09
378.91	475.13
379.11	418.96
379.31	425.98
379.50	362.78
379.70	451.72
379.89	493.85
380.09	456.40
380.28	456.40
380.48	503.22
380.68	477.47
380.87	442.36
381.07	528.96
381.26	510.24
381.46	458.74
381.65	482.15
381.85	430.66
382.04	437.68
382.24	440.02
382.43	482.15
382.63	440.02
382.83	535.98
383.02	465.77
383.22	503.22
383.41	613.22
383.61	477.47
383.80	484.49
384.00	547.69
384.19	528.96
384.39	526.62
384.58	571.09
384.78	510.24
384.97	543.00
385.17	580.45
385.36	524.28
385.56	617.90
385.75	606.20
385.95	608.54
386.14	620.24
386.34	578.11
386.53	599.18
386.72	685.78
386.92	589.82
387.11	629.60
387.31	545.34
387.50	580.45
387.70	613.22
387.89	615.56
388.09	650.67
388.28	594.50
388.48	557.05
388.67	688.12
388.86	629.60
389.06	678.76
389.25	685.78
389.45	674.07
389.64	634.29
389.84	706.84
390.03	638.97
390.22	662.37
390.42	650.67
390.61	760.67
390.81	615.56
391.00	655.35
391.19	763.01
391.39	655.35
391.58	734.93
391.78	758.33
391.97	748.97
392.16	704.50
392.36	793.44
392.55	781.74
392.75	814.51
392.94	791.10
393.13	830.89
393.33	737.27
393.52	777.06
393.71	772.38
393.91	774.72
394.10	770.04
394.29	704.50
394.49	826.21
394.68	774.72
394.88	786.42
395.07	868.34
395.26	814.51
395.46	751.31
395.65	826.21
395.84	856.64
396.04	992.39
396.23	833.23
396.42	889.40
396.62	898.77
396.81	940.90
397.00	887.06
397.19	910.47
397.39	922.17
397.58	1078.99
397.77	994.73
397.97	940.90
398.16	912.81
398.35	952.60
398.55	1022.81
398.74	994.73
398.93	1013.45
399.12	1004.09
399.32	1001.75
399.51	1020.47
399.70	1128.14
399.90	1107.07
400.09	1025.15
400.28	1104.73
400.47	1029.84
400.67	1205.38
400.86	1137.50
401.05	1153.88
401.24	1149.20
401.44	1203.04
401.63	1219.42
401.82	1137.50
402.01	1188.99
402.21	1238.14
402.40	1277.93
402.59	1203.04
402.78	1268.57
402.97	1324.74
403.17	1277.93
403.36	1263.89
403.55	1240.48
403.74	1350.49
403.93	1268.57
404.13	1245.16
404.32	1397.30
404.51	1455.81
404.70	1324.74
404.89	1341.13
405.09	1427.73
405.28	1338.79
405.47	1369.21
405.66	1479.22
405.85	1437.09
406.05	1430.07
406.24	1345.81
406.43	1416.02
406.62	1502.62
406.81	1453.47
407.00	1418.36
407.20	1465.18
407.39	1514.33
407.58	1556.46
407.77	1584.54
407.96	1607.95
408.15	1586.88
408.34	1610.29
408.54	1643.06
408.73	1612.63
408.92	1605.61
409.11	1741.36
409.30	1680.50
409.49	1680.50
409.68	1734.34
409.87	1708.59
410.07	1748.38
410.26	1713.27
410.45	1844.34
410.64	1872.43
410.83	1820.94
411.02	1844.34
411.21	1935.62
411.40	1888.81
411.59	1935.62
411.78	2008.18
411.98	1933.28
412.17	1982.43
412.36	2064.35
412.55	2132.23
412.74	2160.31
412.93	2045.63
413.12	2097.12
413.31	2190.74
413.50	2064.35
413.69	2108.82
413.88	2153.29
414.07	2209.47
414.26	2179.04
414.45	2307.77
414.64	2265.64
414.83	2237.55
415.02	2345.22
415.22	2375.64
415.41	2307.77
415.60	2413.09
415.79	2413.09
415.98	2511.39
416.17	2473.95
416.36	2448.20
416.55	2579.27
416.74	2511.39
416.93	2565.23
417.12	2445.86
417.31	2565.23
417.50	2583.95
417.69	2679.91
417.88	2541.82
418.07	2696.30
418.26	2614.38
418.45	2668.21
418.64	2654.17
418.83	2747.79
419.02	2649.49
419.21	2726.72
419.39	2827.37
419.58	2808.64
419.77	2789.92
419.96	2949.08
420.15	2869.50
420.34	2836.73
420.53	2895.24
420.72	2963.12
420.91	2864.82
421.10	2967.80
421.29	2958.44
421.48	2839.07
421.67	3042.70
421.86	3038.02
422.05	2970.14
422.24	3035.67
422.43	3023.97
422.61	3042.70
422.80	3096.53
422.99	3052.06
423.18	3082.49
423.37	3124.62
423.56	3021.63
423.75	3052.06
423.94	3066.10
424.13	2951.42
424.32	3021.63
424.50	3129.30
424.69	3229.94
424.88	3185.47
425.07	3124.62
425.26	3047.38
425.45	3129.30
425.64	3178.45
425.83	3194.83
426.01	3119.93
426.20	3246.32
426.39	3194.83
426.58	3194.83
426.77	3117.59
426.96	3126.96
427.15	3159.72
427.33	3274.41
427.52	3323.56
427.71	3124.62
427.90	3300.16
428.09	3363.35
428.28	3323.56
428.46	3339.94
428.65	3269.73
428.84	3456.97
429.03	3438.25
429.22	3384.41
429.40	3396.12
429.59	3454.63
429.78	3283.77
429.97	3293.13
430.16	3342.28
430.34	3522.51
430.53	3466.33
430.72	3515.48
430.91	3524.85
431.10	3435.91
431.28	3552.93
431.47	3623.15
431.66	3637.19
431.85	3576.34
432.03	3695.71
432.22	3728.47
432.41	3522.51
432.60	3737.84
432.79	3653.58
432.97	3669.96
433.16	3730.81
433.35	3782.31
433.54	3784.65
433.72	3904.01
433.91	3918.06
434.10	3810.39
434.28	3885.29
434.47	3997.64
434.66	3960.19
434.85	3822.09
435.03	3990.61
435.22	3920.40
435.41	4065.51
435.59	4060.83
435.78	3974.23
435.97	3995.29
436.16	4051.47
436.34	4044.45
436.53	4098.28
436.72	4170.83
436.90	4037.42
437.09	4124.02
437.28	4191.90
437.46	4189.56
437.65	4166.15
437.84	4189.56
438.02	4255.09
438.21	4315.95
438.40	4264.46
438.58	4407.23
438.77	4404.89
438.96	4400.21
439.14	4395.53
439.33	4557.02
439.52	4615.54
439.70	4519.57
439.89	4645.96
440.08	4617.88
440.26	4746.61
440.45	4652.98
440.63	4655.33
440.82	4762.99
441.01	4688.09
441.19	4793.42
441.38	4938.53
441.57	4795.76
441.75	4873.00
441.94	4926.83
442.12	4877.68
442.31	5013.43
442.50	5064.92
442.68	4823.84
442.87	4865.97
443.05	5118.75
443.24	5245.14
443.43	5256.84
443.61	5310.68
443.80	5235.78
443.98	5081.30
444.17	4990.02
444.35	5158.54
444.54	5334.08
444.73	5224.08
444.91	5114.07
445.10	5385.57
445.28	5097.69
445.47	5053.22
445.65	5369.19
445.84	5387.91
446.02	5245.14
446.21	5334.08
446.39	5270.89
446.58	5420.68
446.77	5376.21
446.95	5153.86
447.14	5334.08
447.32	5385.57
447.51	5254.50
447.69	5364.51
447.88	5523.66
448.06	5275.57
448.25	5336.42
448.43	5408.98
448.62	5408.98
448.80	5383.23
448.99	5481.53
449.17	5544.73
449.36	5453.45
449.54	5713.25
449.73	5820.91
449.91	5804.53
450.10	5584.52
450.28	5834.96
450.46	5614.95
450.65	5834.96
450.83	5795.17
451.02	5734.31
451.20	5802.19
451.39	5830.27
451.57	5600.90
451.76	5764.74
451.94	5823.25
452.13	5841.98
452.31	5837.30
452.49	5930.92
452.68	5987.09
452.86	5933.26
453.05	5874.74
453.23	6015.18
453.42	5841.98
453.60	6073.69
453.78	6097.10
453.97	5841.98
454.15	5963.68
454.34	5839.64
454.52	6108.80
454.70	6188.38
454.89	6200.08
455.07	6179.01
455.26	6132.20
455.44	6282.00
455.62	6380.30
455.81	6244.55
455.99	6274.98
456.17	6415.41
456.36	6148.59
456.54	6506.69
456.73	6396.68
456.91	6473.92
457.09	6640.10
457.28	6588.61
457.46	6438.81
457.64	6579.25
457.83	6593.29
458.01	6452.86
458.19	6661.16
458.38	6551.16
458.56	6766.49
458.74	6717.34
458.93	6693.93
459.11	6825.00
459.29	6719.68
459.48	6843.73
459.66	6682.23
459.84	6972.46
460.03	7059.06
460.21	6890.54
460.39	7007.56
460.57	6993.52
460.76	7049.69
460.94	7000.54
461.12	6895.22
461.31	7122.25
461.49	6981.82
461.67	7023.95
461.85	7197.15
462.04	7124.59
462.22	7520.14
462.40	7136.29
462.59	7047.35
462.77	7199.49
462.95	7199.49
463.13	7241.62
463.32	7302.47
463.50	7234.60
463.68	7248.64
463.86	7492.05
464.05	7293.11
464.23	7274.38
464.41	7557.59
464.59	7377.37
464.78	7555.25
464.96	7578.65
465.14	7405.46
465.32	7691.00
465.50	7679.30
465.69	7543.55
465.87	7623.12
466.05	7630.15
466.23	7466.31
466.41	7665.25
466.60	7831.43
466.78	7702.70
466.96	7707.38
467.14	7370.35
467.32	7758.88
467.51	7742.49
467.69	7559.93
467.87	7873.56
468.05	7941.44
468.23	7705.04
468.41	7887.61
468.60	7852.50
468.78	7838.45
468.96	8044.42
469.14	7941.44
469.32	8152.09
469.50	7873.56
469.69	7866.54
469.87	8245.71
470.05	8400.18
470.23	8311.24
470.41	8119.32
470.59	8423.59
470.77	8238.69
470.95	8393.16
471.14	8400.18
471.32	8283.16
471.50	8552.32
471.68	8454.02
471.86	8652.96
472.04	8662.32
472.22	8760.63
472.40	8425.93
472.58	8786.37
472.77	8697.43
472.95	8922.12
473.13	8997.02
473.31	8842.54
473.49	8699.77
473.67	9006.38
473.85	8814.46
474.03	8999.36
474.21	9025.11
474.39	9067.24
474.57	9348.10
474.75	9298.95
474.93	9415.98
475.12	9280.22
475.30	9324.69
475.48	9383.21
475.66	9305.97
475.84	9607.90
476.02	9640.67
476.20	9685.14
476.38	9933.23
476.56	9958.98
476.74	9930.89
476.92	9937.91
477.10	9888.76
477.28	10076.01
477.46	10031.54
477.64	10284.31
477.82	10487.94
478.00	10448.15
478.18	10520.71
478.36	10637.73
478.54	10459.85
478.72	10771.15
478.90	10651.78
479.08	10995.84
479.26	10913.92
479.44	11180.74
479.62	11068.39
479.80	11578.63
479.98	11300.11
480.16	11257.98
480.34	11407.77
480.52	11599.70
480.70	11948.43
480.88	11683.95
481.06	11737.79
481.24	11463.94
481.41	11826.73
481.59	12072.48
481.77	12119.29
481.95	12346.33
482.13	12121.63
482.31	12189.51
482.49	12559.31
482.67	12596.76
482.85	12795.71
483.03	12919.76
483.21	12713.79
483.39	13163.17
483.57	13069.55
483.74	13184.24
483.92	13195.94
484.10	13139.77
484.28	13741.29
484.46	14087.68
484.64	13980.02
484.82	13647.66
485.00	13767.03
485.18	14143.86
485.35	14118.11
485.53	14157.90
485.71	14476.21
485.89	14443.45
486.07	14544.09
486.25	14452.81
486.43	14724.31
486.61	14927.94
486.78	15328.17
486.96	14939.64
487.14	15255.61
487.32	15407.75
487.50	15417.11
487.68	15641.80
487.85	15702.65
488.03	16079.48
488.21	15990.54
488.39	16137.99
488.57	16278.43
488.75	16072.46
488.92	16491.41
489.10	16573.33
489.28	16723.13
489.46	16861.22
489.64	16631.85
489.81	17228.68
489.99	17036.76
490.17	17050.80
490.35	17296.56
490.53	17514.23
490.70	17837.22
490.88	17649.98
491.06	17837.22
491.24	18050.21
491.41	17935.53
491.59	17996.38
491.77	18342.78
491.95	18562.79
492.13	18197.67
492.30	18735.99
492.48	18944.30
492.66	18977.06
492.84	18735.99
493.01	18974.72
493.19	18902.17
493.37	19576.24
493.54	19307.08
493.72	19424.11
493.90	19276.65
494.08	19714.33
494.25	19875.83
494.43	19826.68
494.61	20240.95
494.79	20240.95
494.96	19882.85
495.14	20613.10
495.32	20610.76
495.49	20713.74
495.67	20680.97
495.85	20606.08
496.02	20966.52
496.20	20833.11
496.38	21095.25
496.55	21287.17
496.73	21738.90
496.91	21238.02
497.09	21504.84
497.26	21949.54
497.44	21661.66
497.62	21628.89
497.79	22185.94
497.97	21881.67
498.14	22555.74
498.32	22469.14
498.50	22689.15
498.67	22757.03
498.85	22771.07
499.03	22698.52
499.20	22782.77
499.38	22850.65
499.56	23314.08
499.73	23126.83
499.91	23257.90
500.08	23700.26
500.26	23220.45
500.44	23115.13
500.61	23496.64
500.79	23513.02
500.97	23576.22
501.14	24163.69
501.32	23915.59
501.49	23992.83
501.67	23494.30
501.84	24301.78
502.02	24201.14
502.20	24563.92
502.37	24793.29
502.55	24643.50
502.72	24250.29
502.90	24496.05
503.07	24554.56
503.25	24634.14
503.43	24907.98
503.60	25163.10
503.78	24833.08
503.95	25109.27
504.13	25345.66
504.30	25324.60
504.48	25441.62
504.65	25633.55
504.83	26001.01
505.01	26101.65
505.18	25841.85
505.36	26057.18
505.53	25685.04
505.71	25795.04
505.88	26071.23
506.06	25862.92
506.23	26001.01
506.41	25944.84
506.58	26742.96
506.76	26352.09
506.93	26611.89
507.11	26773.39
507.28	26630.62
507.46	26618.91
507.63	27080.00
507.81	27077.66
507.98	26986.38
508.16	26555.72
508.33	27150.21
508.50	27318.73
508.68	27433.42
508.85	27391.29
509.03	27328.10
509.20	27517.68
509.38	27730.67
509.55	27936.63
509.73	27821.95
509.90	28198.77
510.08	27817.27
510.25	27943.66
510.42	28264.31
510.60	28210.48
510.77	28364.95
510.95	28730.08
511.12	28325.16
511.30	28659.86
511.47	28758.16
511.64	28561.56
511.82	29024.98
511.99	28662.20
512.17	29039.03
512.34	29118.60
512.51	29268.40
512.69	29350.32
512.86	29359.68
513.04	29390.11
513.21	29607.78
513.38	29649.91
513.56	29741.19
513.73	29703.74
513.90	29956.52
514.08	29607.78
514.25	29975.24
514.43	30391.86
514.60	30321.64
514.77	30019.71
514.95	30256.11
515.12	30178.87
515.29	30249.08
515.47	30618.89
515.64	30581.44
515.81	30689.10
515.99	30937.20
516.16	30593.14
516.33	31000.40
516.51	31136.15
516.68	30438.67
516.85	31058.91
517.03	30682.08
517.20	31166.57
517.37	31079.97
517.54	31290.62
517.72	31426.37
517.89	31285.94
518.06	31363.18
518.24	31564.46
518.41	31314.03
518.58	31557.44
518.75	31840.65
518.93	31922.57
519.10	31896.82
519.27	32055.98
519.45	32039.59
519.62	31842.99
519.79	31945.97
519.96	32311.10
520.14	32240.88
520.31	32144.92
520.48	32638.77
520.65	32334.50
520.83	32514.72
521.00	32566.21
521.17	32374.29
521.34	33106.88
521.52	32900.91
521.69	32453.87
521.86	32858.78
522.03	32896.23
522.20	33315.19
522.38	33289.44
522.55	33397.10
522.72	33434.55
522.89	33207.52
523.07	33982.24
523.24	33345.61
523.41	33734.14
523.58	33172.41
523.75	33656.90
523.92	33699.03
524.10	33778.61
524.27	34003.30
524.44	33848.83
524.61	34277.15
524.78	34134.37
524.96	34543.97
525.13	34202.25
525.30	33787.97
525.47	34565.03
525.64	34354.38
525.81	34890.37
525.98	34550.99
526.16	34778.02
526.33	34756.96
526.50	34906.75
526.67	34422.26
526.84	35007.39
527.01	34583.76
527.18	34813.13
527.36	35173.57
527.53	34906.75
527.70	35700.19
527.87	34881.00
528.04	34899.73
528.21	35292.94
528.38	35101.01
528.55	35257.83
528.72	35077.61
528.89	35803.17
529.07	35501.25
529.24	35466.14
529.41	35405.28
529.58	35576.14
529.75	35714.23
529.92	35550.40
530.09	35880.41
530.26	35821.90
530.43	35931.90
530.60	35260.17
530.77	36062.97
530.94	36233.83
531.11	35583.16
531.28	35812.54
531.46	35852.33
531.63	36526.40
531.80	35992.76
531.97	36694.92
532.14	36402.35
532.31	36458.52
532.48	36360.22
532.65	36378.95
532.82	36163.62
532.99	36694.92
533.16	36746.41
533.33	36753.43
533.50	37354.95
533.67	36739.39
533.84	37043.66
534.01	36804.92
534.18	36865.78
534.35	37053.02
534.52	37043.66
534.69	37378.36
534.86	37289.42
535.03	37078.77
535.20	37511.77
535.37	37310.48
535.54	37408.78
535.71	37256.65
535.88	37329.20
536.05	37163.03
536.22	37881.57
536.38	37425.17
536.55	37556.24
536.72	37743.48
536.89	37687.31
537.06	37897.95
537.23	37340.91
537.40	37589.00
537.57	38333.29
537.74	38010.30
537.91	38525.22
538.08	38260.74
538.25	38347.34
538.42	38122.65
538.59	38232.65
538.75	38213.93
538.92	38040.73
539.09	38244.35
539.26	38553.30
539.43	38478.41
539.60	38890.34
539.77	38330.95
539.94	38579.05
540.11	38092.22
540.28	38651.61
540.44	38452.66
540.61	38436.28
540.78	38663.31
540.95	38937.15
541.12	39063.54
541.29	38843.53
541.46	38801.40
541.62	38689.06
541.79	38869.28
541.96	38527.56
542.13	39316.32
542.30	39117.37
542.47	39526.97
542.63	39035.45
542.80	39936.56
542.97	39746.98
543.14	39625.27
543.31	39580.80
543.48	39328.02
543.64	40315.73
543.81	39889.75
543.98	39896.77
544.15	40367.22
544.32	40114.44
544.48	39955.29
544.65	39910.82
544.82	40177.64
544.99	39730.59
545.16	40055.93
545.32	39852.30
545.49	40676.17
545.66	40481.91
545.83	40907.88
546.00	40247.85
546.16	40706.60
546.33	40268.92
546.50	39672.08
546.67	40280.62
546.83	40428.07
547.00	40243.17
547.17	40624.68
547.34	40329.77
547.50	40722.98
547.67	41013.21
547.84	40552.12
548.00	40360.20
548.17	40879.80
548.34	40601.27
548.51	41326.84
548.67	41291.73
548.84	40788.52
549.01	40884.48
549.18	41184.07
549.34	41167.68
549.51	41364.29
549.68	41125.55
549.84	40783.83
550.01	41055.34
550.18	40975.76
550.34	41024.91
550.51	41668.56
550.68	41305.77
550.84	40959.38
551.01	41397.06
551.18	41378.33
551.34	40964.06
551.51	41411.10
551.68	41825.37
551.84	41804.31
552.01	41642.81
552.18	41486.00
552.34	41551.53
552.51	41689.62
552.68	41675.58
552.84	41635.79
553.01	41649.83
553.18	41933.04
553.34	42155.39
553.51	41918.99
553.67	41897.93
553.84	42071.13
554.01	41890.91
554.17	42232.63
554.34	42204.54
554.51	41872.18
554.67	42286.46
554.84	42536.90
555.00	42405.83
555.17	42146.03
555.33	42239.65
555.50	42096.88
555.67	42087.51
555.83	41757.50
556.00	42007.94
556.16	42520.51
556.33	42476.04
556.50	42642.22
556.66	42335.61
556.83	42471.36
556.99	42349.65
557.16	42651.58
557.32	42775.63
557.49	42724.14
557.65	42298.16
557.82	42363.70
557.98	42639.88
558.15	42784.99
558.32	42728.82
558.48	42337.95
558.65	42543.92
558.81	42623.50
558.98	42806.06
559.14	42845.85
559.31	42513.49
559.47	42731.16
559.64	42574.34
559.80	42770.95
559.97	43175.86
560.13	42660.94
560.30	42670.31
560.46	43002.66
560.63	43082.24
560.79	42951.17
560.96	43253.10
561.12	42862.23
561.29	43014.37
561.45	43110.33
561.61	43250.76
561.78	43166.50
561.94	43000.32
562.11	43585.46
562.27	42815.42
562.44	42909.04
562.60	42862.23
562.77	42941.81
562.93	43033.09
563.10	43421.62
563.26	43503.54
563.42	43632.27
563.59	43201.61
563.75	43746.95
563.92	43597.16
564.08	42972.24
564.24	43234.38
564.41	43489.49
564.57	43360.76
564.74	43533.96
564.90	43229.69
565.07	43693.12
565.23	43210.97
565.39	43704.82
565.56	43503.54
565.72	43180.54
565.88	43295.23
566.05	43372.47
566.21	43545.67
566.38	43573.75
566.54	43438.00
566.70	44020.80
566.87	43763.34
567.03	43274.16
567.19	44107.40
567.36	43330.34
567.52	43433.32
567.68	43604.18
567.85	43585.46
568.01	43459.07
568.17	43697.80
568.34	43950.58
568.50	43838.23
568.66	44083.99
568.83	44102.71
568.99	43592.48
569.15	43688.44
569.32	43658.01
569.48	43365.45
569.64	44041.86
569.81	43473.11
569.97	43704.82
570.13	43945.90
570.30	43852.28
570.46	44266.55
570.62	43711.84
570.78	44072.29
570.95	43587.80
571.11	43814.83
571.27	43751.63
571.43	43496.52
571.60	43889.73
571.76	44051.22
571.92	43922.49
572.09	43810.15
572.25	43929.51
572.41	43789.08
572.57	43653.33
572.74	44137.82
572.90	43765.68
573.06	43894.41
573.22	43969.30
573.38	44289.96
573.55	44194.00
573.71	44257.19
573.87	44144.84
574.03	44016.11
574.20	44170.59
574.36	43833.55
574.52	44034.84
574.68	44233.78
574.84	44013.77
575.01	44287.62
575.17	44414.01
575.33	44226.76
575.49	44332.09
575.65	44074.63
575.82	44079.31
575.98	44421.03
576.14	44194.00
576.30	44575.50
576.46	43826.53
576.62	43964.62
576.79	43770.36
576.95	43901.43
577.11	44102.71
577.27	44161.23
577.43	44608.27
577.59	44177.61
577.75	43938.88
577.92	43791.42
578.08	43702.48
578.24	44091.01
578.40	44315.70
578.56	44421.03
578.72	43566.73
578.88	44406.98
579.04	44538.05
579.21	44547.42
579.37	44020.80
579.53	44196.34
579.69	44119.10
579.85	44271.23
580.01	44336.77
580.17	44013.77
580.33	44601.25
580.49	44650.40
580.65	44755.72
580.82	44673.81
580.98	44500.61
581.14	44020.80
581.30	44301.66
581.46	43817.17
581.62	43798.44
581.78	44182.29
581.94	44552.10
582.10	44098.03
582.26	44144.84
582.42	44243.15
582.58	44765.09
582.74	44612.95
582.90	44292.30
583.06	44587.21
583.22	44388.26
583.38	44264.21
583.54	44374.22
583.70	43957.60
583.86	44112.08
584.02	44285.28
584.18	44596.57
584.34	44662.10
584.50	44341.45
584.66	44023.14
584.82	43714.19
584.98	44301.66
585.14	44320.38
585.30	44165.91
585.46	44425.71
585.62	44451.45
585.78	44304.00
585.94	44142.50
586.10	44264.21
586.26	44545.08
586.42	44715.93
586.58	44711.25
586.74	44341.45
586.90	44184.63
587.06	43810.15
587.22	44418.69
587.38	44105.06
587.54	44500.61
587.70	44839.98
587.86	44315.70
588.02	44634.02
588.18	44968.71
588.34	44669.12
588.49	44233.78
588.65	44091.01
588.81	44051.22
588.97	44713.59
589.13	44229.10
589.29	44346.13
589.45	44877.43
589.61	44421.03
589.77	44940.63
589.93	45134.89
590.08	44828.28
590.24	44449.11
590.40	44636.36
590.56	44732.32
590.72	44575.50
590.88	44444.43
591.04	44411.67
591.20	44505.29
591.35	44781.47
591.51	44772.11
591.67	44636.36
591.83	45184.04
591.99	44814.24
592.15	44458.48
592.31	44793.17
592.46	44802.53
592.62	44437.41
592.78	44741.68
592.94	45141.91
593.10	44877.43
593.26	45193.40
593.41	45017.86
593.57	44872.75
593.73	44980.42
593.89	44980.42
594.05	44851.69
594.20	44271.23
594.36	45069.36
594.52	44690.19
594.68	44292.30
594.84	44428.05
594.99	45036.59
595.15	44804.88
595.31	44945.31
595.47	45076.38
595.62	44641.04
595.78	44706.57
595.94	45146.59
596.10	44966.37
596.25	44769.77
596.41	44868.07
596.57	44624.65
596.73	44940.63
596.88	44655.08
597.04	44851.69
597.20	45256.60
597.36	45104.46
597.51	45137.23
597.67	44823.60
597.83	44748.70
597.99	44945.31
598.14	44428.05
598.30	44720.62
598.46	44821.26
598.61	44823.60
598.77	44737.00
598.93	44863.39
599.09	45015.52
599.24	45563.21
599.40	44737.00
599.56	44622.31
599.71	44715.93
599.87	44945.31
600.03	44727.64
600.18	44737.00
600.34	44629.34
600.50	44797.85
600.65	44638.70
600.81	45394.69
600.97	45151.27
601.12	45226.17
601.28	44900.84
601.44	44884.45
601.59	44973.39
601.75	45076.38
601.91	44851.69
602.06	44781.47
602.22	44861.05
602.37	44406.98
602.53	44959.35
602.69	44870.41
602.84	44662.10
603.00	44914.88
603.16	44959.35
603.31	45170.00
603.47	44809.56
603.62	44954.67
603.78	44935.95
603.94	44643.38
604.09	44369.54
604.25	44910.20
604.40	44832.96
604.56	44861.05
604.71	45031.91
604.87	45062.33
605.03	45059.99
605.18	44547.42
605.34	44643.38
605.49	44964.03
605.65	44093.35
605.80	44608.27
605.96	44732.32
606.12	44547.42
606.27	44928.92
606.43	44638.70
606.58	44811.90
606.74	44701.89
606.89	45134.89
607.05	44535.71
607.20	44856.37
607.36	44381.24
607.51	45139.57
607.67	44435.07
607.82	44114.42
607.98	44556.78
608.13	44421.03
608.29	44350.81
608.44	44208.04
608.60	44477.20
608.75	44680.83
608.91	44636.36
609.06	44100.37
609.22	44535.71
609.37	43997.39
609.53	43861.64
609.68	44083.99
609.84	43622.90
609.99	44708.91
610.15	44149.53
610.30	44460.82
610.46	44638.70
610.61	44329.75
610.76	44446.77
610.92	44444.43
611.07	44367.20
611.23	44163.57
611.38	44285.28
611.54	43838.23
611.69	44151.87
611.84	43880.36
612.00	44325.07
612.15	43742.27
612.31	44259.53
612.46	44170.59
612.62	44217.40
612.77	44194.00
612.92	44044.20
613.08	44191.65
613.23	44093.35
613.39	44121.44
613.54	44107.40
613.69	44032.50
613.85	43599.50
614.00	44102.71
614.15	43786.74
614.31	44067.61
614.46	44432.73
614.62	44062.93
614.77	43964.62
614.92	44053.56
615.08	43686.10
615.23	43793.76
615.38	43959.94
615.54	43391.19
615.69	43882.70
615.84	43505.88
616.00	44039.52
616.15	43414.60
616.30	43817.17
616.46	43360.76
616.61	44156.55
616.76	43543.33
616.92	43377.15
617.07	43894.41
617.22	43868.66
617.37	43381.83
617.53	43320.98
617.68	44135.48
617.83	43299.91
617.99	43517.58
618.14	43522.26
618.29	43721.21
618.45	43622.90
618.60	43552.69
618.75	43400.55
618.90	43203.95
619.06	43194.59
619.21	43199.27
619.36	43306.93
619.51	43070.54
619.67	42990.96
619.82	43040.11
619.97	42829.46
620.12	43199.27
620.28	42939.47
620.43	43381.83
620.58	43253.10
620.73	43236.72
620.89	43395.87
621.04	43489.49
621.19	43054.15
621.34	43030.75
621.49	42721.80
621.65	42866.91
621.80	42986.28
621.95	42614.13
622.10	43173.52
622.25	42667.97
622.41	43159.48
622.56	42855.21
622.71	42611.79
622.86	42642.22
623.01	42265.39
623.16	42784.99
623.32	42667.97
623.47	42450.30
623.62	42873.93
623.77	42609.45
623.92	42782.65
624.07	42646.90
624.23	42239.65
624.38	42548.60
624.53	43147.78
624.68	42689.03
624.83	42253.69
624.98	42424.55
625.13	42110.92
625.29	42534.56
625.44	42155.39
625.59	42405.83
625.74	41942.40
625.89	41780.90
626.04	42038.36
626.19	41888.57
626.34	42246.67
626.49	42305.18
626.65	41858.14
626.80	42206.88
626.95	41918.99
627.10	41764.52
627.25	41570.25
627.40	41888.57
627.55	42045.38
627.70	42050.06
627.85	41851.12
628.00	41420.46
628.15	41752.82
628.30	41415.78
628.45	41755.16
628.60	41577.28
628.76	41469.61
628.91	42183.48
629.06	42085.17
629.21	41844.10
629.36	41256.62
629.51	41282.37
629.66	41088.10
629.81	41511.74
629.96	41497.70
630.11	41265.99
630.26	41329.18
630.41	41006.19
630.56	41104.49
630.71	41343.22
630.86	41317.48
631.01	41649.83
631.16	41544.51
631.31	41401.74
631.46	41003.85
631.61	41123.21
631.76	41209.81
631.91	41092.79
632.06	40985.12
632.21	40772.13
632.36	40982.78
632.51	40996.82
632.66	41383.01
632.81	40971.08
632.96	41031.93
633.10	41212.15
633.25	40989.80
633.40	41289.39
633.55	40566.16
633.70	40900.86
633.85	40519.35
634.00	40397.65
634.15	40877.46
634.30	40549.78
634.45	40802.56
634.60	40418.71
634.75	40907.88
634.90	40861.07
635.05	40699.58
635.19	40512.33
635.34	40987.46
635.49	40664.47
635.64	40575.53
635.79	40142.53
635.94	40512.33
636.09	40315.73
636.24	40170.61
636.39	40205.72
636.53	40306.37
636.68	40367.22
636.83	39964.65
636.98	40601.27
637.13	40257.21
637.28	40774.47
637.43	40474.88
637.57	40435.10
637.72	40034.86
637.87	40044.23
638.02	40399.99
638.17	39978.69
638.32	39952.94
638.46	39962.31
638.61	39777.40
638.76	39725.91
638.91	39302.28
639.06	39739.96
639.20	40123.80
639.35	40194.02
639.50	39587.82
639.65	40084.01
639.80	39821.87
639.94	39618.25
640.09	39505.90
640.24	39557.39
640.39	39508.24
640.54	39477.82
640.68	39468.45
640.83	39475.48
640.98	39168.87
641.13	39122.05
641.27	39573.78
641.42	38990.98
641.57	39821.87
641.72	39845.28
641.86	39491.86
642.01	39405.26
642.16	38773.31
642.31	38916.09
642.45	39585.48
642.60	38972.26
642.75	38892.68
642.90	39077.58
643.04	39316.32
643.19	39016.73
643.34	39150.14
643.48	39313.98
643.63	38960.56
643.78	39232.06
643.93	39473.13
644.07	39262.49
644.22	38677.35
644.37	38677.35
644.51	38930.13
644.66	39040.14
644.81	38993.32
644.95	38529.90
645.10	38880.98
645.25	38773.31
645.39	38944.17
645.54	39292.91
645.69	39028.43
645.83	39171.21
645.98	39524.63
646.13	38972.26
646.27	38890.34
646.42	38658.63
646.57	38319.25
646.71	38370.74
646.86	38518.20
647.00	38588.41
647.15	38625.86
647.30	38595.43
647.44	38775.66
647.59	38607.14
647.74	38607.14
647.88	38120.31
648.03	38604.80
648.17	38223.29
648.32	38431.60
648.47	38614.16
648.61	38607.14
648.76	38583.73
648.90	38504.15
649.05	38094.56
649.20	38103.92
649.34	37979.87
649.49	37919.02
649.63	38565.01
649.78	38160.09
649.92	38003.28
650.07	38464.36
650.21	37825.40
650.36	38115.62
650.51	38024.34
650.65	38667.99
650.80	38148.39
650.94	38068.81
651.09	38054.77
651.23	38012.64
651.38	37656.88
651.52	37530.49
651.67	38330.95
651.81	37914.34
651.96	37677.94
652.10	37951.79
652.25	38080.52
652.39	38068.81
652.54	38096.90
652.68	38345.00
652.83	38017.32
652.97	37933.06
653.12	37696.67
653.26	37502.40
653.41	37420.48
653.55	37699.01
653.70	37940.08
653.84	37422.83
653.99	37404.10
654.13	37301.12
654.27	37464.96
654.42	37172.39
654.56	36741.73
654.71	37289.42
654.85	37542.19
655.00	37591.34
655.14	37656.88
655.29	36947.70
655.43	37123.24
655.57	37027.28
655.72	37207.50
655.86	36634.06
656.01	36655.13
656.15	36732.37
656.30	37097.49
656.44	36833.01
656.58	37008.55
656.73	36989.83
656.87	37343.25
657.01	37221.54
657.16	37490.70
657.30	36931.31
657.45	37060.04
657.59	37350.27
657.73	36732.37
657.88	37027.28
658.02	36510.02
658.16	36327.45
658.31	36151.91
658.45	36774.50
658.60	35978.72
658.74	36264.26
658.88	36095.74
659.03	36299.37
659.17	36004.46
659.31	36266.60
659.46	36231.49
659.60	36360.22
659.74	36282.98
659.89	36182.34
660.03	36048.93
660.17	36165.96
660.32	36041.91
660.46	35828.92
660.60	36032.55
660.74	35831.26
660.89	35920.20
661.03	35599.55
661.17	35889.77
661.32	36126.17
661.46	35833.60
661.60	35725.94
661.74	35985.74
661.89	35749.34
662.03	35866.37
662.17	35618.27
662.31	35463.80
662.46	35737.64
662.60	35512.95
662.74	35241.45
662.88	35143.14
663.03	35049.52
663.17	35264.85
663.31	34771.00
663.45	34848.24
663.60	35044.84
663.74	34925.47
663.88	34555.67
664.02	34986.33
664.17	34726.53
664.31	34852.92
664.45	34803.77
664.59	34653.97
664.73	34532.26
664.88	35009.73
665.02	34373.11
665.16	34609.50
665.30	34117.99
665.44	34033.73
665.59	33731.80
665.73	34059.48
665.87	34253.74
666.01	34244.38
666.15	34625.89
666.29	34483.11
666.44	34225.65
666.58	33928.41
666.72	34281.83
666.86	34286.51
667.00	34078.20
667.14	34078.20
667.28	33699.03
667.43	33661.58
667.57	33940.11
667.71	33694.35
667.85	33514.13
667.99	33259.01
668.13	33130.28
668.27	33179.43
668.41	33507.11
668.56	33167.73
668.70	33177.09
668.84	33324.55
668.98	33261.35
669.12	33457.96
669.26	33516.47
669.40	33160.71
669.54	32844.74
669.68	32959.42
669.82	32598.98
669.96	32598.98
670.10	32648.13
670.25	32589.62
670.39	32627.07
670.53	32407.06
670.67	32575.58
670.81	32666.86
670.95	32397.70
671.09	32430.46
671.23	32109.81
671.37	32563.87
671.51	32421.10
671.65	32521.74
671.79	32268.97
671.93	32074.70
672.07	32194.07
672.21	31854.69
672.35	32063.00
672.49	31625.32
672.63	31438.08
672.77	31725.96
672.91	31543.40
673.05	31512.97
673.19	31391.26
673.33	31772.77
673.47	31927.25
673.61	31988.10
673.75	31676.81
673.89	31536.38
674.03	31548.08
674.17	31379.56
674.31	31192.32
674.45	31033.16
674.59	30824.86
674.73	30979.33
674.87	30459.73
675.01	30607.19
675.15	30103.97
675.29	30679.74
675.43	30705.49
675.56	30637.61
675.70	30696.13
675.84	30508.88
675.98	29546.92
676.12	30169.51
676.26	30129.72
676.40	29776.30
676.54	29752.89
676.68	29661.61
676.82	29418.19
676.96	29715.44
677.10	29142.01
677.23	29003.92
677.37	29200.52
677.51	29142.01
677.65	29326.91
677.79	28833.06
677.93	28994.56
678.07	28800.29
678.21	29064.77
678.34	29205.20
678.48	28718.37
678.62	28397.72
678.76	28622.41
678.90	28929.02
679.04	27889.82
679.18	28215.16
679.31	28236.22
679.45	27988.13
679.59	28060.68
679.73	27915.57
679.87	27943.66
680.00	27686.20
680.14	27576.19
680.28	27634.71
680.42	27690.88
680.56	27417.04
680.70	27477.89
680.83	27819.61
680.97	27421.72
681.11	27311.71
681.25	27199.37
681.39	27213.41
681.52	26874.03
681.66	26684.45
681.80	26541.68
681.94	26396.56
682.07	26354.43
682.21	26422.31
682.35	26391.88
682.49	26710.19
682.62	26274.85
682.76	26047.82
682.90	26263.15
683.04	25977.61
683.17	25785.68
683.31	26103.99
683.45	25837.17
683.59	25717.81
683.72	25687.38
683.86	25680.36
684.00	25469.71
684.13	25296.51
684.27	25277.79
684.41	25378.43
684.55	25017.99
684.68	25029.69
684.82	24919.68
684.96	24648.18
685.09	24507.75
685.23	24594.35
685.37	24746.48
685.50	24608.39
685.64	24690.31
685.78	24135.60
685.91	24638.82
686.05	24372.00
686.19	24285.40
686.32	24723.08
686.46	23800.91
686.60	23623.03
686.73	23866.44
686.87	23185.35
687.01	23688.56
687.14	23580.90
687.28	23426.42
687.42	23040.23
687.55	23190.03
687.69	23091.73
687.82	23377.27
687.96	23337.48
688.10	23002.78
688.23	23147.90
688.37	23049.60
688.50	22696.17
688.64	22530.00
688.78	22331.05
688.91	22415.31
689.05	22569.79
689.18	22204.66
689.32	21561.02
689.46	21783.37
689.59	21907.41
689.73	22099.34
689.86	21785.71
690.00	22202.32
690.13	21722.51
690.27	21975.29
690.41	22097.00
690.54	21479.10
690.68	21432.29
690.81	21542.29
690.95	21612.51
691.08	21813.79
691.22	21411.22
691.35	21226.32
691.49	21027.37
691.62	21172.49
691.76	20725.44
691.89	21027.37
692.03	20641.18
692.16	20549.90
692.30	20524.16
692.43	20783.96
692.57	20627.14
692.70	20566.29
692.84	20320.53
692.97	20278.40
693.11	20180.10
693.24	19955.41
693.38	20112.22
693.51	19997.54
693.65	19976.47
693.78	19927.32
693.92	19974.13
694.05	19398.36
694.19	19515.39
694.32	19496.66
694.45	19417.08
694.59	18995.79
694.72	19227.50
694.86	19054.30
694.99	19281.33
695.13	18829.61
695.26	18843.65
695.39	18417.68
695.53	19040.26
695.66	18665.77
695.80	18965.36
695.93	18588.53
696.07	18403.63
696.20	18237.45
696.33	18256.18
696.47	18293.63
696.60	18267.88
696.73	18162.56
696.87	17996.38
697.00	17916.80
697.14	17795.09
697.27	17685.09
697.40	17919.14
697.54	17797.43
697.67	17163.15
697.80	17350.39
697.94	17444.01
698.07	17376.14
698.21	16992.29
698.34	17291.88
698.47	17380.82
698.61	16692.70
698.74	17062.51
698.87	17252.09
699.01	16865.90
699.14	16510.14
699.27	16435.24
699.40	16503.12
699.54	16470.35
699.67	16255.02
699.80	16407.16
699.94	16276.09
700.07	16070.12
700.20	16332.26
700.34	16006.92
700.47	15882.88
700.60	15868.83
700.73	16196.51
700.87	15936.71
701.00	15728.40
701.13	15779.89
701.26	15754.15
701.40	15239.23
701.53	15566.90
701.66	15534.14
701.79	15276.68
701.93	15293.06
702.06	15489.67
702.19	14820.27
702.32	15023.90
702.46	15084.75
702.59	14941.98
702.72	15154.97
702.85	15016.88
702.99	14836.66
703.12	14618.99
703.25	14696.22
703.38	14516.00
703.51	14675.16
703.65	14483.24
703.78	14523.02
703.91	14553.45
704.04	14244.50
704.17	14356.85
704.31	14115.77
704.44	14221.10
704.57	13912.14
704.70	14265.57
704.83	14118.11
704.96	13811.50
705.10	13554.04
705.23	13642.98
>>>>>End Processed Spectral Data<<<<<
