SpectraSuite Data File
++++++++++++++++++++++++++++++++++++
Date: Fri Oct 04 11:48:31 GMT-05:00 2013
User: price-jones
Dark Spectrum Present: No
Reference Spectrum Present: No
Number of Sampled Component Spectra: 1
Spectrometers: USB2+H05261
Integration Time (usec): 100000 (USB2+H05261)
Spectra Averaged: 1 (USB2+H05261)
Boxcar Smoothing: 0 (USB2+H05261)
Correct for Electrical Dark: No (USB2+H05261)
Strobe/Lamp Enabled: No (USB2+H05261)
Correct for Detector Non-linearity: No (USB2+H05261)
Correct for Stray Light: No (USB2+H05261)
Number of Pixels in Processed Spectrum: 2048
>>>>>Begin Processed Spectral Data<<<<<
365.73	4.68
365.92	4.68
366.12	4.68
366.32	0.00
366.52	0.00
366.72	0.00
366.91	0.00
367.11	0.00
367.31	0.00
367.51	0.00
367.70	0.00
367.90	0.00
368.10	0.00
368.30	0.00
368.49	0.00
368.69	0.00
368.89	0.00
369.09	0.00
369.28	0.00
369.48	0.00
369.68	0.00
369.87	0.00
370.07	0.00
370.27	0.00
370.47	65.54
370.66	348.74
370.86	374.49
371.06	465.77
371.25	381.51
371.45	381.51
371.65	463.43
371.84	456.40
372.04	491.51
372.24	510.24
372.44	578.11
372.63	514.92
372.83	543.00
373.03	528.96
373.22	514.92
373.42	561.73
373.62	561.73
373.81	631.94
374.01	608.54
374.21	613.22
374.40	596.84
374.60	585.13
374.79	580.45
374.99	528.96
375.19	641.31
375.38	624.92
375.58	653.01
375.78	737.27
375.97	636.63
376.17	690.46
376.37	603.86
376.56	636.63
376.76	634.29
376.95	692.80
377.15	692.80
377.35	800.46
377.54	681.10
377.74	662.37
377.93	716.20
378.13	725.57
378.33	786.42
378.52	695.14
378.72	781.74
378.91	699.82
379.11	695.14
379.31	793.44
379.50	638.97
379.70	758.33
379.89	758.33
380.09	791.10
380.28	744.29
380.48	739.61
380.68	805.14
380.87	791.10
381.07	823.87
381.26	807.48
381.46	802.80
381.65	842.59
381.85	807.48
382.04	840.25
382.24	779.40
382.43	791.10
382.63	816.85
382.83	912.81
383.02	940.90
383.22	929.19
383.41	898.77
383.61	882.38
383.80	985.37
384.00	959.62
384.19	968.98
384.39	912.81
384.58	917.49
384.78	947.92
384.97	950.26
385.17	978.34
385.36	931.53
385.56	954.94
385.75	994.73
385.95	877.70
386.14	1039.20
386.34	929.19
386.53	1027.50
386.72	1008.77
386.92	1022.81
387.11	1121.12
387.31	1046.22
387.50	1090.69
387.70	945.58
387.89	1041.54
388.09	1067.28
388.28	1027.50
388.48	1128.14
388.67	1207.72
388.86	1144.52
389.06	1067.28
389.25	1118.78
389.45	1191.33
389.64	1095.37
389.84	1128.14
390.03	1224.10
390.22	1188.99
390.42	1142.18
390.61	1043.88
390.81	1245.16
391.00	1275.59
391.19	1233.46
391.39	1263.89
391.58	1249.85
391.78	1266.23
391.97	1270.91
392.16	1256.87
392.36	1263.89
392.55	1252.19
392.75	1327.08
392.94	1390.28
393.13	1355.17
393.33	1203.04
393.52	1226.44
393.71	1369.21
393.91	1385.60
394.10	1341.13
394.29	1383.26
394.49	1474.54
394.68	1350.49
394.88	1434.75
395.07	1458.15
395.26	1504.96
395.46	1509.65
395.65	1507.30
395.84	1418.36
396.04	1568.16
396.23	1483.90
396.42	1572.84
396.62	1624.33
396.81	1577.52
397.00	1516.67
397.19	1584.54
397.39	1582.20
397.58	1610.29
397.77	1549.43
397.97	1603.27
398.16	1584.54
398.35	1607.95
398.55	1633.69
398.74	1764.76
398.93	1657.10
399.12	1631.35
399.32	1645.40
399.51	1654.76
399.70	1860.73
399.90	1802.21
400.09	1764.76
400.28	1678.16
400.47	1788.17
400.67	1881.79
400.86	1856.04
401.05	1823.28
401.24	1811.57
401.44	1858.39
401.63	1809.23
401.82	1914.56
402.01	1849.02
402.21	1879.45
402.40	1916.90
402.59	2064.35
402.78	2043.29
402.97	1968.39
403.17	2043.29
403.36	2005.84
403.55	2092.44
403.74	2176.70
403.93	2040.95
404.13	2057.33
404.32	2087.76
404.51	2118.18
404.70	2272.66
404.89	2083.08
405.09	2195.42
405.28	2307.77
405.47	2141.59
405.66	2335.85
405.85	2303.09
406.05	2293.72
406.24	2246.91
406.43	2305.43
406.62	2415.43
406.81	2415.43
407.00	2373.30
407.20	2495.01
407.39	2382.67
407.58	2509.05
407.77	2516.08
407.96	2560.55
408.15	2572.25
408.34	2478.63
408.54	2450.54
408.73	2530.12
408.92	2590.97
409.11	2516.08
409.30	2712.68
409.49	2637.78
409.68	2708.00
409.87	2635.44
410.07	2682.25
410.26	2719.70
410.45	2759.49
410.64	2778.22
410.83	2822.69
411.02	2773.53
411.21	2792.26
411.40	2764.17
411.59	2869.50
411.78	2984.18
411.98	2984.18
412.17	3096.53
412.36	3080.14
412.55	3061.42
412.74	3173.77
412.93	3297.81
413.12	3138.66
413.31	3253.34
413.50	3124.62
413.69	3368.03
413.88	3316.54
414.07	3279.09
414.26	3346.97
414.45	3311.86
414.64	3435.91
414.83	3618.47
415.02	3487.40
415.22	3616.13
415.41	3604.42
415.60	3487.40
415.79	3578.68
415.98	3662.94
416.17	3658.26
416.36	3665.28
416.55	3770.60
416.74	3796.35
416.93	3838.48
417.12	3962.53
417.31	3941.46
417.50	3913.38
417.69	3953.16
417.88	3932.10
418.07	3997.64
418.26	3941.46
418.45	3992.95
418.64	4063.17
418.83	4224.67
419.02	4065.51
419.21	4107.64
419.39	4077.21
419.58	3962.53
419.77	4074.87
419.96	4222.33
420.15	4159.13
420.34	4152.11
420.53	4166.15
420.72	4344.03
420.91	4461.06
421.10	4383.82
421.29	4470.42
421.48	4334.67
421.67	4491.49
421.86	4400.21
422.05	4465.74
422.24	4383.82
422.43	4589.79
422.61	4496.17
422.80	4519.57
422.99	4681.07
423.18	4507.87
423.37	4531.28
423.56	4578.09
423.75	4524.26
423.94	4540.64
424.13	4325.31
424.32	4493.83
424.50	4531.28
424.69	4699.80
424.88	4842.57
425.07	4542.98
425.26	4622.56
425.45	4671.71
425.64	4603.83
425.83	4610.86
426.01	4652.98
426.20	4702.14
426.39	4784.06
426.58	4517.23
426.77	4786.40
426.96	4725.54
427.15	4669.37
427.33	4610.86
427.52	4828.53
427.71	4772.35
427.90	4849.59
428.09	4957.25
428.28	4952.57
428.46	5025.13
428.65	4919.81
428.84	5090.67
429.03	5151.52
429.22	5011.09
429.40	5046.20
429.59	5139.82
429.78	4858.95
429.97	4863.63
430.16	4987.68
430.34	5193.65
430.53	5268.55
430.72	5256.84
430.91	5151.52
431.10	5291.95
431.28	5294.29
431.47	5451.11
431.66	5479.19
431.85	5303.65
432.03	5401.96
432.22	5516.64
432.41	5523.66
432.60	5575.16
432.79	5530.69
432.97	5631.33
433.16	5444.09
433.35	5500.26
433.54	5727.29
433.72	5706.23
433.91	5736.65
434.10	5715.59
434.28	5612.60
434.47	5671.12
434.66	5788.14
434.85	5944.96
435.03	5872.40
435.22	5713.25
435.41	5968.37
435.59	5991.77
435.78	5841.98
435.97	5856.02
436.16	6087.73
436.34	6010.50
436.53	5879.43
436.72	6083.05
436.90	6111.14
437.09	6272.64
437.28	6176.67
437.46	6127.52
437.65	6141.57
437.84	6286.68
438.02	6431.79
438.21	6307.74
438.40	6286.68
438.58	6396.68
438.77	6532.44
438.96	6579.25
439.14	6532.44
439.33	6602.65
439.52	6607.33
439.70	6530.09
439.89	6850.75
440.08	7035.65
440.26	6963.09
440.45	6822.66
440.63	7002.88
440.82	6892.88
441.01	7056.72
441.19	7096.50
441.38	7283.75
441.57	7164.38
441.75	7456.95
441.94	7435.88
442.12	7211.19
442.31	7531.84
442.50	7459.29
442.68	7445.24
442.87	7529.50
443.05	7616.10
443.24	7819.73
443.43	7698.02
443.61	7674.62
443.80	7943.78
443.98	7789.30
444.17	7494.40
444.35	7831.43
444.54	7992.93
444.73	7801.01
444.91	7824.41
445.10	7630.15
445.28	7985.91
445.47	7667.60
445.65	7754.19
445.84	7756.54
446.02	7742.49
446.21	7808.03
446.39	7803.35
446.58	8009.31
446.77	7880.58
446.95	7948.46
447.14	7735.47
447.32	7859.52
447.51	7857.18
447.69	7896.97
447.88	7868.88
448.06	7908.67
448.25	8013.99
448.43	8166.13
448.62	8049.10
448.80	8070.17
448.99	8149.75
449.17	8205.92
449.36	8077.19
449.54	8283.16
449.73	8241.03
449.91	8184.85
450.10	8559.34
450.28	8486.78
450.46	8315.92
450.65	8636.58
450.83	8444.65
451.02	8667.00
451.20	8652.96
451.39	8685.73
451.57	8638.92
451.76	8674.03
451.94	8606.15
452.13	8840.20
452.31	8704.45
452.49	8540.61
452.68	8730.20
452.86	8842.54
453.05	8870.63
453.23	8938.51
453.42	8723.18
453.60	8744.24
453.78	9074.26
453.97	8823.82
454.15	8807.44
454.34	8879.99
454.52	9057.87
454.70	9114.05
454.89	9092.98
455.07	9074.26
455.26	9303.63
455.44	9280.22
455.62	9362.14
455.81	9284.91
455.99	9310.65
456.17	9329.38
456.36	9383.21
456.54	9535.34
456.73	9942.60
456.91	9734.29
457.09	9809.19
457.28	9900.47
457.46	9820.89
457.64	9956.64
457.83	9701.52
458.01	9804.50
458.19	10071.33
458.38	9923.87
458.56	10068.98
458.74	9975.36
458.93	10115.80
459.11	10085.37
459.29	9928.55
459.48	10136.86
459.66	10068.98
459.84	10396.66
460.03	10452.83
460.21	10272.61
460.39	10354.53
460.57	10139.20
460.76	10684.55
460.94	10501.98
461.12	10532.41
461.31	10373.25
461.49	10551.14
461.67	10448.15
461.85	10752.42
462.04	10684.55
462.22	11192.44
462.40	11047.33
462.59	10864.77
462.77	10846.04
462.95	11056.69
463.13	10958.39
463.32	10942.00
463.50	11066.05
463.68	11049.67
463.86	10977.11
464.05	11002.86
464.23	10932.64
464.41	11047.33
464.59	10895.19
464.78	11358.62
464.96	11136.27
465.14	11066.05
465.32	11506.07
465.50	11454.58
465.69	11506.07
465.87	11517.78
466.05	11318.83
466.23	11459.26
466.41	11510.75
466.60	11819.71
466.78	11456.92
466.96	11674.59
467.14	11452.24
467.32	11648.85
467.51	11899.28
467.69	11351.60
467.87	11733.11
468.05	11756.51
468.23	11800.98
468.41	11812.68
468.60	11873.54
468.78	12381.43
468.96	11742.47
469.14	11985.88
469.32	12163.76
469.50	11889.92
469.69	12084.19
469.87	12542.93
470.05	12320.58
470.23	12601.44
470.41	12491.44
470.59	12388.46
470.77	12477.40
470.95	12594.42
471.14	12898.69
471.32	12624.85
471.50	12823.80
471.68	13053.17
471.86	13048.49
472.04	12950.18
472.22	13172.54
472.40	12879.97
472.58	13132.75
472.77	13507.23
472.95	13617.24
473.13	13575.11
473.31	13195.94
473.49	13259.13
473.67	13151.47
473.85	13888.74
474.03	13558.72
474.21	13680.43
474.39	13708.52
474.57	13853.63
474.75	13703.84
474.93	14319.40
475.12	14120.45
475.30	14333.44
475.48	14068.96
475.66	14295.99
475.84	14450.47
476.02	14686.86
476.20	14352.16
476.38	14773.46
476.56	15112.84
476.74	15033.26
476.92	15194.76
477.10	14993.47
477.28	15222.84
477.46	15323.49
477.64	15393.70
477.82	15634.78
478.00	15939.05
478.18	15894.58
478.36	16123.95
478.54	16119.27
478.72	16105.23
478.90	16519.50
479.08	16491.41
479.26	17132.72
479.44	16629.51
479.62	16793.34
479.80	17109.32
479.98	17102.29
480.16	17415.93
480.34	17397.20
480.52	17451.03
480.70	17935.53
480.88	17509.55
481.06	17860.63
481.24	17942.55
481.41	18169.58
481.59	18181.28
481.77	18160.22
481.95	18661.09
482.13	18792.16
482.31	19012.17
482.49	18759.39
482.67	18899.83
482.85	19494.32
483.03	19445.17
483.21	19697.95
483.39	20086.48
483.57	19786.89
483.74	20091.16
483.92	20233.93
484.10	20283.08
484.28	20402.45
484.46	20849.49
484.64	20978.22
484.82	20863.54
485.00	20968.86
485.18	21603.14
485.35	22026.78
485.53	21713.15
485.71	21713.15
485.89	22319.35
486.07	22174.24
486.25	22097.00
486.43	22581.49
486.61	22630.64
486.78	23435.78
486.96	23236.84
487.14	23346.84
487.32	23309.40
487.50	23800.91
487.68	23763.46
487.85	24084.11
488.03	24166.03
488.21	24416.47
488.39	24727.76
488.57	24779.25
488.75	25046.07
488.92	25209.91
489.10	25343.32
489.28	25418.22
489.46	25605.46
489.64	25617.16
489.81	26377.84
489.99	26628.27
490.17	26511.25
490.35	27012.12
490.53	26827.22
490.70	26955.95
490.88	26841.26
491.06	27623.00
491.24	27269.58
491.41	27623.00
491.59	27744.71
491.77	28070.04
491.95	28091.11
492.13	28009.19
492.30	28240.90
492.48	28929.02
492.66	28727.74
492.84	28760.50
493.01	29237.97
493.19	29546.92
493.37	29846.51
493.54	29560.97
493.72	30274.83
493.90	30118.01
494.08	30031.41
494.25	30815.49
494.43	30415.26
494.61	30955.93
494.79	31044.87
494.96	30654.00
495.14	31232.11
495.32	31325.73
495.49	31831.29
495.67	31402.97
495.85	32236.20
496.02	32636.43
496.20	32631.75
496.38	32116.83
496.55	32404.72
496.73	33151.35
496.91	32765.16
497.09	33476.68
497.26	33322.21
497.44	33518.81
497.62	33076.45
497.79	33832.44
497.97	33722.44
498.14	34202.25
498.32	34801.43
498.50	34473.75
498.67	35058.88
498.85	34831.85
499.03	34953.56
499.20	34892.71
499.38	35330.39
499.56	35096.33
499.73	35878.07
499.91	35934.24
500.08	35714.23
500.26	35557.42
500.44	36018.50
500.61	36041.91
500.79	36114.47
500.97	36369.58
501.14	36966.42
501.32	36650.45
501.49	36608.32
501.67	36582.57
501.84	37177.07
502.02	37041.32
502.20	37490.70
502.37	37720.07
502.55	37935.40
502.72	37942.42
502.90	37675.60
503.07	37912.00
503.25	38223.29
503.43	37699.01
503.60	38642.24
503.78	38227.97
503.95	38045.41
504.13	38897.36
504.30	38466.70
504.48	38923.11
504.65	38588.41
504.83	39054.18
505.01	39793.79
505.18	39452.07
505.36	39173.55
505.53	39662.72
505.71	39889.75
505.88	40322.75
506.06	39627.61
506.23	39969.33
506.41	40149.55
506.58	40484.25
506.76	39789.11
506.93	40231.47
507.11	40437.44
507.28	40561.48
507.46	40697.24
507.63	41010.87
507.81	41535.15
507.98	41130.23
508.16	41102.15
508.33	41647.49
508.50	41535.15
508.68	41694.30
508.85	41745.80
509.03	42040.70
509.20	41975.17
509.38	42536.90
509.55	42527.53
509.73	42700.73
509.90	42787.33
510.08	42920.74
510.25	42534.56
510.42	43360.76
510.60	43480.13
510.77	42951.17
510.95	43501.20
511.12	43243.74
511.30	43423.96
511.47	43594.82
511.64	43906.11
511.82	44079.31
511.99	43922.49
512.17	44294.64
512.34	43796.10
512.51	44737.00
512.69	44325.07
512.86	44484.22
513.04	45130.21
513.21	44767.43
513.38	45228.51
513.56	45151.27
513.73	45034.25
513.90	44949.99
514.08	45467.25
514.25	45514.06
514.43	45645.13
514.60	45497.67
514.77	45516.40
514.95	45834.71
515.12	45769.18
515.29	45815.99
515.47	46110.89
515.64	46473.68
515.81	46047.70
515.99	46403.46
516.16	46670.28
516.33	46747.52
516.51	47122.01
516.68	47058.81
516.85	46431.55
517.03	46969.87
517.20	47194.56
517.37	47587.77
517.54	47269.46
517.72	46927.74
517.89	47093.92
518.06	47264.78
518.24	47461.38
518.41	47423.93
518.58	47819.49
518.75	47962.26
518.93	47901.40
519.10	47522.24
519.27	48177.59
519.45	47323.29
519.62	48245.46
519.79	48608.25
519.96	48502.92
520.14	48493.56
520.31	48229.08
520.48	48643.35
520.65	48596.54
520.83	48507.60
521.00	48973.37
521.17	48758.04
521.34	49272.96
521.52	49062.31
521.69	49279.98
521.86	49542.12
522.03	49429.77
522.20	49401.69
522.38	49371.26
522.55	49698.94
522.72	49705.96
522.89	49984.48
523.07	50050.02
523.24	49825.32
523.41	50220.87
523.58	49963.42
523.75	50464.29
523.92	50094.49
524.10	50120.23
524.27	50422.16
524.44	50478.33
524.61	50806.01
524.78	50485.36
524.96	50681.96
525.13	50277.05
525.30	50588.34
525.47	50815.37
525.64	50724.09
525.81	51199.22
525.98	51129.00
526.16	51133.68
526.33	51019.00
526.50	51405.19
526.67	50761.54
526.84	51297.52
527.01	51384.12
527.18	51468.38
527.36	51372.42
527.53	51669.67
527.70	52172.88
527.87	51643.92
528.04	51480.08
528.21	51854.57
528.38	51714.14
528.55	52217.35
528.72	51917.76
528.89	51887.34
529.07	51917.76
529.24	51966.91
529.41	52402.25
529.58	52072.24
529.75	51987.98
529.92	52044.15
530.09	52364.81
530.26	52626.95
530.43	52212.67
530.60	52456.09
530.77	52247.78
530.94	52638.65
531.11	52486.51
531.28	52603.54
531.46	52556.73
531.63	52982.71
531.80	53024.84
531.97	53020.16
532.14	53045.90
532.31	52968.66
532.48	53191.01
532.65	53013.13
532.82	52933.56
532.99	53162.93
533.16	52844.62
533.33	53237.83
533.50	53235.48
533.67	53244.85
533.84	53546.78
534.01	53251.87
534.18	53333.79
534.35	53537.41
534.52	53551.46
534.69	53647.42
534.86	54096.80
535.03	53677.85
535.20	53663.80
535.37	54075.74
535.54	53876.79
535.71	53577.20
535.88	53764.45
536.05	53787.85
536.22	54464.27
536.38	54141.27
536.55	54155.32
536.72	54129.57
536.89	54361.28
537.06	54440.86
537.23	54438.52
537.40	54152.97
537.57	53902.54
537.74	54466.61
537.91	54777.90
538.08	54553.21
538.25	54588.31
538.42	54443.20
538.59	55007.27
538.75	54195.10
538.92	54522.78
539.09	54817.69
539.26	54981.52
539.43	54796.62
539.60	54866.84
539.77	54871.52
539.94	55018.97
540.11	55103.23
540.28	54855.14
540.44	54944.08
540.61	55105.57
540.78	55201.53
540.95	54904.29
541.12	55241.32
541.29	55243.66
541.46	55344.31
541.62	55016.63
541.79	55089.19
541.96	54824.71
542.13	55180.47
542.30	55356.01
542.47	55774.97
542.63	55437.93
542.80	55679.00
542.97	55789.01
543.14	56027.74
543.31	55725.81
543.48	55884.97
543.64	56041.79
543.81	56086.26
543.98	56200.94
544.15	56128.39
544.32	56339.04
544.48	56121.37
544.65	56341.38
544.82	56210.31
544.99	55849.86
545.16	56179.88
545.32	56170.52
545.49	56406.91
545.66	56472.45
545.83	56514.58
546.00	56385.85
546.16	56231.37
546.33	56142.43
546.50	55980.93
546.67	56299.25
546.83	56147.11
547.00	56371.80
547.17	56416.27
547.34	56727.56
547.50	56523.94
547.67	56968.64
547.84	56718.20
548.00	56530.96
548.17	56650.33
548.34	56860.97
548.51	57125.46
548.67	56903.10
548.84	56821.19
549.01	56860.97
549.18	56697.14
549.34	56914.81
549.51	56959.28
549.68	56968.64
549.84	56645.65
550.01	57116.09
550.18	56633.94
550.34	57111.41
550.51	56994.39
550.68	57460.15
550.84	56982.68
551.01	57181.63
551.18	57020.13
551.34	57048.22
551.51	57106.73
551.68	57249.50
551.84	57249.50
552.01	57062.26
552.18	57546.75
552.34	57366.53
552.51	57425.04
552.68	57251.84
552.84	57509.30
553.01	57506.96
553.18	57485.90
553.34	57525.69
553.51	57680.16
553.67	57844.00
553.84	57811.23
554.01	57717.61
554.17	57762.08
554.34	57762.08
554.51	57797.19
554.67	57911.88
554.84	58075.71
555.00	57705.91
555.17	57640.37
555.33	57682.50
555.50	57755.06
555.67	57865.06
555.83	57907.19
556.00	58007.84
556.16	57895.49
556.33	57979.75
556.50	58040.60
556.66	58148.27
556.83	57968.05
556.99	58150.61
557.16	58064.01
557.32	58003.16
557.49	58368.28
557.65	57951.66
557.82	58035.92
557.98	58113.16
558.15	58064.01
558.32	58129.54
558.48	58122.52
558.65	58314.45
558.81	58166.99
558.98	58286.36
559.14	58515.73
559.31	58110.82
559.47	58326.15
559.64	58188.06
559.80	58571.91
559.97	58433.81
560.13	58230.19
560.30	58410.41
560.46	58387.00
560.63	58080.39
560.79	58375.30
560.96	58497.01
561.12	58447.86
561.29	58485.31
561.45	58405.73
561.61	58534.46
561.78	58857.45
561.94	58791.92
562.11	58590.63
562.27	58616.38
562.44	58419.77
562.60	58738.08
562.77	58639.78
562.93	58571.91
563.10	58986.18
563.26	58604.67
563.42	58852.77
563.59	58602.33
563.75	58731.06
563.92	58932.35
564.08	58567.23
564.24	58859.79
564.41	58560.20
564.57	58866.81
564.74	58812.98
564.90	58939.37
565.07	59011.93
565.23	58976.82
565.39	58857.45
565.56	58829.37
565.72	58588.29
565.88	58988.52
566.05	58651.48
566.21	58890.22
566.38	58901.92
566.54	58918.31
566.70	59238.96
566.87	59206.19
567.03	58969.80
567.19	59238.96
567.36	58915.96
567.52	58733.40
567.68	59056.40
567.85	58660.85
568.01	58969.80
568.17	58925.33
568.34	59065.76
568.50	59203.85
568.66	59119.59
568.83	59297.47
568.99	58937.03
569.15	59161.72
569.32	59023.63
569.48	58953.41
569.64	59260.02
569.81	59147.68
569.97	59061.08
570.13	59295.13
570.30	59245.98
570.46	59150.02
570.62	59159.38
570.78	59426.20
570.95	59140.66
571.11	59192.15
571.27	59107.89
571.43	59220.23
571.60	59407.48
571.76	59496.42
571.92	59583.02
572.09	59458.97
572.25	59299.81
572.41	59208.53
572.57	59154.70
572.74	59374.71
572.90	59325.56
573.06	59217.89
573.22	59236.62
573.38	59325.56
573.55	59398.12
573.71	59571.32
573.87	59681.32
574.03	59178.10
574.20	59220.23
574.36	59173.42
574.52	59297.47
574.68	59355.99
574.84	59316.20
575.01	59573.66
575.17	59379.39
575.33	59519.82
575.49	59604.08
575.65	59646.21
575.82	59566.63
575.98	59128.95
576.14	59760.90
576.30	59526.84
576.46	59391.09
576.62	59379.39
576.79	59409.82
576.95	59269.39
577.11	59477.69
577.27	59526.84
577.43	59615.79
577.59	59611.10
577.75	59475.35
577.92	59271.73
578.08	59388.75
578.24	59372.37
578.40	59341.94
578.56	59442.59
578.72	59442.59
578.88	59714.09
579.04	59833.46
579.21	59730.47
579.37	59723.45
579.53	59426.20
579.69	59363.01
579.85	59561.95
580.01	59756.22
580.17	59320.88
580.33	59573.66
580.49	59849.84
580.65	59749.20
580.82	59763.24
580.98	59568.97
581.14	59695.36
581.30	59629.83
581.46	59529.19
581.62	59578.34
581.78	59554.93
581.94	59742.17
582.10	59538.55
582.26	59763.24
582.42	59622.81
582.58	59812.39
582.74	59873.24
582.90	59849.84
583.06	59889.63
583.22	59786.64
583.38	59877.93
583.54	59704.73
583.70	59721.11
583.86	59660.26
584.02	59671.96
584.18	59819.41
584.34	59831.11
584.50	59788.98
584.66	59718.77
584.82	59643.87
584.98	59547.91
585.14	59716.43
585.30	59760.90
585.46	59746.86
585.62	59578.34
585.78	59686.00
585.94	59489.40
586.10	59622.81
586.26	59957.50
586.42	59898.99
586.58	60107.30
586.74	59737.49
586.90	59613.44
587.06	59730.47
587.22	59700.04
587.38	59615.79
587.54	59805.37
587.70	59943.46
587.86	59845.16
588.02	60102.62
588.18	59976.23
588.34	59796.01
588.49	59903.67
588.65	59744.51
588.81	59709.41
588.97	59810.05
589.13	59772.60
589.29	59810.05
589.45	59983.25
589.61	59875.58
589.77	60076.87
589.93	60011.34
590.08	60048.78
590.24	60133.04
590.40	60165.81
590.56	60193.90
590.72	60128.36
590.88	59873.24
591.04	59924.74
591.20	60095.60
591.35	60191.56
591.51	60371.78
591.67	59987.93
591.83	60193.90
591.99	60126.02
592.15	59922.40
592.31	60048.78
592.46	60100.28
592.62	60107.30
592.78	59990.27
592.94	60126.02
593.10	60165.81
593.26	60287.52
593.41	60184.54
593.57	60065.17
593.73	60170.49
593.89	60177.51
594.05	60027.72
594.20	59828.77
594.36	60072.19
594.52	59849.84
594.68	60123.68
594.84	59898.99
594.99	60231.35
595.15	60090.91
595.31	60200.92
595.47	60273.48
595.62	60048.78
595.78	60097.94
595.94	60142.41
596.10	60226.66
596.25	60135.38
596.41	60053.47
596.57	60123.68
596.73	60250.07
596.88	60149.43
597.04	60339.01
597.20	60383.48
597.36	60243.05
597.51	60371.78
597.67	60299.22
597.83	60079.21
597.99	60317.95
598.14	60378.80
598.30	60060.49
598.46	60299.22
598.61	60392.84
598.77	60184.54
598.93	60243.05
599.09	60484.12
599.24	60615.19
599.40	60603.49
599.56	60385.82
599.71	60221.98
599.87	60324.97
600.03	60168.15
600.18	60212.62
600.34	60292.20
600.50	60317.95
600.65	60310.92
600.81	60542.64
600.97	60355.39
601.12	60456.04
601.28	60411.57
601.44	60310.92
601.59	60535.62
601.75	60189.22
601.91	60287.52
602.06	60308.58
602.22	60137.72
602.37	60168.15
602.53	60278.16
602.69	60460.72
602.84	60310.92
603.00	60467.74
603.16	60320.29
603.31	60322.63
603.47	60189.22
603.62	60229.01
603.78	60273.48
603.94	60158.79
604.09	60446.68
604.25	60229.01
604.40	59966.87
604.56	60200.92
604.71	60624.56
604.87	60271.14
605.03	60275.82
605.18	60320.29
605.34	60212.62
605.49	59969.21
605.65	60041.76
605.80	60149.43
605.96	60037.08
606.12	60441.99
606.27	60341.35
606.43	60229.01
606.58	60285.18
606.74	60418.59
606.89	60254.75
607.05	60472.42
607.20	60310.92
607.36	60243.05
607.51	60317.95
607.67	60275.82
607.82	60121.34
607.98	60076.87
608.13	60179.85
608.29	60046.44
608.44	60065.17
608.60	60303.90
608.75	60348.37
608.91	60413.91
609.06	60116.66
609.22	60130.70
609.37	60119.00
609.53	59915.37
609.68	60116.66
609.84	60273.48
609.99	60111.98
610.15	60240.71
610.30	60250.07
610.46	60023.04
610.61	59943.46
610.76	60236.03
610.92	60058.15
611.07	60294.54
611.23	59957.50
611.38	60226.66
611.54	60095.60
611.69	60156.45
611.84	60055.81
612.00	60149.43
612.15	59873.24
612.31	60130.70
612.46	60280.50
612.62	60133.04
612.77	60097.94
612.92	60198.58
613.08	60013.68
613.23	60030.06
613.39	60030.06
613.54	59910.69
613.69	59796.01
613.85	59779.62
614.00	59894.31
614.15	59976.23
614.31	59831.11
614.46	60250.07
614.62	60009.00
614.77	59929.42
614.92	60023.04
615.08	59835.80
615.23	59903.67
615.38	59880.27
615.54	59543.23
615.69	59922.40
615.84	59788.98
616.00	59891.97
616.15	59803.03
616.30	59779.62
616.46	59821.75
616.61	59767.92
616.76	60011.34
616.92	59861.54
617.07	59948.14
617.22	59709.41
617.37	59784.30
617.53	59465.99
617.68	59522.16
617.83	59512.80
617.99	59632.17
618.14	59718.77
618.29	59760.90
618.45	59842.82
618.60	59758.56
618.75	59803.03
618.90	59887.29
619.06	59533.87
619.21	59636.85
619.36	59826.43
619.51	59566.63
619.67	59618.13
619.82	59613.44
619.97	59515.14
620.12	59447.27
620.28	59435.56
620.43	59636.85
620.58	59550.25
620.73	59779.62
620.89	59585.36
621.04	59580.68
621.19	59639.19
621.34	59526.84
621.49	59426.20
621.65	59318.54
621.80	59330.24
621.95	59454.29
622.10	59285.77
622.25	59222.58
622.41	59313.86
622.56	59377.05
622.71	59564.29
622.86	59283.43
623.01	59257.68
623.16	59260.02
623.32	59196.83
623.47	59100.87
623.62	59271.73
623.77	59114.91
623.92	59068.10
624.07	59103.21
624.23	59348.96
624.38	59100.87
624.53	59309.18
624.68	59208.53
624.83	59309.18
624.98	59201.51
625.13	58827.02
625.29	59117.25
625.44	59297.47
625.59	58628.08
625.74	58688.93
625.89	58656.17
626.04	58958.09
626.19	58990.86
626.34	58782.55
626.49	58852.77
626.65	58953.41
626.80	58962.78
626.95	58908.94
627.10	59007.25
627.25	59157.04
627.40	58628.08
627.55	58576.59
627.70	58539.14
627.85	58436.16
628.00	58377.64
628.15	58590.63
628.30	58581.27
628.45	58958.09
628.60	58670.21
628.76	58555.52
628.91	58892.56
629.06	58810.64
629.21	58838.73
629.36	58693.61
629.51	58562.54
629.66	58307.43
629.81	58499.35
629.96	58520.41
630.11	58599.99
630.26	58473.60
630.41	58337.85
630.56	58312.11
630.71	58513.39
630.86	58721.70
631.01	58581.27
631.16	58412.75
631.31	58431.47
631.46	58288.70
631.61	58230.19
631.76	58347.21
631.91	58305.09
632.06	58312.11
632.21	58124.86
632.36	58206.78
632.51	58082.73
632.66	58389.34
632.81	58056.99
632.96	58136.57
633.10	58148.27
633.25	58255.93
633.40	58326.15
633.55	58010.18
633.70	58155.29
633.85	57710.59
634.00	57848.68
634.15	57979.75
634.30	58038.26
634.45	58134.23
634.60	58267.64
634.75	58384.66
634.90	58218.49
635.05	58136.57
635.19	58113.16
635.34	58269.98
635.49	58166.99
635.64	58068.69
635.79	57958.69
635.94	57846.34
636.09	57911.88
636.24	57801.87
636.39	57691.86
636.53	57719.95
636.68	57776.12
636.83	57996.13
636.98	58026.56
637.13	57869.75
637.28	58010.18
637.43	58007.84
637.57	57818.25
637.72	57778.46
637.87	57738.68
638.02	57883.79
638.17	57797.19
638.32	57277.59
638.46	57443.77
638.61	57460.15
638.76	57450.79
638.91	57532.71
639.06	57609.95
639.20	57682.50
639.35	57909.53
639.50	57705.91
639.65	57736.34
639.80	57731.65
639.94	57448.45
640.09	57401.64
640.24	57542.07
640.39	57242.48
640.54	57183.97
640.68	57340.78
640.83	57455.47
640.98	57162.90
641.13	57303.34
641.27	57305.68
641.42	57279.93
641.57	57209.71
641.72	57343.12
641.86	57392.28
642.01	57293.97
642.16	57403.98
642.31	57118.43
642.45	57301.00
642.60	56924.17
642.75	57179.29
642.90	57013.11
643.04	56949.92
643.19	57226.10
643.34	57169.93
643.48	56961.62
643.63	57118.43
643.78	57099.71
643.93	57364.19
644.07	57111.41
644.22	57130.14
644.37	56683.09
644.51	56917.15
644.66	56896.08
644.81	56891.40
644.95	56786.08
645.10	56907.79
645.25	56926.51
645.39	56924.17
645.54	56875.02
645.69	57132.48
645.83	56999.07
645.98	56982.68
646.13	56912.47
646.27	56750.97
646.42	56926.51
646.57	56844.59
646.71	56739.27
646.86	56587.13
647.00	56732.25
647.15	56575.43
647.30	56694.80
647.44	56552.02
647.59	56685.43
647.74	56460.74
647.88	56519.26
648.03	56683.09
648.17	56626.92
648.32	56715.86
648.47	56547.34
648.61	56521.60
648.76	56587.13
648.90	56432.66
649.05	56596.49
649.20	56341.38
649.34	56666.71
649.49	56346.06
649.63	56540.32
649.78	56647.99
649.92	56374.14
650.07	56479.47
650.21	56252.44
650.36	56289.88
650.51	56219.67
650.65	56671.39
650.80	56694.80
650.94	56594.15
651.09	56350.74
651.23	56252.44
651.38	56285.20
651.52	56039.45
651.67	56186.90
651.81	56030.08
651.96	56158.81
652.10	56053.49
652.25	56266.48
652.39	56444.36
652.54	56222.01
652.68	56243.07
652.83	56119.02
652.97	56123.71
653.12	56123.71
653.26	55877.95
653.41	56287.54
653.55	55999.66
653.70	55931.78
653.84	55997.32
653.99	55922.42
654.13	55718.79
654.27	55910.72
654.42	55704.75
654.56	55803.05
654.71	55821.78
654.85	55632.19
655.00	56184.56
655.14	55917.74
655.29	55765.60
655.43	55913.06
655.57	55468.36
655.72	55540.91
655.86	55587.72
656.01	55681.34
656.15	55412.18
656.30	55302.18
656.44	55533.89
656.58	55643.90
656.73	55650.92
656.87	55414.52
657.01	55398.14
657.16	55735.18
657.30	55732.84
657.45	55627.51
657.59	55545.59
657.73	55428.57
657.88	55618.15
658.02	55290.48
658.16	55388.78
658.31	55292.82
658.45	55154.72
658.60	54988.55
658.74	54887.90
658.88	55093.87
659.03	54857.48
659.17	54831.73
659.31	54911.31
659.46	55182.81
659.60	55334.95
659.74	55320.90
659.89	55002.59
660.03	55194.51
660.17	55011.95
660.32	54946.42
660.46	54653.85
660.60	54536.82
660.74	54705.34
660.89	54777.90
661.03	54513.42
661.17	54946.42
661.32	54466.61
661.46	54307.45
661.60	54475.97
661.74	54520.44
661.89	54834.07
662.03	54581.29
662.17	54583.63
662.31	54206.81
662.46	54532.14
662.60	54148.29
662.74	53954.03
662.88	53834.66
663.03	53853.39
663.17	53783.17
663.31	53764.45
663.45	53858.07
663.60	53947.01
663.74	54087.44
663.88	54096.80
664.02	53813.60
664.17	54152.97
664.31	54000.84
664.45	54183.40
664.59	53937.65
664.73	53694.23
664.88	53710.61
665.02	53263.57
665.16	53577.20
665.30	53399.32
665.44	53294.00
665.59	53228.46
665.73	53167.61
665.87	53492.94
666.01	53272.93
666.15	53153.57
666.29	53345.49
666.44	53556.14
666.58	53244.85
666.72	53331.45
666.86	53310.38
667.00	53235.48
667.14	53062.29
667.28	52790.78
667.43	52959.30
667.57	52746.31
667.71	52662.05
667.85	52350.76
667.99	52893.77
668.13	52360.12
668.27	52378.85
668.41	52390.55
668.56	52058.20
668.70	52685.46
668.84	52638.65
668.98	52446.72
669.12	52762.70
669.26	52533.32
669.40	51987.98
669.54	52044.15
669.68	51664.99
669.82	51735.20
669.96	51650.94
670.10	51765.63
670.25	52086.28
670.39	51540.94
670.53	51578.39
670.67	51484.76
670.81	52058.20
670.95	51688.39
671.09	51405.19
671.23	51604.13
671.37	51615.83
671.51	51615.83
671.65	51370.08
671.79	51215.60
671.93	51028.36
672.07	51341.99
672.21	50894.95
672.35	50691.32
672.49	50855.16
672.63	50768.56
672.77	51014.32
672.91	50534.51
673.05	50483.01
673.19	50347.26
673.33	50836.44
673.47	50843.46
673.61	50862.18
673.75	50295.77
673.89	50557.91
674.03	50300.45
674.17	50525.14
674.31	50883.25
674.45	50188.11
674.59	50153.00
674.73	50064.06
674.87	49605.31
675.01	49743.41
675.15	49549.14
675.29	49446.16
675.43	49361.90
675.56	49666.17
675.70	49942.35
675.84	49223.81
675.98	48467.81
676.12	49483.61
676.26	49523.40
676.40	48748.68
676.54	48776.76
676.68	48608.25
676.82	48112.05
676.96	48474.84
677.10	48362.49
677.23	48238.44
677.37	47772.67
677.51	48240.78
677.65	48093.33
677.79	47573.73
677.93	47798.42
678.07	47901.40
678.21	47519.90
678.34	47873.32
678.48	47412.23
678.62	47578.41
678.76	47440.32
678.90	47028.38
679.04	46904.34
679.18	46815.40
679.31	46880.93
679.45	46398.78
679.59	46419.84
679.73	46136.64
679.87	46218.56
680.00	45921.31
680.14	45977.48
680.28	46087.49
680.42	46251.33
680.56	45860.46
680.70	45624.06
680.83	46253.67
680.97	46108.55
681.11	45294.05
681.25	45492.99
681.39	44877.43
681.52	44734.66
681.66	44201.02
681.80	44229.10
681.94	43906.11
682.07	44212.72
682.21	44250.17
682.35	44142.50
682.49	43763.34
682.62	44236.12
682.76	43782.06
682.90	43503.54
683.04	43714.19
683.17	43744.61
683.31	43358.42
683.45	43789.08
683.59	43316.29
683.72	43356.08
683.86	43271.82
684.00	42993.30
684.13	42543.92
684.27	42396.46
684.41	41872.18
684.55	41570.25
684.68	41832.39
684.82	41851.12
684.96	41303.43
685.09	41530.47
685.23	41230.88
685.37	41317.48
685.50	41778.56
685.64	41553.87
685.78	41223.86
685.91	41104.49
686.05	41191.09
686.19	41235.56
686.32	40552.12
686.46	40430.41
686.60	39966.99
686.73	40343.81
686.87	40091.04
687.01	39878.05
687.14	40088.70
687.28	39667.40
687.42	39641.65
687.55	39302.28
687.69	39590.16
687.82	39398.24
687.96	39538.67
688.10	39068.22
688.23	39201.63
688.37	39269.51
688.50	39051.84
688.64	38670.33
688.78	38855.23
688.91	37986.89
689.05	38330.95
689.18	37951.79
689.32	36914.93
689.46	37303.46
689.59	37605.39
689.73	37282.39
689.86	37296.44
690.00	37111.53
690.13	37195.79
690.27	37280.05
690.41	37123.24
690.54	36629.38
690.68	37158.34
690.81	36704.28
690.95	36528.74
691.08	36701.94
691.22	36563.85
691.35	36203.41
691.49	36222.13
691.62	35756.36
691.76	35541.03
691.89	35257.83
692.03	35255.49
692.16	35232.08
692.30	34864.62
692.43	35545.72
692.57	35049.52
692.70	34529.92
692.84	34892.71
692.97	34485.45
693.11	34345.02
693.24	34712.49
693.38	34686.74
693.51	34366.09
693.65	34670.36
693.78	34286.51
693.92	34026.71
694.05	33720.10
694.19	33441.57
694.32	32835.38
694.45	32919.63
694.59	32907.93
694.72	32503.02
694.86	32701.96
694.99	32568.55
695.13	32231.52
695.26	32100.45
695.39	32259.60
695.53	32051.30
695.66	32006.83
695.80	32601.32
695.93	31943.63
696.07	32011.51
696.20	31447.44
696.33	31482.55
696.47	31154.87
696.60	31793.84
696.73	31271.90
696.87	31047.21
697.00	30579.10
697.14	30719.53
697.27	30438.67
697.40	30143.76
697.54	30410.58
697.67	29963.54
697.80	30068.86
697.94	29921.41
698.07	30153.12
698.21	29706.08
698.34	30015.03
698.47	29750.55
698.61	29338.62
698.74	29436.92
698.87	29181.80
699.01	28559.22
699.14	29024.98
699.27	28709.01
699.40	28910.30
699.54	28409.42
699.67	28182.39
699.80	28236.22
699.94	27962.38
700.07	27889.82
700.20	27850.03
700.34	27817.27
700.47	27707.26
700.60	27864.08
700.73	27763.43
700.87	27534.06
701.00	27234.47
701.13	26934.88
701.26	27433.42
701.40	27517.68
701.53	26757.00
701.66	27143.19
701.79	26747.64
701.93	26405.92
702.06	26216.34
702.19	26223.36
702.32	26139.10
702.46	25722.49
702.59	25766.96
702.72	25769.30
702.85	25752.91
702.99	25394.81
703.12	25441.62
703.25	25137.35
703.38	25223.95
703.51	24786.27
703.65	24903.30
703.78	24776.91
703.91	24659.88
704.04	24893.94
704.17	24500.73
704.31	24343.91
704.44	24694.99
704.57	24395.40
704.70	24367.32
704.83	24128.58
704.96	23974.11
705.10	24009.22
705.23	23665.16
>>>>>End Processed Spectral Data<<<<<
