SpectraSuite Data File
++++++++++++++++++++++++++++++++++++
Date: Fri Oct 04 11:48:23 GMT-05:00 2013
User: price-jones
Dark Spectrum Present: No
Reference Spectrum Present: No
Number of Sampled Component Spectra: 1
Spectrometers: USB2+H05261
Integration Time (usec): 100000 (USB2+H05261)
Spectra Averaged: 1 (USB2+H05261)
Boxcar Smoothing: 0 (USB2+H05261)
Correct for Electrical Dark: No (USB2+H05261)
Strobe/Lamp Enabled: No (USB2+H05261)
Correct for Detector Non-linearity: No (USB2+H05261)
Correct for Stray Light: No (USB2+H05261)
Number of Pixels in Processed Spectrum: 2048
>>>>>Begin Processed Spectral Data<<<<<
365.73	0.00
365.92	0.00
366.12	0.00
366.32	0.00
366.52	0.00
366.72	0.00
366.91	0.00
367.11	0.00
367.31	0.00
367.51	0.00
367.70	0.00
367.90	0.00
368.10	0.00
368.30	0.00
368.49	0.00
368.69	0.00
368.89	0.00
369.09	0.00
369.28	9.36
369.48	0.00
369.68	0.00
369.87	0.00
370.07	16.38
370.27	67.88
370.47	166.18
370.66	374.49
370.86	393.21
371.06	512.58
371.25	510.24
371.45	484.49
371.65	514.92
371.84	503.22
372.04	461.09
372.24	514.92
372.44	507.90
372.63	543.00
372.83	547.69
373.03	603.86
373.22	531.30
373.42	547.69
373.62	507.90
373.81	601.52
374.01	561.73
374.21	716.20
374.40	582.79
374.60	594.50
374.79	622.58
374.99	543.00
375.19	561.73
375.38	592.16
375.58	620.24
375.78	704.50
375.97	610.88
376.17	690.46
376.37	634.29
376.56	650.67
376.76	615.56
376.95	657.69
377.15	699.82
377.35	674.07
377.54	739.61
377.74	702.16
377.93	655.35
378.13	671.73
378.33	678.76
378.52	784.08
378.72	681.10
378.91	842.59
379.11	791.10
379.31	730.25
379.50	730.25
379.70	781.74
379.89	755.99
380.09	725.57
380.28	760.67
380.48	791.10
380.68	805.14
380.87	798.12
381.07	781.74
381.26	880.04
381.46	798.12
381.65	802.80
381.85	798.12
382.04	814.51
382.24	847.27
382.43	833.23
382.63	840.25
382.83	875.36
383.02	959.62
383.22	1043.88
383.41	875.36
383.61	861.32
383.80	880.04
384.00	835.57
384.19	943.24
384.39	809.83
384.58	915.15
384.78	901.11
384.97	976.00
385.17	905.79
385.36	947.92
385.56	1055.58
385.75	938.55
385.95	1015.79
386.14	978.34
386.34	922.17
386.53	1020.47
386.72	1004.09
386.92	1130.48
387.11	1050.90
387.31	1032.18
387.50	1008.77
387.70	1053.24
387.89	1107.07
388.09	1048.56
388.28	1069.62
388.48	1076.65
388.67	1102.39
388.86	1086.01
389.06	1062.60
389.25	1006.43
389.45	1130.48
389.64	1114.10
389.84	1090.69
390.03	1116.44
390.22	1144.52
390.42	1256.87
390.61	1219.42
390.81	1214.74
391.00	1205.38
391.19	1282.61
391.39	1261.55
391.58	1294.32
391.78	1284.95
391.97	1259.21
392.16	1261.55
392.36	1362.19
392.55	1259.21
392.75	1268.57
392.94	1352.83
393.13	1306.02
393.33	1235.80
393.52	1427.73
393.71	1301.34
393.91	1313.04
394.10	1263.89
394.29	1411.34
394.49	1401.98
394.68	1385.60
394.88	1364.53
395.07	1418.36
395.26	1406.66
395.46	1390.28
395.65	1409.00
395.84	1432.41
396.04	1610.29
396.23	1540.07
396.42	1591.56
396.62	1514.33
396.81	1568.16
397.00	1629.01
397.19	1614.97
397.39	1607.95
397.58	1633.69
397.77	1610.29
397.97	1617.31
398.16	1504.96
398.35	1682.85
398.55	1617.31
398.74	1629.01
398.93	1732.00
399.12	1692.21
399.32	1708.59
399.51	1699.23
399.70	1703.91
399.90	1743.70
400.09	1781.15
400.28	1774.13
400.47	1923.92
400.67	1769.44
400.86	1823.28
401.05	1963.71
401.24	1912.22
401.44	1905.20
401.63	1902.86
401.82	1881.79
402.01	1947.33
402.21	1952.01
402.40	2033.93
402.59	1949.67
402.78	1947.33
402.97	1996.48
403.17	1982.43
403.36	2111.16
403.55	2108.82
403.74	2052.65
403.93	2083.08
404.13	2167.34
404.32	2150.95
404.51	2071.37
404.70	2115.84
404.89	2125.21
405.09	2223.51
405.28	2214.15
405.47	2349.90
405.66	2406.07
405.85	2417.77
406.05	2314.79
406.24	2293.72
406.43	2349.90
406.62	2352.24
406.81	2476.29
407.00	2373.30
407.20	2338.20
407.39	2380.32
407.58	2382.67
407.77	2490.33
407.96	2485.65
408.15	2562.89
408.34	2509.05
408.54	2649.49
408.73	2633.10
408.92	2546.50
409.11	2558.21
409.30	2607.36
409.49	2663.53
409.68	2665.87
409.87	2661.19
410.07	2785.24
410.26	2771.19
410.45	2750.13
410.64	2782.90
410.83	2825.03
411.02	2939.71
411.21	2972.48
411.40	2846.09
411.59	2984.18
411.78	2998.23
411.98	3061.42
412.17	2991.20
412.36	3075.46
412.55	3129.30
412.74	3136.32
412.93	3157.38
413.12	3166.74
413.31	3396.12
413.50	3180.79
413.69	3356.33
413.88	3234.62
414.07	3295.47
414.26	3410.16
414.45	3339.94
414.64	3370.37
414.83	3419.52
415.02	3456.97
415.22	3611.45
415.41	3641.87
415.60	3616.13
415.79	3456.97
415.98	3597.40
416.17	3733.15
416.36	3868.91
416.55	3730.81
416.74	3616.13
416.93	3784.65
417.12	3878.27
417.31	3847.84
417.50	3875.93
417.69	4053.81
417.88	4046.79
418.07	4100.62
418.26	3976.57
418.45	4149.77
418.64	4315.95
418.83	4156.79
419.02	4100.62
419.21	4217.65
419.39	4198.92
419.58	4140.41
419.77	4180.20
419.96	4259.78
420.15	4306.59
420.34	4292.54
420.53	4241.05
420.72	4290.20
420.91	4409.57
421.10	4386.16
421.29	4435.32
421.48	4456.38
421.67	4545.32
421.86	4521.92
422.05	4397.87
422.24	4526.60
422.43	4503.19
422.61	4566.39
422.80	4517.23
422.99	4641.28
423.18	4793.42
423.37	4559.36
423.56	4615.54
423.75	4620.22
423.94	4498.51
424.13	4271.48
424.32	4393.19
424.50	4631.92
424.69	4835.55
424.88	4706.82
425.07	4704.48
425.26	4592.13
425.45	4702.14
425.64	4727.88
425.83	4582.77
426.01	4777.03
426.20	4751.29
426.39	4851.93
426.58	4664.69
426.77	4915.12
426.96	4858.95
427.15	4833.21
427.33	4798.10
427.52	4868.31
427.71	4887.04
427.90	4826.18
428.09	4952.57
428.28	5041.51
428.46	5020.45
428.65	5046.20
428.84	5184.29
429.03	5179.61
429.22	5085.98
429.40	5231.10
429.59	5212.37
429.78	4919.81
429.97	5020.45
430.16	5167.90
430.34	5376.21
430.53	5263.86
430.72	5441.75
430.91	5282.59
431.10	5207.69
431.28	5313.02
431.47	5439.40
431.66	5563.45
431.85	5397.28
432.03	5430.04
432.22	5701.54
432.41	5523.66
432.60	5603.24
432.79	5537.71
432.97	5593.88
433.16	5617.29
433.35	5633.67
433.54	5717.93
433.72	5689.84
433.91	5764.74
434.10	5736.65
434.28	5762.40
434.47	5921.56
434.66	6001.13
434.85	6043.26
435.03	5951.98
435.22	5989.43
435.41	6073.69
435.59	6094.76
435.78	6005.81
435.97	6043.26
436.16	5966.03
436.34	6218.80
436.53	6066.67
436.72	6303.06
436.90	5879.43
437.09	6228.17
437.28	6012.84
437.46	6160.29
437.65	6272.64
437.84	6211.78
438.02	6459.88
438.21	6359.24
438.40	6373.28
438.58	6525.41
438.77	6457.54
438.96	6647.12
439.14	6700.95
439.33	6665.85
439.52	6862.45
439.70	6761.81
439.89	6920.96
440.08	6855.43
440.26	6923.30
440.45	6988.84
440.63	7049.69
440.82	7185.44
441.01	7049.69
441.19	7279.07
441.38	7265.02
441.57	7377.37
441.75	7197.15
441.94	7330.56
442.12	7419.50
442.31	7559.93
442.50	7623.12
442.68	7676.96
442.87	7566.95
443.05	7744.83
443.24	7819.73
443.43	7669.94
443.61	7840.79
443.80	8035.06
443.98	7520.14
444.17	7487.37
444.35	7957.82
444.54	7964.84
444.73	8044.42
444.91	7791.64
445.10	7864.20
445.28	7864.20
445.47	7803.35
445.65	7939.10
445.84	7861.86
446.02	7957.82
446.21	7775.26
446.39	7950.80
446.58	7878.24
446.77	7981.23
446.95	7889.95
447.14	8109.96
447.32	7999.95
447.51	7992.93
447.69	8077.19
447.88	8093.57
448.06	8170.81
448.25	8067.83
448.43	8400.18
448.62	8140.38
448.80	8156.77
448.99	8226.98
449.17	8262.09
449.36	8269.11
449.54	8463.38
449.73	8287.84
449.91	8638.92
450.10	8475.08
450.28	8781.69
450.46	8341.67
450.65	8486.78
450.83	8594.45
451.02	8681.05
451.20	8720.84
451.39	8627.21
451.57	8461.04
451.76	8568.70
451.94	8634.24
452.13	8856.59
452.31	8954.89
452.49	8667.00
452.68	8678.71
452.86	8578.06
453.05	8936.17
453.23	8987.66
453.42	8966.59
453.60	8912.76
453.78	8973.61
453.97	8901.06
454.15	9001.70
454.34	8835.52
454.52	9167.88
454.70	9128.09
454.89	9362.14
455.07	9193.62
455.26	9217.03
455.44	9418.32
455.62	9305.97
455.81	9462.79
455.99	9294.27
456.17	9736.63
456.36	9394.91
456.54	9764.72
456.73	9603.22
456.91	10015.15
457.09	9781.10
457.28	9764.72
457.46	9764.72
457.64	9954.30
457.83	10150.90
458.01	9802.16
458.19	9848.97
458.38	9886.42
458.56	10211.76
458.74	10216.44
458.93	10122.82
459.11	10214.10
459.29	10176.65
459.48	10223.46
459.66	10523.05
459.84	10237.50
460.03	10331.12
460.21	10452.83
460.39	10452.83
460.57	10424.75
460.76	10558.16
460.94	10509.01
461.12	10455.17
461.31	10539.43
461.49	10469.22
461.67	10438.79
461.85	11150.31
462.04	10946.69
462.22	11360.96
462.40	10892.85
462.59	11012.22
462.77	10747.74
462.95	10944.34
463.13	11075.42
463.32	10958.39
463.50	11250.96
463.68	11063.71
463.86	11208.83
464.05	11047.33
464.23	11304.79
464.41	11295.43
464.59	11016.90
464.78	11351.60
464.96	11417.13
465.14	11232.23
465.32	11424.15
465.50	11442.88
465.69	11449.90
465.87	11480.33
466.05	11337.56
466.23	11353.94
466.41	11651.19
466.60	11885.24
466.78	11517.78
466.96	11419.47
467.14	11550.54
467.32	11761.19
467.51	11960.14
467.69	11391.39
467.87	11784.60
468.05	11836.09
468.23	11726.08
468.41	11950.78
468.60	11833.75
468.78	11988.22
468.96	11857.15
469.14	12365.05
469.32	12088.87
469.50	11967.16
469.69	12215.26
469.87	12245.68
470.05	12524.21
470.23	12271.43
470.41	12699.75
470.59	12643.57
470.77	12582.72
470.95	12678.68
471.14	12702.09
471.32	12549.95
471.50	13029.76
471.68	13036.78
471.86	13076.57
472.04	12994.65
472.22	13284.88
472.40	13048.49
472.58	13256.79
472.77	13310.63
472.95	13547.02
473.13	13764.69
473.31	13291.90
473.49	13399.57
473.67	13614.90
473.85	13570.43
474.03	13799.80
474.21	13734.26
474.39	14120.45
474.57	14087.68
474.75	14370.89
474.93	14190.67
475.12	14253.86
475.30	14368.55
475.48	14338.12
475.66	14373.23
475.84	14569.83
476.02	14698.56
476.20	14611.96
476.38	15047.30
476.56	15124.54
476.74	15037.94
476.92	14960.70
477.10	15178.37
477.28	15609.03
477.46	15459.24
477.64	15662.86
477.82	15613.71
478.00	15988.20
478.18	15995.22
478.36	16013.95
478.54	16341.62
478.72	16327.58
478.90	16327.58
479.08	16610.78
479.26	16978.25
479.44	17095.27
479.62	17270.81
479.80	17326.99
479.98	17310.60
480.16	17652.32
480.34	17446.35
480.52	17582.10
480.70	17802.11
480.88	17748.28
481.06	18129.79
481.24	17862.97
481.41	18527.68
481.59	18366.18
481.77	18576.83
481.95	18719.60
482.13	18792.16
482.31	18897.49
482.49	19253.25
482.67	19332.82
482.85	19559.86
483.03	19709.65
483.21	19761.14
483.39	19875.83
483.57	19922.64
483.74	19985.83
483.92	20437.56
484.10	20250.32
484.28	20919.71
484.46	21184.19
484.64	21345.69
484.82	21067.16
485.00	21523.57
485.18	21642.93
485.35	21792.73
485.53	21979.97
485.71	21977.63
485.89	22602.55
486.07	22434.03
486.25	22387.22
486.43	22530.00
486.61	22869.37
486.78	22871.72
486.96	23400.68
487.14	23653.45
487.32	23339.82
487.50	23461.53
487.68	23894.53
487.85	24023.26
488.03	24662.22
488.21	24709.04
488.39	24959.47
488.57	25078.84
488.75	24730.10
488.92	25638.23
489.10	25495.46
489.28	25385.45
489.46	26024.42
489.64	25944.84
489.81	26366.13
489.99	26338.05
490.17	26462.10
490.35	27101.06
490.53	26948.93
490.70	27232.13
490.88	27491.93
491.06	27513.00
491.24	27330.44
491.41	27538.74
491.59	28163.67
491.77	27782.16
491.95	28559.22
492.13	28514.75
492.30	28547.51
492.48	28648.16
492.66	28781.57
492.84	28849.44
493.01	28849.44
493.19	29905.02
493.37	29619.48
493.54	29956.52
493.72	30377.81
493.90	30368.45
494.08	30581.44
494.25	30513.56
494.43	30572.08
494.61	30904.43
494.79	30909.11
494.96	30518.25
495.14	31328.07
495.32	31590.21
495.49	31527.02
495.67	31800.86
495.85	32266.63
496.02	32250.24
496.20	32231.52
496.38	32664.52
496.55	33146.67
496.73	33223.90
496.91	33067.09
497.09	33455.62
497.26	33677.97
497.44	33488.38
497.62	33778.61
497.79	34160.12
497.97	34206.93
498.14	34536.94
498.32	34607.16
498.50	34675.04
498.67	34813.13
498.85	35264.85
499.03	34696.10
499.20	35112.72
499.38	35168.89
499.56	35519.97
499.73	35555.08
499.91	35992.76
500.08	36100.42
500.26	36156.60
500.44	36100.42
500.61	36444.48
500.79	36215.11
500.97	36797.90
501.14	36851.73
501.32	36781.52
501.49	36669.17
501.67	36921.95
501.84	36985.15
502.02	36968.76
502.20	37216.86
502.37	37809.01
502.55	37752.84
502.72	38029.02
502.90	37799.65
503.07	38068.81
503.25	38061.79
503.43	38094.56
503.60	38890.34
503.78	38780.34
503.95	38616.50
504.13	38443.30
504.30	39026.09
504.48	38995.67
504.65	39470.79
504.83	39782.09
505.01	39501.22
505.18	39218.02
505.36	39995.07
505.53	39711.87
505.71	39810.17
505.88	40371.90
506.06	39976.35
506.23	40493.61
506.41	40102.74
506.58	40381.26
506.76	40741.71
506.93	41017.89
507.11	40772.13
507.28	40474.88
507.46	41118.53
507.63	41151.30
507.81	41872.18
507.98	41069.38
508.16	41003.85
508.33	41689.62
508.50	41448.55
508.68	42005.59
508.85	41867.50
509.03	42342.63
509.20	42436.25
509.38	42595.41
509.55	42838.83
509.73	42941.81
509.90	42593.07
510.08	42827.12
510.25	43131.39
510.42	43030.75
510.60	43742.27
510.77	44006.75
510.95	43784.40
511.12	43040.11
511.30	43856.96
511.47	43934.20
511.64	44013.77
511.82	44329.75
511.99	44371.88
512.17	44137.82
512.34	44259.53
512.51	44484.22
512.69	44481.88
512.86	44964.03
513.04	44971.05
513.21	44931.26
513.38	45137.23
513.56	45263.62
513.73	44795.51
513.90	45336.18
514.08	45460.23
514.25	45558.53
514.43	45890.88
514.60	45724.71
514.77	46103.87
514.95	46000.89
515.12	45406.39
515.29	46141.32
515.47	46199.83
515.64	46185.79
515.81	46059.40
515.99	46459.63
516.16	46857.52
516.33	46698.37
516.51	46890.29
516.68	46450.27
516.85	46499.42
517.03	46941.78
517.20	47269.46
517.37	47269.46
517.54	47564.37
517.72	47283.50
517.89	47587.77
518.06	46824.76
518.24	47459.04
518.41	47515.22
518.58	47735.23
518.75	47880.34
518.93	48142.48
519.10	48098.01
519.27	48367.17
519.45	48156.52
519.62	48336.74
519.79	48133.12
519.96	48334.40
520.14	48505.26
520.31	48526.33
520.48	48966.35
520.65	48725.27
520.83	48846.98
521.00	48755.70
521.17	48968.69
521.34	49001.46
521.52	49066.99
521.69	49357.22
521.86	49689.57
522.03	49499.99
522.20	49801.92
522.38	49778.51
522.55	49539.78
522.72	49801.92
522.89	49687.23
523.07	49921.29
523.24	49577.23
523.41	50031.29
523.58	49626.38
523.75	50426.84
523.92	50302.79
524.10	50117.89
524.27	50642.17
524.44	50712.39
524.61	50740.47
524.78	50616.43
524.96	50424.50
525.13	50431.52
525.30	50780.26
525.47	50775.58
525.64	50923.04
525.81	51306.88
525.98	51049.42
526.16	51112.62
526.33	51119.64
526.50	51468.38
526.67	50953.46
526.84	51110.28
527.01	50974.53
527.18	51253.05
527.36	51519.87
527.53	51817.12
527.70	52158.84
527.87	51952.87
528.04	51920.10
528.21	52009.04
528.38	51564.34
528.55	52388.21
528.72	51885.00
528.89	51735.20
529.07	52205.65
529.24	51847.55
529.41	52357.78
529.58	52289.91
529.75	52184.58
529.92	52238.42
530.09	52439.70
530.26	52301.61
530.43	52727.59
530.60	52296.93
530.77	52526.30
530.94	52907.81
531.11	52493.54
531.28	52584.82
531.46	52638.65
531.63	52741.63
531.80	53043.56
531.97	53003.77
532.14	53059.94
532.31	52800.15
532.48	53034.20
532.65	53116.12
532.82	52767.38
532.99	52956.96
533.16	52947.60
533.33	53345.49
533.50	53771.47
533.67	53652.10
533.84	53366.55
534.01	53354.85
534.18	53261.23
534.35	53698.91
534.52	53670.82
534.69	54078.08
534.86	53771.47
535.03	53602.95
535.20	53874.45
535.37	53993.82
535.54	53757.42
535.71	53546.78
535.88	53645.08
536.05	53776.15
536.22	54094.46
536.38	54365.96
536.55	54122.55
536.72	54209.15
536.89	54202.13
537.06	54024.25
537.23	54255.96
537.40	54152.97
537.57	54188.08
537.74	54466.61
537.91	54864.50
538.08	54536.82
538.25	54213.83
538.42	54284.04
538.59	54670.23
538.75	54176.38
538.92	54759.17
539.09	54815.35
539.26	54974.50
539.43	54693.64
539.60	54782.58
539.77	54813.01
539.94	55068.12
540.11	54721.72
540.28	55096.21
540.44	54710.02
540.61	54836.41
540.78	54986.21
540.95	55157.06
541.12	55159.41
541.29	55136.00
541.46	55250.69
541.62	55065.78
541.79	55278.77
541.96	54892.58
542.13	55440.27
542.30	55451.97
542.47	55297.50
542.63	55625.17
542.80	55400.48
542.97	55695.39
543.14	55648.58
543.31	55536.23
543.48	55646.24
543.64	56154.13
543.81	55753.90
543.98	55943.48
544.15	55980.93
544.32	55952.85
544.48	56200.94
544.65	55952.85
544.82	56175.20
544.99	55966.89
545.16	56140.09
545.32	55852.20
545.49	56390.53
545.66	56296.91
545.83	56324.99
546.00	56472.45
546.16	56374.14
546.33	56250.09
546.50	56172.86
546.67	56200.94
546.83	55992.64
547.00	56420.95
547.17	56369.46
547.34	56339.04
547.50	56631.60
547.67	56743.95
547.84	56697.14
548.00	56917.15
548.17	56891.40
548.34	56816.50
548.51	56839.91
548.67	56673.73
548.84	56912.47
549.01	56788.42
549.18	56879.70
549.34	56882.04
549.51	56809.48
549.68	56816.50
549.84	56697.14
550.01	56947.57
550.18	56743.95
550.34	56704.16
550.51	57041.20
550.68	57219.08
550.84	56868.00
551.01	57111.41
551.18	57137.16
551.34	56842.25
551.51	57092.69
551.68	56994.39
551.84	57158.22
552.01	56996.73
552.18	57270.57
552.34	57165.24
552.51	57167.58
552.68	57296.31
552.84	57036.51
553.01	57406.32
553.18	57399.30
553.34	57373.55
553.51	57354.83
553.67	57303.34
553.84	57741.02
554.01	57513.98
554.17	57598.24
554.34	57537.39
554.51	57415.68
554.67	57844.00
554.84	57677.82
555.00	57668.46
555.17	57705.91
555.33	57893.15
555.50	57602.92
555.67	57680.16
555.83	57628.67
556.00	57659.10
556.16	57785.49
556.33	57778.46
556.50	57834.64
556.66	57916.56
556.83	57844.00
556.99	58281.68
557.16	58237.21
557.32	58178.70
557.49	58089.76
557.65	57778.46
557.82	58122.52
557.98	57731.65
558.15	58342.53
558.32	58220.83
558.48	58000.82
558.65	58159.97
558.81	58131.89
558.98	57972.73
559.14	58181.04
559.31	58127.20
559.47	58529.78
559.64	58260.62
559.80	58155.29
559.97	58468.92
560.13	58080.39
560.30	58457.22
560.46	58258.27
560.63	58293.38
560.79	58309.77
560.96	58515.73
561.12	58312.11
561.29	58440.84
561.45	58464.24
561.61	58475.94
561.78	58375.30
561.94	58548.50
562.11	58515.73
562.27	58457.22
562.44	58513.39
562.60	58188.06
562.77	58501.69
562.93	58583.61
563.10	58642.12
563.26	58539.14
563.42	58953.41
563.59	58529.78
563.75	58543.82
563.92	58693.61
564.08	58501.69
564.24	58710.00
564.41	58513.39
564.57	58475.94
564.74	58518.07
564.90	58848.09
565.07	58777.87
565.23	58890.22
565.39	58761.49
565.56	58915.96
565.72	58705.32
565.88	58824.68
566.05	58525.10
566.21	58349.56
566.38	58906.60
566.54	58883.20
566.70	58906.60
566.87	58988.52
567.03	58843.41
567.19	59044.69
567.36	59000.22
567.52	58728.72
567.68	58951.07
567.85	58658.51
568.01	59002.56
568.17	58869.15
568.34	58878.52
568.50	58965.12
568.66	59025.97
568.83	58993.20
568.99	58798.94
569.15	58976.82
569.32	58801.28
569.48	58918.31
569.64	59023.63
569.81	58775.53
569.97	59159.38
570.13	59084.48
570.30	58955.75
570.46	59199.17
570.62	58939.37
570.78	59098.53
570.95	58958.09
571.11	58801.28
571.27	59025.97
571.43	59065.76
571.60	59114.91
571.76	59016.61
571.92	59117.25
572.09	59065.76
572.25	59126.61
572.41	59274.07
572.57	59133.63
572.74	59128.95
572.90	58822.34
573.06	58869.15
573.22	59070.44
573.38	59220.23
573.55	59210.87
573.71	59416.84
573.87	59348.96
574.03	59014.27
574.20	59201.51
574.36	59119.59
574.52	59168.74
574.68	59049.38
574.84	59370.03
575.01	59341.94
575.17	59269.39
575.33	59138.32
575.49	59189.81
575.65	59290.45
575.82	59377.05
575.98	59201.51
576.14	59526.84
576.30	59391.09
576.46	59175.76
576.62	59213.21
576.79	59084.48
576.95	58948.73
577.11	59238.96
577.27	59227.26
577.43	59470.67
577.59	59360.67
577.75	59370.03
577.92	59194.49
578.08	59117.25
578.24	59236.62
578.40	59208.53
578.56	59119.59
578.72	59306.83
578.88	59604.08
579.04	59512.80
579.21	59320.88
579.37	59281.09
579.53	59681.32
579.69	59152.36
579.85	59341.94
580.01	59489.40
580.17	59192.15
580.33	59145.34
580.49	59444.93
580.65	59512.80
580.82	59454.29
580.98	59278.75
581.14	59412.16
581.30	59426.20
581.46	59320.88
581.62	59295.13
581.78	59341.94
581.94	59283.43
582.10	59327.90
582.26	59480.03
582.42	59648.55
582.58	59531.53
582.74	59358.33
582.90	59508.12
583.06	59515.14
583.22	59194.49
583.38	59355.99
583.54	59494.08
583.70	59419.18
583.86	59367.69
584.02	59405.14
584.18	59503.44
584.34	59494.08
584.50	59667.28
584.66	59332.58
584.82	59484.72
584.98	59573.66
585.14	59274.07
585.30	59077.46
585.46	59578.34
585.62	59299.81
585.78	59608.76
585.94	59393.43
586.10	59463.65
586.26	59365.35
586.42	59772.60
586.58	59597.06
586.74	59641.53
586.90	59325.56
587.06	59379.39
587.22	59388.75
587.38	59730.47
587.54	59646.21
587.70	59662.60
587.86	59643.87
588.02	59849.84
588.18	59788.98
588.34	59709.41
588.49	59674.30
588.65	59608.76
588.81	59351.30
588.97	59585.36
589.13	59618.13
589.29	59606.42
589.45	59515.14
589.61	59594.72
589.77	59669.62
589.93	59650.89
590.08	59756.22
590.24	59803.03
590.40	59796.01
590.56	59796.01
590.72	59763.24
590.88	59583.02
591.04	59613.44
591.20	60076.87
591.35	59880.27
591.51	59971.55
591.67	60111.98
591.83	59805.37
591.99	59833.46
592.15	59629.83
592.31	59868.56
592.46	59840.48
592.62	59568.97
592.78	59756.22
592.94	59838.14
593.10	59896.65
593.26	60135.38
593.41	60030.06
593.57	59791.33
593.73	59709.41
593.89	59980.91
594.05	59819.41
594.20	59774.94
594.36	59870.90
594.52	59728.13
594.68	59976.23
594.84	59519.82
594.99	59854.52
595.15	59856.86
595.31	60158.79
595.47	60058.15
595.62	60212.62
595.78	59913.03
595.94	59620.47
596.10	59875.58
596.25	59840.48
596.41	59690.68
596.57	59739.83
596.73	59906.01
596.88	59884.95
597.04	60088.57
597.20	60111.98
597.36	60079.21
597.51	60203.26
597.67	59957.50
597.83	59760.90
597.99	59856.86
598.14	59828.77
598.30	59700.04
598.46	59707.07
598.61	59964.52
598.77	59873.24
598.93	59927.08
599.09	60030.06
599.24	60395.18
599.40	60156.45
599.56	60081.55
599.71	60018.36
599.87	60137.72
600.03	59969.21
600.18	59990.27
600.34	60009.00
600.50	60128.36
600.65	60147.09
600.81	60261.77
600.97	60271.14
601.12	60243.05
601.28	60140.07
601.44	59859.20
601.59	59901.33
601.75	59849.84
601.91	60053.47
602.06	60039.42
602.22	59964.52
602.37	59966.87
602.53	60004.31
602.69	60151.77
602.84	59936.44
603.00	60104.96
603.16	59906.01
603.31	60048.78
603.47	60027.72
603.62	59990.27
603.78	60009.00
603.94	60032.40
604.09	59906.01
604.25	59934.10
604.40	60034.74
604.56	59913.03
604.71	60119.00
604.87	60142.41
605.03	59980.91
605.18	59927.08
605.34	59800.69
605.49	59861.54
605.65	59803.03
605.80	59753.88
605.96	59880.27
606.12	60025.38
606.27	59973.89
606.43	59767.92
606.58	60128.36
606.74	60018.36
606.89	59966.87
607.05	59934.10
607.20	59894.31
607.36	59973.89
607.51	59854.52
607.67	59866.22
607.82	59781.96
607.98	59835.80
608.13	59817.07
608.29	60074.53
608.44	59910.69
608.60	59920.05
608.75	59976.23
608.91	59952.82
609.06	59756.22
609.22	59875.58
609.37	59840.48
609.53	59749.20
609.68	59781.96
609.84	59868.56
609.99	59931.76
610.15	59812.39
610.30	59788.98
610.46	59608.76
610.61	59931.76
610.76	59817.07
610.92	59898.99
611.07	60016.02
611.23	59786.64
611.38	59812.39
611.54	59723.45
611.69	59791.33
611.84	59601.74
612.00	59781.96
612.15	59559.61
612.31	59868.56
612.46	59606.42
612.62	59597.06
612.77	59676.64
612.92	59826.43
613.08	59693.02
613.23	59650.89
613.39	59550.25
613.54	59482.37
613.69	59405.14
613.85	59540.89
614.00	59611.10
614.15	59728.13
614.31	59578.34
614.46	59833.46
614.62	59517.48
614.77	59693.02
614.92	59592.38
615.08	59400.46
615.23	59337.26
615.38	59512.80
615.54	59210.87
615.69	59269.39
615.84	59421.52
616.00	59388.75
616.15	59491.74
616.30	59625.15
616.46	59423.86
616.61	59554.93
616.76	59643.87
616.92	59496.42
617.07	59510.46
617.22	59370.03
617.37	59405.14
617.53	59360.67
617.68	59386.41
617.83	59061.08
617.99	59264.70
618.14	59222.58
618.29	59311.52
618.45	59451.95
618.60	59327.90
618.75	59309.18
618.90	59257.68
619.06	59398.12
619.21	58932.35
619.36	59545.57
619.51	59084.48
619.67	59000.22
619.82	59075.12
619.97	59299.81
620.12	58759.15
620.28	58983.84
620.43	59091.51
620.58	59173.42
620.73	59377.05
620.89	59281.09
621.04	59105.55
621.19	59255.34
621.34	59049.38
621.49	58986.18
621.65	58801.28
621.80	59166.40
621.95	58899.58
622.10	59187.47
622.25	59063.42
622.41	58951.07
622.56	59035.33
622.71	59061.08
622.86	58815.32
623.01	58836.39
623.16	58904.26
623.32	58850.43
623.47	58688.93
623.62	58688.93
623.77	58834.05
623.92	58782.55
624.07	58635.10
624.23	58693.61
624.38	58667.87
624.53	58726.38
624.68	58789.58
624.83	58724.04
624.98	58738.08
625.13	58695.95
625.29	58922.99
625.44	58653.82
625.59	58515.73
625.74	58518.07
625.89	58391.68
626.04	58412.75
626.19	58319.13
626.34	58571.91
626.49	58487.65
626.65	58232.53
626.80	58691.27
626.95	58499.35
627.10	58408.07
627.25	58295.72
627.40	58398.71
627.55	58478.28
627.70	58328.49
627.85	58499.35
628.00	58277.00
628.15	58368.28
628.30	58131.89
628.45	58555.52
628.60	58124.86
628.76	58244.23
628.91	58492.33
629.06	58251.25
629.21	58520.41
629.36	58342.53
629.51	58223.17
629.66	58103.80
629.81	58080.39
629.96	58129.54
630.11	58085.07
630.26	58089.76
630.41	58220.83
630.56	57949.32
630.71	58365.94
630.86	58178.70
631.01	58169.33
631.16	58040.60
631.31	58024.22
631.46	57811.23
631.61	58000.82
631.76	57834.64
631.91	57932.94
632.06	57867.40
632.21	57638.03
632.36	57778.46
632.51	57785.49
632.66	57811.23
632.81	57478.88
632.96	57846.34
633.10	57771.44
633.25	57897.83
633.40	57635.69
633.55	57733.99
633.70	57762.08
633.85	57773.78
634.00	57502.28
634.15	57471.85
634.30	57516.32
634.45	57717.61
634.60	57759.74
634.75	57808.89
634.90	57808.89
635.05	57815.91
635.19	57719.95
635.34	57689.52
635.49	57523.35
635.64	57530.37
635.79	57446.11
635.94	57518.67
636.09	57434.41
636.24	57319.72
636.39	57270.57
636.53	57315.04
636.68	57418.02
636.83	57401.64
636.98	57581.86
637.13	57460.15
637.28	57471.85
637.43	57478.88
637.57	57633.35
637.72	57385.25
637.87	57286.95
638.02	57361.85
638.17	57511.64
638.32	57132.48
638.46	57214.40
638.61	57235.46
638.76	57036.51
638.91	57148.86
639.06	57336.10
639.20	57301.00
639.35	57186.31
639.50	57148.86
639.65	57336.10
639.80	57401.64
639.94	57066.94
640.09	57226.10
640.24	56968.64
640.39	57134.82
640.54	56978.00
640.68	56933.53
640.83	57048.22
640.98	56975.66
641.13	56725.22
641.27	57130.14
641.42	56725.22
641.57	57055.24
641.72	56865.66
641.86	56961.62
642.01	56633.94
642.16	56587.13
642.31	56545.00
642.45	56692.46
642.60	56601.18
642.75	56694.80
642.90	56659.69
643.04	56750.97
643.19	56664.37
643.34	56732.25
643.48	56669.05
643.63	56757.99
643.78	56699.48
643.93	56718.20
644.07	56589.47
644.22	56605.86
644.37	56556.70
644.51	56584.79
644.66	56849.27
644.81	56516.92
644.95	56519.26
645.10	56545.00
645.25	56528.62
645.39	56399.89
645.54	56446.70
645.69	56573.09
645.83	56622.24
645.98	56547.34
646.13	56612.88
646.27	56612.88
646.42	56355.42
646.57	56313.29
646.71	56198.60
646.86	56303.93
647.00	56207.97
647.15	56222.01
647.30	56114.34
647.44	56231.37
647.59	56247.75
647.74	56233.71
647.88	56119.02
648.03	56231.37
648.17	56182.22
648.32	56142.43
648.47	56247.75
648.61	56214.99
648.76	56151.79
648.90	56144.77
649.05	56065.19
649.20	56046.47
649.34	56044.13
649.49	55910.72
649.63	55877.95
649.78	56097.96
649.92	56048.81
650.07	56191.58
650.21	55735.18
650.36	56198.60
650.51	56114.34
650.65	56013.70
650.80	55814.76
650.94	55840.50
651.09	55737.52
651.23	55388.78
651.38	55599.43
651.52	55510.49
651.67	55751.56
651.81	55473.04
651.96	55585.38
652.10	56058.17
652.25	55906.04
652.39	55700.07
652.54	56016.04
652.68	55936.46
652.83	55812.41
652.97	55999.66
653.12	55304.52
653.26	55629.85
653.41	55559.64
653.55	55655.60
653.70	55437.93
653.84	55243.66
653.99	55620.49
654.13	55302.18
654.27	55536.23
654.42	55641.56
654.56	55341.97
654.71	55241.32
654.85	55224.94
655.00	55543.25
655.14	55337.29
655.29	55185.15
655.43	55180.47
655.57	55131.32
655.72	54915.99
655.86	55196.85
656.01	54770.88
656.15	54953.44
656.30	54948.76
656.44	55035.36
656.58	54953.44
656.73	54906.63
656.87	54827.05
657.01	55271.75
657.16	55093.87
657.30	55159.41
657.45	55100.89
657.59	55091.53
657.73	54908.97
657.88	54937.05
658.02	54688.96
658.16	54677.25
658.31	54522.78
658.45	54827.05
658.60	54490.01
658.74	54688.96
658.88	54686.62
659.03	54426.82
659.17	54267.66
659.31	54578.95
659.46	54782.58
659.60	54635.13
659.74	54726.41
659.89	54431.50
660.03	54408.09
660.17	54506.40
660.32	54216.17
660.46	54106.16
660.60	54232.55
660.74	54380.01
660.89	54150.63
661.03	54092.12
661.17	54113.19
661.32	54117.87
661.46	54078.08
661.60	54169.36
661.74	53986.80
661.89	53949.35
662.03	54281.70
662.17	53902.54
662.31	53965.73
662.46	54101.48
662.60	53858.07
662.74	53738.70
662.88	53577.20
663.03	53528.05
663.17	53607.63
663.31	53443.79
663.45	53687.21
663.60	53755.08
663.74	53310.38
663.88	53853.39
664.02	53380.60
664.17	53563.16
664.31	53448.47
664.45	53464.86
664.59	53483.58
664.73	52975.69
664.88	53265.91
665.02	52846.96
665.16	52882.06
665.30	53088.03
665.44	53167.61
665.59	52767.38
665.73	53368.90
665.87	52982.71
666.01	52987.39
666.15	52781.42
666.29	52837.59
666.44	53041.22
666.58	52430.34
666.72	52765.04
666.86	53062.29
667.00	52648.01
667.14	52629.29
667.28	52633.97
667.43	52278.21
667.57	52556.73
667.71	52287.57
667.85	52069.90
667.99	52055.85
668.13	52341.40
668.27	52081.60
668.41	51840.53
668.56	52025.43
668.70	52027.77
668.84	52065.22
668.98	51793.71
669.12	51980.96
669.26	51709.46
669.40	51683.71
669.54	51290.50
669.68	51229.65
669.82	51503.49
669.96	51508.17
670.10	51442.63
670.25	51363.06
670.39	51473.06
670.53	51461.36
670.67	51327.95
670.81	51051.76
670.95	51358.38
671.09	51136.02
671.23	51077.51
671.37	51601.79
671.51	51597.11
671.65	50850.48
671.79	50490.04
671.93	50953.46
672.07	50616.43
672.21	50621.11
672.35	50436.20
672.49	50080.44
672.63	50274.71
672.77	49872.14
672.91	50742.81
673.05	50150.66
673.19	50370.67
673.33	50192.79
673.47	50295.77
673.61	50232.58
673.75	49918.95
673.89	49698.94
674.03	49916.61
674.17	49743.41
674.31	49406.37
674.45	49375.94
674.59	49956.39
674.73	49511.69
674.87	48964.01
675.01	49003.80
675.15	49265.94
675.29	49425.09
675.43	49165.29
675.56	48849.32
675.70	48844.64
675.84	48891.45
675.98	48175.25
676.12	48956.99
676.26	48318.02
676.40	48488.88
676.54	48289.93
676.68	48200.99
676.82	47353.72
676.96	47526.92
677.10	47690.76
677.23	47627.56
677.37	47756.29
677.51	47641.60
677.65	47065.83
677.79	47065.83
677.93	47105.62
678.07	47187.54
678.21	46740.50
678.34	47070.51
678.48	46843.48
678.62	46941.78
678.76	46752.20
678.90	46457.29
679.04	46663.26
679.18	46686.67
679.31	45251.92
679.45	45333.84
679.59	45624.06
679.73	45507.04
679.87	45460.23
680.00	45317.45
680.14	45759.81
680.28	45015.52
680.42	44837.64
680.56	45020.20
680.70	45347.88
680.83	44741.68
680.97	45167.66
681.11	45102.12
681.25	44832.96
681.39	44414.01
681.52	44006.75
681.66	43735.25
681.80	44163.57
681.94	43421.62
682.07	43377.15
682.21	43119.69
682.35	43515.24
682.49	43267.14
682.62	43098.62
682.76	43236.72
682.90	42995.64
683.04	42988.62
683.17	43143.09
683.31	42911.38
683.45	43084.58
683.59	42536.90
683.72	42466.68
683.86	42504.13
684.00	42192.84
684.13	42443.27
684.27	41640.47
684.41	41787.92
684.55	40968.74
684.68	40999.16
684.82	40959.38
684.96	41151.30
685.09	40891.50
685.23	41385.35
685.37	41111.51
685.50	40912.56
685.64	40364.88
685.78	40790.86
685.91	40931.29
686.05	40444.46
686.19	40084.01
686.32	40123.80
686.46	39679.10
686.60	39597.18
686.73	39089.29
686.87	39337.38
687.01	39201.63
687.14	39515.26
687.28	39206.31
687.42	38986.30
687.55	39042.48
687.69	38803.74
687.82	39152.48
687.96	39115.03
688.10	39117.37
688.23	38724.16
688.37	38099.24
688.50	38000.94
688.64	38022.00
688.78	38014.98
688.91	38036.05
689.05	37790.29
689.18	37464.96
689.32	37022.59
689.46	37280.05
689.59	36643.43
689.73	37027.28
689.86	37111.53
690.00	36486.61
690.13	36378.95
690.27	36287.67
690.41	36631.72
690.54	36067.66
690.68	36472.57
690.81	36638.75
690.95	35892.12
691.08	35732.96
691.22	35992.76
691.35	35309.32
691.49	35637.00
691.62	35548.06
691.76	34843.56
691.89	34693.76
692.03	34649.29
692.16	34345.02
692.30	34211.61
692.43	34340.34
692.57	34323.96
692.70	34284.17
692.84	33734.14
692.97	34087.56
693.11	33897.98
693.24	33823.08
693.38	33921.38
693.51	33476.68
693.65	33867.55
693.78	33511.79
693.92	33460.30
694.05	33209.86
694.19	32683.24
694.32	32442.17
694.45	32400.04
694.59	32322.80
694.72	32325.14
694.86	32060.66
694.99	31740.00
695.13	31487.23
695.26	31519.99
695.39	31688.51
695.53	31639.36
695.66	31503.61
695.80	31852.35
695.93	31938.95
696.07	31250.83
696.20	31227.43
696.33	30955.93
696.47	30855.28
696.60	30841.24
696.73	30349.73
696.87	30689.10
697.00	30553.35
697.14	30143.76
697.27	30155.46
697.40	29771.61
697.54	29647.57
697.67	29282.44
697.80	29607.78
697.94	29184.14
698.07	29249.67
698.21	29172.44
698.34	29144.35
698.47	29153.71
698.61	28989.88
698.74	28652.84
698.87	28510.07
699.01	28421.13
699.14	28350.91
699.27	28498.36
699.40	28339.21
699.54	28156.64
699.67	27840.67
699.80	27864.08
699.94	27456.82
700.07	27021.48
700.20	27171.28
700.34	27197.02
700.47	27042.55
700.60	26984.04
700.73	27077.66
700.87	27175.96
701.00	26815.52
701.13	26525.29
701.26	26761.69
701.40	26969.99
701.53	26157.83
701.66	26813.18
701.79	25895.69
701.93	26244.43
702.06	25619.50
702.19	25195.87
702.32	25617.16
702.46	25429.92
702.59	25387.79
702.72	25245.02
702.85	25322.26
702.99	25378.43
703.12	24989.90
703.25	24737.12
703.38	24851.81
703.51	24428.17
703.65	24489.03
703.78	24587.33
703.91	24411.79
704.04	24830.74
704.17	24210.50
704.31	24217.52
704.44	23789.20
704.57	23770.48
704.70	23637.07
704.83	23625.37
704.96	23283.65
705.10	23503.66
705.23	23206.41
>>>>>End Processed Spectral Data<<<<<
