SpectraSuite Data File
++++++++++++++++++++++++++++++++++++
Date: Fri Oct 04 11:48:43 GMT-05:00 2013
User: price-jones
Dark Spectrum Present: No
Reference Spectrum Present: No
Number of Sampled Component Spectra: 1
Spectrometers: USB2+H05261
Integration Time (usec): 100000 (USB2+H05261)
Spectra Averaged: 1 (USB2+H05261)
Boxcar Smoothing: 0 (USB2+H05261)
Correct for Electrical Dark: No (USB2+H05261)
Strobe/Lamp Enabled: No (USB2+H05261)
Correct for Detector Non-linearity: No (USB2+H05261)
Correct for Stray Light: No (USB2+H05261)
Number of Pixels in Processed Spectrum: 2048
>>>>>Begin Processed Spectral Data<<<<<
365.73	105.32
365.92	105.32
366.12	105.32
366.32	0.00
366.52	0.00
366.72	0.00
366.91	0.00
367.11	0.00
367.31	0.00
367.51	0.00
367.70	0.00
367.90	0.00
368.10	0.00
368.30	0.00
368.49	0.00
368.69	0.00
368.89	0.00
369.09	0.00
369.28	0.00
369.48	0.00
369.68	0.00
369.87	16.38
370.07	0.00
370.27	0.00
370.47	74.90
370.66	308.95
370.86	273.84
371.06	304.27
371.25	280.86
371.45	229.37
371.65	339.38
371.84	308.95
372.04	290.23
372.24	297.25
372.44	266.82
372.63	372.15
372.83	355.76
373.03	346.40
373.22	301.93
373.42	341.72
373.62	346.40
373.81	325.33
374.01	386.19
374.21	423.64
374.40	400.23
374.60	440.02
374.79	409.59
374.99	341.72
375.19	411.93
375.38	393.21
375.58	320.65
375.78	435.34
375.97	425.98
376.17	465.77
376.37	421.30
376.56	411.93
376.76	400.23
376.95	369.80
377.15	344.06
377.35	351.08
377.54	383.85
377.74	379.17
377.93	362.78
378.13	491.51
378.33	407.25
378.52	337.04
378.72	400.23
378.91	449.38
379.11	383.85
379.31	472.79
379.50	463.43
379.70	456.40
379.89	454.06
380.09	407.25
380.28	454.06
380.48	470.45
380.68	461.09
380.87	498.53
381.07	512.58
381.26	498.53
381.46	444.70
381.65	491.51
381.85	486.83
382.04	402.57
382.24	486.83
382.43	580.45
382.63	472.79
382.83	472.79
383.02	519.60
383.22	461.09
383.41	496.19
383.61	538.32
383.80	545.34
384.00	512.58
384.19	535.98
384.39	540.66
384.58	533.64
384.78	575.77
384.97	521.94
385.17	587.47
385.36	510.24
385.56	589.82
385.75	505.56
385.95	592.16
386.14	580.45
386.34	568.75
386.53	575.77
386.72	540.66
386.92	613.22
387.11	641.31
387.31	648.33
387.50	561.73
387.70	554.71
387.89	624.92
388.09	657.69
388.28	610.88
388.48	599.18
388.67	662.37
388.86	692.80
389.06	622.58
389.25	664.71
389.45	587.47
389.64	709.18
389.84	709.18
390.03	667.05
390.22	596.84
390.42	718.54
390.61	683.44
390.81	627.26
391.00	660.03
391.19	725.57
391.39	781.74
391.58	685.78
391.78	676.41
391.97	777.06
392.16	730.25
392.36	837.91
392.55	823.87
392.75	753.65
392.94	643.65
393.13	753.65
393.33	734.93
393.52	821.53
393.71	758.33
393.91	851.96
394.10	807.48
394.29	847.27
394.49	807.48
394.68	748.97
394.88	929.19
395.07	767.70
395.26	898.77
395.46	767.70
395.65	870.68
395.84	924.51
396.04	875.36
396.23	905.79
396.42	870.68
396.62	908.13
396.81	912.81
397.00	954.94
397.19	905.79
397.39	842.59
397.58	978.34
397.77	945.58
397.97	1001.75
398.16	994.73
398.35	954.94
398.55	985.37
398.74	945.58
398.93	931.53
399.12	933.87
399.32	1015.79
399.51	1039.20
399.70	1078.99
399.90	997.07
400.09	1109.41
400.28	1057.92
400.47	1146.86
400.67	1205.38
400.86	1125.80
401.05	1114.10
401.24	1233.46
401.44	1247.51
401.63	1163.25
401.82	1118.78
402.01	1165.59
402.21	1139.84
402.40	1266.23
402.59	1198.35
402.78	1214.74
402.97	1200.69
403.17	1266.23
403.36	1385.60
403.55	1266.23
403.74	1362.19
403.93	1313.04
404.13	1277.93
404.32	1411.34
404.51	1327.08
404.70	1380.92
404.89	1373.89
405.09	1383.26
405.28	1441.77
405.47	1371.55
405.66	1465.18
405.85	1509.65
406.05	1434.75
406.24	1462.83
406.43	1460.49
406.62	1558.80
406.81	1495.60
407.00	1551.78
407.20	1519.01
407.39	1502.62
407.58	1568.16
407.77	1526.03
407.96	1668.80
408.15	1647.74
408.34	1689.87
408.54	1631.35
408.73	1673.48
408.92	1699.23
409.11	1713.27
409.30	1746.04
409.49	1748.38
409.68	1792.85
409.87	1771.79
410.07	1879.45
410.26	1947.33
410.45	1785.83
410.64	1874.77
410.83	1865.41
411.02	1860.73
411.21	2012.86
411.40	1952.01
411.59	2015.20
411.78	2026.90
411.98	2134.57
412.17	2111.16
412.36	2012.86
412.55	2083.08
412.74	2087.76
412.93	2197.76
413.12	2085.42
413.31	2258.62
413.50	2162.66
413.69	2385.01
413.88	2296.07
414.07	2293.72
414.26	2487.99
414.45	2326.49
414.64	2340.54
414.83	2377.98
415.02	2420.11
415.22	2305.43
415.41	2473.95
415.60	2471.61
415.79	2649.49
415.98	2483.31
416.17	2644.81
416.36	2647.15
416.55	2747.79
416.74	2609.70
416.93	2534.80
417.12	2747.79
417.31	2672.89
417.50	2738.43
417.69	2775.88
417.88	2888.22
418.07	2733.75
418.26	2799.28
418.45	2918.65
418.64	2869.50
418.83	2913.97
419.02	2930.35
419.21	2895.24
419.39	2937.37
419.58	2892.90
419.77	2995.89
419.96	2986.52
420.15	2988.86
420.34	3045.04
420.53	3012.27
420.72	3009.93
420.91	3035.67
421.10	3183.13
421.29	3255.69
421.48	3040.36
421.67	3227.60
421.86	3080.14
422.05	3103.55
422.24	3199.51
422.43	3075.46
422.61	3260.37
422.80	3239.30
422.99	3363.35
423.18	3136.32
423.37	3262.71
423.56	3194.83
423.75	3251.00
423.94	3152.70
424.13	3028.65
424.32	3056.74
424.50	3377.39
424.69	3379.73
424.88	3459.31
425.07	3222.92
425.26	3346.97
425.45	3309.52
425.64	3335.26
425.83	3293.13
426.01	3382.07
426.20	3288.45
426.39	3321.22
426.58	3311.86
426.77	3356.33
426.96	3382.07
427.15	3447.61
427.33	3452.29
427.52	3438.25
427.71	3445.27
427.90	3576.34
428.09	3515.48
428.28	3494.42
428.46	3452.29
428.65	3583.36
428.84	3712.09
429.03	3637.19
429.22	3531.87
429.40	3669.96
429.59	3597.40
429.78	3506.12
429.97	3442.93
430.16	3492.08
430.34	3688.68
430.53	3726.13
430.72	3712.09
430.91	3749.54
431.10	3705.07
431.28	3831.46
431.47	3889.97
431.66	3988.27
431.85	3775.28
432.03	4042.11
432.22	3990.61
432.41	3878.27
432.60	3859.54
432.79	3861.88
432.97	4051.47
433.16	3985.93
433.35	3978.91
433.54	3913.38
433.72	3990.61
433.91	4131.05
434.10	4105.30
434.28	4105.30
434.47	3962.53
434.66	4063.17
434.85	4234.03
435.03	4175.52
435.22	4196.58
435.41	4374.46
435.59	4170.83
435.78	4322.97
435.97	4269.14
436.16	4262.12
436.34	4147.43
436.53	4390.84
436.72	4332.33
436.90	4238.71
437.09	4311.27
437.28	4383.82
437.46	4348.72
437.65	4395.53
437.84	4514.89
438.02	4507.87
438.21	4514.89
438.40	4454.04
438.58	4702.14
438.77	4631.92
438.96	4648.30
439.14	4697.46
439.33	4809.80
439.52	4800.44
439.70	4873.00
439.89	4856.61
440.08	4990.02
440.26	5071.94
440.45	4826.18
440.63	4915.12
440.82	5015.77
441.01	5102.37
441.19	5139.82
441.38	5029.81
441.57	5210.03
441.75	5270.89
441.94	5259.18
442.12	5224.08
442.31	5460.47
442.50	5294.29
442.68	5298.97
442.87	5427.70
443.05	5406.64
443.24	5591.54
443.43	5348.12
443.61	5369.19
443.80	5500.26
443.98	5596.22
444.17	5296.63
444.35	5533.03
444.54	5575.16
444.73	5511.96
444.91	5502.60
445.10	5547.07
445.28	5591.54
445.47	5404.30
445.65	5497.92
445.84	5640.69
446.02	5701.54
446.21	5570.48
446.39	5631.33
446.58	5579.84
446.77	5666.44
446.95	5483.88
447.14	5511.96
447.32	5636.01
447.51	5657.07
447.69	5577.50
447.88	5607.92
448.06	5731.97
448.25	5617.29
448.43	5832.62
448.62	5816.23
448.80	5783.46
448.99	5837.30
449.17	5802.19
449.36	5589.20
449.54	6059.65
449.73	6052.63
449.91	6045.60
450.10	5984.75
450.28	6085.39
450.46	6038.58
450.65	6071.35
450.83	6225.82
451.02	5951.98
451.20	6150.93
451.39	6092.41
451.57	6181.35
451.76	5968.37
451.94	6085.39
452.13	6258.59
452.31	6230.51
452.49	6202.42
452.68	6153.27
452.86	6193.06
453.05	6399.02
453.23	6478.60
453.42	6043.26
453.60	6129.86
453.78	6340.51
453.97	6256.25
454.15	6434.13
454.34	6286.68
454.52	6417.75
454.70	6366.26
454.89	6392.00
455.07	6441.15
455.26	6581.59
455.44	6574.56
455.62	6530.09
455.81	6511.37
455.99	6569.88
456.17	6864.79
456.36	6541.80
456.54	6626.06
456.73	6759.47
456.91	7002.88
457.09	6876.49
457.28	7052.03
457.46	7000.54
457.64	6888.20
457.83	6932.67
458.01	6764.15
458.19	6956.07
458.38	6918.62
458.56	7211.19
458.74	7148.00
458.93	7103.53
459.11	7157.36
459.29	7096.50
459.48	7124.59
459.66	7002.88
459.84	7316.51
460.03	7255.66
460.21	7227.57
460.39	7208.85
460.57	7234.60
460.76	7211.19
460.94	7529.50
461.12	7424.18
461.31	7386.73
461.49	7314.17
461.67	7328.22
461.85	7541.21
462.04	7688.66
462.22	8159.11
462.40	7632.49
462.59	7548.23
462.77	7531.84
462.95	7606.74
463.13	7660.57
463.32	7871.22
463.50	7698.02
463.68	7838.45
463.86	7805.69
464.05	7749.51
464.23	7878.24
464.41	7817.39
464.59	7765.90
464.78	8065.49
464.96	7899.31
465.14	7992.93
465.32	7861.86
465.50	7948.46
465.69	8128.68
465.87	8009.31
466.05	8039.74
466.23	8006.97
466.41	8063.15
466.60	8306.56
466.78	8210.60
466.96	8100.59
467.14	7999.95
467.32	8128.68
467.51	8418.91
467.69	8086.55
467.87	7992.93
468.05	8292.52
468.23	8301.88
468.41	8437.63
468.60	8372.10
468.78	8166.13
468.96	8395.50
469.14	8336.99
469.32	8484.44
469.50	8121.66
469.69	8407.20
469.87	8505.51
470.05	8500.83
470.23	8706.79
470.41	8575.72
470.59	8730.20
470.77	8463.38
470.95	8767.65
471.14	8800.41
471.32	8786.37
471.50	8875.31
471.68	8926.80
471.86	9114.05
472.04	8889.35
472.22	9205.33
472.40	9153.84
472.58	9359.80
472.77	9195.96
472.95	9329.38
473.13	9497.89
473.31	9256.82
473.49	9263.84
473.67	9219.37
473.85	9406.61
474.03	9668.75
474.21	9462.79
474.39	9762.37
474.57	9724.93
474.75	9666.41
474.93	9820.89
475.12	9722.59
475.30	9696.84
475.48	9802.16
475.66	10111.11
475.84	10050.26
476.02	9977.70
476.20	10068.98
476.38	10438.79
476.56	10499.64
476.74	10452.83
476.92	10324.10
477.10	10450.49
477.28	10548.79
477.46	10427.09
477.64	11000.52
477.82	10923.28
478.00	10946.69
478.18	11075.42
478.36	11192.44
478.54	11281.38
478.72	11236.91
478.90	11356.28
479.08	11466.28
479.26	11765.87
479.44	11644.17
479.62	11712.04
479.80	11992.90
479.98	11896.94
480.16	12018.65
480.34	11981.20
480.52	12248.02
480.70	12159.08
480.88	11948.43
481.06	12432.93
481.24	12208.23
481.41	12241.00
481.59	12524.21
481.77	12781.67
481.95	12978.27
482.13	12856.56
482.31	12870.61
482.49	13242.75
482.67	13247.43
482.85	13291.90
483.03	13507.23
483.21	13528.30
483.39	13610.22
483.57	13378.50
483.74	13785.76
483.92	14097.05
484.10	13877.04
484.28	14239.82
484.46	14235.14
484.64	14651.75
484.82	14230.46
485.00	14464.51
485.18	14846.02
485.35	14796.87
485.53	15068.37
485.71	14857.72
485.89	15272.00
486.07	15311.78
486.25	15297.74
486.43	15424.13
486.61	15625.42
486.78	15917.98
486.96	15496.69
487.14	16184.80
487.32	15988.20
487.50	15805.64
487.68	16407.16
487.85	16437.58
488.03	16840.15
488.21	16938.46
488.39	16678.66
488.57	16933.78
488.75	17207.62
488.92	17362.09
489.10	17413.59
489.28	17418.27
489.46	17635.94
489.64	17474.44
489.81	18202.35
489.99	18033.83
490.17	18087.66
490.35	18307.67
490.53	18391.93
490.70	18555.77
490.88	18630.66
491.06	18658.75
491.24	18843.65
491.41	18974.72
491.59	18836.63
491.77	18951.32
491.95	19332.82
492.13	19197.07
492.30	19452.19
492.48	19463.90
492.66	19927.32
492.84	19517.73
493.01	19775.19
493.19	20116.90
493.37	19885.19
493.54	20304.15
493.72	20369.68
493.90	20517.14
494.08	20746.51
494.25	20875.24
494.43	20891.62
494.61	21205.25
494.79	21003.97
494.96	20985.24
495.14	20919.71
495.32	21811.45
495.49	22010.40
495.67	21666.34
495.85	22080.61
496.02	22204.66
496.20	22164.87
496.38	22071.25
496.55	22153.17
496.73	22675.11
496.91	22448.08
497.09	22698.52
497.26	22799.16
497.44	22717.24
497.62	22897.46
497.79	23154.92
497.97	23482.59
498.14	23328.12
498.32	23618.35
498.50	23445.15
498.67	23969.43
498.85	23665.16
499.03	23887.51
499.20	24093.47
499.38	23978.79
499.56	23880.49
499.73	24348.59
499.91	24231.57
500.08	24634.14
500.26	24238.59
500.44	24496.05
500.61	24397.74
500.79	24907.98
500.97	24727.76
501.14	24919.68
501.32	24753.51
501.49	25214.59
501.67	24907.98
501.84	25593.76
502.02	25322.26
502.20	25855.90
502.37	25563.33
502.55	25736.53
502.72	25392.47
502.90	25919.09
503.07	25661.63
503.25	25921.43
503.43	25743.55
503.60	26178.89
503.78	26015.05
503.95	26487.84
504.13	26632.96
504.30	26424.65
504.48	26600.19
504.65	26740.62
504.83	26808.50
505.01	27005.10
505.18	26810.84
505.36	26998.08
505.53	26820.20
505.71	27367.88
505.88	27461.51
506.06	27035.53
506.23	27424.06
506.41	27386.61
506.58	27646.41
506.76	27475.55
506.93	28067.70
507.11	27615.98
507.28	27873.44
507.46	28203.46
507.63	28201.11
507.81	28219.84
507.98	28268.99
508.16	28285.37
508.33	28079.41
508.50	28264.31
508.68	28685.61
508.85	28774.55
509.03	28524.11
509.20	28837.74
509.38	29249.67
509.55	28858.81
509.73	28994.56
509.90	29184.14
510.08	28872.85
510.25	29216.91
510.42	29579.69
510.60	29890.98
510.77	29727.14
510.95	29865.24
511.12	29612.46
511.30	29565.65
511.47	30036.09
511.64	30445.69
511.82	30267.81
511.99	30197.59
512.17	30291.21
512.34	30199.93
512.51	30328.66
512.69	30831.88
512.86	30700.81
513.04	30441.01
513.21	30738.26
513.38	30841.24
513.56	30787.41
513.73	30885.71
513.90	31119.76
514.08	30864.64
514.25	31229.77
514.43	31225.09
514.60	31545.74
514.77	31903.84
514.95	31648.72
515.12	31641.70
515.29	31632.34
515.47	31742.35
515.64	31826.60
515.81	31676.81
515.99	32313.44
516.16	32203.43
516.33	32306.41
516.51	32491.32
516.68	31976.40
516.85	32020.87
517.03	32245.56
517.20	32411.74
517.37	32383.65
517.54	32624.73
517.72	32533.45
517.89	32465.57
518.06	32914.95
518.24	33123.26
518.41	32957.08
518.58	33153.69
518.75	33214.54
518.93	33230.93
519.10	33256.67
519.27	33638.18
519.45	33186.46
519.62	33429.87
519.79	33296.46
519.96	33874.57
520.14	33752.87
520.31	33586.69
520.48	33839.47
520.65	33956.49
520.83	33958.83
521.00	33954.15
521.17	33989.26
521.34	34129.69
521.52	34043.09
521.69	34101.61
521.86	34541.63
522.03	34352.04
522.20	34677.38
522.38	34597.80
522.55	34569.71
522.72	34349.70
522.89	34993.35
523.07	34756.96
523.24	35075.27
523.41	35070.59
523.58	34785.04
523.75	35044.84
523.92	34850.58
524.10	35222.72
524.27	35182.93
524.44	35229.74
524.61	35849.99
524.78	35302.30
524.96	35489.54
525.13	35618.27
525.30	35487.20
525.47	36114.47
525.64	35765.73
525.81	35653.38
525.98	36135.53
526.16	35707.21
526.33	36144.89
526.50	35950.63
526.67	35880.41
526.84	36297.03
527.01	36074.68
527.18	36467.89
527.36	36622.36
527.53	36477.25
527.70	36975.78
527.87	36837.69
528.04	36442.14
528.21	36751.09
528.38	36734.71
528.55	36554.49
528.72	36863.44
528.89	36769.82
529.07	36641.09
529.24	37322.18
529.41	37553.90
529.58	36994.51
529.75	37195.79
529.92	36975.78
530.09	37280.05
530.26	37266.01
530.43	37151.32
530.60	37034.30
530.77	37273.03
530.94	37266.01
531.11	37277.71
531.28	37776.25
531.46	37649.86
531.63	37558.58
531.80	38197.54
531.97	37904.98
532.14	38050.09
532.31	37378.36
532.48	37628.79
532.65	38087.54
532.82	37474.32
532.99	38141.37
533.16	38377.76
533.33	38167.12
533.50	38761.61
533.67	38534.58
533.84	38059.45
534.01	38452.66
534.18	38305.21
534.35	38403.51
534.52	38136.69
534.69	39171.21
534.86	39023.75
535.03	38969.92
535.20	38864.60
535.37	38897.36
535.54	39119.71
535.71	38646.93
535.88	38738.21
536.05	38869.28
536.22	39138.44
536.38	39562.08
536.55	39278.87
536.72	39199.29
536.89	39136.10
537.06	39084.61
537.23	39159.50
537.40	38820.13
537.57	39234.40
537.74	39096.31
537.91	39622.93
538.08	39744.64
538.25	39342.06
538.42	39604.20
538.59	39578.46
538.75	39473.13
538.92	39253.12
539.09	39732.93
539.26	40126.14
539.43	40030.18
539.60	40247.85
539.77	39934.22
539.94	40123.80
540.11	40388.28
540.28	40053.59
540.44	40027.84
540.61	40081.67
540.78	40414.03
540.95	40622.34
541.12	40484.25
541.29	40369.56
541.46	40399.99
541.62	40472.54
541.79	40383.60
541.96	40320.41
542.13	40381.26
542.30	40772.13
542.47	40587.23
542.63	40437.44
542.80	40807.24
542.97	40751.07
543.14	41368.97
543.31	41303.43
543.48	40971.08
543.64	41687.28
543.81	41413.44
543.98	41778.56
544.15	41495.36
544.32	41631.11
544.48	41926.02
544.65	41490.68
544.82	41326.84
544.99	41085.76
545.16	41715.37
545.32	41560.89
545.49	42080.49
545.66	41890.91
545.83	41947.08
546.00	42047.72
546.16	41523.44
546.33	41841.76
546.50	41184.07
546.67	41944.74
546.83	41483.66
547.00	41855.80
547.17	41844.10
547.34	42139.00
547.50	42263.05
547.67	42270.08
547.84	41755.16
548.00	42506.47
548.17	42249.01
548.34	42309.86
548.51	42476.04
548.67	42836.48
548.84	42525.19
549.01	42536.90
549.18	42169.43
549.34	42623.50
549.51	42139.00
549.68	42810.74
549.84	42316.89
550.01	42691.37
550.18	42377.74
550.34	42934.79
550.51	42710.10
550.68	42614.13
550.84	42220.92
551.01	42939.47
551.18	43005.00
551.34	42337.95
551.51	42712.44
551.68	43185.22
551.84	43241.40
552.01	42958.19
552.18	42918.40
552.34	43257.78
552.51	43192.25
552.68	42689.03
552.84	43154.80
553.01	43234.38
553.18	42962.87
553.34	43208.63
553.51	43316.29
553.67	43676.74
553.84	43445.02
554.01	43461.41
554.17	43562.05
554.34	43035.43
554.51	43386.51
554.67	43377.15
554.84	43217.99
555.00	44053.56
555.17	43859.30
555.33	43386.51
555.50	43131.39
555.67	43484.81
555.83	43508.22
556.00	43339.70
556.16	43777.38
556.33	43957.60
556.50	43428.64
556.66	44182.29
556.83	43793.76
556.99	44009.09
557.16	43784.40
557.32	44182.29
557.49	43833.55
557.65	43522.26
557.82	43316.29
557.98	43653.33
558.15	44325.07
558.32	44542.74
558.48	44135.48
558.65	43903.77
558.81	44495.92
558.98	44135.48
559.14	43955.26
559.31	43749.29
559.47	44018.46
559.64	44264.21
559.80	44320.38
559.97	44079.31
560.13	44219.74
560.30	44355.49
560.46	44069.95
560.63	44512.31
560.79	44561.46
560.96	44507.63
561.12	44416.35
561.29	44516.99
561.45	44542.74
561.61	45097.44
561.78	45038.93
561.94	44865.73
562.11	44488.90
562.27	44114.42
562.44	44275.91
562.60	44498.26
562.77	44346.13
562.93	44502.95
563.10	45027.23
563.26	44238.47
563.42	45020.20
563.59	44741.68
563.75	44481.88
563.92	44865.73
564.08	44107.40
564.24	44783.81
564.41	44926.58
564.57	44694.87
564.74	44727.64
564.90	44645.72
565.07	44875.09
565.23	44832.96
565.39	44996.80
565.56	44919.56
565.72	44781.47
565.88	44687.85
566.05	44570.82
566.21	44697.21
566.38	44732.32
566.54	45151.27
566.70	45090.42
566.87	44879.77
567.03	44872.75
567.19	45329.16
567.36	44954.67
567.52	44673.81
567.68	45118.51
567.85	44505.29
568.01	45074.04
568.17	44278.25
568.34	44931.26
568.50	45371.28
568.66	44856.37
568.83	45544.48
568.99	44985.10
569.15	44954.67
569.32	44978.07
569.48	44662.10
569.64	44945.31
569.81	45233.19
569.97	44776.79
570.13	45380.65
570.30	44910.20
570.46	45162.98
570.62	45244.90
570.78	44655.08
570.95	44957.01
571.11	45148.93
571.27	45134.89
571.43	44729.98
571.60	45123.19
571.76	45151.27
571.92	45254.26
572.09	45202.77
572.25	45387.67
572.41	44945.31
572.57	44776.79
572.74	45579.59
572.90	44935.95
573.06	45214.47
573.22	44797.85
573.38	45404.05
573.55	45476.61
573.71	45481.29
573.87	45488.31
574.03	45207.45
574.20	45202.77
574.36	44804.88
574.52	45488.31
574.68	45055.31
574.84	45317.45
575.01	45076.38
575.17	45380.65
575.33	45511.72
575.49	45521.08
575.65	45471.93
575.82	45333.84
575.98	44634.02
576.14	45268.30
576.30	45029.57
576.46	45209.79
576.62	45303.41
576.79	45544.48
576.95	45242.56
577.11	45083.40
577.27	45263.62
577.43	45584.27
577.59	45296.39
577.75	45104.46
577.92	45027.23
578.08	44776.79
578.24	45223.83
578.40	45324.47
578.56	45029.57
578.72	45174.68
578.88	45925.99
579.04	45464.91
579.21	45209.79
579.37	45411.07
579.53	45783.22
579.69	45263.62
579.85	45071.70
580.01	45918.97
580.17	45373.63
580.33	45394.69
580.49	45481.29
580.65	45404.05
580.82	46138.98
580.98	45773.86
581.14	45205.11
581.30	45382.99
581.46	45294.05
581.62	45352.56
581.78	45083.40
581.94	45272.98
582.10	45375.97
582.26	45523.42
582.42	45783.22
582.58	45450.86
582.74	45551.51
582.90	45705.98
583.06	45240.21
583.22	45343.20
583.38	45212.13
583.54	45214.47
583.70	45406.39
583.86	45102.12
584.02	45230.85
584.18	45972.80
584.34	45521.08
584.50	45766.84
584.66	45268.30
584.82	45359.58
584.98	45485.97
585.14	45680.24
585.30	45116.17
585.46	45174.68
585.62	45495.33
585.78	45846.41
585.94	45546.82
586.10	45853.44
586.26	45350.22
586.42	45804.28
586.58	45574.91
586.74	45230.85
586.90	45240.21
587.06	45167.66
587.22	45724.71
587.38	45343.20
587.54	45701.30
587.70	45759.81
587.86	45841.73
588.02	45918.97
588.18	45986.85
588.34	45397.03
588.49	45635.77
588.65	44931.26
588.81	45354.90
588.97	45537.46
589.13	45731.73
589.29	45556.19
589.45	45581.93
589.61	46120.26
589.77	45827.69
589.93	45532.78
590.08	45621.72
590.24	46094.51
590.40	45853.44
590.56	45874.50
590.72	45408.73
590.88	45549.17
591.04	45162.98
591.20	46071.10
591.35	46050.04
591.51	46642.20
591.67	46012.59
591.83	46323.88
591.99	45734.07
592.15	45832.37
592.31	45752.79
592.46	45776.20
592.62	45626.40
592.78	45963.44
592.94	45902.59
593.10	45787.90
593.26	46234.94
593.41	46113.23
593.57	46085.15
593.73	45741.09
593.89	46305.16
594.05	45902.59
594.20	45743.43
594.36	45879.18
594.52	45811.31
594.68	45530.44
594.84	45350.22
594.99	46127.28
595.15	45965.78
595.31	46024.29
595.47	45799.60
595.62	45900.25
595.78	45570.23
595.94	45834.71
596.10	45586.61
596.25	45586.61
596.41	45928.33
596.57	45694.28
596.73	46185.79
596.88	46197.49
597.04	45626.40
597.20	46321.54
597.36	46361.33
597.51	46391.76
597.67	45682.58
597.83	45249.58
597.99	45876.84
598.14	45769.18
598.30	45542.14
598.46	46038.34
598.61	45764.49
598.77	45806.62
598.93	45949.40
599.09	46291.12
599.24	46129.62
599.40	46251.33
599.56	45925.99
599.71	46113.23
599.87	45640.45
600.03	45855.78
600.18	45780.88
600.34	46162.39
600.50	45780.88
600.65	45778.54
600.81	46263.03
600.97	45909.61
601.12	46169.41
601.28	46120.26
601.44	46323.88
601.59	45895.56
601.75	45670.87
601.91	45911.95
602.06	45904.93
602.22	45930.67
602.37	45509.38
602.53	46047.70
602.69	45815.99
602.84	46066.42
603.00	45991.53
603.16	45811.31
603.31	46033.66
603.47	45825.35
603.62	45722.37
603.78	46153.02
603.94	45787.90
604.09	45886.20
604.25	45521.08
604.40	45776.20
604.56	46124.94
604.71	46405.80
604.87	46298.14
605.03	45689.60
605.18	45495.33
605.34	45902.59
605.49	45624.06
605.65	45684.92
605.80	45537.46
605.96	45914.29
606.12	45752.79
606.27	45837.05
606.43	45577.25
606.58	45888.54
606.74	46087.49
606.89	45666.19
607.05	45640.45
607.20	45771.52
607.36	45069.36
607.51	45642.79
607.67	45109.14
607.82	44776.79
607.98	45432.14
608.13	45581.93
608.29	45083.40
608.44	45401.71
608.60	45399.37
608.75	45467.25
608.91	45404.05
609.06	44781.47
609.22	45876.84
609.37	45219.15
609.53	45542.14
609.68	45610.02
609.84	45219.15
609.99	45703.64
610.15	45378.31
610.30	45521.08
610.46	45209.79
610.61	45261.28
610.76	45085.74
610.92	45214.47
611.07	44802.53
611.23	45535.12
611.38	45118.51
611.54	44875.09
611.69	45102.12
611.84	44952.33
612.00	44854.03
612.15	44942.97
612.31	45631.08
612.46	44928.92
612.62	45663.85
612.77	45434.48
612.92	45514.06
613.08	45090.42
613.23	45228.51
613.39	44954.67
613.54	44889.13
613.69	45034.25
613.85	44758.06
614.00	45041.27
614.15	44987.44
614.31	44926.58
614.46	45134.89
614.62	44807.22
614.77	44835.30
614.92	45013.18
615.08	44966.37
615.23	44767.43
615.38	44648.06
615.54	45003.82
615.69	44444.43
615.84	44325.07
616.00	44327.41
616.15	44486.56
616.30	44519.33
616.46	45099.78
616.61	44720.62
616.76	44666.78
616.92	44423.37
617.07	44516.99
617.22	44243.15
617.37	44030.16
617.53	44172.93
617.68	44526.35
617.83	44467.84
617.99	44734.66
618.14	44524.01
618.29	44641.04
618.45	44416.35
618.60	44643.38
618.75	44385.92
618.90	44109.74
619.06	44355.49
619.21	43945.90
619.36	44184.63
619.51	44121.44
619.67	43550.35
619.82	44016.11
619.97	44046.54
620.12	44114.42
620.28	43892.07
620.43	44184.63
620.58	44002.07
620.73	44294.64
620.89	44128.46
621.04	44177.61
621.19	43648.65
621.34	43863.98
621.49	43817.17
621.65	43807.81
621.80	43885.04
621.95	43896.75
622.10	43681.42
622.25	43557.37
622.41	44086.33
622.56	43768.02
622.71	44142.50
622.86	43482.47
623.01	43669.72
623.16	43548.01
623.32	43480.13
623.47	43330.34
623.62	43805.47
623.77	43613.54
623.92	43606.52
624.07	43552.69
624.23	43587.80
624.38	43765.68
624.53	43428.64
624.68	43316.29
624.83	43166.50
624.98	43349.06
625.13	42880.95
625.29	43386.51
625.44	43271.82
625.59	43105.65
625.74	43246.08
625.89	42607.11
626.04	42948.83
626.19	42761.59
626.34	43227.35
626.49	43330.34
626.65	43103.31
626.80	43508.22
626.95	42902.02
627.10	42810.74
627.25	43061.18
627.40	42902.02
627.55	42272.42
627.70	42813.08
627.85	42415.19
628.00	42373.06
628.15	42665.63
628.30	42803.72
628.45	42817.76
628.60	42990.96
628.76	42759.25
628.91	42745.20
629.06	42211.56
629.21	42340.29
629.36	42550.94
629.51	42178.79
629.66	42401.14
629.81	42288.80
629.96	42351.99
630.11	42206.88
630.26	42089.85
630.41	42412.85
630.56	42274.76
630.71	42391.78
630.86	42396.46
631.01	42050.06
631.16	42167.09
631.31	42541.58
631.46	42129.64
631.61	42230.29
631.76	41883.89
631.91	42153.05
632.06	42054.75
632.21	42150.71
632.36	42553.28
632.51	42087.51
632.66	41916.65
632.81	41617.07
632.96	41883.89
633.10	42209.22
633.25	42120.28
633.40	41645.15
633.55	41544.51
633.70	41883.89
633.85	41528.13
634.00	41326.84
634.15	41572.60
634.30	41588.98
634.45	41642.81
634.60	41696.64
634.75	41572.60
634.90	41904.95
635.05	41605.36
635.19	41647.49
635.34	41823.03
635.49	42038.36
635.64	41418.12
635.79	41139.60
635.94	41022.57
636.09	41078.74
636.24	41310.46
636.39	41043.63
636.53	41130.23
636.68	40928.95
636.83	41097.47
636.98	41324.50
637.13	41436.84
637.28	41230.88
637.43	41296.41
637.57	41062.36
637.72	40879.80
637.87	40765.11
638.02	41453.23
638.17	41141.94
638.32	40919.59
638.46	40825.96
638.61	41308.11
638.76	40690.21
638.91	40643.40
639.06	41017.89
639.20	41265.99
639.35	41235.56
639.50	40584.89
639.65	41069.38
639.80	40919.59
639.94	40620.00
640.09	41034.27
640.24	40552.12
640.39	40678.51
640.54	40203.38
640.68	40472.54
640.83	40154.23
640.98	40011.46
641.13	40226.79
641.27	40311.05
641.42	40620.00
641.57	40453.82
641.72	40402.33
641.86	40245.51
642.01	39524.63
642.16	40114.44
642.31	39852.30
642.45	40011.46
642.60	40009.12
642.75	39992.73
642.90	39903.79
643.04	40072.31
643.19	39974.01
643.34	39531.65
643.48	39936.56
643.63	40114.44
643.78	40165.93
643.93	40350.84
644.07	39922.52
644.22	40107.42
644.37	39599.52
644.51	39711.87
644.66	39585.48
644.81	39578.46
644.95	39278.87
645.10	39828.90
645.25	39714.21
645.39	39559.73
645.54	40100.40
645.69	39854.64
645.83	39854.64
645.98	39887.41
646.13	39672.08
646.27	39927.20
646.42	39683.78
646.57	39892.09
646.71	39225.04
646.86	39533.99
647.00	39360.79
647.15	39510.58
647.30	39833.58
647.44	39311.64
647.59	39461.43
647.74	39461.43
647.88	39768.04
648.03	39880.39
648.17	39438.03
648.32	39431.01
648.47	39494.20
648.61	39028.43
648.76	39419.30
648.90	39035.45
649.05	38962.90
649.20	39044.82
649.34	39580.80
649.49	38684.37
649.63	38803.74
649.78	39239.08
649.92	38981.62
650.07	39426.32
650.21	38754.59
650.36	38876.30
650.51	38705.44
650.65	39112.69
650.80	39651.02
650.94	38897.36
651.09	39290.57
651.23	38787.36
651.38	38890.34
651.52	38543.94
651.67	38373.08
651.81	38593.09
651.96	38939.49
652.10	38721.82
652.25	38902.04
652.39	38651.61
652.54	38646.93
652.68	38625.86
652.83	39056.52
652.97	38658.63
653.12	38714.80
653.26	38302.87
653.41	38405.85
653.55	38000.94
653.70	38054.77
653.84	38146.05
653.99	38628.20
654.13	38249.03
654.27	38260.74
654.42	38251.38
654.56	38300.53
654.71	38440.96
654.85	38059.45
655.00	38202.22
655.14	37883.91
655.29	38426.92
655.43	38534.58
655.57	37783.27
655.72	38099.24
655.86	37558.58
656.01	38000.94
656.15	37799.65
656.30	38150.73
656.44	38384.79
656.58	37769.22
656.73	37589.00
656.87	37762.20
657.01	37839.44
657.16	37748.16
657.30	38223.29
657.45	38043.07
657.59	37764.54
657.73	37275.37
657.88	37762.20
658.02	37350.27
658.16	37790.29
658.31	37673.26
658.45	37743.48
658.60	37123.24
658.74	37551.56
658.88	37333.89
659.03	37022.59
659.17	37003.87
659.31	37322.18
659.46	37476.66
659.60	37574.96
659.74	36844.71
659.89	36900.89
660.03	36987.49
660.17	37399.42
660.32	37083.45
660.46	36547.47
660.60	36549.81
660.74	36418.74
660.89	36959.40
661.03	36847.05
661.17	36388.31
661.32	36753.43
661.46	36615.34
661.60	36512.36
661.74	36861.10
661.89	36863.44
662.03	36769.82
662.17	36449.16
662.31	35950.63
662.46	36442.14
662.60	36547.47
662.74	36079.36
662.88	35885.09
663.03	35651.04
663.17	35608.91
663.31	35756.36
663.45	36266.60
663.60	35536.35
663.74	35447.41
663.88	36018.50
664.02	35812.54
664.17	36381.29
664.31	35754.02
664.45	35407.62
664.59	35484.86
664.73	35309.32
664.88	35775.09
665.02	35133.78
665.16	35613.59
665.30	35363.15
665.44	35236.77
665.59	35201.66
665.73	35030.80
665.87	35129.10
666.01	34976.97
666.15	35311.66
666.29	35180.59
666.44	35201.66
666.58	34869.30
666.72	34871.64
666.86	34918.45
667.00	34986.33
667.14	35204.00
667.28	34792.06
667.43	34506.52
667.57	34424.60
667.71	34574.39
667.85	34314.59
667.99	34438.64
668.13	34504.18
668.27	34328.64
668.41	34567.37
668.56	34190.55
668.70	34419.92
668.84	34698.44
668.98	34244.38
669.12	34125.01
669.26	34033.73
669.40	33930.75
669.54	33940.11
669.68	33652.22
669.82	33668.61
669.96	33689.67
670.10	34071.18
670.25	33722.44
670.39	33315.19
670.53	33216.88
670.67	33312.84
670.81	33193.48
670.95	33481.36
671.09	33565.62
671.23	33865.21
671.37	33682.65
671.51	33453.28
671.65	33638.18
671.79	32938.36
671.93	32802.61
672.07	32795.59
672.21	32828.35
672.35	32350.88
672.49	31983.42
672.63	32491.32
672.77	31978.74
672.91	31974.06
673.05	32648.13
673.19	32706.65
673.33	32765.16
673.47	32507.70
673.61	32332.16
673.75	32367.27
673.89	32318.12
674.03	31812.56
674.17	31864.05
674.31	31983.42
674.45	31700.22
674.59	31756.39
674.73	31646.38
674.87	31288.28
675.01	31166.57
675.15	31079.97
675.29	31323.39
675.43	31267.22
675.56	31452.12
675.70	31550.42
675.84	31620.64
675.98	30473.78
676.12	31159.55
676.26	31510.63
676.40	30707.83
676.54	30646.97
676.68	30677.40
676.82	30066.52
676.96	30780.39
677.10	30302.92
677.23	30216.32
677.37	30000.99
677.51	30258.45
677.65	30080.56
677.79	30059.50
677.93	29579.69
678.07	29743.53
678.21	29736.51
678.34	29731.83
678.48	29659.27
678.62	29727.14
678.76	29324.57
678.90	29380.74
679.04	29200.52
679.18	28950.09
679.31	28828.38
679.45	28823.70
679.59	28596.67
679.73	28744.12
679.87	28879.87
680.00	28804.97
680.14	28491.34
680.28	28264.31
680.42	28584.96
680.56	28727.74
680.70	28549.85
680.83	28512.41
680.97	28161.33
681.11	28030.26
681.25	27660.45
681.39	28063.02
681.52	27513.00
681.66	27634.71
681.80	27725.99
681.94	27402.99
682.07	27129.15
682.21	27016.80
682.35	26895.10
682.49	26696.15
682.62	27089.36
682.76	26672.74
682.90	26682.11
683.04	26478.48
683.17	26803.82
683.31	26457.42
683.45	26618.91
683.59	26670.40
683.72	26677.43
683.86	26057.18
684.00	26087.61
684.13	25811.43
684.27	26080.59
684.41	26019.74
684.55	25631.21
684.68	25462.69
684.82	25607.80
684.96	25415.88
685.09	25476.73
685.23	25474.39
685.37	24947.77
685.50	25490.77
685.64	24746.48
685.78	24870.53
685.91	25139.69
686.05	24959.47
686.19	24950.11
686.32	25151.40
686.46	24599.03
686.60	24187.10
686.73	24678.61
686.87	24163.69
687.01	24739.46
687.14	24079.43
687.28	24095.82
687.42	24283.06
687.55	24467.96
687.69	24180.07
687.82	23859.42
687.96	23674.52
688.10	23786.86
688.23	23971.77
688.37	23585.58
688.50	23798.57
688.64	23662.82
688.78	23311.74
688.91	22951.29
689.05	23049.60
689.18	23129.17
689.32	22342.75
689.46	22897.46
689.59	22787.46
689.73	22838.95
689.86	22373.18
690.00	22473.82
690.13	22391.91
690.27	22448.08
690.41	22677.45
690.54	22511.27
690.68	21907.41
690.81	22232.75
690.95	22029.12
691.08	22043.17
691.22	21865.28
691.35	21617.19
691.49	21778.68
691.62	21851.24
691.76	21488.46
691.89	21284.83
692.03	21387.82
692.16	21064.82
692.30	20987.58
692.43	20903.32
692.57	20781.62
692.70	21177.17
692.84	20868.22
692.97	20774.60
693.11	20861.19
693.24	20636.50
693.38	20912.69
693.51	20636.50
693.65	20744.17
693.78	20472.67
693.92	20489.05
694.05	20423.51
694.19	19932.00
694.32	20109.88
694.45	19999.88
694.59	19630.07
694.72	19939.02
694.86	19768.16
694.99	19477.94
695.13	19709.65
695.26	19213.46
695.39	19220.48
695.53	19346.87
695.66	19426.45
695.80	19480.28
695.93	19171.33
696.07	19370.27
696.20	19133.88
696.33	19026.21
696.47	18775.78
696.60	18932.59
696.73	18593.22
696.87	18637.69
697.00	18572.15
697.14	18478.53
697.27	18106.38
697.40	18143.83
697.54	18197.67
697.67	18026.81
697.80	17933.18
697.94	17717.86
698.07	17853.61
698.21	17912.12
698.34	18094.68
698.47	17699.13
698.61	17570.40
698.74	17626.57
698.87	17348.05
699.01	17401.88
699.14	17114.00
699.27	17191.23
699.40	17114.00
699.54	17310.60
699.67	16896.33
699.80	16828.45
699.94	16582.70
700.07	16603.76
700.20	16617.80
700.34	16365.03
700.47	16362.69
700.60	16411.84
700.73	16702.06
700.87	16582.70
701.00	16100.55
701.13	16325.24
701.26	16327.58
701.40	16212.89
701.53	16233.96
701.66	15974.16
701.79	15756.49
701.93	15433.49
702.06	15693.29
702.19	15751.81
702.32	15784.57
702.46	15426.47
702.59	15337.53
702.72	15281.36
702.85	15157.31
702.99	15288.38
703.12	15082.41
703.25	15272.00
703.38	15019.22
703.51	15283.70
703.65	15410.09
703.78	14963.04
703.91	14829.63
704.04	14874.10
704.17	14705.59
704.31	14675.16
704.44	14485.58
704.57	14768.78
704.70	14574.52
704.83	13980.02
704.96	14424.72
705.10	14244.50
705.23	14141.52
>>>>>End Processed Spectral Data<<<<<
