SpectraSuite Data File
++++++++++++++++++++++++++++++++++++
Date: Fri Oct 04 11:48:19 GMT-05:00 2013
User: price-jones
Dark Spectrum Present: No
Reference Spectrum Present: No
Number of Sampled Component Spectra: 1
Spectrometers: USB2+H05261
Integration Time (usec): 100000 (USB2+H05261)
Spectra Averaged: 1 (USB2+H05261)
Boxcar Smoothing: 0 (USB2+H05261)
Correct for Electrical Dark: No (USB2+H05261)
Strobe/Lamp Enabled: No (USB2+H05261)
Correct for Detector Non-linearity: No (USB2+H05261)
Correct for Stray Light: No (USB2+H05261)
Number of Pixels in Processed Spectrum: 2048
>>>>>Begin Processed Spectral Data<<<<<
365.73	60.85
365.92	60.85
366.12	60.85
366.32	0.00
366.52	0.00
366.72	4.68
366.91	0.00
367.11	0.00
367.31	0.00
367.51	0.00
367.70	0.00
367.90	0.00
368.10	0.00
368.30	0.00
368.49	0.00
368.69	0.00
368.89	0.00
369.09	0.00
369.28	0.00
369.48	0.00
369.68	0.00
369.87	9.36
370.07	56.17
370.27	0.00
370.47	2.34
370.66	30.43
370.86	121.71
371.06	56.17
371.25	23.41
371.45	72.56
371.65	9.36
371.84	18.72
372.04	67.88
372.24	140.43
372.44	63.19
372.63	93.62
372.83	159.16
373.03	2.34
373.22	72.56
373.42	65.54
373.62	189.58
373.81	74.90
374.01	107.66
374.21	70.22
374.40	112.35
374.60	198.95
374.79	124.05
374.99	86.60
375.19	107.66
375.38	131.07
375.58	119.37
375.78	135.75
375.97	102.98
376.17	208.31
376.37	140.43
376.56	161.50
376.76	63.19
376.95	91.28
377.15	70.22
377.35	91.28
377.54	70.22
377.74	67.88
377.93	86.60
378.13	86.60
378.33	114.69
378.52	147.45
378.72	128.73
378.91	124.05
379.11	135.75
379.31	28.09
379.50	79.58
379.70	128.73
379.89	77.24
380.09	65.54
380.28	35.11
380.48	102.98
380.68	81.92
380.87	119.37
381.07	74.90
381.26	140.43
381.46	91.28
381.65	98.30
381.85	30.43
382.04	98.30
382.24	84.26
382.43	110.01
382.63	46.81
382.83	42.13
383.02	60.85
383.22	112.35
383.41	14.04
383.61	65.54
383.80	70.22
384.00	79.58
384.19	177.88
384.39	135.75
384.58	79.58
384.78	147.45
384.97	35.11
385.17	79.58
385.36	51.49
385.56	126.39
385.75	74.90
385.95	37.45
386.14	135.75
386.34	152.13
386.53	102.98
386.72	95.96
386.92	72.56
387.11	2.34
387.31	84.26
387.50	51.49
387.70	124.05
387.89	72.56
388.09	138.09
388.28	119.37
388.48	49.15
388.67	149.79
388.86	81.92
389.06	81.92
389.25	88.94
389.45	131.07
389.64	9.36
389.84	128.73
390.03	112.35
390.22	131.07
390.42	37.45
390.61	112.35
390.81	74.90
391.00	126.39
391.19	149.79
391.39	100.64
391.58	147.45
391.78	142.77
391.97	124.05
392.16	147.45
392.36	152.13
392.55	124.05
392.75	77.24
392.94	93.62
393.13	102.98
393.33	81.92
393.52	180.22
393.71	51.49
393.91	74.90
394.10	93.62
394.29	138.09
394.49	117.03
394.68	110.01
394.88	140.43
395.07	175.54
395.26	112.35
395.46	112.35
395.65	121.71
395.84	128.73
396.04	161.50
396.23	133.41
396.42	112.35
396.62	77.24
396.81	147.45
397.00	77.24
397.19	177.88
397.39	107.66
397.58	152.13
397.77	72.56
397.97	126.39
398.16	138.09
398.35	154.48
398.55	53.83
398.74	63.19
398.93	135.75
399.12	67.88
399.32	152.13
399.51	140.43
399.70	81.92
399.90	166.18
400.09	102.98
400.28	126.39
400.47	91.28
400.67	121.71
400.86	112.35
401.05	112.35
401.24	100.64
401.44	149.79
401.63	126.39
401.82	147.45
402.01	121.71
402.21	105.32
402.40	156.82
402.59	215.33
402.78	121.71
402.97	170.86
403.17	128.73
403.36	105.32
403.55	126.39
403.74	149.79
403.93	98.30
404.13	142.77
404.32	79.58
404.51	126.39
404.70	154.48
404.89	93.62
405.09	163.84
405.28	98.30
405.47	102.98
405.66	159.16
405.85	105.32
406.05	142.77
406.24	140.43
406.43	140.43
406.62	88.94
406.81	131.07
407.00	198.95
407.20	79.58
407.39	140.43
407.58	110.01
407.77	114.69
407.96	128.73
408.15	124.05
408.34	131.07
408.54	189.58
408.73	138.09
408.92	98.30
409.11	117.03
409.30	234.05
409.49	74.90
409.68	140.43
409.87	191.92
410.07	133.41
410.26	147.45
410.45	133.41
410.64	88.94
410.83	145.11
411.02	86.60
411.21	154.48
411.40	203.63
411.59	177.88
411.78	102.98
411.98	112.35
412.17	201.29
412.36	149.79
412.55	147.45
412.74	121.71
412.93	124.05
413.12	91.28
413.31	121.71
413.50	166.18
413.69	95.96
413.88	198.95
414.07	163.84
414.26	147.45
414.45	117.03
414.64	149.79
414.83	191.92
415.02	173.20
415.22	173.20
415.41	187.24
415.60	168.52
415.79	100.64
415.98	173.20
416.17	102.98
416.36	117.03
416.55	112.35
416.74	231.71
416.93	149.79
417.12	140.43
417.31	117.03
417.50	72.56
417.69	170.86
417.88	159.16
418.07	131.07
418.26	105.32
418.45	114.69
418.64	173.20
418.83	135.75
419.02	128.73
419.21	112.35
419.39	177.88
419.58	126.39
419.77	79.58
419.96	182.56
420.15	203.63
420.34	135.75
420.53	163.84
420.72	196.60
420.91	140.43
421.10	194.26
421.29	107.66
421.48	227.03
421.67	182.56
421.86	156.82
422.05	135.75
422.24	117.03
422.43	154.48
422.61	166.18
422.80	198.95
422.99	166.18
423.18	128.73
423.37	203.63
423.56	198.95
423.75	227.03
423.94	177.88
424.13	145.11
424.32	102.98
424.50	170.86
424.69	152.13
424.88	140.43
425.07	163.84
425.26	95.96
425.45	145.11
425.64	128.73
425.83	191.92
426.01	121.71
426.20	86.60
426.39	133.41
426.58	145.11
426.77	212.99
426.96	208.31
427.15	194.26
427.33	173.20
427.52	119.37
427.71	196.60
427.90	152.13
428.09	177.88
428.28	128.73
428.46	117.03
428.65	100.64
428.84	248.10
429.03	189.58
429.22	142.77
429.40	105.32
429.59	220.01
429.78	182.56
429.97	175.54
430.16	234.05
430.34	175.54
430.53	159.16
430.72	131.07
430.91	105.32
431.10	196.60
431.28	196.60
431.47	231.71
431.66	210.65
431.85	227.03
432.03	145.11
432.22	250.44
432.41	121.71
432.60	147.45
432.79	138.09
432.97	161.50
433.16	238.73
433.35	177.88
433.54	184.90
433.72	217.67
433.91	208.31
434.10	156.82
434.28	212.99
434.47	135.75
434.66	194.26
434.85	222.35
435.03	203.63
435.22	262.14
435.41	215.33
435.59	224.69
435.78	177.88
435.97	184.90
436.16	196.60
436.34	217.67
436.53	138.09
436.72	210.65
436.90	170.86
437.09	241.08
437.28	142.77
437.46	259.80
437.65	241.08
437.84	182.56
438.02	210.65
438.21	180.22
438.40	147.45
438.58	187.24
438.77	227.03
438.96	152.13
439.14	194.26
439.33	173.20
439.52	170.86
439.70	205.97
439.89	229.37
440.08	196.60
440.26	227.03
440.45	280.86
440.63	227.03
440.82	175.54
441.01	142.77
441.19	173.20
441.38	229.37
441.57	119.37
441.75	194.26
441.94	238.73
442.12	248.10
442.31	147.45
442.50	217.67
442.68	210.65
442.87	205.97
443.05	175.54
443.24	196.60
443.43	170.86
443.61	205.97
443.80	217.67
443.98	184.90
444.17	170.86
444.35	252.78
444.54	252.78
444.73	187.24
444.91	208.31
445.10	198.95
445.28	133.41
445.47	203.63
445.65	231.71
445.84	166.18
446.02	208.31
446.21	107.66
446.39	196.60
446.58	177.88
446.77	266.82
446.95	262.14
447.14	112.35
447.32	243.42
447.51	215.33
447.69	229.37
447.88	283.20
448.06	266.82
448.25	147.45
448.43	198.95
448.62	234.05
448.80	245.76
448.99	205.97
449.17	147.45
449.36	182.56
449.54	196.60
449.73	273.84
449.91	278.52
450.10	304.27
450.28	297.25
450.46	250.44
450.65	208.31
450.83	187.24
451.02	304.27
451.20	273.84
451.39	245.76
451.57	212.99
451.76	224.69
451.94	259.80
452.13	236.39
452.31	215.33
452.49	173.20
452.68	280.86
452.86	210.65
453.05	224.69
453.23	229.37
453.42	229.37
453.60	222.35
453.78	182.56
453.97	147.45
454.15	217.67
454.34	177.88
454.52	177.88
454.70	170.86
454.89	229.37
455.07	224.69
455.26	224.69
455.44	229.37
455.62	264.48
455.81	266.82
455.99	243.42
456.17	257.46
456.36	203.63
456.54	142.77
456.73	210.65
456.91	243.42
457.09	231.71
457.28	273.84
457.46	191.92
457.64	205.97
457.83	210.65
458.01	187.24
458.19	234.05
458.38	201.29
458.56	341.72
458.74	238.73
458.93	187.24
459.11	243.42
459.29	203.63
459.48	229.37
459.66	234.05
459.84	229.37
460.03	367.46
460.21	248.10
460.39	259.80
460.57	238.73
460.76	255.12
460.94	201.29
461.12	222.35
461.31	217.67
461.49	262.14
461.67	229.37
461.85	304.27
462.04	273.84
462.22	641.31
462.40	334.70
462.59	276.18
462.77	271.50
462.95	238.73
463.13	280.86
463.32	231.71
463.50	252.78
463.68	241.08
463.86	238.73
464.05	208.31
464.23	325.33
464.41	280.86
464.59	299.59
464.78	285.55
464.96	318.31
465.14	294.91
465.32	196.60
465.50	311.29
465.69	238.73
465.87	175.54
466.05	276.18
466.23	203.63
466.41	135.75
466.60	210.65
466.78	227.03
466.96	241.08
467.14	271.50
467.32	220.01
467.51	250.44
467.69	201.29
467.87	330.02
468.05	262.14
468.23	276.18
468.41	344.06
468.60	245.76
468.78	252.78
468.96	255.12
469.14	280.86
469.32	217.67
469.50	248.10
469.69	308.95
469.87	313.63
470.05	255.12
470.23	325.33
470.41	166.18
470.59	229.37
470.77	334.70
470.95	334.70
471.14	294.91
471.32	248.10
471.50	376.83
471.68	273.84
471.86	299.59
472.04	201.29
472.22	294.91
472.40	229.37
472.58	238.73
472.77	241.08
472.95	259.80
473.13	400.23
473.31	351.08
473.49	304.27
473.67	271.50
473.85	318.31
474.03	241.08
474.21	276.18
474.39	205.97
474.57	311.29
474.75	318.31
474.93	220.01
475.12	198.95
475.30	222.35
475.48	248.10
475.66	252.78
475.84	297.25
476.02	304.27
476.20	330.02
476.38	301.93
476.56	369.80
476.74	290.23
476.92	315.97
477.10	327.68
477.28	346.40
477.46	255.12
477.64	283.20
477.82	262.14
478.00	353.42
478.18	313.63
478.36	224.69
478.54	283.20
478.72	273.84
478.90	297.25
479.08	351.08
479.26	308.95
479.44	304.27
479.62	308.95
479.80	325.33
479.98	327.68
480.16	308.95
480.34	327.68
480.52	283.20
480.70	271.50
480.88	325.33
481.06	318.31
481.24	318.31
481.41	294.91
481.59	276.18
481.77	341.72
481.95	308.95
482.13	344.06
482.31	376.83
482.49	315.97
482.67	280.86
482.85	407.25
483.03	381.51
483.21	353.42
483.39	315.97
483.57	416.62
483.74	351.08
483.92	297.25
484.10	313.63
484.28	299.59
484.46	442.36
484.64	313.63
484.82	381.51
485.00	360.44
485.18	315.97
485.35	294.91
485.53	318.31
485.71	355.76
485.89	322.99
486.07	322.99
486.25	449.38
486.43	381.51
486.61	379.17
486.78	346.40
486.96	393.21
487.14	353.42
487.32	418.96
487.50	360.44
487.68	416.62
487.85	386.19
488.03	376.83
488.21	463.43
488.39	365.12
488.57	447.04
488.75	346.40
488.92	763.01
489.10	383.85
489.28	414.27
489.46	369.80
489.64	304.27
489.81	416.62
489.99	383.85
490.17	397.89
490.35	425.98
490.53	447.04
490.70	341.72
490.88	454.06
491.06	404.91
491.24	365.12
491.41	472.79
491.59	458.74
491.77	421.30
491.95	376.83
492.13	362.78
492.30	330.02
492.48	395.55
492.66	390.87
492.84	353.42
493.01	430.66
493.19	470.45
493.37	458.74
493.54	475.13
493.72	456.40
493.90	449.38
494.08	479.81
494.25	409.59
494.43	397.89
494.61	465.77
494.79	458.74
494.96	435.34
495.14	414.27
495.32	456.40
495.49	507.90
495.67	489.17
495.85	449.38
496.02	444.70
496.20	493.85
496.38	477.47
496.55	444.70
496.73	507.90
496.91	472.79
497.09	491.51
497.26	472.79
497.44	458.74
497.62	479.81
497.79	528.96
497.97	498.53
498.14	428.32
498.32	477.47
498.50	454.06
498.67	493.85
498.85	517.26
499.03	461.09
499.20	505.56
499.38	465.77
499.56	484.49
499.73	568.75
499.91	521.94
500.08	468.11
500.26	561.73
500.44	465.77
500.61	521.94
500.79	517.26
500.97	585.13
501.14	557.05
501.32	454.06
501.49	512.58
501.67	510.24
501.84	496.19
502.02	472.79
502.20	557.05
502.37	421.30
502.55	552.37
502.72	500.87
502.90	631.94
503.07	543.00
503.25	582.79
503.43	421.30
503.60	447.04
503.78	540.66
503.95	472.79
504.13	489.17
504.30	526.62
504.48	503.22
504.65	575.77
504.83	571.09
505.01	538.32
505.18	538.32
505.36	531.30
505.53	517.26
505.71	524.28
505.88	631.94
506.06	540.66
506.23	491.51
506.41	514.92
506.58	585.13
506.76	615.56
506.93	550.03
507.11	557.05
507.28	528.96
507.46	547.69
507.63	456.40
507.81	573.43
507.98	617.90
508.16	496.19
508.33	571.09
508.50	594.50
508.68	596.84
508.85	568.75
509.03	629.60
509.20	554.71
509.38	669.39
509.55	603.86
509.73	519.60
509.90	685.78
510.08	561.73
510.25	545.34
510.42	575.77
510.60	512.58
510.77	655.35
510.95	613.22
511.12	550.03
511.30	521.94
511.47	575.77
511.64	617.90
511.82	589.82
511.99	603.86
512.17	655.35
512.34	507.90
512.51	524.28
512.69	559.39
512.86	589.82
513.04	557.05
513.21	662.37
513.38	608.54
513.56	557.05
513.73	585.13
513.90	631.94
514.08	554.71
514.25	521.94
514.43	627.26
514.60	601.52
514.77	533.64
514.95	622.58
515.12	526.62
515.29	634.29
515.47	608.54
515.64	582.79
515.81	650.67
515.99	613.22
516.16	564.07
516.33	650.67
516.51	599.18
516.68	580.45
516.85	638.97
517.03	559.39
517.20	571.09
517.37	638.97
517.54	521.94
517.72	592.16
517.89	575.77
518.06	573.43
518.24	641.31
518.41	662.37
518.58	671.73
518.75	660.03
518.93	601.52
519.10	566.41
519.27	566.41
519.45	538.32
519.62	613.22
519.79	713.86
519.96	610.88
520.14	725.57
520.31	634.29
520.48	650.67
520.65	624.92
520.83	629.60
521.00	627.26
521.17	643.65
521.34	648.33
521.52	606.20
521.69	627.26
521.86	648.33
522.03	620.24
522.20	641.31
522.38	643.65
522.55	585.13
522.72	585.13
522.89	727.91
523.07	692.80
523.24	650.67
523.41	660.03
523.58	657.69
523.75	720.88
523.92	685.78
524.10	678.76
524.27	596.84
524.44	512.58
524.61	641.31
524.78	629.60
524.96	702.16
525.13	706.84
525.30	678.76
525.47	608.54
525.64	622.58
525.81	641.31
525.98	606.20
526.16	594.50
526.33	606.20
526.50	641.31
526.67	601.52
526.84	615.56
527.01	622.58
527.18	636.63
527.36	617.90
527.53	655.35
527.70	767.70
527.87	608.54
528.04	788.76
528.21	676.41
528.38	739.61
528.55	765.36
528.72	638.97
528.89	643.65
529.07	676.41
529.24	592.16
529.41	751.31
529.58	620.24
529.75	629.60
529.92	643.65
530.09	629.60
530.26	662.37
530.43	669.39
530.60	744.29
530.77	657.69
530.94	695.14
531.11	655.35
531.28	631.94
531.46	603.86
531.63	613.22
531.80	641.31
531.97	711.52
532.14	753.65
532.31	697.48
532.48	723.23
532.65	676.41
532.82	657.69
532.99	681.10
533.16	655.35
533.33	692.80
533.50	690.46
533.67	678.76
533.84	688.12
534.01	737.27
534.18	678.76
534.35	648.33
534.52	657.69
534.69	641.31
534.86	716.20
535.03	662.37
535.20	711.52
535.37	695.14
535.54	697.48
535.71	692.80
535.88	706.84
536.05	606.20
536.22	716.20
536.38	662.37
536.55	704.50
536.72	723.23
536.89	741.95
537.06	667.05
537.23	594.50
537.40	704.50
537.57	648.33
537.74	671.73
537.91	671.73
538.08	657.69
538.25	702.16
538.42	606.20
538.59	688.12
538.75	674.07
538.92	706.84
539.09	695.14
539.26	678.76
539.43	699.82
539.60	730.25
539.77	737.27
539.94	685.78
540.11	732.59
540.28	688.12
540.44	638.97
540.61	645.99
540.78	685.78
540.95	603.86
541.12	739.61
541.29	706.84
541.46	767.70
541.62	681.10
541.79	674.07
541.96	690.46
542.13	629.60
542.30	697.48
542.47	697.48
542.63	641.31
542.80	606.20
542.97	690.46
543.14	734.93
543.31	695.14
543.48	622.58
543.64	709.18
543.81	748.97
543.98	798.12
544.15	641.31
544.32	655.35
544.48	713.86
544.65	781.74
544.82	655.35
544.99	723.23
545.16	730.25
545.32	674.07
545.49	734.93
545.66	617.90
545.83	620.24
546.00	725.57
546.16	744.29
546.33	730.25
546.50	709.18
546.67	772.38
546.83	711.52
547.00	763.01
547.17	772.38
547.34	746.63
547.50	744.29
547.67	697.48
547.84	608.54
548.00	678.76
548.17	699.82
548.34	760.67
548.51	753.65
548.67	748.97
548.84	669.39
549.01	727.91
549.18	641.31
549.34	746.63
549.51	774.72
549.68	702.16
549.84	718.54
550.01	613.22
550.18	812.17
550.34	748.97
550.51	716.20
550.68	734.93
550.84	713.86
551.01	800.46
551.18	772.38
551.34	702.16
551.51	725.57
551.68	678.76
551.84	800.46
552.01	709.18
552.18	713.86
552.34	835.57
552.51	770.04
552.68	791.10
552.84	676.41
553.01	683.44
553.18	807.48
553.34	657.69
553.51	798.12
553.67	777.06
553.84	765.36
554.01	840.25
554.17	667.05
554.34	748.97
554.51	805.14
554.67	751.31
554.84	758.33
555.00	767.70
555.17	638.97
555.33	774.72
555.50	779.40
555.67	734.93
555.83	685.78
556.00	685.78
556.16	851.96
556.33	734.93
556.50	767.70
556.66	706.84
556.83	648.33
556.99	779.40
557.16	725.57
557.32	734.93
557.49	711.52
557.65	748.97
557.82	748.97
557.98	688.12
558.15	807.48
558.32	678.76
558.48	678.76
558.65	753.65
558.81	725.57
558.98	671.73
559.14	763.01
559.31	739.61
559.47	739.61
559.64	697.48
559.80	720.88
559.97	746.63
560.13	692.80
560.30	704.50
560.46	660.03
560.63	765.36
560.79	690.46
560.96	763.01
561.12	814.51
561.29	732.59
561.45	734.93
561.61	781.74
561.78	856.64
561.94	709.18
562.11	739.61
562.27	709.18
562.44	770.04
562.60	758.33
562.77	800.46
562.93	629.60
563.10	774.72
563.26	678.76
563.42	713.86
563.59	643.65
563.75	777.06
563.92	788.76
564.08	739.61
564.24	765.36
564.41	744.29
564.57	744.29
564.74	716.20
564.90	706.84
565.07	699.82
565.23	753.65
565.39	786.42
565.56	720.88
565.72	678.76
565.88	744.29
566.05	732.59
566.21	615.56
566.38	777.06
566.54	772.38
566.70	697.48
566.87	702.16
567.03	695.14
567.19	716.20
567.36	751.31
567.52	727.91
567.68	709.18
567.85	772.38
568.01	763.01
568.17	772.38
568.34	781.74
568.50	758.33
568.66	634.29
568.83	856.64
568.99	664.71
569.15	711.52
569.32	840.25
569.48	732.59
569.64	770.04
569.81	748.97
569.97	645.99
570.13	671.73
570.30	629.60
570.46	676.41
570.62	664.71
570.78	716.20
570.95	711.52
571.11	779.40
571.27	809.83
571.43	660.03
571.60	744.29
571.76	636.63
571.92	709.18
572.09	702.16
572.25	617.90
572.41	697.48
572.57	718.54
572.74	828.55
572.90	772.38
573.06	788.76
573.22	819.19
573.38	753.65
573.55	772.38
573.71	660.03
573.87	695.14
574.03	748.97
574.20	760.67
574.36	814.51
574.52	770.04
574.68	723.23
574.84	753.65
575.01	716.20
575.17	819.19
575.33	664.71
575.49	727.91
575.65	711.52
575.82	770.04
575.98	767.70
576.14	723.23
576.30	692.80
576.46	770.04
576.62	723.23
576.79	786.42
576.95	763.01
577.11	720.88
577.27	706.84
577.43	861.32
577.59	737.27
577.75	681.10
577.92	798.12
578.08	676.41
578.24	692.80
578.40	791.10
578.56	706.84
578.72	760.67
578.88	734.93
579.04	699.82
579.21	774.72
579.37	753.65
579.53	681.10
579.69	791.10
579.85	748.97
580.01	645.99
580.17	692.80
580.33	674.07
580.49	725.57
580.65	786.42
580.82	791.10
580.98	631.94
581.14	732.59
581.30	723.23
581.46	716.20
581.62	751.31
581.78	716.20
581.94	720.88
582.10	739.61
582.26	730.25
582.42	716.20
582.58	692.80
582.74	744.29
582.90	725.57
583.06	753.65
583.22	741.95
583.38	748.97
583.54	690.46
583.70	772.38
583.86	849.61
584.02	683.44
584.18	819.19
584.34	805.14
584.50	699.82
584.66	657.69
584.82	683.44
584.98	753.65
585.14	746.63
585.30	774.72
585.46	650.67
585.62	650.67
585.78	706.84
585.94	711.52
586.10	739.61
586.26	692.80
586.42	748.97
586.58	741.95
586.74	690.46
586.90	690.46
587.06	727.91
587.22	645.99
587.38	725.57
587.54	697.48
587.70	695.14
587.86	770.04
588.02	748.97
588.18	688.12
588.34	770.04
588.49	603.86
588.65	638.97
588.81	725.57
588.97	674.07
589.13	608.54
589.29	699.82
589.45	634.29
589.61	674.07
589.77	753.65
589.93	669.39
590.08	695.14
590.24	610.88
590.40	634.29
590.56	676.41
590.72	681.10
590.88	727.91
591.04	767.70
591.20	638.97
591.35	690.46
591.51	741.95
591.67	638.97
591.83	650.67
591.99	678.76
592.15	800.46
592.31	692.80
592.46	699.82
592.62	781.74
592.78	746.63
592.94	676.41
593.10	699.82
593.26	610.88
593.41	746.63
593.57	699.82
593.73	667.05
593.89	732.59
594.05	751.31
594.20	751.31
594.36	709.18
594.52	699.82
594.68	690.46
594.84	697.48
594.99	662.37
595.15	695.14
595.31	758.33
595.47	730.25
595.62	648.33
595.78	706.84
595.94	692.80
596.10	763.01
596.25	657.69
596.41	678.76
596.57	620.24
596.73	688.12
596.88	760.67
597.04	723.23
597.20	734.93
597.36	732.59
597.51	676.41
597.67	695.14
597.83	699.82
597.99	697.48
598.14	753.65
598.30	706.84
598.46	688.12
598.61	763.01
598.77	720.88
598.93	737.27
599.09	702.16
599.24	692.80
599.40	711.52
599.56	711.52
599.71	730.25
599.87	763.01
600.03	660.03
600.18	720.88
600.34	739.61
600.50	753.65
600.65	669.39
600.81	748.97
600.97	760.67
601.12	681.10
601.28	737.27
601.44	620.24
601.59	800.46
601.75	748.97
601.91	685.78
602.06	751.31
602.22	814.51
602.37	657.69
602.53	732.59
602.69	720.88
602.84	711.52
603.00	685.78
603.16	753.65
603.31	744.29
603.47	770.04
603.62	681.10
603.78	725.57
603.94	645.99
604.09	664.71
604.25	699.82
604.40	709.18
604.56	723.23
604.71	746.63
604.87	681.10
605.03	739.61
605.18	713.86
605.34	781.74
605.49	636.63
605.65	748.97
605.80	645.99
605.96	727.91
606.12	692.80
606.27	695.14
606.43	713.86
606.58	760.67
606.74	716.20
606.89	711.52
607.05	788.76
607.20	758.33
607.36	709.18
607.51	730.25
607.67	636.63
607.82	730.25
607.98	671.73
608.13	690.46
608.29	767.70
608.44	805.14
608.60	683.44
608.75	653.01
608.91	760.67
609.06	744.29
609.22	638.97
609.37	645.99
609.53	739.61
609.68	732.59
609.84	690.46
609.99	704.50
610.15	713.86
610.30	748.97
610.46	711.52
610.61	683.44
610.76	688.12
610.92	664.71
611.07	678.76
611.23	748.97
611.38	697.48
611.54	664.71
611.69	669.39
611.84	744.29
612.00	674.07
612.15	655.35
612.31	683.44
612.46	720.88
612.62	634.29
612.77	610.88
612.92	702.16
613.08	697.48
613.23	667.05
613.39	650.67
613.54	685.78
613.69	755.99
613.85	603.86
614.00	624.92
614.15	615.56
614.31	622.58
614.46	695.14
614.62	741.95
614.77	760.67
614.92	667.05
615.08	620.24
615.23	690.46
615.38	678.76
615.54	613.22
615.69	678.76
615.84	650.67
616.00	716.20
616.15	723.23
616.30	772.38
616.46	671.73
616.61	683.44
616.76	720.88
616.92	688.12
617.07	704.50
617.22	674.07
617.37	695.14
617.53	760.67
617.68	606.20
617.83	599.18
617.99	732.59
618.14	734.93
618.29	620.24
618.45	690.46
618.60	601.52
618.75	744.29
618.90	727.91
619.06	662.37
619.21	603.86
619.36	699.82
619.51	713.86
619.67	650.67
619.82	706.84
619.97	711.52
620.12	638.97
620.28	660.03
620.43	650.67
620.58	730.25
620.73	657.69
620.89	627.26
621.04	636.63
621.19	713.86
621.34	690.46
621.49	601.52
621.65	634.29
621.80	683.44
621.95	662.37
622.10	629.60
622.25	655.35
622.41	599.18
622.56	608.54
622.71	627.26
622.86	678.76
623.01	688.12
623.16	636.63
623.32	653.01
623.47	753.65
623.62	657.69
623.77	653.01
623.92	688.12
624.07	664.71
624.23	636.63
624.38	734.93
624.53	676.41
624.68	608.54
624.83	718.54
624.98	681.10
625.13	622.58
625.29	692.80
625.44	613.22
625.59	608.54
625.74	678.76
625.89	671.73
626.04	617.90
626.19	648.33
626.34	601.52
626.49	627.26
626.65	589.82
626.80	585.13
626.95	650.67
627.10	641.31
627.25	636.63
627.40	594.50
627.55	629.60
627.70	620.24
627.85	601.52
628.00	643.65
628.15	662.37
628.30	653.01
628.45	636.63
628.60	650.67
628.76	575.77
628.91	655.35
629.06	617.90
629.21	524.28
629.36	655.35
629.51	585.13
629.66	608.54
629.81	543.00
629.96	587.47
630.11	587.47
630.26	615.56
630.41	669.39
630.56	573.43
630.71	648.33
630.86	660.03
631.01	573.43
631.16	615.56
631.31	564.07
631.46	582.79
631.61	643.65
631.76	641.31
631.91	622.58
632.06	641.31
632.21	634.29
632.36	587.47
632.51	561.73
632.66	629.60
632.81	629.60
632.96	594.50
633.10	664.71
633.25	580.45
633.40	575.77
633.55	711.52
633.70	620.24
633.85	592.16
634.00	573.43
634.15	601.52
634.30	573.43
634.45	592.16
634.60	571.09
634.75	671.73
634.90	559.39
635.05	664.71
635.19	601.52
635.34	624.92
635.49	589.82
635.64	526.62
635.79	521.94
635.94	634.29
636.09	622.58
636.24	617.90
636.39	702.16
636.53	681.10
636.68	615.56
636.83	620.24
636.98	655.35
637.13	603.86
637.28	610.88
637.43	688.12
637.57	603.86
637.72	692.80
637.87	627.26
638.02	627.26
638.17	617.90
638.32	645.99
638.46	596.84
638.61	603.86
638.76	589.82
638.91	582.79
639.06	519.60
639.20	650.67
639.35	725.57
639.50	645.99
639.65	730.25
639.80	681.10
639.94	594.50
640.09	645.99
640.24	627.26
640.39	674.07
640.54	636.63
640.68	585.13
640.83	568.75
640.98	601.52
641.13	603.86
641.27	594.50
641.42	624.92
641.57	601.52
641.72	613.22
641.86	627.26
642.01	615.56
642.16	606.20
642.31	535.98
642.45	718.54
642.60	601.52
642.75	554.71
642.90	613.22
643.04	603.86
643.19	645.99
643.34	540.66
643.48	559.39
643.63	512.58
643.78	573.43
643.93	690.46
644.07	589.82
644.22	585.13
644.37	587.47
644.51	599.18
644.66	543.00
644.81	564.07
644.95	587.47
645.10	552.37
645.25	573.43
645.39	606.20
645.54	613.22
645.69	594.50
645.83	557.05
645.98	690.46
646.13	512.58
646.27	596.84
646.42	599.18
646.57	575.77
646.71	500.87
646.86	540.66
647.00	620.24
647.15	624.92
647.30	573.43
647.44	538.32
647.59	571.09
647.74	514.92
647.88	566.41
648.03	578.11
648.17	638.97
648.32	571.09
648.47	550.03
648.61	543.00
648.76	505.56
648.90	535.98
649.05	543.00
649.20	596.84
649.34	524.28
649.49	528.96
649.63	578.11
649.78	550.03
649.92	594.50
650.07	615.56
650.21	564.07
650.36	573.43
650.51	653.01
650.65	657.69
650.80	571.09
650.94	571.09
651.09	524.28
651.23	538.32
651.38	559.39
651.52	610.88
651.67	610.88
651.81	592.16
651.96	587.47
652.10	589.82
652.25	578.11
652.39	519.60
652.54	510.24
652.68	545.34
652.83	587.47
652.97	554.71
653.12	669.39
653.26	547.69
653.41	550.03
653.55	514.92
653.70	461.09
653.84	482.15
653.99	559.39
654.13	533.64
654.27	477.47
654.42	526.62
654.56	568.75
654.71	505.56
654.85	552.37
655.00	514.92
655.14	463.43
655.29	526.62
655.43	599.18
655.57	554.71
655.72	554.71
655.86	575.77
656.01	557.05
656.15	498.53
656.30	543.00
656.44	526.62
656.58	526.62
656.73	566.41
656.87	578.11
657.01	580.45
657.16	521.94
657.30	606.20
657.45	587.47
657.59	620.24
657.73	484.49
657.88	547.69
658.02	554.71
658.16	557.05
658.31	573.43
658.45	489.17
658.60	638.97
658.74	592.16
658.88	566.41
659.03	571.09
659.17	489.17
659.31	566.41
659.46	498.53
659.60	664.71
659.74	669.39
659.89	547.69
660.03	571.09
660.17	526.62
660.32	566.41
660.46	599.18
660.60	538.32
660.74	461.09
660.89	554.71
661.03	510.24
661.17	535.98
661.32	538.32
661.46	526.62
661.60	519.60
661.74	517.26
661.89	599.18
662.03	587.47
662.17	535.98
662.31	475.13
662.46	547.69
662.60	510.24
662.74	498.53
662.88	547.69
663.03	489.17
663.17	519.60
663.31	535.98
663.45	503.22
663.60	512.58
663.74	489.17
663.88	472.79
664.02	517.26
664.17	517.26
664.31	496.19
664.45	557.05
664.59	559.39
664.73	484.49
664.88	540.66
665.02	447.04
665.16	517.26
665.30	517.26
665.44	510.24
665.59	479.81
665.73	538.32
665.87	463.43
666.01	559.39
666.15	493.85
666.29	512.58
666.44	599.18
666.58	554.71
666.72	475.13
666.86	442.36
667.00	496.19
667.14	528.96
667.28	554.71
667.43	512.58
667.57	491.51
667.71	491.51
667.85	531.30
667.99	564.07
668.13	442.36
668.27	514.92
668.41	496.19
668.56	578.11
668.70	571.09
668.84	578.11
668.98	519.60
669.12	484.49
669.26	524.28
669.40	594.50
669.54	550.03
669.68	528.96
669.82	484.49
669.96	451.72
670.10	484.49
670.25	528.96
670.39	580.45
670.53	440.02
670.67	470.45
670.81	493.85
670.95	505.56
671.09	517.26
671.23	554.71
671.37	482.15
671.51	463.43
671.65	498.53
671.79	456.40
671.93	535.98
672.07	526.62
672.21	575.77
672.35	496.19
672.49	486.83
672.63	538.32
672.77	454.06
672.91	496.19
673.05	507.90
673.19	557.05
673.33	486.83
673.47	580.45
673.61	514.92
673.75	489.17
673.89	475.13
674.03	425.98
674.17	393.21
674.31	486.83
674.45	514.92
674.59	578.11
674.73	587.47
674.87	526.62
675.01	559.39
675.15	472.79
675.29	538.32
675.43	524.28
675.56	533.64
675.70	500.87
675.84	430.66
675.98	479.81
676.12	428.32
676.26	451.72
676.40	451.72
676.54	505.56
676.68	421.30
676.82	594.50
676.96	472.79
677.10	444.70
677.23	440.02
677.37	404.91
677.51	393.21
677.65	493.85
677.79	468.11
677.93	430.66
678.07	454.06
678.21	517.26
678.34	409.59
678.48	428.32
678.62	484.49
678.76	463.43
678.90	540.66
679.04	433.00
679.18	507.90
679.31	451.72
679.45	402.57
679.59	451.72
679.73	491.51
679.87	367.46
680.00	472.79
680.14	433.00
680.28	486.83
680.42	390.87
680.56	421.30
680.70	416.62
680.83	360.44
680.97	416.62
681.11	437.68
681.25	489.17
681.39	414.27
681.52	472.79
681.66	479.81
681.80	409.59
681.94	435.34
682.07	447.04
682.21	423.64
682.35	440.02
682.49	360.44
682.62	423.64
682.76	402.57
682.90	379.17
683.04	437.68
683.17	465.77
683.31	435.34
683.45	442.36
683.59	521.94
683.72	479.81
683.86	461.09
684.00	435.34
684.13	390.87
684.27	414.27
684.41	416.62
684.55	369.80
684.68	402.57
684.82	362.78
684.96	402.57
685.09	346.40
685.23	348.74
685.37	390.87
685.50	468.11
685.64	351.08
685.78	409.59
685.91	344.06
686.05	346.40
686.19	423.64
686.32	294.91
686.46	383.85
686.60	379.17
686.73	393.21
686.87	379.17
687.01	348.74
687.14	311.29
687.28	339.38
687.42	341.72
687.55	397.89
687.69	379.17
687.82	337.04
687.96	297.25
688.10	341.72
688.23	313.63
688.37	313.63
688.50	409.59
688.64	376.83
688.78	390.87
688.91	386.19
689.05	344.06
689.18	376.83
689.32	393.21
689.46	306.61
689.59	341.72
689.73	428.32
689.86	297.25
690.00	369.80
690.13	362.78
690.27	266.82
690.41	414.27
690.54	383.85
690.68	304.27
690.81	341.72
690.95	334.70
691.08	257.46
691.22	311.29
691.35	318.31
691.49	337.04
691.62	374.49
691.76	283.20
691.89	383.85
692.03	308.95
692.16	304.27
692.30	348.74
692.43	320.65
692.57	360.44
692.70	294.91
692.84	367.46
692.97	292.57
693.11	311.29
693.24	362.78
693.38	339.38
693.51	292.57
693.65	348.74
693.78	369.80
693.92	259.80
694.05	290.23
694.19	292.57
694.32	315.97
694.45	339.38
694.59	283.20
694.72	332.36
694.86	358.10
694.99	278.52
695.13	367.46
695.26	367.46
695.39	322.99
695.53	304.27
695.66	285.55
695.80	327.68
695.93	311.29
696.07	299.59
696.20	311.29
696.33	332.36
696.47	266.82
696.60	348.74
696.73	248.10
696.87	318.31
697.00	381.51
697.14	353.42
697.27	388.53
697.40	386.19
697.54	264.48
697.67	320.65
697.80	290.23
697.94	367.46
698.07	369.80
698.21	276.18
698.34	339.38
698.47	257.46
698.61	245.76
698.74	280.86
698.87	344.06
699.01	276.18
699.14	264.48
699.27	397.89
699.40	367.46
699.54	234.05
699.67	248.10
699.80	269.16
699.94	257.46
700.07	273.84
700.20	327.68
700.34	269.16
700.47	290.23
700.60	299.59
700.73	299.59
700.87	337.04
701.00	266.82
701.13	306.61
701.26	320.65
701.40	320.65
701.53	245.76
701.66	292.57
701.79	241.08
701.93	304.27
702.06	250.44
702.19	299.59
702.32	313.63
702.46	334.70
702.59	264.48
702.72	175.54
702.85	215.33
702.99	297.25
703.12	283.20
703.25	280.86
703.38	262.14
703.51	283.20
703.65	229.37
703.78	306.61
703.91	243.42
704.04	222.35
704.17	264.48
704.31	280.86
704.44	252.78
704.57	315.97
704.70	280.86
704.83	264.48
704.96	210.65
705.10	180.22
705.23	273.84
>>>>>End Processed Spectral Data<<<<<
