SpectraSuite Data File
++++++++++++++++++++++++++++++++++++
Date: Fri Oct 04 11:48:25 GMT-05:00 2013
User: price-jones
Dark Spectrum Present: No
Reference Spectrum Present: No
Number of Sampled Component Spectra: 1
Spectrometers: USB2+H05261
Integration Time (usec): 100000 (USB2+H05261)
Spectra Averaged: 1 (USB2+H05261)
Boxcar Smoothing: 0 (USB2+H05261)
Correct for Electrical Dark: No (USB2+H05261)
Strobe/Lamp Enabled: No (USB2+H05261)
Correct for Detector Non-linearity: No (USB2+H05261)
Correct for Stray Light: No (USB2+H05261)
Number of Pixels in Processed Spectrum: 2048
>>>>>Begin Processed Spectral Data<<<<<
365.73	84.26
365.92	84.26
366.12	84.26
366.32	0.00
366.52	0.00
366.72	39.79
366.91	9.36
367.11	0.00
367.31	0.00
367.51	0.00
367.70	0.00
367.90	0.00
368.10	0.00
368.30	0.00
368.49	0.00
368.69	0.00
368.89	0.00
369.09	0.00
369.28	0.00
369.48	0.00
369.68	37.45
369.87	0.00
370.07	23.41
370.27	7.02
370.47	93.62
370.66	362.78
370.86	475.13
371.06	521.94
371.25	430.66
371.45	430.66
371.65	428.32
371.84	470.45
372.04	421.30
372.24	500.87
372.44	418.96
372.63	442.36
372.83	568.75
373.03	519.60
373.22	580.45
373.42	533.64
373.62	468.11
373.81	573.43
374.01	596.84
374.21	603.86
374.40	603.86
374.60	571.09
374.79	587.47
374.99	629.60
375.19	620.24
375.38	643.65
375.58	711.52
375.78	664.71
375.97	660.03
376.17	777.06
376.37	662.37
376.56	631.94
376.76	592.16
376.95	599.18
377.15	704.50
377.35	683.44
377.54	711.52
377.74	685.78
377.93	582.79
378.13	741.95
378.33	718.54
378.52	704.50
378.72	697.48
378.91	727.91
379.11	660.03
379.31	685.78
379.50	737.27
379.70	786.42
379.89	713.86
380.09	681.10
380.28	793.44
380.48	667.05
380.68	748.97
380.87	720.88
381.07	774.72
381.26	802.80
381.46	676.41
381.65	884.72
381.85	739.61
382.04	772.38
382.24	826.21
382.43	767.70
382.63	781.74
382.83	863.66
383.02	919.83
383.22	877.70
383.41	835.57
383.61	884.72
383.80	950.26
384.00	868.34
384.19	877.70
384.39	912.81
384.58	898.77
384.78	919.83
384.97	950.26
385.17	992.39
385.36	959.62
385.56	997.07
385.75	966.64
385.95	964.30
386.14	915.15
386.34	847.27
386.53	870.68
386.72	985.37
386.92	985.37
387.11	1048.56
387.31	1032.18
387.50	990.05
387.70	959.62
387.89	968.98
388.09	922.17
388.28	1132.82
388.48	1011.11
388.67	1090.69
388.86	1015.79
389.06	1090.69
389.25	1097.71
389.45	1228.78
389.64	1104.73
389.84	1135.16
390.03	1135.16
390.22	1144.52
390.42	1132.82
390.61	1191.33
390.81	1170.27
391.00	1181.97
391.19	1249.85
391.39	1181.97
391.58	1203.04
391.78	1191.33
391.97	1212.40
392.16	1153.88
392.36	1315.38
392.55	1310.70
392.75	1331.76
392.94	1254.53
393.13	1233.46
393.33	1336.45
393.52	1373.89
393.71	1291.98
393.91	1275.59
394.10	1301.34
394.29	1362.19
394.49	1336.45
394.68	1376.24
394.88	1416.02
395.07	1451.13
395.26	1451.13
395.46	1425.39
395.65	1460.49
395.84	1497.94
396.04	1497.94
396.23	1540.07
396.42	1561.14
396.62	1612.63
396.81	1591.56
397.00	1563.48
397.19	1575.18
397.39	1565.82
397.58	1577.52
397.77	1528.37
397.97	1582.20
398.16	1640.72
398.35	1706.25
398.55	1633.69
398.74	1708.59
398.93	1652.42
399.12	1619.65
399.32	1675.82
399.51	1598.59
399.70	1708.59
399.90	1675.82
400.09	1708.59
400.28	1797.53
400.47	1830.30
400.67	1830.30
400.86	1764.76
401.05	1827.96
401.24	1832.64
401.44	1832.64
401.63	1893.49
401.82	1923.92
402.01	1902.86
402.21	1989.46
402.40	2136.91
402.59	1984.77
402.78	2001.16
402.97	1973.07
403.17	1989.46
403.36	1987.11
403.55	1956.69
403.74	2136.91
403.93	2148.61
404.13	2211.81
404.32	2038.61
404.51	2157.97
404.70	2153.29
404.89	2108.82
405.09	2286.70
405.28	2190.74
405.47	2167.34
405.66	2272.66
405.85	2263.30
406.05	2148.61
406.24	2263.30
406.43	2300.75
406.62	2354.58
406.81	2408.41
407.00	2251.60
407.20	2298.41
407.39	2359.26
407.58	2380.32
407.77	2478.63
407.96	2530.12
408.15	2656.51
408.34	2546.50
408.54	2558.21
408.73	2614.38
408.92	2588.63
409.11	2607.36
409.30	2647.15
409.49	2705.66
409.68	2525.44
409.87	2757.15
410.07	2738.43
410.26	2778.22
410.45	2752.47
410.64	2764.17
410.83	2661.19
411.02	2913.97
411.21	2855.45
411.40	2813.32
411.59	2871.84
411.78	2850.77
411.98	2911.63
412.17	3016.95
412.36	3000.57
412.55	2953.76
412.74	3000.57
412.93	3122.27
413.12	3080.14
413.31	3246.32
413.50	3227.60
413.69	3330.58
413.88	3283.77
414.07	3389.10
414.26	3332.92
414.45	3115.25
414.64	3433.57
414.83	3440.59
415.02	3421.86
415.22	3389.10
415.41	3452.29
415.60	3485.06
415.79	3492.08
415.98	3557.61
416.17	3637.19
416.36	3543.57
416.55	3712.09
416.74	3604.42
416.93	3651.24
417.12	3815.07
417.31	3932.10
417.50	3861.88
417.69	3796.35
417.88	4023.38
418.07	3922.74
418.26	3948.48
418.45	4025.72
418.64	3929.76
418.83	4039.76
419.02	4032.74
419.21	4154.45
419.39	4128.70
419.58	3988.27
419.77	4269.14
419.96	4187.22
420.15	4182.54
420.34	4173.18
420.53	4266.80
420.72	4238.71
420.91	4276.16
421.10	4430.63
421.29	4390.84
421.48	4241.05
421.67	4411.91
421.86	4409.57
422.05	4587.45
422.24	4510.21
422.43	4402.55
422.61	4503.19
422.80	4512.55
422.99	4505.53
423.18	4468.08
423.37	4479.79
423.56	4547.66
423.75	4510.21
423.94	4358.08
424.13	4224.67
424.32	4360.42
424.50	4533.62
424.69	4690.43
424.88	4622.56
425.07	4334.67
425.26	4564.04
425.45	4517.23
425.64	4552.34
425.83	4620.22
426.01	4669.37
426.20	4662.35
426.39	4564.04
426.58	4596.81
426.77	4538.30
426.96	4863.63
427.15	4692.77
427.33	4709.16
427.52	4723.20
427.71	4807.46
427.90	4849.59
428.09	4924.49
428.28	4807.46
428.46	5069.60
428.65	4933.85
428.84	5025.13
429.03	5205.35
429.22	5008.75
429.40	5008.75
429.59	4985.34
429.78	4938.53
429.97	4978.32
430.16	4858.95
430.34	5097.69
430.53	5179.61
430.72	5247.48
430.91	5294.29
431.10	5275.57
431.28	5334.08
431.47	5273.23
431.66	5378.55
431.85	5275.57
432.03	5404.30
432.22	5526.00
432.41	5514.30
432.60	5540.05
432.79	5455.79
432.97	5479.19
433.16	5483.88
433.35	5469.83
433.54	5549.41
433.72	5717.93
433.91	5591.54
434.10	5671.12
434.28	5811.55
434.47	5654.73
434.66	5818.57
434.85	5818.57
435.03	5841.98
435.22	5689.84
435.41	6179.01
435.59	5933.26
435.78	5888.79
435.97	5795.17
436.16	5872.40
436.34	5919.21
436.53	5879.43
436.72	6083.05
436.90	5970.71
437.09	5856.02
437.28	6008.16
437.46	6026.88
437.65	6057.31
437.84	6076.03
438.02	6200.08
438.21	6310.08
438.40	6183.70
438.58	6396.68
438.77	6480.94
438.96	6403.71
439.14	6464.56
439.33	6541.80
439.52	6502.01
439.70	6799.26
439.89	6686.91
440.08	6792.23
440.26	6885.86
440.45	6867.13
440.63	6951.39
440.82	7077.78
441.01	6963.09
441.19	6949.05
441.38	7110.55
441.57	7082.46
441.75	6998.20
441.94	7283.75
442.12	7183.10
442.31	7435.88
442.50	7433.54
442.68	7447.58
442.87	7442.90
443.05	7307.15
443.24	7646.53
443.43	7756.54
443.61	7576.31
443.80	7889.95
443.98	7524.82
444.17	7417.16
444.35	7714.41
444.54	7728.45
444.73	7775.26
444.91	7777.60
445.10	7669.94
445.28	7662.91
445.47	7768.24
445.65	7688.66
445.84	7770.58
446.02	7894.63
446.21	7735.47
446.39	7836.11
446.58	7925.05
446.77	7887.61
446.95	7672.28
447.14	7873.56
447.32	8091.23
447.51	7719.09
447.69	7793.98
447.88	7943.78
448.06	8023.36
448.25	7815.05
448.43	7868.88
448.62	8119.32
448.80	8028.04
448.99	8147.40
449.17	8250.39
449.36	8018.68
449.54	8168.47
449.73	8358.05
449.91	8145.06
450.10	8222.30
450.28	8332.31
450.46	8257.41
450.65	8521.89
450.83	8369.76
451.02	8145.06
451.20	8475.08
451.39	8461.04
451.57	8360.39
451.76	8465.72
451.94	8482.10
452.13	8575.72
452.31	8798.07
452.49	8561.68
452.68	8730.20
452.86	8711.47
453.05	8709.13
453.23	8807.44
453.42	8568.70
453.60	8805.10
453.78	8854.25
453.97	8723.18
454.15	8812.12
454.34	8912.76
454.52	9226.39
454.70	9001.70
454.89	9036.81
455.07	9001.70
455.26	8919.78
455.44	9256.82
455.62	9083.62
455.81	9125.75
455.99	9383.21
456.17	9291.93
456.36	9284.91
456.54	9490.87
456.73	9703.86
456.91	9715.56
457.09	9366.82
457.28	9865.36
457.46	9624.28
457.64	9888.76
457.83	9694.50
458.01	9565.77
458.19	9687.48
458.38	9689.82
458.56	9886.42
458.74	10246.87
458.93	10015.15
459.11	9912.17
459.29	10017.49
459.48	10134.52
459.66	10026.86
459.84	10101.75
460.03	10338.15
460.21	10284.31
460.39	10403.68
460.57	10078.35
460.76	10118.14
460.94	10377.94
461.12	10127.50
461.31	10569.86
461.49	10438.79
461.67	10326.44
461.85	10654.12
462.04	10480.92
462.22	11241.59
462.40	10876.47
462.59	10759.44
462.77	10757.10
462.95	10906.90
463.13	10656.46
463.32	10766.46
463.50	10949.03
463.68	11009.88
463.86	10850.72
464.05	10937.32
464.23	11110.52
464.41	11059.03
464.59	10918.60
464.78	10953.71
464.96	11122.23
465.14	11112.86
465.32	11176.06
465.50	11515.44
465.69	11220.53
465.87	11253.30
466.05	11166.70
466.23	11283.72
466.41	11328.19
466.60	11903.96
466.78	11377.34
466.96	11367.98
467.14	11208.83
467.32	11405.43
467.51	11648.85
467.69	11211.17
467.87	11604.38
468.05	11644.17
468.23	11414.79
468.41	11412.45
468.60	11552.88
468.78	11793.96
468.96	11499.05
469.14	11829.07
469.32	12140.36
469.50	11882.90
469.69	12170.79
469.87	12203.55
470.05	12287.81
470.23	12278.45
470.41	12159.08
470.59	12477.40
470.77	12088.87
470.95	12482.08
471.14	12468.03
471.32	12465.69
471.50	12643.57
471.68	12702.09
471.86	12678.68
472.04	12847.20
472.22	13041.46
472.40	12795.71
472.58	13160.83
472.77	12936.14
472.95	13287.22
473.13	13696.82
473.31	13132.75
473.49	13057.85
473.67	13390.20
473.85	13191.26
474.03	13612.56
474.21	13352.76
474.39	13806.82
474.57	13797.46
474.75	13809.16
474.93	13963.64
475.12	13926.19
475.30	14251.52
475.48	13834.91
475.66	14174.28
475.84	13961.30
476.02	14338.12
476.20	14312.38
476.38	14483.24
476.56	15075.39
476.74	14679.84
476.92	14771.12
477.10	14773.46
477.28	15077.73
477.46	15243.91
477.64	15272.00
477.82	15536.48
478.00	15676.91
478.18	15913.30
478.36	16051.39
478.54	15819.68
478.72	16112.25
478.90	16350.98
479.08	15999.90
479.26	16662.27
479.44	16629.51
479.62	16519.50
479.80	16753.55
479.98	16978.25
480.16	16985.27
480.34	17160.81
480.52	17532.95
480.70	17348.05
480.88	17130.38
481.06	17544.66
481.24	17458.06
481.41	17809.14
481.59	18085.32
481.77	18118.09
481.95	18108.72
482.13	18366.18
482.31	18375.55
482.49	18590.88
482.67	18796.84
482.85	19140.90
483.03	19309.42
483.21	19599.65
483.39	19456.87
483.57	19470.92
483.74	19955.41
483.92	20004.56
484.10	19800.93
484.28	20308.83
484.46	20238.61
484.64	20879.92
484.82	20327.55
485.00	21034.39
485.18	21165.46
485.35	21446.33
485.53	21586.76
485.71	21448.67
485.89	21722.51
486.07	21766.98
486.25	21825.50
486.43	22115.72
486.61	22199.98
486.78	22511.27
486.96	22588.51
487.14	23131.51
487.32	22974.70
487.50	23276.63
487.68	23529.41
487.85	23651.11
488.03	23838.36
488.21	24163.69
488.39	24051.34
488.57	24444.56
488.75	24402.43
488.92	25242.68
489.10	24734.78
489.28	25130.33
489.46	25582.06
489.64	25511.84
489.81	25778.66
489.99	25743.55
490.17	25776.32
490.35	26338.05
490.53	26492.52
490.70	26506.57
490.88	26675.09
491.06	26869.35
491.24	26749.98
491.41	27016.80
491.59	27414.69
491.77	27756.41
491.95	27711.94
492.13	27709.60
492.30	27833.65
492.48	27875.78
492.66	27857.06
492.84	28545.17
493.01	28973.49
493.19	28797.95
493.37	29151.37
493.54	28959.45
493.72	29495.43
493.90	29586.71
494.08	29799.70
494.25	30298.23
494.43	30300.58
494.61	30848.26
494.79	30295.89
494.96	30728.89
495.14	30218.66
495.32	31056.57
495.49	30742.94
495.67	31189.98
495.85	31431.05
496.02	31945.97
496.20	31386.58
496.38	31721.28
496.55	31838.31
496.73	32601.32
496.91	32540.47
497.09	32762.82
497.26	32919.63
497.44	32912.61
497.62	33156.03
497.79	33504.77
497.97	33312.84
498.14	33441.57
498.32	34017.35
498.50	34036.07
498.67	34302.89
498.85	34190.55
499.03	34586.10
499.20	34506.52
499.38	34487.79
499.56	34665.67
499.73	34855.26
499.91	34925.47
500.08	35414.65
500.26	34944.20
500.44	35363.15
500.61	35475.50
500.79	35538.69
500.97	35880.41
501.14	36114.47
501.32	35964.67
501.49	36217.45
501.67	36088.72
501.84	36383.63
502.02	36617.68
502.20	36964.08
502.37	37488.36
502.55	37427.51
502.72	37067.06
502.90	37113.87
503.07	36762.79
503.25	37631.13
503.43	37436.87
503.60	37633.47
503.78	37560.92
503.95	37752.84
504.13	37483.68
504.30	38148.39
504.48	38087.54
504.65	38632.88
504.83	38705.44
505.01	38817.78
505.18	38726.50
505.36	39082.27
505.53	38543.94
505.71	38885.66
505.88	39225.04
506.06	38873.96
506.23	39669.74
506.41	39590.16
506.58	39494.20
506.76	39658.04
506.93	39746.98
507.11	39742.30
507.28	39917.84
507.46	40287.64
507.63	40130.83
507.81	40491.27
507.98	40718.30
508.16	40683.19
508.33	40648.08
508.50	40484.25
508.68	41195.77
508.85	41312.80
509.03	41282.37
509.20	41572.60
509.38	41596.00
509.55	41539.83
509.73	41706.01
509.90	42124.96
510.08	41675.58
510.25	42106.24
510.42	42459.66
510.60	42653.92
510.77	42674.99
510.95	42946.49
511.12	42754.57
511.30	42635.20
511.47	42958.19
511.64	43274.16
511.82	43461.41
511.99	43393.53
512.17	43529.28
512.34	43414.60
512.51	43966.96
512.69	43679.08
512.86	43587.80
513.04	43936.54
513.21	44247.83
513.38	44170.59
513.56	44233.78
513.73	43861.64
513.90	44392.94
514.08	44079.31
514.25	44898.50
514.43	44652.74
514.60	45212.13
514.77	44877.43
514.95	45443.84
515.12	44608.27
515.29	44900.84
515.47	45343.20
515.64	45724.71
515.81	45481.29
515.99	45713.00
516.16	45743.43
516.33	45928.33
516.51	45703.64
516.68	45748.11
516.85	46326.22
517.03	46021.95
517.20	46590.70
517.37	46590.70
517.54	46342.61
517.72	46312.18
517.89	46340.27
518.06	46553.26
518.24	46464.32
518.41	46658.58
518.58	46909.02
518.75	47054.13
518.93	47185.20
519.10	47299.89
519.27	47026.04
519.45	47255.42
519.62	47285.84
519.79	47576.07
519.96	47428.62
520.14	47433.30
520.31	47405.21
520.48	48226.74
520.65	47995.03
520.83	47929.49
521.00	47997.37
521.17	47859.27
521.34	48444.41
521.52	48519.31
521.69	48442.07
521.86	48865.70
522.03	48893.79
522.20	48512.28
522.38	48966.35
522.55	48638.67
522.72	48919.54
522.89	48512.28
523.07	48945.28
523.24	49017.84
523.41	49308.07
523.58	48818.89
523.75	49315.09
523.92	49123.16
524.10	49584.25
524.27	49808.94
524.44	49876.82
524.61	50199.81
524.78	49731.70
524.96	49986.82
525.13	49698.94
525.30	50019.59
525.47	49769.15
525.64	50103.85
525.81	50319.18
525.98	50354.29
526.16	50237.26
526.33	50389.39
526.50	51035.38
526.67	50546.21
526.84	50513.44
527.01	50499.40
527.18	51016.66
527.36	50824.73
527.53	51215.60
527.70	51405.19
527.87	51100.92
528.04	50815.37
528.21	51276.46
528.38	50815.37
528.55	51320.93
528.72	51171.13
528.89	51175.81
529.07	51164.11
529.24	51552.64
529.41	51236.67
529.58	51068.15
529.75	51463.70
529.92	51423.91
530.09	51358.38
530.26	51538.60
530.43	51774.99
530.60	51374.76
530.77	51770.31
530.94	51927.13
531.11	51641.58
531.28	51536.26
531.46	51737.54
531.63	51929.47
531.80	52266.50
531.97	52416.30
532.14	52320.34
532.31	52196.29
532.48	52371.83
532.65	52446.72
532.82	52645.67
532.99	52409.28
533.16	52292.25
533.33	52680.78
533.50	53010.79
533.67	52704.18
533.84	52591.84
534.01	52776.74
534.18	52711.20
534.35	53003.77
534.52	52868.02
534.69	53102.07
534.86	53064.63
535.03	52774.40
535.20	53130.16
535.37	52954.62
535.54	53324.43
535.71	52980.37
535.88	53279.96
536.05	53347.83
536.22	53516.35
536.38	53675.51
536.55	53602.95
536.72	53322.08
536.89	53226.12
537.06	53310.38
537.23	53703.59
537.40	53570.18
537.57	53427.41
537.74	53717.64
537.91	54010.20
538.08	54169.36
538.25	53602.95
538.42	53673.16
538.59	53778.49
538.75	53539.75
538.92	54066.38
539.09	53942.33
539.26	54120.21
539.43	54272.34
539.60	54316.81
539.77	54145.95
539.94	54454.90
540.11	54211.49
540.28	54145.95
540.44	54164.68
540.61	54387.03
540.78	54480.65
540.95	54593.00
541.12	54466.61
541.29	54562.57
541.46	54188.08
541.62	54471.29
541.79	54618.74
541.96	54328.52
542.13	54574.27
542.30	54693.64
542.47	54904.29
542.63	54789.60
542.80	54911.31
542.97	54918.33
543.14	54850.45
543.31	54918.33
543.48	55011.95
543.64	55337.29
543.81	55356.01
543.98	55276.43
544.15	55194.51
544.32	55585.38
544.48	55774.97
544.65	55231.96
544.82	55210.90
544.99	55386.44
545.16	55515.17
545.32	55231.96
545.49	55711.77
545.66	55744.54
545.83	55786.67
546.00	55702.41
546.16	55622.83
546.33	55409.84
546.50	55339.63
546.67	55442.61
546.83	55372.39
547.00	55613.47
547.17	55922.42
547.34	55821.78
547.50	55889.65
547.67	56095.62
547.84	55763.26
548.00	55873.27
548.17	55948.17
548.34	55950.51
548.51	56243.07
548.67	56107.32
548.84	55992.64
549.01	56226.69
549.18	56095.62
549.34	56301.59
549.51	56299.25
549.68	56336.69
549.84	56086.26
550.01	56346.06
550.18	55966.89
550.34	56411.59
550.51	56406.91
550.68	56425.64
550.84	56245.41
551.01	56027.74
551.18	56266.48
551.34	56350.74
551.51	56348.40
551.68	56659.69
551.84	56540.32
552.01	56526.28
552.18	56774.37
552.34	56484.15
552.51	56830.55
552.68	56437.34
552.84	56713.52
553.01	56687.78
553.18	56640.96
553.34	56853.95
553.51	56664.37
553.67	56860.97
553.84	56992.04
554.01	56823.53
554.17	56982.68
554.34	57106.73
554.51	57085.67
554.67	57057.58
554.84	57132.48
555.00	57003.75
555.17	57020.13
555.33	56989.70
555.50	56860.97
555.67	57066.94
555.83	57076.30
556.00	57078.64
556.16	57167.58
556.33	57293.97
556.50	57125.46
556.66	57111.41
556.83	57151.20
556.99	57429.72
557.16	57623.99
557.32	57345.47
557.49	57436.75
557.65	57270.57
557.82	57371.21
557.98	57268.23
558.15	57471.85
558.32	57532.71
558.48	57467.17
558.65	57785.49
558.81	57359.51
558.98	57574.84
559.14	57357.17
559.31	57418.02
559.47	57677.82
559.64	57598.24
559.80	57876.77
559.97	57825.28
560.13	57628.67
560.30	57668.46
560.46	57738.68
560.63	57771.44
560.79	57656.76
560.96	57818.25
561.12	57904.85
561.29	57607.61
561.45	57783.15
561.61	57998.48
561.78	57719.95
561.94	57874.43
562.11	57851.02
562.27	57790.17
562.44	57799.53
562.60	57673.14
562.77	57818.25
562.93	57977.41
563.10	58134.23
563.26	57858.04
563.42	57916.56
563.59	57876.77
563.75	58021.88
563.92	58298.06
564.08	58026.56
564.24	57895.49
564.41	57989.11
564.57	58049.97
564.74	57968.05
564.90	58047.63
565.07	58108.48
565.23	58424.45
565.39	58094.44
565.56	58113.16
565.72	57776.12
565.88	58007.84
566.05	58150.61
566.21	57818.25
566.38	57918.90
566.54	58159.97
566.70	58213.80
566.87	58663.19
567.03	58239.55
567.19	58532.12
567.36	58429.13
567.52	58225.51
567.68	58405.73
567.85	58178.70
568.01	58337.85
568.17	58277.00
568.34	58326.15
568.50	58539.14
568.66	58309.77
568.83	58405.73
568.99	58141.25
569.15	58192.74
569.32	58342.53
569.48	58085.07
569.64	58431.47
569.81	58405.73
569.97	58225.51
570.13	58394.03
570.30	58302.74
570.46	58581.27
570.62	58351.90
570.78	58466.58
570.95	58190.40
571.11	58599.99
571.27	58340.19
571.43	58457.22
571.60	58599.99
571.76	58642.12
571.92	58471.26
572.09	58585.95
572.25	58625.74
572.41	58745.11
572.57	58677.23
572.74	58731.06
572.90	58356.58
573.06	58522.76
573.22	58255.93
573.38	58599.99
573.55	58363.60
573.71	58927.67
573.87	58653.82
574.03	58480.63
574.20	58571.91
574.36	58403.39
574.52	58522.76
574.68	58518.07
574.84	58562.54
575.01	58796.60
575.17	58770.85
575.33	58499.35
575.49	58527.44
575.65	58644.46
575.82	58688.93
575.98	58639.78
576.14	58677.23
576.30	58562.54
576.46	58632.76
576.62	58618.72
576.79	58506.37
576.95	58562.54
577.11	58780.21
577.27	58770.85
577.43	58628.08
577.59	58672.55
577.75	58639.78
577.92	58396.37
578.08	58548.50
578.24	58735.74
578.40	58812.98
578.56	58717.02
578.72	58822.34
578.88	58873.84
579.04	58787.24
579.21	58805.96
579.37	58698.30
579.53	58798.94
579.69	58478.28
579.85	58733.40
580.01	58742.77
580.17	58599.99
580.33	58674.89
580.49	58901.92
580.65	58885.54
580.82	58812.98
580.98	58866.81
581.14	58887.88
581.30	58880.86
581.46	58698.30
581.62	58721.70
581.78	58674.89
581.94	58831.71
582.10	58747.45
582.26	58841.07
582.42	58820.00
582.58	58932.35
582.74	58937.03
582.90	58969.80
583.06	58805.96
583.22	58815.32
583.38	58677.23
583.54	58726.38
583.70	58747.45
583.86	58958.09
584.02	58688.93
584.18	59014.27
584.34	58969.80
584.50	58775.53
584.66	58951.07
584.82	58808.30
584.98	58878.52
585.14	58969.80
585.30	58712.34
585.46	58794.26
585.62	58726.38
585.78	58937.03
585.94	58784.90
586.10	58862.13
586.26	58829.37
586.42	58993.20
586.58	59089.16
586.74	59051.72
586.90	58635.10
587.06	58775.53
587.22	59002.56
587.38	58857.45
587.54	58915.96
587.70	59124.27
587.86	59093.85
588.02	59091.51
588.18	59236.62
588.34	59009.59
588.49	58728.72
588.65	58656.17
588.81	58859.79
588.97	58974.48
589.13	59091.51
589.29	58890.22
589.45	59009.59
589.61	59061.08
589.77	59171.08
589.93	59175.76
590.08	59147.68
590.24	59227.26
590.40	59201.51
590.56	59208.53
590.72	59168.74
590.88	58983.84
591.04	59049.38
591.20	59295.13
591.35	59449.61
591.51	59646.21
591.67	59351.30
591.83	59316.20
591.99	59220.23
592.15	59166.40
592.31	59325.56
592.46	59185.13
592.62	59264.70
592.78	59220.23
592.94	59313.86
593.10	59229.60
593.26	59363.01
593.41	59302.15
593.57	59360.67
593.73	59236.62
593.89	59152.36
594.05	59334.92
594.20	59068.10
594.36	59276.41
594.52	59281.09
594.68	59238.96
594.84	59114.91
594.99	59447.27
595.15	59363.01
595.31	59461.31
595.47	59601.74
595.62	59550.25
595.78	59299.81
595.94	59465.99
596.10	59440.24
596.25	59192.15
596.41	59379.39
596.57	58880.86
596.73	59388.75
596.88	59222.58
597.04	59470.67
597.20	59337.26
597.36	59367.69
597.51	59400.46
597.67	59271.73
597.83	59255.34
597.99	59419.18
598.14	59150.02
598.30	59241.30
598.46	59281.09
598.61	59180.45
598.77	59171.08
598.93	59543.23
599.09	59480.03
599.24	59501.10
599.40	59370.03
599.56	59386.41
599.71	59430.88
599.87	59304.49
600.03	59414.50
600.18	59318.54
600.34	59346.62
600.50	59414.50
600.65	59440.24
600.81	59611.10
600.97	59681.32
601.12	59608.76
601.28	59578.34
601.44	59451.95
601.59	59475.35
601.75	59414.50
601.91	59470.67
602.06	59316.20
602.22	59281.09
602.37	59391.09
602.53	59531.53
602.69	59683.66
602.84	59473.01
603.00	59487.06
603.16	59400.46
603.31	59423.86
603.47	59384.07
603.62	59526.84
603.78	59414.50
603.94	59311.52
604.09	59269.39
604.25	59451.95
604.40	59456.63
604.56	59442.59
604.71	59683.66
604.87	59274.07
605.03	59423.86
605.18	59433.22
605.34	59348.96
605.49	59035.33
605.65	59299.81
605.80	59145.34
605.96	59515.14
606.12	59374.71
606.27	59456.63
606.43	59105.55
606.58	59498.76
606.74	59463.65
606.89	59412.16
607.05	59599.40
607.20	59416.84
607.36	59353.65
607.51	59346.62
607.67	59222.58
607.82	59334.92
607.98	59100.87
608.13	59393.43
608.29	59519.82
608.44	59405.14
608.60	59370.03
608.75	59381.73
608.91	59416.84
609.06	59185.13
609.22	59363.01
609.37	59187.47
609.53	59082.14
609.68	59135.98
609.84	59138.32
609.99	59124.27
610.15	59238.96
610.30	59379.39
610.46	59068.10
610.61	59159.38
610.76	59318.54
610.92	59435.56
611.07	59201.51
611.23	59262.36
611.38	59093.85
611.54	59086.82
611.69	58983.84
611.84	59304.49
612.00	58873.84
612.15	59086.82
612.31	59131.29
612.46	59131.29
612.62	59133.63
612.77	59164.06
612.92	59152.36
613.08	59100.87
613.23	59023.63
613.39	59107.89
613.54	58911.28
613.69	58822.34
613.85	58794.26
614.00	58962.78
614.15	59014.27
614.31	59082.14
614.46	59086.82
614.62	59075.12
614.77	59229.60
614.92	59068.10
615.08	59042.35
615.23	58859.79
615.38	58859.79
615.54	58731.06
615.69	58693.61
615.84	58796.60
616.00	58866.81
616.15	58958.09
616.30	58925.33
616.46	58937.03
616.61	58925.33
616.76	59023.63
616.92	58850.43
617.07	58906.60
617.22	58878.52
617.37	58862.13
617.53	58894.90
617.68	58712.34
617.83	58602.33
617.99	58562.54
618.14	58471.26
618.29	58810.64
618.45	58773.19
618.60	58810.64
618.75	58590.63
618.90	58899.58
619.06	58468.92
619.21	58499.35
619.36	58864.47
619.51	58513.39
619.67	58181.04
619.82	58372.96
619.97	58518.07
620.12	58298.06
620.28	58438.50
620.43	58602.33
620.58	58782.55
620.73	58562.54
620.89	58408.07
621.04	58497.01
621.19	58691.27
621.34	58471.26
621.49	58251.25
621.65	58291.04
621.80	58433.81
621.95	58445.52
622.10	58515.73
622.25	58190.40
622.41	58412.75
622.56	58342.53
622.71	58597.65
622.86	58309.77
623.01	58501.69
623.16	58387.00
623.32	58066.35
623.47	58152.95
623.62	58082.73
623.77	58080.39
623.92	58255.93
624.07	58157.63
624.23	58234.87
624.38	58377.64
624.53	58347.21
624.68	58209.12
624.83	58192.74
624.98	58150.61
625.13	57970.39
625.29	58042.95
625.44	58248.91
625.59	57928.26
625.74	57794.85
625.89	57808.89
626.04	57946.98
626.19	57785.49
626.34	57872.09
626.49	57883.79
626.65	57794.85
626.80	57909.53
626.95	57851.02
627.10	57883.79
627.25	57645.05
627.40	57764.42
627.55	57715.27
627.70	57537.39
627.85	57703.57
628.00	57525.69
628.15	57652.08
628.30	57640.37
628.45	57659.10
628.60	57631.01
628.76	57659.10
628.91	57675.48
629.06	57680.16
629.21	57649.74
629.36	57680.16
629.51	57759.74
629.66	57535.05
629.81	57301.00
629.96	57457.81
630.11	57462.49
630.26	57631.01
630.41	57357.17
630.56	57406.32
630.71	57773.78
630.86	57897.83
631.01	57336.10
631.16	57441.43
631.31	57373.55
631.46	57289.29
631.61	57343.12
631.76	57153.54
631.91	57296.31
632.06	56996.73
632.21	57179.29
632.36	57336.10
632.51	56933.53
632.66	57162.90
632.81	57020.13
632.96	57469.51
633.10	57048.22
633.25	57371.21
633.40	57057.58
633.55	57123.11
633.70	57109.07
633.85	56868.00
634.00	56697.14
634.15	56868.00
634.30	56966.30
634.45	56872.68
634.60	56945.23
634.75	57148.86
634.90	57127.80
635.05	57275.25
635.19	56872.68
635.34	57153.54
635.49	56994.39
635.64	56823.53
635.79	57134.82
635.94	56795.44
636.09	56783.74
636.24	56643.30
636.39	56722.88
636.53	56793.10
636.68	56879.70
636.83	56676.07
636.98	57003.75
637.13	56664.37
637.28	56589.47
637.43	56956.94
637.57	56786.08
637.72	56743.95
637.87	56563.73
638.02	56629.26
638.17	56802.46
638.32	56470.11
638.46	56442.02
638.61	56505.21
638.76	56343.72
638.91	56479.47
639.06	56584.79
639.20	56563.73
639.35	56570.75
639.50	56718.20
639.65	56322.65
639.80	56652.67
639.94	56573.09
640.09	56404.57
640.24	56481.81
640.39	56397.55
640.54	56219.67
640.68	56360.10
640.83	56537.98
640.98	56530.96
641.13	56128.39
641.27	56360.10
641.42	56114.34
641.57	56231.37
641.72	55950.51
641.86	56306.27
642.01	55941.14
642.16	55894.33
642.31	56130.73
642.45	56048.81
642.60	55852.20
642.75	55938.80
642.90	55840.50
643.04	56076.90
643.19	55877.95
643.34	56020.72
643.48	55913.06
643.63	56140.09
643.78	55957.53
643.93	56072.21
644.07	55845.18
644.22	55763.26
644.37	55690.71
644.51	55800.71
644.66	55789.01
644.81	55721.13
644.95	56009.02
645.10	55873.27
645.25	55751.56
645.39	55863.91
645.54	55934.12
645.69	55805.39
645.83	55992.64
645.98	55833.48
646.13	56147.11
646.27	55796.03
646.42	55765.60
646.57	55798.37
646.71	55828.80
646.86	55615.81
647.00	55756.24
647.15	55409.84
647.30	55409.84
647.44	55585.38
647.59	55529.21
647.74	55400.48
647.88	55585.38
648.03	55585.38
648.17	55697.73
648.32	55641.56
648.47	55648.58
648.61	55358.35
648.76	55414.52
648.90	55264.73
649.05	55407.50
649.20	55482.40
649.34	55409.84
649.49	54915.99
649.63	55381.76
649.78	55487.08
649.92	55215.58
650.07	55370.05
650.21	55035.36
650.36	55629.85
650.51	55231.96
650.65	55358.35
650.80	55126.64
650.94	54892.58
651.09	55007.27
651.23	54927.69
651.38	54843.43
651.52	54859.82
651.67	54808.32
651.81	54962.80
651.96	55320.90
652.10	55143.02
652.25	55065.78
652.39	55175.79
652.54	55299.84
652.68	55281.11
652.83	55136.00
652.97	54927.69
653.12	54773.22
653.26	54869.18
653.41	54773.22
653.55	54862.16
653.70	54604.70
653.84	54618.74
653.99	54850.45
654.13	54534.48
654.27	54735.77
654.42	54593.00
654.56	54356.60
654.71	54522.78
654.85	54609.38
655.00	54960.46
655.14	54499.37
655.29	54443.20
655.43	54660.87
655.57	54417.46
655.72	54047.65
655.86	54237.23
656.01	54262.98
656.15	54288.73
656.30	54480.65
656.44	54424.48
656.58	54426.82
656.73	54281.70
656.87	54525.12
657.01	54181.06
657.16	54305.11
657.30	54145.95
657.45	54473.63
657.59	54213.83
657.73	54080.42
657.88	54047.65
658.02	53694.23
658.16	53939.99
658.31	53764.45
658.45	53837.00
658.60	53907.22
658.74	54206.81
658.88	53883.81
659.03	53640.40
659.17	53712.95
659.31	53734.02
659.46	53734.02
659.60	54082.76
659.74	53808.92
659.89	53773.81
660.03	53698.91
660.17	53717.64
660.32	53422.73
660.46	53586.57
660.60	53553.80
660.74	53237.83
660.89	53677.85
661.03	53359.53
661.17	53183.99
661.32	53221.44
661.46	53146.54
661.60	53422.73
661.74	53113.78
661.89	53427.41
662.03	53315.06
662.17	53205.06
662.31	53071.65
662.46	53223.78
662.60	52846.96
662.74	53048.24
662.88	52582.48
663.03	52662.05
663.17	52886.74
663.31	52884.40
663.45	52715.89
663.60	52809.51
663.74	52931.22
663.88	52676.10
664.02	52605.88
664.17	52821.21
664.31	52615.24
664.45	52596.52
664.59	52839.93
664.73	52502.90
664.88	52823.55
665.02	52147.14
665.16	52076.92
665.30	52399.91
665.44	52432.68
665.59	52292.25
665.73	52158.84
665.87	52222.03
666.01	52390.55
666.15	52023.09
666.29	52093.30
666.44	52388.21
666.58	51990.32
666.72	51814.78
666.86	52009.04
667.00	51695.41
667.14	51650.94
667.28	51634.56
667.43	51683.71
667.57	51562.00
667.71	51494.13
667.85	51367.74
667.99	51374.76
668.13	51065.81
668.27	50897.29
668.41	51433.27
668.56	50897.29
668.70	50857.50
668.84	51337.31
668.98	51133.68
669.12	51203.90
669.26	50951.12
669.40	50679.62
669.54	50492.38
669.68	50717.07
669.82	50562.59
669.96	50911.33
670.10	50363.65
670.25	50611.74
670.39	50181.09
670.53	50089.80
670.67	50110.87
670.81	50511.10
670.95	50307.47
671.09	50487.70
671.23	50272.37
671.37	50468.97
671.51	50298.11
671.65	49904.90
671.79	49858.09
671.93	49832.35
672.07	49928.31
672.21	49441.48
672.35	49464.88
672.49	49186.36
672.63	49066.99
672.77	49069.33
672.91	49382.96
673.05	48769.74
673.19	49066.99
673.33	49415.73
673.47	49432.11
673.61	49095.08
673.75	49212.10
673.89	49420.41
674.03	49301.04
674.17	48533.35
674.31	48327.38
674.45	48594.20
674.59	48816.55
674.73	48133.12
674.87	48186.95
675.01	47976.30
675.15	48193.97
675.29	48409.30
675.43	48135.46
675.56	47931.83
675.70	48109.71
675.84	47962.26
675.98	46714.75
676.12	47943.53
676.26	47452.02
676.40	47393.51
676.54	47288.18
676.68	46934.76
676.82	46216.22
676.96	46405.80
677.10	46251.33
677.23	46691.35
677.37	46459.63
677.51	46307.50
677.65	46136.64
677.79	46110.89
677.93	46227.92
678.07	46230.26
678.21	46050.04
678.34	46450.27
678.48	45806.62
678.62	45371.28
678.76	45401.71
678.90	45095.10
679.04	45443.84
679.18	44816.58
679.31	44495.92
679.45	44528.69
679.59	44502.95
679.73	44856.37
679.87	44500.61
680.00	44224.42
680.14	44643.38
680.28	44287.62
680.42	43800.79
680.56	44048.88
680.70	43863.98
680.83	44198.68
680.97	43899.09
681.11	43751.63
681.25	43723.55
681.39	43225.01
681.52	43182.88
681.66	42768.61
681.80	42602.43
681.94	42674.99
682.07	42777.97
682.21	42134.32
682.35	42614.13
682.49	42426.89
682.62	42515.83
682.76	42326.25
682.90	42237.31
683.04	41516.42
683.17	42103.90
683.31	41773.88
683.45	41825.37
683.59	41471.95
683.72	41242.58
683.86	41195.77
684.00	41392.37
684.13	40650.42
684.27	40683.19
684.41	40636.38
684.55	40526.38
684.68	40612.98
684.82	39566.76
684.96	40144.87
685.09	39936.56
685.23	40069.97
685.37	39847.62
685.50	40432.75
685.64	39899.11
685.78	39524.63
685.91	39819.53
686.05	39798.47
686.19	39014.39
686.32	39379.51
686.46	38785.02
686.60	38583.73
686.73	38581.39
686.87	38323.93
687.01	38375.42
687.14	38366.06
687.28	38527.56
687.42	37783.27
687.55	37813.70
687.69	38106.26
687.82	37937.74
687.96	38167.12
688.10	37619.43
688.23	38022.00
688.37	37642.84
688.50	37823.06
688.64	37851.14
688.78	37305.80
688.91	37343.25
689.05	36987.49
689.18	36390.65
689.32	35983.40
689.46	36107.44
689.59	36006.80
689.73	36119.15
689.86	35620.61
690.00	35768.07
690.13	35737.64
690.27	35857.01
690.41	35522.31
690.54	35101.01
690.68	35424.01
690.81	35157.19
690.95	35035.48
691.08	35466.14
691.22	35007.39
691.35	34539.29
691.49	34834.19
691.62	34941.86
691.76	34763.98
691.89	33542.22
692.03	33706.05
692.16	33869.89
692.30	33537.54
692.43	33598.39
692.57	33404.13
692.70	33153.69
692.84	33263.69
692.97	33230.93
693.11	32716.01
693.24	32954.74
693.38	32699.62
693.51	33013.26
693.65	32680.90
693.78	32339.18
693.92	32603.66
694.05	32381.31
694.19	32039.59
694.32	31550.42
694.45	31686.17
694.59	31112.74
694.72	31077.63
694.86	31409.99
694.99	31056.57
695.13	30988.69
695.26	30799.11
695.39	30881.03
695.53	30614.21
695.66	31175.94
695.80	30738.26
695.93	30965.29
696.07	30455.05
696.20	30396.54
696.33	30209.29
696.47	30003.33
696.60	30008.01
696.73	29902.68
696.87	29057.75
697.00	29605.44
697.14	29366.70
697.27	29116.26
697.40	29191.16
697.54	28769.86
697.67	28797.95
697.80	28346.23
697.94	28699.65
698.07	28496.02
698.21	28437.51
698.34	28657.52
698.47	28404.74
698.61	27845.35
698.74	27791.52
698.87	27922.59
699.01	27756.41
699.14	27838.33
699.27	27896.85
699.40	27690.88
699.54	27049.57
699.67	27117.45
699.80	27047.23
699.94	26789.77
700.07	26761.69
700.20	26541.68
700.34	26785.09
700.47	26342.73
700.60	26457.42
700.73	26565.08
700.87	26501.89
701.00	26150.81
701.13	26019.74
701.26	25834.83
701.40	26225.70
701.53	25647.59
701.66	25703.76
701.79	25509.50
701.93	25472.05
702.06	24898.62
702.19	24851.81
702.32	24849.47
702.46	24664.57
702.59	24498.39
702.72	24453.92
702.85	24456.26
702.99	24720.74
703.12	24692.65
703.25	24547.54
703.38	24238.59
703.51	23967.09
703.65	23908.57
703.78	24002.19
703.91	23463.87
704.04	23529.41
704.17	23592.60
704.31	23452.17
704.44	23262.58
704.57	23349.18
704.70	22827.24
704.83	23014.49
704.96	22979.38
705.10	22686.81
705.23	22609.58
>>>>>End Processed Spectral Data<<<<<
