SpectraSuite Data File
++++++++++++++++++++++++++++++++++++
Date: Fri Oct 04 11:48:48 GMT-05:00 2013
User: price-jones
Dark Spectrum Present: No
Reference Spectrum Present: No
Number of Sampled Component Spectra: 1
Spectrometers: USB2+H05261
Integration Time (usec): 100000 (USB2+H05261)
Spectra Averaged: 1 (USB2+H05261)
Boxcar Smoothing: 0 (USB2+H05261)
Correct for Electrical Dark: No (USB2+H05261)
Strobe/Lamp Enabled: No (USB2+H05261)
Correct for Detector Non-linearity: No (USB2+H05261)
Correct for Stray Light: No (USB2+H05261)
Number of Pixels in Processed Spectrum: 2048
>>>>>Begin Processed Spectral Data<<<<<
365.73	35.11
365.92	35.11
366.12	35.11
366.32	0.00
366.52	0.00
366.72	0.00
366.91	0.00
367.11	0.00
367.31	0.00
367.51	0.00
367.70	4.68
367.90	0.00
368.10	0.00
368.30	0.00
368.49	0.00
368.69	0.00
368.89	0.00
369.09	0.00
369.28	0.00
369.48	9.36
369.68	0.00
369.87	0.00
370.07	0.00
370.27	28.09
370.47	81.92
370.66	238.73
370.86	250.44
371.06	318.31
371.25	227.03
371.45	227.03
371.65	322.99
371.84	236.39
372.04	252.78
372.24	369.80
372.44	327.68
372.63	271.50
372.83	330.02
373.03	330.02
373.22	322.99
373.42	327.68
373.62	262.14
373.81	348.74
374.01	337.04
374.21	337.04
374.40	299.59
374.60	330.02
374.79	346.40
374.99	411.93
375.19	400.23
375.38	353.42
375.58	369.80
375.78	447.04
375.97	449.38
376.17	477.47
376.37	386.19
376.56	402.57
376.76	290.23
376.95	395.55
377.15	383.85
377.35	421.30
377.54	404.91
377.74	404.91
377.93	344.06
378.13	393.21
378.33	404.91
378.52	463.43
378.72	482.15
378.91	449.38
379.11	411.93
379.31	437.68
379.50	437.68
379.70	463.43
379.89	472.79
380.09	440.02
380.28	433.00
380.48	486.83
380.68	407.25
380.87	425.98
381.07	449.38
381.26	449.38
381.46	425.98
381.65	456.40
381.85	482.15
382.04	414.27
382.24	533.64
382.43	479.81
382.63	444.70
382.83	486.83
383.02	416.62
383.22	526.62
383.41	482.15
383.61	519.60
383.80	535.98
384.00	507.90
384.19	449.38
384.39	517.26
384.58	493.85
384.78	521.94
384.97	608.54
385.17	580.45
385.36	531.30
385.56	617.90
385.75	514.92
385.95	540.66
386.14	564.07
386.34	493.85
386.53	559.39
386.72	533.64
386.92	587.47
387.11	500.87
387.31	603.86
387.50	571.09
387.70	564.07
387.89	613.22
388.09	559.39
388.28	580.45
388.48	610.88
388.67	610.88
388.86	664.71
389.06	557.05
389.25	624.92
389.45	631.94
389.64	582.79
389.84	667.05
390.03	557.05
390.22	624.92
390.42	587.47
390.61	641.31
390.81	564.07
391.00	587.47
391.19	662.37
391.39	667.05
391.58	720.88
391.78	704.50
391.97	688.12
392.16	629.60
392.36	692.80
392.55	753.65
392.75	812.17
392.94	650.67
393.13	758.33
393.33	702.16
393.52	699.82
393.71	744.29
393.91	660.03
394.10	681.10
394.29	809.83
394.49	842.59
394.68	772.38
394.88	791.10
395.07	884.72
395.26	858.98
395.46	784.08
395.65	898.77
395.84	849.61
396.04	887.06
396.23	870.68
396.42	784.08
396.62	870.68
396.81	842.59
397.00	835.57
397.19	945.58
397.39	910.47
397.58	912.81
397.77	898.77
397.97	910.47
398.16	877.70
398.35	912.81
398.55	924.51
398.74	1013.45
398.93	1008.77
399.12	985.37
399.32	980.68
399.51	915.15
399.70	919.83
399.90	997.07
400.09	919.83
400.28	1153.88
400.47	1088.35
400.67	1128.14
400.86	1186.65
401.05	1078.99
401.24	1086.01
401.44	1137.50
401.63	1088.35
401.82	1186.65
402.01	1160.91
402.21	1142.18
402.40	1170.27
402.59	1135.16
402.78	1256.87
402.97	1217.08
403.17	1200.69
403.36	1181.97
403.55	1191.33
403.74	1275.59
403.93	1355.17
404.13	1306.02
404.32	1249.85
404.51	1317.72
404.70	1270.91
404.89	1275.59
405.09	1371.55
405.28	1392.62
405.47	1413.68
405.66	1371.55
405.85	1413.68
406.05	1425.39
406.24	1369.21
406.43	1526.03
406.62	1462.83
406.81	1549.43
407.00	1481.56
407.20	1481.56
407.39	1603.27
407.58	1551.78
407.77	1619.65
407.96	1675.82
408.15	1666.46
408.34	1605.61
408.54	1696.89
408.73	1589.22
408.92	1806.89
409.11	1724.97
409.30	1785.83
409.49	1832.64
409.68	1774.13
409.87	1701.57
410.07	1816.26
410.26	1788.17
410.45	1907.54
410.64	1767.10
410.83	1867.75
411.02	1872.43
411.21	2054.99
411.40	1923.92
411.59	1923.92
411.78	1933.28
411.98	1949.67
412.17	1959.03
412.36	2083.08
412.55	2017.54
412.74	2052.65
412.93	2165.00
413.12	2134.57
413.31	2314.79
413.50	2165.00
413.69	2195.42
413.88	2267.98
414.07	2291.38
414.26	2289.04
414.45	2202.44
414.64	2314.79
414.83	2333.51
415.02	2286.70
415.22	2373.30
415.41	2495.01
415.60	2504.37
415.79	2441.18
415.98	2546.50
416.17	2541.82
416.36	2654.17
416.55	2551.18
416.74	2581.61
416.93	2616.72
417.12	2572.25
417.31	2569.91
417.50	2619.06
417.69	2780.56
417.88	2626.08
418.07	2698.64
418.26	2818.00
418.45	2808.64
418.64	2771.19
418.83	2839.07
419.02	2806.30
419.21	2930.35
419.39	2944.39
419.58	2942.05
419.77	2883.54
419.96	2909.29
420.15	2998.23
420.34	3005.25
420.53	2911.63
420.72	3096.53
420.91	3084.83
421.10	3131.64
421.29	3115.25
421.48	3000.57
421.67	3042.70
421.86	2993.55
422.05	3122.27
422.24	3234.62
422.43	3119.93
422.61	3021.63
422.80	3180.79
422.99	3208.87
423.18	3122.27
423.37	3124.62
423.56	3288.45
423.75	3141.00
423.94	3169.09
424.13	2993.55
424.32	3026.31
424.50	3337.60
424.69	3290.79
424.88	3262.71
425.07	3239.30
425.26	3304.84
425.45	3164.40
425.64	3206.53
425.83	3194.83
426.01	3311.86
426.20	3173.77
426.39	3260.37
426.58	3372.71
426.77	3309.52
426.96	3372.71
427.15	3463.99
427.33	3445.27
427.52	3325.90
427.71	3403.14
427.90	3433.57
428.09	3419.52
428.28	3522.51
428.46	3541.23
428.65	3581.02
428.84	3489.74
429.03	3625.49
429.22	3501.44
429.40	3627.83
429.59	3597.40
429.78	3494.42
429.97	3517.83
430.16	3529.53
430.34	3585.70
430.53	3625.49
430.72	3552.93
430.91	3611.45
431.10	3538.89
431.28	3686.34
431.47	3740.18
431.66	3709.75
431.85	3691.02
432.03	3985.93
432.22	3859.54
432.41	3880.61
432.60	3932.10
432.79	3906.35
432.97	3957.85
433.16	3864.22
433.35	3929.76
433.54	3920.40
433.72	3990.61
433.91	3885.29
434.10	3997.64
434.28	4070.19
434.47	4091.26
434.66	3999.98
434.85	4081.89
435.03	4053.81
435.22	4119.34
435.41	4257.43
435.59	4138.07
435.78	4088.92
435.97	4276.16
436.16	4306.59
436.34	4269.14
436.53	4355.74
436.72	4400.21
436.90	4187.22
437.09	4217.65
437.28	4276.16
437.46	4337.01
437.65	4248.07
437.84	4379.14
438.02	4475.10
438.21	4411.91
438.40	4423.61
438.58	4732.56
438.77	4545.32
438.96	4627.24
439.14	4697.46
439.33	4447.02
439.52	4573.41
439.70	4671.71
439.89	4793.42
440.08	4627.24
440.26	4809.80
440.45	4816.82
440.63	4947.89
440.82	4987.68
441.01	4887.04
441.19	5018.11
441.38	5083.64
441.57	5144.50
441.75	5121.09
441.94	5186.63
442.12	5118.75
442.31	5284.93
442.50	5181.95
442.68	5305.99
442.87	5305.99
443.05	5350.46
443.24	5420.68
443.43	5348.12
443.61	5455.79
443.80	5652.39
443.98	5181.95
444.17	5252.16
444.35	5352.81
444.54	5521.32
444.73	5521.32
444.91	5378.55
445.10	5320.04
445.28	5476.85
445.47	5502.60
445.65	5483.88
445.84	5500.26
446.02	5591.54
446.21	5530.69
446.39	5369.19
446.58	5771.76
446.77	5666.44
446.95	5666.44
447.14	5638.35
447.32	5638.35
447.51	5474.51
447.69	5526.00
447.88	5626.65
448.06	5692.18
448.25	5511.96
448.43	5584.52
448.62	5568.13
448.80	5706.23
448.99	5654.73
449.17	5795.17
449.36	5507.28
449.54	5928.58
449.73	5916.87
449.91	5907.51
450.10	5774.10
450.28	5886.45
450.46	5928.58
450.65	5973.05
450.83	6026.88
451.02	5916.87
451.20	6038.58
451.39	6153.27
451.57	6078.37
451.76	5987.09
451.94	6073.69
452.13	6326.47
452.31	6125.18
452.49	6026.88
452.68	6174.33
452.86	6141.57
453.05	6141.57
453.23	6153.27
453.42	6066.67
453.60	6139.23
453.78	6146.25
453.97	6310.08
454.15	6122.84
454.34	6284.34
454.52	6314.77
454.70	6403.71
454.89	6537.12
455.07	6345.19
455.26	6445.84
455.44	6511.37
455.62	6576.91
455.81	6356.90
455.99	6392.00
456.17	6424.77
456.36	6427.11
456.54	6675.21
456.73	6740.74
456.91	6906.92
457.09	6825.00
457.28	6895.22
457.46	6789.89
457.64	6956.07
457.83	7000.54
458.01	6909.26
458.19	7066.08
458.38	6839.05
458.56	7098.84
458.74	6808.62
458.93	6916.28
459.11	6846.07
459.29	6977.14
459.48	7021.61
459.66	7084.80
459.84	7108.21
460.03	7180.76
460.21	7342.26
460.39	7197.15
460.57	7009.90
460.76	7250.98
460.94	7096.50
461.12	7304.81
461.31	7302.47
461.49	7304.81
461.67	7461.63
461.85	7499.08
462.04	7414.82
462.22	7756.54
462.40	7618.44
462.59	7545.89
462.77	7534.18
462.95	7473.33
463.13	7517.80
463.32	7646.53
463.50	7758.88
463.68	7662.91
463.86	7534.18
464.05	7810.37
464.23	7538.87
464.41	7772.92
464.59	7494.40
464.78	7749.51
464.96	7763.56
465.14	7810.37
465.32	7770.58
465.50	7763.56
465.69	7915.69
465.87	7765.90
466.05	7808.03
466.23	7953.14
466.41	7948.46
466.60	8149.75
466.78	7829.09
466.96	7896.97
467.14	7957.82
467.32	8013.99
467.51	8205.92
467.69	7836.11
467.87	7967.18
468.05	8107.62
468.23	7875.90
468.41	8173.15
468.60	8042.08
468.78	8299.54
468.96	8102.93
469.14	8318.26
469.32	8362.73
469.50	8203.58
469.69	8542.96
469.87	8486.78
470.05	8491.46
470.23	8421.25
470.41	8486.78
470.59	8695.09
470.77	8655.30
470.95	8659.98
471.14	8748.92
471.32	8589.77
471.50	8805.10
471.68	8858.93
471.86	8868.29
472.04	9011.06
472.22	8990.00
472.40	8769.99
472.58	9090.64
472.77	8985.32
472.95	9043.83
473.13	9425.34
473.31	9085.96
473.49	9125.75
473.67	9151.49
473.85	9301.29
474.03	9483.85
474.21	9167.88
474.39	9507.26
474.57	9572.79
474.75	9661.73
474.93	9738.97
475.12	9523.64
475.30	9701.52
475.48	9563.43
475.66	9689.82
475.84	9811.53
476.02	9888.76
476.20	9958.98
476.38	9989.41
476.56	10239.84
476.74	10108.77
476.92	10274.95
477.10	10289.00
477.28	10569.86
477.46	10480.92
477.64	10443.47
477.82	10560.50
478.00	10768.80
478.18	10960.73
478.36	10934.98
478.54	10981.79
478.72	11007.54
478.90	10972.43
479.08	11169.04
479.26	11337.56
479.44	11372.66
479.62	11492.03
479.80	11180.74
479.98	11400.75
480.16	11702.68
480.34	11765.87
480.52	12114.61
480.70	11953.12
480.88	11758.85
481.06	12152.06
481.24	12044.40
481.41	12383.77
481.59	12498.46
481.77	12315.90
481.95	12603.78
482.13	12872.95
482.31	12791.03
482.49	12870.61
482.67	13027.42
482.85	13121.04
483.03	13057.85
483.21	13465.10
483.39	13401.91
483.57	13418.29
483.74	13760.01
483.92	13694.47
484.10	13678.09
484.28	13811.50
484.46	14132.15
484.64	14073.64
484.82	14015.13
485.00	14312.38
485.18	14590.90
485.35	14679.84
485.53	14740.69
485.71	14630.69
485.89	15068.37
486.07	15056.67
486.25	14871.76
486.43	15239.23
486.61	15169.01
486.78	15461.58
486.96	15302.42
487.14	15676.91
487.32	15566.90
487.50	16051.39
487.68	15634.78
487.85	16182.46
488.03	16360.34
488.21	16636.53
488.39	16657.59
488.57	16723.13
488.75	16989.95
488.92	17261.45
489.10	17305.92
489.28	17149.11
489.46	17502.53
489.64	17509.55
489.81	17528.27
489.99	17905.10
490.17	17874.67
490.35	17874.67
490.53	17987.02
490.70	17998.72
490.88	18214.05
491.06	18370.86
491.24	18139.15
491.41	18466.83
491.59	18707.90
491.77	18738.33
491.95	18761.73
492.13	19232.18
492.30	19183.03
492.48	19227.50
492.66	19171.33
492.84	19220.48
493.01	19896.89
493.19	19632.41
493.37	19569.22
493.54	19889.87
493.72	19686.25
493.90	20325.21
494.08	20194.14
494.25	20765.23
494.43	20503.09
494.61	20744.17
494.79	20992.26
494.96	21001.63
495.14	21177.17
495.32	21142.06
495.49	20812.04
495.67	21532.93
495.85	21720.17
496.02	21869.97
496.20	21605.49
496.38	21556.33
496.55	22080.61
496.73	22150.83
496.91	22171.89
497.09	22352.12
497.26	22588.51
497.44	22207.00
497.62	22256.15
497.79	22546.38
497.97	22822.56
498.14	22972.36
498.32	23040.23
498.50	23033.21
498.67	23159.60
498.85	22897.46
499.03	23573.88
499.20	23660.48
499.38	23742.39
499.56	23931.98
499.73	23693.24
499.91	23496.64
500.08	23885.17
500.26	23770.48
500.44	24044.32
500.61	24044.32
500.79	23821.97
500.97	24435.19
501.14	24664.57
501.32	24922.02
501.49	24570.94
501.67	24615.41
501.84	24769.89
502.02	24458.60
502.20	24699.67
502.37	25310.55
502.55	24964.15
502.72	25064.80
502.90	25099.90
503.07	25240.34
503.25	25336.30
503.43	25453.33
503.60	25663.97
503.78	25771.64
503.95	25954.20
504.13	25542.27
504.30	25914.41
504.48	26033.78
504.65	26115.70
504.83	26178.89
505.01	26574.44
505.18	26469.12
505.36	26712.53
505.53	26583.80
505.71	26616.57
505.88	26600.19
506.06	26745.30
506.23	27295.33
506.41	26946.59
506.58	27597.26
506.76	27288.31
506.93	27297.67
507.11	27314.05
507.28	27241.50
507.46	27543.42
507.63	27725.99
507.81	28189.41
507.98	27304.69
508.16	27807.90
508.33	27641.73
508.50	27953.02
508.68	28091.11
508.85	28098.13
509.03	28266.65
509.20	28348.57
509.38	28673.90
509.55	28250.27
509.73	28444.53
509.90	28428.15
510.08	28718.37
510.25	28561.56
510.42	29039.03
510.60	29010.94
510.77	29289.46
510.95	29209.89
511.12	29474.37
511.30	29153.71
511.47	29415.85
511.64	29736.51
511.82	29422.87
511.99	29429.90
512.17	29635.86
512.34	30103.97
512.51	30110.99
512.69	30010.35
512.86	29888.64
513.04	30272.49
513.21	30284.19
513.38	30405.90
513.56	30534.63
513.73	30253.76
513.90	30703.15
514.08	30857.62
514.25	30906.77
514.43	30850.60
514.60	30665.70
514.77	30984.01
514.95	31295.30
515.12	31105.72
515.29	30890.39
515.47	31000.40
515.64	31426.37
515.81	30787.41
515.99	31089.34
516.16	31590.21
516.33	31887.46
516.51	32086.40
516.68	31831.29
516.85	31297.64
517.03	32130.87
517.20	31828.95
517.37	31992.78
517.54	32044.27
517.72	32163.64
517.89	32254.92
518.06	31941.29
518.24	32074.70
518.41	32606.00
518.58	32201.09
518.75	32355.57
518.93	32638.77
519.10	32638.77
519.27	33092.83
519.45	32701.96
519.62	32325.14
519.79	33022.62
519.96	33006.23
520.14	33024.96
520.31	33156.03
520.48	33369.02
520.65	33338.59
520.83	33266.03
521.00	33216.88
521.17	33331.57
521.34	33755.21
521.52	33296.46
521.69	33656.90
521.86	34040.75
522.03	33963.51
522.20	33963.51
522.38	33738.82
522.55	33771.59
522.72	34204.59
522.89	34251.40
523.07	34359.06
523.24	34277.15
523.41	34319.28
523.58	34382.47
523.75	34466.73
523.92	34712.49
524.10	34106.29
524.27	35023.78
524.44	34939.52
524.61	35012.07
524.78	35360.81
524.96	34951.22
525.13	35051.86
525.30	34817.81
525.47	35199.32
525.64	35101.01
525.81	35161.87
525.98	35590.19
526.16	35016.75
526.33	35381.88
526.50	35318.68
526.67	35449.75
526.84	35569.12
527.01	35316.34
527.18	35585.50
527.36	35868.71
527.53	35786.79
527.70	35885.09
527.87	36285.33
528.04	35992.76
528.21	36243.20
528.38	35791.47
528.55	36245.54
528.72	36095.74
528.89	36589.59
529.07	36350.86
529.24	36531.08
529.41	36580.23
529.58	36126.17
529.75	36142.55
529.92	36102.76
530.09	36715.98
530.26	36617.68
530.43	36723.01
530.60	36556.83
530.77	36751.09
530.94	37074.09
531.11	36683.22
531.28	36856.42
531.46	36947.70
531.63	37247.29
531.80	37170.05
531.97	37270.69
532.14	37493.04
532.31	37038.98
532.48	37120.90
532.65	37219.20
532.82	37139.62
532.99	37490.70
533.16	37378.36
533.33	37895.61
533.50	38059.45
533.67	37813.70
533.84	37453.25
534.01	37755.18
534.18	37401.76
534.35	37736.46
534.52	37537.51
534.69	38022.00
534.86	38146.05
535.03	37839.44
535.20	38504.15
535.37	38263.08
535.54	38302.87
535.71	38087.54
535.88	38359.04
536.05	38178.82
536.22	38457.34
536.38	38897.36
536.55	38363.72
536.72	38756.93
536.89	38384.79
537.06	38857.57
537.23	38789.70
537.40	38354.36
537.57	38871.62
537.74	38670.33
537.91	39166.52
538.08	38986.30
538.25	38775.66
538.42	39009.71
538.59	39030.77
538.75	38426.92
538.92	38803.74
539.09	38974.60
539.26	39218.02
539.43	39196.95
539.60	39611.23
539.77	39335.04
539.94	39346.75
540.11	39573.78
540.28	39342.06
540.44	39386.54
540.61	39608.89
540.78	39328.02
540.95	39590.16
541.12	39480.16
541.29	39292.91
541.46	39491.86
541.62	39831.24
541.79	39892.09
541.96	39543.35
542.13	39746.98
542.30	39838.26
542.47	39854.64
542.63	40250.19
542.80	40170.61
542.97	40680.85
543.14	40664.47
543.31	40170.61
543.48	40369.56
543.64	40542.76
543.81	40575.53
543.98	40900.86
544.15	40666.81
544.32	41106.83
544.48	40643.40
544.65	40772.13
544.82	40938.31
544.99	40357.86
545.16	40818.94
545.32	40627.02
545.49	41109.17
545.66	41322.16
545.83	41109.17
546.00	41340.88
546.16	41209.81
546.33	40886.82
546.50	40776.81
546.67	41289.39
546.83	40629.36
547.00	41191.09
547.17	40954.69
547.34	41062.36
547.50	41375.99
547.67	41785.58
547.84	41303.43
548.00	41825.37
548.17	41525.78
548.34	41450.89
548.51	41808.99
548.67	41689.62
548.84	41853.46
549.01	41832.39
549.18	41610.04
549.34	41490.68
549.51	42005.59
549.68	41617.07
549.84	40996.82
550.01	41972.83
550.18	42019.64
550.34	42181.13
550.51	41677.92
550.68	42066.45
550.84	42003.25
551.01	42038.36
551.18	41930.70
551.34	41837.08
551.51	41598.34
551.68	42576.69
551.84	42356.67
552.01	42110.92
552.18	42377.74
552.34	42019.64
552.51	42483.06
552.68	42436.25
552.84	42223.26
553.01	42529.87
553.18	42295.82
553.34	42719.46
553.51	42220.92
553.67	42679.67
553.84	42902.02
554.01	43065.86
554.17	42696.05
554.34	42234.97
554.51	43091.60
554.67	42621.16
554.84	42995.64
555.00	42829.46
555.17	42646.90
555.33	43225.01
555.50	42955.85
555.67	42747.54
555.83	43012.02
556.00	42768.61
556.16	43044.79
556.33	42845.85
556.50	42731.16
556.66	43012.02
556.83	43126.71
556.99	43501.20
557.16	43040.11
557.32	43019.05
557.49	43386.51
557.65	42852.87
557.82	43168.84
557.98	43339.70
558.15	43187.56
558.32	43400.55
558.48	43323.32
558.65	43730.57
558.81	43304.59
558.98	43316.29
559.14	43192.25
559.31	43030.75
559.47	43346.72
559.64	43470.77
559.80	43143.09
559.97	43871.00
560.13	43370.13
560.30	43686.10
560.46	43744.61
560.63	43950.58
560.79	43276.51
560.96	43828.87
561.12	43545.67
561.29	43559.71
561.45	43482.47
561.61	43838.23
561.78	43674.40
561.94	43690.78
562.11	43533.96
562.27	43812.49
562.44	43536.30
562.60	43412.26
562.77	43473.11
562.93	43775.04
563.10	44032.50
563.26	43608.86
563.42	44165.91
563.59	43763.34
563.75	43906.11
563.92	43924.83
564.08	43608.86
564.24	43660.35
564.41	43800.79
564.57	43826.53
564.74	43775.04
564.90	44091.01
565.07	44292.30
565.23	44439.75
565.39	43938.88
565.56	43725.89
565.72	43683.76
565.88	43821.85
566.05	43681.42
566.21	43796.10
566.38	43590.14
566.54	44172.93
566.70	44074.63
566.87	44266.55
567.03	44107.40
567.19	44720.62
567.36	44123.78
567.52	43849.94
567.68	44416.35
567.85	44009.09
568.01	44505.29
568.17	44233.78
568.34	44587.21
568.50	44477.20
568.66	44058.24
568.83	44243.15
568.99	44268.89
569.15	44191.65
569.32	44479.54
569.48	43962.28
569.64	44282.94
569.81	44149.53
569.97	44147.18
570.13	44280.60
570.30	44226.76
570.46	44474.86
570.62	44147.18
570.78	44093.35
570.95	43842.92
571.11	44332.09
571.27	44116.76
571.43	44170.59
571.60	43908.45
571.76	44385.92
571.92	44479.54
572.09	44374.22
572.25	44533.37
572.41	44355.49
572.57	44397.62
572.74	44224.42
572.90	44105.06
573.06	43992.71
573.22	44456.14
573.38	44800.19
573.55	44289.96
573.71	45031.91
573.87	44905.52
574.03	44488.90
574.20	44357.83
574.36	44641.04
574.52	44376.56
574.68	44371.88
574.84	44526.35
575.01	44748.70
575.17	44264.21
575.33	44313.36
575.49	44252.51
575.65	44849.35
575.82	44392.94
575.98	44629.34
576.14	44493.58
576.30	44540.39
576.46	44589.55
576.62	44587.21
576.79	44280.60
576.95	44470.18
577.11	44177.61
577.27	44416.35
577.43	44774.45
577.59	44552.10
577.75	44509.97
577.92	44191.65
578.08	44549.76
578.24	44346.13
578.40	44538.05
578.56	44648.06
578.72	44685.51
578.88	44708.91
579.04	45200.43
579.21	44439.75
579.37	44715.93
579.53	44381.24
579.69	44500.61
579.85	44135.48
580.01	44289.96
580.17	44573.16
580.33	44524.01
580.49	44961.69
580.65	44992.12
580.82	44879.77
580.98	44631.68
581.14	44758.06
581.30	44605.93
581.46	44428.05
581.62	44603.59
581.78	44245.49
581.94	44619.97
582.10	44662.10
582.26	44865.73
582.42	44760.40
582.58	44828.28
582.74	44910.20
582.90	44781.47
583.06	44589.55
583.22	44254.85
583.38	44378.90
583.54	44706.57
583.70	44835.30
583.86	45050.63
584.02	44722.96
584.18	44634.02
584.34	44472.52
584.50	44671.46
584.66	44737.00
584.82	44526.35
584.98	44589.55
585.14	44322.72
585.30	44486.56
585.46	44961.69
585.62	44556.78
585.78	44690.19
585.94	44737.00
586.10	44729.98
586.26	45373.63
586.42	44821.26
586.58	44734.66
586.74	44863.39
586.90	44725.30
587.06	44561.46
587.22	44645.72
587.38	44591.89
587.54	44779.13
587.70	44788.49
587.86	44847.00
588.02	45385.33
588.18	44872.75
588.34	44809.56
588.49	44425.71
588.65	44722.96
588.81	44421.03
588.97	44975.73
589.13	44624.65
589.29	44996.80
589.45	45041.27
589.61	45397.03
589.77	45181.70
589.93	45029.57
590.08	45179.36
590.24	45017.86
590.40	45127.87
590.56	45102.12
590.72	44847.00
590.88	44737.00
591.04	44872.75
591.20	45263.62
591.35	45137.23
591.51	45823.01
591.67	45237.87
591.83	45258.94
591.99	45024.89
592.15	44957.01
592.31	45188.72
592.46	45059.99
592.62	45020.20
592.78	44942.97
592.94	44893.82
593.10	45177.02
593.26	45277.66
593.41	45329.16
593.57	45031.91
593.73	45413.41
593.89	45104.46
594.05	44776.79
594.20	45113.83
594.36	45193.40
594.52	44783.81
594.68	44748.70
594.84	45043.61
594.99	45242.56
595.15	45024.89
595.31	45312.77
595.47	45326.81
595.62	45111.49
595.78	44697.21
595.94	44854.03
596.10	44999.14
596.25	45099.78
596.41	44783.81
596.57	44650.40
596.73	44957.01
596.88	45158.30
597.04	45287.03
597.20	45097.44
597.36	45134.89
597.51	45378.31
597.67	45338.52
597.83	45116.17
597.99	44715.93
598.14	44893.82
598.30	45329.16
598.46	45272.98
598.61	45270.64
598.77	44758.06
598.93	45078.72
599.09	44872.75
599.24	45652.15
599.40	45233.19
599.56	45202.77
599.71	44912.54
599.87	45216.81
600.03	44818.92
600.18	44809.56
600.34	44980.42
600.50	45570.23
600.65	45418.10
600.81	45214.47
600.97	45413.41
601.12	45476.61
601.28	45043.61
601.44	45434.48
601.59	45076.38
601.75	45205.11
601.91	45352.56
602.06	44711.25
602.22	45127.87
602.37	45162.98
602.53	45158.30
602.69	45287.03
602.84	44828.28
603.00	45092.76
603.16	45556.19
603.31	45436.82
603.47	45408.73
603.62	45034.25
603.78	45186.38
603.94	45153.62
604.09	45155.96
604.25	45031.91
604.40	44982.76
604.56	45017.86
604.71	45375.97
604.87	45457.88
605.03	44985.10
605.18	45067.02
605.34	44961.69
605.49	44837.64
605.65	44622.31
605.80	44650.40
605.96	44648.06
606.12	45048.29
606.27	45113.83
606.43	44718.28
606.58	45350.22
606.74	44762.75
606.89	45062.33
607.05	44662.10
607.20	44912.54
607.36	44580.18
607.51	44910.20
607.67	44659.76
607.82	44304.00
607.98	44516.99
608.13	44348.47
608.29	44753.38
608.44	44982.76
608.60	44687.85
608.75	44863.39
608.91	44596.57
609.06	44406.98
609.22	44582.52
609.37	44423.37
609.53	43786.74
609.68	44547.42
609.84	44261.87
609.99	44680.83
610.15	44481.88
610.30	44505.29
610.46	44451.45
610.61	44268.89
610.76	44411.67
610.92	44577.84
611.07	44062.93
611.23	44470.18
611.38	44498.26
611.54	44678.49
611.69	44189.31
611.84	44348.47
612.00	44219.74
612.15	43842.92
612.31	44392.94
612.46	44502.95
612.62	44851.69
612.77	44715.93
612.92	44851.69
613.08	44177.61
613.23	44189.31
613.39	44107.40
613.54	44243.15
613.69	44362.51
613.85	44046.54
614.00	44275.91
614.15	43941.22
614.31	44446.77
614.46	44481.88
614.62	44479.54
614.77	44266.55
614.92	44011.43
615.08	44528.69
615.23	44044.20
615.38	43917.81
615.54	43875.68
615.69	43419.28
615.84	43648.65
616.00	43873.34
616.15	43622.90
616.30	43936.54
616.46	43957.60
616.61	43753.97
616.76	44069.95
616.92	43737.59
617.07	44083.99
617.22	43381.83
617.37	43342.04
617.53	43896.75
617.68	43936.54
617.83	43416.94
617.99	43351.40
618.14	43695.46
618.29	43920.15
618.45	43533.96
618.60	43789.08
618.75	43416.94
618.90	43744.61
619.06	43587.80
619.21	43084.58
619.36	43746.95
619.51	43051.81
619.67	43040.11
619.82	42799.04
619.97	43445.02
620.12	43531.62
620.28	42979.26
620.43	43194.59
620.58	43210.97
620.73	43229.69
620.89	43297.57
621.04	43388.85
621.19	43292.89
621.34	43065.86
621.49	43192.25
621.65	43154.80
621.80	42920.74
621.95	42892.66
622.10	42822.44
622.25	42639.88
622.41	43009.68
622.56	42920.74
622.71	42887.98
622.86	42927.77
623.01	42827.12
623.16	42649.24
623.32	42380.08
623.47	42754.57
623.62	42684.35
623.77	42789.67
623.92	42803.72
624.07	42845.85
624.23	42614.13
624.38	42766.27
624.53	42373.06
624.68	42548.60
624.83	42410.51
624.98	42815.42
625.13	42562.64
625.29	42564.98
625.44	42066.45
625.59	42930.11
625.74	42607.11
625.89	42316.89
626.04	42344.97
626.19	42284.12
626.34	42265.39
626.49	42424.55
626.65	42134.32
626.80	42115.60
626.95	42178.79
627.10	41991.55
627.25	42045.38
627.40	41558.55
627.55	41979.85
627.70	42087.51
627.85	42155.39
628.00	41940.06
628.15	41413.44
628.30	41593.66
628.45	42038.36
628.60	41645.15
628.76	42068.79
628.91	41958.78
629.06	42047.72
629.21	41525.78
629.36	41610.04
629.51	41647.49
629.66	41530.47
629.81	41612.38
629.96	41383.01
630.11	41244.92
630.26	41415.78
630.41	41617.07
630.56	41521.10
630.71	41635.79
630.86	41383.01
631.01	41298.75
631.16	41298.75
631.31	40966.40
631.46	40896.18
631.61	41691.96
631.76	41263.64
631.91	41181.73
632.06	41364.29
632.21	40999.16
632.36	41638.13
632.51	41113.85
632.66	41397.06
632.81	41078.74
632.96	41483.66
633.10	40428.07
633.25	40842.35
633.40	41123.21
633.55	41139.60
633.70	41247.26
633.85	40631.70
634.00	40669.15
634.15	40800.22
634.30	40928.95
634.45	40823.62
634.60	41111.51
634.75	40889.16
634.90	40912.56
635.05	40697.24
635.19	40570.85
635.34	41141.94
635.49	41170.02
635.64	40818.94
635.79	40332.11
635.94	40121.46
636.09	40531.06
636.24	40577.87
636.39	40208.06
636.53	40458.50
636.68	40582.55
636.83	40154.23
636.98	40872.78
637.13	40355.52
637.28	40392.97
637.43	40517.01
637.57	40147.21
637.72	40289.98
637.87	40311.05
638.02	39941.24
638.17	40133.17
638.32	40065.29
638.46	40006.78
638.61	39864.00
638.76	39882.73
638.91	40175.30
639.06	40257.21
639.20	40123.80
639.35	40374.24
639.50	40292.32
639.65	39868.69
639.80	40198.70
639.94	39615.91
640.09	39962.31
640.24	39847.62
640.39	39828.90
640.54	39477.82
640.68	39484.84
640.83	39929.54
640.98	39522.29
641.13	39255.46
641.27	39480.16
641.42	39466.11
641.57	39669.74
641.72	39466.11
641.86	39725.91
642.01	39555.05
642.16	39969.33
642.31	39386.54
642.45	39531.65
642.60	39295.25
642.75	39194.61
642.90	39297.59
643.04	39302.28
643.19	39147.80
643.34	39159.50
643.48	39133.76
643.63	39281.21
643.78	38958.22
643.93	39484.84
644.07	39592.50
644.22	38906.73
644.37	38539.26
644.51	39189.93
644.66	39100.99
644.81	39047.16
644.95	39042.48
645.10	38972.26
645.25	38768.63
645.39	39070.56
645.54	38808.42
645.69	38670.33
645.83	38895.02
645.98	39601.86
646.13	39150.14
646.27	39328.02
646.42	38993.32
646.57	39140.78
646.71	38806.08
646.86	38810.76
647.00	39082.27
647.15	38630.54
647.30	38866.94
647.44	38911.41
647.59	38487.77
647.74	38831.83
647.88	38703.10
648.03	38660.97
648.17	38850.55
648.32	38703.10
648.47	38492.45
648.61	38396.49
648.76	38780.34
648.90	38242.01
649.05	38403.51
649.20	38115.62
649.34	38199.88
649.49	37926.04
649.63	38181.16
649.78	38560.33
649.92	38464.36
650.07	38536.92
650.21	38342.66
650.36	38185.84
650.51	38073.49
650.65	38698.42
650.80	38457.34
650.94	38752.25
651.09	38270.10
651.23	37916.68
651.38	38349.68
651.52	37722.41
651.67	37703.69
651.81	37780.93
651.96	37701.35
652.10	38050.09
652.25	38000.94
652.39	37984.55
652.54	37954.13
652.68	37731.78
652.83	37921.36
652.97	37879.23
653.12	37675.60
653.26	37661.56
653.41	38017.32
653.55	37649.86
653.70	37029.62
653.84	37551.56
653.99	37546.87
654.13	37794.97
654.27	37373.67
654.42	37731.78
654.56	37553.90
654.71	37773.91
654.85	37567.94
655.00	37434.53
655.14	37830.08
655.29	37631.13
655.43	37677.94
655.57	37036.64
655.72	37368.99
655.86	36971.10
656.01	37422.83
656.15	37109.19
656.30	37024.93
656.44	37413.46
656.58	37289.42
656.73	37319.84
656.87	37137.28
657.01	37855.82
657.16	37605.39
657.30	37476.66
657.45	37244.94
657.59	37294.10
657.73	36825.99
657.88	37055.36
658.02	36980.46
658.16	36830.67
658.31	36573.21
658.45	36432.78
658.60	36800.24
658.74	36589.59
658.88	36966.42
659.03	36224.47
659.17	36701.94
659.31	36734.71
659.46	36470.23
659.60	36392.99
659.74	36428.10
659.89	36060.63
660.03	36278.30
660.17	36292.35
660.32	36121.49
660.46	36428.10
660.60	36189.36
660.74	36161.28
660.89	36268.94
661.03	35906.16
661.17	35997.44
661.32	35754.02
661.46	35857.01
661.60	35845.30
661.74	36189.36
661.89	35882.75
662.03	36299.37
662.17	35473.16
662.31	35482.52
662.46	35349.11
662.60	35374.86
662.74	35227.40
662.88	35370.18
663.03	35316.34
663.17	35161.87
663.31	35309.32
663.45	35536.35
663.60	35283.58
663.74	34841.21
663.88	35089.31
664.02	35541.03
664.17	35534.01
664.31	35133.78
664.45	34986.33
664.59	34991.01
664.73	34595.46
664.88	34747.59
665.02	34768.66
665.16	34003.30
665.30	34726.53
665.44	34749.93
665.59	34284.17
665.73	34452.69
665.87	34293.53
666.01	34478.43
666.15	34646.95
666.29	34316.93
666.44	34494.82
666.58	34267.78
666.72	34150.76
666.86	34209.27
667.00	34143.74
667.14	34309.91
667.28	34167.14
667.43	34202.25
667.57	33972.88
667.71	33464.98
667.85	33408.81
667.99	33743.50
668.13	33752.87
668.27	34073.52
668.41	33448.60
668.56	33362.00
668.70	33823.08
668.84	33787.97
668.98	33514.13
669.12	33560.94
669.26	33366.68
669.40	33504.77
669.54	33013.26
669.68	33626.48
669.82	33067.09
669.96	33053.05
670.10	33076.45
670.25	33317.53
670.39	32804.95
670.53	32634.09
670.67	32725.37
670.81	32615.37
670.95	32587.28
671.09	32669.20
671.23	32811.97
671.37	32807.29
671.51	32954.74
671.65	32886.87
671.79	32531.11
671.93	32460.89
672.07	32425.78
672.21	32362.59
672.35	31945.97
672.49	31721.28
672.63	32334.50
672.77	31428.71
672.91	31931.93
673.05	32393.01
673.19	32027.89
673.33	32006.83
673.47	32058.32
673.61	31917.89
673.75	31559.78
673.89	31704.90
674.03	31667.45
674.17	31531.70
674.31	31159.55
674.45	30991.03
674.59	30944.22
674.73	31243.81
674.87	31136.15
675.01	30817.83
675.15	30473.78
675.29	30871.67
675.43	31019.12
675.56	31026.14
675.70	30703.15
675.84	30965.29
675.98	30071.20
676.12	30036.09
676.26	30487.82
676.40	30181.21
676.54	29890.98
676.68	30043.12
676.82	29802.04
676.96	29773.95
677.10	29893.32
677.23	30089.93
677.37	29490.75
677.51	29280.10
677.65	29151.37
677.79	29139.67
677.93	29462.66
678.07	29546.92
678.21	28842.42
678.34	28865.83
678.48	29221.59
678.62	29233.29
678.76	28936.04
678.90	28844.76
679.04	28968.81
679.18	28533.47
679.31	28257.29
679.45	28205.80
679.59	28095.79
679.73	27999.83
679.87	27901.53
680.00	27807.90
680.14	27328.10
680.28	28058.34
680.42	27917.91
680.56	27740.03
680.70	27714.28
680.83	27618.32
680.97	27094.04
681.11	27665.13
681.25	27276.60
681.39	27108.08
681.52	27267.24
681.66	26965.31
681.80	26775.73
681.94	26829.56
682.07	26785.09
682.21	26426.99
682.35	26778.07
682.49	26625.93
682.62	26319.32
682.76	26625.93
682.90	26195.28
683.04	26228.04
683.17	26316.98
683.31	26331.03
683.45	26209.32
683.59	26286.56
683.72	26031.44
683.86	25727.17
684.00	25619.50
684.13	25153.74
684.27	25427.58
684.41	25380.77
684.55	25172.46
684.68	25252.04
684.82	25207.57
684.96	24924.36
685.09	25170.12
685.23	24851.81
685.37	24982.88
685.50	24463.28
685.64	24594.35
685.78	24819.04
685.91	24702.01
686.05	24713.72
686.19	24294.76
686.32	24882.24
686.46	24353.27
686.60	24093.47
686.73	24039.64
686.87	24023.26
687.01	23716.65
687.14	23489.62
687.28	23513.02
687.42	23323.44
687.55	23515.36
687.69	23723.67
687.82	23831.33
687.96	23360.89
688.10	23426.42
688.23	23412.38
688.37	23386.63
688.50	23473.23
688.64	23124.49
688.78	22860.01
688.91	22764.05
689.05	22728.94
689.18	22731.28
689.32	22394.25
689.46	22611.92
689.59	22235.09
689.73	22288.92
689.86	22253.81
690.00	22202.32
690.13	22075.93
690.27	22190.62
690.41	21963.59
690.54	21951.88
690.68	22075.93
690.81	22174.24
690.95	21774.00
691.08	21713.15
691.22	21420.58
691.35	21439.31
691.49	21493.14
691.62	21193.55
691.76	21116.31
691.89	20601.40
692.03	20737.15
692.16	20971.20
692.30	20666.93
692.43	20643.52
692.57	20617.78
692.70	20769.91
692.84	20638.84
692.97	20411.81
693.11	20610.76
693.24	20535.86
693.38	20411.81
693.51	20130.95
693.65	20332.23
693.78	19817.32
693.92	20395.43
694.05	20154.35
694.19	19737.74
694.32	19585.60
694.45	19356.23
694.59	19197.07
694.72	19459.21
694.86	19571.56
694.99	19346.87
695.13	19108.13
695.26	19000.47
695.39	19042.60
695.53	19234.52
695.66	19126.86
695.80	19190.05
695.93	19190.05
696.07	18841.31
696.20	18845.99
696.33	18614.28
696.47	18572.15
696.60	18679.82
696.73	18691.52
696.87	18422.36
697.00	18036.17
697.14	17930.84
697.27	17668.70
697.40	18082.98
697.54	18008.08
697.67	17408.90
697.80	17593.81
697.94	17657.00
698.07	17476.78
698.21	17483.80
698.34	17706.15
698.47	17334.01
698.61	17064.85
698.74	17312.94
698.87	17235.70
699.01	17160.81
699.14	17256.77
699.27	16802.71
699.40	16952.50
699.54	16706.74
699.67	16650.57
699.80	16622.48
699.94	16259.70
700.07	16379.07
700.20	16374.39
700.34	16098.20
700.47	16060.76
700.60	16325.24
700.73	16425.88
700.87	16065.44
701.00	16161.40
701.13	15800.96
701.26	15850.11
701.40	15817.34
701.53	15599.67
701.66	15611.37
701.79	15484.98
701.93	15243.91
702.06	15283.70
702.19	15314.13
702.32	15328.17
702.46	15339.87
702.59	15023.90
702.72	14937.30
702.85	14911.55
702.99	14984.11
703.12	14991.13
703.25	14703.25
703.38	14946.66
703.51	14846.02
703.65	14806.23
703.78	14700.90
703.91	14590.90
704.04	14860.06
704.17	14436.42
704.31	14242.16
704.44	14139.18
704.57	14457.49
704.70	14340.46
704.83	14244.50
704.96	14235.14
705.10	14101.73
705.23	14017.47
>>>>>End Processed Spectral Data<<<<<
