SpectraSuite Data File
++++++++++++++++++++++++++++++++++++
Date: Fri Oct 04 11:39:50 GMT-05:00 2013
User: price-jones
Dark Spectrum Present: No
Reference Spectrum Present: No
Number of Sampled Component Spectra: 1
Spectrometers: USB2+H05261
Integration Time (usec): 100000 (USB2+H05261)
Spectra Averaged: 1 (USB2+H05261)
Boxcar Smoothing: 0 (USB2+H05261)
Correct for Electrical Dark: No (USB2+H05261)
Strobe/Lamp Enabled: No (USB2+H05261)
Correct for Detector Non-linearity: No (USB2+H05261)
Correct for Stray Light: No (USB2+H05261)
Number of Pixels in Processed Spectrum: 2048
>>>>>Begin Processed Spectral Data<<<<<
365.73	37.45
365.92	37.45
366.12	37.45
366.32	0.00
366.52	0.00
366.72	0.00
366.91	11.70
367.11	0.00
367.31	0.00
367.51	0.00
367.70	0.00
367.90	0.00
368.10	0.00
368.30	0.00
368.49	0.00
368.69	0.00
368.89	0.00
369.09	0.00
369.28	0.00
369.48	0.00
369.68	0.00
369.87	0.00
370.07	37.45
370.27	14.04
370.47	0.00
370.66	42.13
370.86	42.13
371.06	86.60
371.25	110.01
371.45	95.96
371.65	135.75
371.84	98.30
372.04	140.43
372.24	110.01
372.44	117.03
372.63	124.05
372.83	159.16
373.03	121.71
373.22	177.88
373.42	182.56
373.62	135.75
373.81	173.20
374.01	166.18
374.21	149.79
374.40	114.69
374.60	194.26
374.79	124.05
374.99	184.90
375.19	119.37
375.38	140.43
375.58	147.45
375.78	163.84
375.97	194.26
376.17	142.77
376.37	72.56
376.56	135.75
376.76	159.16
376.95	149.79
377.15	208.31
377.35	215.33
377.54	133.41
377.74	72.56
377.93	100.64
378.13	198.95
378.33	117.03
378.52	110.01
378.72	159.16
378.91	86.60
379.11	93.62
379.31	72.56
379.50	44.47
379.70	156.82
379.89	98.30
380.09	161.50
380.28	117.03
380.48	110.01
380.68	117.03
380.87	168.52
381.07	133.41
381.26	154.48
381.46	149.79
381.65	173.20
381.85	107.66
382.04	91.28
382.24	135.75
382.43	142.77
382.63	105.32
382.83	102.98
383.02	107.66
383.22	152.13
383.41	145.11
383.61	163.84
383.80	145.11
384.00	86.60
384.19	63.19
384.39	100.64
384.58	119.37
384.78	117.03
384.97	128.73
385.17	201.29
385.36	91.28
385.56	107.66
385.75	105.32
385.95	184.90
386.14	163.84
386.34	86.60
386.53	100.64
386.72	91.28
386.92	180.22
387.11	161.50
387.31	140.43
387.50	117.03
387.70	149.79
387.89	175.54
388.09	88.94
388.28	110.01
388.48	81.92
388.67	117.03
388.86	124.05
389.06	119.37
389.25	170.86
389.45	142.77
389.64	149.79
389.84	170.86
390.03	159.16
390.22	133.41
390.42	112.35
390.61	77.24
390.81	30.43
391.00	175.54
391.19	217.67
391.39	126.39
391.58	173.20
391.78	159.16
391.97	102.98
392.16	173.20
392.36	170.86
392.55	135.75
392.75	126.39
392.94	161.50
393.13	138.09
393.33	124.05
393.52	70.22
393.71	243.42
393.91	196.60
394.10	147.45
394.29	163.84
394.49	203.63
394.68	117.03
394.88	149.79
395.07	210.65
395.26	105.32
395.46	201.29
395.65	110.01
395.84	126.39
396.04	217.67
396.23	119.37
396.42	124.05
396.62	203.63
396.81	121.71
397.00	147.45
397.19	250.44
397.39	81.92
397.58	168.52
397.77	175.54
397.97	63.19
398.16	194.26
398.35	196.60
398.55	142.77
398.74	175.54
398.93	156.82
399.12	198.95
399.32	196.60
399.51	161.50
399.70	170.86
399.90	110.01
400.09	191.92
400.28	173.20
400.47	79.58
400.67	203.63
400.86	152.13
401.05	203.63
401.24	262.14
401.44	203.63
401.63	227.03
401.82	212.99
402.01	184.90
402.21	114.69
402.40	212.99
402.59	198.95
402.78	203.63
402.97	154.48
403.17	215.33
403.36	175.54
403.55	227.03
403.74	173.20
403.93	250.44
404.13	330.02
404.32	297.25
404.51	276.18
404.70	252.78
404.89	212.99
405.09	280.86
405.28	138.09
405.47	203.63
405.66	257.46
405.85	220.01
406.05	217.67
406.24	220.01
406.43	210.65
406.62	264.48
406.81	259.80
407.00	217.67
407.20	205.97
407.39	217.67
407.58	269.16
407.77	203.63
407.96	313.63
408.15	271.50
408.34	262.14
408.54	198.95
408.73	351.08
408.92	280.86
409.11	252.78
409.30	229.37
409.49	231.71
409.68	248.10
409.87	252.78
410.07	231.71
410.26	287.89
410.45	243.42
410.64	248.10
410.83	252.78
411.02	255.12
411.21	306.61
411.40	262.14
411.59	229.37
411.78	241.08
411.98	257.46
412.17	257.46
412.36	269.16
412.55	250.44
412.74	318.31
412.93	341.72
413.12	299.59
413.31	423.64
413.50	313.63
413.69	285.55
413.88	414.27
414.07	306.61
414.26	358.10
414.45	304.27
414.64	252.78
414.83	360.44
415.02	313.63
415.22	294.91
415.41	348.74
415.60	292.57
415.79	297.25
415.98	458.74
416.17	360.44
416.36	313.63
416.55	395.55
416.74	402.57
416.93	348.74
417.12	353.42
417.31	337.04
417.50	430.66
417.69	507.90
417.88	365.12
418.07	334.70
418.26	353.42
418.45	414.27
418.64	390.87
418.83	433.00
419.02	294.91
419.21	428.32
419.39	461.09
419.58	440.02
419.77	355.76
419.96	404.91
420.15	390.87
420.34	449.38
420.53	449.38
420.72	447.04
420.91	400.23
421.10	381.51
421.29	365.12
421.48	407.25
421.67	472.79
421.86	416.62
422.05	372.15
422.24	348.74
422.43	386.19
422.61	334.70
422.80	428.32
422.99	428.32
423.18	414.27
423.37	491.51
423.56	430.66
423.75	416.62
423.94	425.98
424.13	416.62
424.32	404.91
424.50	430.66
424.69	433.00
424.88	491.51
425.07	383.85
425.26	540.66
425.45	400.23
425.64	390.87
425.83	367.46
426.01	479.81
426.20	468.11
426.39	449.38
426.58	351.08
426.77	407.25
426.96	468.11
427.15	397.89
427.33	397.89
427.52	423.64
427.71	456.40
427.90	416.62
428.09	526.62
428.28	393.21
428.46	479.81
428.65	433.00
428.84	461.09
429.03	421.30
429.22	421.30
429.40	374.49
429.59	545.34
429.78	496.19
429.97	407.25
430.16	451.72
430.34	521.94
430.53	433.00
430.72	411.93
430.91	503.22
431.10	496.19
431.28	463.43
431.47	496.19
431.66	503.22
431.85	449.38
432.03	463.43
432.22	528.96
432.41	465.77
432.60	519.60
432.79	510.24
432.97	519.60
433.16	489.17
433.35	461.09
433.54	463.43
433.72	561.73
433.91	587.47
434.10	552.37
434.28	594.50
434.47	512.58
434.66	566.41
434.85	533.64
435.03	725.57
435.22	950.26
435.41	1327.08
435.59	1371.55
435.78	1060.26
435.97	835.57
436.16	594.50
436.34	543.00
436.53	540.66
436.72	547.69
436.90	552.37
437.09	538.32
437.28	538.32
437.46	379.17
437.65	524.28
437.84	578.11
438.02	554.71
438.21	519.60
438.40	507.90
438.58	533.64
438.77	526.62
438.96	489.17
439.14	543.00
439.33	550.03
439.52	599.18
439.70	631.94
439.89	657.69
440.08	594.50
440.26	559.39
440.45	613.22
440.63	627.26
440.82	578.11
441.01	526.62
441.19	568.75
441.38	599.18
441.57	617.90
441.75	638.97
441.94	606.20
442.12	578.11
442.31	585.13
442.50	655.35
442.68	650.67
442.87	603.86
443.05	620.24
443.24	674.07
443.43	720.88
443.61	725.57
443.80	650.67
443.98	631.94
444.17	566.41
444.35	720.88
444.54	748.97
444.73	645.99
444.91	685.78
445.10	634.29
445.28	667.05
445.47	648.33
445.65	634.29
445.84	697.48
446.02	603.86
446.21	664.71
446.39	720.88
446.58	662.37
446.77	608.54
446.95	634.29
447.14	681.10
447.32	669.39
447.51	674.07
447.69	648.33
447.88	624.92
448.06	711.52
448.25	727.91
448.43	767.70
448.62	727.91
448.80	781.74
448.99	692.80
449.17	634.29
449.36	622.58
449.54	716.20
449.73	667.05
449.91	634.29
450.10	706.84
450.28	692.80
450.46	699.82
450.65	706.84
450.83	678.76
451.02	624.92
451.20	650.67
451.39	699.82
451.57	645.99
451.76	704.50
451.94	737.27
452.13	610.88
452.31	678.76
452.49	723.23
452.68	692.80
452.86	641.31
453.05	765.36
453.23	739.61
453.42	690.46
453.60	718.54
453.78	660.03
453.97	613.22
454.15	655.35
454.34	737.27
454.52	723.23
454.70	730.25
454.89	737.27
455.07	716.20
455.26	727.91
455.44	755.99
455.62	711.52
455.81	683.44
455.99	870.68
456.17	777.06
456.36	699.82
456.54	734.93
456.73	741.95
456.91	727.91
457.09	786.42
457.28	809.83
457.46	807.48
457.64	793.44
457.83	746.63
458.01	781.74
458.19	809.83
458.38	805.14
458.56	863.66
458.74	800.46
458.93	851.96
459.11	819.19
459.29	772.38
459.48	807.48
459.66	873.02
459.84	800.46
460.03	835.57
460.21	763.01
460.39	866.00
460.57	866.00
460.76	814.51
460.94	809.83
461.12	835.57
461.31	835.57
461.49	730.25
461.67	760.67
461.85	861.32
462.04	847.27
462.22	1273.25
462.40	882.38
462.59	807.48
462.77	819.19
462.95	863.66
463.13	858.98
463.32	856.64
463.50	901.11
463.68	828.55
463.86	847.27
464.05	891.74
464.23	851.96
464.41	912.81
464.59	823.87
464.78	866.00
464.96	816.85
465.14	734.93
465.32	891.74
465.50	922.17
465.69	884.72
465.87	842.59
466.05	833.23
466.23	898.77
466.41	844.93
466.60	903.45
466.78	880.04
466.96	830.89
467.14	905.79
467.32	870.68
467.51	868.34
467.69	851.96
467.87	912.81
468.05	877.70
468.23	905.79
468.41	898.77
468.60	901.11
468.78	929.19
468.96	894.08
469.14	856.64
469.32	973.66
469.50	947.92
469.69	882.38
469.87	887.06
470.05	882.38
470.23	964.30
470.41	826.21
470.59	973.66
470.77	1027.50
470.95	915.15
471.14	973.66
471.32	945.58
471.50	875.36
471.68	966.64
471.86	917.49
472.04	880.04
472.22	1008.77
472.40	961.96
472.58	957.28
472.77	971.32
472.95	908.13
473.13	1043.88
473.31	1020.47
473.49	1001.75
473.67	990.05
473.85	952.60
474.03	1008.77
474.21	1015.79
474.39	1029.84
474.57	938.55
474.75	947.92
474.93	987.71
475.12	926.85
475.30	978.34
475.48	1102.39
475.66	1076.65
475.84	1015.79
476.02	999.41
476.20	1093.03
476.38	1064.94
476.56	1153.88
476.74	1046.22
476.92	1081.33
477.10	1011.11
477.28	1132.82
477.46	1097.71
477.64	1011.11
477.82	1123.46
478.00	1144.52
478.18	1109.41
478.36	1153.88
478.54	1135.16
478.72	1151.54
478.90	1057.92
479.08	1011.11
479.26	1137.50
479.44	1146.86
479.62	1235.80
479.80	1177.29
479.98	1205.38
480.16	1212.40
480.34	1191.33
480.52	1233.46
480.70	1252.19
480.88	1259.21
481.06	1268.57
481.24	1334.11
481.41	1320.06
481.59	1231.12
481.77	1355.17
481.95	1322.40
482.13	1289.64
482.31	1334.11
482.49	1357.51
482.67	1350.49
482.85	1308.36
483.03	1350.49
483.21	1359.85
483.39	1362.19
483.57	1357.51
483.74	1364.53
483.92	1392.62
484.10	1401.98
484.28	1467.52
484.46	1444.11
484.64	1392.62
484.82	1490.92
485.00	1493.26
485.18	1418.36
485.35	1427.73
485.53	1504.96
485.71	1549.43
485.89	1549.43
486.07	1497.94
486.25	1633.69
486.43	1582.20
486.61	1579.86
486.78	1591.56
486.96	1652.42
487.14	1521.35
487.32	1577.52
487.50	1551.78
487.68	1671.14
487.85	1643.06
488.03	1657.10
488.21	1795.19
488.39	1650.08
488.57	1743.70
488.75	1629.01
488.92	1933.28
489.10	1715.61
489.28	1839.66
489.46	1743.70
489.64	1708.59
489.81	1729.66
489.99	1844.34
490.17	1708.59
490.35	1895.83
490.53	1774.13
490.70	1863.07
490.88	1825.62
491.06	1760.08
491.24	1846.68
491.41	1842.00
491.59	1858.39
491.77	1806.89
491.95	1753.06
492.13	1771.79
492.30	1874.77
492.48	1867.75
492.66	1937.96
492.84	1858.39
493.01	1919.24
493.19	1823.28
493.37	1996.48
493.54	1902.86
493.72	1959.03
493.90	1895.83
494.08	1982.43
494.25	2008.18
494.43	1895.83
494.61	1963.71
494.79	1968.39
494.96	2003.50
495.14	1996.48
495.32	2024.56
495.49	1942.64
495.67	2008.18
495.85	2129.89
496.02	2029.24
496.20	2120.53
496.38	2012.86
496.55	2054.99
496.73	2169.68
496.91	2057.33
497.09	2132.23
497.26	2174.36
497.44	2172.02
497.62	2118.18
497.79	2214.15
497.97	2174.36
498.14	2127.55
498.32	2122.87
498.50	2200.10
498.67	2223.51
498.85	2223.51
499.03	2139.25
499.20	2127.55
499.38	2169.68
499.56	2129.89
499.73	2277.34
499.91	2228.19
500.08	2284.36
500.26	2167.34
500.44	2256.28
500.61	2246.91
500.79	2258.62
500.97	2218.83
501.14	2298.41
501.32	2282.02
501.49	2399.05
501.67	2246.91
501.84	2169.68
502.02	2410.75
502.20	2324.15
502.37	2312.45
502.55	2225.85
502.72	2352.24
502.90	2429.48
503.07	2347.56
503.25	2345.22
503.43	2272.66
503.60	2413.09
503.78	2317.13
503.95	2406.07
504.13	2352.24
504.30	2326.49
504.48	2356.92
504.65	2340.54
504.83	2413.09
505.01	2490.33
505.18	2408.41
505.36	2438.84
505.53	2445.86
505.71	2340.54
505.88	2480.97
506.06	2359.26
506.23	2448.20
506.41	2537.14
506.58	2534.80
506.76	2469.27
506.93	2417.77
507.11	2537.14
507.28	2511.39
507.46	2478.63
507.63	2478.63
507.81	2530.12
507.98	2605.02
508.16	2579.27
508.33	2452.88
508.50	2530.12
508.68	2502.03
508.85	2534.80
509.03	2616.72
509.20	2544.16
509.38	2633.10
509.55	2700.98
509.73	2605.02
509.90	2731.41
510.08	2677.57
510.25	2621.40
510.42	2597.99
510.60	2605.02
510.77	2722.04
510.95	2722.04
511.12	2633.10
511.30	2640.12
511.47	2649.49
511.64	2635.44
511.82	2703.32
511.99	2572.25
512.17	2705.66
512.34	2677.57
512.51	2686.94
512.69	2569.91
512.86	2693.96
513.04	2733.75
513.21	2710.34
513.38	2677.57
513.56	2752.47
513.73	2579.27
513.90	2633.10
514.08	2759.49
514.25	2654.17
514.43	2686.94
514.60	2623.74
514.77	2853.11
514.95	2773.53
515.12	2710.34
515.29	2750.13
515.47	2775.88
515.64	2850.77
515.81	2787.58
515.99	2864.82
516.16	2822.69
516.33	2806.30
516.51	2801.62
516.68	2703.32
516.85	2733.75
517.03	2768.85
517.20	2855.45
517.37	2890.56
517.54	2888.22
517.72	2871.84
517.89	2796.94
518.06	2768.85
518.24	2785.24
518.41	2888.22
518.58	2874.18
518.75	2810.98
518.93	2902.26
519.10	2827.37
519.27	2946.73
519.45	2899.92
519.62	2871.84
519.79	3023.97
519.96	3014.61
520.14	2960.78
520.31	2888.22
520.48	2946.73
520.65	2963.12
520.83	2984.18
521.00	3000.57
521.17	2995.89
521.34	3012.27
521.52	3023.97
521.69	3061.42
521.86	3141.00
522.03	3082.49
522.20	3019.29
522.38	3098.87
522.55	3007.59
522.72	2939.71
522.89	3061.42
523.07	2960.78
523.24	3033.33
523.41	3007.59
523.58	2958.44
523.75	3033.33
523.92	2892.90
524.10	2958.44
524.27	3094.19
524.44	3110.57
524.61	3246.32
524.78	3054.40
524.96	3052.06
525.13	3082.49
525.30	3042.70
525.47	3063.76
525.64	3110.57
525.81	3103.55
525.98	3077.80
526.16	3047.38
526.33	3028.65
526.50	3141.00
526.67	3094.19
526.84	3138.66
527.01	3131.64
527.18	3194.83
527.36	3222.92
527.53	3166.74
527.70	3129.30
527.87	3183.13
528.04	3199.51
528.21	3155.04
528.38	3162.06
528.55	3243.98
528.72	3211.22
528.89	3222.92
529.07	3049.72
529.24	3344.63
529.41	3234.62
529.58	3131.64
529.75	3211.22
529.92	3309.52
530.09	3246.32
530.26	3267.39
530.43	3213.56
530.60	3176.11
530.77	3279.09
530.94	3267.39
531.11	3183.13
531.28	3157.38
531.46	3262.71
531.63	3225.26
531.80	3087.17
531.97	3330.58
532.14	3290.79
532.31	3316.54
532.48	3344.63
532.65	3398.46
532.82	3375.05
532.99	3307.18
533.16	3253.34
533.33	3447.61
533.50	3321.22
533.67	3421.86
533.84	3272.07
534.01	3339.94
534.18	3276.75
534.35	3293.13
534.52	3339.94
534.69	3346.97
534.86	3407.82
535.03	3297.81
535.20	3414.84
535.37	3363.35
535.54	3379.73
535.71	3321.22
535.88	3438.25
536.05	3290.79
536.22	3400.80
536.38	3361.01
536.55	3368.03
536.72	3281.43
536.89	3431.23
537.06	3424.20
537.23	3447.61
537.40	3531.87
537.57	3419.52
537.74	3510.80
537.91	3566.98
538.08	3482.72
538.25	3681.66
538.42	3609.11
538.59	3515.48
538.75	3686.34
538.92	3538.89
539.09	3637.19
539.26	3655.92
539.43	3660.60
539.60	3613.79
539.77	3763.58
539.94	3866.56
540.11	3695.71
540.28	3723.79
540.44	3833.80
540.61	3817.41
540.78	4002.32
540.95	4079.55
541.12	4271.48
541.29	4290.20
541.46	4245.73
541.62	4334.67
541.79	4259.78
541.96	4287.86
542.13	4229.35
542.30	4203.60
542.47	4290.20
542.63	4348.72
542.80	4409.57
542.97	4287.86
543.14	4138.07
543.31	4152.11
543.48	4182.54
543.64	4341.69
543.81	4318.29
543.98	4292.54
544.15	4198.92
544.32	4227.01
544.48	4301.90
544.65	4287.86
544.82	4154.45
544.99	4262.12
545.16	4205.94
545.32	4191.90
545.49	4751.29
545.66	5528.35
545.83	5923.90
546.00	5654.73
546.16	5006.41
546.33	4622.56
546.50	4318.29
546.67	4105.30
546.83	3978.91
547.00	4138.07
547.17	3943.80
547.34	3922.74
547.50	4093.60
547.67	3854.86
547.84	4004.66
548.00	3948.48
548.17	3833.80
548.34	3904.01
548.51	3885.29
548.67	3927.42
548.84	3962.53
549.01	3847.84
549.18	3868.91
549.34	3880.61
549.51	3838.48
549.68	3899.33
549.84	3824.44
550.01	3840.82
550.18	3932.10
550.34	3864.22
550.51	3751.88
550.68	3922.74
550.84	3698.05
551.01	3819.75
551.18	3648.90
551.34	3873.59
551.51	3693.37
551.68	3639.53
551.84	3866.56
552.01	3843.16
552.18	3761.24
552.34	3751.88
552.51	3590.38
552.68	3765.92
552.84	3815.07
553.01	3880.61
553.18	3810.39
553.34	3798.69
553.51	3674.64
553.67	3737.84
553.84	3770.60
554.01	3740.18
554.17	3770.60
554.34	3581.02
554.51	3674.64
554.67	3779.97
554.84	3712.09
555.00	3758.90
555.17	3684.00
555.33	3660.60
555.50	3730.81
555.67	3723.79
555.83	3754.22
556.00	3735.50
556.16	3875.93
556.33	3613.79
556.50	3716.77
556.66	3705.07
556.83	3604.42
556.99	3728.47
557.16	3632.51
557.32	3714.43
557.49	3574.00
557.65	3735.50
557.82	3613.79
557.98	3648.90
558.15	3578.68
558.32	3648.90
558.48	3665.28
558.65	3768.26
558.81	3812.73
558.98	3660.60
559.14	3674.64
559.31	3815.07
559.47	3737.84
559.64	3581.02
559.80	3651.24
559.97	3620.81
560.13	3606.77
560.30	3660.60
560.46	3758.90
560.63	3578.68
560.79	3634.85
560.96	3744.86
561.12	3679.32
561.29	3613.79
561.45	3674.64
561.61	3763.58
561.78	3733.15
561.94	3707.41
562.11	3695.71
562.27	3639.53
562.44	3669.96
562.60	3653.58
562.77	3604.42
562.93	3751.88
563.10	3716.77
563.26	3768.26
563.42	3691.02
563.59	3726.13
563.75	3676.98
563.92	3796.35
564.08	3857.20
564.24	3719.11
564.41	3747.20
564.57	3698.05
564.74	3723.79
564.90	3847.84
565.07	3662.94
565.23	3756.56
565.39	3651.24
565.56	3723.79
565.72	3660.60
565.88	3681.66
566.05	3714.43
566.21	3824.44
566.38	3733.15
566.54	3798.69
566.70	3815.07
566.87	3712.09
567.03	3700.39
567.19	3770.60
567.36	3709.75
567.52	3791.67
567.68	3637.19
567.85	3662.94
568.01	3681.66
568.17	3744.86
568.34	3758.90
568.50	3712.09
568.66	3709.75
568.83	3749.54
568.99	3646.55
569.15	3864.22
569.32	3796.35
569.48	3749.54
569.64	3735.50
569.81	3866.56
569.97	3691.02
570.13	3779.97
570.30	3777.62
570.46	3714.43
570.62	3815.07
570.78	3705.07
570.95	3749.54
571.11	3815.07
571.27	3665.28
571.43	3761.24
571.60	3625.49
571.76	3669.96
571.92	3660.60
572.09	3672.30
572.25	3744.86
572.41	3744.86
572.57	3578.68
572.74	3775.28
572.90	3702.73
573.06	3707.41
573.22	3770.60
573.38	3639.53
573.55	3714.43
573.71	3808.05
573.87	3850.18
574.03	3754.22
574.20	3686.34
574.36	3719.11
574.52	3662.94
574.68	3840.82
574.84	3749.54
575.01	3681.66
575.17	3735.50
575.33	3822.09
575.49	3754.22
575.65	3744.86
575.82	3777.62
575.98	3723.79
576.14	3791.67
576.30	3669.96
576.46	3889.97
576.62	4084.23
576.79	4161.47
576.95	4063.17
577.11	3953.16
577.27	3777.62
577.43	3794.01
577.59	3838.48
577.75	3873.59
577.92	3754.22
578.08	3735.50
578.24	3768.26
578.40	3859.54
578.56	4060.83
578.72	4042.11
578.88	4241.05
579.04	4058.49
579.21	3882.95
579.37	3943.80
579.53	3803.37
579.69	3824.44
579.85	3801.03
580.01	3927.42
580.17	3812.73
580.33	3866.56
580.49	3962.53
580.65	3864.22
580.82	3843.16
580.98	3763.58
581.14	3700.39
581.30	3913.38
581.46	3801.03
581.62	3789.33
581.78	3882.95
581.94	3950.82
582.10	3791.67
582.26	3850.18
582.42	3934.44
582.58	3845.50
582.74	3981.25
582.90	3784.65
583.06	3918.06
583.22	3772.94
583.38	4042.11
583.54	3894.65
583.70	3922.74
583.86	3775.28
584.02	3861.88
584.18	3971.89
584.34	3939.12
584.50	3826.78
584.66	3794.01
584.82	3857.20
584.98	3852.52
585.14	3777.62
585.30	3873.59
585.46	3840.82
585.62	3824.44
585.78	3843.16
585.94	3904.01
586.10	3882.95
586.26	3847.84
586.42	3915.72
586.58	3988.27
586.74	3943.80
586.90	4023.38
587.06	4021.04
587.22	4074.87
587.38	3999.98
587.54	3779.97
587.70	4070.19
587.86	3943.80
588.02	3817.41
588.18	3988.27
588.34	3911.04
588.49	3714.43
588.65	3801.03
588.81	3791.67
588.97	3641.87
589.13	3894.65
589.29	3672.30
589.45	3843.16
589.61	3957.85
589.77	3805.71
589.93	3803.37
590.08	3815.07
590.24	3801.03
590.40	3726.13
590.56	3915.72
590.72	3812.73
590.88	3801.03
591.04	3831.46
591.20	3847.84
591.35	3946.14
591.51	3873.59
591.67	3850.18
591.83	3761.24
591.99	3885.29
592.15	3964.87
592.31	3880.61
592.46	3932.10
592.62	3950.82
592.78	3871.25
592.94	4011.68
593.10	3992.95
593.26	3918.06
593.41	3983.59
593.57	3836.14
593.73	3648.90
593.89	3777.62
594.05	3805.71
594.20	3751.88
594.36	3974.23
594.52	3742.52
594.68	3667.62
594.84	3721.45
594.99	3878.27
595.15	3801.03
595.31	3808.05
595.47	3819.75
595.62	3744.86
595.78	3693.37
595.94	3733.15
596.10	3651.24
596.25	3749.54
596.41	3772.94
596.57	3786.99
596.73	3812.73
596.88	3733.15
597.04	3859.54
597.20	3728.47
597.36	3840.82
597.51	3761.24
597.67	3786.99
597.83	3754.22
597.99	3925.08
598.14	3709.75
598.30	3786.99
598.46	3840.82
598.61	3805.71
598.77	3850.18
598.93	3742.52
599.09	3843.16
599.24	3892.31
599.40	3880.61
599.56	3749.54
599.71	3878.27
599.87	3864.22
600.03	3758.90
600.18	3740.18
600.34	3878.27
600.50	3768.26
600.65	3758.90
600.81	3836.14
600.97	3665.28
601.12	3777.62
601.28	3639.53
601.44	3768.26
601.59	3822.09
601.75	3812.73
601.91	3709.75
602.06	3667.62
602.22	3887.63
602.37	3812.73
602.53	3655.92
602.69	3758.90
602.84	3782.31
603.00	3836.14
603.16	3662.94
603.31	3784.65
603.47	3693.37
603.62	3655.92
603.78	3889.97
603.94	3714.43
604.09	3782.31
604.25	3889.97
604.40	3772.94
604.56	3770.60
604.71	3688.68
604.87	3702.73
605.03	3740.18
605.18	3796.35
605.34	3808.05
605.49	3648.90
605.65	3698.05
605.80	3588.04
605.96	3679.32
606.12	3695.71
606.27	3875.93
606.43	3564.64
606.58	3770.60
606.74	3686.34
606.89	3571.66
607.05	3693.37
607.20	3707.41
607.36	3786.99
607.51	3770.60
607.67	3744.86
607.82	3794.01
607.98	3939.12
608.13	3812.73
608.29	3866.56
608.44	3847.84
608.60	3740.18
608.75	3840.82
608.91	3843.16
609.06	3777.62
609.22	3943.80
609.37	3894.65
609.53	4021.04
609.68	3981.25
609.84	4081.89
609.99	4163.81
610.15	4351.06
610.30	4390.84
610.46	4550.00
610.61	4990.02
610.76	5296.63
610.92	5605.58
611.07	5865.38
611.23	5973.05
611.38	5811.55
611.54	5584.52
611.69	5109.39
611.84	4821.50
612.00	4727.88
612.15	4400.21
612.31	4402.55
612.46	4196.58
612.62	4304.25
612.77	4175.52
612.92	4294.88
613.08	4322.97
613.23	4107.64
613.39	4084.23
613.54	4086.58
613.69	3857.20
613.85	4086.58
614.00	4168.49
614.15	4128.70
614.31	4028.06
614.46	4112.32
614.62	3999.98
614.77	3950.82
614.92	4072.53
615.08	3796.35
615.23	3873.59
615.38	3927.42
615.54	3641.87
615.69	3833.80
615.84	3768.26
616.00	3817.41
616.15	3616.13
616.30	3679.32
616.46	3712.09
616.61	3662.94
616.76	3653.58
616.92	3574.00
617.07	3599.74
617.22	3676.98
617.37	3492.08
617.53	3634.85
617.68	3744.86
617.83	3531.87
617.99	3637.19
618.14	3744.86
618.29	3637.19
618.45	3686.34
618.60	3590.38
618.75	3515.48
618.90	3548.25
619.06	3590.38
619.21	3749.54
619.36	3613.79
619.51	3639.53
619.67	3571.66
619.82	3548.25
619.97	3590.38
620.12	3569.32
620.28	3674.64
620.43	3637.19
620.58	3840.82
620.73	3630.17
620.89	3471.01
621.04	3550.59
621.19	3639.53
621.34	3557.61
621.49	3538.89
621.65	3536.55
621.80	3534.21
621.95	3508.46
622.10	3623.15
622.25	3510.80
622.41	3433.57
622.56	3576.34
622.71	3524.85
622.86	3550.59
623.01	3599.74
623.16	3695.71
623.32	3524.85
623.47	3627.83
623.62	3576.34
623.77	3602.08
623.92	3536.55
624.07	3496.76
624.23	3623.15
624.38	3431.23
624.53	3527.19
624.68	3545.91
624.83	3641.87
624.98	3719.11
625.13	3463.99
625.29	3585.70
625.44	3585.70
625.59	3562.30
625.74	3431.23
625.89	3562.30
626.04	3431.23
626.19	3382.07
626.34	3606.77
626.49	3583.36
626.65	3480.38
626.80	3595.06
626.95	3426.54
627.10	3433.57
627.25	3449.95
627.40	3396.12
627.55	3428.88
627.70	3386.76
627.85	3613.79
628.00	3377.39
628.15	3440.59
628.30	3478.04
628.45	3332.92
628.60	3403.14
628.76	3412.50
628.91	3391.44
629.06	3489.74
629.21	3407.82
629.36	3438.25
629.51	3552.93
629.66	3417.18
629.81	3478.04
629.96	3393.78
630.11	3501.44
630.26	3449.95
630.41	3548.25
630.56	3581.02
630.71	3569.32
630.86	3599.74
631.01	3520.17
631.16	3454.63
631.31	3517.83
631.46	3424.20
631.61	3414.84
631.76	3393.78
631.91	3194.83
632.06	3316.54
632.21	3302.50
632.36	3377.39
632.51	3407.82
632.66	3363.35
632.81	3323.56
632.96	3297.81
633.10	3194.83
633.25	3293.13
633.40	3311.86
633.55	3325.90
633.70	3269.73
633.85	3258.03
634.00	3194.83
634.15	3229.94
634.30	3199.51
634.45	3246.32
634.60	3318.88
634.75	3276.75
634.90	3201.85
635.05	3262.71
635.19	3157.38
635.34	3197.17
635.49	3267.39
635.64	3218.24
635.79	3178.45
635.94	3229.94
636.09	3267.39
636.24	3243.98
636.39	3190.15
636.53	3279.09
636.68	3199.51
636.83	3169.09
636.98	3283.77
637.13	3199.51
637.28	3159.72
637.43	3218.24
637.57	3293.13
637.72	3236.96
637.87	3141.00
638.02	3155.04
638.17	3241.64
638.32	3267.39
638.46	3232.28
638.61	3152.70
638.76	3155.04
638.91	3094.19
639.06	3208.87
639.20	3192.49
639.35	3206.53
639.50	3159.72
639.65	3328.24
639.80	3253.34
639.94	3159.72
640.09	3162.06
640.24	3150.36
640.39	3138.66
640.54	3077.80
640.68	3098.87
640.83	3234.62
640.98	3204.19
641.13	3218.24
641.27	3117.59
641.42	3082.49
641.57	3112.91
641.72	3236.96
641.86	3187.81
642.01	3222.92
642.16	3187.81
642.31	3136.32
642.45	3157.38
642.60	3173.77
642.75	3157.38
642.90	3183.13
643.04	3087.17
643.19	3101.21
643.34	3169.09
643.48	3162.06
643.63	3169.09
643.78	3169.09
643.93	3129.30
644.07	3166.74
644.22	3236.96
644.37	3145.68
644.51	3155.04
644.66	3105.89
644.81	3157.38
644.95	3180.79
645.10	3061.42
645.25	2991.20
645.39	3131.64
645.54	3073.12
645.69	3129.30
645.83	3286.11
645.98	3239.30
646.13	3197.17
646.27	3148.02
646.42	3038.02
646.57	3143.34
646.71	3005.25
646.86	3084.83
647.00	3098.87
647.15	3089.51
647.30	3042.70
647.44	2988.86
647.59	2949.08
647.74	2977.16
647.88	3108.23
648.03	3052.06
648.17	3115.25
648.32	2977.16
648.47	3108.23
648.61	3087.17
648.76	3087.17
648.90	3028.65
649.05	3080.14
649.20	3026.31
649.34	3054.40
649.49	2984.18
649.63	3056.74
649.78	3021.63
649.92	3054.40
650.07	3117.59
650.21	3009.93
650.36	3075.46
650.51	3073.12
650.65	3110.57
650.80	2937.37
650.94	2939.71
651.09	2991.20
651.23	2815.66
651.38	3101.21
651.52	2932.69
651.67	2909.29
651.81	2953.76
651.96	3021.63
652.10	2958.44
652.25	3052.06
652.39	3077.80
652.54	2995.89
652.68	3054.40
652.83	3066.10
652.97	2874.18
653.12	3063.76
653.26	3009.93
653.41	3145.68
653.55	3047.38
653.70	2904.60
653.84	3063.76
653.99	3028.65
654.13	2920.99
654.27	3047.38
654.42	3028.65
654.56	2803.96
654.71	2902.26
654.85	2810.98
655.00	2974.82
655.14	2963.12
655.29	2963.12
655.43	3009.93
655.57	2848.43
655.72	2942.05
655.86	3030.99
656.01	2878.86
656.15	2967.80
656.30	3026.31
656.44	2991.20
656.58	2883.54
656.73	2846.09
656.87	2885.88
657.01	2846.09
657.16	2958.44
657.30	3030.99
657.45	2986.52
657.59	2923.33
657.73	2960.78
657.88	2960.78
658.02	2937.37
658.16	2972.48
658.31	2876.52
658.45	2761.83
658.60	2862.48
658.74	2970.14
658.88	2897.58
659.03	2867.16
659.17	2881.20
659.31	2899.92
659.46	2909.29
659.60	2918.65
659.74	2829.71
659.89	2848.43
660.03	2717.36
660.17	2949.08
660.32	2724.38
660.46	2902.26
660.60	2876.52
660.74	2867.16
660.89	2909.29
661.03	2752.47
661.17	2820.35
661.32	2738.43
661.46	2906.95
661.60	2839.07
661.74	2839.07
661.89	2953.76
662.03	2736.09
662.17	2815.66
662.31	2818.00
662.46	2813.32
662.60	2794.60
662.74	2724.38
662.88	2782.90
663.03	2836.73
663.17	2839.07
663.31	2808.64
663.45	2876.52
663.60	2780.56
663.74	2752.47
663.88	2677.57
664.02	2719.70
664.17	2698.64
664.31	2789.92
664.45	2693.96
664.59	2815.66
664.73	2775.88
664.88	2675.23
665.02	2750.13
665.16	2689.28
665.30	2768.85
665.44	2686.94
665.59	2780.56
665.73	2541.82
665.87	2684.59
666.01	2675.23
666.15	2703.32
666.29	2710.34
666.44	2703.32
666.58	2846.09
666.72	2675.23
666.86	2595.65
667.00	2651.83
667.14	2588.63
667.28	2656.51
667.43	2665.87
667.57	2633.10
667.71	2665.87
667.85	2644.81
667.99	2665.87
668.13	2590.97
668.27	2696.30
668.41	2698.64
668.56	2640.12
668.70	2651.83
668.84	2572.25
668.98	2579.27
669.12	2600.34
669.26	2682.25
669.40	2621.40
669.54	2633.10
669.68	2595.65
669.82	2551.18
669.96	2640.12
670.10	2555.86
670.25	2668.21
670.39	2649.49
670.53	2689.28
670.67	2581.61
670.81	2614.38
670.95	2647.15
671.09	2555.86
671.23	2569.91
671.37	2480.97
671.51	2576.93
671.65	2612.04
671.79	2548.84
671.93	2630.76
672.07	2658.85
672.21	2527.78
672.35	2401.39
672.49	2415.43
672.63	2672.89
672.77	2534.80
672.91	2539.48
673.05	2597.99
673.19	2525.44
673.33	2445.86
673.47	2410.75
673.61	2560.55
673.75	2497.35
673.89	2476.29
674.03	2462.24
674.17	2420.11
674.31	2427.14
674.45	2333.51
674.59	2462.24
674.73	2385.01
674.87	2483.31
675.01	2349.90
675.15	2319.47
675.29	2422.45
675.43	2527.78
675.56	2466.92
675.70	2499.69
675.84	2382.67
675.98	2361.60
676.12	2457.56
676.26	2401.39
676.40	2385.01
676.54	2385.01
676.68	2422.45
676.82	2317.13
676.96	2258.62
677.10	2408.41
677.23	2275.00
677.37	2249.25
677.51	2258.62
677.65	2363.94
677.79	2340.54
677.93	2392.03
678.07	2363.94
678.21	2211.81
678.34	2406.07
678.48	2256.28
678.62	2324.15
678.76	2235.21
678.90	2401.39
679.04	2310.11
679.18	2228.19
679.31	2242.23
679.45	2195.42
679.59	2218.83
679.73	2188.40
679.87	2165.00
680.00	2319.47
680.14	2218.83
680.28	2200.10
680.42	2169.68
680.56	2244.57
680.70	2239.89
680.83	2272.66
680.97	2232.87
681.11	2172.02
681.25	2118.18
681.39	2181.38
681.52	2146.27
681.66	2218.83
681.80	2211.81
681.94	2033.93
682.07	2101.80
682.21	2045.63
682.35	1994.14
682.49	2050.31
682.62	2132.23
682.76	2162.66
682.90	1968.39
683.04	2143.93
683.17	2073.71
683.31	2094.78
683.45	2092.44
683.59	2071.37
683.72	2097.12
683.86	2024.56
684.00	2052.65
684.13	2111.16
684.27	1947.33
684.41	2064.35
684.55	2022.22
684.68	1935.62
684.82	2017.54
684.96	1856.04
685.09	2003.50
685.23	1942.64
685.37	1998.82
685.50	2015.20
685.64	1952.01
685.78	1975.41
685.91	1994.14
686.05	2015.20
686.19	1902.86
686.32	1893.49
686.46	1902.86
686.60	1905.20
686.73	1928.60
686.87	1905.20
687.01	1818.60
687.14	1790.51
687.28	1905.20
687.42	1701.57
687.55	1851.36
687.69	2008.18
687.82	1916.90
687.96	1797.53
688.10	1877.11
688.23	1781.15
688.37	1860.73
688.50	1797.53
688.64	1867.75
688.78	1842.00
688.91	1724.97
689.05	1652.42
689.18	1895.83
689.32	1865.41
689.46	1729.66
689.59	1886.47
689.73	1792.85
689.86	1837.32
690.00	1732.00
690.13	1724.97
690.27	1713.27
690.41	1724.97
690.54	1785.83
690.68	1689.87
690.81	1816.26
690.95	1788.17
691.08	1785.83
691.22	1685.19
691.35	1713.27
691.49	1673.48
691.62	1629.01
691.76	1589.22
691.89	1624.33
692.03	1558.80
692.16	1664.12
692.30	1626.67
692.43	1600.93
692.57	1650.08
692.70	1715.61
692.84	1710.93
692.97	1626.67
693.11	1607.95
693.24	1636.03
693.38	1710.93
693.51	1657.10
693.65	1596.25
693.78	1643.06
693.92	1593.90
694.05	1636.03
694.19	1554.12
694.32	1488.58
694.45	1479.22
694.59	1575.18
694.72	1523.69
694.86	1526.03
694.99	1607.95
695.13	1486.24
695.26	1521.35
695.39	1385.60
695.53	1554.12
695.66	1416.02
695.80	1434.75
695.93	1472.20
696.07	1511.99
696.20	1479.22
696.33	1448.79
696.47	1558.80
696.60	1462.83
696.73	1563.48
696.87	1511.99
697.00	1451.13
697.14	1551.78
697.27	1439.43
697.40	1533.05
697.54	1460.49
697.67	1432.41
697.80	1341.13
697.94	1409.00
698.07	1495.60
698.21	1432.41
698.34	1451.13
698.47	1401.98
698.61	1390.28
698.74	1284.95
698.87	1432.41
699.01	1329.42
699.14	1427.73
699.27	1432.41
699.40	1397.30
699.54	1378.58
699.67	1364.53
699.80	1334.11
699.94	1268.57
700.07	1322.40
700.20	1315.38
700.34	1247.51
700.47	1275.59
700.60	1303.68
700.73	1219.42
700.87	1200.69
701.00	1284.95
701.13	1277.93
701.26	1322.40
701.40	1280.27
701.53	1313.04
701.66	1240.48
701.79	1291.98
701.93	1256.87
702.06	1245.16
702.19	1235.80
702.32	1320.06
702.46	1322.40
702.59	1228.78
702.72	1156.22
702.85	1196.01
702.99	1207.72
703.12	1238.14
703.25	1149.20
703.38	1198.35
703.51	1210.06
703.65	1090.69
703.78	1203.04
703.91	1109.41
704.04	1261.55
704.17	1191.33
704.31	1179.63
704.44	1132.82
704.57	1207.72
704.70	1139.84
704.83	1184.31
704.96	1137.50
705.10	1193.67
705.23	1249.85
>>>>>End Processed Spectral Data<<<<<
