SpectraSuite Data File
++++++++++++++++++++++++++++++++++++
Date: Fri Oct 04 11:39:24 GMT-05:00 2013
User: price-jones
Dark Spectrum Present: No
Reference Spectrum Present: No
Number of Sampled Component Spectra: 1
Spectrometers: USB2+H05261
Integration Time (usec): 100000 (USB2+H05261)
Spectra Averaged: 1 (USB2+H05261)
Boxcar Smoothing: 0 (USB2+H05261)
Correct for Electrical Dark: No (USB2+H05261)
Strobe/Lamp Enabled: No (USB2+H05261)
Correct for Detector Non-linearity: No (USB2+H05261)
Correct for Stray Light: No (USB2+H05261)
Number of Pixels in Processed Spectrum: 2048
>>>>>Begin Processed Spectral Data<<<<<
365.73	175.54
365.92	175.54
366.12	175.54
366.32	0.00
366.52	0.00
366.72	37.45
366.91	0.00
367.11	0.00
367.31	0.00
367.51	0.00
367.70	0.00
367.90	0.00
368.10	0.00
368.30	0.00
368.49	0.00
368.69	0.00
368.89	0.00
369.09	0.00
369.28	0.00
369.48	0.00
369.68	0.00
369.87	28.09
370.07	0.00
370.27	0.00
370.47	65.54
370.66	191.92
370.86	273.84
371.06	217.67
371.25	257.46
371.45	205.97
371.65	294.91
371.84	337.04
372.04	283.20
372.24	334.70
372.44	318.31
372.63	290.23
372.83	339.38
373.03	332.36
373.22	290.23
373.42	376.83
373.62	407.25
373.81	351.08
374.01	322.99
374.21	367.46
374.40	397.89
374.60	470.45
374.79	381.51
374.99	315.97
375.19	444.70
375.38	351.08
375.58	339.38
375.78	395.55
375.97	297.25
376.17	470.45
376.37	428.32
376.56	409.59
376.76	390.87
376.95	437.68
377.15	447.04
377.35	358.10
377.54	447.04
377.74	414.27
377.93	365.12
378.13	383.85
378.33	433.00
378.52	409.59
378.72	500.87
378.91	332.36
379.11	418.96
379.31	372.15
379.50	386.19
379.70	430.66
379.89	496.19
380.09	423.64
380.28	435.34
380.48	519.60
380.68	365.12
380.87	395.55
381.07	482.15
381.26	418.96
381.46	451.72
381.65	472.79
381.85	404.91
382.04	498.53
382.24	498.53
382.43	463.43
382.63	493.85
382.83	372.15
383.02	519.60
383.22	531.30
383.41	538.32
383.61	512.58
383.80	437.68
384.00	496.19
384.19	433.00
384.39	608.54
384.58	505.56
384.78	500.87
384.97	526.62
385.17	468.11
385.36	507.90
385.56	507.90
385.75	470.45
385.95	472.79
386.14	475.13
386.34	526.62
386.53	512.58
386.72	540.66
386.92	538.32
387.11	568.75
387.31	545.34
387.50	566.41
387.70	510.24
387.89	596.84
388.09	599.18
388.28	528.96
388.48	528.96
388.67	580.45
388.86	594.50
389.06	662.37
389.25	608.54
389.45	613.22
389.64	641.31
389.84	603.86
390.03	638.97
390.22	610.88
390.42	617.90
390.61	624.92
390.81	559.39
391.00	559.39
391.19	622.58
391.39	671.73
391.58	655.35
391.78	669.39
391.97	650.67
392.16	660.03
392.36	727.91
392.55	732.59
392.75	760.67
392.94	683.44
393.13	669.39
393.33	678.76
393.52	779.40
393.71	716.20
393.91	685.78
394.10	727.91
394.29	716.20
394.49	692.80
394.68	779.40
394.88	786.42
395.07	720.88
395.26	828.55
395.46	807.48
395.65	784.08
395.84	791.10
396.04	882.38
396.23	863.66
396.42	833.23
396.62	842.59
396.81	854.30
397.00	870.68
397.19	889.40
397.39	926.85
397.58	929.19
397.77	905.79
397.97	915.15
398.16	915.15
398.35	997.07
398.55	929.19
398.74	896.43
398.93	903.45
399.12	917.49
399.32	947.92
399.51	873.02
399.70	929.19
399.90	929.19
400.09	983.02
400.28	875.36
400.47	1046.22
400.67	983.02
400.86	1046.22
401.05	950.26
401.24	1100.05
401.44	1116.44
401.63	1086.01
401.82	1109.41
402.01	1043.88
402.21	1142.18
402.40	1191.33
402.59	1144.52
402.78	1135.16
402.97	1191.33
403.17	1181.97
403.36	1249.85
403.55	1163.25
403.74	1177.29
403.93	1294.32
404.13	1322.40
404.32	1303.68
404.51	1301.34
404.70	1416.02
404.89	1219.42
405.09	1401.98
405.28	1320.06
405.47	1380.92
405.66	1406.66
405.85	1324.74
406.05	1404.32
406.24	1352.83
406.43	1500.28
406.62	1434.75
406.81	1486.24
407.00	1378.58
407.20	1448.79
407.39	1420.71
407.58	1481.56
407.77	1533.05
407.96	1584.54
408.15	1535.39
408.34	1474.54
408.54	1617.31
408.73	1528.37
408.92	1675.82
409.11	1664.12
409.30	1652.42
409.49	1689.87
409.68	1624.33
409.87	1799.87
410.07	1753.06
410.26	1760.08
410.45	1750.72
410.64	1732.00
410.83	1802.21
411.02	1722.63
411.21	1907.54
411.40	1760.08
411.59	1952.01
411.78	1937.96
411.98	1944.99
412.17	1926.26
412.36	1909.88
412.55	2005.84
412.74	2036.27
412.93	1996.48
413.12	2005.84
413.31	2172.02
413.50	2108.82
413.69	2066.69
413.88	2251.60
414.07	2092.44
414.26	2202.44
414.45	2230.53
414.64	2342.88
414.83	2282.02
415.02	2267.98
415.22	2260.96
415.41	2333.51
415.60	2340.54
415.79	2399.05
415.98	2427.14
416.17	2548.84
416.36	2492.67
416.55	2518.42
416.74	2427.14
416.93	2621.40
417.12	2546.50
417.31	2590.97
417.50	2682.25
417.69	2745.45
417.88	2747.79
418.07	2619.06
418.26	2766.51
418.45	2654.17
418.64	2869.50
418.83	2843.75
419.02	2747.79
419.21	2775.88
419.39	2792.26
419.58	2792.26
419.77	2801.62
419.96	3028.65
420.15	2986.52
420.34	2958.44
420.53	2892.90
420.72	2860.13
420.91	3019.29
421.10	2944.39
421.29	3073.12
421.48	2995.89
421.67	3038.02
421.86	3094.19
422.05	3096.53
422.24	3105.89
422.43	3068.44
422.61	3094.19
422.80	3143.34
422.99	3220.58
423.18	3045.04
423.37	3162.06
423.56	3274.41
423.75	3173.77
423.94	3030.99
424.13	2930.35
424.32	3105.89
424.50	3176.11
424.69	3342.28
424.88	3225.26
425.07	3157.38
425.26	3218.24
425.45	3304.84
425.64	3211.22
425.83	3229.94
426.01	3243.98
426.20	3358.67
426.39	3274.41
426.58	3105.89
426.77	3321.22
426.96	3283.77
427.15	3286.11
427.33	3396.12
427.52	3466.33
427.71	3463.99
427.90	3314.20
428.09	3454.63
428.28	3534.21
428.46	3531.87
428.65	3398.46
428.84	3602.08
429.03	3681.66
429.22	3349.31
429.40	3545.91
429.59	3471.01
429.78	3410.16
429.97	3412.50
430.16	3527.19
430.34	3492.08
430.53	3660.60
430.72	3581.02
430.91	3599.74
431.10	3609.11
431.28	3794.01
431.47	3747.20
431.66	3786.99
431.85	3709.75
432.03	3882.95
432.22	3892.31
432.41	3915.72
432.60	4004.66
432.79	3861.88
432.97	3894.65
433.16	3889.97
433.35	3999.98
433.54	3904.01
433.72	3826.78
433.91	3974.23
434.10	3974.23
434.28	3934.44
434.47	4035.08
434.66	4147.43
434.85	4105.30
435.03	4355.74
435.22	4376.80
435.41	4784.06
435.59	4526.60
435.78	4423.61
435.97	4287.86
436.16	4348.72
436.34	4283.18
436.53	4229.35
436.72	4278.50
436.90	4325.31
437.09	4301.90
437.28	4400.21
437.46	4407.23
437.65	4400.21
437.84	4383.82
438.02	4234.03
438.21	4440.00
438.40	4367.44
438.58	4472.76
438.77	4615.54
438.96	4561.70
439.14	4681.07
439.33	4690.43
439.52	4870.65
439.70	4779.37
439.89	4873.00
440.08	4727.88
440.26	4746.61
440.45	4835.55
440.63	4917.47
440.82	4961.94
441.01	4997.04
441.19	5004.07
441.38	4992.36
441.57	5135.14
441.75	4980.66
441.94	5294.29
442.12	5135.14
442.31	5249.82
442.50	5198.33
442.68	5380.89
442.87	5296.63
443.05	5165.56
443.24	5418.34
443.43	5563.45
443.61	5430.04
443.80	5394.93
443.98	5348.12
444.17	5238.12
444.35	5399.62
444.54	5526.00
444.73	5533.03
444.91	5357.49
445.10	5373.87
445.28	5561.11
445.47	5481.53
445.65	5603.24
445.84	5453.45
446.02	5572.82
446.21	5476.85
446.39	5509.62
446.58	5511.96
446.77	5582.18
446.95	5453.45
447.14	5586.86
447.32	5685.16
447.51	5458.13
447.69	5507.28
447.88	5666.44
448.06	5544.73
448.25	5493.24
448.43	5685.16
448.62	5685.16
448.80	5589.20
448.99	5724.95
449.17	5774.10
449.36	5717.93
449.54	5837.30
449.73	5830.27
449.91	5870.06
450.10	5790.49
450.28	6054.97
450.46	5935.60
450.65	6045.60
450.83	5951.98
451.02	6010.50
451.20	5984.75
451.39	5832.62
451.57	6090.07
451.76	6097.10
451.94	6029.22
452.13	6129.86
452.31	6139.23
452.49	6076.03
452.68	6101.78
452.86	5966.03
453.05	6221.14
453.23	6246.89
453.42	6106.46
453.60	6094.76
453.78	6246.89
453.97	6132.20
454.15	6274.98
454.34	6108.80
454.52	6422.43
454.70	6171.99
454.89	6356.90
455.07	6464.56
455.26	6335.83
455.44	6499.67
455.62	6436.47
455.81	6354.55
455.99	6586.27
456.17	6644.78
456.36	6494.99
456.54	6820.32
456.73	6759.47
456.91	6787.55
457.09	6871.81
457.28	6899.90
457.46	6654.14
457.64	6817.98
457.83	6949.05
458.01	6803.94
458.19	6796.92
458.38	6792.23
458.56	7037.99
458.74	6918.62
458.93	6944.37
459.11	7218.21
459.29	6963.09
459.48	7054.37
459.66	6977.14
459.84	7211.19
460.03	7166.72
460.21	7140.97
460.39	7255.66
460.57	7019.27
460.76	7220.55
460.94	7192.47
461.12	7307.15
461.31	7243.96
461.49	7225.23
461.67	7356.30
461.85	7475.67
462.04	7419.50
462.22	7578.65
462.40	7470.99
462.59	7470.99
462.77	7632.49
462.95	7618.44
463.13	7459.29
463.32	7515.46
463.50	7632.49
463.68	7801.01
463.86	7819.73
464.05	7735.47
464.23	7705.04
464.41	7735.47
464.59	7641.85
464.78	7756.54
464.96	7772.92
465.14	7571.63
465.32	7915.69
465.50	7934.42
465.69	7997.61
465.87	7962.50
466.05	8018.68
466.23	7999.95
466.41	7925.05
466.60	8175.49
466.78	7889.95
466.96	7899.31
467.14	7894.63
467.32	8095.91
467.51	8086.55
467.69	8018.68
467.87	8067.83
468.05	8262.09
468.23	8044.42
468.41	8189.53
468.60	8229.32
468.78	8210.60
468.96	8245.71
469.14	8252.73
469.32	8318.26
469.50	8411.89
469.69	8655.30
469.87	8655.30
470.05	8468.06
470.23	8671.68
470.41	8383.80
470.59	8580.40
470.77	8575.72
470.95	8615.51
471.14	8683.39
471.32	8631.90
471.50	9104.68
471.68	8990.00
471.86	8954.89
472.04	8931.48
472.22	8950.21
472.40	8858.93
472.58	8938.51
472.77	9027.45
472.95	9170.22
473.13	9446.40
473.31	9202.99
473.49	9235.75
473.67	9329.38
473.85	9338.74
474.03	9224.05
474.21	9210.01
474.39	9650.03
474.57	9607.90
474.75	9645.35
474.93	9753.01
475.12	9781.10
475.30	9596.20
475.48	9783.44
475.66	9947.28
475.84	9846.63
476.02	10012.81
476.20	10064.30
476.38	10204.74
476.56	10387.30
476.74	10235.16
476.92	10214.10
477.10	10551.14
477.28	10431.77
477.46	10513.69
477.64	10647.10
477.82	10686.89
478.00	10974.77
478.18	10981.79
478.36	11211.17
478.54	10972.43
478.72	11105.84
478.90	11145.63
479.08	11447.56
479.26	11349.26
479.44	11377.34
479.62	11812.68
479.80	11250.96
479.98	11669.91
480.16	11915.67
480.34	11803.32
480.52	11915.67
480.70	12201.21
480.88	11861.84
481.06	12088.87
481.24	12128.66
481.41	12411.86
481.59	12556.97
481.77	12912.74
481.95	12676.34
482.13	12795.71
482.31	12933.80
482.49	13144.45
482.67	13104.66
482.85	13123.38
483.03	13247.43
483.21	13556.38
483.39	13694.47
483.57	13664.05
483.74	13687.45
483.92	13923.85
484.10	13692.13
484.28	13940.23
484.46	14326.42
484.64	14429.40
484.82	13743.63
485.00	14310.04
485.18	14869.42
485.35	14846.02
485.53	14721.97
485.71	14881.13
485.89	15253.27
486.07	14920.92
486.25	15021.56
486.43	14944.32
486.61	15744.78
486.78	15616.05
486.96	15616.05
487.14	15997.56
487.32	15681.59
487.50	16084.16
487.68	16152.04
487.85	16397.79
488.03	16250.34
488.21	16746.53
488.39	16872.92
488.57	16819.09
488.75	16985.27
488.92	17277.83
489.10	17266.13
489.28	17097.61
489.46	17692.11
489.64	17231.02
489.81	17675.73
489.99	17965.95
490.17	17909.78
490.35	18363.84
490.53	18214.05
490.70	18471.51
490.88	18288.95
491.06	19056.64
491.24	18565.13
491.41	18546.40
491.59	18773.44
491.77	18822.59
491.95	19147.92
492.13	19426.45
492.30	19260.27
492.48	19372.61
492.66	19391.34
492.84	19611.35
493.01	19903.92
493.19	19601.99
493.37	19920.30
493.54	19819.66
493.72	20430.54
493.90	20306.49
494.08	20458.62
494.25	20922.05
494.43	20650.55
494.61	20964.18
494.79	21221.64
494.96	20786.30
495.14	20877.58
495.32	21376.11
495.49	21558.67
495.67	21406.54
495.85	21809.11
496.02	21682.72
496.20	21994.01
496.38	21771.66
496.55	21914.44
496.73	22663.41
496.91	22466.80
497.09	22530.00
497.26	22757.03
497.44	22558.08
497.62	22686.81
497.79	22927.89
497.97	22686.81
498.14	23126.83
498.32	23208.75
498.50	23351.52
498.67	23520.04
498.85	23403.02
499.03	23714.31
499.20	23770.48
499.38	23906.23
499.56	23995.17
499.73	23950.70
499.91	24318.17
500.08	24528.81
500.26	24381.36
500.44	24655.20
500.61	24463.28
500.79	24662.22
500.97	24922.02
501.14	25123.31
501.32	25085.86
501.49	24929.05
501.67	24725.42
501.84	25034.37
502.02	25069.48
502.20	25230.98
502.37	25500.14
502.55	25027.35
502.72	25432.26
502.90	25551.63
503.07	25642.91
503.25	25556.31
503.43	26218.68
503.60	26026.76
503.78	25954.20
503.95	26075.91
504.13	26263.15
504.30	26441.03
504.48	26277.19
504.65	26225.70
504.83	26473.80
505.01	26635.30
505.18	26387.20
505.36	27145.53
505.53	26780.41
505.71	27002.76
505.88	26909.14
506.06	26642.32
506.23	27414.69
506.41	27044.89
506.58	27047.23
506.76	27335.12
506.93	27204.05
507.11	27438.10
507.28	27683.86
507.46	27803.22
507.63	27929.61
507.81	28311.12
507.98	28086.43
508.16	27878.12
508.33	27847.69
508.50	28105.15
508.68	28203.46
508.85	28643.48
509.03	28645.82
509.20	28343.89
509.38	28753.48
509.55	28790.93
509.73	28638.80
509.90	28737.10
510.08	28765.18
510.25	28971.15
510.42	29387.77
510.60	29355.00
510.77	29369.04
510.95	29558.63
511.12	29476.71
511.30	29614.80
511.47	29890.98
511.64	29544.58
511.82	29996.31
511.99	29647.57
512.17	30000.99
512.34	29926.09
512.51	30125.04
512.69	30080.56
512.86	30412.92
513.04	30663.36
513.21	30487.82
513.38	30618.89
513.56	30668.04
513.73	30452.71
513.90	30881.03
514.08	30562.72
514.25	31243.81
514.43	30892.73
514.60	31269.56
514.77	31241.47
514.95	31601.91
515.12	30834.22
515.29	31042.53
515.47	31384.24
515.64	31644.04
515.81	31332.75
515.99	31630.00
516.16	32268.97
516.33	31786.82
516.51	31917.89
516.68	32222.16
516.85	32053.64
517.03	32285.35
517.20	32208.11
517.37	32388.33
517.54	32769.84
517.72	32439.82
517.89	32411.74
518.06	32425.78
518.24	32704.31
518.41	32706.65
518.58	32645.79
518.75	32549.83
518.93	32631.75
519.10	32652.81
519.27	32903.25
519.45	32961.76
519.62	32980.49
519.79	33282.42
519.96	33699.03
520.14	33170.07
520.31	33256.67
520.48	33874.57
520.65	33542.22
520.83	33837.12
521.00	33617.11
521.17	33631.16
521.34	33720.10
521.52	33970.54
521.69	34213.95
521.86	33996.28
522.03	34466.73
522.20	34579.07
522.38	34436.30
522.55	34607.16
522.72	34380.13
522.89	34321.62
523.07	34534.60
523.24	34881.00
523.41	34670.36
523.58	34504.18
523.75	35075.27
523.92	35033.14
524.10	34913.77
524.27	35129.10
524.44	35093.99
524.61	35393.58
524.78	35407.62
524.96	35412.31
525.13	35868.71
525.30	35349.11
525.47	35508.27
525.64	35660.40
525.81	35782.11
525.98	35658.06
526.16	35611.25
526.33	36278.30
526.50	36261.92
526.67	35515.29
526.84	36084.04
527.01	36217.45
527.18	36060.63
527.36	36292.35
527.53	36428.10
527.70	36776.84
527.87	36797.90
528.04	36776.84
528.21	36374.27
528.38	36147.23
528.55	36505.34
528.72	37060.04
528.89	36912.59
529.07	37113.87
529.24	36538.10
529.41	36577.89
529.58	36680.88
529.75	36641.09
529.92	37436.87
530.09	37076.43
530.26	37303.46
530.43	37305.80
530.60	37329.20
530.77	37069.40
530.94	37397.08
531.11	37425.17
531.28	37273.03
531.46	37479.00
531.63	37755.18
531.80	37724.75
531.97	37841.78
532.14	38096.90
532.31	38012.64
532.48	38150.73
532.65	38085.20
532.82	37865.19
532.99	37944.76
533.16	37350.27
533.33	37780.93
533.50	38377.76
533.67	38127.33
533.84	38162.43
534.01	37989.24
534.18	38183.50
534.35	38742.89
534.52	38546.28
534.69	38604.80
534.86	38237.33
535.03	38639.90
535.20	38754.59
535.37	38801.40
535.54	38974.60
535.71	38813.10
535.88	38880.98
536.05	39187.59
536.22	39049.50
536.38	39178.23
536.55	39639.31
536.72	39276.53
536.89	39002.69
537.06	39243.76
537.23	39175.89
537.40	39388.88
537.57	39557.39
537.74	39501.22
537.91	39924.86
538.08	39833.58
538.25	39618.25
538.42	39356.11
538.59	39604.20
538.75	39292.91
538.92	39456.75
539.09	39906.13
539.26	39976.35
539.43	40481.91
539.60	40130.83
539.77	40285.30
539.94	40355.52
540.11	40399.99
540.28	40280.62
540.44	40058.27
540.61	40467.86
540.78	40238.49
540.95	40456.16
541.12	40769.79
541.29	40638.72
541.46	40741.71
541.62	40957.03
541.79	41060.02
541.96	40713.62
542.13	40807.24
542.30	41017.89
542.47	40992.14
542.63	41493.02
542.80	41148.96
542.97	41324.50
543.14	41773.88
543.31	41497.70
543.48	40823.62
543.64	41610.04
543.81	42141.35
543.98	41921.34
544.15	41553.87
544.32	41446.21
544.48	42085.17
544.65	41406.42
544.82	41940.06
544.99	41476.63
545.16	41755.16
545.32	41628.77
545.49	42506.47
545.66	43044.79
545.83	43171.18
546.00	42948.83
546.16	42237.31
546.33	41907.29
546.50	41888.57
546.67	41708.35
546.83	41415.78
547.00	42197.52
547.17	42387.10
547.34	42394.12
547.50	42546.26
547.67	42560.30
547.84	42284.12
548.00	42586.05
548.17	42600.09
548.34	42373.06
548.51	42738.18
548.67	42862.23
548.84	42469.02
549.01	43136.07
549.18	42462.00
549.34	42604.77
549.51	42733.50
549.68	42642.22
549.84	42520.51
550.01	42499.45
550.18	42724.14
550.34	42632.86
550.51	42770.95
550.68	42871.59
550.84	42813.08
551.01	42920.74
551.18	43049.47
551.34	42927.77
551.51	42686.69
551.68	42944.15
551.84	43196.93
552.01	43185.22
552.18	43320.98
552.34	42691.37
552.51	43428.64
552.68	43274.16
552.84	42972.24
553.01	43337.36
553.18	43606.52
553.34	43143.09
553.51	43402.89
553.67	43452.05
553.84	43508.22
554.01	43454.39
554.17	43819.51
554.34	43548.01
554.51	43320.98
554.67	43461.41
554.84	43241.40
555.00	43646.31
555.17	43578.43
555.33	43924.83
555.50	43667.37
555.67	43262.46
555.83	43543.33
556.00	43866.32
556.16	43873.34
556.33	43606.52
556.50	44252.51
556.66	43725.89
556.83	43639.29
556.99	44325.07
557.16	44500.61
557.32	44392.94
557.49	44205.70
557.65	43669.72
557.82	43702.48
557.98	44034.84
558.15	44011.43
558.32	44158.89
558.48	44093.35
558.65	44371.88
558.81	44268.89
558.98	44076.97
559.14	44044.20
559.31	43838.23
559.47	43903.77
559.64	44046.54
559.80	44561.46
559.97	44409.32
560.13	44350.81
560.30	44638.70
560.46	44582.52
560.63	44442.09
560.79	44458.48
560.96	44456.14
561.12	44245.49
561.29	44437.41
561.45	44697.21
561.61	44561.46
561.78	44524.01
561.94	44458.48
562.11	44910.20
562.27	44538.05
562.44	44624.65
562.60	44538.05
562.77	44994.46
562.93	44456.14
563.10	45385.33
563.26	44629.34
563.42	45214.47
563.59	44659.76
563.75	44746.36
563.92	44882.11
564.08	44839.98
564.24	44985.10
564.41	44760.40
564.57	44605.93
564.74	44886.79
564.90	44877.43
565.07	44397.62
565.23	45118.51
565.39	44940.63
565.56	45052.97
565.72	44624.65
565.88	45333.84
566.05	44760.40
566.21	45036.59
566.38	45134.89
566.54	44809.56
566.70	44931.26
566.87	45485.97
567.03	45333.84
567.19	45495.33
567.36	45574.91
567.52	44769.77
567.68	45329.16
567.85	45179.36
568.01	45233.19
568.17	44968.71
568.34	45474.27
568.50	44917.22
568.66	45212.13
568.83	45146.59
568.99	45050.63
569.15	45148.93
569.32	44996.80
569.48	44762.75
569.64	45064.67
569.81	45041.27
569.97	45411.07
570.13	45390.01
570.30	45226.17
570.46	45399.37
570.62	45202.77
570.78	45010.84
570.95	44879.77
571.11	45624.06
571.27	44818.92
571.43	44828.28
571.60	45123.19
571.76	45397.03
571.92	45467.25
572.09	45298.73
572.25	45633.42
572.41	45443.84
572.57	45546.82
572.74	45874.50
572.90	45272.98
573.06	45464.91
573.22	45090.42
573.38	45633.42
573.55	45425.12
573.71	45729.39
573.87	45476.61
574.03	45394.69
574.20	44835.30
574.36	44847.00
574.52	45441.50
574.68	45361.92
574.84	45382.99
575.01	45610.02
575.17	45301.07
575.33	45198.09
575.49	45516.40
575.65	45610.02
575.82	45324.47
575.98	45439.16
576.14	45586.61
576.30	45546.82
576.46	45563.21
576.62	45710.66
576.79	45556.19
576.95	45624.06
577.11	45984.51
577.27	45734.07
577.43	45551.51
577.59	46010.25
577.75	45422.78
577.92	45347.88
578.08	45535.12
578.24	45371.28
578.40	45673.21
578.56	45509.38
578.72	45710.66
578.88	45944.72
579.04	45801.94
579.21	45422.78
579.37	46064.08
579.53	45759.81
579.69	45165.32
579.85	46089.83
580.01	45488.31
580.17	45703.64
580.33	45813.65
580.49	45619.38
580.65	45982.16
580.82	45837.05
580.98	45848.75
581.14	45806.62
581.30	46202.18
581.46	45745.77
581.62	45897.91
581.78	45495.33
581.94	45675.55
582.10	45586.61
582.26	45818.33
582.42	45652.15
582.58	45778.54
582.74	45652.15
582.90	45715.34
583.06	45860.46
583.22	45556.19
583.38	46099.19
583.54	45642.79
583.70	45762.15
583.86	45940.04
584.02	45446.18
584.18	46068.76
584.34	46054.72
584.50	46358.99
584.66	45762.15
584.82	45556.19
584.98	46078.13
585.14	45888.54
585.30	45680.24
585.46	45516.40
585.62	45635.77
585.78	45897.91
585.94	46244.30
586.10	45872.16
586.26	46127.28
586.42	45895.56
586.58	46389.42
586.74	45827.69
586.90	45588.95
587.06	45935.35
587.22	46124.94
587.38	45720.02
587.54	45984.51
587.70	46071.10
587.86	46237.28
588.02	46131.96
588.18	46401.12
588.34	46136.64
588.49	45830.03
588.65	46134.30
588.81	46143.66
588.97	45982.16
589.13	46021.95
589.29	45666.19
589.45	46382.40
589.61	46382.40
589.77	46234.94
589.93	46314.52
590.08	46234.94
590.24	45942.38
590.40	46431.55
590.56	46361.33
590.72	46059.40
590.88	46021.95
591.04	45874.50
591.20	46579.00
591.35	46190.47
591.51	46590.70
591.67	46670.28
591.83	46412.82
591.99	46415.16
592.15	46241.96
592.31	45951.74
592.46	45830.03
592.62	46038.34
592.78	46204.52
592.94	46548.57
593.10	46410.48
593.26	46398.78
593.41	46373.03
593.57	46064.08
593.73	46415.16
593.89	46171.75
594.05	46239.62
594.20	46061.74
594.36	46270.05
594.52	46050.04
594.68	46188.13
594.84	45989.19
594.99	46073.45
595.15	46562.62
595.31	46082.81
595.47	46260.69
595.62	46234.94
595.78	46344.95
595.94	45773.86
596.10	46663.26
596.25	46218.56
596.41	46225.58
596.57	46120.26
596.73	46454.95
596.88	46319.20
597.04	46160.05
597.20	46499.42
597.36	46450.27
597.51	46686.67
597.67	46094.51
597.83	46499.42
597.99	46375.37
598.14	45851.09
598.30	46515.81
598.46	45949.40
598.61	46260.69
598.77	45911.95
598.93	46146.00
599.09	46660.92
599.24	46728.80
599.40	46511.13
599.56	46518.15
599.71	46316.86
599.87	46674.96
600.03	46597.73
600.18	46611.77
600.34	46621.13
600.50	46520.49
600.65	46543.89
600.81	46728.80
600.97	46733.48
601.12	46775.61
601.28	46841.14
601.44	46838.80
601.59	46733.48
601.75	45979.82
601.91	46309.84
602.06	46085.15
602.22	46384.74
602.37	46007.91
602.53	46068.76
602.69	46677.30
602.84	46314.52
603.00	46693.69
603.16	46286.43
603.31	46021.95
603.47	46281.75
603.62	46073.45
603.78	46342.61
603.94	45832.37
604.09	46291.12
604.25	46017.27
604.40	46155.36
604.56	46492.40
604.71	46686.67
604.87	46026.63
605.03	46639.86
605.18	46607.09
605.34	46499.42
605.49	45876.84
605.65	46398.78
605.80	45909.61
605.96	46099.19
606.12	45935.35
606.27	46073.45
606.43	46078.13
606.58	46457.29
606.74	46057.06
606.89	46256.01
607.05	46192.81
607.20	46157.70
607.36	45698.96
607.51	46050.04
607.67	45621.72
607.82	45897.91
607.98	45717.68
608.13	46223.24
608.29	46089.83
608.44	46005.57
608.60	45935.35
608.75	46476.02
608.91	46511.13
609.06	46024.29
609.22	45696.62
609.37	45656.83
609.53	45780.88
609.68	46295.80
609.84	46078.13
609.99	46218.56
610.15	45876.84
610.30	46319.20
610.46	45989.19
610.61	46415.16
610.76	46576.66
610.92	46492.40
611.07	47196.90
611.23	46630.49
611.38	46602.41
611.54	46403.46
611.69	45944.72
611.84	46138.98
612.00	45865.14
612.15	45867.48
612.31	46293.46
612.46	46047.70
612.62	45869.82
612.77	45771.52
612.92	45935.35
613.08	45801.94
613.23	46162.39
613.39	45874.50
613.54	45055.31
613.69	45694.28
613.85	45584.27
614.00	45429.80
614.15	45921.31
614.31	45265.96
614.46	45790.24
614.62	45598.32
614.77	45626.40
614.92	45680.24
615.08	45518.74
615.23	45888.54
615.38	45778.54
615.54	45055.31
615.69	45322.13
615.84	45478.95
616.00	45167.66
616.15	45144.25
616.30	45586.61
616.46	45113.83
616.61	45013.18
616.76	45404.05
616.92	45223.83
617.07	45186.38
617.22	44947.65
617.37	44690.19
617.53	44938.29
617.68	44856.37
617.83	44882.11
617.99	44629.34
618.14	44350.81
618.29	45336.18
618.45	44842.32
618.60	45041.27
618.75	44884.45
618.90	45216.81
619.06	44884.45
619.21	44610.61
619.36	45074.04
619.51	44938.29
619.67	44156.55
619.82	44367.20
619.97	44479.54
620.12	44306.34
620.28	44636.36
620.43	44797.85
620.58	44692.53
620.73	44697.21
620.89	44669.12
621.04	44832.96
621.19	44772.11
621.34	44355.49
621.49	44027.82
621.65	44516.99
621.80	44465.50
621.95	44013.77
622.10	44390.60
622.25	44325.07
622.41	43856.96
622.56	44119.10
622.71	44418.69
622.86	44414.01
623.01	44552.10
623.16	44264.21
623.32	44102.71
623.47	44453.79
623.62	44018.46
623.77	43882.70
623.92	43732.91
624.07	43690.78
624.23	43849.94
624.38	44437.41
624.53	44009.09
624.68	44189.31
624.83	43896.75
624.98	44062.93
625.13	43686.10
625.29	44091.01
625.44	43981.01
625.59	43285.87
625.74	43264.80
625.89	43793.76
626.04	43175.86
626.19	43812.49
626.34	43288.21
626.49	43669.72
626.65	43594.82
626.80	43552.69
626.95	43583.12
627.10	43426.30
627.25	43028.41
627.40	43421.62
627.55	43323.32
627.70	42937.13
627.85	43220.33
628.00	42810.74
628.15	43049.47
628.30	43320.98
628.45	43473.11
628.60	43311.61
628.76	43753.97
628.91	42925.42
629.06	43253.10
629.21	43276.51
629.36	43292.89
629.51	42960.53
629.66	43215.65
629.81	42815.42
629.96	43030.75
630.11	42834.14
630.26	43030.75
630.41	43295.23
630.56	42543.92
630.71	42983.94
630.86	42960.53
631.01	42836.48
631.16	43482.47
631.31	43236.72
631.46	42543.92
631.61	42869.25
631.76	42307.52
631.91	42628.18
632.06	42417.53
632.21	42550.94
632.36	42595.41
632.51	41830.05
632.66	42745.20
632.81	41940.06
632.96	42424.55
633.10	42209.22
633.25	42581.37
633.40	42277.10
633.55	42101.56
633.70	42405.83
633.85	42384.76
634.00	41780.90
634.15	42160.07
634.30	42085.17
634.45	42061.77
634.60	42054.75
634.75	42579.03
634.90	42305.18
635.05	42323.91
635.19	42113.26
635.34	42520.51
635.49	42192.84
635.64	42246.67
635.79	41364.29
635.94	42000.91
636.09	41832.39
636.24	41867.50
636.39	41518.76
636.53	42045.38
636.68	41691.96
636.83	41778.56
636.98	42024.32
637.13	41694.30
637.28	41738.77
637.43	42363.70
637.57	41975.17
637.72	41471.95
637.87	42085.17
638.02	41368.97
638.17	41736.43
638.32	41118.53
638.46	41233.22
638.61	41441.53
638.76	41125.55
638.91	41443.87
639.06	41500.04
639.20	40973.42
639.35	41504.72
639.50	41340.88
639.65	41619.41
639.80	41148.96
639.94	41408.76
640.09	41247.26
640.24	41188.75
640.39	41137.26
640.54	41282.37
640.68	40896.18
640.83	41090.44
640.98	40849.37
641.13	40947.67
641.27	41113.85
641.42	40935.97
641.57	41322.16
641.72	41329.18
641.86	41111.51
642.01	40882.14
642.16	40652.76
642.31	40449.14
642.45	40786.18
642.60	40339.13
642.75	40453.82
642.90	40575.53
643.04	40868.09
643.19	40425.73
643.34	40517.01
643.48	40591.91
643.63	40954.69
643.78	40959.38
643.93	40900.86
644.07	40442.12
644.22	40722.98
644.37	40362.54
644.51	40718.30
644.66	40652.76
644.81	40505.31
644.95	40502.97
645.10	40587.23
645.25	40271.26
645.39	40470.20
645.54	40912.56
645.69	40294.66
645.83	40594.25
645.98	40154.23
646.13	40720.64
646.27	40519.35
646.42	39938.90
646.57	40250.19
646.71	40301.68
646.86	40247.85
647.00	39936.56
647.15	40123.80
647.30	39573.78
647.44	39541.01
647.59	40088.70
647.74	39945.92
647.88	40240.83
648.03	40067.63
648.17	40037.20
648.32	40175.30
648.47	40184.66
648.61	39910.82
648.76	40140.19
648.90	39522.29
649.05	39433.35
649.20	39522.29
649.34	39777.40
649.49	39978.69
649.63	39761.02
649.78	40030.18
649.92	39061.20
650.07	40201.04
650.21	39838.26
650.36	40107.42
650.51	39889.75
650.65	40196.36
650.80	39667.40
650.94	39669.74
651.09	39529.31
651.23	39246.10
651.38	39625.27
651.52	39517.60
651.67	39065.88
651.81	39302.28
651.96	39112.69
652.10	39580.80
652.25	39557.39
652.39	39555.05
652.54	39782.09
652.68	39826.56
652.83	39363.13
652.97	39253.12
653.12	39407.60
653.26	39508.24
653.41	39681.44
653.55	39234.40
653.70	39136.10
653.84	39316.32
653.99	39196.95
654.13	39075.24
654.27	39044.82
654.42	39105.67
654.56	39194.61
654.71	38880.98
654.85	38824.81
655.00	39161.84
655.14	38880.98
655.29	38630.54
655.43	38731.18
655.57	38862.26
655.72	38543.94
655.86	38651.61
656.01	38082.86
656.15	38176.48
656.30	38478.41
656.44	38480.75
656.58	38333.29
656.73	38602.46
656.87	38227.97
657.01	38834.17
657.16	38651.61
657.30	38763.95
657.45	38574.37
657.59	38466.70
657.73	38029.02
657.88	38576.71
658.02	37998.60
658.16	38536.92
658.31	38164.78
658.45	38546.28
658.60	38087.54
658.74	37736.46
658.88	38045.41
659.03	38059.45
659.17	38052.43
659.31	38014.98
659.46	38176.48
659.60	37785.61
659.74	38368.40
659.89	37825.40
660.03	37481.34
660.17	38330.95
660.32	38045.41
660.46	37635.81
660.60	37141.96
660.74	37464.96
660.89	37425.17
661.03	37165.37
661.17	37343.25
661.32	37659.22
661.46	37357.29
661.60	37387.72
661.74	37118.56
661.89	37434.53
662.03	37181.75
662.17	37251.97
662.31	36919.61
662.46	37368.99
662.60	37312.82
662.74	36959.40
662.88	36554.49
663.03	36830.67
663.17	36320.43
663.31	36435.12
663.45	36708.96
663.60	36968.76
663.74	36692.58
663.88	36442.14
664.02	36484.27
664.17	36732.37
664.31	36102.76
664.45	36287.67
664.59	36369.58
664.73	35995.10
664.88	36144.89
665.02	36208.09
665.16	36013.82
665.30	36163.62
665.44	35707.21
665.59	35941.27
665.73	35515.29
665.87	35590.19
666.01	35611.25
666.15	35875.73
666.29	35737.64
666.44	35409.96
666.58	35379.54
666.72	35435.71
666.86	35721.26
667.00	35676.79
667.14	35225.06
667.28	35332.73
667.43	35412.31
667.57	35503.59
667.71	35269.53
667.85	35096.33
667.99	34923.13
668.13	35007.39
668.27	35051.86
668.41	35086.97
668.56	34735.89
668.70	35157.19
668.84	35056.54
668.98	35257.83
669.12	34848.24
669.26	35367.84
669.40	34712.49
669.54	34803.77
669.68	34492.47
669.82	34466.73
669.96	34160.12
670.10	34143.74
670.25	34204.59
670.39	33998.62
670.53	33883.94
670.67	34019.69
670.81	34073.52
670.95	34106.29
671.09	34274.80
671.23	34092.24
671.37	34202.25
671.51	34183.52
671.65	33816.06
671.79	34190.55
671.93	33553.92
672.07	33574.98
672.21	33645.20
672.35	33457.96
672.49	33069.43
672.63	33118.58
672.77	33031.98
672.91	32844.74
673.05	33046.02
673.19	33518.81
673.33	32954.74
673.47	33439.23
673.61	32940.70
673.75	32683.24
673.89	32994.53
674.03	33022.62
674.17	32339.18
674.31	32271.31
674.45	32741.75
674.59	32496.00
674.73	32371.95
674.87	32355.57
675.01	32170.66
675.15	32315.78
675.29	32041.93
675.43	32467.91
675.56	31707.24
675.70	32318.12
675.84	32320.46
675.98	31150.19
676.12	31676.81
676.26	31761.07
676.40	32187.05
676.54	32034.91
676.68	31606.59
676.82	30897.41
676.96	31056.57
677.10	31538.72
677.23	30995.71
677.37	30639.95
677.51	30445.69
677.65	30932.52
677.79	30590.80
677.93	30703.15
678.07	30389.52
678.21	30616.55
678.34	30632.93
678.48	30590.80
678.62	30321.64
678.76	30146.10
678.90	29633.52
679.04	29923.75
679.18	29724.80
679.31	29656.93
679.45	29525.86
679.59	29294.14
679.73	29326.91
679.87	29165.42
680.00	28797.95
680.14	29163.08
680.28	28570.92
680.42	29212.23
680.56	29053.07
680.70	28849.44
680.83	28886.89
680.97	28847.10
681.11	28528.79
681.25	28606.03
681.39	28725.39
681.52	28631.77
681.66	28645.82
681.80	28409.42
681.94	28360.27
682.07	28079.41
682.21	27988.13
682.35	27779.82
682.49	27948.34
682.62	27828.97
682.76	27477.89
682.90	27447.46
683.04	27623.00
683.17	27695.56
683.31	27531.72
683.45	27381.93
683.59	26864.67
683.72	27356.18
683.86	27250.86
684.00	26981.70
684.13	27007.44
684.27	26522.95
684.41	26621.25
684.55	26209.32
684.68	26520.61
684.82	26134.42
684.96	26218.68
685.09	26398.90
685.23	26192.94
685.37	26153.15
685.50	25963.56
685.64	26349.75
685.78	25858.24
685.91	25919.09
686.05	25930.80
686.19	25666.31
686.32	25523.54
686.46	25436.94
686.60	25172.46
686.73	25668.66
686.87	25181.82
687.01	25064.80
687.14	24957.13
687.28	24643.50
687.42	24854.15
687.55	24580.31
687.69	24648.18
687.82	24589.67
687.96	24884.58
688.10	24444.56
688.23	24423.49
688.37	24210.50
688.50	23974.11
688.64	24116.88
688.78	23969.43
688.91	23999.85
689.05	24058.37
689.18	23517.70
689.32	23058.96
689.46	23346.84
689.59	23587.92
689.73	23515.36
689.86	23328.12
690.00	23393.65
690.13	23545.79
690.27	22796.82
690.41	23234.50
690.54	22782.77
690.68	22860.01
690.81	23115.13
690.95	22895.12
691.08	22883.42
691.22	22796.82
691.35	22658.73
691.49	22328.71
691.62	22443.40
691.76	22377.86
691.89	21979.97
692.03	21956.57
692.16	22106.36
692.30	21970.61
692.43	21958.91
692.57	21844.22
692.70	21811.45
692.84	21874.65
692.97	21703.79
693.11	21439.31
693.24	21766.98
693.38	21479.10
693.51	21008.65
693.65	21165.46
693.78	20924.39
693.92	20912.69
694.05	20968.86
694.19	20898.64
694.32	20798.00
694.45	20790.98
694.59	20112.22
694.72	20215.21
694.86	20308.83
694.99	20112.22
695.13	20226.91
695.26	19934.34
695.39	19557.52
695.53	20205.84
695.66	19917.96
695.80	20243.29
695.93	19733.06
696.07	19372.61
696.20	19798.59
696.33	19578.58
696.47	19489.64
696.60	19435.81
696.73	19222.82
696.87	19321.12
697.00	19339.85
697.14	18871.74
697.27	18881.10
697.40	18780.46
697.54	18824.93
697.67	18682.16
697.80	18836.63
697.94	18649.39
698.07	18504.28
698.21	18530.02
698.34	18410.65
698.47	18410.65
698.61	18286.61
698.74	18221.07
698.87	18237.45
699.01	17898.08
699.14	18204.69
699.27	17809.14
699.40	17797.43
699.54	17752.96
699.67	17673.39
699.80	17544.66
699.94	17238.05
700.07	17483.80
700.20	17380.82
700.34	17200.60
700.47	17252.09
700.60	16985.27
700.73	17401.88
700.87	16877.60
701.00	16765.26
701.13	16671.64
701.26	16926.75
701.40	16940.80
701.53	16734.83
701.66	16423.54
701.79	16739.51
701.93	16187.14
702.06	16411.84
702.19	16013.95
702.32	16142.67
702.46	16163.74
702.59	15974.16
702.72	15871.17
702.85	15763.51
702.99	16123.95
703.12	15566.90
703.25	15662.86
703.38	15541.16
703.51	15592.65
703.65	15487.32
703.78	15433.49
703.91	15330.51
704.04	15573.92
704.17	15405.41
704.31	15499.03
704.44	14897.51
704.57	14967.73
704.70	14857.72
704.83	14792.19
704.96	15035.60
705.10	14806.23
705.23	14602.60
>>>>>End Processed Spectral Data<<<<<
