SpectraSuite Data File
++++++++++++++++++++++++++++++++++++
Date: Tue Oct 01 18:27:25 GMT-05:00 2013
User: stostad
Dark Spectrum Present: No
Reference Spectrum Present: No
Number of Sampled Component Spectra: 1
Spectrometers: USB2+H05261
Integration Time (usec): 100000 (USB2+H05261)
Spectra Averaged: 1 (USB2+H05261)
Boxcar Smoothing: 0 (USB2+H05261)
Correct for Electrical Dark: No (USB2+H05261)
Strobe/Lamp Enabled: No (USB2+H05261)
Correct for Detector Non-linearity: No (USB2+H05261)
Correct for Stray Light: No (USB2+H05261)
Number of Pixels in Processed Spectrum: 2048
>>>>>Begin Processed Spectral Data<<<<<
365.73	105.32
365.92	105.32
366.12	105.32
366.32	0.00
366.52	0.00
366.72	0.00
366.91	0.00
367.11	0.00
367.31	0.00
367.51	0.00
367.70	14.04
367.90	28.09
368.10	4.68
368.30	0.00
368.49	0.00
368.69	0.00
368.89	0.00
369.09	0.00
369.28	0.00
369.48	0.00
369.68	51.49
369.87	49.15
370.07	44.47
370.27	32.77
370.47	102.98
370.66	264.48
370.86	285.55
371.06	294.91
371.25	308.95
371.45	337.04
371.65	330.02
371.84	327.68
372.04	304.27
372.24	318.31
372.44	304.27
372.63	400.23
372.83	437.68
373.03	383.85
373.22	400.23
373.42	341.72
373.62	376.83
373.81	421.30
374.01	409.59
374.21	463.43
374.40	472.79
374.60	475.13
374.79	435.34
374.99	416.62
375.19	444.70
375.38	486.83
375.58	404.91
375.78	421.30
375.97	388.53
376.17	526.62
376.37	447.04
376.56	535.98
376.76	521.94
376.95	451.72
377.15	543.00
377.35	454.06
377.54	517.26
377.74	440.02
377.93	421.30
378.13	496.19
378.33	543.00
378.52	491.51
378.72	573.43
378.91	589.82
379.11	440.02
379.31	545.34
379.50	409.59
379.70	500.87
379.89	571.09
380.09	491.51
380.28	500.87
380.48	564.07
380.68	500.87
380.87	500.87
381.07	601.52
381.26	571.09
381.46	648.33
381.65	601.52
381.85	493.85
382.04	547.69
382.24	578.11
382.43	610.88
382.63	592.16
382.83	594.50
383.02	645.99
383.22	678.76
383.41	554.71
383.61	648.33
383.80	636.63
384.00	631.94
384.19	589.82
384.39	594.50
384.58	688.12
384.78	660.03
384.97	634.29
385.17	678.76
385.36	638.97
385.56	713.86
385.75	627.26
385.95	638.97
386.14	634.29
386.34	718.54
386.53	674.07
386.72	664.71
386.92	723.23
387.11	697.48
387.31	697.48
387.50	688.12
387.70	702.16
387.89	711.52
388.09	716.20
388.28	709.18
388.48	662.37
388.67	699.82
388.86	653.01
389.06	720.88
389.25	786.42
389.45	760.67
389.64	800.46
389.84	823.87
390.03	779.40
390.22	763.01
390.42	739.61
390.61	763.01
390.81	727.91
391.00	755.99
391.19	802.80
391.39	711.52
391.58	788.76
391.78	812.17
391.97	877.70
392.16	807.48
392.36	908.13
392.55	856.64
392.75	856.64
392.94	863.66
393.13	938.55
393.33	854.30
393.52	938.55
393.71	940.90
393.91	877.70
394.10	891.74
394.29	950.26
394.49	816.85
394.68	908.13
394.88	891.74
395.07	983.02
395.26	880.04
395.46	992.39
395.65	994.73
395.84	983.02
396.04	1064.94
396.23	1039.20
396.42	992.39
396.62	1104.73
396.81	985.37
397.00	971.32
397.19	1076.65
397.39	1060.26
397.58	1111.75
397.77	1062.60
397.97	1114.10
398.16	1043.88
398.35	1097.71
398.55	1078.99
398.74	1041.54
398.93	1163.25
399.12	1109.41
399.32	1067.28
399.51	1186.65
399.70	1203.04
399.90	1177.29
400.09	1245.16
400.28	1252.19
400.47	1128.14
400.67	1233.46
400.86	1277.93
401.05	1235.80
401.24	1296.66
401.44	1376.24
401.63	1217.08
401.82	1338.79
402.01	1275.59
402.21	1390.28
402.40	1418.36
402.59	1270.91
402.78	1313.04
402.97	1280.27
403.17	1394.96
403.36	1371.55
403.55	1481.56
403.74	1439.43
403.93	1446.45
404.13	1533.05
404.32	1556.46
404.51	1537.73
404.70	1582.20
404.89	1577.52
405.09	1575.18
405.28	1535.39
405.47	1565.82
405.66	1687.53
405.85	1629.01
406.05	1682.85
406.24	1736.68
406.43	1561.14
406.62	1668.80
406.81	1760.08
407.00	1701.57
407.20	1710.93
407.39	1781.15
407.58	1781.15
407.77	1877.11
407.96	1823.28
408.15	1881.79
408.34	1783.49
408.54	1834.98
408.73	1900.52
408.92	1914.56
409.11	1975.41
409.30	2003.50
409.49	1994.14
409.68	2008.18
409.87	2050.31
410.07	1937.96
410.26	2050.31
410.45	2040.95
410.64	2033.93
410.83	2113.50
411.02	2003.50
411.21	2183.72
411.40	2134.57
411.59	2244.57
411.78	2176.70
411.98	2300.75
412.17	2218.83
412.36	2209.47
412.55	2352.24
412.74	2279.68
412.93	2312.45
413.12	2375.64
413.31	2410.75
413.50	2359.26
413.69	2422.45
413.88	2546.50
414.07	2443.52
414.26	2532.46
414.45	2583.95
414.64	2593.31
414.83	2644.81
415.02	2593.31
415.22	2689.28
415.41	2768.85
415.60	2761.83
415.79	2689.28
415.98	2918.65
416.17	2925.67
416.36	2761.83
416.55	2726.72
416.74	2928.01
416.93	2860.13
417.12	2972.48
417.31	2965.46
417.50	3080.14
417.69	3155.04
417.88	3000.57
418.07	2979.50
418.26	3038.02
418.45	2984.18
418.64	3143.34
418.83	3220.58
419.02	3117.59
419.21	3251.00
419.39	3229.94
419.58	3150.36
419.77	3145.68
419.96	3276.75
420.15	3368.03
420.34	3225.26
420.53	3382.07
420.72	3400.80
420.91	3356.33
421.10	3335.26
421.29	3461.65
421.48	3281.43
421.67	3527.19
421.86	3447.61
422.05	3379.73
422.24	3414.84
422.43	3379.73
422.61	3454.63
422.80	3583.36
422.99	3602.08
423.18	3538.89
423.37	3555.27
423.56	3597.40
423.75	3503.78
423.94	3414.84
424.13	3349.31
424.32	3337.60
424.50	3749.54
424.69	3662.94
424.88	3714.43
425.07	3527.19
425.26	3548.25
425.45	3588.04
425.64	3742.52
425.83	3716.77
426.01	3723.79
426.20	3684.00
426.39	3693.37
426.58	3693.37
426.77	3681.66
426.96	3700.39
427.15	3735.50
427.33	3716.77
427.52	3723.79
427.71	3824.44
427.90	3906.35
428.09	3721.45
428.28	3981.25
428.46	3927.42
428.65	3775.28
428.84	4056.15
429.03	4163.81
429.22	3679.32
429.40	3967.21
429.59	4088.92
429.78	3983.59
429.97	3801.03
430.16	3990.61
430.34	4053.81
430.53	4159.13
430.72	4105.30
430.91	4018.70
431.10	4142.75
431.28	3999.98
431.47	4238.71
431.66	4243.39
431.85	4224.67
432.03	4248.07
432.22	4388.50
432.41	4351.06
432.60	4423.61
432.79	4325.31
432.97	4227.01
433.16	4407.23
433.35	4271.48
433.54	4358.08
433.72	4517.23
433.91	4442.34
434.10	4500.85
434.28	4400.21
434.47	4517.23
434.66	4550.00
434.85	4411.91
435.03	4655.33
435.22	4575.75
435.41	4755.97
435.59	4676.39
435.78	4615.54
435.97	4786.40
436.16	4575.75
436.34	4716.18
436.53	4751.29
436.72	4807.46
436.90	4699.80
437.09	4669.37
437.28	4816.82
437.46	4779.37
437.65	4903.42
437.84	4983.00
438.02	4980.66
438.21	4887.04
438.40	4844.91
438.58	5179.61
438.77	5167.90
438.96	5008.75
439.14	5158.54
439.33	5240.46
439.52	5207.69
439.70	5256.84
439.89	5383.23
440.08	5401.96
440.26	5514.30
440.45	5462.81
440.63	5289.61
440.82	5621.97
441.01	5378.55
441.19	5476.85
441.38	5743.67
441.57	5671.12
441.75	5703.89
441.94	5830.27
442.12	5755.38
442.31	5802.19
442.50	5991.77
442.68	5851.34
442.87	5774.10
443.05	5926.24
443.24	5930.92
443.43	5790.49
443.61	5799.85
443.80	6148.59
443.98	5856.02
444.17	5884.11
444.35	6059.65
444.54	6204.76
444.73	6083.05
444.91	6036.24
445.10	6010.50
445.28	6078.37
445.47	6094.76
445.65	6090.07
445.84	6221.14
446.02	6216.46
446.21	6108.80
446.39	6057.31
446.58	6331.15
446.77	6176.67
446.95	6237.53
447.14	6258.59
447.32	6118.16
447.51	6169.65
447.69	6286.68
447.88	6265.61
448.06	6284.34
448.25	6237.53
448.43	6312.42
448.62	6406.05
448.80	6232.85
448.99	6424.77
449.17	6345.19
449.36	6188.38
449.54	6546.48
449.73	6623.72
449.91	6604.99
450.10	6630.74
450.28	6684.57
450.46	6677.55
450.65	6679.89
450.83	6670.53
451.02	6480.94
451.20	6703.29
451.39	6700.95
451.57	6848.41
451.76	6754.79
451.94	6715.00
452.13	6836.70
452.31	6693.93
452.49	6696.27
452.68	6782.87
452.86	6775.85
453.05	6773.51
453.23	6993.52
453.42	6904.58
453.60	6906.92
453.78	6810.96
453.97	6864.79
454.15	6848.41
454.34	6998.20
454.52	7159.70
454.70	7129.27
454.89	7143.32
455.07	7063.74
455.26	7194.81
455.44	7229.91
455.62	7124.59
455.81	7302.47
455.99	7248.64
456.17	7267.36
456.36	7344.60
456.54	7566.95
456.73	7688.66
456.91	7735.47
457.09	7693.34
457.28	7735.47
457.46	7669.94
457.64	7695.68
457.83	7852.50
458.01	7613.76
458.19	7796.32
458.38	7768.24
458.56	7754.19
458.74	7777.60
458.93	7903.99
459.11	8056.12
459.29	7808.03
459.48	7772.92
459.66	7887.61
459.84	8084.21
460.03	8060.80
460.21	7915.69
460.39	8229.32
460.57	7768.24
460.76	8280.82
460.94	8243.37
461.12	8175.49
461.31	8196.56
461.49	8126.34
461.67	8329.97
461.85	8353.37
462.04	8386.14
462.22	8629.56
462.40	8252.73
462.59	8456.36
462.77	8659.98
462.95	8669.34
463.13	8489.12
463.32	8468.06
463.50	8594.45
463.68	8503.17
463.86	8709.13
464.05	8580.40
464.23	8528.91
464.41	8692.75
464.59	8690.41
464.78	8891.70
464.96	8898.72
465.14	8613.17
465.32	8926.80
465.50	8917.44
465.69	8966.59
465.87	8566.36
466.05	8725.52
466.23	8849.57
466.41	9125.75
466.60	9100.00
466.78	8910.42
466.96	8990.00
467.14	8882.33
467.32	9142.13
467.51	9240.44
467.69	8954.89
467.87	9027.45
468.05	9268.52
468.23	9095.32
468.41	9287.25
468.60	9338.74
468.78	9270.86
468.96	9202.99
469.14	9334.06
469.32	9444.06
469.50	9202.99
469.69	9626.62
469.87	9558.75
470.05	9582.15
470.23	9628.96
470.41	9600.88
470.59	9633.64
470.77	9614.92
470.95	9701.52
471.14	9818.55
471.32	9600.88
471.50	10136.86
471.68	10211.76
471.86	10115.80
472.04	10176.65
472.22	10195.37
472.40	10087.71
472.58	10183.67
472.77	10305.38
472.95	10267.93
473.13	10546.45
473.31	10298.36
473.49	10258.57
473.67	10235.16
473.85	10314.74
474.03	10747.74
474.21	10658.80
474.39	10736.04
474.57	10675.18
474.75	11061.37
474.93	11110.52
475.12	10876.47
475.30	10986.47
475.48	11084.78
475.66	11194.78
475.84	11159.67
476.02	11536.50
476.20	11204.14
476.38	11489.69
476.56	11719.06
476.74	11480.33
476.92	11346.92
477.10	11342.24
477.28	11824.39
477.46	11932.05
477.64	11889.92
477.82	12114.61
478.00	12297.17
478.18	12266.75
478.36	12465.69
478.54	12493.78
478.72	12620.17
478.90	12699.75
479.08	12737.20
479.26	13139.77
479.44	12879.97
479.62	12982.95
479.80	13130.41
479.98	13277.86
480.16	13638.30
480.34	13458.08
480.52	13565.74
480.70	13731.92
480.88	13245.09
481.06	13659.37
481.24	13446.38
481.41	14148.54
481.59	14370.89
481.77	14740.69
481.95	14464.51
482.13	14333.44
482.31	14436.42
482.49	14836.66
482.67	14614.30
482.85	14752.40
483.03	15269.66
483.21	15356.25
483.39	15403.07
483.57	15213.48
483.74	15594.99
483.92	15625.42
484.10	15747.12
484.28	15791.59
484.46	15847.77
484.64	16114.59
484.82	16343.96
485.00	16365.03
485.18	16875.26
485.35	16893.99
485.53	16828.45
485.71	16865.90
485.89	17027.40
486.07	16968.88
486.25	17446.35
486.43	17486.14
486.61	17687.43
486.78	17752.96
486.96	17703.81
487.14	17895.74
487.32	18092.34
487.50	18036.17
487.68	18298.31
487.85	18661.09
488.03	18890.46
488.21	19295.38
488.39	19229.84
488.57	19126.86
488.75	19412.40
488.92	19517.73
489.10	19646.46
489.28	19403.04
489.46	19693.27
489.64	19709.65
489.81	20451.60
489.99	20173.08
490.17	20713.74
490.35	20950.14
490.53	20648.21
490.70	20830.77
490.88	20952.48
491.06	21266.11
491.24	21149.08
491.41	21378.45
491.59	21511.86
491.77	21788.05
491.95	21795.07
492.13	21624.21
492.30	22111.04
492.48	22125.08
492.66	22146.15
492.84	22553.40
493.01	22707.88
493.19	22216.36
493.37	22752.35
493.54	22717.24
493.72	23381.95
493.90	23243.86
494.08	23477.91
494.25	24032.62
494.43	23672.18
494.61	23466.21
494.79	23651.11
494.96	23971.77
495.14	24133.26
495.32	24575.62
495.49	24142.63
495.67	24922.02
495.85	24793.29
496.02	25034.37
496.20	24900.96
496.38	24755.85
496.55	25289.49
496.73	25788.02
496.91	25364.39
497.09	25418.22
497.26	25825.47
497.44	26012.71
497.62	25949.52
497.79	26071.23
497.97	26087.61
498.14	26443.37
498.32	26588.49
498.50	26803.82
498.67	26916.16
498.85	26738.28
499.03	26876.37
499.20	26920.84
499.38	27042.55
499.56	27585.55
499.73	27487.25
499.91	27569.17
500.08	27800.88
500.26	27477.89
500.44	28004.51
500.61	28063.02
500.79	27990.47
500.97	28584.96
501.14	28240.90
501.32	28584.96
501.49	28395.38
501.67	28650.50
501.84	28746.46
502.02	28741.78
502.20	28926.68
502.37	28973.49
502.55	28889.23
502.72	29184.14
502.90	29130.31
503.07	29490.75
503.25	29673.31
503.43	29198.18
503.60	29921.41
503.78	29757.57
503.95	29392.45
504.13	29888.64
504.30	30122.69
504.48	30040.78
504.65	30462.07
504.83	30515.90
505.01	30792.09
505.18	30728.89
505.36	30930.18
505.53	30958.27
505.71	30972.31
505.88	30888.05
506.06	30700.81
506.23	31632.34
506.41	30937.20
506.58	31377.22
506.76	31321.05
506.93	31342.11
507.11	31672.13
507.28	31634.68
507.46	32126.19
507.63	31751.71
507.81	32100.45
507.98	31630.00
508.16	31922.57
508.33	32177.68
508.50	32219.81
508.68	32973.47
508.85	32938.36
509.03	32540.47
509.20	32453.87
509.38	32524.08
509.55	33113.90
509.73	33039.00
509.90	33244.97
510.08	33560.94
510.25	33315.19
510.42	33371.36
510.60	33598.39
510.77	33951.81
510.95	33998.62
511.12	33837.12
511.30	34043.09
511.47	34015.01
511.64	34349.70
511.82	34422.26
511.99	33940.11
512.17	34508.86
512.34	34380.13
512.51	35122.08
512.69	34700.78
512.86	34862.28
513.04	35388.90
513.21	34958.24
513.38	35065.91
513.56	35257.83
513.73	34965.26
513.90	35084.63
514.08	34939.52
514.25	35583.16
514.43	35723.60
514.60	35756.36
514.77	35810.20
514.95	35931.90
515.12	35931.90
515.29	35758.70
515.47	36725.35
515.64	36744.07
515.81	36636.41
515.99	35889.77
516.16	36297.03
516.33	36486.61
516.51	37053.02
516.68	36645.77
516.85	36397.67
517.03	37212.18
517.20	37273.03
517.37	37109.19
517.54	36755.77
517.72	36926.63
517.89	36744.07
518.06	36961.74
518.24	36954.72
518.41	37261.33
518.58	37942.42
518.75	37659.22
518.93	37488.36
519.10	37647.52
519.27	38080.52
519.45	37654.54
519.62	38005.62
519.79	38211.59
519.96	38424.57
520.14	38223.29
520.31	38132.01
520.48	38146.05
520.65	38550.96
520.83	38698.42
521.00	38529.90
521.17	38808.42
521.34	38960.56
521.52	38876.30
521.69	39267.17
521.86	39264.83
522.03	38876.30
522.20	39337.38
522.38	39510.58
522.55	39379.51
522.72	39405.26
522.89	39564.42
523.07	39852.30
523.24	39323.34
523.41	39775.06
523.58	39454.41
523.75	39686.12
523.92	39875.71
524.10	40130.83
524.27	40336.79
524.44	40474.88
524.61	40718.30
524.78	40287.64
524.96	40634.04
525.13	40376.58
525.30	40584.89
525.47	41181.73
525.64	40484.25
525.81	40685.53
525.98	40914.90
526.16	41258.96
526.33	40926.61
526.50	41017.89
526.67	40950.01
526.84	41090.44
527.01	41155.98
527.18	41841.76
527.36	41799.63
527.53	41361.95
527.70	41867.50
527.87	41673.24
528.04	41420.46
528.21	41762.18
528.38	41909.63
528.55	41813.67
528.72	41750.48
528.89	42120.28
529.07	41883.89
529.24	41860.48
529.41	42419.87
529.58	42124.96
529.75	42532.22
529.92	42581.37
530.09	42499.45
530.26	42873.93
530.43	42529.87
530.60	42391.78
530.77	42588.39
530.94	42906.70
531.11	42494.77
531.28	43199.27
531.46	43112.67
531.63	43175.86
531.80	43124.37
531.97	43236.72
532.14	42944.15
532.31	43180.54
532.48	43133.73
532.65	43543.33
532.82	43299.91
532.99	43768.02
533.16	43344.38
533.33	43627.59
533.50	43622.90
533.67	43365.45
533.84	43386.51
534.01	43662.69
534.18	43966.96
534.35	44287.62
534.52	44341.45
534.69	44549.76
534.86	44418.69
535.03	43782.06
535.20	43866.32
535.37	44479.54
535.54	44481.88
535.71	44191.65
535.88	44360.17
536.05	44493.58
536.22	44666.78
536.38	44737.00
536.55	44786.15
536.72	44641.04
536.89	44481.88
537.06	44765.09
537.23	44739.34
537.40	44938.29
537.57	44650.40
537.74	45265.96
537.91	45450.86
538.08	45045.95
538.25	44320.38
538.42	45123.19
538.59	45397.03
538.75	45069.36
538.92	45390.01
539.09	45666.19
539.26	45682.58
539.43	45067.02
539.60	45333.84
539.77	45507.04
539.94	45305.75
540.11	45748.11
540.28	46143.66
540.44	45757.47
540.61	45904.93
540.78	46171.75
540.95	45624.06
541.12	45872.16
541.29	46328.56
541.46	46237.28
541.62	46094.51
541.79	46232.60
541.96	46195.15
542.13	46295.80
542.30	46710.07
542.47	46862.21
542.63	46579.00
542.80	46553.26
542.97	46452.61
543.14	46850.50
543.31	46801.35
543.48	46859.87
543.64	47201.58
543.81	47136.05
543.98	47311.59
544.15	47381.80
544.32	46831.78
544.48	47674.37
544.65	46806.03
544.82	46843.48
544.99	47241.37
545.16	47964.60
545.32	47241.37
545.49	47800.76
545.66	47765.65
545.83	47622.88
546.00	47744.59
546.16	47611.18
546.33	47295.21
546.50	47346.70
546.67	47831.19
546.83	46965.19
547.00	47721.18
547.17	47786.72
547.34	47861.61
547.50	47903.74
547.67	48107.37
547.84	48371.85
548.00	48119.07
548.17	48210.35
548.34	48215.04
548.51	48535.69
548.67	48652.72
548.84	48512.28
549.01	48163.54
549.18	48046.52
549.34	48086.31
549.51	48432.71
549.68	48378.87
549.84	48177.59
550.01	48914.86
550.18	48861.02
550.34	48083.97
550.51	48521.65
550.68	48334.40
550.84	48423.34
551.01	48837.62
551.18	48418.66
551.34	48626.97
551.51	48835.28
551.68	49153.59
551.84	48945.28
552.01	48453.77
552.18	48762.72
552.34	48498.24
552.51	48802.51
552.68	48978.05
552.84	48898.47
553.01	49347.86
553.18	49352.54
553.34	48982.73
553.51	48968.69
553.67	49036.56
553.84	49125.50
554.01	49542.12
554.17	49411.05
554.34	49333.81
554.51	49315.09
554.67	49844.05
554.84	49404.03
555.00	49340.83
555.17	49806.60
555.33	49631.06
555.50	49411.05
555.67	49022.52
555.83	49441.48
556.00	49450.84
556.16	50380.03
556.33	49710.64
556.50	49825.32
556.66	49724.68
556.83	49874.48
556.99	49666.17
557.16	49996.18
557.32	49663.83
557.49	50057.04
557.65	50181.09
557.82	50251.30
557.98	50457.27
558.15	50136.62
558.32	50337.90
558.48	49876.82
558.65	49965.76
558.81	49911.92
558.98	49783.19
559.14	49844.05
559.31	49925.97
559.47	50089.80
559.64	50314.50
559.80	50850.48
559.97	50326.20
560.13	50061.72
560.30	49872.14
560.46	50082.78
560.63	49935.33
560.79	50436.20
560.96	50412.80
561.12	50330.88
561.29	50714.73
561.45	50485.36
561.61	50396.42
561.78	50370.67
561.94	50234.92
562.11	50567.27
562.27	50127.25
562.44	50349.60
562.60	50700.68
562.77	50696.00
562.93	50600.04
563.10	50801.33
563.26	50759.20
563.42	50983.89
563.59	50450.25
563.75	50279.39
563.92	50878.57
564.08	50611.74
564.24	50773.24
564.41	50707.71
564.57	51007.29
564.74	50876.22
564.90	50939.42
565.07	50490.04
565.23	50890.27
565.39	50684.30
565.56	50880.91
565.72	50798.99
565.88	50733.45
566.05	50941.76
566.21	50958.14
566.38	51133.68
566.54	50972.19
566.70	51023.68
566.87	51054.11
567.03	50948.78
567.19	51239.01
567.36	51037.72
567.52	51054.11
567.68	50997.93
567.85	50887.93
568.01	51461.36
568.17	50681.96
568.34	51114.96
568.50	51063.47
568.66	51026.02
568.83	51164.11
568.99	50878.57
569.15	50894.95
569.32	51161.77
569.48	50974.53
569.64	51026.02
569.81	51002.61
569.97	51454.34
570.13	51508.17
570.30	50988.57
570.46	51231.99
570.62	51264.75
570.78	51437.95
570.95	51407.53
571.11	51316.25
571.27	51171.13
571.43	51377.10
571.60	51468.38
571.76	51019.00
571.92	51323.27
572.09	51129.00
572.25	51121.98
572.41	51377.10
572.57	51309.22
572.74	51437.95
572.90	51372.42
573.06	51250.71
573.22	51547.96
573.38	51737.54
573.55	51400.50
573.71	51524.55
573.87	51419.23
574.03	51194.54
574.20	51278.80
574.36	51164.11
574.52	51276.46
574.68	51501.15
574.84	51339.65
575.01	51554.98
575.17	51529.23
575.33	51332.63
575.49	51332.63
575.65	51381.78
575.82	51543.28
575.98	51175.81
576.14	51545.62
576.30	51774.99
576.46	51657.96
576.62	51571.36
576.79	51976.28
576.95	51569.02
577.11	51660.30
577.27	51557.32
577.43	51477.74
577.59	51550.30
577.75	51758.61
577.92	51180.49
578.08	51494.13
578.24	51735.20
578.40	51950.53
578.56	51774.99
578.72	51679.03
578.88	51531.57
579.04	51587.75
579.21	51723.50
579.37	51346.67
579.53	51613.49
579.69	51545.62
579.85	51887.34
580.01	51971.60
580.17	51863.93
580.33	51845.21
580.49	51592.43
580.65	51877.97
580.82	51756.27
580.98	51508.17
581.14	51398.16
581.30	51447.32
581.46	51292.84
581.62	51906.06
581.78	51756.27
581.94	51901.38
582.10	51732.86
582.26	51744.56
582.42	51512.85
582.58	51746.90
582.74	51538.60
582.90	51569.02
583.06	51784.35
583.22	51845.21
583.38	51903.72
583.54	52247.78
583.70	52030.11
583.86	51723.50
584.02	51590.09
584.18	51906.06
584.34	51856.91
584.50	51688.39
584.66	51814.78
584.82	51686.05
584.98	51913.08
585.14	51620.52
585.30	51601.79
585.46	51636.90
585.62	51646.26
585.78	51709.46
585.94	51508.17
586.10	51798.40
586.26	51554.98
586.42	51714.14
586.58	51690.73
586.74	51512.85
586.90	51840.53
587.06	51709.46
587.22	52303.95
587.38	51903.72
587.54	52296.93
587.70	52081.60
587.86	52025.43
588.02	51749.24
588.18	51952.87
588.34	52107.35
588.49	51885.00
588.65	51955.21
588.81	51922.44
588.97	52509.92
589.13	52252.46
589.29	52268.84
589.45	52055.85
589.61	52186.92
589.77	51983.30
589.93	51863.93
590.08	52030.11
590.24	51896.70
590.40	52437.36
590.56	52346.08
590.72	52254.80
590.88	52222.03
591.04	52081.60
591.20	52753.33
591.35	52369.49
591.51	52402.25
591.67	52165.86
591.83	52367.15
591.99	51831.16
592.15	52231.40
592.31	52477.15
592.46	52238.42
592.62	52435.02
592.78	52364.81
592.94	52355.44
593.10	52161.18
593.26	52413.96
593.41	52257.14
593.57	52219.69
593.73	51763.29
593.89	52121.39
594.05	52486.51
594.20	52107.35
594.36	52687.80
594.52	52568.43
594.68	52865.68
594.84	52175.22
594.99	52898.45
595.15	52521.62
595.31	52657.37
595.47	52315.65
595.62	52215.01
595.78	52275.87
595.94	52416.30
596.10	52292.25
596.25	52467.79
596.41	52505.24
596.57	52683.12
596.73	52722.91
596.88	52430.34
597.04	52467.79
597.20	52306.29
597.36	52264.16
597.51	52535.66
597.67	52355.44
597.83	52296.93
597.99	52392.89
598.14	52587.16
598.30	52875.04
598.46	52598.86
598.61	52428.00
598.77	52493.54
598.93	52699.50
599.09	52594.18
599.24	52467.79
599.40	52060.54
599.56	52509.92
599.71	52474.81
599.87	52931.22
600.03	52612.90
600.18	52671.42
600.34	52484.17
600.50	52776.74
600.65	52289.91
600.81	52683.12
600.97	52837.59
601.12	52566.09
601.28	52512.26
601.44	52458.43
601.59	52626.95
601.75	52753.33
601.91	52802.49
602.06	52662.05
602.22	52559.07
602.37	52626.95
602.53	52725.25
602.69	52896.11
602.84	52310.97
603.00	52261.82
603.16	52825.89
603.31	52530.98
603.47	52381.19
603.62	52861.00
603.78	52935.90
603.94	52786.10
604.09	52540.35
604.25	52779.08
604.40	52444.38
604.56	52722.91
604.71	52636.31
604.87	52545.03
605.03	52154.16
605.18	52226.71
605.34	52648.01
605.49	52467.79
605.65	52229.05
605.80	52502.90
605.96	52610.56
606.12	52776.74
606.27	52687.80
606.43	52755.68
606.58	52449.06
606.74	52406.94
606.89	52151.82
607.05	52296.93
607.20	52240.76
607.36	52203.31
607.51	52659.71
607.67	52645.67
607.82	52633.97
607.98	52385.87
608.13	52596.52
608.29	52458.43
608.44	52299.27
608.60	52182.24
608.75	52112.03
608.91	51875.63
609.06	51955.21
609.22	52442.04
609.37	51969.26
609.53	52177.56
609.68	52437.36
609.84	52336.72
609.99	52542.69
610.15	52334.38
610.30	52224.37
610.46	51913.08
610.61	51906.06
610.76	51957.55
610.92	51753.93
611.07	51604.13
611.23	52093.30
611.38	51995.00
611.54	51997.34
611.69	52261.82
611.84	52170.54
612.00	51987.98
612.15	51786.69
612.31	52346.08
612.46	51735.20
612.62	51995.00
612.77	51672.01
612.92	52079.26
613.08	51859.25
613.23	51826.48
613.39	52002.02
613.54	51746.90
613.69	51955.21
613.85	51828.82
614.00	51852.23
614.15	51943.51
614.31	51805.42
614.46	51929.47
614.62	51524.55
614.77	51728.18
614.92	51821.80
615.08	51639.24
615.23	51723.50
615.38	52175.22
615.54	51517.53
615.69	51978.62
615.84	51576.04
616.00	51807.76
616.15	51831.16
616.30	52013.73
616.46	51697.75
616.61	51459.02
616.76	51718.82
616.92	51386.46
617.07	51379.44
617.22	51433.27
617.37	51412.21
617.53	51812.44
617.68	51744.56
617.83	51672.01
617.99	51753.93
618.14	51643.92
618.29	51473.06
618.45	51379.44
618.60	51459.02
618.75	51360.72
618.90	51412.21
619.06	50993.25
619.21	51208.58
619.36	51440.29
619.51	50925.38
619.67	50990.91
619.82	51178.15
619.97	51419.23
620.12	51274.12
620.28	50979.21
620.43	50887.93
620.58	50962.82
620.73	51044.74
620.89	50887.93
621.04	51192.20
621.19	51374.76
621.34	51133.68
621.49	51316.25
621.65	51480.08
621.80	51416.89
621.95	51327.95
622.10	51398.16
622.25	51009.64
622.41	50667.92
622.56	50609.40
622.71	51384.12
622.86	51030.70
623.01	50679.62
623.16	50707.71
623.32	50913.67
623.47	50948.78
623.62	50864.52
623.77	51126.66
623.92	51096.24
624.07	50855.16
624.23	51257.73
624.38	50953.46
624.53	50674.94
624.68	50597.70
624.83	50693.66
624.98	50794.31
625.13	49951.71
625.29	50429.18
625.44	50841.12
625.59	50405.78
625.74	50487.70
625.89	50272.37
626.04	50651.53
626.19	50583.66
626.34	50459.61
626.49	50061.72
626.65	50473.65
626.80	50403.44
626.95	50024.27
627.10	50064.06
627.25	50071.08
627.40	50045.33
627.55	50387.05
627.70	50438.54
627.85	50302.79
628.00	50274.71
628.15	50204.49
628.30	50157.68
628.45	50263.00
628.60	49750.43
628.76	49729.36
628.91	49914.26
629.06	49818.30
629.21	50040.65
629.36	50255.98
629.51	49942.35
629.66	49729.36
629.81	49958.73
629.96	50092.15
630.11	49825.32
630.26	49771.49
630.41	49808.94
630.56	49771.49
630.71	49752.77
630.86	49883.84
631.01	49647.44
631.16	49071.67
631.31	49258.91
631.46	49467.22
631.61	49553.82
631.76	49537.44
631.91	49528.08
632.06	49574.89
632.21	49453.18
632.36	49427.43
632.51	49476.58
632.66	49481.27
632.81	49223.81
632.96	49378.28
633.10	49214.44
633.25	48966.35
633.40	49621.70
633.55	49017.84
633.70	49240.19
633.85	49530.42
634.00	49645.10
634.15	49329.13
634.30	49579.57
634.45	49322.11
634.60	49263.60
634.75	49296.36
634.90	49008.48
635.05	49193.38
635.19	49249.55
635.34	49476.58
635.49	48741.66
635.64	48875.07
635.79	49097.42
635.94	49219.13
636.09	48938.26
636.24	49202.74
636.39	49130.19
636.53	48753.36
636.68	49022.52
636.83	49181.68
636.98	49085.72
637.13	48676.12
637.28	48828.26
637.43	49188.70
637.57	48687.82
637.72	48807.19
637.87	48753.36
638.02	48673.78
638.17	49015.50
638.32	49205.08
638.46	48626.97
638.61	48861.02
638.76	48952.30
638.91	48666.76
639.06	48348.45
639.20	48278.23
639.35	48472.49
639.50	48329.72
639.65	48135.46
639.80	48502.92
639.94	48350.79
640.09	48105.03
640.24	48481.86
640.39	48172.91
640.54	48348.45
640.68	48680.80
640.83	48236.10
640.98	48378.87
641.13	47887.36
641.27	48016.09
641.42	47615.86
641.57	47910.77
641.72	47976.30
641.86	47629.90
642.01	47730.54
642.16	47959.92
642.31	47859.27
642.45	48081.63
642.60	48191.63
642.75	47971.62
642.90	47882.68
643.04	47756.29
643.19	47662.67
643.34	48030.13
643.48	47632.24
643.63	47751.61
643.78	47812.46
643.93	47683.73
644.07	47646.29
644.22	47805.44
644.37	47274.14
644.51	47594.79
644.66	47854.59
644.81	47767.99
644.95	47655.65
645.10	47393.51
645.25	47725.86
645.39	47281.16
645.54	47608.84
645.69	47810.12
645.83	47440.32
645.98	47267.12
646.13	47278.82
646.27	47276.48
646.42	47269.46
646.57	47746.93
646.71	47906.08
646.86	47426.28
647.00	47992.68
647.15	47564.37
647.30	47269.46
647.44	47150.09
647.59	47583.09
647.74	46934.76
647.88	47372.44
648.03	47126.69
648.17	47288.18
648.32	47327.97
648.47	47271.80
648.61	46649.22
648.76	47091.58
648.90	47475.43
649.05	47236.69
649.20	47342.02
649.34	47070.51
649.49	46614.11
649.63	46880.93
649.78	46791.99
649.92	46752.20
650.07	47217.97
650.21	46777.95
650.36	47199.24
650.51	46085.15
650.65	46595.38
650.80	46759.22
650.94	46726.46
651.09	46239.62
651.23	46176.43
651.38	46618.79
651.52	46637.51
651.67	46714.75
651.81	46824.76
651.96	46777.95
652.10	46665.60
652.25	46794.33
652.39	46375.37
652.54	46202.18
652.68	46190.47
652.83	46232.60
652.97	46415.16
653.12	46045.36
653.26	46291.12
653.41	46237.28
653.55	46110.89
653.70	46763.90
653.84	46536.87
653.99	46461.97
654.13	46644.54
654.27	46103.87
654.42	46122.60
654.56	45570.23
654.71	45532.78
654.85	45811.31
655.00	46113.23
655.14	45563.21
655.29	45942.38
655.43	46066.42
655.57	45464.91
655.72	45745.77
655.86	46284.09
656.01	46103.87
656.15	46263.03
656.30	46190.47
656.44	45860.46
656.58	45815.99
656.73	45528.10
656.87	45401.71
657.01	45422.78
657.16	45551.51
657.30	45455.54
657.45	45027.23
657.59	45361.92
657.73	45291.71
657.88	45244.90
658.02	45738.75
658.16	45670.87
658.31	45474.27
658.45	45504.70
658.60	45565.55
658.74	45563.21
658.88	45134.89
659.03	45525.76
659.17	44844.66
659.31	44987.44
659.46	44641.04
659.60	44797.85
659.74	44886.79
659.89	44891.48
660.03	44278.25
660.17	45261.28
660.32	44781.47
660.46	45050.63
660.60	44519.33
660.74	44879.77
660.89	44898.50
661.03	44467.84
661.17	44697.21
661.32	44442.09
661.46	43952.92
661.60	44009.09
661.74	44615.29
661.89	44243.15
662.03	43859.30
662.17	44273.57
662.31	43838.23
662.46	44194.00
662.60	44100.37
662.74	43742.27
662.88	43861.64
663.03	44140.16
663.17	43866.32
663.31	43924.83
663.45	44016.11
663.60	44088.67
663.74	43491.83
663.88	43662.69
664.02	43082.24
664.17	43210.97
664.31	42834.14
664.45	43395.87
664.59	43487.15
664.73	43232.04
664.88	43351.40
665.02	43288.21
665.16	43199.27
665.30	43234.38
665.44	43447.36
665.59	42831.80
665.73	42656.26
665.87	42983.94
666.01	42969.90
666.15	42436.25
666.29	42562.64
666.44	42616.47
666.58	41895.59
666.72	41977.51
666.86	42225.60
667.00	42609.45
667.14	42209.22
667.28	42050.06
667.43	42316.89
667.57	42263.05
667.71	42167.09
667.85	42513.49
667.99	42157.73
668.13	42202.20
668.27	41801.97
668.41	41895.59
668.56	41273.01
668.70	42110.92
668.84	41364.29
668.98	41394.71
669.12	41518.76
669.26	40793.20
669.40	41528.13
669.54	41394.71
669.68	41514.08
669.82	41312.80
669.96	41172.36
670.10	41172.36
670.25	41053.00
670.39	41338.54
670.53	40800.22
670.67	40996.82
670.81	41198.11
670.95	40924.27
671.09	40493.61
671.23	40622.34
671.37	40271.26
671.51	40322.75
671.65	39988.05
671.79	39920.18
671.93	40547.44
672.07	40814.26
672.21	40257.21
672.35	39690.80
672.49	40123.80
672.63	40076.99
672.77	40069.97
672.91	39438.03
673.05	39852.30
673.19	39945.92
673.33	39688.46
673.47	39414.62
673.61	39793.79
673.75	39721.23
673.89	39475.48
674.03	39171.21
674.17	39274.19
674.31	39283.55
674.45	39122.05
674.59	38684.37
674.73	39042.48
674.87	39075.24
675.01	38965.24
675.15	38422.23
675.29	38712.46
675.43	38286.48
675.56	38092.22
675.70	38717.14
675.84	38148.39
675.98	37163.03
676.12	38101.58
676.26	37902.64
676.40	38010.30
676.54	37806.67
676.68	37638.15
676.82	37013.23
676.96	37610.07
677.10	37645.18
677.23	37397.08
677.37	37717.73
677.51	37387.72
677.65	37336.23
677.79	37233.24
677.93	36982.80
678.07	36907.91
678.21	36329.80
678.34	36002.12
678.48	35861.69
678.62	35821.90
678.76	35885.09
678.90	36175.32
679.04	36240.86
679.18	35929.56
679.31	35711.89
679.45	35896.80
679.59	35739.98
679.73	35941.27
679.87	35849.99
680.00	35882.75
680.14	35180.59
680.28	35171.23
680.42	34958.24
680.56	35086.97
680.70	34789.72
680.83	34698.44
680.97	34178.84
681.11	34471.41
681.25	34101.61
681.39	34352.04
681.52	34593.12
681.66	34445.66
681.80	34150.76
681.94	34108.63
682.07	34319.28
682.21	33743.50
682.35	33776.27
682.49	33776.27
682.62	33734.14
682.76	33570.30
682.90	33532.86
683.04	33240.29
683.17	33186.46
683.31	33240.29
683.45	32790.91
683.59	32734.73
683.72	32346.20
683.86	32325.14
684.00	32353.23
684.13	32842.40
684.27	32329.82
684.41	32219.81
684.55	32395.35
684.68	32182.37
684.82	32217.47
684.96	32217.47
685.09	31934.27
685.23	31297.64
685.37	31531.70
685.50	31192.32
685.64	30841.24
685.78	30899.75
685.91	31269.56
686.05	30742.94
686.19	30810.81
686.32	30841.24
686.46	30478.46
686.60	30141.42
686.73	30897.41
686.87	30225.68
687.01	30113.33
687.14	30911.46
687.28	30284.19
687.42	30742.94
687.55	30335.68
687.69	30389.52
687.82	29626.50
687.96	29916.73
688.10	29270.74
688.23	29586.71
688.37	29432.24
688.50	29387.77
688.64	28781.57
688.78	29223.93
688.91	29156.05
689.05	29369.04
689.18	29160.73
689.32	28208.14
689.46	28793.27
689.59	28470.28
689.73	28524.11
689.86	28678.58
690.00	28788.59
690.13	28732.42
690.27	28355.59
690.41	27976.42
690.54	27789.18
690.68	27831.31
690.81	27632.36
690.95	27328.10
691.08	27594.92
691.22	27747.05
691.35	27292.99
691.49	27421.72
691.62	27314.05
691.76	27115.11
691.89	27122.13
692.03	27271.92
692.16	26988.72
692.30	27098.72
692.43	26946.59
692.57	26869.35
692.70	26618.91
692.84	26464.44
692.97	26202.30
693.11	25759.94
693.24	25605.46
693.38	25741.21
693.51	25504.82
693.65	26015.05
693.78	24896.28
693.92	25532.90
694.05	25219.27
694.19	25310.55
694.32	25060.12
694.45	25275.45
694.59	25230.98
694.72	24912.66
694.86	25376.09
694.99	24807.34
695.13	24907.98
695.26	24847.13
695.39	24203.48
695.53	24430.51
695.66	24105.18
695.80	23779.84
695.93	23828.99
696.07	23412.38
696.20	23779.84
696.33	23658.14
696.47	23325.78
696.60	23421.74
696.73	23381.95
696.87	23412.38
697.00	23342.16
697.14	23367.91
697.27	23283.65
697.40	23215.77
697.54	23599.62
697.67	22881.08
697.80	22789.80
697.94	22642.34
698.07	22298.28
698.21	22223.39
698.34	22349.78
698.47	22377.86
698.61	21638.25
698.74	21961.25
698.87	22244.45
699.01	21659.32
699.14	21923.80
699.27	21806.77
699.40	21411.22
699.54	21476.76
699.67	21539.95
699.80	21579.74
699.94	21336.32
700.07	21191.21
700.20	21092.91
700.34	21135.04
700.47	20886.94
700.60	20774.60
700.73	21076.52
700.87	20383.73
701.00	20063.07
701.13	20507.77
701.26	20561.61
701.40	20301.81
701.53	20095.84
701.66	20056.05
701.79	20418.83
701.93	19882.85
702.06	19969.45
702.19	19587.94
702.32	19854.76
702.46	19880.51
702.59	19847.74
702.72	19337.51
702.85	19538.79
702.99	19370.27
703.12	19433.47
703.25	19051.96
703.38	18906.85
703.51	19101.11
703.65	18586.19
703.78	18274.90
703.91	18696.20
704.04	18679.82
704.17	18579.17
704.31	18473.85
704.44	18267.88
704.57	18321.71
704.70	18558.11
704.83	18190.64
704.96	18118.09
705.10	18141.49
705.23	17949.57
>>>>>End Processed Spectral Data<<<<<
