SpectraSuite Data File
++++++++++++++++++++++++++++++++++++
Date: Fri Oct 04 11:39:51 GMT-05:00 2013
User: price-jones
Dark Spectrum Present: No
Reference Spectrum Present: No
Number of Sampled Component Spectra: 1
Spectrometers: USB2+H05261
Integration Time (usec): 100000 (USB2+H05261)
Spectra Averaged: 1 (USB2+H05261)
Boxcar Smoothing: 0 (USB2+H05261)
Correct for Electrical Dark: No (USB2+H05261)
Strobe/Lamp Enabled: No (USB2+H05261)
Correct for Detector Non-linearity: No (USB2+H05261)
Correct for Stray Light: No (USB2+H05261)
Number of Pixels in Processed Spectrum: 2048
>>>>>Begin Processed Spectral Data<<<<<
365.73	102.98
365.92	102.98
366.12	102.98
366.32	0.00
366.52	0.00
366.72	0.00
366.91	0.00
367.11	0.00
367.31	0.00
367.51	0.00
367.70	0.00
367.90	0.00
368.10	16.38
368.30	0.00
368.49	0.00
368.69	0.00
368.89	0.00
369.09	0.00
369.28	16.38
369.48	0.00
369.68	0.00
369.87	16.38
370.07	32.77
370.27	0.00
370.47	35.11
370.66	37.45
370.86	46.81
371.06	147.45
371.25	163.84
371.45	93.62
371.65	121.71
371.84	91.28
372.04	145.11
372.24	95.96
372.44	105.32
372.63	63.19
372.83	159.16
373.03	156.82
373.22	79.58
373.42	100.64
373.62	98.30
373.81	140.43
374.01	107.66
374.21	105.32
374.40	131.07
374.60	154.48
374.79	79.58
374.99	49.15
375.19	107.66
375.38	177.88
375.58	138.09
375.78	126.39
375.97	152.13
376.17	175.54
376.37	117.03
376.56	166.18
376.76	124.05
376.95	63.19
377.15	112.35
377.35	112.35
377.54	119.37
377.74	117.03
377.93	79.58
378.13	184.90
378.33	149.79
378.52	107.66
378.72	145.11
378.91	95.96
379.11	98.30
379.31	133.41
379.50	133.41
379.70	135.75
379.89	102.98
380.09	145.11
380.28	126.39
380.48	32.77
380.68	32.77
380.87	112.35
381.07	112.35
381.26	147.45
381.46	114.69
381.65	102.98
381.85	74.90
382.04	147.45
382.24	145.11
382.43	79.58
382.63	131.07
382.83	121.71
383.02	138.09
383.22	112.35
383.41	49.15
383.61	102.98
383.80	98.30
384.00	128.73
384.19	110.01
384.39	182.56
384.58	98.30
384.78	156.82
384.97	133.41
385.17	100.64
385.36	133.41
385.56	110.01
385.75	77.24
385.95	88.94
386.14	119.37
386.34	124.05
386.53	147.45
386.72	102.98
386.92	126.39
387.11	88.94
387.31	88.94
387.50	126.39
387.70	67.88
387.89	184.90
388.09	102.98
388.28	124.05
388.48	100.64
388.67	189.58
388.86	156.82
389.06	161.50
389.25	93.62
389.45	63.19
389.64	65.54
389.84	105.32
390.03	77.24
390.22	152.13
390.42	161.50
390.61	140.43
390.81	112.35
391.00	23.41
391.19	70.22
391.39	126.39
391.58	135.75
391.78	32.77
391.97	117.03
392.16	79.58
392.36	180.22
392.55	147.45
392.75	86.60
392.94	77.24
393.13	201.29
393.33	121.71
393.52	168.52
393.71	107.66
393.91	166.18
394.10	74.90
394.29	161.50
394.49	121.71
394.68	105.32
394.88	138.09
395.07	110.01
395.26	124.05
395.46	166.18
395.65	110.01
395.84	187.24
396.04	238.73
396.23	124.05
396.42	88.94
396.62	126.39
396.81	191.92
397.00	70.22
397.19	124.05
397.39	131.07
397.58	126.39
397.77	79.58
397.97	107.66
398.16	114.69
398.35	187.24
398.55	107.66
398.74	175.54
398.93	124.05
399.12	121.71
399.32	79.58
399.51	119.37
399.70	166.18
399.90	102.98
400.09	81.92
400.28	114.69
400.47	170.86
400.67	107.66
400.86	86.60
401.05	140.43
401.24	152.13
401.44	203.63
401.63	138.09
401.82	205.97
402.01	133.41
402.21	182.56
402.40	100.64
402.59	93.62
402.78	138.09
402.97	110.01
403.17	142.77
403.36	84.26
403.55	107.66
403.74	145.11
403.93	184.90
404.13	250.44
404.32	215.33
404.51	217.67
404.70	170.86
404.89	184.90
405.09	166.18
405.28	163.84
405.47	119.37
405.66	149.79
405.85	147.45
406.05	168.52
406.24	131.07
406.43	117.03
406.62	21.06
406.81	149.79
407.00	177.88
407.20	166.18
407.39	177.88
407.58	191.92
407.77	241.08
407.96	126.39
408.15	149.79
408.34	163.84
408.54	163.84
408.73	126.39
408.92	138.09
409.11	93.62
409.30	163.84
409.49	102.98
409.68	95.96
409.87	154.48
410.07	110.01
410.26	212.99
410.45	105.32
410.64	149.79
410.83	67.88
411.02	77.24
411.21	131.07
411.40	63.19
411.59	105.32
411.78	133.41
411.98	128.73
412.17	205.97
412.36	140.43
412.55	189.58
412.74	102.98
412.93	166.18
413.12	131.07
413.31	138.09
413.50	189.58
413.69	173.20
413.88	121.71
414.07	205.97
414.26	170.86
414.45	152.13
414.64	161.50
414.83	126.39
415.02	114.69
415.22	154.48
415.41	187.24
415.60	159.16
415.79	175.54
415.98	191.92
416.17	173.20
416.36	163.84
416.55	168.52
416.74	182.56
416.93	152.13
417.12	84.26
417.31	154.48
417.50	131.07
417.69	124.05
417.88	135.75
418.07	110.01
418.26	135.75
418.45	133.41
418.64	201.29
418.83	138.09
419.02	196.60
419.21	88.94
419.39	149.79
419.58	88.94
419.77	135.75
419.96	161.50
420.15	147.45
420.34	133.41
420.53	177.88
420.72	147.45
420.91	175.54
421.10	126.39
421.29	196.60
421.48	187.24
421.67	212.99
421.86	117.03
422.05	161.50
422.24	135.75
422.43	135.75
422.61	46.81
422.80	168.52
422.99	93.62
423.18	58.51
423.37	147.45
423.56	170.86
423.75	147.45
423.94	95.96
424.13	194.26
424.32	117.03
424.50	147.45
424.69	107.66
424.88	201.29
425.07	203.63
425.26	142.77
425.45	168.52
425.64	128.73
425.83	135.75
426.01	138.09
426.20	149.79
426.39	149.79
426.58	152.13
426.77	156.82
426.96	308.95
427.15	168.52
427.33	72.56
427.52	77.24
427.71	67.88
427.90	142.77
428.09	173.20
428.28	124.05
428.46	72.56
428.65	163.84
428.84	152.13
429.03	117.03
429.22	110.01
429.40	147.45
429.59	119.37
429.78	229.37
429.97	142.77
430.16	168.52
430.34	194.26
430.53	187.24
430.72	100.64
430.91	147.45
431.10	147.45
431.28	121.71
431.47	119.37
431.66	135.75
431.85	112.35
432.03	168.52
432.22	220.01
432.41	255.12
432.60	208.31
432.79	168.52
432.97	152.13
433.16	114.69
433.35	159.16
433.54	152.13
433.72	236.39
433.91	156.82
434.10	140.43
434.28	262.14
434.47	208.31
434.66	159.16
434.85	220.01
435.03	283.20
435.22	550.03
435.41	1060.26
435.59	1156.22
435.78	830.89
435.97	493.85
436.16	348.74
436.34	212.99
436.53	205.97
436.72	220.01
436.90	203.63
437.09	98.30
437.28	98.30
437.46	184.90
437.65	182.56
437.84	252.78
438.02	147.45
438.21	114.69
438.40	110.01
438.58	126.39
438.77	145.11
438.96	187.24
439.14	133.41
439.33	170.86
439.52	173.20
439.70	147.45
439.89	154.48
440.08	177.88
440.26	180.22
440.45	175.54
440.63	138.09
440.82	152.13
441.01	191.92
441.19	210.65
441.38	173.20
441.57	248.10
441.75	152.13
441.94	250.44
442.12	154.48
442.31	175.54
442.50	210.65
442.68	208.31
442.87	191.92
443.05	196.60
443.24	161.50
443.43	257.46
443.61	159.16
443.80	149.79
443.98	145.11
444.17	161.50
444.35	248.10
444.54	210.65
444.73	145.11
444.91	210.65
445.10	180.22
445.28	149.79
445.47	161.50
445.65	126.39
445.84	208.31
446.02	140.43
446.21	194.26
446.39	177.88
446.58	220.01
446.77	147.45
446.95	212.99
447.14	187.24
447.32	191.92
447.51	161.50
447.69	208.31
447.88	175.54
448.06	159.16
448.25	168.52
448.43	168.52
448.62	166.18
448.80	203.63
448.99	212.99
449.17	177.88
449.36	100.64
449.54	180.22
449.73	236.39
449.91	248.10
450.10	138.09
450.28	273.84
450.46	229.37
450.65	210.65
450.83	208.31
451.02	259.80
451.20	182.56
451.39	189.58
451.57	86.60
451.76	184.90
451.94	194.26
452.13	175.54
452.31	128.73
452.49	168.52
452.68	70.22
452.86	173.20
453.05	205.97
453.23	196.60
453.42	163.84
453.60	95.96
453.78	105.32
453.97	245.76
454.15	170.86
454.34	138.09
454.52	126.39
454.70	187.24
454.89	177.88
455.07	154.48
455.26	248.10
455.44	210.65
455.62	194.26
455.81	194.26
455.99	241.08
456.17	180.22
456.36	184.90
456.54	161.50
456.73	201.29
456.91	180.22
457.09	149.79
457.28	168.52
457.46	227.03
457.64	241.08
457.83	227.03
458.01	245.76
458.19	166.18
458.38	166.18
458.56	177.88
458.74	224.69
458.93	222.35
459.11	177.88
459.29	187.24
459.48	198.95
459.66	269.16
459.84	229.37
460.03	292.57
460.21	227.03
460.39	140.43
460.57	212.99
460.76	215.33
460.94	177.88
461.12	252.78
461.31	201.29
461.49	117.03
461.67	203.63
461.85	212.99
462.04	161.50
462.22	622.58
462.40	159.16
462.59	198.95
462.77	128.73
462.95	184.90
463.13	194.26
463.32	191.92
463.50	208.31
463.68	201.29
463.86	220.01
464.05	194.26
464.23	161.50
464.41	205.97
464.59	205.97
464.78	271.50
464.96	138.09
465.14	156.82
465.32	119.37
465.50	217.67
465.69	196.60
465.87	227.03
466.05	220.01
466.23	234.05
466.41	133.41
466.60	184.90
466.78	166.18
466.96	210.65
467.14	196.60
467.32	264.48
467.51	243.42
467.69	189.58
467.87	208.31
468.05	191.92
468.23	278.52
468.41	191.92
468.60	140.43
468.78	227.03
468.96	187.24
469.14	133.41
469.32	234.05
469.50	191.92
469.69	203.63
469.87	166.18
470.05	149.79
470.23	217.67
470.41	205.97
470.59	208.31
470.77	124.05
470.95	173.20
471.14	187.24
471.32	184.90
471.50	170.86
471.68	201.29
471.86	203.63
472.04	173.20
472.22	205.97
472.40	224.69
472.58	252.78
472.77	217.67
472.95	184.90
473.13	198.95
473.31	205.97
473.49	208.31
473.67	105.32
473.85	154.48
474.03	191.92
474.21	184.90
474.39	238.73
474.57	203.63
474.75	262.14
474.93	203.63
475.12	208.31
475.30	231.71
475.48	234.05
475.66	212.99
475.84	182.56
476.02	201.29
476.20	269.16
476.38	166.18
476.56	252.78
476.74	189.58
476.92	191.92
477.10	175.54
477.28	187.24
477.46	255.12
477.64	278.52
477.82	184.90
478.00	231.71
478.18	241.08
478.36	215.33
478.54	215.33
478.72	229.37
478.90	177.88
479.08	196.60
479.26	227.03
479.44	152.13
479.62	173.20
479.80	205.97
479.98	173.20
480.16	273.84
480.34	241.08
480.52	215.33
480.70	231.71
480.88	149.79
481.06	184.90
481.24	231.71
481.41	166.18
481.59	236.39
481.77	215.33
481.95	257.46
482.13	276.18
482.31	264.48
482.49	217.67
482.67	205.97
482.85	313.63
483.03	238.73
483.21	250.44
483.39	243.42
483.57	236.39
483.74	280.86
483.92	301.93
484.10	311.29
484.28	259.80
484.46	311.29
484.64	245.76
484.82	322.99
485.00	290.23
485.18	292.57
485.35	280.86
485.53	285.55
485.71	346.40
485.89	330.02
486.07	280.86
486.25	308.95
486.43	386.19
486.61	390.87
486.78	372.15
486.96	297.25
487.14	325.33
487.32	374.49
487.50	386.19
487.68	416.62
487.85	304.27
488.03	355.76
488.21	393.21
488.39	353.42
488.57	337.04
488.75	271.50
488.92	575.77
489.10	367.46
489.28	337.04
489.46	266.82
489.64	344.06
489.81	320.65
489.99	322.99
490.17	313.63
490.35	346.40
490.53	287.89
490.70	383.85
490.88	294.91
491.06	332.36
491.24	327.68
491.41	353.42
491.59	346.40
491.77	297.25
491.95	248.10
492.13	285.55
492.30	294.91
492.48	355.76
492.66	348.74
492.84	276.18
493.01	313.63
493.19	355.76
493.37	379.17
493.54	285.55
493.72	287.89
493.90	276.18
494.08	292.57
494.25	255.12
494.43	344.06
494.61	318.31
494.79	327.68
494.96	325.33
495.14	262.14
495.32	266.82
495.49	313.63
495.67	294.91
495.85	372.15
496.02	341.72
496.20	292.57
496.38	358.10
496.55	259.80
496.73	341.72
496.91	271.50
497.09	315.97
497.26	278.52
497.44	269.16
497.62	273.84
497.79	327.68
497.97	276.18
498.14	294.91
498.32	313.63
498.50	245.76
498.67	292.57
498.85	311.29
499.03	262.14
499.20	353.42
499.38	245.76
499.56	334.70
499.73	248.10
499.91	243.42
500.08	348.74
500.26	255.12
500.44	315.97
500.61	290.23
500.79	278.52
500.97	210.65
501.14	287.89
501.32	191.92
501.49	327.68
501.67	313.63
501.84	322.99
502.02	271.50
502.20	243.42
502.37	311.29
502.55	224.69
502.72	264.48
502.90	322.99
503.07	409.59
503.25	285.55
503.43	273.84
503.60	248.10
503.78	273.84
503.95	306.61
504.13	243.42
504.30	234.05
504.48	367.46
504.65	315.97
504.83	252.78
505.01	262.14
505.18	238.73
505.36	257.46
505.53	182.56
505.71	283.20
505.88	262.14
506.06	220.01
506.23	278.52
506.41	283.20
506.58	348.74
506.76	315.97
506.93	250.44
507.11	290.23
507.28	255.12
507.46	229.37
507.63	250.44
507.81	231.71
507.98	208.31
508.16	170.86
508.33	308.95
508.50	313.63
508.68	271.50
508.85	269.16
509.03	196.60
509.20	322.99
509.38	280.86
509.55	243.42
509.73	271.50
509.90	262.14
510.08	308.95
510.25	369.80
510.42	194.26
510.60	234.05
510.77	280.86
510.95	313.63
511.12	311.29
511.30	322.99
511.47	252.78
511.64	276.18
511.82	318.31
511.99	292.57
512.17	358.10
512.34	208.31
512.51	301.93
512.69	278.52
512.86	294.91
513.04	299.59
513.21	308.95
513.38	266.82
513.56	332.36
513.73	330.02
513.90	231.71
514.08	332.36
514.25	294.91
514.43	334.70
514.60	194.26
514.77	278.52
514.95	301.93
515.12	297.25
515.29	308.95
515.47	304.27
515.64	285.55
515.81	264.48
515.99	346.40
516.16	299.59
516.33	327.68
516.51	175.54
516.68	215.33
516.85	248.10
517.03	257.46
517.20	255.12
517.37	262.14
517.54	311.29
517.72	250.44
517.89	231.71
518.06	250.44
518.24	311.29
518.41	367.46
518.58	320.65
518.75	320.65
518.93	243.42
519.10	238.73
519.27	320.65
519.45	287.89
519.62	332.36
519.79	346.40
519.96	346.40
520.14	348.74
520.31	318.31
520.48	252.78
520.65	332.36
520.83	304.27
521.00	299.59
521.17	313.63
521.34	203.63
521.52	327.68
521.69	283.20
521.86	353.42
522.03	290.23
522.20	395.55
522.38	262.14
522.55	311.29
522.72	280.86
522.89	322.99
523.07	339.38
523.24	266.82
523.41	308.95
523.58	290.23
523.75	325.33
523.92	210.65
524.10	308.95
524.27	271.50
524.44	383.85
524.61	365.12
524.78	250.44
524.96	250.44
525.13	294.91
525.30	304.27
525.47	315.97
525.64	339.38
525.81	252.78
525.98	374.49
526.16	292.57
526.33	301.93
526.50	243.42
526.67	255.12
526.84	266.82
527.01	283.20
527.18	337.04
527.36	334.70
527.53	353.42
527.70	285.55
527.87	351.08
528.04	292.57
528.21	355.76
528.38	344.06
528.55	337.04
528.72	306.61
528.89	411.93
529.07	325.33
529.24	348.74
529.41	341.72
529.58	327.68
529.75	306.61
529.92	332.36
530.09	325.33
530.26	271.50
530.43	365.12
530.60	292.57
530.77	264.48
530.94	393.21
531.11	346.40
531.28	269.16
531.46	313.63
531.63	297.25
531.80	358.10
531.97	313.63
532.14	339.38
532.31	351.08
532.48	318.31
532.65	304.27
532.82	383.85
532.99	447.04
533.16	379.17
533.33	325.33
533.50	360.44
533.67	266.82
533.84	411.93
534.01	388.53
534.18	313.63
534.35	400.23
534.52	301.93
534.69	409.59
534.86	283.20
535.03	341.72
535.20	372.15
535.37	365.12
535.54	402.57
535.71	379.17
535.88	374.49
536.05	409.59
536.22	404.91
536.38	402.57
536.55	454.06
536.72	388.53
536.89	355.76
537.06	395.55
537.23	383.85
537.40	418.96
537.57	414.27
537.74	477.47
537.91	461.09
538.08	491.51
538.25	449.38
538.42	500.87
538.59	496.19
538.75	526.62
538.92	517.26
539.09	561.73
539.26	554.71
539.43	550.03
539.60	634.29
539.77	739.61
539.94	671.73
540.11	720.88
540.28	826.21
540.44	767.70
540.61	854.30
540.78	802.80
540.95	1006.43
541.12	1142.18
541.29	1214.74
541.46	1320.06
541.62	1317.72
541.79	1320.06
541.96	1205.38
542.13	1282.61
542.30	1224.10
542.47	1378.58
542.63	1259.21
542.80	1128.14
542.97	1266.23
543.14	1315.38
543.31	1142.18
543.48	1282.61
543.64	1245.16
543.81	1233.46
543.98	1217.08
544.15	1102.39
544.32	1186.65
544.48	1153.88
544.65	1116.44
544.82	1212.40
544.99	1174.95
545.16	1097.71
545.32	1188.99
545.49	1739.02
545.66	2605.02
545.83	3166.74
546.00	2717.36
546.16	2066.69
546.33	1413.68
546.50	1252.19
546.67	1086.01
546.83	905.79
547.00	924.51
547.17	910.47
547.34	805.14
547.50	716.20
547.67	805.14
547.84	798.12
548.00	791.10
548.17	763.01
548.34	695.14
548.51	807.48
548.67	758.33
548.84	732.59
549.01	608.54
549.18	720.88
549.34	629.60
549.51	599.18
549.68	547.69
549.84	662.37
550.01	594.50
550.18	674.07
550.34	653.01
550.51	610.88
550.68	568.75
550.84	554.71
551.01	550.03
551.18	528.96
551.34	587.47
551.51	552.37
551.68	458.74
551.84	552.37
552.01	442.36
552.18	489.17
552.34	472.79
552.51	514.92
552.68	449.38
552.84	503.22
553.01	489.17
553.18	461.09
553.34	442.36
553.51	383.85
553.67	416.62
553.84	491.51
554.01	458.74
554.17	416.62
554.34	428.32
554.51	388.53
554.67	360.44
554.84	407.25
555.00	367.46
555.17	381.51
555.33	376.83
555.50	374.49
555.67	360.44
555.83	313.63
556.00	376.83
556.16	512.58
556.33	332.36
556.50	318.31
556.66	353.42
556.83	337.04
556.99	348.74
557.16	365.12
557.32	306.61
557.49	287.89
557.65	334.70
557.82	365.12
557.98	330.02
558.15	372.15
558.32	311.29
558.48	337.04
558.65	388.53
558.81	381.51
558.98	379.17
559.14	334.70
559.31	250.44
559.47	379.17
559.64	318.31
559.80	344.06
559.97	355.76
560.13	304.27
560.30	271.50
560.46	362.78
560.63	327.68
560.79	360.44
560.96	386.19
561.12	339.38
561.29	294.91
561.45	362.78
561.61	376.83
561.78	332.36
561.94	365.12
562.11	311.29
562.27	334.70
562.44	257.46
562.60	421.30
562.77	299.59
562.93	395.55
563.10	346.40
563.26	299.59
563.42	351.08
563.59	248.10
563.75	369.80
563.92	332.36
564.08	360.44
564.24	381.51
564.41	322.99
564.57	315.97
564.74	390.87
564.90	414.27
565.07	351.08
565.23	318.31
565.39	353.42
565.56	315.97
565.72	358.10
565.88	353.42
566.05	318.31
566.21	308.95
566.38	360.44
566.54	369.80
566.70	306.61
566.87	388.53
567.03	297.25
567.19	290.23
567.36	351.08
567.52	224.69
567.68	222.35
567.85	304.27
568.01	320.65
568.17	390.87
568.34	278.52
568.50	313.63
568.66	341.72
568.83	351.08
568.99	273.84
569.15	383.85
569.32	358.10
569.48	402.57
569.64	257.46
569.81	278.52
569.97	308.95
570.13	348.74
570.30	334.70
570.46	372.15
570.62	294.91
570.78	341.72
570.95	292.57
571.11	360.44
571.27	299.59
571.43	208.31
571.60	386.19
571.76	280.86
571.92	259.80
572.09	351.08
572.25	327.68
572.41	374.49
572.57	287.89
572.74	365.12
572.90	306.61
573.06	351.08
573.22	255.12
573.38	320.65
573.55	271.50
573.71	369.80
573.87	344.06
574.03	285.55
574.20	306.61
574.36	297.25
574.52	306.61
574.68	313.63
574.84	322.99
575.01	292.57
575.17	290.23
575.33	332.36
575.49	416.62
575.65	388.53
575.82	372.15
575.98	362.78
576.14	395.55
576.30	418.96
576.46	610.88
576.62	800.46
576.79	833.23
576.95	676.41
577.11	510.24
577.27	458.74
577.43	430.66
577.59	355.76
577.75	327.68
577.92	304.27
578.08	351.08
578.24	276.18
578.40	362.78
578.56	594.50
578.72	781.74
578.88	805.14
579.04	655.35
579.21	517.26
579.37	470.45
579.53	404.91
579.69	512.58
579.85	510.24
580.01	543.00
580.17	489.17
580.33	491.51
580.49	437.68
580.65	416.62
580.82	421.30
580.98	416.62
581.14	461.09
581.30	475.13
581.46	458.74
581.62	545.34
581.78	451.72
581.94	470.45
582.10	519.60
582.26	531.30
582.42	465.77
582.58	554.71
582.74	447.04
582.90	482.15
583.06	533.64
583.22	472.79
583.38	587.47
583.54	557.05
583.70	592.16
583.86	545.34
584.02	496.19
584.18	571.09
584.34	451.72
584.50	594.50
584.66	390.87
584.82	482.15
584.98	533.64
585.14	498.53
585.30	547.69
585.46	433.00
585.62	365.12
585.78	433.00
585.94	505.56
586.10	531.30
586.26	456.40
586.42	528.96
586.58	498.53
586.74	638.97
586.90	697.48
587.06	702.16
587.22	709.18
587.38	578.11
587.54	636.63
587.70	533.64
587.86	568.75
588.02	479.81
588.18	433.00
588.34	407.25
588.49	444.70
588.65	425.98
588.81	433.00
588.97	447.04
589.13	414.27
589.29	440.02
589.45	425.98
589.61	470.45
589.77	428.32
589.93	341.72
590.08	390.87
590.24	416.62
590.40	440.02
590.56	416.62
590.72	374.49
590.88	376.83
591.04	393.21
591.20	348.74
591.35	388.53
591.51	416.62
591.67	442.36
591.83	475.13
591.99	475.13
592.15	538.32
592.31	596.84
592.46	559.39
592.62	552.37
592.78	561.73
592.94	512.58
593.10	575.77
593.26	578.11
593.41	550.03
593.57	528.96
593.73	528.96
593.89	491.51
594.05	444.70
594.20	411.93
594.36	381.51
594.52	358.10
594.68	386.19
594.84	376.83
594.99	379.17
595.15	500.87
595.31	395.55
595.47	428.32
595.62	379.17
595.78	381.51
595.94	374.49
596.10	463.43
596.25	472.79
596.41	425.98
596.57	404.91
596.73	355.76
596.88	416.62
597.04	397.89
597.20	362.78
597.36	468.11
597.51	379.17
597.67	344.06
597.83	397.89
597.99	404.91
598.14	374.49
598.30	409.59
598.46	470.45
598.61	386.19
598.77	493.85
598.93	484.49
599.09	418.96
599.24	517.26
599.40	402.57
599.56	454.06
599.71	433.00
599.87	482.15
600.03	416.62
600.18	521.94
600.34	447.04
600.50	388.53
600.65	369.80
600.81	400.23
600.97	276.18
601.12	379.17
601.28	360.44
601.44	397.89
601.59	388.53
601.75	341.72
601.91	346.40
602.06	435.34
602.22	365.12
602.37	360.44
602.53	255.12
602.69	374.49
602.84	318.31
603.00	395.55
603.16	351.08
603.31	348.74
603.47	332.36
603.62	372.15
603.78	344.06
603.94	346.40
604.09	402.57
604.25	440.02
604.40	435.34
604.56	402.57
604.71	390.87
604.87	407.25
605.03	435.34
605.18	395.55
605.34	407.25
605.49	346.40
605.65	308.95
605.80	351.08
605.96	327.68
606.12	418.96
606.27	400.23
606.43	423.64
606.58	360.44
606.74	416.62
606.89	414.27
607.05	461.09
607.20	428.32
607.36	482.15
607.51	379.17
607.67	411.93
607.82	531.30
607.98	503.22
608.13	533.64
608.29	496.19
608.44	540.66
608.60	526.62
608.75	543.00
608.91	554.71
609.06	603.86
609.22	587.47
609.37	704.50
609.53	681.10
609.68	697.48
609.84	833.23
609.99	784.08
610.15	973.66
610.30	1207.72
610.46	1483.90
610.61	1755.40
610.76	2230.53
610.92	2628.42
611.07	2906.95
611.23	2998.23
611.38	2864.82
611.54	2473.95
611.69	2038.61
611.84	1760.08
612.00	1490.92
612.15	1390.28
612.31	1247.51
612.46	1060.26
612.62	1090.69
612.77	1090.69
612.92	999.41
613.08	985.37
613.23	959.62
613.39	898.77
613.54	896.43
613.69	926.85
613.85	957.28
614.00	861.32
614.15	926.85
614.31	755.99
614.46	812.17
614.62	786.42
614.77	844.93
614.92	753.65
615.08	765.36
615.23	727.91
615.38	676.41
615.54	636.63
615.69	671.73
615.84	627.26
616.00	613.22
616.15	475.13
616.30	617.90
616.46	479.81
616.61	447.04
616.76	468.11
616.92	491.51
617.07	444.70
617.22	479.81
617.37	484.49
617.53	491.51
617.68	386.19
617.83	444.70
617.99	402.57
618.14	456.40
618.29	484.49
618.45	416.62
618.60	416.62
618.75	367.46
618.90	433.00
619.06	402.57
619.21	437.68
619.36	461.09
619.51	425.98
619.67	353.42
619.82	437.68
619.97	486.83
620.12	454.06
620.28	411.93
620.43	463.43
620.58	435.34
620.73	442.36
620.89	383.85
621.04	433.00
621.19	477.47
621.34	400.23
621.49	454.06
621.65	477.47
621.80	421.30
621.95	425.98
622.10	344.06
622.25	351.08
622.41	365.12
622.56	397.89
622.71	428.32
622.86	425.98
623.01	404.91
623.16	433.00
623.32	381.51
623.47	414.27
623.62	461.09
623.77	407.25
623.92	425.98
624.07	397.89
624.23	475.13
624.38	442.36
624.53	435.34
624.68	444.70
624.83	428.32
624.98	390.87
625.13	320.65
625.29	404.91
625.44	416.62
625.59	428.32
625.74	449.38
625.89	437.68
626.04	430.66
626.19	421.30
626.34	367.46
626.49	404.91
626.65	318.31
626.80	344.06
626.95	435.34
627.10	400.23
627.25	362.78
627.40	409.59
627.55	428.32
627.70	372.15
627.85	381.51
628.00	353.42
628.15	433.00
628.30	407.25
628.45	440.02
628.60	428.32
628.76	416.62
628.91	456.40
629.06	353.42
629.21	430.66
629.36	393.21
629.51	430.66
629.66	372.15
629.81	414.27
629.96	407.25
630.11	423.64
630.26	470.45
630.41	545.34
630.56	517.26
630.71	491.51
630.86	475.13
631.01	458.74
631.16	557.05
631.31	545.34
631.46	435.34
631.61	491.51
631.76	425.98
631.91	390.87
632.06	367.46
632.21	400.23
632.36	365.12
632.51	287.89
632.66	351.08
632.81	355.76
632.96	318.31
633.10	344.06
633.25	287.89
633.40	269.16
633.55	308.95
633.70	196.60
633.85	241.08
634.00	273.84
634.15	273.84
634.30	255.12
634.45	355.76
634.60	273.84
634.75	243.42
634.90	311.29
635.05	264.48
635.19	369.80
635.34	252.78
635.49	276.18
635.64	278.52
635.79	283.20
635.94	315.97
636.09	344.06
636.24	334.70
636.39	304.27
636.53	341.72
636.68	229.37
636.83	283.20
636.98	276.18
637.13	283.20
637.28	297.25
637.43	304.27
637.57	339.38
637.72	322.99
637.87	250.44
638.02	348.74
638.17	351.08
638.32	285.55
638.46	308.95
638.61	311.29
638.76	259.80
638.91	287.89
639.06	248.10
639.20	308.95
639.35	337.04
639.50	334.70
639.65	404.91
639.80	299.59
639.94	255.12
640.09	311.29
640.24	287.89
640.39	271.50
640.54	325.33
640.68	278.52
640.83	304.27
640.98	294.91
641.13	341.72
641.27	227.03
641.42	313.63
641.57	287.89
641.72	208.31
641.86	276.18
642.01	212.99
642.16	320.65
642.31	262.14
642.45	255.12
642.60	353.42
642.75	262.14
642.90	285.55
643.04	322.99
643.19	313.63
643.34	236.39
643.48	278.52
643.63	238.73
643.78	330.02
643.93	386.19
644.07	255.12
644.22	234.05
644.37	313.63
644.51	330.02
644.66	304.27
644.81	294.91
644.95	285.55
645.10	297.25
645.25	273.84
645.39	325.33
645.54	290.23
645.69	322.99
645.83	301.93
645.98	348.74
646.13	222.35
646.27	318.31
646.42	220.01
646.57	255.12
646.71	189.58
646.86	259.80
647.00	322.99
647.15	327.68
647.30	217.67
647.44	262.14
647.59	238.73
647.74	262.14
647.88	266.82
648.03	322.99
648.17	264.48
648.32	224.69
648.47	245.76
648.61	250.44
648.76	252.78
648.90	245.76
649.05	299.59
649.20	273.84
649.34	273.84
649.49	175.54
649.63	271.50
649.78	299.59
649.92	325.33
650.07	330.02
650.21	334.70
650.36	325.33
650.51	325.33
650.65	430.66
650.80	262.14
650.94	351.08
651.09	315.97
651.23	327.68
651.38	294.91
651.52	290.23
651.67	318.31
651.81	287.89
651.96	280.86
652.10	327.68
652.25	231.71
652.39	315.97
652.54	297.25
652.68	283.20
652.83	222.35
652.97	337.04
653.12	257.46
653.26	252.78
653.41	262.14
653.55	285.55
653.70	334.70
653.84	334.70
653.99	327.68
654.13	236.39
654.27	229.37
654.42	243.42
654.56	252.78
654.71	234.05
654.85	313.63
655.00	276.18
655.14	290.23
655.29	283.20
655.43	266.82
655.57	280.86
655.72	264.48
655.86	271.50
656.01	269.16
656.15	252.78
656.30	262.14
656.44	161.50
656.58	285.55
656.73	224.69
656.87	215.33
657.01	238.73
657.16	341.72
657.30	262.14
657.45	231.71
657.59	301.93
657.73	304.27
657.88	252.78
658.02	330.02
658.16	252.78
658.31	191.92
658.45	201.29
658.60	159.16
658.74	255.12
658.88	280.86
659.03	306.61
659.17	201.29
659.31	278.52
659.46	290.23
659.60	231.71
659.74	234.05
659.89	290.23
660.03	238.73
660.17	264.48
660.32	297.25
660.46	266.82
660.60	271.50
660.74	290.23
660.89	290.23
661.03	198.95
661.17	297.25
661.32	255.12
661.46	236.39
661.60	290.23
661.74	266.82
661.89	320.65
662.03	285.55
662.17	215.33
662.31	290.23
662.46	269.16
662.60	294.91
662.74	241.08
662.88	327.68
663.03	238.73
663.17	224.69
663.31	236.39
663.45	266.82
663.60	245.76
663.74	238.73
663.88	252.78
664.02	271.50
664.17	322.99
664.31	264.48
664.45	259.80
664.59	301.93
664.73	273.84
664.88	306.61
665.02	236.39
665.16	229.37
665.30	318.31
665.44	236.39
665.59	252.78
665.73	236.39
665.87	250.44
666.01	215.33
666.15	224.69
666.29	217.67
666.44	337.04
666.58	346.40
666.72	205.97
666.86	243.42
667.00	231.71
667.14	231.71
667.28	245.76
667.43	252.78
667.57	210.65
667.71	241.08
667.85	304.27
667.99	344.06
668.13	276.18
668.27	327.68
668.41	311.29
668.56	241.08
668.70	210.65
668.84	229.37
668.98	264.48
669.12	304.27
669.26	271.50
669.40	304.27
669.54	215.33
669.68	245.76
669.82	252.78
669.96	222.35
670.10	257.46
670.25	220.01
670.39	264.48
670.53	276.18
670.67	294.91
670.81	224.69
670.95	241.08
671.09	299.59
671.23	252.78
671.37	156.82
671.51	273.84
671.65	201.29
671.79	252.78
671.93	215.33
672.07	313.63
672.21	308.95
672.35	252.78
672.49	177.88
672.63	229.37
672.77	210.65
672.91	257.46
673.05	173.20
673.19	250.44
673.33	220.01
673.47	283.20
673.61	297.25
673.75	201.29
673.89	191.92
674.03	217.67
674.17	236.39
674.31	241.08
674.45	189.58
674.59	201.29
674.73	231.71
674.87	285.55
675.01	285.55
675.15	231.71
675.29	245.76
675.43	292.57
675.56	304.27
675.70	248.10
675.84	203.63
675.98	208.31
676.12	215.33
676.26	133.41
676.40	203.63
676.54	243.42
676.68	250.44
676.82	290.23
676.96	257.46
677.10	191.92
677.23	215.33
677.37	210.65
677.51	229.37
677.65	299.59
677.79	187.24
677.93	212.99
678.07	222.35
678.21	217.67
678.34	191.92
678.48	243.42
678.62	222.35
678.76	191.92
678.90	210.65
679.04	234.05
679.18	194.26
679.31	194.26
679.45	180.22
679.59	271.50
679.73	166.18
679.87	184.90
680.00	257.46
680.14	187.24
680.28	205.97
680.42	262.14
680.56	198.95
680.70	241.08
680.83	194.26
680.97	234.05
681.11	205.97
681.25	283.20
681.39	163.84
681.52	184.90
681.66	220.01
681.80	191.92
681.94	243.42
682.07	248.10
682.21	152.13
682.35	220.01
682.49	182.56
682.62	198.95
682.76	168.52
682.90	191.92
683.04	227.03
683.17	212.99
683.31	257.46
683.45	241.08
683.59	236.39
683.72	238.73
683.86	196.60
684.00	203.63
684.13	236.39
684.27	173.20
684.41	177.88
684.55	198.95
684.68	175.54
684.82	149.79
684.96	145.11
685.09	189.58
685.23	229.37
685.37	166.18
685.50	243.42
685.64	210.65
685.78	135.75
685.91	135.75
686.05	220.01
686.19	205.97
686.32	210.65
686.46	236.39
686.60	191.92
686.73	273.84
686.87	168.52
687.01	210.65
687.14	152.13
687.28	194.26
687.42	149.79
687.55	257.46
687.69	299.59
687.82	170.86
687.96	212.99
688.10	159.16
688.23	177.88
688.37	304.27
688.50	201.29
688.64	114.69
688.78	145.11
688.91	180.22
689.05	208.31
689.18	180.22
689.32	250.44
689.46	184.90
689.59	238.73
689.73	227.03
689.86	177.88
690.00	154.48
690.13	198.95
690.27	196.60
690.41	187.24
690.54	201.29
690.68	187.24
690.81	203.63
690.95	224.69
691.08	163.84
691.22	201.29
691.35	166.18
691.49	189.58
691.62	222.35
691.76	194.26
691.89	205.97
692.03	145.11
692.16	180.22
692.30	208.31
692.43	184.90
692.57	147.45
692.70	170.86
692.84	257.46
692.97	182.56
693.11	161.50
693.24	140.43
693.38	168.52
693.51	140.43
693.65	189.58
693.78	154.48
693.92	145.11
694.05	215.33
694.19	145.11
694.32	212.99
694.45	173.20
694.59	215.33
694.72	114.69
694.86	88.94
694.99	243.42
695.13	231.71
695.26	182.56
695.39	208.31
695.53	175.54
695.66	224.69
695.80	205.97
695.93	149.79
696.07	147.45
696.20	149.79
696.33	184.90
696.47	161.50
696.60	177.88
696.73	154.48
696.87	182.56
697.00	205.97
697.14	170.86
697.27	166.18
697.40	231.71
697.54	208.31
697.67	184.90
697.80	126.39
697.94	140.43
698.07	163.84
698.21	191.92
698.34	205.97
698.47	175.54
698.61	187.24
698.74	177.88
698.87	191.92
699.01	175.54
699.14	175.54
699.27	166.18
699.40	299.59
699.54	175.54
699.67	67.88
699.80	98.30
699.94	145.11
700.07	138.09
700.20	201.29
700.34	126.39
700.47	124.05
700.60	198.95
700.73	112.35
700.87	161.50
701.00	142.77
701.13	166.18
701.26	105.32
701.40	81.92
701.53	121.71
701.66	236.39
701.79	182.56
701.93	138.09
702.06	238.73
702.19	93.62
702.32	117.03
702.46	79.58
702.59	131.07
702.72	145.11
702.85	217.67
702.99	196.60
703.12	142.77
703.25	152.13
703.38	203.63
703.51	180.22
703.65	124.05
703.78	67.88
703.91	168.52
704.04	205.97
704.17	182.56
704.31	156.82
704.44	187.24
704.57	184.90
704.70	182.56
704.83	222.35
704.96	154.48
705.10	191.92
705.23	126.39
>>>>>End Processed Spectral Data<<<<<
