SpectraSuite Data File
++++++++++++++++++++++++++++++++++++
Date: Tue Oct 01 18:27:27 GMT-05:00 2013
User: stostad
Dark Spectrum Present: No
Reference Spectrum Present: No
Number of Sampled Component Spectra: 1
Spectrometers: USB2+H05261
Integration Time (usec): 100000 (USB2+H05261)
Spectra Averaged: 1 (USB2+H05261)
Boxcar Smoothing: 0 (USB2+H05261)
Correct for Electrical Dark: No (USB2+H05261)
Strobe/Lamp Enabled: No (USB2+H05261)
Correct for Detector Non-linearity: No (USB2+H05261)
Correct for Stray Light: No (USB2+H05261)
Number of Pixels in Processed Spectrum: 2048
>>>>>Begin Processed Spectral Data<<<<<
365.73	100.64
365.92	100.64
366.12	100.64
366.32	9.36
366.52	0.00
366.72	0.00
366.91	0.00
367.11	0.00
367.31	0.00
367.51	23.41
367.70	0.00
367.90	0.00
368.10	0.00
368.30	0.00
368.49	0.00
368.69	0.00
368.89	21.06
369.09	0.00
369.28	0.00
369.48	0.00
369.68	28.09
369.87	51.49
370.07	72.56
370.27	145.11
370.47	189.58
370.66	234.05
370.86	241.08
371.06	358.10
371.25	327.68
371.45	280.86
371.65	330.02
371.84	283.20
372.04	283.20
372.24	360.44
372.44	376.83
372.63	355.76
372.83	395.55
373.03	402.57
373.22	374.49
373.42	337.04
373.62	461.09
373.81	421.30
374.01	503.22
374.21	463.43
374.40	514.92
374.60	477.47
374.79	402.57
374.99	500.87
375.19	386.19
375.38	456.40
375.58	447.04
375.78	519.60
375.97	538.32
376.17	561.73
376.37	470.45
376.56	458.74
376.76	500.87
376.95	428.32
377.15	500.87
377.35	425.98
377.54	531.30
377.74	463.43
377.93	484.49
378.13	575.77
378.33	498.53
378.52	463.43
378.72	610.88
378.91	463.43
379.11	526.62
379.31	535.98
379.50	425.98
379.70	543.00
379.89	472.79
380.09	498.53
380.28	463.43
380.48	601.52
380.68	486.83
380.87	568.75
381.07	566.41
381.26	599.18
381.46	589.82
381.65	641.31
381.85	585.13
382.04	547.69
382.24	571.09
382.43	543.00
382.63	500.87
382.83	620.24
383.02	662.37
383.22	674.07
383.41	578.11
383.61	638.97
383.80	589.82
384.00	599.18
384.19	608.54
384.39	589.82
384.58	629.60
384.78	629.60
384.97	676.41
385.17	514.92
385.36	697.48
385.56	676.41
385.75	613.22
385.95	603.86
386.14	634.29
386.34	655.35
386.53	699.82
386.72	718.54
386.92	697.48
387.11	753.65
387.31	615.56
387.50	592.16
387.70	631.94
387.89	674.07
388.09	648.33
388.28	674.07
388.48	645.99
388.67	739.61
388.86	655.35
389.06	732.59
389.25	741.95
389.45	725.57
389.64	709.18
389.84	737.27
390.03	744.29
390.22	751.31
390.42	812.17
390.61	772.38
390.81	812.17
391.00	779.40
391.19	777.06
391.39	774.72
391.58	873.02
391.78	779.40
391.97	767.70
392.16	849.61
392.36	1008.77
392.55	826.21
392.75	854.30
392.94	863.66
393.13	873.02
393.33	863.66
393.52	774.72
393.71	908.13
393.91	947.92
394.10	793.44
394.29	896.43
394.49	915.15
394.68	898.77
394.88	945.58
395.07	1001.75
395.26	1027.50
395.46	983.02
395.65	1029.84
395.84	978.34
396.04	1048.56
396.23	1053.24
396.42	1015.79
396.62	1081.33
396.81	1100.05
397.00	1027.50
397.19	1027.50
397.39	1060.26
397.58	1156.22
397.77	971.32
397.97	1074.31
398.16	1179.63
398.35	1177.29
398.55	1090.69
398.74	1135.16
398.93	1212.40
399.12	1060.26
399.32	1135.16
399.51	1144.52
399.70	1224.10
399.90	1207.72
400.09	1275.59
400.28	1214.74
400.47	1160.91
400.67	1238.14
400.86	1287.29
401.05	1320.06
401.24	1247.51
401.44	1249.85
401.63	1296.66
401.82	1313.04
402.01	1366.87
402.21	1299.00
402.40	1299.00
402.59	1397.30
402.78	1465.18
402.97	1359.85
403.17	1341.13
403.36	1357.51
403.55	1411.34
403.74	1387.94
403.93	1530.71
404.13	1488.58
404.32	1537.73
404.51	1514.33
404.70	1565.82
404.89	1516.67
405.09	1554.12
405.28	1563.48
405.47	1467.52
405.66	1631.35
405.85	1629.01
406.05	1687.53
406.24	1638.38
406.43	1647.74
406.62	1722.63
406.81	1732.00
407.00	1722.63
407.20	1650.08
407.39	1776.47
407.58	1736.68
407.77	1696.89
407.96	1781.15
408.15	1893.49
408.34	1860.73
408.54	1790.51
408.73	1881.79
408.92	1816.26
409.11	1851.36
409.30	1884.13
409.49	1907.54
409.68	1998.82
409.87	1923.92
410.07	1912.22
410.26	2069.03
410.45	2139.25
410.64	2033.93
410.83	2132.23
411.02	2033.93
411.21	2092.44
411.40	2146.27
411.59	2174.36
411.78	2279.68
411.98	2059.67
412.17	2099.46
412.36	2263.30
412.55	2275.00
412.74	2413.09
412.93	2291.38
413.12	2445.86
413.31	2471.61
413.50	2387.35
413.69	2459.90
413.88	2457.56
414.07	2560.55
414.26	2415.43
414.45	2377.98
414.64	2504.37
414.83	2710.34
415.02	2527.78
415.22	2747.79
415.41	2574.59
415.60	2743.11
415.79	2745.45
415.98	2810.98
416.17	2834.39
416.36	2747.79
416.55	2818.00
416.74	2857.79
416.93	2909.29
417.12	2951.42
417.31	2876.52
417.50	2876.52
417.69	3108.23
417.88	2965.46
418.07	2944.39
418.26	3021.63
418.45	3007.59
418.64	3176.11
418.83	3162.06
419.02	3187.81
419.21	3162.06
419.39	3148.02
419.58	3124.62
419.77	3152.70
419.96	3276.75
420.15	3265.05
420.34	3293.13
420.53	3346.97
420.72	3293.13
420.91	3339.94
421.10	3309.52
421.29	3330.58
421.48	3368.03
421.67	3613.79
421.86	3435.91
422.05	3318.88
422.24	3471.01
422.43	3337.60
422.61	3398.46
422.80	3445.27
422.99	3562.30
423.18	3602.08
423.37	3508.46
423.56	3499.10
423.75	3562.30
423.94	3473.36
424.13	3391.44
424.32	3370.37
424.50	3559.95
424.69	3660.60
424.88	3712.09
425.07	3559.95
425.26	3566.98
425.45	3466.33
425.64	3602.08
425.83	3634.85
426.01	3756.56
426.20	3702.73
426.39	3616.13
426.58	3599.74
426.77	3644.21
426.96	3602.08
427.15	3566.98
427.33	3723.79
427.52	3684.00
427.71	3728.47
427.90	3744.86
428.09	3805.71
428.28	3786.99
428.46	3761.24
428.65	3819.75
428.84	4035.08
429.03	4004.66
429.22	3906.35
429.40	4004.66
429.59	3932.10
429.78	3674.64
429.97	3899.33
430.16	3810.39
430.34	4007.00
430.53	4224.67
430.72	4002.32
430.91	3957.85
431.10	4074.87
431.28	4058.49
431.47	4152.11
431.66	4344.03
431.85	4119.34
432.03	4170.83
432.22	4278.50
432.41	4435.32
432.60	4355.74
432.79	4248.07
432.97	4322.97
433.16	4241.05
433.35	4299.56
433.54	4248.07
433.72	4440.00
433.91	4425.95
434.10	4358.08
434.28	4444.68
434.47	4449.36
434.66	4531.28
434.85	4510.21
435.03	4624.90
435.22	4706.82
435.41	4716.18
435.59	4748.95
435.78	4540.64
435.97	4629.58
436.16	4671.71
436.34	4634.26
436.53	4723.20
436.72	4704.48
436.90	4624.90
437.09	4770.01
437.28	4770.01
437.46	4720.86
437.65	4681.07
437.84	4915.12
438.02	4936.19
438.21	4798.10
438.40	4863.63
438.58	4990.02
438.77	5102.37
438.96	5004.07
439.14	5111.73
439.33	5046.20
439.52	5132.79
439.70	5233.44
439.89	5317.70
440.08	5376.21
440.26	5387.91
440.45	5448.77
440.63	5493.24
440.82	5603.24
441.01	5425.36
441.19	5617.29
441.38	5544.73
441.57	5645.37
441.75	5614.95
441.94	5741.33
442.12	5774.10
442.31	5729.63
442.50	5666.44
442.68	5916.87
442.87	5748.36
443.05	5703.89
443.24	5942.62
443.43	5996.45
443.61	5991.77
443.80	5867.72
443.98	5727.29
444.17	5703.89
444.35	6050.28
444.54	6111.14
444.73	5975.39
444.91	6115.82
445.10	6010.50
445.28	5998.79
445.47	6038.58
445.65	5907.51
445.84	6087.73
446.02	6125.18
446.21	6045.60
446.39	5991.77
446.58	6193.06
446.77	6225.82
446.95	5935.60
447.14	6019.86
447.32	6282.00
447.51	6207.10
447.69	6179.01
447.88	5970.71
448.06	6237.53
448.25	6289.02
448.43	6104.12
448.62	6361.58
448.80	6125.18
448.99	6342.85
449.17	6267.95
449.36	6333.49
449.54	6597.97
449.73	6401.37
449.91	6408.39
450.10	6555.84
450.28	6588.61
450.46	6462.22
450.65	6640.10
450.83	6677.55
451.02	6537.12
451.20	6602.65
451.39	6623.72
451.57	6546.48
451.76	6530.09
451.94	6560.52
452.13	6848.41
452.31	6691.59
452.49	6593.29
452.68	6745.42
452.86	6766.49
453.05	6820.32
453.23	6710.32
453.42	6857.77
453.60	6937.35
453.78	6972.46
453.97	6820.32
454.15	6935.01
454.34	6918.62
454.52	6965.43
454.70	6885.86
454.89	7066.08
455.07	7052.03
455.26	7068.42
455.44	7307.15
455.62	7112.89
455.81	7265.02
455.99	7290.77
456.17	7428.86
456.36	7360.98
456.54	7332.90
456.73	7595.04
456.91	7585.68
457.09	7536.52
457.28	7737.81
457.46	7494.40
457.64	7517.80
457.83	7588.02
458.01	7487.37
458.19	7763.56
458.38	7576.31
458.56	7681.64
458.74	7660.57
458.93	7779.94
459.11	7740.15
459.29	7723.77
459.48	7779.94
459.66	7864.20
459.84	7913.35
460.03	8135.70
460.21	7770.58
460.39	7920.37
460.57	7838.45
460.76	8035.06
460.94	8222.30
461.12	8030.38
461.31	8086.55
461.49	8152.09
461.67	8229.32
461.85	8262.09
462.04	8074.85
462.22	8676.37
462.40	8278.47
462.59	8135.70
462.77	8360.39
462.95	8353.37
463.13	8571.04
463.32	8299.54
463.50	8512.53
463.68	8531.25
463.86	8442.31
464.05	8290.18
464.23	8425.93
464.41	8671.68
464.59	8542.96
464.78	8692.75
464.96	8638.92
465.14	8507.85
465.32	8826.16
465.50	8774.67
465.69	8793.39
465.87	8695.09
466.05	8882.33
466.23	8807.44
466.41	8779.35
466.60	9219.37
466.78	8737.22
466.96	8718.50
467.14	8702.11
467.32	9050.85
467.51	9228.73
467.69	8727.86
467.87	8987.66
468.05	9156.18
468.23	9050.85
468.41	8975.95
468.60	9261.50
468.78	9348.10
468.96	9039.15
469.14	9132.77
469.32	9380.87
469.50	9149.15
469.69	9455.76
469.87	9359.80
470.05	9563.43
470.23	9528.32
470.41	9497.89
470.59	9631.30
470.77	9624.28
470.95	9561.09
471.14	9724.93
471.32	9706.20
471.50	9926.21
471.68	9753.01
471.86	10005.79
472.04	9893.44
472.22	9867.70
472.40	9881.74
472.58	9923.87
472.77	9914.51
472.95	10040.90
473.13	10516.03
473.31	10190.69
473.49	10340.49
473.67	10319.42
473.85	10359.21
474.03	10401.34
474.21	10604.97
474.39	10438.79
474.57	10546.45
474.75	10841.36
474.93	10839.02
475.12	10693.91
475.30	10803.91
475.48	10956.05
475.66	10967.75
475.84	11089.46
476.02	10986.47
476.20	11426.50
476.38	11360.96
476.56	11445.22
476.74	11459.26
476.92	11372.66
477.10	11527.14
477.28	11576.29
477.46	11768.21
477.64	11901.62
477.82	11920.35
478.00	12142.70
478.18	12212.92
478.36	12107.59
478.54	12264.41
478.72	12505.48
478.90	12905.71
479.08	12830.82
479.26	12791.03
479.44	12961.89
479.62	12877.63
479.80	13060.19
479.98	13184.24
480.16	13453.40
480.34	13200.62
480.52	13652.34
480.70	13357.44
480.88	13453.40
481.06	13701.50
481.24	13437.02
481.41	13598.51
481.59	14097.05
481.77	14047.90
481.95	14160.24
482.13	14373.23
482.31	14274.93
482.49	14452.81
482.67	14647.07
482.85	14970.07
483.03	15101.14
483.21	15302.42
483.39	15145.61
483.57	15302.42
483.74	15257.95
483.92	15484.98
484.10	15428.81
484.28	15618.39
484.46	15929.69
484.64	15962.45
484.82	15913.30
485.00	15997.56
485.18	16496.10
485.35	16327.58
485.53	16552.27
485.71	16585.04
485.89	17006.33
486.07	16812.07
486.25	17123.36
486.43	17207.62
486.61	17493.16
486.78	17582.10
486.96	17392.52
487.14	17736.58
487.32	18008.08
487.50	17820.84
487.68	18052.55
487.85	18602.58
488.03	18567.47
488.21	18951.32
488.39	18405.97
488.57	18808.54
488.75	19105.79
488.92	19304.74
489.10	19075.37
489.28	19342.19
489.46	19632.41
489.64	19524.75
489.81	19988.18
489.99	20198.82
490.17	20039.67
490.35	20320.53
490.53	20629.48
490.70	20596.71
490.88	20505.43
491.06	20840.13
491.24	20695.02
491.41	20961.84
491.59	21289.51
491.77	21338.66
491.95	21628.89
492.13	22068.91
492.30	21830.18
492.48	21942.52
492.66	22052.53
492.84	22052.53
493.01	22345.09
493.19	22349.78
493.37	22445.74
493.54	22272.54
493.72	22845.97
493.90	22801.50
494.08	23529.41
494.25	23503.66
494.43	23290.67
494.61	23363.23
494.79	23445.15
494.96	23744.73
495.14	23917.93
495.32	24034.96
495.49	24332.21
495.67	24233.91
495.85	24203.48
496.02	24840.11
496.20	24730.10
496.38	24741.80
496.55	25177.14
496.73	25605.46
496.91	25191.19
497.09	25252.04
497.26	25326.94
497.44	25078.84
497.62	25560.99
497.79	26066.55
497.97	26036.12
498.14	25991.65
498.32	26415.29
498.50	26258.47
498.67	26780.41
498.85	26836.58
499.03	26686.79
499.20	26649.34
499.38	27033.19
499.56	27115.11
499.73	26939.57
499.91	27197.02
500.08	27351.50
500.26	27035.53
500.44	27379.59
500.61	27597.26
500.79	27391.29
500.97	27803.22
501.14	27931.95
501.32	27967.06
501.49	28222.18
501.67	28287.71
501.84	28599.01
502.02	28556.88
502.20	28865.83
502.37	28184.73
502.55	28570.92
502.72	28882.21
502.90	29134.99
503.07	28540.49
503.25	28938.38
503.43	29214.57
503.60	29102.22
503.78	29160.73
503.95	29385.43
504.13	29652.25
504.30	29628.84
504.48	29905.02
504.65	30438.67
504.83	30602.50
505.01	30572.08
505.18	30274.83
505.36	30120.35
505.53	29806.72
505.71	30202.27
505.88	30796.77
506.06	30630.59
506.23	30927.84
506.41	30562.72
506.58	31145.51
506.76	30892.73
506.93	31096.36
507.11	31030.82
507.28	31400.63
507.46	31864.05
507.63	31381.90
507.81	31639.36
507.98	31445.10
508.16	31899.16
508.33	31646.38
508.50	31864.05
508.68	31955.33
508.85	32301.73
509.03	32158.96
509.20	32367.27
509.38	32503.02
509.55	32315.78
509.73	32439.82
509.90	32666.86
510.08	32931.34
510.25	32673.88
510.42	32748.78
510.60	33198.16
510.77	33352.63
510.95	33240.29
511.12	33198.16
511.30	33261.35
511.47	33256.67
511.64	33364.34
511.82	33872.23
511.99	33413.49
512.17	33881.60
512.34	34017.35
512.51	34176.50
512.69	34078.20
512.86	34321.62
513.04	34675.04
513.21	34202.25
513.38	34459.71
513.56	34703.12
513.73	34195.23
513.90	35175.91
514.08	35002.71
514.25	34974.63
514.43	35339.75
514.60	35079.95
514.77	35407.62
514.95	35431.03
515.12	35381.88
515.29	35204.00
515.47	35959.99
515.64	36084.04
515.81	35906.16
515.99	35857.01
516.16	36161.28
516.33	35550.40
516.51	36264.26
516.68	36067.66
516.85	36322.77
517.03	36531.08
517.20	36435.12
517.37	36641.09
517.54	36624.70
517.72	36692.58
517.89	36760.45
518.06	36500.65
518.24	36868.12
518.41	36765.14
518.58	37006.21
518.75	36631.72
518.93	37102.17
519.10	37120.90
519.27	37366.65
519.45	37347.93
519.62	37207.50
519.79	37289.42
519.96	37261.33
520.14	37755.18
520.31	37605.39
520.48	37741.14
520.65	37989.24
520.83	38368.40
521.00	38246.69
521.17	38834.17
521.34	38504.15
521.52	38824.81
521.69	38134.35
521.86	38405.85
522.03	38649.27
522.20	39105.67
522.38	39005.03
522.55	38635.22
522.72	39115.03
522.89	38815.44
523.07	39428.66
523.24	39019.07
523.41	38848.21
523.58	39035.45
523.75	39335.04
523.92	39503.56
524.10	39477.82
524.27	39688.46
524.44	39952.94
524.61	39981.03
524.78	39826.56
524.96	40137.85
525.13	39880.39
525.30	40126.14
525.47	40119.12
525.64	40673.83
525.81	40566.16
525.98	40278.28
526.16	40561.48
526.33	40439.78
526.50	41034.27
526.67	40243.17
526.84	41008.53
527.01	40507.65
527.18	41043.63
527.36	40676.17
527.53	41270.67
527.70	40935.97
527.87	41181.73
528.04	40940.65
528.21	40847.03
528.38	41462.59
528.55	41706.01
528.72	41486.00
528.89	41340.88
529.07	41235.56
529.24	41504.72
529.41	41539.83
529.58	41588.98
529.75	41598.34
529.92	41853.46
530.09	41581.96
530.26	41949.42
530.43	42663.28
530.60	41895.59
530.77	41935.38
530.94	42153.05
531.11	42017.30
531.28	42272.42
531.46	42459.66
531.63	42522.85
531.80	42667.97
531.97	42902.02
532.14	42445.62
532.31	42707.76
532.48	42555.62
532.65	42904.36
532.82	42728.82
532.99	43159.48
533.16	43147.78
533.33	43423.96
533.50	43344.38
533.67	43049.47
533.84	42895.00
534.01	43105.65
534.18	43335.02
534.35	43501.20
534.52	43426.30
534.69	43810.15
534.86	43510.56
535.03	42890.32
535.20	43445.02
535.37	44233.78
535.54	44011.43
535.71	43793.76
535.88	44046.54
536.05	43906.11
536.22	44266.55
536.38	44304.00
536.55	43915.47
536.72	44016.11
536.89	43978.67
537.06	44296.98
537.23	44273.57
537.40	44926.58
537.57	44399.96
537.74	43903.77
537.91	44594.23
538.08	44540.39
538.25	44189.31
538.42	44549.76
538.59	44971.05
538.75	44505.29
538.92	44767.43
539.09	45378.31
539.26	44708.91
539.43	44907.86
539.60	45628.74
539.77	45207.45
539.94	45280.00
540.11	45090.42
540.28	45577.25
540.44	45537.46
540.61	45071.70
540.78	45375.97
540.95	45860.46
541.12	45130.21
541.29	45031.91
541.46	45579.59
541.62	45394.69
541.79	45743.43
541.96	45366.60
542.13	45626.40
542.30	45371.28
542.47	46054.72
542.63	45860.46
542.80	45979.82
542.97	46689.01
543.14	46717.09
543.31	46277.07
543.48	46279.41
543.64	46473.68
543.81	46450.27
543.98	46469.00
544.15	46810.71
544.32	46670.28
544.48	46841.14
544.65	46899.65
544.82	47030.72
544.99	46637.51
545.16	46864.55
545.32	47054.13
545.49	47622.88
545.66	47047.11
545.83	46808.37
546.00	47281.16
546.16	46941.78
546.33	47075.19
546.50	46892.63
546.67	47491.81
546.83	47079.88
547.00	47187.54
547.17	47330.31
547.34	46918.38
547.50	47510.53
547.67	47407.55
547.84	47365.42
548.00	47592.45
548.17	47985.66
548.34	47782.04
548.51	47737.57
548.67	47861.61
548.84	47697.78
549.01	47243.71
549.18	47576.07
549.34	48032.47
549.51	48121.41
549.68	48004.39
549.84	48032.47
550.01	48179.93
550.18	47707.14
550.34	48034.81
550.51	48128.44
550.68	48205.67
550.84	47826.51
551.01	48505.26
551.18	47835.87
551.34	48334.40
551.51	48580.16
551.68	48479.52
551.84	48598.88
552.01	48062.90
552.18	48327.38
552.34	48252.48
552.51	48168.22
552.68	48491.22
552.84	48666.76
553.01	48926.56
553.18	48739.32
553.34	48622.29
553.51	48636.33
553.67	48692.50
553.84	48933.58
554.01	48821.23
554.17	48961.67
554.34	48666.76
554.51	48954.64
554.67	49382.96
554.84	48956.99
555.00	49169.97
555.17	49008.48
555.33	49078.69
555.50	49003.80
555.67	48790.81
555.83	48781.45
556.00	48945.28
556.16	49497.65
556.33	49343.17
556.50	48851.66
556.66	49453.18
556.83	49450.84
556.99	49277.64
557.16	49507.01
557.32	49492.97
557.49	49642.76
557.65	49165.29
557.82	49495.31
557.98	50003.20
558.15	49703.62
558.32	49525.74
558.48	49265.94
558.65	49595.95
558.81	49645.10
558.98	49497.65
559.14	49544.46
559.31	49411.05
559.47	49867.45
559.64	49727.02
559.80	49680.21
559.97	50000.86
560.13	49776.17
560.30	49457.86
560.46	49553.82
560.63	49752.77
560.79	49902.56
560.96	50064.06
561.12	50178.75
561.29	50244.28
561.45	50064.06
561.61	49680.21
561.78	50010.23
561.94	50080.44
562.11	50017.25
562.27	49652.12
562.44	49923.63
562.60	50045.33
562.77	50040.65
562.93	49982.14
563.10	50382.37
563.26	50138.96
563.42	50206.83
563.59	49982.14
563.75	49989.16
563.92	50206.83
564.08	49832.35
564.24	50017.25
564.41	50265.34
564.57	50316.84
564.74	50628.13
564.90	50450.25
565.07	50033.63
565.23	50141.30
565.39	50052.36
565.56	50164.70
565.72	50293.43
565.88	50637.49
566.05	50475.99
566.21	50398.76
566.38	50707.71
566.54	50543.87
566.70	50525.14
566.87	50665.58
567.03	49949.37
567.19	50492.38
567.36	50506.42
567.52	50518.12
567.68	50859.84
567.85	50639.83
568.01	50766.22
568.17	50302.79
568.34	50784.94
568.50	50604.72
568.66	50588.34
568.83	50941.76
568.99	50459.61
569.15	50351.94
569.32	50468.97
569.48	50373.01
569.64	50553.23
569.81	50726.43
569.97	50621.11
570.13	50696.00
570.30	50571.96
570.46	50436.20
570.62	50199.81
570.78	50483.01
570.95	50611.74
571.11	50677.28
571.27	50707.71
571.43	50890.27
571.60	50600.04
571.76	50747.50
571.92	50710.05
572.09	50681.96
572.25	50564.93
572.41	51110.28
572.57	50775.58
572.74	51227.31
572.90	50735.79
573.06	51173.47
573.22	50754.52
573.38	50920.70
573.55	51070.49
573.71	51026.02
573.87	50791.97
574.03	50887.93
574.20	50656.21
574.36	50845.80
574.52	50635.15
574.68	51164.11
574.84	51250.71
575.01	51292.84
575.17	51449.66
575.33	51089.21
575.49	50941.76
575.65	51192.20
575.82	50995.59
575.98	50838.78
576.14	51119.64
576.30	51381.78
576.46	51276.46
576.62	51072.83
576.79	51119.64
576.95	51246.03
577.11	50981.55
577.27	50803.67
577.43	51267.09
577.59	51157.09
577.75	51150.07
577.92	50419.82
578.08	51049.42
578.24	51290.50
578.40	51470.72
578.56	51023.68
578.72	51208.58
578.88	51566.68
579.04	50988.57
579.21	50845.80
579.37	50969.85
579.53	51299.86
579.69	51274.12
579.85	51304.54
580.01	51189.86
580.17	51126.66
580.33	51461.36
580.49	51391.14
580.65	51082.19
580.82	50869.20
580.98	51145.39
581.14	50843.46
581.30	51147.73
581.46	51089.21
581.62	51105.60
581.78	51016.66
581.94	51526.89
582.10	51119.64
582.26	51578.39
582.42	51047.08
582.58	51224.96
582.74	50810.69
582.90	51082.19
583.06	51079.85
583.22	51346.67
583.38	51327.95
583.54	51325.61
583.70	51540.94
583.86	51590.09
584.02	51344.33
584.18	51590.09
584.34	51098.58
584.50	51543.28
584.66	51267.09
584.82	51206.24
584.98	51241.35
585.14	51283.48
585.30	51047.08
585.46	51360.72
585.62	51636.90
585.78	51416.89
585.94	51304.54
586.10	50955.80
586.26	51058.79
586.42	51374.76
586.58	51089.21
586.74	51330.29
586.90	51302.20
587.06	51365.40
587.22	51770.31
587.38	51374.76
587.54	51475.40
587.70	51917.76
587.86	51426.25
588.02	51440.29
588.18	51772.65
588.34	51283.48
588.49	51503.49
588.65	51178.15
588.81	51700.09
588.97	51611.15
589.13	51903.72
589.29	52097.98
589.45	51681.37
589.61	51592.43
589.77	51728.18
589.93	51508.17
590.08	51571.36
590.24	51707.12
590.40	51903.72
590.56	51854.57
590.72	51510.51
590.88	52023.09
591.04	51941.17
591.20	51931.81
591.35	51704.77
591.51	51964.57
591.67	51812.44
591.83	51718.82
591.99	51592.43
592.15	51709.46
592.31	51945.85
592.46	52133.09
592.62	51796.06
592.78	52041.81
592.94	51772.65
593.10	51892.02
593.26	51936.49
593.41	51428.59
593.57	51784.35
593.73	51618.17
593.89	52062.88
594.05	51868.61
594.20	51782.01
594.36	52261.82
594.52	51812.44
594.68	52203.31
594.84	51903.72
594.99	52182.24
595.15	51821.80
595.31	52144.80
595.47	51812.44
595.62	51920.10
595.78	52140.11
595.94	52093.30
596.10	52126.07
596.25	52392.89
596.41	52114.37
596.57	52203.31
596.73	52009.04
596.88	52044.15
597.04	51948.19
597.20	52006.70
597.36	51868.61
597.51	52135.43
597.67	51625.20
597.83	51767.97
597.99	52280.55
598.14	52114.37
598.30	52196.29
598.46	52123.73
598.61	52315.65
598.77	51810.10
598.93	52128.41
599.09	51887.34
599.24	52233.74
599.40	52076.92
599.56	52179.90
599.71	52074.58
599.87	52502.90
600.03	52250.12
600.18	52322.68
600.34	52128.41
600.50	52065.22
600.65	51774.99
600.81	52292.25
600.97	52055.85
601.12	52105.01
601.28	51992.66
601.44	52175.22
601.59	51875.63
601.75	52303.95
601.91	52182.24
602.06	52060.54
602.22	52219.69
602.37	52282.89
602.53	52198.63
602.69	51840.53
602.84	51903.72
603.00	51910.74
603.16	51924.78
603.31	51828.82
603.47	51997.34
603.62	51866.27
603.78	52266.50
603.94	52320.34
604.09	52076.92
604.25	52390.55
604.40	52212.67
604.56	52292.25
604.71	52140.11
604.87	51927.13
605.03	51763.29
605.18	51571.36
605.34	51896.70
605.49	52025.43
605.65	52039.47
605.80	51849.89
605.96	51927.13
606.12	52245.44
606.27	52357.78
606.43	51803.08
606.58	52334.38
606.74	52154.16
606.89	51882.66
607.05	51903.72
607.20	51817.12
607.36	51599.45
607.51	51751.59
607.67	52151.82
607.82	51877.97
607.98	51997.34
608.13	51812.44
608.29	51903.72
608.44	51819.46
608.60	51835.84
608.75	51550.30
608.91	51159.43
609.06	51594.77
609.22	51728.18
609.37	51679.03
609.53	51353.69
609.68	51903.72
609.84	51957.55
609.99	52030.11
610.15	51723.50
610.30	51730.52
610.46	51714.14
610.61	51686.05
610.76	51370.08
610.92	51248.37
611.07	51360.72
611.23	51386.46
611.38	51695.41
611.54	51796.06
611.69	51800.74
611.84	51966.91
612.00	51793.71
612.15	51299.86
612.31	51430.93
612.46	51618.17
612.62	51529.23
612.77	51285.82
612.92	51473.06
613.08	51124.32
613.23	51442.63
613.39	51592.43
613.54	51316.25
613.69	51391.14
613.85	51587.75
614.00	51351.35
614.15	51657.96
614.31	51594.77
614.46	51468.38
614.62	51103.26
614.77	51538.60
614.92	51899.04
615.08	51143.05
615.23	51318.59
615.38	51332.63
615.54	51133.68
615.69	51356.03
615.84	51019.00
616.00	51189.86
616.15	51452.00
616.30	51367.74
616.46	50995.59
616.61	51082.19
616.76	51049.42
616.92	50745.15
617.07	51124.32
617.22	50843.46
617.37	50693.66
617.53	51456.68
617.68	51281.14
617.83	51264.75
617.99	51372.42
618.14	50962.82
618.29	51213.26
618.45	50728.77
618.60	51021.34
618.75	50738.13
618.90	50621.11
619.06	50904.31
619.21	50906.65
619.36	50913.67
619.51	50419.82
619.67	51150.07
619.82	50808.35
619.97	50834.10
620.12	50806.01
620.28	50260.66
620.43	50506.42
620.58	50363.65
620.73	50145.98
620.89	50571.96
621.04	50403.44
621.19	50780.26
621.34	51002.61
621.49	50473.65
621.65	50635.15
621.80	51084.53
621.95	50583.66
622.10	50457.27
622.25	50691.32
622.41	50717.07
622.56	50185.77
622.71	50763.88
622.86	50759.20
623.01	50480.67
623.16	50422.16
623.32	50408.12
623.47	50279.39
623.62	50284.07
623.77	50817.71
623.92	50824.73
624.07	50375.35
624.23	50096.83
624.38	50499.40
624.53	50300.45
624.68	50337.90
624.83	49972.78
624.98	49935.33
625.13	49818.30
625.29	49951.71
625.44	49916.61
625.59	49792.56
625.74	49689.57
625.89	49682.55
626.04	50101.51
626.19	50134.28
626.34	49893.20
626.49	49947.03
626.65	49607.65
626.80	49820.64
626.95	49663.83
627.10	49441.48
627.25	49661.49
627.40	49909.58
627.55	49780.85
627.70	49703.62
627.85	49820.64
628.00	49404.03
628.15	50234.92
628.30	49558.50
628.45	49474.24
628.60	49406.37
628.76	49633.40
628.91	49851.07
629.06	49631.06
629.21	49254.23
629.36	49205.08
629.51	49109.12
629.66	49565.52
629.81	49134.87
629.96	49509.35
630.11	49347.86
630.26	49549.14
630.41	49198.06
630.56	49230.83
630.71	49165.29
630.86	48982.73
631.01	49205.08
631.16	48800.17
631.31	48748.68
631.46	48849.32
631.61	49085.72
631.76	49008.48
631.91	48989.75
632.06	48875.07
632.21	49029.54
632.36	49181.68
632.51	48978.05
632.66	48921.88
632.81	48987.41
632.96	48765.06
633.10	48568.46
633.25	48610.59
633.40	48921.88
633.55	49102.10
633.70	49003.80
633.85	48559.09
634.00	48645.69
634.15	49045.93
634.30	48839.96
634.45	48837.62
634.60	48844.64
634.75	48624.63
634.90	48191.63
635.05	48381.21
635.19	48451.43
635.34	48900.81
635.49	48626.97
635.64	48371.85
635.79	48385.89
635.94	48521.65
636.09	48629.31
636.24	48416.32
636.39	48861.02
636.53	48566.12
636.68	48678.46
636.83	48086.31
636.98	48240.78
637.13	48090.99
637.28	48245.46
637.43	48540.37
637.57	48540.37
637.72	48058.22
637.87	48554.41
638.02	48250.14
638.17	48357.81
638.32	48278.23
638.46	48605.91
638.61	48098.01
638.76	47868.64
638.91	48032.47
639.06	48123.75
639.20	47796.08
639.35	47618.20
639.50	47669.69
639.65	47868.64
639.80	48018.43
639.94	47817.14
640.09	47784.38
640.24	48175.25
640.39	47693.10
640.54	47775.02
640.68	48114.39
640.83	48004.39
640.98	47646.29
641.13	47358.40
641.27	47889.70
641.42	47349.04
641.57	47573.73
641.72	47440.32
641.86	47122.01
642.01	46927.74
642.16	47449.68
642.31	46852.84
642.45	47746.93
642.60	47255.42
642.75	47295.21
642.90	47091.58
643.04	47428.62
643.19	47063.49
643.34	46817.74
643.48	47522.24
643.63	47023.70
643.78	47089.24
643.93	47400.53
644.07	46843.48
644.22	47049.45
644.37	46880.93
644.51	47161.79
644.66	47241.37
644.81	47508.19
644.95	47178.18
645.10	46995.62
645.25	47349.04
645.39	47159.45
645.54	47199.24
645.69	47552.66
645.83	47339.68
645.98	47075.19
646.13	47002.64
646.27	46934.76
646.42	46438.57
646.57	46782.63
646.71	46607.09
646.86	46616.45
647.00	47100.94
647.15	47044.77
647.30	46911.36
647.44	46726.46
647.59	46747.52
647.74	46876.25
647.88	46522.83
648.03	46337.93
648.17	46614.11
648.32	46515.81
648.47	46590.70
648.61	46366.01
648.76	47100.94
648.90	46567.30
649.05	46806.03
649.20	46560.28
649.34	46927.74
649.49	45823.01
649.63	46461.97
649.78	46263.03
649.92	46363.67
650.07	46539.21
650.21	45951.74
650.36	46007.91
650.51	45736.41
650.65	45846.41
650.80	46024.29
650.94	46052.38
651.09	45935.35
651.23	45982.16
651.38	46307.50
651.52	45961.10
651.67	46237.28
651.81	46199.83
651.96	46050.04
652.10	45984.51
652.25	45525.76
652.39	45710.66
652.54	45794.92
652.68	45942.38
652.83	46017.27
652.97	45612.36
653.12	45879.18
653.26	45722.37
653.41	45935.35
653.55	46169.41
653.70	45783.22
653.84	46143.66
653.99	45975.14
654.13	45827.69
654.27	45603.00
654.42	45790.24
654.56	45617.04
654.71	45289.37
654.85	45191.06
655.00	45284.68
655.14	44863.39
655.29	45045.95
655.43	45422.78
655.57	45184.04
655.72	44942.97
655.86	45670.87
656.01	45586.61
656.15	45221.49
656.30	45432.14
656.44	45144.25
656.58	44931.26
656.73	45048.29
656.87	45076.38
657.01	44854.03
657.16	45277.66
657.30	45230.85
657.45	44767.43
657.59	44774.45
657.73	44210.38
657.88	44638.70
658.02	44535.71
658.16	44877.43
658.31	44697.21
658.45	44587.21
658.60	44437.41
658.74	44465.50
658.88	44657.42
659.03	44507.63
659.17	44367.20
659.31	44655.08
659.46	43810.15
659.60	44205.70
659.74	44126.12
659.89	44053.56
660.03	44102.71
660.17	44460.82
660.32	43800.79
660.46	44313.36
660.60	44102.71
660.74	43969.30
660.89	44102.71
661.03	44034.84
661.17	44313.36
661.32	43798.44
661.46	43445.02
661.60	43440.34
661.74	43679.08
661.89	43903.77
662.03	42960.53
662.17	43248.42
662.31	43136.07
662.46	43597.16
662.60	43388.85
662.74	43398.21
662.88	43452.05
663.03	43978.67
663.17	43672.06
663.31	42895.00
663.45	43587.80
663.60	43391.19
663.74	42880.95
663.88	43019.05
664.02	42876.27
664.17	42794.36
664.31	42176.45
664.45	42541.58
664.59	43021.39
664.73	42726.48
664.88	42976.92
665.02	42337.95
665.16	42682.01
665.30	42344.97
665.44	42658.60
665.59	42059.43
665.73	42497.11
665.87	42017.30
666.01	42244.33
666.15	41860.48
666.29	41895.59
666.44	41921.34
666.58	41478.97
666.72	41504.72
666.86	41680.26
667.00	42174.11
667.14	41677.92
667.28	41603.02
667.43	41167.68
667.57	41778.56
667.71	41918.99
667.85	42136.66
667.99	41729.41
668.13	41390.03
668.27	41153.64
668.41	41303.43
668.56	40971.08
668.70	40985.12
668.84	40722.98
668.98	40715.96
669.12	40500.63
669.26	41083.42
669.40	41418.12
669.54	40987.46
669.68	40898.52
669.82	41017.89
669.96	40781.49
670.10	40790.86
670.25	40744.05
670.39	40301.68
670.53	40411.69
670.67	40364.88
670.81	40519.35
670.95	40409.35
671.09	39622.93
671.23	39428.66
671.37	39831.24
671.51	39639.31
671.65	39700.17
671.79	39220.36
671.93	39660.38
672.07	39922.52
672.21	39777.40
672.35	39358.45
672.49	39463.77
672.63	39917.84
672.77	39285.89
672.91	38890.34
673.05	39189.93
673.19	39665.06
673.33	38909.07
673.47	38852.89
673.61	39112.69
673.75	38813.10
673.89	38604.80
674.03	39070.56
674.17	38883.32
674.31	38948.85
674.45	38604.80
674.59	38349.68
674.73	38569.69
674.87	38087.54
675.01	37914.34
675.15	37933.06
675.29	38466.70
675.43	38054.77
675.56	37926.04
675.70	38050.09
675.84	37699.01
675.98	36671.51
676.12	37408.78
676.26	37174.73
676.40	37401.76
676.54	37198.13
676.68	37057.70
676.82	36577.89
676.96	36907.91
677.10	36781.52
677.23	37038.98
677.37	37223.88
677.51	36978.12
677.65	36959.40
677.79	36603.64
677.93	36311.07
678.07	36051.27
678.21	35772.75
678.34	35655.72
678.48	35526.99
678.62	35470.82
678.76	35386.56
678.90	35140.80
679.04	35424.01
679.18	35524.65
679.31	34918.45
679.45	35274.21
679.59	35372.52
679.73	35229.74
679.87	35402.94
680.00	35199.32
680.14	34555.67
680.28	34927.81
680.42	34932.50
680.56	34728.87
680.70	34085.22
680.83	33958.83
680.97	33834.78
681.11	33905.00
681.25	33811.38
681.39	34061.82
681.52	33797.34
681.66	33872.23
681.80	33647.54
681.94	33542.22
682.07	33441.57
682.21	33652.22
682.35	33139.65
682.49	32858.78
682.62	33020.28
682.76	32580.26
682.90	32723.03
683.04	32503.02
683.17	32393.01
683.31	32250.24
683.45	32804.95
683.59	31945.97
683.72	31784.48
683.86	31981.08
684.00	31512.97
684.13	31866.39
684.27	31960.02
684.41	32201.09
684.55	32091.09
684.68	31768.09
684.82	31833.63
684.96	31145.51
685.09	31246.15
685.23	30883.37
685.37	31082.31
685.50	31150.19
685.64	30408.24
685.78	30670.38
685.91	30583.78
686.05	30103.97
686.19	29869.92
686.32	30569.74
686.46	29963.54
686.60	29844.17
686.73	30281.85
686.87	30075.88
687.01	30190.57
687.14	29825.45
687.28	29788.00
687.42	30066.52
687.55	29825.45
687.69	29935.45
687.82	29507.13
687.96	29345.64
688.10	29200.52
688.23	28800.29
688.37	28994.56
688.50	28968.81
688.64	28439.85
688.78	28301.76
688.91	28517.09
689.05	28877.53
689.18	28481.98
689.32	28051.32
689.46	27901.53
689.59	27988.13
689.73	28107.49
689.86	28084.09
690.00	28311.12
690.13	28287.71
690.27	28020.89
690.41	27866.42
690.54	27562.15
690.68	27601.94
690.81	27197.02
690.95	27316.39
691.08	26838.92
691.22	26923.18
691.35	27105.74
691.49	26705.51
691.62	26937.23
691.76	26754.66
691.89	26497.20
692.03	26174.21
692.16	26075.91
692.30	26267.83
692.43	26529.97
692.57	26455.08
692.70	26316.98
692.84	25755.26
692.97	25565.67
693.11	25591.42
693.24	25301.19
693.38	25591.42
693.51	25144.38
693.65	25296.51
693.78	25055.43
693.92	25156.08
694.05	25001.60
694.19	24893.94
694.32	24467.96
694.45	24372.00
694.59	24711.38
694.72	24430.51
694.86	24776.91
694.99	24444.56
695.13	24514.77
695.26	24236.25
695.39	23903.89
695.53	24009.22
695.66	23953.04
695.80	23379.61
695.93	23367.91
696.07	23314.08
696.20	23536.43
696.33	23339.82
696.47	23452.17
696.60	23342.16
696.73	23264.92
696.87	23187.69
697.00	23084.70
697.14	22974.70
697.27	22539.36
697.40	22946.61
697.54	22939.59
697.67	22478.50
697.80	22740.64
697.94	22494.89
698.07	22043.17
698.21	21673.36
698.34	21994.01
698.47	21834.86
698.61	21427.60
698.74	21544.63
698.87	21469.73
699.01	21481.44
699.14	21425.26
699.27	21308.24
699.40	21209.93
699.54	20908.01
699.67	20936.09
699.80	21027.37
699.94	20908.01
700.07	20964.18
700.20	20978.22
700.34	20699.70
700.47	20589.69
700.60	20760.55
700.73	20503.09
700.87	20346.28
701.00	20201.16
701.13	20346.28
701.26	19763.48
701.40	19754.12
701.53	19693.27
701.66	19662.84
701.79	19480.28
701.93	19824.34
702.06	19782.21
702.19	19140.90
702.32	19690.93
702.46	19658.16
702.59	19248.57
702.72	19367.93
702.85	18948.98
702.99	19164.31
703.12	18977.06
703.25	18555.77
703.38	18714.92
703.51	18696.20
703.65	18455.12
703.78	18539.38
703.91	18080.64
704.04	18146.17
704.17	18066.60
704.31	17811.48
704.44	18223.41
704.57	17998.72
704.70	17998.72
704.83	17923.82
704.96	17900.42
705.10	17898.08
705.23	17776.37
>>>>>End Processed Spectral Data<<<<<
