SpectraSuite Data File
++++++++++++++++++++++++++++++++++++
Date: Fri Oct 04 11:39:50 GMT-05:00 2013
User: price-jones
Dark Spectrum Present: No
Reference Spectrum Present: No
Number of Sampled Component Spectra: 1
Spectrometers: USB2+H05261
Integration Time (usec): 100000 (USB2+H05261)
Spectra Averaged: 1 (USB2+H05261)
Boxcar Smoothing: 0 (USB2+H05261)
Correct for Electrical Dark: No (USB2+H05261)
Strobe/Lamp Enabled: No (USB2+H05261)
Correct for Detector Non-linearity: No (USB2+H05261)
Correct for Stray Light: No (USB2+H05261)
Number of Pixels in Processed Spectrum: 2048
>>>>>Begin Processed Spectral Data<<<<<
365.73	46.81
365.92	46.81
366.12	46.81
366.32	0.00
366.52	0.00
366.72	0.00
366.91	0.00
367.11	0.00
367.31	0.00
367.51	2.34
367.70	0.00
367.90	0.00
368.10	0.00
368.30	0.00
368.49	0.00
368.69	0.00
368.89	0.00
369.09	0.00
369.28	0.00
369.48	0.00
369.68	0.00
369.87	0.00
370.07	23.41
370.27	0.00
370.47	21.06
370.66	7.02
370.86	63.19
371.06	119.37
371.25	107.66
371.45	42.13
371.65	70.22
371.84	65.54
372.04	42.13
372.24	128.73
372.44	65.54
372.63	30.43
372.83	159.16
373.03	23.41
373.22	126.39
373.42	100.64
373.62	95.96
373.81	105.32
374.01	184.90
374.21	175.54
374.40	58.51
374.60	173.20
374.79	121.71
374.99	100.64
375.19	168.52
375.38	173.20
375.58	60.85
375.78	114.69
375.97	149.79
376.17	208.31
376.37	138.09
376.56	107.66
376.76	147.45
376.95	100.64
377.15	84.26
377.35	74.90
377.54	9.36
377.74	81.92
377.93	100.64
378.13	156.82
378.33	152.13
378.52	100.64
378.72	88.94
378.91	81.92
379.11	98.30
379.31	131.07
379.50	86.60
379.70	63.19
379.89	168.52
380.09	105.32
380.28	124.05
380.48	102.98
380.68	51.49
380.87	147.45
381.07	107.66
381.26	173.20
381.46	184.90
381.65	98.30
381.85	81.92
382.04	100.64
382.24	184.90
382.43	72.56
382.63	114.69
382.83	70.22
383.02	145.11
383.22	142.77
383.41	23.41
383.61	81.92
383.80	93.62
384.00	79.58
384.19	121.71
384.39	98.30
384.58	53.83
384.78	81.92
384.97	170.86
385.17	140.43
385.36	107.66
385.56	170.86
385.75	117.03
385.95	119.37
386.14	145.11
386.34	77.24
386.53	175.54
386.72	51.49
386.92	105.32
387.11	145.11
387.31	170.86
387.50	124.05
387.70	60.85
387.89	142.77
388.09	72.56
388.28	77.24
388.48	128.73
388.67	182.56
388.86	149.79
389.06	126.39
389.25	98.30
389.45	114.69
389.64	133.41
389.84	217.67
390.03	117.03
390.22	93.62
390.42	105.32
390.61	100.64
390.81	88.94
391.00	117.03
391.19	149.79
391.39	198.95
391.58	208.31
391.78	145.11
391.97	161.50
392.16	215.33
392.36	107.66
392.55	98.30
392.75	121.71
392.94	145.11
393.13	124.05
393.33	128.73
393.52	152.13
393.71	133.41
393.91	117.03
394.10	152.13
394.29	154.48
394.49	133.41
394.68	117.03
394.88	152.13
395.07	79.58
395.26	133.41
395.46	124.05
395.65	124.05
395.84	128.73
396.04	238.73
396.23	131.07
396.42	77.24
396.62	110.01
396.81	88.94
397.00	70.22
397.19	77.24
397.39	145.11
397.58	114.69
397.77	135.75
397.97	98.30
398.16	196.60
398.35	91.28
398.55	112.35
398.74	100.64
398.93	177.88
399.12	117.03
399.32	100.64
399.51	124.05
399.70	140.43
399.90	131.07
400.09	121.71
400.28	217.67
400.47	117.03
400.67	182.56
400.86	133.41
401.05	147.45
401.24	142.77
401.44	133.41
401.63	138.09
401.82	166.18
402.01	105.32
402.21	112.35
402.40	196.60
402.59	124.05
402.78	161.50
402.97	98.30
403.17	149.79
403.36	145.11
403.55	131.07
403.74	100.64
403.93	133.41
404.13	231.71
404.32	311.29
404.51	245.76
404.70	203.63
404.89	124.05
405.09	145.11
405.28	170.86
405.47	133.41
405.66	177.88
405.85	168.52
406.05	56.17
406.24	100.64
406.43	161.50
406.62	212.99
406.81	234.05
407.00	142.77
407.20	138.09
407.39	154.48
407.58	93.62
407.77	166.18
407.96	152.13
408.15	180.22
408.34	159.16
408.54	124.05
408.73	121.71
408.92	161.50
409.11	124.05
409.30	194.26
409.49	133.41
409.68	133.41
409.87	154.48
410.07	107.66
410.26	121.71
410.45	159.16
410.64	95.96
410.83	140.43
411.02	114.69
411.21	149.79
411.40	102.98
411.59	166.18
411.78	114.69
411.98	138.09
412.17	126.39
412.36	100.64
412.55	93.62
412.74	166.18
412.93	203.63
413.12	163.84
413.31	238.73
413.50	173.20
413.69	173.20
413.88	173.20
414.07	170.86
414.26	182.56
414.45	138.09
414.64	166.18
414.83	234.05
415.02	170.86
415.22	173.20
415.41	168.52
415.60	156.82
415.79	208.31
415.98	203.63
416.17	198.95
416.36	173.20
416.55	180.22
416.74	154.48
416.93	173.20
417.12	67.88
417.31	100.64
417.50	184.90
417.69	121.71
417.88	154.48
418.07	210.65
418.26	168.52
418.45	142.77
418.64	196.60
418.83	140.43
419.02	74.90
419.21	170.86
419.39	166.18
419.58	138.09
419.77	142.77
419.96	205.97
420.15	227.03
420.34	156.82
420.53	187.24
420.72	215.33
420.91	145.11
421.10	138.09
421.29	93.62
421.48	180.22
421.67	173.20
421.86	145.11
422.05	220.01
422.24	81.92
422.43	208.31
422.61	131.07
422.80	191.92
422.99	128.73
423.18	131.07
423.37	196.60
423.56	110.01
423.75	121.71
423.94	166.18
424.13	177.88
424.32	159.16
424.50	215.33
424.69	191.92
424.88	287.89
425.07	168.52
425.26	149.79
425.45	86.60
425.64	212.99
425.83	175.54
426.01	168.52
426.20	175.54
426.39	128.73
426.58	205.97
426.77	166.18
426.96	208.31
427.15	161.50
427.33	177.88
427.52	182.56
427.71	133.41
427.90	131.07
428.09	121.71
428.28	133.41
428.46	163.84
428.65	149.79
428.84	145.11
429.03	140.43
429.22	110.01
429.40	145.11
429.59	177.88
429.78	175.54
429.97	156.82
430.16	173.20
430.34	147.45
430.53	145.11
430.72	102.98
430.91	227.03
431.10	105.32
431.28	154.48
431.47	161.50
431.66	175.54
431.85	180.22
432.03	95.96
432.22	238.73
432.41	177.88
432.60	194.26
432.79	182.56
432.97	222.35
433.16	168.52
433.35	180.22
433.54	191.92
433.72	227.03
433.91	198.95
434.10	182.56
434.28	175.54
434.47	175.54
434.66	140.43
434.85	231.71
435.03	339.38
435.22	702.16
435.41	999.41
435.59	1196.01
435.78	774.72
435.97	425.98
436.16	332.36
436.34	203.63
436.53	194.26
436.72	175.54
436.90	236.39
437.09	194.26
437.28	194.26
437.46	191.92
437.65	182.56
437.84	184.90
438.02	187.24
438.21	166.18
438.40	198.95
438.58	196.60
438.77	187.24
438.96	133.41
439.14	112.35
439.33	217.67
439.52	189.58
439.70	182.56
439.89	175.54
440.08	203.63
440.26	175.54
440.45	217.67
440.63	215.33
440.82	194.26
441.01	203.63
441.19	173.20
441.38	110.01
441.57	175.54
441.75	191.92
441.94	285.55
442.12	166.18
442.31	119.37
442.50	198.95
442.68	215.33
442.87	140.43
443.05	168.52
443.24	163.84
443.43	198.95
443.61	145.11
443.80	189.58
443.98	194.26
444.17	189.58
444.35	229.37
444.54	212.99
444.73	168.52
444.91	163.84
445.10	147.45
445.28	147.45
445.47	203.63
445.65	187.24
445.84	170.86
446.02	203.63
446.21	198.95
446.39	212.99
446.58	191.92
446.77	184.90
446.95	222.35
447.14	152.13
447.32	257.46
447.51	168.52
447.69	154.48
447.88	194.26
448.06	236.39
448.25	175.54
448.43	217.67
448.62	191.92
448.80	236.39
448.99	227.03
449.17	231.71
449.36	156.82
449.54	173.20
449.73	100.64
449.91	241.08
450.10	168.52
450.28	236.39
450.46	245.76
450.65	154.48
450.83	194.26
451.02	119.37
451.20	145.11
451.39	201.29
451.57	156.82
451.76	189.58
451.94	168.52
452.13	238.73
452.31	145.11
452.49	238.73
452.68	128.73
452.86	119.37
453.05	276.18
453.23	198.95
453.42	208.31
453.60	177.88
453.78	205.97
453.97	159.16
454.15	180.22
454.34	166.18
454.52	203.63
454.70	159.16
454.89	184.90
455.07	208.31
455.26	119.37
455.44	220.01
455.62	152.13
455.81	212.99
455.99	133.41
456.17	250.44
456.36	191.92
456.54	149.79
456.73	159.16
456.91	159.16
457.09	205.97
457.28	170.86
457.46	180.22
457.64	210.65
457.83	234.05
458.01	210.65
458.19	180.22
458.38	220.01
458.56	208.31
458.74	145.11
458.93	224.69
459.11	119.37
459.29	163.84
459.48	163.84
459.66	266.82
459.84	257.46
460.03	229.37
460.21	152.13
460.39	196.60
460.57	175.54
460.76	196.60
460.94	156.82
461.12	238.73
461.31	189.58
461.49	133.41
461.67	154.48
461.85	248.10
462.04	227.03
462.22	638.97
462.40	222.35
462.59	210.65
462.77	222.35
462.95	182.56
463.13	187.24
463.32	191.92
463.50	191.92
463.68	182.56
463.86	210.65
464.05	189.58
464.23	234.05
464.41	212.99
464.59	191.92
464.78	320.65
464.96	180.22
465.14	201.29
465.32	166.18
465.50	250.44
465.69	220.01
465.87	236.39
466.05	205.97
466.23	205.97
466.41	191.92
466.60	255.12
466.78	259.80
466.96	173.20
467.14	229.37
467.32	182.56
467.51	184.90
467.69	217.67
467.87	259.80
468.05	161.50
468.23	212.99
468.41	264.48
468.60	187.24
468.78	133.41
468.96	224.69
469.14	205.97
469.32	149.79
469.50	227.03
469.69	184.90
469.87	196.60
470.05	175.54
470.23	234.05
470.41	154.48
470.59	210.65
470.77	243.42
470.95	175.54
471.14	252.78
471.32	248.10
471.50	217.67
471.68	234.05
471.86	236.39
472.04	112.35
472.22	191.92
472.40	257.46
472.58	173.20
472.77	182.56
472.95	142.77
473.13	241.08
473.31	205.97
473.49	182.56
473.67	241.08
473.85	215.33
474.03	257.46
474.21	222.35
474.39	191.92
474.57	245.76
474.75	250.44
474.93	159.16
475.12	243.42
475.30	229.37
475.48	205.97
475.66	168.52
475.84	117.03
476.02	156.82
476.20	241.08
476.38	170.86
476.56	273.84
476.74	236.39
476.92	114.69
477.10	238.73
477.28	203.63
477.46	236.39
477.64	231.71
477.82	238.73
478.00	255.12
478.18	220.01
478.36	290.23
478.54	53.83
478.72	180.22
478.90	236.39
479.08	205.97
479.26	248.10
479.44	264.48
479.62	175.54
479.80	208.31
479.98	152.13
480.16	182.56
480.34	182.56
480.52	168.52
480.70	212.99
480.88	194.26
481.06	201.29
481.24	196.60
481.41	173.20
481.59	250.44
481.77	262.14
481.95	283.20
482.13	224.69
482.31	264.48
482.49	278.52
482.67	259.80
482.85	273.84
483.03	276.18
483.21	297.25
483.39	271.50
483.57	248.10
483.74	334.70
483.92	266.82
484.10	299.59
484.28	292.57
484.46	362.78
484.64	257.46
484.82	297.25
485.00	337.04
485.18	346.40
485.35	322.99
485.53	297.25
485.71	346.40
485.89	351.08
486.07	339.38
486.25	278.52
486.43	339.38
486.61	315.97
486.78	379.17
486.96	285.55
487.14	353.42
487.32	315.97
487.50	390.87
487.68	430.66
487.85	334.70
488.03	344.06
488.21	362.78
488.39	337.04
488.57	346.40
488.75	318.31
488.92	610.88
489.10	409.59
489.28	423.64
489.46	330.02
489.64	351.08
489.81	365.12
489.99	395.55
490.17	351.08
490.35	376.83
490.53	334.70
490.70	313.63
490.88	252.78
491.06	322.99
491.24	351.08
491.41	388.53
491.59	337.04
491.77	334.70
491.95	337.04
492.13	294.91
492.30	322.99
492.48	362.78
492.66	381.51
492.84	341.72
493.01	390.87
493.19	318.31
493.37	390.87
493.54	280.86
493.72	327.68
493.90	262.14
494.08	339.38
494.25	397.89
494.43	311.29
494.61	315.97
494.79	348.74
494.96	304.27
495.14	351.08
495.32	297.25
495.49	304.27
495.67	320.65
495.85	320.65
496.02	299.59
496.20	283.20
496.38	332.36
496.55	320.65
496.73	325.33
496.91	330.02
497.09	315.97
497.26	306.61
497.44	369.80
497.62	301.93
497.79	327.68
497.97	360.44
498.14	351.08
498.32	332.36
498.50	283.20
498.67	278.52
498.85	273.84
499.03	255.12
499.20	280.86
499.38	339.38
499.56	318.31
499.73	287.89
499.91	325.33
500.08	315.97
500.26	266.82
500.44	287.89
500.61	283.20
500.79	264.48
500.97	266.82
501.14	390.87
501.32	322.99
501.49	318.31
501.67	198.95
501.84	271.50
502.02	245.76
502.20	339.38
502.37	332.36
502.55	231.71
502.72	212.99
502.90	285.55
503.07	276.18
503.25	271.50
503.43	231.71
503.60	283.20
503.78	287.89
503.95	266.82
504.13	252.78
504.30	327.68
504.48	194.26
504.65	259.80
504.83	334.70
505.01	283.20
505.18	234.05
505.36	203.63
505.53	278.52
505.71	215.33
505.88	374.49
506.06	304.27
506.23	341.72
506.41	311.29
506.58	308.95
506.76	358.10
506.93	294.91
507.11	325.33
507.28	280.86
507.46	229.37
507.63	259.80
507.81	278.52
507.98	374.49
508.16	252.78
508.33	257.46
508.50	311.29
508.68	238.73
508.85	285.55
509.03	330.02
509.20	191.92
509.38	273.84
509.55	285.55
509.73	234.05
509.90	339.38
510.08	327.68
510.25	374.49
510.42	292.57
510.60	322.99
510.77	306.61
510.95	327.68
511.12	313.63
511.30	269.16
511.47	276.18
511.64	358.10
511.82	311.29
511.99	330.02
512.17	313.63
512.34	224.69
512.51	290.23
512.69	278.52
512.86	337.04
513.04	332.36
513.21	290.23
513.38	297.25
513.56	266.82
513.73	311.29
513.90	308.95
514.08	238.73
514.25	278.52
514.43	315.97
514.60	287.89
514.77	308.95
514.95	248.10
515.12	313.63
515.29	365.12
515.47	290.23
515.64	299.59
515.81	280.86
515.99	351.08
516.16	262.14
516.33	311.29
516.51	292.57
516.68	299.59
516.85	257.46
517.03	360.44
517.20	308.95
517.37	304.27
517.54	330.02
517.72	280.86
517.89	278.52
518.06	344.06
518.24	341.72
518.41	318.31
518.58	311.29
518.75	273.84
518.93	273.84
519.10	278.52
519.27	257.46
519.45	234.05
519.62	360.44
519.79	252.78
519.96	360.44
520.14	243.42
520.31	280.86
520.48	339.38
520.65	322.99
520.83	318.31
521.00	348.74
521.17	308.95
521.34	346.40
521.52	325.33
521.69	283.20
521.86	278.52
522.03	322.99
522.20	393.21
522.38	276.18
522.55	308.95
522.72	276.18
522.89	278.52
523.07	409.59
523.24	308.95
523.41	334.70
523.58	299.59
523.75	327.68
523.92	393.21
524.10	311.29
524.27	322.99
524.44	346.40
524.61	400.23
524.78	315.97
524.96	287.89
525.13	369.80
525.30	318.31
525.47	337.04
525.64	304.27
525.81	374.49
525.98	332.36
526.16	257.46
526.33	205.97
526.50	327.68
526.67	283.20
526.84	299.59
527.01	248.10
527.18	348.74
527.36	404.91
527.53	369.80
527.70	344.06
527.87	388.53
528.04	320.65
528.21	285.55
528.38	348.74
528.55	355.76
528.72	369.80
528.89	374.49
529.07	306.61
529.24	315.97
529.41	355.76
529.58	334.70
529.75	365.12
529.92	313.63
530.09	301.93
530.26	278.52
530.43	351.08
530.60	374.49
530.77	337.04
530.94	341.72
531.11	334.70
531.28	379.17
531.46	294.91
531.63	313.63
531.80	330.02
531.97	325.33
532.14	372.15
532.31	367.46
532.48	325.33
532.65	318.31
532.82	334.70
532.99	351.08
533.16	369.80
533.33	435.34
533.50	325.33
533.67	376.83
533.84	346.40
534.01	332.36
534.18	416.62
534.35	376.83
534.52	365.12
534.69	423.64
534.86	311.29
535.03	351.08
535.20	320.65
535.37	383.85
535.54	421.30
535.71	407.25
535.88	458.74
536.05	395.55
536.22	440.02
536.38	358.10
536.55	411.93
536.72	414.27
536.89	423.64
537.06	517.26
537.23	451.72
537.40	409.59
537.57	421.30
537.74	470.45
537.91	472.79
538.08	489.17
538.25	510.24
538.42	500.87
538.59	526.62
538.75	564.07
538.92	528.96
539.09	634.29
539.26	547.69
539.43	582.79
539.60	681.10
539.77	627.26
539.94	655.35
540.11	674.07
540.28	709.18
540.44	851.96
540.61	840.25
540.78	940.90
540.95	1008.77
541.12	1188.99
541.29	1308.36
541.46	1432.41
541.62	1397.30
541.79	1291.98
541.96	1345.81
542.13	1306.02
542.30	1324.74
542.47	1296.66
542.63	1160.91
542.80	1291.98
542.97	1160.91
543.14	1196.01
543.31	1184.31
543.48	1149.20
543.64	1310.70
543.81	1212.40
543.98	1200.69
544.15	1242.82
544.32	1231.12
544.48	1151.54
544.65	1078.99
544.82	1067.28
544.99	1191.33
545.16	1203.04
545.32	1146.86
545.49	1689.87
545.66	2658.85
545.83	3145.68
546.00	2768.85
546.16	1912.22
546.33	1432.41
546.50	1252.19
546.67	1039.20
546.83	926.85
547.00	816.85
547.17	861.32
547.34	884.72
547.50	816.85
547.67	866.00
547.84	727.91
548.00	763.01
548.17	699.82
548.34	706.84
548.51	753.65
548.67	784.08
548.84	702.16
549.01	702.16
549.18	650.67
549.34	786.42
549.51	599.18
549.68	627.26
549.84	669.39
550.01	617.90
550.18	718.54
550.34	587.47
550.51	543.00
550.68	638.97
550.84	538.32
551.01	554.71
551.18	573.43
551.34	599.18
551.51	566.41
551.68	540.66
551.84	465.77
552.01	510.24
552.18	475.13
552.34	498.53
552.51	484.49
552.68	543.00
552.84	500.87
553.01	442.36
553.18	475.13
553.34	430.66
553.51	449.38
553.67	526.62
553.84	521.94
554.01	463.43
554.17	339.38
554.34	435.34
554.51	402.57
554.67	449.38
554.84	386.19
555.00	339.38
555.17	510.24
555.33	376.83
555.50	435.34
555.67	372.15
555.83	334.70
556.00	351.08
556.16	550.03
556.33	416.62
556.50	393.21
556.66	318.31
556.83	383.85
556.99	381.51
557.16	257.46
557.32	332.36
557.49	416.62
557.65	393.21
557.82	402.57
557.98	374.49
558.15	360.44
558.32	362.78
558.48	351.08
558.65	360.44
558.81	330.02
558.98	437.68
559.14	374.49
559.31	418.96
559.47	355.76
559.64	388.53
559.80	365.12
559.97	308.95
560.13	304.27
560.30	348.74
560.46	322.99
560.63	220.01
560.79	430.66
560.96	278.52
561.12	360.44
561.29	344.06
561.45	365.12
561.61	381.51
561.78	418.96
561.94	351.08
562.11	341.72
562.27	355.76
562.44	397.89
562.60	292.57
562.77	311.29
562.93	435.34
563.10	374.49
563.26	292.57
563.42	367.46
563.59	376.83
563.75	334.70
563.92	416.62
564.08	369.80
564.24	330.02
564.41	393.21
564.57	292.57
564.74	355.76
564.90	351.08
565.07	362.78
565.23	341.72
565.39	404.91
565.56	381.51
565.72	337.04
565.88	301.93
566.05	304.27
566.21	271.50
566.38	411.93
566.54	362.78
566.70	287.89
566.87	339.38
567.03	299.59
567.19	327.68
567.36	337.04
567.52	358.10
567.68	346.40
567.85	344.06
568.01	390.87
568.17	353.42
568.34	294.91
568.50	360.44
568.66	318.31
568.83	379.17
568.99	322.99
569.15	362.78
569.32	327.68
569.48	308.95
569.64	365.12
569.81	290.23
569.97	337.04
570.13	362.78
570.30	383.85
570.46	376.83
570.62	402.57
570.78	344.06
570.95	283.20
571.11	334.70
571.27	337.04
571.43	313.63
571.60	376.83
571.76	325.33
571.92	280.86
572.09	348.74
572.25	332.36
572.41	404.91
572.57	243.42
572.74	395.55
572.90	325.33
573.06	393.21
573.22	318.31
573.38	433.00
573.55	332.36
573.71	395.55
573.87	411.93
574.03	266.82
574.20	322.99
574.36	397.89
574.52	346.40
574.68	397.89
574.84	393.21
575.01	353.42
575.17	400.23
575.33	311.29
575.49	404.91
575.65	355.76
575.82	386.19
575.98	393.21
576.14	259.80
576.30	416.62
576.46	554.71
576.62	737.27
576.79	896.43
576.95	751.31
577.11	585.13
577.27	444.70
577.43	440.02
577.59	339.38
577.75	416.62
577.92	320.65
578.08	348.74
578.24	332.36
578.40	395.55
578.56	580.45
578.72	793.44
578.88	819.19
579.04	690.46
579.21	601.52
579.37	535.98
579.53	507.90
579.69	512.58
579.85	510.24
580.01	465.77
580.17	472.79
580.33	496.19
580.49	524.28
580.65	430.66
580.82	425.98
580.98	421.30
581.14	442.36
581.30	498.53
581.46	507.90
581.62	496.19
581.78	463.43
581.94	472.79
582.10	430.66
582.26	514.92
582.42	517.26
582.58	512.58
582.74	552.37
582.90	575.77
583.06	498.53
583.22	514.92
583.38	482.15
583.54	561.73
583.70	608.54
583.86	603.86
584.02	477.47
584.18	535.98
584.34	547.69
584.50	470.45
584.66	507.90
584.82	454.06
584.98	531.30
585.14	533.64
585.30	535.98
585.46	526.62
585.62	482.15
585.78	500.87
585.94	526.62
586.10	505.56
586.26	486.83
586.42	585.13
586.58	573.43
586.74	582.79
586.90	727.91
587.06	678.76
587.22	669.39
587.38	587.47
587.54	627.26
587.70	589.82
587.86	599.18
588.02	479.81
588.18	493.85
588.34	566.41
588.49	444.70
588.65	482.15
588.81	435.34
588.97	444.70
589.13	362.78
589.29	360.44
589.45	400.23
589.61	435.34
589.77	498.53
589.93	379.17
590.08	386.19
590.24	402.57
590.40	437.68
590.56	414.27
590.72	550.03
590.88	463.43
591.04	437.68
591.20	454.06
591.35	505.56
591.51	486.83
591.67	423.64
591.83	425.98
591.99	493.85
592.15	404.91
592.31	463.43
592.46	500.87
592.62	540.66
592.78	585.13
592.94	613.22
593.10	498.53
593.26	526.62
593.41	585.13
593.57	564.07
593.73	514.92
593.89	482.15
594.05	500.87
594.20	423.64
594.36	461.09
594.52	351.08
594.68	388.53
594.84	402.57
594.99	435.34
595.15	418.96
595.31	449.38
595.47	510.24
595.62	367.46
595.78	332.36
595.94	386.19
596.10	437.68
596.25	374.49
596.41	374.49
596.57	414.27
596.73	414.27
596.88	339.38
597.04	355.76
597.20	334.70
597.36	414.27
597.51	414.27
597.67	411.93
597.83	470.45
597.99	482.15
598.14	433.00
598.30	425.98
598.46	381.51
598.61	470.45
598.77	416.62
598.93	472.79
599.09	491.51
599.24	524.28
599.40	468.11
599.56	545.34
599.71	451.72
599.87	451.72
600.03	440.02
600.18	430.66
600.34	535.98
600.50	411.93
600.65	491.51
600.81	484.49
600.97	360.44
601.12	346.40
601.28	404.91
601.44	388.53
601.59	360.44
601.75	407.25
601.91	386.19
602.06	369.80
602.22	414.27
602.37	297.25
602.53	383.85
602.69	339.38
602.84	308.95
603.00	430.66
603.16	339.38
603.31	367.46
603.47	393.21
603.62	369.80
603.78	416.62
603.94	369.80
604.09	437.68
604.25	369.80
604.40	421.30
604.56	404.91
604.71	358.10
604.87	308.95
605.03	425.98
605.18	402.57
605.34	362.78
605.49	374.49
605.65	416.62
605.80	414.27
605.96	346.40
606.12	414.27
606.27	362.78
606.43	404.91
606.58	425.98
606.74	358.10
606.89	503.22
607.05	440.02
607.20	332.36
607.36	465.77
607.51	482.15
607.67	430.66
607.82	521.94
607.98	557.05
608.13	444.70
608.29	507.90
608.44	526.62
608.60	468.11
608.75	587.47
608.91	552.37
609.06	641.31
609.22	526.62
609.37	664.71
609.53	716.20
609.68	805.14
609.84	889.40
609.99	833.23
610.15	1039.20
610.30	1226.44
610.46	1420.71
610.61	1748.38
610.76	2157.97
610.92	2588.63
611.07	2832.05
611.23	2911.63
611.38	2876.52
611.54	2445.86
611.69	2174.36
611.84	1764.76
612.00	1668.80
612.15	1338.79
612.31	1336.45
612.46	1165.59
612.62	1118.78
612.77	1083.67
612.92	973.66
613.08	985.37
613.23	957.28
613.39	973.66
613.54	887.06
613.69	901.11
613.85	856.64
614.00	901.11
614.15	868.34
614.31	830.89
614.46	854.30
614.62	842.59
614.77	840.25
614.92	784.08
615.08	739.61
615.23	779.40
615.38	650.67
615.54	613.22
615.69	582.79
615.84	500.87
616.00	606.20
616.15	517.26
616.30	564.07
616.46	486.83
616.61	475.13
616.76	489.17
616.92	463.43
617.07	456.40
617.22	482.15
617.37	535.98
617.53	468.11
617.68	388.53
617.83	463.43
617.99	475.13
618.14	383.85
618.29	428.32
618.45	461.09
618.60	428.32
618.75	404.91
618.90	418.96
619.06	355.76
619.21	444.70
619.36	451.72
619.51	404.91
619.67	491.51
619.82	447.04
619.97	526.62
620.12	479.81
620.28	531.30
620.43	482.15
620.58	404.91
620.73	470.45
620.89	500.87
621.04	407.25
621.19	449.38
621.34	374.49
621.49	416.62
621.65	458.74
621.80	470.45
621.95	404.91
622.10	423.64
622.25	402.57
622.41	411.93
622.56	416.62
622.71	456.40
622.86	416.62
623.01	414.27
623.16	482.15
623.32	353.42
623.47	458.74
623.62	404.91
623.77	449.38
623.92	433.00
624.07	442.36
624.23	444.70
624.38	482.15
624.53	470.45
624.68	458.74
624.83	433.00
624.98	339.38
625.13	486.83
625.29	414.27
625.44	447.04
625.59	318.31
625.74	372.15
625.89	435.34
626.04	386.19
626.19	362.78
626.34	409.59
626.49	421.30
626.65	414.27
626.80	428.32
626.95	383.85
627.10	414.27
627.25	479.81
627.40	425.98
627.55	395.55
627.70	390.87
627.85	463.43
628.00	362.78
628.15	372.15
628.30	451.72
628.45	395.55
628.60	402.57
628.76	407.25
628.91	369.80
629.06	425.98
629.21	374.49
629.36	414.27
629.51	414.27
629.66	414.27
629.81	442.36
629.96	416.62
630.11	425.98
630.26	496.19
630.41	500.87
630.56	585.13
630.71	550.03
630.86	566.41
631.01	540.66
631.16	540.66
631.31	617.90
631.46	533.64
631.61	400.23
631.76	458.74
631.91	362.78
632.06	411.93
632.21	330.02
632.36	367.46
632.51	299.59
632.66	381.51
632.81	339.38
632.96	262.14
633.10	262.14
633.25	292.57
633.40	339.38
633.55	283.20
633.70	182.56
633.85	369.80
634.00	294.91
634.15	304.27
634.30	283.20
634.45	276.18
634.60	271.50
634.75	252.78
634.90	304.27
635.05	334.70
635.19	294.91
635.34	315.97
635.49	264.48
635.64	276.18
635.79	337.04
635.94	327.68
636.09	236.39
636.24	322.99
636.39	269.16
636.53	290.23
636.68	245.76
636.83	269.16
636.98	285.55
637.13	255.12
637.28	273.84
637.43	379.17
637.57	250.44
637.72	276.18
637.87	322.99
638.02	234.05
638.17	381.51
638.32	369.80
638.46	320.65
638.61	287.89
638.76	322.99
638.91	334.70
639.06	262.14
639.20	283.20
639.35	327.68
639.50	252.78
639.65	304.27
639.80	243.42
639.94	287.89
640.09	264.48
640.24	297.25
640.39	292.57
640.54	257.46
640.68	250.44
640.83	337.04
640.98	362.78
641.13	315.97
641.27	269.16
641.42	308.95
641.57	339.38
641.72	262.14
641.86	290.23
642.01	278.52
642.16	297.25
642.31	322.99
642.45	355.76
642.60	344.06
642.75	304.27
642.90	290.23
643.04	257.46
643.19	234.05
643.34	248.10
643.48	362.78
643.63	346.40
643.78	292.57
643.93	290.23
644.07	278.52
644.22	248.10
644.37	287.89
644.51	294.91
644.66	269.16
644.81	285.55
644.95	355.76
645.10	294.91
645.25	191.92
645.39	390.87
645.54	273.84
645.69	308.95
645.83	271.50
645.98	344.06
646.13	266.82
646.27	290.23
646.42	313.63
646.57	285.55
646.71	269.16
646.86	278.52
647.00	212.99
647.15	224.69
647.30	299.59
647.44	264.48
647.59	231.71
647.74	327.68
647.88	299.59
648.03	325.33
648.17	299.59
648.32	280.86
648.47	287.89
648.61	234.05
648.76	292.57
648.90	313.63
649.05	227.03
649.20	252.78
649.34	292.57
649.49	187.24
649.63	266.82
649.78	283.20
649.92	306.61
650.07	280.86
650.21	304.27
650.36	346.40
650.51	358.10
650.65	383.85
650.80	341.72
650.94	299.59
651.09	294.91
651.23	334.70
651.38	294.91
651.52	245.76
651.67	236.39
651.81	257.46
651.96	353.42
652.10	278.52
652.25	330.02
652.39	283.20
652.54	208.31
652.68	269.16
652.83	262.14
652.97	318.31
653.12	374.49
653.26	313.63
653.41	322.99
653.55	299.59
653.70	337.04
653.84	280.86
653.99	271.50
654.13	269.16
654.27	215.33
654.42	264.48
654.56	210.65
654.71	318.31
654.85	313.63
655.00	304.27
655.14	184.90
655.29	203.63
655.43	271.50
655.57	278.52
655.72	259.80
655.86	304.27
656.01	229.37
656.15	306.61
656.30	306.61
656.44	224.69
656.58	283.20
656.73	374.49
656.87	283.20
657.01	290.23
657.16	346.40
657.30	294.91
657.45	245.76
657.59	245.76
657.73	332.36
657.88	205.97
658.02	304.27
658.16	297.25
658.31	149.79
658.45	308.95
658.60	250.44
658.74	262.14
658.88	280.86
659.03	292.57
659.17	205.97
659.31	280.86
659.46	266.82
659.60	259.80
659.74	278.52
659.89	220.01
660.03	255.12
660.17	271.50
660.32	255.12
660.46	334.70
660.60	212.99
660.74	315.97
660.89	250.44
661.03	311.29
661.17	234.05
661.32	234.05
661.46	297.25
661.60	341.72
661.74	334.70
661.89	243.42
662.03	330.02
662.17	217.67
662.31	311.29
662.46	330.02
662.60	346.40
662.74	367.46
662.88	311.29
663.03	304.27
663.17	341.72
663.31	236.39
663.45	196.60
663.60	238.73
663.74	222.35
663.88	227.03
664.02	285.55
664.17	234.05
664.31	236.39
664.45	222.35
664.59	278.52
664.73	264.48
664.88	318.31
665.02	238.73
665.16	245.76
665.30	299.59
665.44	217.67
665.59	252.78
665.73	297.25
665.87	262.14
666.01	290.23
666.15	205.97
666.29	252.78
666.44	348.74
666.58	287.89
666.72	280.86
666.86	248.10
667.00	222.35
667.14	222.35
667.28	287.89
667.43	121.71
667.57	280.86
667.71	220.01
667.85	280.86
667.99	292.57
668.13	234.05
668.27	217.67
668.41	243.42
668.56	264.48
668.70	294.91
668.84	238.73
668.98	215.33
669.12	262.14
669.26	210.65
669.40	271.50
669.54	304.27
669.68	227.03
669.82	224.69
669.96	234.05
670.10	259.80
670.25	283.20
670.39	177.88
670.53	306.61
670.67	220.01
670.81	215.33
670.95	287.89
671.09	264.48
671.23	292.57
671.37	294.91
671.51	196.60
671.65	191.92
671.79	231.71
671.93	159.16
672.07	327.68
672.21	224.69
672.35	301.93
672.49	135.75
672.63	248.10
672.77	304.27
672.91	250.44
673.05	287.89
673.19	308.95
673.33	170.86
673.47	290.23
673.61	210.65
673.75	220.01
673.89	231.71
674.03	280.86
674.17	271.50
674.31	182.56
674.45	198.95
674.59	224.69
674.73	236.39
674.87	236.39
675.01	231.71
675.15	212.99
675.29	245.76
675.43	208.31
675.56	362.78
675.70	250.44
675.84	245.76
675.98	290.23
676.12	276.18
676.26	250.44
676.40	271.50
676.54	191.92
676.68	205.97
676.82	304.27
676.96	234.05
677.10	313.63
677.23	212.99
677.37	166.18
677.51	241.08
677.65	280.86
677.79	170.86
677.93	266.82
678.07	273.84
678.21	156.82
678.34	166.18
678.48	173.20
678.62	269.16
678.76	238.73
678.90	194.26
679.04	285.55
679.18	194.26
679.31	166.18
679.45	173.20
679.59	191.92
679.73	271.50
679.87	205.97
680.00	191.92
680.14	187.24
680.28	248.10
680.42	236.39
680.56	266.82
680.70	177.88
680.83	250.44
680.97	220.01
681.11	182.56
681.25	262.14
681.39	156.82
681.52	224.69
681.66	290.23
681.80	149.79
681.94	198.95
682.07	220.01
682.21	236.39
682.35	184.90
682.49	196.60
682.62	294.91
682.76	194.26
682.90	238.73
683.04	245.76
683.17	212.99
683.31	276.18
683.45	276.18
683.59	203.63
683.72	318.31
683.86	262.14
684.00	217.67
684.13	217.67
684.27	222.35
684.41	187.24
684.55	241.08
684.68	294.91
684.82	184.90
684.96	255.12
685.09	241.08
685.23	222.35
685.37	166.18
685.50	250.44
685.64	229.37
685.78	215.33
685.91	273.84
686.05	210.65
686.19	236.39
686.32	227.03
686.46	248.10
686.60	152.13
686.73	243.42
686.87	196.60
687.01	191.92
687.14	245.76
687.28	170.86
687.42	215.33
687.55	224.69
687.69	173.20
687.82	182.56
687.96	217.67
688.10	276.18
688.23	257.46
688.37	285.55
688.50	222.35
688.64	248.10
688.78	161.50
688.91	168.52
689.05	208.31
689.18	224.69
689.32	145.11
689.46	152.13
689.59	208.31
689.73	231.71
689.86	142.77
690.00	191.92
690.13	238.73
690.27	198.95
690.41	182.56
690.54	212.99
690.68	222.35
690.81	231.71
690.95	208.31
691.08	243.42
691.22	245.76
691.35	161.50
691.49	126.39
691.62	222.35
691.76	191.92
691.89	292.57
692.03	140.43
692.16	166.18
692.30	175.54
692.43	175.54
692.57	168.52
692.70	166.18
692.84	187.24
692.97	198.95
693.11	257.46
693.24	140.43
693.38	205.97
693.51	173.20
693.65	177.88
693.78	194.26
693.92	128.73
694.05	163.84
694.19	156.82
694.32	241.08
694.45	152.13
694.59	126.39
694.72	201.29
694.86	147.45
694.99	173.20
695.13	215.33
695.26	175.54
695.39	161.50
695.53	217.67
695.66	224.69
695.80	173.20
695.93	121.71
696.07	170.86
696.20	196.60
696.33	152.13
696.47	170.86
696.60	121.71
696.73	243.42
696.87	149.79
697.00	278.52
697.14	142.77
697.27	142.77
697.40	238.73
697.54	177.88
697.67	210.65
697.80	166.18
697.94	201.29
698.07	163.84
698.21	100.64
698.34	194.26
698.47	163.84
698.61	126.39
698.74	259.80
698.87	145.11
699.01	152.13
699.14	161.50
699.27	236.39
699.40	269.16
699.54	184.90
699.67	161.50
699.80	170.86
699.94	168.52
700.07	128.73
700.20	128.73
700.34	149.79
700.47	135.75
700.60	205.97
700.73	182.56
700.87	191.92
701.00	187.24
701.13	187.24
701.26	191.92
701.40	168.52
701.53	145.11
701.66	140.43
701.79	170.86
701.93	117.03
702.06	278.52
702.19	194.26
702.32	245.76
702.46	238.73
702.59	166.18
702.72	105.32
702.85	182.56
702.99	182.56
703.12	184.90
703.25	126.39
703.38	133.41
703.51	77.24
703.65	147.45
703.78	163.84
703.91	166.18
704.04	168.52
704.17	163.84
704.31	196.60
704.44	117.03
704.57	124.05
704.70	236.39
704.83	191.92
704.96	238.73
705.10	138.09
705.23	208.31
>>>>>End Processed Spectral Data<<<<<
