SpectraSuite Data File
++++++++++++++++++++++++++++++++++++
Date: Fri Oct 04 11:40:02 GMT-05:00 2013
User: price-jones
Dark Spectrum Present: No
Reference Spectrum Present: No
Number of Sampled Component Spectra: 1
Spectrometers: USB2+H05261
Integration Time (usec): 100000 (USB2+H05261)
Spectra Averaged: 1 (USB2+H05261)
Boxcar Smoothing: 0 (USB2+H05261)
Correct for Electrical Dark: No (USB2+H05261)
Strobe/Lamp Enabled: No (USB2+H05261)
Correct for Detector Non-linearity: No (USB2+H05261)
Correct for Stray Light: No (USB2+H05261)
Number of Pixels in Processed Spectrum: 2048
>>>>>Begin Processed Spectral Data<<<<<
365.73	86.60
365.92	86.60
366.12	86.60
366.32	4.68
366.52	0.00
366.72	0.00
366.91	0.00
367.11	0.00
367.31	0.00
367.51	0.00
367.70	0.00
367.90	0.00
368.10	0.00
368.30	0.00
368.49	0.00
368.69	0.00
368.89	0.00
369.09	0.00
369.28	0.00
369.48	0.00
369.68	0.00
369.87	0.00
370.07	0.00
370.27	98.30
370.47	18.72
370.66	65.54
370.86	100.64
371.06	184.90
371.25	126.39
371.45	60.85
371.65	81.92
371.84	173.20
372.04	131.07
372.24	100.64
372.44	88.94
372.63	56.17
372.83	135.75
373.03	138.09
373.22	191.92
373.42	88.94
373.62	191.92
373.81	168.52
374.01	215.33
374.21	149.79
374.40	205.97
374.60	231.71
374.79	243.42
374.99	189.58
375.19	229.37
375.38	177.88
375.58	159.16
375.78	262.14
375.97	170.86
376.17	259.80
376.37	205.97
376.56	210.65
376.76	212.99
376.95	212.99
377.15	231.71
377.35	159.16
377.54	236.39
377.74	161.50
377.93	234.05
378.13	163.84
378.33	229.37
378.52	166.18
378.72	212.99
378.91	220.01
379.11	133.41
379.31	210.65
379.50	135.75
379.70	149.79
379.89	145.11
380.09	170.86
380.28	168.52
380.48	222.35
380.68	210.65
380.87	189.58
381.07	117.03
381.26	227.03
381.46	170.86
381.65	196.60
381.85	133.41
382.04	245.76
382.24	182.56
382.43	173.20
382.63	133.41
382.83	255.12
383.02	208.31
383.22	133.41
383.41	180.22
383.61	201.29
383.80	177.88
384.00	149.79
384.19	238.73
384.39	191.92
384.58	212.99
384.78	210.65
384.97	222.35
385.17	140.43
385.36	187.24
385.56	184.90
385.75	222.35
385.95	194.26
386.14	222.35
386.34	229.37
386.53	234.05
386.72	248.10
386.92	292.57
387.11	217.67
387.31	147.45
387.50	154.48
387.70	243.42
387.89	215.33
388.09	203.63
388.28	187.24
388.48	203.63
388.67	264.48
388.86	283.20
389.06	255.12
389.25	269.16
389.45	220.01
389.64	241.08
389.84	227.03
390.03	175.54
390.22	208.31
390.42	229.37
390.61	262.14
390.81	175.54
391.00	252.78
391.19	264.48
391.39	299.59
391.58	278.52
391.78	243.42
391.97	259.80
392.16	306.61
392.36	315.97
392.55	292.57
392.75	224.69
392.94	234.05
393.13	266.82
393.33	257.46
393.52	231.71
393.71	369.80
393.91	271.50
394.10	285.55
394.29	292.57
394.49	280.86
394.68	400.23
394.88	201.29
395.07	318.31
395.26	280.86
395.46	304.27
395.65	346.40
395.84	266.82
396.04	332.36
396.23	306.61
396.42	418.96
396.62	280.86
396.81	306.61
397.00	325.33
397.19	376.83
397.39	266.82
397.58	358.10
397.77	339.38
397.97	325.33
398.16	346.40
398.35	344.06
398.55	425.98
398.74	393.21
398.93	477.47
399.12	416.62
399.32	423.64
399.51	402.57
399.70	449.38
399.90	383.85
400.09	374.49
400.28	428.32
400.47	425.98
400.67	447.04
400.86	379.17
401.05	519.60
401.24	463.43
401.44	486.83
401.63	517.26
401.82	500.87
402.01	416.62
402.21	496.19
402.40	510.24
402.59	535.98
402.78	540.66
402.97	543.00
403.17	423.64
403.36	620.24
403.55	582.79
403.74	610.88
403.93	603.86
404.13	690.46
404.32	667.05
404.51	674.07
404.70	690.46
404.89	617.90
405.09	671.73
405.28	662.37
405.47	638.97
405.66	674.07
405.85	627.26
406.05	650.67
406.24	664.71
406.43	697.48
406.62	763.01
406.81	823.87
407.00	720.88
407.20	758.33
407.39	699.82
407.58	772.38
407.77	854.30
407.96	828.55
408.15	765.36
408.34	816.85
408.54	809.83
408.73	753.65
408.92	814.51
409.11	849.61
409.30	767.70
409.49	758.33
409.68	887.06
409.87	870.68
410.07	823.87
410.26	959.62
410.45	945.58
410.64	880.04
410.83	926.85
411.02	978.34
411.21	1057.92
411.40	961.96
411.59	945.58
411.78	1008.77
411.98	973.66
412.17	1011.11
412.36	1060.26
412.55	1057.92
412.74	1008.77
412.93	1137.50
413.12	1139.84
413.31	1240.48
413.50	1125.80
413.69	1104.73
413.88	1224.10
414.07	1109.41
414.26	1219.42
414.45	1245.16
414.64	1317.72
414.83	1369.21
415.02	1238.14
415.22	1369.21
415.41	1350.49
415.60	1369.21
415.79	1390.28
415.98	1399.64
416.17	1331.76
416.36	1352.83
416.55	1446.45
416.74	1514.33
416.93	1397.30
417.12	1359.85
417.31	1575.18
417.50	1451.13
417.69	1554.12
417.88	1523.69
418.07	1488.58
418.26	1537.73
418.45	1612.63
418.64	1722.63
418.83	1626.67
419.02	1621.99
419.21	1645.40
419.39	1514.33
419.58	1624.33
419.77	1614.97
419.96	1621.99
420.15	1741.36
420.34	1753.06
420.53	1664.12
420.72	1689.87
420.91	1724.97
421.10	1776.47
421.29	1832.64
421.48	1657.10
421.67	1739.02
421.86	1781.15
422.05	1755.40
422.24	1849.02
422.43	1692.21
422.61	1916.90
422.80	1778.81
422.99	1830.30
423.18	1790.51
423.37	1846.68
423.56	1849.02
423.75	1849.02
423.94	1839.66
424.13	1631.35
424.32	1753.06
424.50	1935.62
424.69	1930.94
424.88	1977.75
425.07	1830.30
425.26	1806.89
425.45	1844.34
425.64	1837.32
425.83	1851.36
426.01	1998.82
426.20	1919.24
426.39	1905.20
426.58	1860.73
426.77	1872.43
426.96	1870.09
427.15	1928.60
427.33	1956.69
427.52	1973.07
427.71	1954.35
427.90	2062.01
428.09	1942.64
428.28	2038.61
428.46	1947.33
428.65	2064.35
428.84	2092.44
429.03	2078.40
429.22	1996.48
429.40	2069.03
429.59	2076.06
429.78	2022.22
429.97	2010.52
430.16	2026.90
430.34	2118.18
430.53	2143.93
430.72	2237.55
430.91	2127.55
431.10	2174.36
431.28	2155.63
431.47	2118.18
431.66	2232.87
431.85	2073.71
432.03	2193.08
432.22	2265.64
432.41	2275.00
432.60	2230.53
432.79	2258.62
432.97	2237.55
433.16	2345.22
433.35	2214.15
433.54	2300.75
433.72	2319.47
433.91	2347.56
434.10	2345.22
434.28	2361.60
434.47	2368.62
434.66	2382.67
434.85	2373.30
435.03	2478.63
435.22	2747.79
435.41	2864.82
435.59	2895.24
435.78	2679.91
435.97	2630.76
436.16	2406.07
436.34	2417.77
436.53	2569.91
436.72	2541.82
436.90	2590.97
437.09	2487.99
437.28	2459.90
437.46	2485.65
437.65	2527.78
437.84	2565.23
438.02	2555.86
438.21	2614.38
438.40	2480.97
438.58	2637.78
438.77	2619.06
438.96	2684.59
439.14	2717.36
439.33	2766.51
439.52	2820.35
439.70	2628.42
439.89	2761.83
440.08	2747.79
440.26	2853.11
440.45	2857.79
440.63	2876.52
440.82	2864.82
441.01	2839.07
441.19	2972.48
441.38	2956.10
441.57	2792.26
441.75	2958.44
441.94	3049.72
442.12	2951.42
442.31	3038.02
442.50	3077.80
442.68	3038.02
442.87	3087.17
443.05	3096.53
443.24	3183.13
443.43	3141.00
443.61	3166.74
443.80	3180.79
443.98	3096.53
444.17	3045.04
444.35	3218.24
444.54	3148.02
444.73	3232.28
444.91	3208.87
445.10	3173.77
445.28	3208.87
445.47	3087.17
445.65	3178.45
445.84	3201.85
446.02	3288.45
446.21	3141.00
446.39	3145.68
446.58	3019.29
446.77	3302.50
446.95	3145.68
447.14	3155.04
447.32	3368.03
447.51	3321.22
447.69	3178.45
447.88	3281.43
448.06	3173.77
448.25	3143.34
448.43	3255.69
448.62	3162.06
448.80	3201.85
448.99	3286.11
449.17	3251.00
449.36	3164.40
449.54	3375.05
449.73	3384.41
449.91	3445.27
450.10	3454.63
450.28	3407.82
450.46	3424.20
450.65	3421.86
450.83	3365.69
451.02	3389.10
451.20	3485.06
451.39	3442.93
451.57	3396.12
451.76	3372.71
451.94	3396.12
452.13	3674.64
452.31	3592.72
452.49	3485.06
452.68	3559.95
452.86	3559.95
453.05	3576.34
453.23	3599.74
453.42	3492.08
453.60	3552.93
453.78	3574.00
453.97	3442.93
454.15	3538.89
454.34	3569.32
454.52	3630.17
454.70	3772.94
454.89	3632.51
455.07	3667.62
455.26	3794.01
455.44	3693.37
455.62	3669.96
455.81	3716.77
455.99	3754.22
456.17	3796.35
456.36	3857.20
456.54	3854.86
456.73	3941.46
456.91	4035.08
457.09	3904.01
457.28	3946.14
457.46	3836.14
457.64	4060.83
457.83	3960.19
458.01	3843.16
458.19	3953.16
458.38	3829.12
458.56	4004.66
458.74	3992.95
458.93	3964.87
459.11	4023.38
459.29	4107.64
459.48	3988.27
459.66	4067.85
459.84	4100.62
460.03	4189.56
460.21	4133.39
460.39	4177.86
460.57	4028.06
460.76	4135.73
460.94	4222.33
461.12	4313.61
461.31	4170.83
461.49	4187.22
461.67	4196.58
461.85	4299.56
462.04	4276.16
462.22	4624.90
462.40	4390.84
462.59	4287.86
462.77	4374.46
462.95	4390.84
463.13	4219.99
463.32	4369.78
463.50	4538.30
463.68	4442.34
463.86	4456.38
464.05	4444.68
464.23	4346.37
464.41	4507.87
464.59	4329.99
464.78	4461.06
464.96	4423.61
465.14	4444.68
465.32	4568.73
465.50	4493.83
465.69	4674.05
465.87	4652.98
466.05	4496.17
466.23	4493.83
466.41	4601.49
466.60	4823.84
466.78	4458.72
466.96	4617.88
467.14	4557.02
467.32	4514.89
467.51	4711.50
467.69	4655.33
467.87	4676.39
468.05	4692.77
468.23	4868.31
468.41	4746.61
468.60	4760.65
468.78	4800.44
468.96	4650.64
469.14	4772.35
469.32	4819.16
469.50	4645.96
469.69	4975.98
469.87	4898.74
470.05	4898.74
470.23	4891.72
470.41	4854.27
470.59	4868.31
470.77	4795.76
470.95	4917.47
471.14	5020.45
471.32	4830.87
471.50	5029.81
471.68	5121.09
471.86	5231.10
472.04	5118.75
472.22	5149.18
472.40	5095.35
472.58	5186.63
472.77	5210.03
472.95	5357.49
473.13	5275.57
473.31	5252.16
473.49	5135.14
473.67	5322.38
473.85	5371.53
474.03	5441.75
474.21	5460.47
474.39	5418.34
474.57	5486.22
474.75	5565.79
474.93	5631.33
475.12	5565.79
475.30	5636.01
475.48	5563.45
475.66	5680.48
475.84	5694.52
476.02	5659.42
476.20	5708.57
476.38	5685.16
476.56	5998.79
476.74	5975.39
476.92	5865.38
477.10	5771.76
477.28	6047.94
477.46	5858.36
477.64	5914.53
477.82	5970.71
478.00	6235.19
478.18	6235.19
478.36	6228.17
478.54	6286.68
478.72	6202.42
478.90	6525.41
479.08	6368.60
479.26	6370.94
479.44	6546.48
479.62	6651.80
479.80	6581.59
479.98	6539.46
480.16	6672.87
480.34	6682.23
480.52	6855.43
480.70	6855.43
480.88	6888.20
481.06	6995.86
481.24	6846.07
481.41	7005.22
481.59	7066.08
481.77	7040.33
481.95	7152.68
482.13	7258.00
482.31	7225.23
482.49	7276.73
482.67	7248.64
482.85	7564.61
483.03	7496.74
483.21	7655.89
483.39	7410.14
483.57	7660.57
483.74	7901.65
483.92	7864.20
484.10	7833.77
484.28	7925.05
484.46	8091.23
484.64	8189.53
484.82	8049.10
485.00	8257.41
485.18	8226.98
485.35	8411.89
485.53	8283.16
485.71	8442.31
485.89	8568.70
486.07	8454.02
486.25	8601.47
486.43	8755.94
486.61	8856.59
486.78	8809.78
486.96	8828.50
487.14	9018.08
487.32	8997.02
487.50	9193.62
487.68	9317.67
487.85	9151.49
488.03	9200.65
488.21	9327.03
488.39	9310.65
488.57	9437.04
488.75	9533.00
488.92	10026.86
489.10	9762.37
489.28	9748.33
489.46	9518.96
489.64	9921.53
489.81	10071.33
489.99	9944.94
490.17	10012.81
490.35	10054.94
490.53	10150.90
490.70	10225.80
490.88	10303.04
491.06	10368.57
491.24	10326.44
491.41	10679.86
491.59	10637.73
491.77	10714.97
491.95	10600.29
492.13	10649.44
492.30	10590.92
492.48	10909.24
492.66	10750.08
492.84	10799.23
493.01	11089.46
493.19	11150.31
493.37	11314.15
493.54	11232.23
493.72	11431.18
493.90	11463.94
494.08	11456.92
494.25	11442.88
494.43	11473.31
494.61	11529.48
494.79	11772.89
494.96	11489.69
495.14	11653.53
495.32	11929.71
495.49	11779.92
495.67	11971.84
495.85	12131.00
496.02	12135.68
496.20	12252.70
496.38	12166.10
496.55	12226.96
496.73	12681.02
496.91	12594.42
497.09	12383.77
497.26	12650.60
497.44	12655.28
497.62	12390.80
497.79	12791.03
497.97	12491.44
498.14	12985.29
498.32	13090.62
498.50	12910.40
498.67	12929.12
498.85	13195.94
499.03	13289.56
499.20	13205.30
499.38	13081.25
499.56	13261.48
499.73	13355.10
499.91	13446.38
500.08	13422.97
500.26	13523.62
500.44	13282.54
500.61	13701.50
500.79	13736.60
500.97	13664.05
501.14	13877.04
501.32	13879.38
501.49	13687.45
501.67	13916.83
501.84	13954.27
502.02	13933.21
502.20	14263.22
502.37	14080.66
502.55	14132.15
502.72	14141.52
502.90	14457.49
503.07	14148.54
503.25	14258.54
503.43	14143.86
503.60	14356.85
503.78	14611.96
503.95	14572.18
504.13	14303.01
504.30	14363.87
504.48	14448.13
504.65	14677.50
504.83	14803.89
505.01	15019.22
505.18	14827.29
505.36	15016.88
505.53	14965.39
505.71	14977.09
505.88	14941.98
506.06	15103.48
506.23	15311.78
506.41	15007.52
506.58	15061.35
506.76	15002.83
506.93	15346.89
507.11	15400.72
507.28	15440.51
507.46	15391.36
507.63	15630.10
507.81	15756.49
507.98	15559.88
508.16	15358.60
508.33	15552.86
508.50	15719.04
508.68	15653.50
508.85	15976.50
509.03	15946.07
509.20	15981.18
509.38	15943.73
509.55	16175.44
509.73	16128.63
509.90	16191.83
510.08	16004.58
510.25	16388.43
510.42	16170.76
510.60	16414.18
510.77	16460.99
510.95	16437.58
511.12	16472.69
511.30	16294.81
511.47	16531.20
511.64	16446.94
511.82	16723.13
511.99	16652.91
512.17	16610.78
512.34	16781.64
512.51	17076.55
512.69	17116.34
512.86	16947.82
513.04	17008.67
513.21	17216.98
513.38	17121.02
513.56	17142.08
513.73	16805.05
513.90	17015.69
514.08	16947.82
514.25	17184.21
514.43	17326.99
514.60	17392.52
514.77	17273.15
514.95	17486.14
515.12	17334.01
515.29	17558.70
515.47	17717.86
515.64	17671.04
515.81	17647.64
515.99	17832.54
516.16	17916.80
516.33	17975.31
516.51	17638.28
516.68	17902.76
516.85	17748.28
517.03	17834.88
517.20	18068.94
517.37	18167.24
517.54	18370.86
517.72	18127.45
517.89	17958.93
518.06	18155.54
518.24	18457.46
518.41	18342.78
518.58	18312.35
518.75	18221.07
518.93	18501.93
519.10	18272.56
519.27	18155.54
519.45	18525.34
519.62	18480.87
519.79	18607.26
519.96	18506.62
520.14	18427.04
520.31	18607.26
520.48	18799.18
520.65	18499.59
520.83	18583.85
521.00	18773.44
521.17	18871.74
521.34	18944.30
521.52	19016.85
521.69	18911.53
521.86	18960.68
522.03	19304.74
522.20	19157.28
522.38	19096.43
522.55	19040.26
522.72	19307.08
522.89	19360.91
523.07	19515.39
523.24	19431.13
523.41	19676.88
523.58	19255.59
523.75	19545.81
523.92	19293.04
524.10	19126.86
524.27	19611.35
524.44	19688.59
524.61	20013.92
524.78	19814.98
524.96	19798.59
525.13	19854.76
525.30	19508.37
525.47	19983.49
525.64	20044.35
525.81	20051.37
525.98	19992.86
526.16	20170.74
526.33	19901.58
526.50	20053.71
526.67	20112.22
526.84	19955.41
527.01	20231.59
527.18	20365.00
527.36	20182.44
527.53	20622.46
527.70	20568.63
527.87	20503.09
528.04	20280.74
528.21	20521.82
528.38	20407.13
528.55	20425.86
528.72	20458.62
528.89	20395.43
529.07	20666.93
529.24	20257.34
529.41	20709.06
529.58	20411.81
529.75	20737.15
529.92	20683.31
530.09	20896.30
530.26	20800.34
530.43	20865.88
530.60	20753.53
530.77	20863.54
530.94	20830.77
531.11	20929.07
531.28	20910.35
531.46	20826.09
531.63	20926.73
531.80	21102.27
531.97	21018.01
532.14	21282.49
532.31	20961.84
532.48	21104.61
532.65	21275.47
532.82	21048.44
532.99	20882.26
533.16	21151.42
533.33	21521.23
533.50	21509.52
533.67	21619.53
533.84	21177.17
534.01	21256.75
534.18	21261.43
534.35	21570.38
534.52	21308.24
534.69	21675.70
534.86	21530.59
535.03	21591.44
535.20	21729.53
535.37	21797.41
535.54	21549.31
535.71	21411.22
535.88	21708.47
536.05	21610.17
536.22	21979.97
536.38	21762.30
536.55	21965.93
536.72	22164.87
536.89	22038.48
537.06	21844.22
537.23	22040.82
537.40	21769.32
537.57	21860.60
537.74	22120.40
537.91	22183.60
538.08	22174.24
538.25	21654.64
538.42	22443.40
538.59	22134.45
538.75	22258.49
538.92	22024.44
539.09	22298.28
539.26	22361.48
539.43	22466.80
539.60	22258.49
539.77	22326.37
539.94	22600.21
540.11	22396.59
540.28	22614.26
540.44	22778.09
540.61	22366.16
540.78	22455.10
540.95	23110.45
541.12	22750.01
541.29	23136.20
541.46	22735.96
541.62	23447.49
541.79	23222.80
541.96	22841.29
542.13	22913.84
542.30	23180.67
542.47	23206.41
542.63	23260.24
542.80	23473.23
542.97	23515.36
543.14	23541.11
543.31	23239.18
543.48	23513.02
543.64	23419.40
543.81	23421.74
543.98	23939.00
544.15	23344.50
544.32	23606.64
544.48	23707.29
544.65	23529.41
544.82	23580.90
544.99	23517.70
545.16	23424.08
545.32	23473.23
545.49	24355.61
545.66	24517.11
545.83	25193.53
546.00	24477.32
546.16	24147.31
546.33	24009.22
546.50	23484.94
546.67	23548.13
546.83	23632.39
547.00	23702.61
547.17	23718.99
547.34	23618.35
547.50	23733.03
547.67	23805.59
547.84	23583.24
548.00	23555.15
548.17	23817.29
548.34	23880.49
548.51	23983.47
548.67	23730.69
548.84	23985.81
549.01	23878.15
549.18	23821.97
549.34	23632.39
549.51	23695.58
549.68	23880.49
549.84	23756.44
550.01	24070.07
550.18	23957.72
550.34	23840.70
550.51	24182.42
550.68	24060.71
550.84	23693.24
551.01	23953.04
551.18	23840.70
551.34	23957.72
551.51	23880.49
551.68	23866.44
551.84	23988.15
552.01	23922.62
552.18	24027.94
552.34	24180.07
552.51	23988.15
552.68	23775.16
552.84	23782.18
553.01	23709.63
553.18	24269.01
553.34	24245.61
553.51	23716.65
553.67	24065.39
553.84	24315.83
554.01	24458.60
554.17	24594.35
554.34	24430.51
554.51	24151.99
554.67	24332.21
554.84	24180.07
555.00	24100.50
555.17	23960.06
555.33	24081.77
555.50	24709.04
555.67	24095.82
555.83	24049.00
556.00	23892.19
556.16	24325.19
556.33	24482.00
556.50	24318.17
556.66	24383.70
556.83	24084.11
556.99	24809.68
557.16	24245.61
557.32	24482.00
557.49	24561.58
557.65	24173.05
557.82	24088.79
557.98	24397.74
558.15	24498.39
558.32	24704.35
558.48	24542.86
558.65	24547.54
558.81	24575.62
558.98	24386.04
559.14	24638.82
559.31	23985.81
559.47	24505.41
559.64	24397.74
559.80	24685.63
559.97	24685.63
560.13	24493.71
560.30	24599.03
560.46	24456.26
560.63	24599.03
560.79	24666.91
560.96	24837.76
561.12	24589.67
561.29	24732.44
561.45	24582.65
561.61	24711.38
561.78	24484.34
561.94	24893.94
562.11	24816.70
562.27	24613.07
562.44	24744.14
562.60	24559.24
562.77	24753.51
562.93	24568.60
563.10	24606.05
563.26	24833.08
563.42	24994.58
563.59	24648.18
563.75	25277.79
563.92	24872.87
564.08	24861.17
564.24	24753.51
564.41	24631.80
564.57	24706.70
564.74	24479.66
564.90	24758.19
565.07	24879.89
565.23	25266.08
565.39	24809.68
565.56	25060.12
565.72	25062.46
565.88	24741.80
566.05	24765.21
566.21	24470.30
566.38	24805.00
566.54	25017.99
566.70	25057.78
566.87	25137.35
567.03	25036.71
567.19	25036.71
567.36	25006.28
567.52	24741.80
567.68	25144.38
567.85	24840.11
568.01	24793.29
568.17	24917.34
568.34	25118.63
568.50	25109.27
568.66	24982.88
568.83	25029.69
568.99	24900.96
569.15	24666.91
569.32	24945.43
569.48	24528.81
569.64	24769.89
569.81	24922.02
569.97	24549.88
570.13	25123.31
570.30	24971.18
570.46	24879.89
570.62	25139.69
570.78	24552.22
570.95	24879.89
571.11	24776.91
571.27	24723.08
571.43	24704.35
571.60	25036.71
571.76	24856.49
571.92	25020.33
572.09	24978.20
572.25	25017.99
572.41	25135.01
572.57	24915.00
572.74	25043.73
572.90	24954.79
573.06	25247.36
573.22	25153.74
573.38	24856.49
573.55	25069.48
573.71	25153.74
573.87	25156.08
574.03	25120.97
574.20	24973.52
574.36	24638.82
574.52	25081.18
574.68	24868.19
574.84	25165.44
575.01	25369.07
575.17	25062.46
575.33	24781.59
575.49	24919.68
575.65	25238.00
575.82	25099.90
575.98	25333.96
576.14	25275.45
576.30	25025.01
576.46	24924.36
576.62	25144.38
576.79	25301.19
576.95	25151.40
577.11	24973.52
577.27	25076.50
577.43	25235.66
577.59	25326.94
577.75	25025.01
577.92	25034.37
578.08	25212.25
578.24	25055.43
578.40	25167.78
578.56	25359.70
578.72	25245.02
578.88	26001.01
579.04	25343.32
579.21	25305.87
579.37	25380.77
579.53	25149.06
579.69	24891.60
579.85	25256.72
580.01	25083.52
580.17	25198.21
580.33	24980.54
580.49	25127.99
580.65	25331.62
580.82	25081.18
580.98	25216.93
581.14	25273.10
581.30	24975.86
581.46	25069.48
581.62	25165.44
581.78	24713.72
581.94	25181.82
582.10	24971.18
582.26	25172.46
582.42	25214.59
582.58	25057.78
582.74	25048.41
582.90	25338.64
583.06	25275.45
583.22	25287.15
583.38	24978.20
583.54	24996.92
583.70	24992.24
583.86	25282.47
584.02	24959.47
584.18	25312.89
584.34	25261.40
584.50	25340.98
584.66	25303.53
584.82	25020.33
584.98	25380.77
585.14	25135.01
585.30	24964.15
585.46	25193.53
585.62	25219.27
585.78	25238.00
585.94	24940.75
586.10	25317.57
586.26	25193.53
586.42	25579.71
586.58	25163.10
586.74	25280.13
586.90	25235.66
587.06	25289.49
587.22	25198.21
587.38	25235.66
587.54	25340.98
587.70	25291.83
587.86	25724.83
588.02	25392.47
588.18	25415.88
588.34	25046.07
588.49	25118.63
588.65	24992.24
588.81	25050.75
588.97	25130.33
589.13	24826.06
589.29	25057.78
589.45	25106.93
589.61	25486.09
589.77	25474.39
589.93	25441.62
590.08	25584.40
590.24	25348.00
590.40	25458.01
590.56	25383.11
590.72	25490.77
590.88	25340.98
591.04	25235.66
591.20	25869.94
591.35	25565.67
591.51	25687.38
591.67	25458.01
591.83	25638.23
591.99	25348.00
592.15	25338.64
592.31	25427.58
592.46	25453.33
592.62	25296.51
592.78	25137.35
592.94	25542.27
593.10	25546.95
593.26	25556.31
593.41	25338.64
593.57	25591.42
593.73	25542.27
593.89	25493.12
594.05	25296.51
594.20	25542.27
594.36	25947.18
594.52	25535.24
594.68	25371.41
594.84	25174.80
594.99	25687.38
595.15	25659.29
595.31	25607.80
595.47	25467.37
595.62	25429.92
595.78	25390.13
595.94	25544.61
596.10	25319.92
596.25	25350.34
596.41	25666.31
596.57	25340.98
596.73	25116.29
596.88	25305.87
597.04	25575.03
597.20	25647.59
597.36	25500.14
597.51	25322.26
597.67	25422.90
597.83	25472.05
597.99	25619.50
598.14	25142.03
598.30	25521.20
598.46	25343.32
598.61	25116.29
598.77	25247.36
598.93	25345.66
599.09	25415.88
599.24	25738.87
599.40	25511.84
599.56	25680.36
599.71	25418.22
599.87	25357.36
600.03	25436.94
600.18	25333.96
600.34	25280.13
600.50	25446.30
600.65	25322.26
600.81	25518.86
600.97	25242.68
601.12	25717.81
601.28	25366.73
601.44	25549.29
601.59	25628.87
601.75	25099.90
601.91	25392.47
602.06	25324.60
602.22	25315.23
602.37	25230.98
602.53	25062.46
602.69	25736.53
602.84	25207.57
603.00	25270.76
603.16	25163.10
603.31	25348.00
603.47	25296.51
603.62	25256.72
603.78	25015.65
603.94	25104.59
604.09	25156.08
604.25	25116.29
604.40	25081.18
604.56	25109.27
604.71	25324.60
604.87	25331.62
605.03	25317.57
605.18	25174.80
605.34	25123.31
605.49	25050.75
605.65	25413.54
605.80	25025.01
605.96	24840.11
606.12	25158.42
606.27	25282.47
606.43	24905.64
606.58	25458.01
606.74	25305.87
606.89	25130.33
607.05	24868.19
607.20	25394.81
607.36	25268.42
607.51	25214.59
607.67	25020.33
607.82	25039.05
607.98	25032.03
608.13	25362.04
608.29	25324.60
608.44	24936.07
608.60	24959.47
608.75	25329.28
608.91	25179.48
609.06	25057.78
609.22	25289.49
609.37	24807.34
609.53	25188.85
609.68	25205.23
609.84	25156.08
609.99	25310.55
610.15	25177.14
610.30	25355.02
610.46	25572.69
610.61	25993.99
610.76	26001.01
610.92	26185.91
611.07	26321.66
611.23	25844.20
611.38	25647.59
611.54	25656.95
611.69	25532.90
611.84	25238.00
612.00	25118.63
612.15	25097.56
612.31	25174.80
612.46	24823.72
612.62	25137.35
612.77	25191.19
612.92	24994.58
613.08	24947.77
613.23	24919.68
613.39	25010.96
613.54	24732.44
613.69	24741.80
613.85	24772.23
614.00	24996.92
614.15	25153.74
614.31	24781.59
614.46	25144.38
614.62	25289.49
614.77	24812.02
614.92	24999.26
615.08	25046.07
615.23	24893.94
615.38	24702.01
615.54	24723.08
615.69	24479.66
615.84	24451.58
616.00	24290.08
616.15	24320.51
616.30	24711.38
616.46	24364.98
616.61	24577.97
616.76	24582.65
616.92	24397.74
617.07	24500.73
617.22	24074.75
617.37	24107.52
617.53	24245.61
617.68	24297.10
617.83	24236.25
617.99	24135.60
618.14	24339.23
618.29	24467.96
618.45	24376.68
618.60	24159.01
618.75	23985.81
618.90	24290.08
619.06	24063.05
619.21	24025.60
619.36	24395.40
619.51	23864.10
619.67	23709.63
619.82	24173.05
619.97	24194.12
620.12	23992.83
620.28	24032.62
620.43	24287.74
620.58	24166.03
620.73	23896.87
620.89	24067.73
621.04	24254.97
621.19	23920.28
621.34	23861.76
621.49	23864.10
621.65	23887.51
621.80	23754.10
621.95	23908.57
622.10	23978.79
622.25	23805.59
622.41	23489.62
622.56	23978.79
622.71	24386.04
622.86	23943.68
623.01	23889.85
623.16	23828.99
623.32	23365.57
623.47	23637.07
623.62	24037.30
623.77	23477.91
623.92	23814.95
624.07	23953.04
624.23	23702.61
624.38	23592.60
624.53	23524.72
624.68	23616.01
624.83	23777.50
624.98	23613.66
625.13	23335.14
625.29	23814.95
625.44	23475.57
625.59	23594.94
625.74	23173.64
625.89	23339.82
626.04	23175.98
626.19	23239.18
626.34	23342.16
626.49	23452.17
626.65	23239.18
626.80	23522.38
626.95	23124.49
627.10	23056.62
627.25	23417.06
627.40	23349.18
627.55	23318.76
627.70	23080.02
627.85	23185.35
628.00	23302.37
628.15	23342.16
628.30	23143.22
628.45	22918.53
628.60	22948.95
628.76	23225.14
628.91	23096.41
629.06	23386.63
629.21	23185.35
629.36	22991.08
629.51	22930.23
629.66	23363.23
629.81	23220.45
629.96	23030.87
630.11	22965.34
630.26	23073.00
630.41	23089.38
630.56	22789.80
630.71	23232.16
630.86	22955.97
631.01	22829.59
631.16	23145.56
631.31	23103.43
631.46	23014.49
631.61	23147.90
631.76	23030.87
631.91	22852.99
632.06	22745.33
632.21	22518.29
632.36	22977.04
632.51	22555.74
632.66	22963.00
632.81	22693.83
632.96	22883.42
633.10	22902.14
633.25	22801.50
633.40	22860.01
633.55	22717.24
633.70	22515.95
633.85	22792.14
634.00	22623.62
634.15	22394.25
634.30	22492.55
634.45	22651.70
634.60	22764.05
634.75	22415.31
634.90	22431.69
635.05	22656.39
635.19	22295.94
635.34	22630.64
635.49	22600.21
635.64	22586.17
635.79	22415.31
635.94	22595.53
636.09	22478.50
636.24	22548.72
636.39	22438.72
636.53	22047.85
636.68	22478.50
636.83	22108.70
636.98	22345.09
637.13	22338.07
637.28	22335.73
637.43	22649.36
637.57	22251.47
637.72	22312.33
637.87	22251.47
638.02	22539.36
638.17	22331.05
638.32	22291.26
638.46	21884.01
638.61	22162.53
638.76	22134.45
638.91	22099.34
639.06	21944.86
639.20	22434.03
639.35	22317.01
639.50	22319.35
639.65	22218.71
639.80	22387.22
639.94	21954.22
640.09	22099.34
640.24	22003.38
640.39	22150.83
640.54	22040.82
640.68	21951.88
640.83	21785.71
640.98	21703.79
641.13	21755.28
641.27	21912.10
641.42	21965.93
641.57	22094.66
641.72	21947.20
641.86	22001.04
642.01	21539.95
642.16	21942.52
642.31	21584.42
642.45	22038.48
642.60	22015.08
642.75	21528.25
642.90	21776.34
643.04	21626.55
643.19	21865.28
643.34	21652.30
643.48	21731.87
643.63	21855.92
643.78	22146.15
643.93	21975.29
644.07	21631.23
644.22	21678.04
644.37	21788.05
644.51	21380.79
644.66	21621.87
644.81	21593.78
644.95	21886.35
645.10	21661.66
645.25	21322.28
645.39	21785.71
645.54	21640.59
645.69	21947.20
645.83	21575.06
645.98	21881.67
646.13	21942.52
646.27	21549.31
646.42	21443.99
646.57	21507.18
646.71	21270.79
646.86	21776.34
647.00	21277.81
647.15	21268.45
647.30	21397.18
647.44	21418.24
647.59	21298.88
647.74	21453.35
647.88	21352.71
648.03	21401.86
648.17	21401.86
648.32	21259.09
648.47	21528.25
648.61	21458.03
648.76	21343.35
648.90	21113.97
649.05	21125.68
649.20	21254.40
649.34	21001.63
649.49	21006.31
649.63	21104.61
649.78	21008.65
649.92	21345.69
650.07	21373.77
650.21	21156.10
650.36	21263.77
650.51	21296.53
650.65	21200.57
650.80	21273.13
650.94	21088.23
651.09	21291.85
651.23	20922.05
651.38	21397.18
651.52	21025.03
651.67	21041.42
651.81	21095.25
651.96	21095.25
652.10	21015.67
652.25	20908.01
652.39	20957.16
652.54	21053.12
652.68	21076.52
652.83	21039.08
652.97	20900.98
653.12	21266.11
653.26	20847.15
653.41	21123.33
653.55	21057.80
653.70	20725.44
653.84	20760.55
653.99	20601.40
654.13	20842.47
654.27	20851.83
654.42	20908.01
654.56	20587.35
654.71	20648.21
654.85	20919.71
655.00	20725.44
655.14	20748.85
655.29	20524.16
655.43	20957.16
655.57	20491.39
655.72	20695.02
655.86	20594.37
656.01	20470.33
656.15	20439.90
656.30	20421.17
656.44	20400.11
656.58	20526.50
656.73	20692.68
656.87	20697.36
657.01	20697.36
657.16	20568.63
657.30	20601.40
657.45	20453.94
657.59	20666.93
657.73	20262.02
657.88	20451.60
658.02	20416.49
658.16	20255.00
658.31	20465.64
658.45	20416.49
658.60	20163.72
658.74	20376.70
658.88	19915.62
659.03	20016.26
659.17	20084.14
659.31	20587.35
659.46	20297.13
659.60	20301.81
659.74	20063.07
659.89	19955.41
660.03	20341.60
660.17	19922.64
660.32	19772.85
660.46	19887.53
660.60	19829.02
660.74	20224.57
660.89	19850.08
661.03	19557.52
661.17	19749.44
661.32	19852.42
661.46	19758.80
661.60	19700.29
661.74	19946.05
661.89	19999.88
662.03	20161.37
662.17	19716.67
662.31	19662.84
662.46	19988.18
662.60	19744.76
662.74	19255.59
662.88	19798.59
663.03	19587.94
663.17	19452.19
663.31	19611.35
663.45	19379.64
663.60	19494.32
663.74	19569.22
663.88	19503.68
664.02	19374.95
664.17	19681.56
664.31	19346.87
664.45	19417.08
664.59	19124.52
664.73	19047.28
664.88	19381.98
665.02	19257.93
665.16	19250.91
665.30	18642.37
665.44	19117.50
665.59	18892.80
665.73	19173.67
665.87	18860.04
666.01	19023.87
666.15	19328.14
666.29	18838.97
666.44	19269.63
666.58	19119.84
666.72	19260.27
666.86	18909.19
667.00	19021.53
667.14	19103.45
667.28	18881.10
667.43	19070.68
667.57	18782.80
667.71	18712.58
667.85	18532.36
667.99	18221.07
668.13	18803.86
668.27	18490.23
668.41	18511.30
668.56	18251.50
668.70	18920.89
668.84	18506.62
668.98	18455.12
669.12	18640.03
669.26	18403.63
669.40	18249.16
669.54	18200.01
669.68	18242.14
669.82	18272.56
669.96	18438.74
670.10	18097.02
670.25	18136.81
670.39	18359.16
670.53	18061.91
670.67	17930.84
670.81	18092.34
670.95	18015.10
671.09	18129.79
671.23	18218.73
671.37	18061.91
671.51	17830.20
671.65	17958.93
671.79	17589.13
671.93	17757.64
672.07	17834.88
672.21	17734.24
672.35	17418.27
672.49	17528.27
672.63	17802.11
672.77	17453.37
672.91	17287.20
673.05	17530.61
673.19	17530.61
673.33	17673.39
673.47	17680.41
673.61	17355.07
673.75	17680.41
673.89	17315.28
674.03	17184.21
674.17	17439.33
674.31	17214.64
674.45	17261.45
674.59	16875.26
674.73	17198.26
674.87	17165.49
675.01	16896.33
675.15	17284.86
675.29	17280.18
675.43	17015.69
675.56	17128.04
675.70	17212.30
675.84	17020.38
675.98	16657.59
676.12	16776.96
676.26	17135.06
676.40	16725.47
676.54	16741.85
676.68	16599.08
676.82	16336.94
676.96	16421.20
677.10	16475.03
677.23	16343.96
677.37	16369.71
677.51	16210.55
677.65	16149.70
677.79	15934.37
677.93	16145.02
678.07	15953.09
678.21	15882.88
678.34	16187.14
678.48	15969.48
678.62	16180.12
678.76	15939.05
678.90	15908.62
679.04	15651.16
679.18	15658.18
679.31	15576.27
679.45	15723.72
679.59	15463.92
679.73	15775.21
679.87	15545.84
680.00	15119.86
680.14	15564.56
680.28	15246.25
680.42	15353.91
680.56	15410.09
680.70	15243.91
680.83	15161.99
680.97	15309.44
681.11	15288.38
681.25	15234.55
681.39	14991.13
681.52	15140.93
681.66	15047.30
681.80	14855.38
681.94	14991.13
682.07	14822.61
682.21	14750.06
682.35	14785.16
682.49	14707.93
682.62	14534.73
682.76	14441.11
682.90	14469.19
683.04	14462.17
683.17	14607.28
683.31	14462.17
683.45	14661.12
683.59	14799.21
683.72	14480.89
683.86	14387.27
684.00	14043.21
684.13	14190.67
684.27	13998.74
684.41	14139.18
684.55	13832.57
684.68	13727.24
684.82	14043.21
684.96	14040.87
685.09	13895.76
685.23	13893.42
685.37	13638.30
685.50	13895.76
685.64	13823.20
685.78	13561.06
685.91	13626.60
686.05	13989.38
686.19	13518.93
686.32	13764.69
686.46	13352.76
686.60	13259.13
686.73	13488.51
686.87	13205.30
687.01	13085.94
687.14	13069.55
687.28	13294.24
687.42	13116.36
687.55	13121.04
687.69	12856.56
687.82	13144.45
687.96	13020.40
688.10	13057.85
688.23	13032.10
688.37	12940.82
688.50	12933.80
688.64	12730.17
688.78	12514.84
688.91	12589.74
689.05	12571.02
689.18	12432.93
689.32	12479.74
689.46	12311.22
689.59	12390.80
689.73	12491.44
689.86	12343.99
690.00	12360.37
690.13	12121.63
690.27	12259.73
690.41	12381.43
690.54	12058.44
690.68	12208.23
690.81	11999.93
690.95	12133.34
691.08	12166.10
691.22	11892.26
691.35	11695.66
691.49	11840.77
691.62	11529.48
691.76	11618.42
691.89	11733.11
692.03	11698.00
692.16	11480.33
692.30	11269.68
692.43	11442.88
692.57	11576.29
692.70	11681.61
692.84	11494.37
692.97	11470.97
693.11	11241.59
693.24	11414.79
693.38	11133.93
693.51	11208.83
693.65	11164.36
693.78	10876.47
693.92	11288.40
694.05	11159.67
694.19	10970.09
694.32	10956.05
694.45	11052.01
694.59	10630.71
694.72	10511.35
694.86	10787.53
694.99	10705.61
695.13	10640.08
695.26	10434.11
695.39	10366.23
695.53	10546.45
695.66	10499.64
695.80	10661.14
695.93	10518.37
696.07	10160.27
696.20	10352.19
696.33	10300.70
696.47	10200.05
696.60	10244.52
696.73	10190.69
696.87	10263.25
697.00	10113.45
697.14	9900.47
697.27	10132.18
697.40	9933.23
697.54	9902.81
697.67	9734.29
697.80	9614.92
697.94	9832.59
698.07	9727.27
698.21	9722.59
698.34	9678.12
698.47	9652.37
698.61	9659.39
698.74	9628.96
698.87	9535.34
699.01	9500.23
699.14	9598.54
699.27	9376.19
699.40	9387.89
699.54	9282.56
699.67	9263.84
699.80	9025.11
699.94	9071.92
700.07	9207.67
700.20	9085.96
700.34	8898.72
700.47	9085.96
700.60	9029.79
700.73	9015.74
700.87	8994.68
701.00	8903.40
701.13	8943.19
701.26	8978.30
701.40	9027.45
701.53	8809.78
701.66	9165.54
701.79	8767.65
701.93	8549.98
702.06	8585.08
702.19	8355.71
702.32	8678.71
702.46	8601.47
702.59	8332.31
702.72	8336.99
702.85	8255.07
702.99	8257.41
703.12	8224.64
703.25	7946.12
703.38	8126.34
703.51	8168.47
703.65	8091.23
703.78	8262.09
703.91	8159.11
704.04	8152.09
704.17	8210.60
704.31	8037.40
704.44	7950.80
704.57	8030.38
704.70	7880.58
704.83	7971.86
704.96	7826.75
705.10	7712.07
705.23	7625.47
>>>>>End Processed Spectral Data<<<<<
