SpectraSuite Data File
++++++++++++++++++++++++++++++++++++
Date: Fri Oct 04 11:39:24 GMT-05:00 2013
User: price-jones
Dark Spectrum Present: No
Reference Spectrum Present: No
Number of Sampled Component Spectra: 1
Spectrometers: USB2+H05261
Integration Time (usec): 100000 (USB2+H05261)
Spectra Averaged: 1 (USB2+H05261)
Boxcar Smoothing: 0 (USB2+H05261)
Correct for Electrical Dark: No (USB2+H05261)
Strobe/Lamp Enabled: No (USB2+H05261)
Correct for Detector Non-linearity: No (USB2+H05261)
Correct for Stray Light: No (USB2+H05261)
Number of Pixels in Processed Spectrum: 2048
>>>>>Begin Processed Spectral Data<<<<<
365.73	72.56
365.92	72.56
366.12	72.56
366.32	0.00
366.52	0.00
366.72	23.41
366.91	0.00
367.11	0.00
367.31	0.00
367.51	0.00
367.70	0.00
367.90	0.00
368.10	0.00
368.30	0.00
368.49	0.00
368.69	0.00
368.89	0.00
369.09	0.00
369.28	0.00
369.48	0.00
369.68	0.00
369.87	4.68
370.07	4.68
370.27	114.69
370.47	91.28
370.66	198.95
370.86	271.50
371.06	217.67
371.25	280.86
371.45	259.80
371.65	285.55
371.84	217.67
372.04	266.82
372.24	315.97
372.44	292.57
372.63	318.31
372.83	376.83
373.03	322.99
373.22	283.20
373.42	234.05
373.62	318.31
373.81	241.08
374.01	344.06
374.21	360.44
374.40	404.91
374.60	372.15
374.79	381.51
374.99	402.57
375.19	355.76
375.38	383.85
375.58	332.36
375.78	355.76
375.97	341.72
376.17	379.17
376.37	362.78
376.56	344.06
376.76	379.17
376.95	362.78
377.15	292.57
377.35	348.74
377.54	383.85
377.74	395.55
377.93	414.27
378.13	433.00
378.33	383.85
378.52	351.08
378.72	346.40
378.91	423.64
379.11	362.78
379.31	332.36
379.50	351.08
379.70	440.02
379.89	428.32
380.09	348.74
380.28	407.25
380.48	449.38
380.68	400.23
380.87	440.02
381.07	393.21
381.26	423.64
381.46	463.43
381.65	400.23
381.85	430.66
382.04	437.68
382.24	477.47
382.43	479.81
382.63	346.40
382.83	463.43
383.02	482.15
383.22	477.47
383.41	435.34
383.61	500.87
383.80	484.49
384.00	458.74
384.19	433.00
384.39	458.74
384.58	451.72
384.78	407.25
384.97	461.09
385.17	528.96
385.36	498.53
385.56	491.51
385.75	463.43
385.95	505.56
386.14	500.87
386.34	468.11
386.53	463.43
386.72	437.68
386.92	599.18
387.11	531.30
387.31	589.82
387.50	425.98
387.70	526.62
387.89	500.87
388.09	493.85
388.28	507.90
388.48	500.87
388.67	617.90
388.86	505.56
389.06	603.86
389.25	566.41
389.45	585.13
389.64	582.79
389.84	564.07
390.03	622.58
390.22	589.82
390.42	568.75
390.61	566.41
390.81	664.71
391.00	554.71
391.19	603.86
391.39	650.67
391.58	575.77
391.78	613.22
391.97	552.37
392.16	650.67
392.36	603.86
392.55	603.86
392.75	671.73
392.94	624.92
393.13	636.63
393.33	603.86
393.52	636.63
393.71	713.86
393.91	631.94
394.10	648.33
394.29	629.60
394.49	746.63
394.68	669.39
394.88	725.57
395.07	767.70
395.26	727.91
395.46	716.20
395.65	830.89
395.84	770.04
396.04	830.89
396.23	798.12
396.42	802.80
396.62	793.44
396.81	835.57
397.00	737.27
397.19	793.44
397.39	950.26
397.58	842.59
397.77	873.02
397.97	755.99
398.16	805.14
398.35	765.36
398.55	891.74
398.74	835.57
398.93	976.00
399.12	884.72
399.32	830.89
399.51	919.83
399.70	894.08
399.90	968.98
400.09	983.02
400.28	1008.77
400.47	866.00
400.67	1071.97
400.86	994.73
401.05	1062.60
401.24	1034.52
401.44	1032.18
401.63	1011.11
401.82	1067.28
402.01	1064.94
402.21	1074.31
402.40	994.73
402.59	1029.84
402.78	1055.58
402.97	1029.84
403.17	1093.03
403.36	1135.16
403.55	1088.35
403.74	1111.75
403.93	1170.27
404.13	1214.74
404.32	1245.16
404.51	1167.93
404.70	1224.10
404.89	1205.38
405.09	1266.23
405.28	1238.14
405.47	1254.53
405.66	1249.85
405.85	1282.61
406.05	1327.08
406.24	1317.72
406.43	1320.06
406.62	1331.76
406.81	1355.17
407.00	1373.89
407.20	1301.34
407.39	1371.55
407.58	1416.02
407.77	1490.92
407.96	1416.02
408.15	1582.20
408.34	1483.90
408.54	1427.73
408.73	1526.03
408.92	1511.99
409.11	1500.28
409.30	1497.94
409.49	1460.49
409.68	1551.78
409.87	1561.14
410.07	1633.69
410.26	1708.59
410.45	1689.87
410.64	1713.27
410.83	1666.46
411.02	1706.25
411.21	1764.76
411.40	1827.96
411.59	1757.74
411.78	1804.55
411.98	1713.27
412.17	1746.04
412.36	1820.94
412.55	1921.58
412.74	1818.60
412.93	1874.77
413.12	1886.47
413.31	2036.27
413.50	1994.14
413.69	2069.03
413.88	2094.78
414.07	2127.55
414.26	2092.44
414.45	2087.76
414.64	2059.67
414.83	2167.34
415.02	2237.55
415.22	2246.91
415.41	2263.30
415.60	2223.51
415.79	2193.08
415.98	2296.07
416.17	2434.16
416.36	2361.60
416.55	2338.20
416.74	2272.66
416.93	2420.11
417.12	2457.56
417.31	2431.82
417.50	2495.01
417.69	2548.84
417.88	2532.46
418.07	2427.14
418.26	2527.78
418.45	2684.59
418.64	2761.83
418.83	2656.51
419.02	2630.76
419.21	2686.94
419.39	2722.04
419.58	2665.87
419.77	2663.53
419.96	2829.71
420.15	2818.00
420.34	2630.76
420.53	2789.92
420.72	2923.33
420.91	2766.51
421.10	2953.76
421.29	2881.20
421.48	2829.71
421.67	2911.63
421.86	2892.90
422.05	2972.48
422.24	2944.39
422.43	3047.38
422.61	3059.08
422.80	3073.12
422.99	2956.10
423.18	2899.92
423.37	3019.29
423.56	3038.02
423.75	3005.25
423.94	2998.23
424.13	2848.43
424.32	2977.16
424.50	3126.96
424.69	3070.78
424.88	3098.87
425.07	3052.06
425.26	3070.78
425.45	3014.61
425.64	2928.01
425.83	3054.40
426.01	3082.49
426.20	3211.22
426.39	3176.11
426.58	3105.89
426.77	3162.06
426.96	3101.21
427.15	3028.65
427.33	3075.46
427.52	3248.66
427.71	3283.77
427.90	3276.75
428.09	3293.13
428.28	3206.53
428.46	3344.63
428.65	3452.29
428.84	3510.80
429.03	3496.76
429.22	3258.03
429.40	3300.16
429.59	3391.44
429.78	3281.43
429.97	3419.52
430.16	3311.86
430.34	3499.10
430.53	3506.12
430.72	3400.80
430.91	3414.84
431.10	3431.23
431.28	3662.94
431.47	3552.93
431.66	3576.34
431.85	3541.23
432.03	3632.51
432.22	3786.99
432.41	3702.73
432.60	3681.66
432.79	3712.09
432.97	3735.50
433.16	3791.67
433.35	3784.65
433.54	3716.77
433.72	3721.45
433.91	3707.41
434.10	3810.39
434.28	3719.11
434.47	3864.22
434.66	4074.87
434.85	3833.80
435.03	3934.44
435.22	4215.30
435.41	4550.00
435.59	4311.27
435.78	4117.00
435.97	4184.88
436.16	4250.41
436.34	4025.72
436.53	3941.46
436.72	4292.54
436.90	4093.60
437.09	4161.47
437.28	4217.65
437.46	4112.32
437.65	4142.75
437.84	4173.18
438.02	4168.49
438.21	4248.07
438.40	4248.07
438.58	4262.12
438.77	4381.48
438.96	4259.78
439.14	4344.03
439.33	4533.62
439.52	4512.55
439.70	4500.85
439.89	4568.73
440.08	4697.46
440.26	4564.04
440.45	4592.13
440.63	4594.47
440.82	4695.11
441.01	4748.95
441.19	4716.18
441.38	4929.17
441.57	4760.65
441.75	4943.21
441.94	4851.93
442.12	4887.04
442.31	4997.04
442.50	4889.38
442.68	4919.81
442.87	5078.96
443.05	5116.41
443.24	4985.34
443.43	5060.24
443.61	5156.20
443.80	5256.84
443.98	4910.44
444.17	4809.80
444.35	5102.37
444.54	5343.44
444.73	5233.44
444.91	5235.78
445.10	5135.14
445.28	5217.05
445.47	5132.79
445.65	5226.42
445.84	5132.79
446.02	5261.52
446.21	5177.26
446.39	5205.35
446.58	5193.65
446.77	5081.30
446.95	5083.64
447.14	5217.05
447.32	5268.55
447.51	5186.63
447.69	5331.74
447.88	5331.74
448.06	5284.93
448.25	5245.14
448.43	5359.83
448.62	5380.89
448.80	5310.68
448.99	5465.15
449.17	5289.61
449.36	5425.36
449.54	5678.14
449.73	5530.69
449.91	5617.29
450.10	5717.93
450.28	5483.88
450.46	5558.77
450.65	5713.25
450.83	5722.61
451.02	5680.48
451.20	5774.10
451.39	5804.53
451.57	5624.31
451.76	5657.07
451.94	5806.87
452.13	5902.83
452.31	5731.97
452.49	5872.40
452.68	5879.43
452.86	5802.19
453.05	5919.21
453.23	5905.17
453.42	5860.70
453.60	5998.79
453.78	5900.49
453.97	5947.30
454.15	5930.92
454.34	6073.69
454.52	6085.39
454.70	6066.67
454.89	6017.52
455.07	5935.60
455.26	6305.40
455.44	6176.67
455.62	6071.35
455.81	6090.07
455.99	6202.42
456.17	6146.25
456.36	6272.64
456.54	6338.17
456.73	6417.75
456.91	6516.05
457.09	6417.75
457.28	6630.74
457.46	6427.11
457.64	6502.01
457.83	6614.35
458.01	6600.31
458.19	6576.91
458.38	6363.92
458.56	6572.22
458.74	6715.00
458.93	6724.36
459.11	6670.53
459.29	6567.54
459.48	6539.46
459.66	6780.53
459.84	6698.61
460.03	7040.33
460.21	6817.98
460.39	6839.05
460.57	6752.45
460.76	6726.70
460.94	6958.41
461.12	6860.11
461.31	7068.42
461.49	6988.84
461.67	6981.82
461.85	7431.20
462.04	7232.26
462.22	7218.21
462.40	7243.96
462.59	7148.00
462.77	7000.54
462.95	7220.55
463.13	7283.75
463.32	7272.04
463.50	7190.13
463.68	7351.62
463.86	7403.11
464.05	7180.76
464.23	7204.17
464.41	7410.14
464.59	7293.11
464.78	7426.52
464.96	7281.41
465.14	7272.04
465.32	7461.63
465.50	7555.25
465.69	7456.95
465.87	7393.75
466.05	7356.30
466.23	7384.39
466.41	7749.51
466.60	7688.66
466.78	7655.89
466.96	7534.18
467.14	7494.40
467.32	7749.51
467.51	7695.68
467.69	7452.27
467.87	7702.70
468.05	7592.70
468.23	7681.64
468.41	7681.64
468.60	7829.09
468.78	7819.73
468.96	7906.33
469.14	8081.87
469.32	7854.84
469.50	7747.17
469.69	7976.55
469.87	8060.80
470.05	8194.22
470.23	8198.90
470.41	8023.36
470.59	8142.72
470.77	8102.93
470.95	8116.98
471.14	8116.98
471.32	8091.23
471.50	8468.06
471.68	8344.01
471.86	8252.73
472.04	8451.67
472.22	8592.11
472.40	8507.85
472.58	8526.57
472.77	8603.81
472.95	8580.40
473.13	8828.50
473.31	8725.52
473.49	8688.07
473.67	8681.05
473.85	8634.24
474.03	8894.04
474.21	8798.07
474.39	8936.17
474.57	9252.14
474.75	9123.41
474.93	9207.67
475.12	9160.86
475.30	9219.37
475.48	9408.95
475.66	9399.59
475.84	9298.95
476.02	9462.79
476.20	9659.39
476.38	9657.05
476.56	9844.29
476.74	9853.66
476.92	9816.21
477.10	9757.69
477.28	10090.05
477.46	9853.66
477.64	10209.42
477.82	10164.95
478.00	10338.15
478.18	10422.41
478.36	10298.36
478.54	10691.57
478.72	10602.63
478.90	10824.98
479.08	10810.93
479.26	10815.62
479.44	10927.96
479.62	11124.57
479.80	11103.50
479.98	10906.90
480.16	11367.98
480.34	11382.03
480.52	11421.81
480.70	11344.58
480.88	11339.90
481.06	11276.70
481.24	11585.65
481.41	11630.12
481.59	11927.37
481.77	12152.06
481.95	12060.78
482.13	12184.83
482.31	12037.38
482.49	12203.55
482.67	12461.01
482.85	12526.55
483.03	12608.47
483.21	12823.80
483.39	13064.87
483.57	12711.45
483.74	12945.50
483.92	13050.83
484.10	13029.76
484.28	13404.25
484.46	13642.98
484.64	13584.47
484.82	13383.18
485.00	13799.80
485.18	13790.44
485.35	13949.59
485.53	13977.68
485.71	14061.94
485.89	14618.99
486.07	14317.06
486.25	14548.77
486.43	14480.89
486.61	14347.48
486.78	14878.79
486.96	14806.23
487.14	15161.99
487.32	14822.61
487.50	15007.52
487.68	15382.00
487.85	15396.04
488.03	15665.21
488.21	15850.11
488.39	15910.96
488.57	16016.29
488.75	16264.38
488.92	16685.68
489.10	16491.41
489.28	16388.43
489.46	16606.10
489.64	16678.66
489.81	16765.26
489.99	16915.05
490.17	17029.74
490.35	17266.13
490.53	17277.83
490.70	17240.39
490.88	17530.61
491.06	17394.86
491.24	17394.86
491.41	17661.68
491.59	17785.73
491.77	18176.60
491.95	18314.69
492.13	18244.48
492.30	18544.06
492.48	18389.59
492.66	18143.83
492.84	18534.70
493.01	18389.59
493.19	18668.11
493.37	19040.26
493.54	18939.62
493.72	19283.67
493.90	19234.52
494.08	19393.68
494.25	19562.20
494.43	19564.54
494.61	19896.89
494.79	20018.60
494.96	19838.38
495.14	20114.56
495.32	20271.38
495.49	20112.22
495.67	20292.44
495.85	20343.94
496.02	20683.31
496.20	20702.04
496.38	20690.34
496.55	21153.76
496.73	21376.11
496.91	21312.92
497.09	21160.78
497.26	21591.44
497.44	21511.86
497.62	21453.35
497.79	21764.64
497.97	21717.83
498.14	21837.20
498.32	22139.13
498.50	22312.33
498.67	22361.48
498.85	22153.17
499.03	22490.21
499.20	22857.67
499.38	22693.83
499.56	22459.78
499.73	22941.93
499.91	23126.83
500.08	23075.34
500.26	22649.36
500.44	22941.93
500.61	23096.41
500.79	23105.77
500.97	23337.48
501.14	23889.85
501.32	23747.08
501.49	23414.72
501.67	23531.75
501.84	23793.89
502.02	23948.36
502.20	23934.32
502.37	24247.95
502.55	24196.46
502.72	24166.03
502.90	23955.38
503.07	23817.29
503.25	24568.60
503.43	24086.45
503.60	24620.10
503.78	24608.39
503.95	24805.00
504.13	24589.67
504.30	25025.01
504.48	24727.76
504.65	24884.58
504.83	25142.03
505.01	25252.04
505.18	24905.64
505.36	25439.28
505.53	25401.83
505.71	25443.96
505.88	25448.64
506.06	25486.09
506.23	26059.52
506.41	25605.46
506.58	25766.96
506.76	26197.62
506.93	25975.27
507.11	26050.16
507.28	26178.89
507.46	26078.25
507.63	26307.62
507.81	26768.71
507.98	26654.02
508.16	26099.31
508.33	26462.10
508.50	26429.33
508.68	26602.53
508.85	26824.88
509.03	27000.42
509.20	27112.77
509.38	27321.07
509.55	27220.43
509.73	27168.94
509.90	27477.89
510.08	27461.51
510.25	27763.43
510.42	27793.86
510.60	27796.20
510.77	27667.47
510.95	27838.33
511.12	27840.67
511.30	27747.05
511.47	28346.23
511.64	28039.62
511.82	28538.15
511.99	28357.93
512.17	28631.77
512.34	28790.93
512.51	28802.63
512.69	28793.27
512.86	28760.50
513.04	28980.51
513.21	29160.73
513.38	28950.09
513.56	29252.02
513.73	29046.05
513.90	28966.47
514.08	28856.46
514.25	29387.77
514.43	29343.30
514.60	29734.17
514.77	29502.45
514.95	29575.01
515.12	29668.63
515.29	29371.38
515.47	30164.82
515.64	29748.21
515.81	29984.60
515.99	30431.65
516.16	30562.72
516.33	30209.29
516.51	30230.36
516.68	30024.39
516.85	30267.81
517.03	30588.46
517.20	30735.92
517.37	30691.44
517.54	31250.83
517.72	30707.83
517.89	30443.35
518.06	31033.16
518.24	31089.34
518.41	31229.77
518.58	30986.35
518.75	30979.33
518.93	31321.05
519.10	30960.61
519.27	31201.68
519.45	31271.90
519.62	31534.04
519.79	31400.63
519.96	31693.19
520.14	31424.03
520.31	31630.00
520.48	31470.84
520.65	31796.18
520.83	32180.03
521.00	32070.02
521.17	32011.51
521.34	32130.87
521.52	31852.35
521.69	32587.28
521.86	32652.81
522.03	32388.33
522.20	32456.21
522.38	32503.02
522.55	32601.32
522.72	32907.93
522.89	32720.69
523.07	32971.13
523.24	32631.75
523.41	33251.99
523.58	33118.58
523.75	33104.54
523.92	33174.75
524.10	33490.73
524.27	33317.53
524.44	33713.08
524.61	33715.42
524.78	33638.18
524.96	33186.46
525.13	33387.74
525.30	33780.95
525.47	34005.64
525.64	33848.83
525.81	33848.83
525.98	34330.98
526.16	33958.83
526.33	33661.58
526.50	34136.71
526.67	33881.60
526.84	34162.46
527.01	34017.35
527.18	34543.97
527.36	34665.67
527.53	34763.98
527.70	35227.40
527.87	34993.35
528.04	34162.46
528.21	34426.94
528.38	34672.70
528.55	34600.14
528.72	35028.46
528.89	34401.19
529.07	34890.37
529.24	35012.07
529.41	35131.44
529.58	34731.21
529.75	35236.77
529.92	35323.36
530.09	35236.77
530.26	34983.99
530.43	35227.40
530.60	35021.44
530.77	35133.78
530.94	35531.67
531.11	35538.69
531.28	35381.88
531.46	35325.71
531.63	35826.58
531.80	35758.70
531.97	35962.33
532.14	35723.60
532.31	36025.53
532.48	36048.93
532.65	36165.96
532.82	36095.74
532.99	35981.06
533.16	36205.75
533.33	36238.51
533.50	36699.60
533.67	36430.44
533.84	36318.09
534.01	36252.56
534.18	35835.94
534.35	36503.00
534.52	36634.06
534.69	37038.98
534.86	37139.62
535.03	36517.04
535.20	36669.17
535.37	37156.00
535.54	37038.98
535.71	36713.64
535.88	36708.96
536.05	36783.86
536.22	37390.06
536.38	37574.96
536.55	37387.72
536.72	37216.86
536.89	37294.10
537.06	36886.84
537.23	37708.37
537.40	37038.98
537.57	37521.13
537.74	37399.42
537.91	37663.90
538.08	37982.21
538.25	37813.70
538.42	37752.84
538.59	37453.25
538.75	37425.17
538.92	37256.65
539.09	37720.07
539.26	37879.23
539.43	37860.51
539.60	38337.98
539.77	37734.12
539.94	38532.24
540.11	38600.12
540.28	38209.25
540.44	38359.04
540.61	38169.46
540.78	38710.12
540.95	38506.49
541.12	39068.22
541.29	39152.48
541.46	38541.60
541.62	38824.81
541.79	38960.56
541.96	38272.44
542.13	38810.76
542.30	39166.52
542.47	38998.01
542.63	39124.40
542.80	39393.56
542.97	39337.38
543.14	39505.90
543.31	39459.09
543.48	39517.60
543.64	39725.91
543.81	40016.14
543.98	39974.01
544.15	40030.18
544.32	39828.90
544.48	39541.01
544.65	39669.74
544.82	39651.02
544.99	39592.50
545.16	39763.36
545.32	39796.13
545.49	40615.32
545.66	41237.90
545.83	40982.78
546.00	40685.53
546.16	40329.77
546.33	39665.06
546.50	39679.10
546.67	40231.47
546.83	40093.38
547.00	40182.32
547.17	40222.11
547.34	40437.44
547.50	40194.02
547.67	40577.87
547.84	40392.97
548.00	40495.95
548.17	40584.89
548.34	39974.01
548.51	40486.59
548.67	41055.34
548.84	40692.55
549.01	40612.98
549.18	41006.19
549.34	40308.71
549.51	40638.72
549.68	40346.15
549.84	40446.80
550.01	40491.27
550.18	40357.86
550.34	40690.21
550.51	40715.96
550.68	41294.07
550.84	40360.20
551.01	41148.96
551.18	40912.56
551.34	40467.86
551.51	40865.75
551.68	41060.02
551.84	41170.02
552.01	41116.19
552.18	41134.92
552.34	40762.77
552.51	41663.88
552.68	41130.23
552.84	41123.21
553.01	41305.77
553.18	41221.52
553.34	41312.80
553.51	41471.95
553.67	41418.12
553.84	41088.10
554.01	41614.72
554.17	41677.92
554.34	41357.27
554.51	41205.13
554.67	41263.64
554.84	41553.87
555.00	41471.95
555.17	41483.66
555.33	41951.76
555.50	41247.26
555.67	41874.52
555.83	41610.04
556.00	40989.80
556.16	42010.28
556.33	41432.16
556.50	41825.37
556.66	41560.89
556.83	41785.58
556.99	41748.14
557.16	41993.89
557.32	42043.04
557.49	41830.05
557.65	41043.63
557.82	41823.03
557.98	41588.98
558.15	42066.45
558.32	42227.95
558.48	41930.70
558.65	42557.96
558.81	42026.66
558.98	41958.78
559.14	42068.79
559.31	41741.11
559.47	42099.22
559.64	42096.88
559.80	42057.09
559.97	42213.90
560.13	42232.63
560.30	41881.55
560.46	41888.57
560.63	42115.60
560.79	42384.76
560.96	42712.44
561.12	42202.20
561.29	42218.58
561.45	42363.70
561.61	42483.06
561.78	42312.20
561.94	42422.21
562.11	42747.54
562.27	42354.33
562.44	42588.39
562.60	42068.79
562.77	42150.71
562.93	42368.38
563.10	42920.74
563.26	42583.71
563.42	43110.33
563.59	42717.12
563.75	42609.45
563.92	42464.34
564.08	42054.75
564.24	42471.36
564.41	42108.58
564.57	42522.85
564.74	42974.58
564.90	42714.78
565.07	43086.92
565.23	42808.40
565.39	42969.90
565.56	42700.73
565.72	42511.15
565.88	42906.70
566.05	42707.76
566.21	42539.24
566.38	42553.28
566.54	42508.81
566.70	42735.84
566.87	43360.76
567.03	42871.59
567.19	43302.25
567.36	43428.64
567.52	42733.50
567.68	42808.40
567.85	42745.20
568.01	42759.25
568.17	42916.06
568.34	43147.78
568.50	42939.47
568.66	42707.76
568.83	43115.01
568.99	42707.76
569.15	42953.51
569.32	42593.07
569.48	42834.14
569.64	43274.16
569.81	42845.85
569.97	42972.24
570.13	43435.66
570.30	43187.56
570.46	42969.90
570.62	42958.19
570.78	42777.97
570.95	42820.10
571.11	42913.72
571.27	42810.74
571.43	42934.79
571.60	42885.64
571.76	43154.80
571.92	43452.05
572.09	43435.66
572.25	43180.54
572.41	43320.98
572.57	43152.46
572.74	43611.20
572.90	43040.11
573.06	42967.55
573.22	43320.98
573.38	42803.72
573.55	42902.02
573.71	43105.65
573.87	43379.49
574.03	42925.42
574.20	43215.65
574.36	42887.98
574.52	43117.35
574.68	43056.50
574.84	43199.27
575.01	42948.83
575.17	43447.36
575.33	43318.64
575.49	43320.98
575.65	43578.43
575.82	43395.87
575.98	43129.05
576.14	43234.38
576.30	43510.56
576.46	43246.08
576.62	43548.01
576.79	43161.82
576.95	43206.29
577.11	43461.41
577.27	43199.27
577.43	43019.05
577.59	43285.87
577.75	43505.88
577.92	42972.24
578.08	43093.94
578.24	43065.86
578.40	43573.75
578.56	43398.21
578.72	43756.32
578.88	43690.78
579.04	44151.87
579.21	43320.98
579.37	43718.87
579.53	43353.74
579.69	43416.94
579.85	43576.09
580.01	43402.89
580.17	43363.11
580.33	43498.86
580.49	43407.58
580.65	43613.54
580.82	43838.23
580.98	43695.46
581.14	43735.25
581.30	43508.22
581.46	43402.89
581.62	43199.27
581.78	43484.81
581.94	43438.00
582.10	43182.88
582.26	43770.36
582.42	43704.82
582.58	43335.02
582.74	43496.52
582.90	43515.24
583.06	43812.49
583.22	43285.87
583.38	43693.12
583.54	43178.20
583.70	43215.65
583.86	43629.93
584.02	43313.95
584.18	43976.33
584.34	43627.59
584.50	44329.75
584.66	43798.44
584.82	43400.55
584.98	43608.86
585.14	43297.57
585.30	43590.14
585.46	43615.88
585.62	43323.32
585.78	43524.60
585.94	43189.91
586.10	43592.48
586.26	43676.74
586.42	43988.03
586.58	43805.47
586.74	43922.49
586.90	43466.09
587.06	43040.11
587.22	43749.29
587.38	43536.30
587.54	43454.39
587.70	44065.27
587.86	44065.27
588.02	43765.68
588.18	43976.33
588.34	43648.65
588.49	43482.47
588.65	43672.06
588.81	43894.41
588.97	43634.61
589.13	43608.86
589.29	43646.31
589.45	44016.11
589.61	43920.15
589.77	44037.18
589.93	43866.32
590.08	44032.50
590.24	44123.78
590.40	44044.20
590.56	44179.95
590.72	43910.79
590.88	43728.23
591.04	44062.93
591.20	44399.96
591.35	44259.53
591.51	44706.57
591.67	44245.49
591.83	44252.51
591.99	44481.88
592.15	44123.78
592.31	43667.37
592.46	44107.40
592.62	43732.91
592.78	44245.49
592.94	44081.65
593.10	44179.95
593.26	44088.67
593.41	43910.79
593.57	44142.50
593.73	43899.09
593.89	44308.68
594.05	44053.56
594.20	43683.76
594.36	44282.94
594.52	43529.28
594.68	43973.98
594.84	43962.28
594.99	43936.54
595.15	44144.84
595.31	44165.91
595.47	43667.37
595.62	44179.95
595.78	43962.28
595.94	43999.73
596.10	44123.78
596.25	43669.72
596.41	43604.18
596.57	43709.50
596.73	44091.01
596.88	44163.57
597.04	44271.23
597.20	44252.51
597.36	44123.78
597.51	44219.74
597.67	43746.95
597.83	44116.76
597.99	44435.07
598.14	43559.71
598.30	43725.89
598.46	44268.89
598.61	44032.50
598.77	43725.89
598.93	44048.88
599.09	44533.37
599.24	44392.94
599.40	44313.36
599.56	44472.52
599.71	44126.12
599.87	43978.67
600.03	44273.57
600.18	44299.32
600.34	44086.33
600.50	44161.23
600.65	44327.41
600.81	44680.83
600.97	44399.96
601.12	44519.33
601.28	44638.70
601.44	44289.96
601.59	44179.95
601.75	44222.08
601.91	43922.49
602.06	43690.78
602.22	44182.29
602.37	43847.60
602.53	43985.69
602.69	44226.76
602.84	43756.32
603.00	43995.05
603.16	44563.80
603.31	43988.03
603.47	44137.82
603.62	43990.37
603.78	44088.67
603.94	43761.00
604.09	44119.10
604.25	43903.77
604.40	43756.32
604.56	43913.13
604.71	44591.89
604.87	43676.74
605.03	43739.93
605.18	44151.87
605.34	43887.39
605.49	44034.84
605.65	43810.15
605.80	43763.34
605.96	43887.39
606.12	43351.40
606.27	43882.70
606.43	44095.69
606.58	43917.81
606.74	43929.51
606.89	44102.71
607.05	43924.83
607.20	43763.34
607.36	43995.05
607.51	43653.33
607.67	43393.53
607.82	43356.08
607.98	43440.34
608.13	43765.68
608.29	43920.15
608.44	43580.78
608.60	44020.80
608.75	44236.12
608.91	44362.51
609.06	44011.43
609.22	44348.47
609.37	43423.96
609.53	43480.13
609.68	43833.55
609.84	43695.46
609.99	43538.65
610.15	43835.89
610.30	44107.40
610.46	44149.53
610.61	44414.01
610.76	44177.61
610.92	44257.19
611.07	44594.23
611.23	44683.17
611.38	44498.26
611.54	44250.17
611.69	43906.11
611.84	43971.64
612.00	43627.59
612.15	43618.22
612.31	43756.32
612.46	43454.39
612.62	44095.69
612.77	43601.84
612.92	43889.73
613.08	43524.60
613.23	43983.35
613.39	43152.46
613.54	43086.92
613.69	43140.75
613.85	43126.71
614.00	43145.44
614.15	43639.29
614.31	43079.90
614.46	43093.94
614.62	43491.83
614.77	43381.83
614.92	43461.41
615.08	43658.01
615.23	42979.26
615.38	43187.56
615.54	43075.22
615.69	42916.06
615.84	42431.57
616.00	43058.84
616.15	42820.10
616.30	42960.53
616.46	42995.64
616.61	43070.54
616.76	43009.68
616.92	42974.58
617.07	42569.66
617.22	42848.19
617.37	42588.39
617.53	42440.93
617.68	43054.15
617.83	42309.86
617.99	42653.92
618.14	42773.29
618.29	42787.33
618.45	42300.50
618.60	42562.64
618.75	42630.52
618.90	42724.14
619.06	42794.36
619.21	42227.95
619.36	42836.48
619.51	41954.10
619.67	42183.48
619.82	42258.37
619.97	42756.91
620.12	42192.84
620.28	41956.44
620.43	42401.14
620.58	42639.88
620.73	42122.62
620.89	42667.97
621.04	42625.84
621.19	42237.31
621.34	41911.97
621.49	42078.15
621.65	41460.25
621.80	42071.13
621.95	41460.25
622.10	42101.56
622.25	41865.16
622.41	41926.02
622.56	41673.24
622.71	42447.96
622.86	42192.84
623.01	41965.81
623.16	41745.80
623.32	41745.80
623.47	42040.70
623.62	41820.69
623.77	41766.86
623.92	41720.05
624.07	41696.64
624.23	41668.56
624.38	42052.41
624.53	41708.35
624.68	41933.04
624.83	41797.29
624.98	41853.46
625.13	41413.44
625.29	41677.92
625.44	41467.27
625.59	41228.54
625.74	41151.30
625.89	41006.19
626.04	41177.04
626.19	41261.30
626.34	41116.19
626.49	40821.28
626.65	41233.22
626.80	41511.74
626.95	40985.12
627.10	41287.05
627.25	41170.02
627.40	41228.54
627.55	40725.32
627.70	41240.24
627.85	41240.24
628.00	40861.07
628.15	40921.93
628.30	40315.73
628.45	41188.75
628.60	40872.78
628.76	41200.45
628.91	41270.67
629.06	40718.30
629.21	41397.06
629.36	40921.93
629.51	40816.60
629.66	40837.67
629.81	40205.72
629.96	40563.82
630.11	40793.20
630.26	41137.26
630.41	40730.00
630.56	40526.38
630.71	40889.16
630.86	41029.59
631.01	40479.57
631.16	40807.24
631.31	40851.71
631.46	40229.13
631.61	40554.46
631.76	40346.15
631.91	40568.51
632.06	40336.79
632.21	40130.83
632.36	40325.09
632.51	40126.14
632.66	40561.48
632.81	39761.02
632.96	40627.02
633.10	39959.97
633.25	40172.96
633.40	40383.60
633.55	40151.89
633.70	39903.79
633.85	39861.66
634.00	39803.15
634.15	40055.93
634.30	39964.65
634.45	39800.81
634.60	39917.84
634.75	40086.36
634.90	39878.05
635.05	40088.70
635.19	39646.33
635.34	39821.87
635.49	39803.15
635.64	39545.69
635.79	40002.10
635.94	39501.22
636.09	39372.49
636.24	39522.29
636.39	39304.62
636.53	39693.15
636.68	39395.90
636.83	39494.20
636.98	39622.93
637.13	39704.85
637.28	39772.72
637.43	39690.80
637.57	39761.02
637.72	39138.44
637.87	39849.96
638.02	38831.83
638.17	39377.17
638.32	38960.56
638.46	39026.09
638.61	39115.03
638.76	39014.39
638.91	39058.86
639.06	39398.24
639.20	39445.05
639.35	39058.86
639.50	39206.31
639.65	39517.60
639.80	39517.60
639.94	39241.42
640.09	38995.67
640.24	38824.81
640.39	39250.78
640.54	38672.67
640.68	38574.37
640.83	38810.76
640.98	39019.07
641.13	38672.67
641.27	38838.85
641.42	38806.08
641.57	38885.66
641.72	38759.27
641.86	38995.67
642.01	38630.54
642.16	38787.36
642.31	38611.82
642.45	38990.98
642.60	38553.30
642.75	38880.98
642.90	38230.31
643.04	38167.12
643.19	38494.79
643.34	38682.03
643.48	38642.24
643.63	38873.96
643.78	38553.30
643.93	38462.02
644.07	38483.09
644.22	38628.20
644.37	38438.62
644.51	38590.75
644.66	38663.31
644.81	38227.97
644.95	38410.53
645.10	38529.90
645.25	38197.54
645.39	38242.01
645.54	38300.53
645.69	38361.38
645.83	38277.12
645.98	37968.17
646.13	38464.36
646.27	38253.72
646.42	37944.76
646.57	38422.23
646.71	38279.46
646.86	37982.21
647.00	38010.30
647.15	38314.57
647.30	37858.17
647.44	37961.15
647.59	38059.45
647.74	37766.88
647.88	37823.06
648.03	38227.97
648.17	37956.47
648.32	38031.36
648.47	38054.77
648.61	37385.38
648.76	37930.72
648.90	37799.65
649.05	37663.90
649.20	37900.29
649.34	37825.40
649.49	37448.57
649.63	37574.96
649.78	37652.20
649.92	37703.69
650.07	37832.42
650.21	37773.91
650.36	37755.18
650.51	38038.39
650.65	38012.64
650.80	37661.56
650.94	37617.09
651.09	37322.18
651.23	37221.54
651.38	37031.96
651.52	37282.39
651.67	37324.52
651.81	37141.96
651.96	37256.65
652.10	37361.97
652.25	37118.56
652.39	37532.83
652.54	37605.39
652.68	37750.50
652.83	37106.85
652.97	37383.04
653.12	37385.38
653.26	37060.04
653.41	37448.57
653.55	36921.95
653.70	36818.97
653.84	37490.70
653.99	37015.57
654.13	36940.68
654.27	36966.42
654.42	36933.65
654.56	36680.88
654.71	37053.02
654.85	36680.88
655.00	36858.76
655.14	36882.16
655.29	36762.79
655.43	36580.23
655.57	36495.97
655.72	36577.89
655.86	36711.30
656.01	36348.52
656.15	36327.45
656.30	36453.84
656.44	36542.78
656.58	36371.92
656.73	36444.48
656.87	36486.61
657.01	36531.08
657.16	36563.85
657.30	36219.79
657.45	36383.63
657.59	36198.73
657.73	36236.17
657.88	36154.26
658.02	36051.27
658.16	36100.42
658.31	36687.90
658.45	36142.55
658.60	35908.50
658.74	35704.87
658.88	36161.28
659.03	36095.74
659.17	35964.67
659.31	36025.53
659.46	36112.13
659.60	35704.87
659.74	35819.56
659.89	35899.14
660.03	35618.27
660.17	35786.79
660.32	35428.69
660.46	35763.39
660.60	35236.77
660.74	35629.98
660.89	35515.29
661.03	35166.55
661.17	35356.13
661.32	35339.75
661.46	35690.83
661.60	35377.20
661.74	35377.20
661.89	35213.36
662.03	35447.41
662.17	34768.66
662.31	34979.31
662.46	35409.96
662.60	35016.75
662.74	34932.50
662.88	35138.46
663.03	34717.17
663.17	34705.46
663.31	34621.20
663.45	34653.97
663.60	34691.42
663.74	34595.46
663.88	34607.16
664.02	34384.81
664.17	34850.58
664.31	34396.51
664.45	34349.70
664.59	34338.00
664.73	34265.44
664.88	34366.09
665.02	34146.08
665.16	34230.33
665.30	34038.41
665.44	33792.65
665.59	33663.93
665.73	33668.61
665.87	34352.04
666.01	33853.51
666.15	33628.82
666.29	34134.37
666.44	33631.16
666.58	33514.13
666.72	33919.04
666.86	34155.44
667.00	33795.00
667.14	33422.85
667.28	33507.11
667.43	33762.23
667.57	33371.36
667.71	33237.95
667.85	32921.98
667.99	33156.03
668.13	33097.52
668.27	33076.45
668.41	33141.99
668.56	32797.93
668.70	33425.19
668.84	33226.24
668.98	33029.64
669.12	32818.99
669.26	33036.66
669.40	32898.57
669.54	32734.73
669.68	32989.85
669.82	32772.18
669.96	32423.44
670.10	32676.22
670.25	32762.82
670.39	32783.88
670.53	32151.94
670.67	31744.69
670.81	32053.64
670.95	32547.49
671.09	32575.58
671.23	32165.98
671.37	32016.19
671.51	32491.32
671.65	32039.59
671.79	31882.78
671.93	31777.45
672.07	31569.15
672.21	31421.69
672.35	31346.79
672.49	31498.93
672.63	31442.76
672.77	31487.23
672.91	31119.76
673.05	31225.09
673.19	31208.70
673.33	31409.99
673.47	30801.45
673.61	31267.22
673.75	31016.78
673.89	30944.22
674.03	31386.58
674.17	30909.11
674.31	30731.23
674.45	30347.39
674.59	30913.80
674.73	30504.20
674.87	30464.41
675.01	30663.36
675.15	30506.54
675.29	30567.40
675.43	30366.11
675.56	30398.88
675.70	30272.49
675.84	30162.48
675.98	29198.18
676.12	30525.27
676.26	30225.68
676.40	30202.27
676.54	30302.92
676.68	30045.46
676.82	29448.62
676.96	29591.39
677.10	29450.96
677.23	28959.45
677.37	28936.04
677.51	29097.54
677.65	29193.50
677.79	28814.34
677.93	28989.88
678.07	28966.47
678.21	28945.41
678.34	29193.50
678.48	28559.22
678.62	28788.59
678.76	28210.48
678.90	28187.07
679.04	28329.84
679.18	28526.45
679.31	28353.25
679.45	27735.35
679.59	27637.05
679.73	27346.82
679.87	27566.83
680.00	27494.27
680.14	27323.41
680.28	27517.68
680.42	27463.85
680.56	27292.99
680.70	27363.20
680.83	27402.99
680.97	26979.36
681.11	27154.90
681.25	27384.27
681.39	26841.26
681.52	27080.00
681.66	27402.99
681.80	26721.90
681.94	26731.26
682.07	26892.76
682.21	26265.49
682.35	26120.38
682.49	26108.68
682.62	26246.77
682.76	25919.09
682.90	25923.77
683.04	26045.48
683.17	25961.22
683.31	25982.29
683.45	25813.77
683.59	25781.00
683.72	25666.31
683.86	25425.24
684.00	25617.16
684.13	25263.74
684.27	25432.26
684.41	25001.60
684.55	25008.62
684.68	24933.73
684.82	24734.78
684.96	24905.64
685.09	24479.66
685.23	24912.66
685.37	24456.26
685.50	25219.27
685.64	24573.28
685.78	24631.80
685.91	24779.25
686.05	24746.48
686.19	23864.10
686.32	24201.14
686.46	24175.39
686.60	23882.83
686.73	24196.46
686.87	23831.33
687.01	23857.08
687.14	23494.30
687.28	23468.55
687.42	23817.29
687.55	23115.13
687.69	23363.23
687.82	23264.92
687.96	23026.19
688.10	23559.83
688.23	23201.73
688.37	22731.28
688.50	23124.49
688.64	22647.02
688.78	22654.05
688.91	22532.34
689.05	22628.30
689.18	22113.38
689.32	21898.05
689.46	22050.19
689.59	22185.94
689.73	22059.55
689.86	21902.73
690.00	22087.64
690.13	22221.05
690.27	21970.61
690.41	22026.78
690.54	21387.82
690.68	21549.31
690.81	21500.16
690.95	21682.72
691.08	21647.61
691.22	21675.70
691.35	21387.82
691.49	21429.94
691.62	21275.47
691.76	21020.35
691.89	20940.77
692.03	20467.98
692.16	20659.91
692.30	20624.80
692.43	20776.94
692.57	20575.65
692.70	20751.19
692.84	20023.28
692.97	20563.95
693.11	20355.64
693.24	20299.47
693.38	20098.18
693.51	20149.67
693.65	20074.77
693.78	19990.52
693.92	19859.45
694.05	19871.15
694.19	19744.76
694.32	19665.18
694.45	19360.91
694.59	19161.97
694.72	19271.97
694.86	19098.77
694.99	18913.87
695.13	18906.85
695.26	19314.10
695.39	19194.73
695.53	19421.77
695.66	19087.07
695.80	19054.30
695.93	18827.27
696.07	18396.61
696.20	18728.97
696.33	18874.08
696.47	18527.68
696.60	18534.70
696.73	18352.14
696.87	18073.62
697.00	18157.88
697.14	17867.65
697.27	17846.58
697.40	17724.88
697.54	17752.96
697.67	17589.13
697.80	17687.43
697.94	17209.96
698.07	17383.16
698.21	17500.19
698.34	17401.88
698.47	17397.20
698.61	17043.78
698.74	17308.26
698.87	17444.01
699.01	16936.12
699.14	16760.58
699.27	16870.58
699.40	17013.35
699.54	16645.89
699.67	16358.00
699.80	16390.77
699.94	16428.22
700.07	16329.92
700.20	16194.17
700.34	16051.39
700.47	16142.67
700.60	15978.84
700.73	16084.16
700.87	16140.33
701.00	16002.24
701.13	16067.78
701.26	15829.04
701.40	15693.29
701.53	15527.11
701.66	15784.57
701.79	15646.48
701.93	15342.21
702.06	15459.24
702.19	15286.04
702.32	15075.39
702.46	15105.82
702.59	15140.93
702.72	14831.97
702.85	14691.54
702.99	14960.70
703.12	14736.01
703.25	14675.16
703.38	14778.14
703.51	14813.25
703.65	14820.27
703.78	14731.33
703.91	14516.00
704.04	14333.44
704.17	14441.11
704.31	14164.92
704.44	14183.65
704.57	13965.98
704.70	14111.09
704.83	13877.04
704.96	13832.57
705.10	13858.31
705.23	13949.59
>>>>>End Processed Spectral Data<<<<<
