SpectraSuite Data File
++++++++++++++++++++++++++++++++++++
Date: Fri Oct 04 11:39:17 GMT-05:00 2013
User: price-jones
Dark Spectrum Present: No
Reference Spectrum Present: No
Number of Sampled Component Spectra: 1
Spectrometers: USB2+H05261
Integration Time (usec): 100000 (USB2+H05261)
Spectra Averaged: 1 (USB2+H05261)
Boxcar Smoothing: 0 (USB2+H05261)
Correct for Electrical Dark: No (USB2+H05261)
Strobe/Lamp Enabled: No (USB2+H05261)
Correct for Detector Non-linearity: No (USB2+H05261)
Correct for Stray Light: No (USB2+H05261)
Number of Pixels in Processed Spectrum: 2048
>>>>>Begin Processed Spectral Data<<<<<
365.73	72.56
365.92	72.56
366.12	72.56
366.32	0.00
366.52	0.00
366.72	0.00
366.91	0.00
367.11	0.00
367.31	0.00
367.51	0.00
367.70	0.00
367.90	30.43
368.10	0.00
368.30	0.00
368.49	0.00
368.69	0.00
368.89	0.00
369.09	0.00
369.28	0.00
369.48	0.00
369.68	0.00
369.87	23.41
370.07	0.00
370.27	9.36
370.47	86.60
370.66	152.13
370.86	201.29
371.06	301.93
371.25	301.93
371.45	292.57
371.65	245.76
371.84	243.42
372.04	285.55
372.24	252.78
372.44	308.95
372.63	365.12
372.83	411.93
373.03	332.36
373.22	346.40
373.42	334.70
373.62	332.36
373.81	351.08
374.01	355.76
374.21	311.29
374.40	365.12
374.60	414.27
374.79	395.55
374.99	332.36
375.19	320.65
375.38	395.55
375.58	456.40
375.78	360.44
375.97	386.19
376.17	444.70
376.37	428.32
376.56	421.30
376.76	376.83
376.95	458.74
377.15	411.93
377.35	428.32
377.54	430.66
377.74	470.45
377.93	386.19
378.13	386.19
378.33	388.53
378.52	407.25
378.72	447.04
378.91	482.15
379.11	433.00
379.31	374.49
379.50	435.34
379.70	423.64
379.89	486.83
380.09	423.64
380.28	449.38
380.48	465.77
380.68	418.96
380.87	472.79
381.07	430.66
381.26	524.28
381.46	500.87
381.65	554.71
381.85	463.43
382.04	510.24
382.24	543.00
382.43	512.58
382.63	489.17
382.83	493.85
383.02	540.66
383.22	477.47
383.41	512.58
383.61	451.72
383.80	458.74
384.00	475.13
384.19	500.87
384.39	503.22
384.58	545.34
384.78	510.24
384.97	524.28
385.17	552.37
385.36	496.19
385.56	468.11
385.75	528.96
385.95	538.32
386.14	580.45
386.34	582.79
386.53	545.34
386.72	594.50
386.92	660.03
387.11	559.39
387.31	533.64
387.50	603.86
387.70	564.07
387.89	587.47
388.09	535.98
388.28	566.41
388.48	538.32
388.67	662.37
388.86	615.56
389.06	582.79
389.25	692.80
389.45	692.80
389.64	631.94
389.84	599.18
390.03	653.01
390.22	596.84
390.42	624.92
390.61	592.16
390.81	587.47
391.00	660.03
391.19	734.93
391.39	699.82
391.58	631.94
391.78	676.41
391.97	690.46
392.16	613.22
392.36	727.91
392.55	638.97
392.75	716.20
392.94	674.07
393.13	737.27
393.33	720.88
393.52	695.14
393.71	744.29
393.91	718.54
394.10	725.57
394.29	713.86
394.49	711.52
394.68	816.85
394.88	837.91
395.07	842.59
395.26	786.42
395.46	880.04
395.65	777.06
395.84	791.10
396.04	854.30
396.23	847.27
396.42	866.00
396.62	929.19
396.81	875.36
397.00	807.48
397.19	873.02
397.39	898.77
397.58	903.45
397.77	905.79
397.97	903.45
398.16	954.94
398.35	978.34
398.55	1076.65
398.74	919.83
398.93	987.71
399.12	978.34
399.32	961.96
399.51	978.34
399.70	1020.47
399.90	933.87
400.09	1034.52
400.28	1006.43
400.47	1100.05
400.67	1057.92
400.86	1055.58
401.05	1057.92
401.24	1001.75
401.44	1053.24
401.63	1235.80
401.82	1102.39
402.01	1095.37
402.21	1163.25
402.40	1217.08
402.59	1102.39
402.78	1160.91
402.97	1125.80
403.17	1299.00
403.36	1207.72
403.55	1238.14
403.74	1268.57
403.93	1275.59
404.13	1306.02
404.32	1348.15
404.51	1399.64
404.70	1291.98
404.89	1221.76
405.09	1383.26
405.28	1313.04
405.47	1352.83
405.66	1315.38
405.85	1427.73
406.05	1416.02
406.24	1329.42
406.43	1404.32
406.62	1397.30
406.81	1460.49
407.00	1472.20
407.20	1495.60
407.39	1385.60
407.58	1493.26
407.77	1563.48
407.96	1603.27
408.15	1575.18
408.34	1511.99
408.54	1586.88
408.73	1589.22
408.92	1570.50
409.11	1640.72
409.30	1614.97
409.49	1614.97
409.68	1617.31
409.87	1645.40
410.07	1645.40
410.26	1692.21
410.45	1743.70
410.64	1762.42
410.83	1778.81
411.02	1783.49
411.21	1818.60
411.40	1886.47
411.59	1870.09
411.78	1928.60
411.98	1952.01
412.17	1907.54
412.36	1902.86
412.55	1952.01
412.74	1996.48
412.93	2073.71
413.12	1966.05
413.31	2146.27
413.50	1991.80
413.69	2125.21
413.88	2127.55
414.07	2157.97
414.26	2083.08
414.45	2223.51
414.64	2141.59
414.83	2162.66
415.02	2307.77
415.22	2356.92
415.41	2370.96
415.60	2307.77
415.79	2401.39
415.98	2333.51
416.17	2406.07
416.36	2450.54
416.55	2408.41
416.74	2420.11
416.93	2504.37
417.12	2459.90
417.31	2541.82
417.50	2523.10
417.69	2661.19
417.88	2686.94
418.07	2637.78
418.26	2565.23
418.45	2654.17
418.64	2775.88
418.83	2672.89
419.02	2663.53
419.21	2768.85
419.39	2836.73
419.58	2813.32
419.77	2729.06
419.96	2785.24
420.15	2902.26
420.34	2801.62
420.53	2827.37
420.72	2841.41
420.91	2942.05
421.10	2925.67
421.29	2979.50
421.48	2902.26
421.67	2956.10
421.86	3009.93
422.05	3054.40
422.24	2850.77
422.43	2937.37
422.61	3007.59
422.80	3045.04
422.99	3122.27
423.18	3173.77
423.37	3124.62
423.56	3133.98
423.75	3103.55
423.94	3042.70
424.13	2853.11
424.32	2862.48
424.50	3091.85
424.69	3155.04
424.88	3162.06
425.07	3248.66
425.26	3035.67
425.45	3112.91
425.64	3178.45
425.83	3152.70
426.01	3229.94
426.20	3103.55
426.39	3112.91
426.58	3141.00
426.77	3133.98
426.96	3159.72
427.15	3180.79
427.33	3353.99
427.52	3218.24
427.71	3265.05
427.90	3300.16
428.09	3328.24
428.28	3372.71
428.46	3417.18
428.65	3356.33
428.84	3473.36
429.03	3552.93
429.22	3330.58
429.40	3321.22
429.59	3463.99
429.78	3400.80
429.97	3375.05
430.16	3353.99
430.34	3405.48
430.53	3550.59
430.72	3398.46
430.91	3482.72
431.10	3499.10
431.28	3524.85
431.47	3812.73
431.66	3686.34
431.85	3590.38
432.03	3508.46
432.22	3747.20
432.41	3655.92
432.60	3674.64
432.79	3658.26
432.97	3784.65
433.16	3751.88
433.35	3838.48
433.54	3901.67
433.72	3896.99
433.91	3833.80
434.10	3864.22
434.28	3815.07
434.47	3791.67
434.66	3845.50
434.85	3927.42
435.03	3990.61
435.22	4222.33
435.41	4329.99
435.59	4491.49
435.78	4257.43
435.97	4091.26
436.16	4224.67
436.34	4133.39
436.53	4189.56
436.72	4215.30
436.90	4119.34
437.09	4100.62
437.28	4145.09
437.46	4039.76
437.65	4231.69
437.84	4215.30
438.02	4381.48
438.21	4325.31
438.40	4067.85
438.58	4372.12
438.77	4369.78
438.96	4535.96
439.14	4550.00
439.33	4479.79
439.52	4634.26
439.70	4610.86
439.89	4741.93
440.08	4695.11
440.26	4526.60
440.45	4627.24
440.63	4833.21
440.82	4704.48
441.01	4772.35
441.19	4795.76
441.38	4805.12
441.57	4847.25
441.75	5095.35
441.94	5083.64
442.12	5198.33
442.31	5177.26
442.50	5095.35
442.68	5109.39
442.87	5160.88
443.05	5146.84
443.24	5149.18
443.43	5203.01
443.61	5097.69
443.80	5317.70
443.98	5135.14
444.17	5109.39
444.35	5378.55
444.54	5406.64
444.73	5224.08
444.91	5233.44
445.10	5093.01
445.28	5310.68
445.47	5210.03
445.65	5247.48
445.84	5317.70
446.02	5352.81
446.21	5245.14
446.39	5317.70
446.58	5296.63
446.77	5551.75
446.95	5301.31
447.14	5439.40
447.32	5301.31
447.51	5301.31
447.69	5387.91
447.88	5336.42
448.06	5336.42
448.25	5289.61
448.43	5210.03
448.62	5554.09
448.80	5408.98
448.99	5418.34
449.17	5488.56
449.36	5551.75
449.54	5614.95
449.73	5652.39
449.91	5544.73
450.10	5746.02
450.28	5767.08
450.46	5687.50
450.65	5816.23
450.83	5710.91
451.02	5757.72
451.20	5884.11
451.39	5804.53
451.57	5802.19
451.76	5689.84
451.94	5884.11
452.13	6010.50
452.31	6029.22
452.49	5991.77
452.68	5806.87
452.86	5816.23
453.05	5881.77
453.23	5982.41
453.42	5947.30
453.60	6012.84
453.78	6001.13
453.97	6122.84
454.15	6183.70
454.34	6066.67
454.52	6143.91
454.70	6232.85
454.89	6106.46
455.07	6136.88
455.26	6253.91
455.44	6380.30
455.62	6314.77
455.81	6209.44
455.99	6497.33
456.17	6382.64
456.36	6256.25
456.54	6494.99
456.73	6490.31
456.91	6462.22
457.09	6532.44
457.28	6637.76
457.46	6555.84
457.64	6733.72
457.83	6612.01
458.01	6373.28
458.19	6455.20
458.38	6586.27
458.56	6712.66
458.74	6778.19
458.93	6778.19
459.11	6878.83
459.29	6932.67
459.48	6722.02
459.66	6799.26
459.84	7091.82
460.03	6981.82
460.21	6967.77
460.39	6984.16
460.57	6967.77
460.76	7021.61
460.94	7133.95
461.12	7035.65
461.31	7000.54
461.49	7000.54
461.67	7157.36
461.85	7456.95
462.04	7108.21
462.22	7726.11
462.40	7337.58
462.59	7295.45
462.77	7180.76
462.95	7293.11
463.13	7260.34
463.32	7400.77
463.50	7424.18
463.68	7304.81
463.86	7456.95
464.05	7527.16
464.23	7265.02
464.41	7447.58
464.59	7358.64
464.78	7620.78
464.96	7400.77
465.14	7494.40
465.32	7644.19
465.50	7712.07
465.69	7559.93
465.87	7461.63
466.05	7632.49
466.23	7602.06
466.41	7686.32
466.60	8065.49
466.78	7740.15
466.96	7520.14
467.14	7634.83
467.32	7868.88
467.51	8100.59
467.69	7728.45
467.87	7709.72
468.05	7822.07
468.23	7967.18
468.41	8032.72
468.60	7838.45
468.78	8234.00
468.96	7709.72
469.14	8074.85
469.32	8056.12
469.50	7850.16
469.69	8226.98
469.87	8234.00
470.05	8283.16
470.23	8423.59
470.41	8304.22
470.59	8182.51
470.77	8290.18
470.95	8489.12
471.14	8662.32
471.32	8234.00
471.50	8760.63
471.68	8603.81
471.86	8510.19
472.04	8667.00
472.22	8636.58
472.40	8482.10
472.58	8851.91
472.77	8645.94
472.95	8709.13
473.13	9018.08
473.31	8926.80
473.49	8727.86
473.67	8917.44
473.85	8844.88
474.03	8966.59
474.21	9006.38
474.39	9144.47
474.57	9315.33
474.75	9371.50
474.93	9430.02
475.12	9263.84
475.30	9509.60
475.48	9497.89
475.66	9617.26
475.84	9446.40
476.02	9745.99
476.20	9699.18
476.38	9968.34
476.56	9970.68
476.74	10005.79
476.92	10012.81
477.10	9802.16
477.28	9966.00
477.46	9951.96
477.64	10284.31
477.82	10281.97
478.00	10452.83
478.18	10431.77
478.36	10665.82
478.54	10684.55
478.72	10874.13
478.90	10813.28
479.08	10930.30
479.26	10970.09
479.44	11054.35
479.62	11178.40
479.80	11372.66
479.98	11272.02
480.16	11360.96
480.34	11398.41
480.52	11920.35
480.70	11721.40
480.88	11375.00
481.06	11850.13
481.24	11705.02
481.41	11960.14
481.59	12315.90
481.77	12222.28
481.95	12135.68
482.13	12585.06
482.31	12276.11
482.49	12336.96
482.67	12695.07
482.85	12931.46
483.03	12767.62
483.21	13107.00
483.39	13027.42
483.57	13259.13
483.74	13228.71
483.92	13373.82
484.10	13125.72
484.28	13540.00
484.46	14047.90
484.64	14012.79
484.82	13472.12
485.00	14061.94
485.18	14427.06
485.35	14394.29
485.53	14101.73
485.71	14464.51
485.89	14752.40
486.07	14721.97
486.25	14787.50
486.43	14864.74
486.61	14635.37
486.78	15211.14
486.96	15428.81
487.14	15199.44
487.32	15473.28
487.50	15555.20
487.68	15447.54
487.85	15882.88
488.03	16070.12
488.21	16226.93
488.39	16236.30
488.57	16301.83
488.75	16559.29
488.92	16903.35
489.10	16996.97
489.28	16833.13
489.46	17097.61
489.64	16989.95
489.81	17200.60
489.99	17256.77
490.17	17193.58
490.35	17685.09
490.53	17666.36
490.70	18188.30
490.88	17813.82
491.06	18050.21
491.24	17958.93
491.41	17994.04
491.59	18302.99
491.77	18232.77
491.95	18539.38
492.13	18890.46
492.30	19044.94
492.48	18878.76
492.66	18743.01
492.84	18965.36
493.01	19431.13
493.19	19232.18
493.37	19309.42
493.54	19440.49
493.72	19618.37
493.90	19845.40
494.08	19932.00
494.25	20182.44
494.43	20006.90
494.61	20283.08
494.79	20517.14
494.96	20360.32
495.14	20615.44
495.32	20695.02
495.49	20631.82
495.67	20582.67
495.85	21193.55
496.02	21064.82
496.20	21352.71
496.38	21436.97
496.55	21343.35
496.73	21947.20
496.91	21429.94
497.09	21879.33
497.26	21874.65
497.44	22118.06
497.62	22080.61
497.79	22335.73
497.97	22361.48
498.14	22314.67
498.32	22642.34
498.50	22457.44
498.67	22860.01
498.85	22789.80
499.03	22707.88
499.20	22785.12
499.38	23274.29
499.56	23206.41
499.73	23374.93
499.91	23859.42
500.08	23501.32
500.26	23461.53
500.44	23711.97
500.61	23880.49
500.79	23522.38
500.97	24074.75
501.14	24142.63
501.32	24280.72
501.49	24147.31
501.67	24308.80
501.84	24549.88
502.02	24126.24
502.20	24489.03
502.37	24868.19
502.55	24622.44
502.72	24912.66
502.90	24856.49
503.07	24683.29
503.25	25010.96
503.43	25020.33
503.60	25235.66
503.78	25511.84
503.95	25303.53
504.13	25479.07
504.30	25659.29
504.48	25645.25
504.65	25823.13
504.83	25654.61
505.01	26155.49
505.18	25865.26
505.36	26139.10
505.53	26270.17
505.71	26260.81
505.88	25895.69
506.06	26359.11
506.23	26553.38
506.41	26295.92
506.58	26981.70
506.76	26775.73
506.93	26647.00
507.11	26590.83
507.28	26948.93
507.46	26572.10
507.63	27030.85
507.81	27260.22
507.98	27414.69
508.16	27168.94
508.33	27328.10
508.50	27197.02
508.68	27613.64
508.85	27903.87
509.03	27934.29
509.20	27997.49
509.38	28011.53
509.55	28381.34
509.73	27828.97
509.90	28166.01
510.08	28231.54
510.25	27910.89
510.42	28233.88
510.60	28449.21
510.77	28973.49
510.95	28570.92
511.12	28645.82
511.30	28701.99
511.47	28819.02
511.64	28954.77
511.82	29020.30
511.99	29032.00
512.17	29041.37
512.34	29223.93
512.51	29427.56
512.69	29532.88
512.86	29317.55
513.04	29949.50
513.21	29425.22
513.38	30000.99
513.56	29521.18
513.73	29991.62
513.90	29834.81
514.08	30082.91
514.25	30068.86
514.43	30340.36
514.60	30387.18
514.77	30792.09
514.95	30717.19
515.12	30548.67
515.29	30349.73
515.47	30717.19
515.64	30799.11
515.81	30665.70
515.99	30991.03
516.16	30948.90
516.33	31159.55
516.51	31360.84
516.68	30962.95
516.85	31187.64
517.03	31103.38
517.20	31321.05
517.37	31363.18
517.54	31491.91
517.72	31667.45
517.89	31714.26
518.06	31789.16
518.24	31606.59
518.41	31840.65
518.58	31761.07
518.75	31711.92
518.93	32348.54
519.10	32180.03
519.27	32624.73
519.45	32290.03
519.62	32161.30
519.79	32006.83
519.96	32156.62
520.14	32320.46
520.31	32629.41
520.48	32818.99
520.65	32622.39
520.83	33078.79
521.00	33088.15
521.17	32746.44
521.34	32858.78
521.52	33216.88
521.69	33134.96
521.86	33294.12
522.03	33408.81
522.20	33680.31
522.38	33479.02
522.55	33783.29
522.72	33610.09
522.89	33600.73
523.07	34101.61
523.24	34047.77
523.41	33951.81
523.58	34012.66
523.75	34550.99
523.92	34010.32
524.10	34340.34
524.27	33795.00
524.44	34431.62
524.61	33977.56
524.78	34309.91
524.96	35016.75
525.13	34623.54
525.30	34225.65
525.47	34983.99
525.64	34651.63
525.81	34696.10
525.98	35218.04
526.16	34752.27
526.33	34955.90
526.50	34895.05
526.67	34955.90
526.84	34843.56
527.01	35086.97
527.18	35386.56
527.36	35271.87
527.53	35704.87
527.70	36250.22
527.87	35363.15
528.04	35337.41
528.21	35910.84
528.38	35304.64
528.55	35786.79
528.72	35873.39
528.89	35901.48
529.07	36048.93
529.24	35438.05
529.41	36013.82
529.58	35889.77
529.75	35632.32
529.92	35875.73
530.09	35728.28
530.26	36163.62
530.43	36271.28
530.60	35833.60
530.77	36287.67
530.94	36968.76
531.11	36245.54
531.28	36322.77
531.46	36409.37
531.63	36954.72
531.80	36807.26
531.97	37057.70
532.14	37172.39
532.31	36971.10
532.48	37240.26
532.65	37146.64
532.82	36886.84
532.99	36898.55
533.16	37193.45
533.33	36905.57
533.50	37591.34
533.67	37638.15
533.84	37233.24
534.01	37368.99
534.18	37364.31
534.35	37883.91
534.52	37511.77
534.69	37806.67
534.86	37928.38
535.03	38113.28
535.20	37649.86
535.37	37832.42
535.54	37855.82
535.71	37425.17
535.88	38370.74
536.05	37895.61
536.22	38047.75
536.38	38508.83
536.55	38178.82
536.72	38220.95
536.89	38080.52
537.06	38305.21
537.23	38457.34
537.40	38520.54
537.57	38628.20
537.74	38625.86
537.91	38937.15
538.08	38677.35
538.25	38815.44
538.42	39124.40
538.59	39051.84
538.75	38476.07
538.92	38721.82
539.09	38995.67
539.26	39285.89
539.43	39313.98
539.60	39316.32
539.77	39466.11
539.94	39892.09
540.11	39360.79
540.28	39105.67
540.44	39707.19
540.61	39796.13
540.78	39386.54
540.95	39800.81
541.12	39981.03
541.29	39585.48
541.46	40072.31
541.62	39894.43
541.79	40442.12
541.96	39098.65
542.13	39725.91
542.30	40025.50
542.47	40479.57
542.63	40278.28
542.80	40465.52
542.97	40725.32
543.14	40549.78
543.31	40399.99
543.48	40760.43
543.64	40952.35
543.81	40631.70
543.98	41034.27
544.15	41277.69
544.32	40896.18
544.48	41504.72
544.65	40978.10
544.82	41078.74
544.99	40402.33
545.16	40933.63
545.32	41345.56
545.49	41888.57
545.66	42054.75
545.83	41823.03
546.00	42164.75
546.16	41584.30
546.33	41249.60
546.50	40692.55
546.67	40851.71
546.83	40591.91
547.00	41441.53
547.17	41467.27
547.34	41574.94
547.50	41673.24
547.67	41769.20
547.84	41422.80
548.00	41464.93
548.17	41897.93
548.34	41380.67
548.51	41368.97
548.67	41457.91
548.84	41839.42
549.01	41710.69
549.18	41933.04
549.34	42038.36
549.51	41694.30
549.68	41867.50
549.84	41823.03
550.01	41785.58
550.18	41570.25
550.34	41827.71
550.51	42398.80
550.68	42218.58
550.84	41572.60
551.01	41982.19
551.18	41762.18
551.34	42017.30
551.51	42108.58
551.68	42270.08
551.84	42550.94
552.01	42103.90
552.18	42373.06
552.34	42497.11
552.51	42705.41
552.68	42281.78
552.84	42405.83
553.01	42735.84
553.18	42616.47
553.34	42843.51
553.51	42359.02
553.67	42188.16
553.84	43103.31
554.01	42913.72
554.17	42806.06
554.34	42916.06
554.51	42838.83
554.67	42834.14
554.84	42756.91
555.00	42560.30
555.17	42756.91
555.33	43335.02
555.50	43040.11
555.67	42895.00
555.83	42953.51
556.00	43232.04
556.16	42724.14
556.33	42838.83
556.50	42665.63
556.66	43203.95
556.83	43358.42
556.99	43353.74
557.16	43033.09
557.32	43875.68
557.49	43433.32
557.65	43335.02
557.82	43412.26
557.98	42763.93
558.15	43393.53
558.32	43601.84
558.48	43833.55
558.65	43456.73
558.81	43686.10
558.98	43538.65
559.14	43716.53
559.31	43344.38
559.47	43360.76
559.64	43973.98
559.80	43306.93
559.97	43313.95
560.13	43569.07
560.30	43660.35
560.46	44182.29
560.63	43430.98
560.79	43990.37
560.96	43590.14
561.12	43669.72
561.29	43945.90
561.45	44168.25
561.61	43842.92
561.78	44023.14
561.94	44009.09
562.11	44126.12
562.27	44222.08
562.44	43737.59
562.60	43555.03
562.77	44062.93
562.93	44081.65
563.10	44224.42
563.26	43391.19
563.42	44474.86
563.59	44306.34
563.75	44322.72
563.92	43950.58
564.08	44105.06
564.24	44172.93
564.41	44039.52
564.57	43983.35
564.74	43901.43
564.90	44439.75
565.07	43704.82
565.23	44308.68
565.39	44540.39
565.56	44278.25
565.72	44388.26
565.88	44313.36
566.05	44151.87
566.21	43976.33
566.38	44318.04
566.54	44236.12
566.70	44729.98
566.87	44772.11
567.03	44273.57
567.19	45090.42
567.36	44376.56
567.52	43887.39
567.68	44402.30
567.85	44318.04
568.01	44774.45
568.17	44182.29
568.34	44392.94
568.50	44975.73
568.66	44758.06
568.83	44835.30
568.99	44046.54
569.15	44495.92
569.32	44516.99
569.48	44594.23
569.64	44570.82
569.81	44233.78
569.97	44112.08
570.13	44765.09
570.30	44619.97
570.46	44397.62
570.62	44456.14
570.78	44423.37
570.95	44533.37
571.11	44619.97
571.27	44390.60
571.43	44474.86
571.60	45048.29
571.76	44240.81
571.92	45134.89
572.09	45162.98
572.25	44924.24
572.41	44767.43
572.57	45041.27
572.74	45193.40
572.90	44425.71
573.06	44783.81
573.22	44914.88
573.38	44790.83
573.55	45069.36
573.71	45352.56
573.87	45308.09
574.03	44830.62
574.20	44957.01
574.36	45191.06
574.52	45071.70
574.68	45106.80
574.84	44729.98
575.01	44795.51
575.17	44399.96
575.33	45099.78
575.49	44811.90
575.65	45422.78
575.82	45141.91
575.98	45228.51
576.14	45347.88
576.30	45460.23
576.46	44919.56
576.62	45069.36
576.79	44734.66
576.95	44952.33
577.11	45242.56
577.27	45544.48
577.43	44980.42
577.59	44814.24
577.75	44940.63
577.92	44732.32
578.08	45064.67
578.24	45141.91
578.40	45034.25
578.56	45043.61
578.72	45123.19
578.88	45413.41
579.04	45801.94
579.21	45235.53
579.37	45188.72
579.53	45366.60
579.69	45237.87
579.85	45102.12
580.01	44701.89
580.17	44949.99
580.33	45247.24
580.49	45333.84
580.65	45780.88
580.82	44879.77
580.98	45511.72
581.14	45336.18
581.30	45588.95
581.46	45289.37
581.62	45256.60
581.78	44992.12
581.94	45240.21
582.10	45413.41
582.26	45682.58
582.42	45109.14
582.58	45432.14
582.74	45345.54
582.90	45825.35
583.06	45656.83
583.22	45525.76
583.38	45432.14
583.54	45270.64
583.70	45212.13
583.86	45619.38
584.02	45177.02
584.18	45617.04
584.34	45858.12
584.50	45705.98
584.66	45354.90
584.82	45432.14
584.98	45605.34
585.14	45359.58
585.30	45240.21
585.46	45584.27
585.62	45272.98
585.78	45429.80
585.94	45483.63
586.10	45141.91
586.26	45132.55
586.42	45846.41
586.58	45441.50
586.74	45329.16
586.90	45373.63
587.06	45022.54
587.22	45336.18
587.38	44924.24
587.54	45659.17
587.70	45722.37
587.86	45830.03
588.02	45715.34
588.18	46216.22
588.34	45588.95
588.49	45652.15
588.65	45640.45
588.81	45265.96
588.97	45528.10
589.13	45345.54
589.29	45502.35
589.45	45511.72
589.61	45743.43
589.77	45893.22
589.93	45713.00
590.08	46234.94
590.24	45923.65
590.40	45645.13
590.56	45748.11
590.72	45385.33
590.88	45518.74
591.04	45687.26
591.20	45743.43
591.35	46122.60
591.51	46356.65
591.67	45902.59
591.83	46012.59
591.99	46050.04
592.15	45989.19
592.31	46206.86
592.46	45897.91
592.62	45689.60
592.78	46024.29
592.94	46101.53
593.10	45808.96
593.26	46071.10
593.41	46377.72
593.57	45656.83
593.73	46150.68
593.89	46150.68
594.05	45904.93
594.20	45492.99
594.36	45979.82
594.52	45947.06
594.68	45649.81
594.84	45769.18
594.99	45727.05
595.15	46047.70
595.31	46593.04
595.47	46408.14
595.62	46064.08
595.78	45982.16
595.94	45794.92
596.10	45865.14
596.25	45881.52
596.41	45780.88
596.57	45434.48
596.73	45734.07
596.88	46028.98
597.04	45956.42
597.20	45605.34
597.36	46651.56
597.51	46398.78
597.67	45928.33
597.83	46164.73
597.99	46127.28
598.14	46447.93
598.30	45986.85
598.46	46040.68
598.61	45970.46
598.77	45993.87
598.93	46258.35
599.09	46270.05
599.24	46651.56
599.40	46492.40
599.56	46057.06
599.71	46021.95
599.87	45993.87
600.03	45588.95
600.18	46094.51
600.34	45925.99
600.50	46256.01
600.65	46305.16
600.81	46202.18
600.97	46754.54
601.12	46281.75
601.28	46192.81
601.44	45986.85
601.59	46490.06
601.75	46047.70
601.91	46216.22
602.06	45647.47
602.22	46333.24
602.37	46314.52
602.53	46464.32
602.69	46560.28
602.84	46288.77
603.00	46305.16
603.16	46560.28
603.31	46108.55
603.47	46040.68
603.62	46007.91
603.78	46080.47
603.94	45799.60
604.09	46096.85
604.25	46333.24
604.40	45785.56
604.56	45808.96
604.71	46241.96
604.87	46576.66
605.03	46256.01
605.18	46050.04
605.34	46131.96
605.49	45846.41
605.65	46014.93
605.80	45500.01
605.96	45731.73
606.12	45698.96
606.27	46319.20
606.43	45846.41
606.58	46234.94
606.74	45949.40
606.89	45902.59
607.05	45998.55
607.20	46366.01
607.36	46150.68
607.51	46150.68
607.67	45663.85
607.82	45743.43
607.98	45294.05
608.13	45364.26
608.29	45745.77
608.44	45951.74
608.60	46054.72
608.75	45984.51
608.91	45743.43
609.06	45460.23
609.22	46078.13
609.37	45385.33
609.53	45635.77
609.68	45563.21
609.84	45858.12
609.99	45481.29
610.15	45755.13
610.30	45804.28
610.46	46028.98
610.61	46586.02
610.76	46237.28
610.92	46593.04
611.07	46806.03
611.23	46445.59
611.38	46316.86
611.54	46033.66
611.69	46120.26
611.84	46071.10
612.00	45888.54
612.15	46073.45
612.31	45542.14
612.46	45521.08
612.62	45680.24
612.77	45993.87
612.92	46342.61
613.08	45698.96
613.23	45975.14
613.39	45677.90
613.54	45507.04
613.69	45923.65
613.85	45488.31
614.00	45808.96
614.15	45748.11
614.31	45350.22
614.46	45844.07
614.62	45397.03
614.77	45425.12
614.92	45687.26
615.08	45773.86
615.23	45603.00
615.38	45624.06
615.54	45270.64
615.69	45481.29
615.84	45090.42
616.00	45174.68
616.15	45439.16
616.30	45160.64
616.46	44868.07
616.61	44940.63
616.76	44891.48
616.92	44292.30
617.07	44582.52
617.22	44488.90
617.37	44460.82
617.53	44753.38
617.68	44800.19
617.83	44559.12
617.99	44772.11
618.14	44884.45
618.29	45408.73
618.45	44828.28
618.60	44891.48
618.75	44818.92
618.90	45226.17
619.06	44655.08
619.21	44886.79
619.36	44753.38
619.51	44041.86
619.67	44502.95
619.82	44158.89
619.97	44720.62
620.12	44304.00
620.28	44659.76
620.43	44388.26
620.58	44622.31
620.73	44626.99
620.89	44753.38
621.04	44392.94
621.19	44729.98
621.34	44912.54
621.49	44531.03
621.65	44004.41
621.80	44278.25
621.95	44114.42
622.10	44060.58
622.25	44528.69
622.41	44322.72
622.56	44516.99
622.71	44711.25
622.86	44341.45
623.01	43992.71
623.16	44531.03
623.32	44278.25
623.47	44233.78
623.62	44076.97
623.77	44030.16
623.92	44128.46
624.07	44203.36
624.23	44296.98
624.38	43590.14
624.53	43854.62
624.68	44271.23
624.83	44065.27
624.98	43798.44
625.13	43885.04
625.29	44271.23
625.44	44065.27
625.59	43866.32
625.74	43704.82
625.89	43739.93
626.04	43728.23
626.19	44074.63
626.34	43082.24
626.49	43515.24
626.65	43199.27
626.80	43768.02
626.95	43222.67
627.10	43550.35
627.25	43496.52
627.40	43302.25
627.55	43622.90
627.70	43068.20
627.85	43168.84
628.00	43103.31
628.15	43480.13
628.30	43328.00
628.45	43107.99
628.60	43143.09
628.76	43660.35
628.91	43742.27
629.06	43622.90
629.21	43051.81
629.36	43421.62
629.51	43019.05
629.66	42876.27
629.81	43047.13
629.96	42670.31
630.11	42614.13
630.26	43210.97
630.41	42997.98
630.56	43304.59
630.71	43049.47
630.86	43220.33
631.01	43393.53
631.16	43440.34
631.31	42452.64
631.46	42646.90
631.61	42920.74
631.76	42696.05
631.91	42532.22
632.06	42583.71
632.21	42354.33
632.36	43175.86
632.51	42230.29
632.66	42768.61
632.81	42391.78
632.96	42504.13
633.10	42693.71
633.25	42864.57
633.40	42822.44
633.55	42799.04
633.70	42639.88
633.85	42302.84
634.00	42134.32
634.15	42476.04
634.30	42256.03
634.45	42000.91
634.60	42202.20
634.75	42368.38
634.90	42890.32
635.05	42698.39
635.19	42347.31
635.34	42462.00
635.49	42387.10
635.64	42373.06
635.79	42122.62
635.94	42412.85
636.09	42162.41
636.24	41923.68
636.39	41722.39
636.53	41717.71
636.68	41841.76
636.83	41771.54
636.98	41708.35
637.13	41741.11
637.28	42052.41
637.43	41731.75
637.57	41600.68
637.72	41799.63
637.87	41752.82
638.02	41579.62
638.17	42099.22
638.32	41846.44
638.46	41500.04
638.61	41504.72
638.76	41380.67
638.91	41654.51
639.06	41212.15
639.20	41958.78
639.35	42050.06
639.50	41219.17
639.65	41677.92
639.80	41375.99
639.94	41467.27
640.09	41502.38
640.24	41469.61
640.39	41085.76
640.54	41345.56
640.68	41130.23
640.83	41280.03
640.98	41263.64
641.13	41230.88
641.27	41181.73
641.42	41539.83
641.57	41507.06
641.72	41581.96
641.86	41226.20
642.01	41069.38
642.16	40961.72
642.31	40832.99
642.45	40596.59
642.60	40739.36
642.75	40748.73
642.90	40676.17
643.04	40921.93
643.19	41092.79
643.34	40460.84
643.48	40451.48
643.63	41556.21
643.78	40938.31
643.93	41546.85
644.07	41144.28
644.22	40886.82
644.37	40835.33
644.51	40921.93
644.66	40556.80
644.81	40444.46
644.95	40299.34
645.10	40430.41
645.25	40289.98
645.39	40229.13
645.54	40535.74
645.69	40739.36
645.83	40886.82
645.98	40711.28
646.13	40486.59
646.27	40627.02
646.42	40107.42
646.57	40449.14
646.71	41029.59
646.86	40540.42
647.00	39772.72
647.15	40484.25
647.30	39913.16
647.44	40311.05
647.59	40250.19
647.74	39835.92
647.88	40449.14
648.03	40353.18
648.17	40009.12
648.32	40044.23
648.47	40051.25
648.61	40341.47
648.76	40292.32
648.90	40589.57
649.05	39955.29
649.20	40009.12
649.34	39983.37
649.49	39864.00
649.63	39943.58
649.78	39988.05
649.92	39945.92
650.07	40289.98
650.21	39763.36
650.36	39789.11
650.51	39676.76
650.65	40264.24
650.80	39868.69
650.94	39936.56
651.09	39754.00
651.23	40191.68
651.38	39763.36
651.52	39775.06
651.67	39683.78
651.81	39655.70
651.96	39697.83
652.10	39377.17
652.25	39482.50
652.39	39859.32
652.54	39931.88
652.68	39690.80
652.83	39498.88
652.97	39627.61
653.12	39339.72
653.26	39248.44
653.41	39662.72
653.55	39288.23
653.70	39154.82
653.84	39276.53
653.99	38820.13
654.13	39477.82
654.27	39414.62
654.42	39749.32
654.56	39400.58
654.71	39672.08
654.85	39566.76
655.00	39393.56
655.14	38817.78
655.29	38883.32
655.43	39604.20
655.57	39063.54
655.72	38967.58
655.86	39164.18
656.01	39189.93
656.15	38780.34
656.30	38871.62
656.44	38595.43
656.58	38948.85
656.73	38801.40
656.87	38576.71
657.01	38834.17
657.16	39313.98
657.30	39072.90
657.45	38476.07
657.59	39007.37
657.73	38672.67
657.88	38440.96
658.02	38506.49
658.16	38117.96
658.31	38335.63
658.45	38586.07
658.60	38417.55
658.74	38342.66
658.88	38330.95
659.03	38239.67
659.17	38298.19
659.31	38597.77
659.46	38132.01
659.60	38487.77
659.74	38223.29
659.89	38185.84
660.03	38384.79
660.17	38396.49
660.32	38330.95
660.46	37975.19
660.60	37598.37
660.74	37977.53
660.89	37684.97
661.03	37471.98
661.17	37511.77
661.32	37448.57
661.46	37703.69
661.60	37474.32
661.74	37916.68
661.89	37713.05
662.03	37399.42
662.17	37097.49
662.31	37596.03
662.46	37736.46
662.60	37418.14
662.74	36870.46
662.88	37277.71
663.03	36748.75
663.17	36723.01
663.31	36802.58
663.45	36755.77
663.60	37202.82
663.74	37055.36
663.88	37029.62
664.02	36973.44
664.17	37064.72
664.31	36383.63
664.45	36875.14
664.59	36795.56
664.73	36589.59
664.88	36435.12
665.02	36634.06
665.16	36282.98
665.30	36336.82
665.44	36446.82
665.59	36133.19
665.73	36418.74
665.87	36170.64
666.01	36135.53
666.15	36561.51
666.29	36320.43
666.44	36236.17
666.58	36388.31
666.72	35838.28
666.86	36355.54
667.00	35796.15
667.14	35751.68
667.28	35901.48
667.43	35662.74
667.57	35353.79
667.71	35274.21
667.85	35665.08
667.99	35374.86
668.13	35323.36
668.27	35665.08
668.41	35508.27
668.56	35084.63
668.70	35096.33
668.84	35683.81
668.98	35189.95
669.12	35101.01
669.26	35054.20
669.40	34771.00
669.54	35023.78
669.68	35311.66
669.82	34759.30
669.96	34597.80
670.10	34604.82
670.25	34623.54
670.39	34363.75
670.53	34256.08
670.67	34288.85
670.81	33867.55
670.95	34824.83
671.09	34520.56
671.23	34342.68
671.37	34417.58
671.51	34277.15
671.65	34618.86
671.79	34213.95
671.93	34227.99
672.07	34515.88
672.21	34356.72
672.35	33565.62
672.49	34082.88
672.63	33736.48
672.77	33944.79
672.91	33867.55
673.05	33624.14
673.19	33832.44
673.33	33406.47
673.47	33692.01
673.61	33645.20
673.75	33565.62
673.89	33605.41
674.03	33193.48
674.17	33078.79
674.31	32837.72
674.45	33237.95
674.59	33031.98
674.73	32779.20
674.87	32732.39
675.01	32891.55
675.15	32730.05
675.29	32917.29
675.43	32556.85
675.56	32755.80
675.70	32751.12
675.84	32456.21
675.98	31718.94
676.12	32636.43
676.26	32393.01
676.40	32210.45
676.54	32360.25
676.68	31608.93
676.82	31405.31
676.96	31702.56
677.10	31672.13
677.23	31517.65
677.37	31503.61
677.51	31307.01
677.65	31386.58
677.79	31386.58
677.93	31405.31
678.07	31234.45
678.21	31070.61
678.34	31173.60
678.48	31094.02
678.62	30895.07
678.76	30611.87
678.90	30831.88
679.04	30349.73
679.18	30541.65
679.31	30347.39
679.45	30052.48
679.59	29645.23
679.73	29865.24
679.87	29823.11
680.00	29649.91
680.14	29713.10
680.28	29523.52
680.42	29785.66
680.56	29935.45
680.70	29523.52
680.83	29556.28
680.97	29500.11
681.11	29696.72
681.25	29263.72
681.39	29497.77
681.52	29362.02
681.66	28889.23
681.80	29315.21
681.94	28732.42
682.07	28936.04
682.21	28587.30
682.35	28697.31
682.49	28294.74
682.62	28280.69
682.76	28161.33
682.90	28229.20
683.04	28435.17
683.17	28360.27
683.31	28180.05
683.45	28126.22
683.59	28107.49
683.72	27716.62
683.86	27938.97
684.00	27831.31
684.13	27744.71
684.27	27452.14
684.41	27253.20
684.55	27072.98
684.68	26953.61
684.82	26859.99
684.96	26686.79
685.09	27040.21
685.23	26764.03
685.37	26113.36
685.50	26792.11
685.64	26682.11
685.78	26897.44
685.91	26698.49
686.05	26815.52
686.19	26218.68
686.32	26195.28
686.46	26146.12
686.60	25675.68
686.73	26068.89
686.87	26045.48
687.01	25724.83
687.14	25507.16
687.28	25404.17
687.42	25544.61
687.55	25773.98
687.69	25146.72
687.82	25043.73
687.96	25504.82
688.10	25490.77
688.23	25071.82
688.37	25078.84
688.50	25081.18
688.64	24936.07
688.78	24856.49
688.91	24629.46
689.05	24568.60
689.18	24453.92
689.32	24322.85
689.46	24425.83
689.59	24121.56
689.73	24287.74
689.86	23789.20
690.00	24233.91
690.13	23779.84
690.27	23632.39
690.41	23613.66
690.54	23763.46
690.68	23737.71
690.81	23758.78
690.95	23363.23
691.08	23613.66
691.22	23173.64
691.35	23428.76
691.49	23150.24
691.62	22911.50
691.76	22775.75
691.89	22932.57
692.03	22654.05
692.16	22579.15
692.30	22614.26
692.43	22466.80
692.57	22171.89
692.70	22302.96
692.84	22361.48
692.97	22127.42
693.11	22508.93
693.24	22190.62
693.38	22223.39
693.51	22111.04
693.65	21972.95
693.78	21935.50
693.92	21748.26
694.05	21322.28
694.19	21603.14
694.32	21371.43
694.45	21179.51
694.59	21411.22
694.72	20751.19
694.86	21198.23
694.99	20685.65
695.13	20910.35
695.26	20730.12
695.39	20851.83
695.53	21181.85
695.66	21153.76
695.80	20568.63
695.93	20365.00
696.07	20594.37
696.20	20573.31
696.33	20566.29
696.47	20535.86
696.60	20056.05
696.73	20081.80
696.87	20067.75
697.00	19819.66
697.14	19538.79
697.27	19665.18
697.40	19580.92
697.54	19637.09
697.67	19173.67
697.80	18808.54
697.94	19400.70
698.07	19435.81
698.21	19239.20
698.34	19257.93
698.47	18944.30
698.61	19091.75
698.74	19389.00
698.87	19136.22
699.01	18642.37
699.14	18651.73
699.27	18586.19
699.40	18614.28
699.54	17975.31
699.67	18071.28
699.80	17994.04
699.94	17909.78
700.07	17916.80
700.20	17736.58
700.34	17738.92
700.47	17802.11
700.60	17799.77
700.73	18005.74
700.87	17940.21
701.00	17439.33
701.13	17647.64
701.26	17486.14
701.40	17657.00
701.53	17231.02
701.66	17378.48
701.79	17050.80
701.93	17273.15
702.06	16926.75
702.19	16814.41
702.32	16912.71
702.46	16854.20
702.59	16610.78
702.72	16823.77
702.85	16528.86
702.99	16510.14
703.12	16592.06
703.25	16489.07
703.38	16369.71
703.51	16327.58
703.65	16147.36
703.78	16156.72
703.91	16231.62
704.04	16280.77
704.17	16166.08
704.31	15861.81
704.44	15726.06
704.57	15822.02
704.70	15770.53
704.83	15690.95
704.96	15578.61
705.10	15035.60
705.23	15241.57
>>>>>End Processed Spectral Data<<<<<
