SpectraSuite Data File
++++++++++++++++++++++++++++++++++++
Date: Fri Oct 04 11:39:51 GMT-05:00 2013
User: price-jones
Dark Spectrum Present: No
Reference Spectrum Present: No
Number of Sampled Component Spectra: 1
Spectrometers: USB2+H05261
Integration Time (usec): 100000 (USB2+H05261)
Spectra Averaged: 1 (USB2+H05261)
Boxcar Smoothing: 0 (USB2+H05261)
Correct for Electrical Dark: No (USB2+H05261)
Strobe/Lamp Enabled: No (USB2+H05261)
Correct for Detector Non-linearity: No (USB2+H05261)
Correct for Stray Light: No (USB2+H05261)
Number of Pixels in Processed Spectrum: 2048
>>>>>Begin Processed Spectral Data<<<<<
365.73	124.05
365.92	124.05
366.12	124.05
366.32	16.38
366.52	0.00
366.72	0.00
366.91	0.00
367.11	0.00
367.31	0.00
367.51	0.00
367.70	0.00
367.90	0.00
368.10	0.00
368.30	0.00
368.49	0.00
368.69	0.00
368.89	0.00
369.09	0.00
369.28	11.70
369.48	0.00
369.68	23.41
369.87	9.36
370.07	0.00
370.27	53.83
370.47	56.17
370.66	95.96
370.86	60.85
371.06	126.39
371.25	121.71
371.45	121.71
371.65	18.72
371.84	25.75
372.04	63.19
372.24	53.83
372.44	105.32
372.63	63.19
372.83	126.39
373.03	194.26
373.22	196.60
373.42	173.20
373.62	88.94
373.81	152.13
374.01	208.31
374.21	114.69
374.40	67.88
374.60	98.30
374.79	198.95
374.99	128.73
375.19	114.69
375.38	100.64
375.58	145.11
375.78	152.13
375.97	173.20
376.17	191.92
376.37	88.94
376.56	168.52
376.76	175.54
376.95	25.75
377.15	95.96
377.35	114.69
377.54	93.62
377.74	110.01
377.93	60.85
378.13	149.79
378.33	142.77
378.52	105.32
378.72	149.79
378.91	140.43
379.11	60.85
379.31	102.98
379.50	117.03
379.70	147.45
379.89	84.26
380.09	88.94
380.28	67.88
380.48	121.71
380.68	117.03
380.87	131.07
381.07	161.50
381.26	217.67
381.46	72.56
381.65	128.73
381.85	133.41
382.04	51.49
382.24	156.82
382.43	102.98
382.63	138.09
382.83	135.75
383.02	215.33
383.22	203.63
383.41	72.56
383.61	102.98
383.80	102.98
384.00	102.98
384.19	102.98
384.39	98.30
384.58	91.28
384.78	133.41
384.97	112.35
385.17	159.16
385.36	145.11
385.56	121.71
385.75	91.28
385.95	138.09
386.14	154.48
386.34	79.58
386.53	124.05
386.72	133.41
386.92	152.13
387.11	86.60
387.31	128.73
387.50	53.83
387.70	154.48
387.89	79.58
388.09	107.66
388.28	65.54
388.48	194.26
388.67	170.86
388.86	49.15
389.06	138.09
389.25	173.20
389.45	201.29
389.64	107.66
389.84	168.52
390.03	105.32
390.22	166.18
390.42	149.79
390.61	81.92
390.81	79.58
391.00	163.84
391.19	138.09
391.39	133.41
391.58	95.96
391.78	138.09
391.97	163.84
392.16	163.84
392.36	93.62
392.55	142.77
392.75	51.49
392.94	95.96
393.13	177.88
393.33	126.39
393.52	95.96
393.71	142.77
393.91	119.37
394.10	21.06
394.29	110.01
394.49	100.64
394.68	117.03
394.88	102.98
395.07	65.54
395.26	60.85
395.46	77.24
395.65	149.79
395.84	131.07
396.04	128.73
396.23	140.43
396.42	79.58
396.62	112.35
396.81	140.43
397.00	189.58
397.19	74.90
397.39	53.83
397.58	201.29
397.77	131.07
397.97	147.45
398.16	37.45
398.35	98.30
398.55	142.77
398.74	131.07
398.93	138.09
399.12	135.75
399.32	65.54
399.51	138.09
399.70	107.66
399.90	191.92
400.09	63.19
400.28	156.82
400.47	145.11
400.67	168.52
400.86	142.77
401.05	117.03
401.24	140.43
401.44	128.73
401.63	110.01
401.82	208.31
402.01	133.41
402.21	126.39
402.40	121.71
402.59	112.35
402.78	119.37
402.97	159.16
403.17	152.13
403.36	100.64
403.55	112.35
403.74	79.58
403.93	257.46
404.13	308.95
404.32	215.33
404.51	252.78
404.70	245.76
404.89	173.20
405.09	121.71
405.28	163.84
405.47	91.28
405.66	135.75
405.85	145.11
406.05	107.66
406.24	84.26
406.43	95.96
406.62	81.92
406.81	196.60
407.00	112.35
407.20	149.79
407.39	126.39
407.58	163.84
407.77	182.56
407.96	140.43
408.15	117.03
408.34	145.11
408.54	182.56
408.73	74.90
408.92	154.48
409.11	159.16
409.30	121.71
409.49	110.01
409.68	112.35
409.87	131.07
410.07	100.64
410.26	102.98
410.45	124.05
410.64	107.66
410.83	65.54
411.02	140.43
411.21	102.98
411.40	170.86
411.59	84.26
411.78	95.96
411.98	198.95
412.17	112.35
412.36	107.66
412.55	86.60
412.74	133.41
412.93	180.22
413.12	124.05
413.31	161.50
413.50	184.90
413.69	112.35
413.88	173.20
414.07	140.43
414.26	142.77
414.45	140.43
414.64	194.26
414.83	184.90
415.02	145.11
415.22	156.82
415.41	145.11
415.60	121.71
415.79	124.05
415.98	234.05
416.17	184.90
416.36	135.75
416.55	114.69
416.74	124.05
416.93	168.52
417.12	208.31
417.31	173.20
417.50	159.16
417.69	184.90
417.88	126.39
418.07	124.05
418.26	102.98
418.45	60.85
418.64	173.20
418.83	184.90
419.02	241.08
419.21	95.96
419.39	135.75
419.58	241.08
419.77	170.86
419.96	126.39
420.15	224.69
420.34	194.26
420.53	166.18
420.72	133.41
420.91	128.73
421.10	222.35
421.29	138.09
421.48	163.84
421.67	187.24
421.86	184.90
422.05	156.82
422.24	124.05
422.43	124.05
422.61	102.98
422.80	177.88
422.99	142.77
423.18	100.64
423.37	70.22
423.56	135.75
423.75	159.16
423.94	145.11
424.13	107.66
424.32	145.11
424.50	152.13
424.69	217.67
424.88	177.88
425.07	95.96
425.26	163.84
425.45	126.39
425.64	198.95
425.83	117.03
426.01	196.60
426.20	138.09
426.39	117.03
426.58	112.35
426.77	86.60
426.96	147.45
427.15	241.08
427.33	175.54
427.52	156.82
427.71	170.86
427.90	220.01
428.09	196.60
428.28	170.86
428.46	175.54
428.65	166.18
428.84	203.63
429.03	205.97
429.22	212.99
429.40	159.16
429.59	128.73
429.78	147.45
429.97	121.71
430.16	95.96
430.34	84.26
430.53	112.35
430.72	126.39
430.91	175.54
431.10	215.33
431.28	163.84
431.47	147.45
431.66	145.11
431.85	114.69
432.03	124.05
432.22	222.35
432.41	184.90
432.60	173.20
432.79	114.69
432.97	91.28
433.16	142.77
433.35	135.75
433.54	180.22
433.72	152.13
433.91	184.90
434.10	126.39
434.28	224.69
434.47	227.03
434.66	156.82
434.85	105.32
435.03	290.23
435.22	631.94
435.41	1015.79
435.59	1029.84
435.78	758.33
435.97	472.79
436.16	332.36
436.34	196.60
436.53	184.90
436.72	166.18
436.90	210.65
437.09	182.56
437.28	168.52
437.46	166.18
437.65	191.92
437.84	175.54
438.02	196.60
438.21	231.71
438.40	112.35
438.58	135.75
438.77	166.18
438.96	196.60
439.14	175.54
439.33	229.37
439.52	215.33
439.70	175.54
439.89	128.73
440.08	227.03
440.26	182.56
440.45	241.08
440.63	173.20
440.82	135.75
441.01	220.01
441.19	140.43
441.38	191.92
441.57	161.50
441.75	126.39
441.94	163.84
442.12	212.99
442.31	212.99
442.50	217.67
442.68	177.88
442.87	196.60
443.05	196.60
443.24	170.86
443.43	177.88
443.61	128.73
443.80	175.54
443.98	234.05
444.17	208.31
444.35	180.22
444.54	175.54
444.73	175.54
444.91	215.33
445.10	184.90
445.28	210.65
445.47	117.03
445.65	203.63
445.84	128.73
446.02	159.16
446.21	168.52
446.39	124.05
446.58	131.07
446.77	184.90
446.95	159.16
447.14	163.84
447.32	290.23
447.51	152.13
447.69	180.22
447.88	252.78
448.06	276.18
448.25	215.33
448.43	126.39
448.62	152.13
448.80	196.60
448.99	175.54
449.17	140.43
449.36	170.86
449.54	236.39
449.73	212.99
449.91	266.82
450.10	184.90
450.28	231.71
450.46	217.67
450.65	224.69
450.83	180.22
451.02	131.07
451.20	212.99
451.39	173.20
451.57	182.56
451.76	170.86
451.94	248.10
452.13	215.33
452.31	236.39
452.49	215.33
452.68	121.71
452.86	177.88
453.05	231.71
453.23	184.90
453.42	152.13
453.60	198.95
453.78	280.86
453.97	110.01
454.15	117.03
454.34	243.42
454.52	147.45
454.70	189.58
454.89	208.31
455.07	208.31
455.26	182.56
455.44	313.63
455.62	107.66
455.81	269.16
455.99	198.95
456.17	184.90
456.36	156.82
456.54	250.44
456.73	220.01
456.91	149.79
457.09	163.84
457.28	238.73
457.46	140.43
457.64	184.90
457.83	194.26
458.01	166.18
458.19	222.35
458.38	156.82
458.56	217.67
458.74	128.73
458.93	184.90
459.11	173.20
459.29	168.52
459.48	177.88
459.66	149.79
459.84	231.71
460.03	238.73
460.21	245.76
460.39	201.29
460.57	304.27
460.76	224.69
460.94	227.03
461.12	259.80
461.31	189.58
461.49	191.92
461.67	166.18
461.85	215.33
462.04	182.56
462.22	599.18
462.40	187.24
462.59	166.18
462.77	142.77
462.95	248.10
463.13	117.03
463.32	259.80
463.50	163.84
463.68	182.56
463.86	159.16
464.05	112.35
464.23	217.67
464.41	180.22
464.59	149.79
464.78	243.42
464.96	182.56
465.14	212.99
465.32	205.97
465.50	205.97
465.69	201.29
465.87	180.22
466.05	238.73
466.23	149.79
466.41	198.95
466.60	208.31
466.78	194.26
466.96	234.05
467.14	248.10
467.32	238.73
467.51	217.67
467.69	227.03
467.87	227.03
468.05	196.60
468.23	203.63
468.41	236.39
468.60	229.37
468.78	145.11
468.96	264.48
469.14	227.03
469.32	187.24
469.50	168.52
469.69	159.16
469.87	220.01
470.05	152.13
470.23	205.97
470.41	175.54
470.59	135.75
470.77	262.14
470.95	201.29
471.14	255.12
471.32	191.92
471.50	208.31
471.68	131.07
471.86	227.03
472.04	182.56
472.22	196.60
472.40	133.41
472.58	187.24
472.77	234.05
472.95	294.91
473.13	255.12
473.31	205.97
473.49	140.43
473.67	170.86
473.85	205.97
474.03	201.29
474.21	159.16
474.39	210.65
474.57	184.90
474.75	241.08
474.93	212.99
475.12	112.35
475.30	140.43
475.48	166.18
475.66	126.39
475.84	196.60
476.02	149.79
476.20	217.67
476.38	229.37
476.56	264.48
476.74	259.80
476.92	224.69
477.10	245.76
477.28	238.73
477.46	243.42
477.64	152.13
477.82	234.05
478.00	124.05
478.18	224.69
478.36	208.31
478.54	252.78
478.72	248.10
478.90	191.92
479.08	154.48
479.26	210.65
479.44	182.56
479.62	198.95
479.80	175.54
479.98	224.69
480.16	198.95
480.34	227.03
480.52	187.24
480.70	152.13
480.88	191.92
481.06	283.20
481.24	241.08
481.41	220.01
481.59	306.61
481.77	205.97
481.95	227.03
482.13	285.55
482.31	262.14
482.49	117.03
482.67	255.12
482.85	241.08
483.03	210.65
483.21	308.95
483.39	231.71
483.57	245.76
483.74	294.91
483.92	238.73
484.10	196.60
484.28	203.63
484.46	344.06
484.64	337.04
484.82	327.68
485.00	231.71
485.18	327.68
485.35	318.31
485.53	231.71
485.71	287.89
485.89	318.31
486.07	327.68
486.25	388.53
486.43	348.74
486.61	311.29
486.78	299.59
486.96	346.40
487.14	290.23
487.32	306.61
487.50	292.57
487.68	280.86
487.85	262.14
488.03	297.25
488.21	348.74
488.39	264.48
488.57	402.57
488.75	351.08
488.92	582.79
489.10	358.10
489.28	395.55
489.46	257.46
489.64	248.10
489.81	292.57
489.99	355.76
490.17	285.55
490.35	404.91
490.53	250.44
490.70	262.14
490.88	337.04
491.06	297.25
491.24	337.04
491.41	402.57
491.59	325.33
491.77	315.97
491.95	297.25
492.13	308.95
492.30	308.95
492.48	344.06
492.66	252.78
492.84	325.33
493.01	313.63
493.19	332.36
493.37	395.55
493.54	231.71
493.72	294.91
493.90	250.44
494.08	308.95
494.25	301.93
494.43	294.91
494.61	308.95
494.79	283.20
494.96	299.59
495.14	283.20
495.32	360.44
495.49	278.52
495.67	234.05
495.85	355.76
496.02	334.70
496.20	334.70
496.38	301.93
496.55	362.78
496.73	315.97
496.91	297.25
497.09	355.76
497.26	313.63
497.44	308.95
497.62	220.01
497.79	276.18
497.97	297.25
498.14	311.29
498.32	299.59
498.50	313.63
498.67	306.61
498.85	280.86
499.03	301.93
499.20	271.50
499.38	306.61
499.56	287.89
499.73	327.68
499.91	334.70
500.08	301.93
500.26	315.97
500.44	196.60
500.61	245.76
500.79	287.89
500.97	304.27
501.14	287.89
501.32	257.46
501.49	234.05
501.67	278.52
501.84	262.14
502.02	283.20
502.20	334.70
502.37	320.65
502.55	245.76
502.72	224.69
502.90	273.84
503.07	304.27
503.25	308.95
503.43	255.12
503.60	294.91
503.78	311.29
503.95	273.84
504.13	283.20
504.30	334.70
504.48	334.70
504.65	330.02
504.83	220.01
505.01	299.59
505.18	271.50
505.36	304.27
505.53	299.59
505.71	332.36
505.88	337.04
506.06	294.91
506.23	227.03
506.41	337.04
506.58	299.59
506.76	278.52
506.93	299.59
507.11	234.05
507.28	203.63
507.46	220.01
507.63	280.86
507.81	238.73
507.98	248.10
508.16	308.95
508.33	241.08
508.50	259.80
508.68	362.78
508.85	250.44
509.03	224.69
509.20	346.40
509.38	187.24
509.55	262.14
509.73	320.65
509.90	271.50
510.08	252.78
510.25	252.78
510.42	285.55
510.60	273.84
510.77	297.25
510.95	327.68
511.12	212.99
511.30	217.67
511.47	381.51
511.64	278.52
511.82	224.69
511.99	276.18
512.17	269.16
512.34	227.03
512.51	285.55
512.69	301.93
512.86	332.36
513.04	266.82
513.21	290.23
513.38	287.89
513.56	283.20
513.73	304.27
513.90	208.31
514.08	191.92
514.25	234.05
514.43	194.26
514.60	311.29
514.77	308.95
514.95	227.03
515.12	208.31
515.29	243.42
515.47	372.15
515.64	250.44
515.81	255.12
515.99	292.57
516.16	269.16
516.33	280.86
516.51	294.91
516.68	287.89
516.85	318.31
517.03	238.73
517.20	315.97
517.37	313.63
517.54	234.05
517.72	255.12
517.89	203.63
518.06	278.52
518.24	257.46
518.41	301.93
518.58	250.44
518.75	292.57
518.93	290.23
519.10	299.59
519.27	301.93
519.45	255.12
519.62	341.72
519.79	351.08
519.96	248.10
520.14	315.97
520.31	400.23
520.48	297.25
520.65	315.97
520.83	390.87
521.00	346.40
521.17	346.40
521.34	248.10
521.52	269.16
521.69	308.95
521.86	257.46
522.03	248.10
522.20	250.44
522.38	294.91
522.55	280.86
522.72	283.20
522.89	325.33
523.07	367.46
523.24	308.95
523.41	271.50
523.58	255.12
523.75	318.31
523.92	327.68
524.10	287.89
524.27	367.46
524.44	304.27
524.61	390.87
524.78	297.25
524.96	369.80
525.13	404.91
525.30	313.63
525.47	367.46
525.64	322.99
525.81	311.29
525.98	315.97
526.16	266.82
526.33	236.39
526.50	259.80
526.67	337.04
526.84	276.18
527.01	285.55
527.18	285.55
527.36	306.61
527.53	320.65
527.70	269.16
527.87	358.10
528.04	337.04
528.21	285.55
528.38	355.76
528.55	348.74
528.72	339.38
528.89	313.63
529.07	280.86
529.24	276.18
529.41	290.23
529.58	301.93
529.75	250.44
529.92	395.55
530.09	283.20
530.26	276.18
530.43	287.89
530.60	294.91
530.77	369.80
530.94	358.10
531.11	297.25
531.28	367.46
531.46	334.70
531.63	266.82
531.80	386.19
531.97	344.06
532.14	358.10
532.31	292.57
532.48	409.59
532.65	301.93
532.82	360.44
532.99	353.42
533.16	308.95
533.33	386.19
533.50	376.83
533.67	351.08
533.84	313.63
534.01	325.33
534.18	330.02
534.35	304.27
534.52	383.85
534.69	393.21
534.86	362.78
535.03	294.91
535.20	346.40
535.37	327.68
535.54	337.04
535.71	304.27
535.88	435.34
536.05	330.02
536.22	390.87
536.38	421.30
536.55	388.53
536.72	362.78
536.89	327.68
537.06	397.89
537.23	463.43
537.40	461.09
537.57	423.64
537.74	512.58
537.91	468.11
538.08	404.91
538.25	505.56
538.42	528.96
538.59	402.57
538.75	428.32
538.92	521.94
539.09	491.51
539.26	524.28
539.43	566.41
539.60	596.84
539.77	648.33
539.94	655.35
540.11	641.31
540.28	723.23
540.44	748.97
540.61	812.17
540.78	840.25
540.95	858.98
541.12	1116.44
541.29	1114.10
541.46	1303.68
541.62	1235.80
541.79	1172.61
541.96	1123.46
542.13	1149.20
542.30	1249.85
542.47	1207.72
542.63	1064.94
542.80	1015.79
542.97	1123.46
543.14	1071.97
543.31	1062.60
543.48	1041.54
543.64	1074.31
543.81	1149.20
543.98	1004.09
544.15	1029.84
544.32	1067.28
544.48	1067.28
544.65	961.96
544.82	1050.90
544.99	1076.65
545.16	1020.47
545.32	950.26
545.49	1481.56
545.66	2289.04
545.83	2810.98
546.00	2368.62
546.16	1785.83
546.33	1420.71
546.50	1064.94
546.67	912.81
546.83	830.89
547.00	816.85
547.17	793.44
547.34	798.12
547.50	854.30
547.67	774.72
547.84	704.50
548.00	711.52
548.17	603.86
548.34	650.67
548.51	716.20
548.67	660.03
548.84	697.48
549.01	629.60
549.18	667.05
549.34	653.01
549.51	655.35
549.68	603.86
549.84	543.00
550.01	550.03
550.18	685.78
550.34	678.76
550.51	624.92
550.68	596.84
550.84	559.39
551.01	454.06
551.18	533.64
551.34	428.32
551.51	545.34
551.68	526.62
551.84	503.22
552.01	500.87
552.18	454.06
552.34	374.49
552.51	472.79
552.68	479.81
552.84	381.51
553.01	519.60
553.18	423.64
553.34	435.34
553.51	421.30
553.67	451.72
553.84	390.87
554.01	416.62
554.17	346.40
554.34	358.10
554.51	383.85
554.67	393.21
554.84	407.25
555.00	388.53
555.17	351.08
555.33	393.21
555.50	322.99
555.67	341.72
555.83	348.74
556.00	308.95
556.16	531.30
556.33	402.57
556.50	369.80
556.66	318.31
556.83	315.97
556.99	388.53
557.16	404.91
557.32	346.40
557.49	320.65
557.65	367.46
557.82	339.38
557.98	257.46
558.15	334.70
558.32	320.65
558.48	348.74
558.65	411.93
558.81	362.78
558.98	341.72
559.14	362.78
559.31	285.55
559.47	372.15
559.64	299.59
559.80	280.86
559.97	348.74
560.13	367.46
560.30	341.72
560.46	341.72
560.63	372.15
560.79	367.46
560.96	341.72
561.12	379.17
561.29	337.04
561.45	273.84
561.61	299.59
561.78	423.64
561.94	351.08
562.11	355.76
562.27	337.04
562.44	313.63
562.60	379.17
562.77	234.05
562.93	334.70
563.10	339.38
563.26	313.63
563.42	388.53
563.59	374.49
563.75	325.33
563.92	257.46
564.08	381.51
564.24	337.04
564.41	402.57
564.57	257.46
564.74	308.95
564.90	304.27
565.07	315.97
565.23	292.57
565.39	257.46
565.56	266.82
565.72	243.42
565.88	337.04
566.05	259.80
566.21	292.57
566.38	283.20
566.54	271.50
566.70	325.33
566.87	369.80
567.03	301.93
567.19	367.46
567.36	327.68
567.52	306.61
567.68	337.04
567.85	346.40
568.01	290.23
568.17	283.20
568.34	231.71
568.50	341.72
568.66	287.89
568.83	409.59
568.99	313.63
569.15	381.51
569.32	294.91
569.48	325.33
569.64	255.12
569.81	290.23
569.97	374.49
570.13	276.18
570.30	308.95
570.46	313.63
570.62	330.02
570.78	337.04
570.95	318.31
571.11	376.83
571.27	341.72
571.43	170.86
571.60	273.84
571.76	311.29
571.92	255.12
572.09	306.61
572.25	297.25
572.41	306.61
572.57	334.70
572.74	409.59
572.90	339.38
573.06	301.93
573.22	395.55
573.38	304.27
573.55	276.18
573.71	271.50
573.87	273.84
574.03	210.65
574.20	332.36
574.36	351.08
574.52	332.36
574.68	404.91
574.84	315.97
575.01	334.70
575.17	362.78
575.33	404.91
575.49	280.86
575.65	379.17
575.82	292.57
575.98	402.57
576.14	252.78
576.30	503.22
576.46	559.39
576.62	763.01
576.79	753.65
576.95	681.10
577.11	524.28
577.27	444.70
577.43	491.51
577.59	393.21
577.75	362.78
577.92	318.31
578.08	325.33
578.24	311.29
578.40	482.15
578.56	575.77
578.72	767.70
578.88	826.21
579.04	629.60
579.21	514.92
579.37	503.22
579.53	369.80
579.69	411.93
579.85	456.40
580.01	531.30
580.17	418.96
580.33	421.30
580.49	430.66
580.65	402.57
580.82	414.27
580.98	447.04
581.14	344.06
581.30	468.11
581.46	402.57
581.62	451.72
581.78	470.45
581.94	444.70
582.10	390.87
582.26	440.02
582.42	535.98
582.58	517.26
582.74	444.70
582.90	482.15
583.06	543.00
583.22	503.22
583.38	468.11
583.54	510.24
583.70	496.19
583.86	552.37
584.02	503.22
584.18	533.64
584.34	496.19
584.50	461.09
584.66	397.89
584.82	423.64
584.98	470.45
585.14	521.94
585.30	538.32
585.46	456.40
585.62	435.34
585.78	533.64
585.94	517.26
586.10	393.21
586.26	500.87
586.42	503.22
586.58	489.17
586.74	573.43
586.90	613.22
587.06	601.52
587.22	667.05
587.38	585.13
587.54	547.69
587.70	531.30
587.86	533.64
588.02	437.68
588.18	355.76
588.34	435.34
588.49	435.34
588.65	400.23
588.81	390.87
588.97	402.57
589.13	397.89
589.29	348.74
589.45	463.43
589.61	456.40
589.77	409.59
589.93	388.53
590.08	332.36
590.24	353.42
590.40	341.72
590.56	447.04
590.72	404.91
590.88	393.21
591.04	416.62
591.20	463.43
591.35	423.64
591.51	423.64
591.67	395.55
591.83	360.44
591.99	543.00
592.15	444.70
592.31	491.51
592.46	608.54
592.62	521.94
592.78	500.87
592.94	533.64
593.10	521.94
593.26	425.98
593.41	411.93
593.57	451.72
593.73	400.23
593.89	472.79
594.05	416.62
594.20	362.78
594.36	423.64
594.52	397.89
594.68	318.31
594.84	400.23
594.99	430.66
595.15	414.27
595.31	390.87
595.47	306.61
595.62	381.51
595.78	383.85
595.94	428.32
596.10	372.15
596.25	435.34
596.41	355.76
596.57	292.57
596.73	407.25
596.88	351.08
597.04	409.59
597.20	355.76
597.36	409.59
597.51	325.33
597.67	390.87
597.83	360.44
597.99	416.62
598.14	353.42
598.30	496.19
598.46	433.00
598.61	465.77
598.77	449.38
598.93	353.42
599.09	479.81
599.24	477.47
599.40	437.68
599.56	461.09
599.71	351.08
599.87	449.38
600.03	395.55
600.18	409.59
600.34	442.36
600.50	390.87
600.65	313.63
600.81	425.98
600.97	393.21
601.12	372.15
601.28	407.25
601.44	430.66
601.59	388.53
601.75	409.59
601.91	339.38
602.06	379.17
602.22	404.91
602.37	374.49
602.53	306.61
602.69	346.40
602.84	325.33
603.00	393.21
603.16	367.46
603.31	365.12
603.47	383.85
603.62	351.08
603.78	386.19
603.94	383.85
604.09	355.76
604.25	381.51
604.40	414.27
604.56	327.68
604.71	409.59
604.87	358.10
605.03	332.36
605.18	376.83
605.34	325.33
605.49	435.34
605.65	376.83
605.80	409.59
605.96	339.38
606.12	423.64
606.27	416.62
606.43	411.93
606.58	367.46
606.74	404.91
606.89	374.49
607.05	498.53
607.20	463.43
607.36	444.70
607.51	353.42
607.67	416.62
607.82	409.59
607.98	447.04
608.13	458.74
608.29	451.72
608.44	519.60
608.60	449.38
608.75	491.51
608.91	517.26
609.06	624.92
609.22	599.18
609.37	571.09
609.53	667.05
609.68	744.29
609.84	709.18
609.99	828.55
610.15	950.26
610.30	1116.44
610.46	1282.61
610.61	1619.65
610.76	2047.97
610.92	2464.58
611.07	2698.64
611.23	2595.65
611.38	2420.11
611.54	2160.31
611.69	1902.86
611.84	1614.97
612.00	1465.18
612.15	1359.85
612.31	1123.46
612.46	938.55
612.62	866.00
612.77	983.02
612.92	861.32
613.08	868.34
613.23	851.96
613.39	877.70
613.54	837.91
613.69	816.85
613.85	716.20
614.00	777.06
614.15	741.95
614.31	807.48
614.46	753.65
614.62	758.33
614.77	755.99
614.92	688.12
615.08	730.25
615.23	688.12
615.38	688.12
615.54	622.58
615.69	489.17
615.84	477.47
616.00	550.03
616.15	507.90
616.30	493.85
616.46	526.62
616.61	512.58
616.76	519.60
616.92	409.59
617.07	465.77
617.22	421.30
617.37	430.66
617.53	440.02
617.68	444.70
617.83	451.72
617.99	402.57
618.14	573.43
618.29	409.59
618.45	435.34
618.60	393.21
618.75	435.34
618.90	341.72
619.06	425.98
619.21	465.77
619.36	470.45
619.51	465.77
619.67	393.21
619.82	381.51
619.97	414.27
620.12	395.55
620.28	395.55
620.43	402.57
620.58	454.06
620.73	437.68
620.89	517.26
621.04	395.55
621.19	348.74
621.34	355.76
621.49	313.63
621.65	395.55
621.80	416.62
621.95	428.32
622.10	397.89
622.25	334.70
622.41	369.80
622.56	449.38
622.71	381.51
622.86	421.30
623.01	451.72
623.16	414.27
623.32	393.21
623.47	440.02
623.62	435.34
623.77	421.30
623.92	461.09
624.07	404.91
624.23	362.78
624.38	416.62
624.53	379.17
624.68	393.21
624.83	348.74
624.98	337.04
625.13	397.89
625.29	395.55
625.44	430.66
625.59	348.74
625.74	421.30
625.89	428.32
626.04	416.62
626.19	372.15
626.34	362.78
626.49	456.40
626.65	358.10
626.80	332.36
626.95	339.38
627.10	416.62
627.25	365.12
627.40	421.30
627.55	400.23
627.70	358.10
627.85	423.64
628.00	311.29
628.15	346.40
628.30	454.06
628.45	339.38
628.60	402.57
628.76	374.49
628.91	337.04
629.06	332.36
629.21	367.46
629.36	397.89
629.51	337.04
629.66	381.51
629.81	416.62
629.96	428.32
630.11	465.77
630.26	423.64
630.41	475.13
630.56	521.94
630.71	514.92
630.86	519.60
631.01	496.19
631.16	367.46
631.31	503.22
631.46	491.51
631.61	435.34
631.76	388.53
631.91	414.27
632.06	367.46
632.21	367.46
632.36	320.65
632.51	294.91
632.66	320.65
632.81	313.63
632.96	369.80
633.10	360.44
633.25	409.59
633.40	325.33
633.55	322.99
633.70	269.16
633.85	241.08
634.00	290.23
634.15	365.12
634.30	273.84
634.45	264.48
634.60	285.55
634.75	236.39
634.90	266.82
635.05	308.95
635.19	236.39
635.34	320.65
635.49	278.52
635.64	255.12
635.79	306.61
635.94	315.97
636.09	299.59
636.24	241.08
636.39	334.70
636.53	351.08
636.68	301.93
636.83	283.20
636.98	315.97
637.13	205.97
637.28	278.52
637.43	264.48
637.57	304.27
637.72	322.99
637.87	327.68
638.02	287.89
638.17	245.76
638.32	320.65
638.46	266.82
638.61	318.31
638.76	248.10
638.91	252.78
639.06	238.73
639.20	248.10
639.35	327.68
639.50	322.99
639.65	311.29
639.80	308.95
639.94	264.48
640.09	320.65
640.24	311.29
640.39	320.65
640.54	290.23
640.68	236.39
640.83	297.25
640.98	264.48
641.13	229.37
641.27	234.05
641.42	236.39
641.57	332.36
641.72	301.93
641.86	297.25
642.01	255.12
642.16	299.59
642.31	259.80
642.45	273.84
642.60	376.83
642.75	304.27
642.90	294.91
643.04	257.46
643.19	278.52
643.34	184.90
643.48	276.18
643.63	273.84
643.78	322.99
643.93	304.27
644.07	273.84
644.22	245.76
644.37	217.67
644.51	351.08
644.66	252.78
644.81	304.27
644.95	278.52
645.10	276.18
645.25	222.35
645.39	280.86
645.54	271.50
645.69	308.95
645.83	346.40
645.98	383.85
646.13	285.55
646.27	294.91
646.42	196.60
646.57	301.93
646.71	285.55
646.86	294.91
647.00	257.46
647.15	276.18
647.30	339.38
647.44	241.08
647.59	222.35
647.74	212.99
647.88	205.97
648.03	173.20
648.17	236.39
648.32	283.20
648.47	269.16
648.61	313.63
648.76	203.63
648.90	327.68
649.05	280.86
649.20	264.48
649.34	280.86
649.49	227.03
649.63	299.59
649.78	234.05
649.92	257.46
650.07	339.38
650.21	257.46
650.36	330.02
650.51	271.50
650.65	428.32
650.80	322.99
650.94	264.48
651.09	201.29
651.23	234.05
651.38	294.91
651.52	297.25
651.67	269.16
651.81	327.68
651.96	362.78
652.10	257.46
652.25	283.20
652.39	294.91
652.54	271.50
652.68	222.35
652.83	308.95
652.97	301.93
653.12	248.10
653.26	255.12
653.41	365.12
653.55	280.86
653.70	287.89
653.84	266.82
653.99	231.71
654.13	255.12
654.27	234.05
654.42	287.89
654.56	287.89
654.71	259.80
654.85	294.91
655.00	276.18
655.14	215.33
655.29	173.20
655.43	269.16
655.57	320.65
655.72	227.03
655.86	311.29
656.01	210.65
656.15	257.46
656.30	327.68
656.44	283.20
656.58	224.69
656.73	196.60
656.87	210.65
657.01	255.12
657.16	325.33
657.30	257.46
657.45	297.25
657.59	308.95
657.73	304.27
657.88	234.05
658.02	334.70
658.16	241.08
658.31	278.52
658.45	283.20
658.60	266.82
658.74	313.63
658.88	290.23
659.03	236.39
659.17	161.50
659.31	255.12
659.46	280.86
659.60	257.46
659.74	236.39
659.89	308.95
660.03	220.01
660.17	360.44
660.32	294.91
660.46	294.91
660.60	236.39
660.74	273.84
660.89	292.57
661.03	220.01
661.17	224.69
661.32	245.76
661.46	243.42
661.60	271.50
661.74	224.69
661.89	196.60
662.03	184.90
662.17	264.48
662.31	334.70
662.46	234.05
662.60	227.03
662.74	308.95
662.88	273.84
663.03	285.55
663.17	271.50
663.31	292.57
663.45	266.82
663.60	227.03
663.74	180.22
663.88	271.50
664.02	255.12
664.17	290.23
664.31	304.27
664.45	294.91
664.59	264.48
664.73	278.52
664.88	189.58
665.02	318.31
665.16	259.80
665.30	273.84
665.44	241.08
665.59	271.50
665.73	269.16
665.87	262.14
666.01	243.42
666.15	222.35
666.29	320.65
666.44	280.86
666.58	294.91
666.72	229.37
666.86	245.76
667.00	231.71
667.14	255.12
667.28	250.44
667.43	255.12
667.57	238.73
667.71	212.99
667.85	255.12
667.99	290.23
668.13	238.73
668.27	297.25
668.41	248.10
668.56	278.52
668.70	222.35
668.84	250.44
668.98	290.23
669.12	201.29
669.26	238.73
669.40	276.18
669.54	306.61
669.68	231.71
669.82	243.42
669.96	243.42
670.10	187.24
670.25	222.35
670.39	290.23
670.53	292.57
670.67	248.10
670.81	191.92
670.95	252.78
671.09	222.35
671.23	241.08
671.37	255.12
671.51	252.78
671.65	252.78
671.79	299.59
671.93	203.63
672.07	266.82
672.21	234.05
672.35	208.31
672.49	241.08
672.63	266.82
672.77	255.12
672.91	241.08
673.05	220.01
673.19	184.90
673.33	229.37
673.47	238.73
673.61	266.82
673.75	217.67
673.89	212.99
674.03	220.01
674.17	238.73
674.31	231.71
674.45	222.35
674.59	236.39
674.73	245.76
674.87	245.76
675.01	262.14
675.15	299.59
675.29	245.76
675.43	222.35
675.56	133.41
675.70	241.08
675.84	234.05
675.98	203.63
676.12	166.18
676.26	301.93
676.40	271.50
676.54	227.03
676.68	269.16
676.82	212.99
676.96	196.60
677.10	259.80
677.23	238.73
677.37	184.90
677.51	224.69
677.65	238.73
677.79	215.33
677.93	191.92
678.07	243.42
678.21	212.99
678.34	198.95
678.48	238.73
678.62	236.39
678.76	194.26
678.90	170.86
679.04	212.99
679.18	210.65
679.31	266.82
679.45	217.67
679.59	175.54
679.73	182.56
679.87	203.63
680.00	224.69
680.14	203.63
680.28	238.73
680.42	156.82
680.56	212.99
680.70	177.88
680.83	217.67
680.97	173.20
681.11	191.92
681.25	280.86
681.39	194.26
681.52	142.77
681.66	142.77
681.80	208.31
681.94	264.48
682.07	229.37
682.21	334.70
682.35	201.29
682.49	255.12
682.62	196.60
682.76	184.90
682.90	266.82
683.04	212.99
683.17	255.12
683.31	264.48
683.45	236.39
683.59	292.57
683.72	212.99
683.86	285.55
684.00	205.97
684.13	215.33
684.27	208.31
684.41	248.10
684.55	290.23
684.68	264.48
684.82	212.99
684.96	187.24
685.09	241.08
685.23	147.45
685.37	198.95
685.50	175.54
685.64	301.93
685.78	191.92
685.91	238.73
686.05	187.24
686.19	198.95
686.32	198.95
686.46	278.52
686.60	205.97
686.73	271.50
686.87	236.39
687.01	208.31
687.14	163.84
687.28	248.10
687.42	280.86
687.55	170.86
687.69	255.12
687.82	229.37
687.96	222.35
688.10	241.08
688.23	252.78
688.37	229.37
688.50	271.50
688.64	210.65
688.78	175.54
688.91	124.05
689.05	142.77
689.18	126.39
689.32	159.16
689.46	184.90
689.59	243.42
689.73	227.03
689.86	154.48
690.00	234.05
690.13	131.07
690.27	229.37
690.41	234.05
690.54	189.58
690.68	177.88
690.81	166.18
690.95	191.92
691.08	173.20
691.22	196.60
691.35	98.30
691.49	119.37
691.62	215.33
691.76	189.58
691.89	191.92
692.03	210.65
692.16	250.44
692.30	227.03
692.43	156.82
692.57	182.56
692.70	191.92
692.84	248.10
692.97	243.42
693.11	173.20
693.24	184.90
693.38	208.31
693.51	166.18
693.65	269.16
693.78	170.86
693.92	175.54
694.05	234.05
694.19	224.69
694.32	259.80
694.45	278.52
694.59	243.42
694.72	128.73
694.86	208.31
694.99	196.60
695.13	142.77
695.26	180.22
695.39	180.22
695.53	280.86
695.66	170.86
695.80	212.99
695.93	145.11
696.07	224.69
696.20	175.54
696.33	180.22
696.47	187.24
696.60	173.20
696.73	203.63
696.87	259.80
697.00	287.89
697.14	198.95
697.27	180.22
697.40	266.82
697.54	156.82
697.67	238.73
697.80	252.78
697.94	191.92
698.07	222.35
698.21	154.48
698.34	271.50
698.47	98.30
698.61	100.64
698.74	180.22
698.87	142.77
699.01	147.45
699.14	191.92
699.27	152.13
699.40	280.86
699.54	210.65
699.67	121.71
699.80	180.22
699.94	177.88
700.07	135.75
700.20	147.45
700.34	135.75
700.47	131.07
700.60	175.54
700.73	245.76
700.87	166.18
701.00	121.71
701.13	220.01
701.26	191.92
701.40	266.82
701.53	187.24
701.66	86.60
701.79	156.82
701.93	196.60
702.06	266.82
702.19	154.48
702.32	210.65
702.46	168.52
702.59	119.37
702.72	201.29
702.85	154.48
702.99	119.37
703.12	182.56
703.25	112.35
703.38	114.69
703.51	217.67
703.65	196.60
703.78	145.11
703.91	187.24
704.04	133.41
704.17	121.71
704.31	170.86
704.44	135.75
704.57	234.05
704.70	128.73
704.83	124.05
704.96	119.37
705.10	227.03
705.23	142.77
>>>>>End Processed Spectral Data<<<<<
