SpectraSuite Data File
++++++++++++++++++++++++++++++++++++
Date: Tue Oct 01 18:27:26 GMT-05:00 2013
User: stostad
Dark Spectrum Present: No
Reference Spectrum Present: No
Number of Sampled Component Spectra: 1
Spectrometers: USB2+H05261
Integration Time (usec): 100000 (USB2+H05261)
Spectra Averaged: 1 (USB2+H05261)
Boxcar Smoothing: 0 (USB2+H05261)
Correct for Electrical Dark: No (USB2+H05261)
Strobe/Lamp Enabled: No (USB2+H05261)
Correct for Detector Non-linearity: No (USB2+H05261)
Correct for Stray Light: No (USB2+H05261)
Number of Pixels in Processed Spectrum: 2048
>>>>>Begin Processed Spectral Data<<<<<
365.73	105.32
365.92	105.32
366.12	105.32
366.32	0.00
366.52	0.00
366.72	11.70
366.91	11.70
367.11	0.00
367.31	0.00
367.51	9.36
367.70	0.00
367.90	0.00
368.10	0.00
368.30	21.06
368.49	0.00
368.69	0.00
368.89	0.00
369.09	0.00
369.28	0.00
369.48	0.00
369.68	49.15
369.87	28.09
370.07	58.51
370.27	74.90
370.47	63.19
370.66	255.12
370.86	257.46
371.06	372.15
371.25	322.99
371.45	306.61
371.65	313.63
371.84	313.63
372.04	353.42
372.24	409.59
372.44	365.12
372.63	369.80
372.83	353.42
373.03	498.53
373.22	360.44
373.42	390.87
373.62	433.00
373.81	454.06
374.01	456.40
374.21	386.19
374.40	418.96
374.60	498.53
374.79	437.68
374.99	458.74
375.19	451.72
375.38	484.49
375.58	423.64
375.78	484.49
375.97	442.36
376.17	521.94
376.37	458.74
376.56	468.11
376.76	414.27
376.95	498.53
377.15	535.98
377.35	407.25
377.54	437.68
377.74	454.06
377.93	526.62
378.13	547.69
378.33	468.11
378.52	484.49
378.72	468.11
378.91	482.15
379.11	486.83
379.31	491.51
379.50	433.00
379.70	503.22
379.89	491.51
380.09	430.66
380.28	470.45
380.48	397.89
380.68	615.56
380.87	521.94
381.07	573.43
381.26	559.39
381.46	552.37
381.65	531.30
381.85	498.53
382.04	538.32
382.24	575.77
382.43	613.22
382.63	528.96
382.83	582.79
383.02	573.43
383.22	540.66
383.41	568.75
383.61	655.35
383.80	557.05
384.00	578.11
384.19	601.52
384.39	594.50
384.58	631.94
384.78	561.73
384.97	671.73
385.17	624.92
385.36	606.20
385.56	657.69
385.75	606.20
385.95	613.22
386.14	685.78
386.34	643.65
386.53	629.60
386.72	582.79
386.92	716.20
387.11	641.31
387.31	667.05
387.50	615.56
387.70	709.18
387.89	660.03
388.09	678.76
388.28	669.39
388.48	692.80
388.67	711.52
388.86	674.07
389.06	662.37
389.25	671.73
389.45	770.04
389.64	720.88
389.84	753.65
390.03	772.38
390.22	767.70
390.42	809.83
390.61	777.06
390.81	830.89
391.00	849.61
391.19	692.80
391.39	791.10
391.58	833.23
391.78	819.19
391.97	798.12
392.16	847.27
392.36	856.64
392.55	828.55
392.75	866.00
392.94	905.79
393.13	910.47
393.33	856.64
393.52	912.81
393.71	882.38
393.91	835.57
394.10	866.00
394.29	976.00
394.49	896.43
394.68	891.74
394.88	842.59
395.07	964.30
395.26	915.15
395.46	945.58
395.65	901.11
395.84	966.64
396.04	1100.05
396.23	1011.11
396.42	994.73
396.62	976.00
396.81	1046.22
397.00	1025.15
397.19	917.49
397.39	990.05
397.58	1090.69
397.77	987.71
397.97	1132.82
398.16	985.37
398.35	1109.41
398.55	1078.99
398.74	1130.48
398.93	1078.99
399.12	1036.86
399.32	1172.61
399.51	1100.05
399.70	1170.27
399.90	1081.33
400.09	1153.88
400.28	1212.40
400.47	1132.82
400.67	1153.88
400.86	1256.87
401.05	1299.00
401.24	1233.46
401.44	1306.02
401.63	1240.48
401.82	1174.95
402.01	1249.85
402.21	1350.49
402.40	1343.47
402.59	1327.08
402.78	1364.53
402.97	1352.83
403.17	1317.72
403.36	1366.87
403.55	1385.60
403.74	1460.49
403.93	1523.69
404.13	1434.75
404.32	1469.86
404.51	1390.28
404.70	1530.71
404.89	1507.30
405.09	1621.99
405.28	1516.67
405.47	1603.27
405.66	1507.30
405.85	1565.82
406.05	1638.38
406.24	1607.95
406.43	1645.40
406.62	1696.89
406.81	1666.46
407.00	1600.93
407.20	1682.85
407.39	1795.19
407.58	1727.32
407.77	1640.72
407.96	1795.19
408.15	1755.40
408.34	1680.50
408.54	1832.64
408.73	1790.51
408.92	1827.96
409.11	1888.81
409.30	2085.42
409.49	1820.94
409.68	1914.56
409.87	1891.15
410.07	1975.41
410.26	2062.01
410.45	1893.49
410.64	1982.43
410.83	2113.50
411.02	2076.06
411.21	2139.25
411.40	2108.82
411.59	2125.21
411.78	2216.49
411.98	2139.25
412.17	2155.63
412.36	2239.89
412.55	2197.76
412.74	2310.11
412.93	2349.90
413.12	2258.62
413.31	2314.79
413.50	2333.51
413.69	2380.32
413.88	2363.94
414.07	2452.88
414.26	2544.16
414.45	2427.14
414.64	2551.18
414.83	2572.25
415.02	2511.39
415.22	2532.46
415.41	2710.34
415.60	2717.36
415.79	2785.24
415.98	2665.87
416.17	2754.81
416.36	2904.60
416.55	2855.45
416.74	2731.41
416.93	2979.50
417.12	2829.71
417.31	2881.20
417.50	3000.57
417.69	2939.71
417.88	2904.60
418.07	3019.29
418.26	2829.71
418.45	2986.52
418.64	3162.06
418.83	3222.92
419.02	3000.57
419.21	3129.30
419.39	3045.04
419.58	3117.59
419.77	3136.32
419.96	3155.04
420.15	3220.58
420.34	3185.47
420.53	3211.22
420.72	3330.58
420.91	3293.13
421.10	3370.37
421.29	3314.20
421.48	3382.07
421.67	3316.54
421.86	3229.94
422.05	3300.16
422.24	3393.78
422.43	3379.73
422.61	3353.99
422.80	3534.21
422.99	3372.71
423.18	3543.57
423.37	3480.38
423.56	3361.01
423.75	3466.33
423.94	3370.37
424.13	3117.59
424.32	3260.37
424.50	3459.31
424.69	3496.76
424.88	3639.53
425.07	3407.82
425.26	3473.36
425.45	3478.04
425.64	3534.21
425.83	3489.74
426.01	3634.85
426.20	3449.95
426.39	3566.98
426.58	3531.87
426.77	3609.11
426.96	3630.17
427.15	3634.85
427.33	3637.19
427.52	3758.90
427.71	3672.30
427.90	3588.04
428.09	3751.88
428.28	3658.26
428.46	3866.56
428.65	3784.65
428.84	3894.65
429.03	3904.01
429.22	3847.84
429.40	3927.42
429.59	3946.14
429.78	3768.26
429.97	3826.78
430.16	3765.92
430.34	4039.76
430.53	4058.49
430.72	4009.34
430.91	3967.21
431.10	4004.66
431.28	4039.76
431.47	4241.05
431.66	4236.37
431.85	4163.81
432.03	4243.39
432.22	4182.54
432.41	4259.78
432.60	4386.16
432.79	4215.30
432.97	4149.77
433.16	4248.07
433.35	4198.92
433.54	4264.46
433.72	4383.82
433.91	4224.67
434.10	4250.41
434.28	4329.99
434.47	4313.61
434.66	4400.21
434.85	4519.57
435.03	4521.92
435.22	4547.66
435.41	4627.24
435.59	4423.61
435.78	4589.79
435.97	4568.73
436.16	4634.26
436.34	4585.11
436.53	4697.46
436.72	4704.48
436.90	4479.79
437.09	4678.73
437.28	4638.94
437.46	4587.45
437.65	4552.34
437.84	4861.29
438.02	4868.31
438.21	4830.87
438.40	4751.29
438.58	4924.49
438.77	5064.92
438.96	4819.16
439.14	5071.94
439.33	5139.82
439.52	5219.39
439.70	5163.22
439.89	5142.16
440.08	5142.16
440.26	5287.27
440.45	5263.86
440.63	5343.44
440.82	5497.92
441.01	5242.80
441.19	5423.02
441.38	5458.13
441.57	5497.92
441.75	5439.40
441.94	5612.60
442.12	5551.75
442.31	5708.57
442.50	5528.35
442.68	5570.48
442.87	5799.85
443.05	5746.02
443.24	5912.19
443.43	5720.27
443.61	5856.02
443.80	6099.44
443.98	5731.97
444.17	5636.01
444.35	5720.27
444.54	5898.15
444.73	5853.68
444.91	5879.43
445.10	6003.47
445.28	6057.31
445.47	5907.51
445.65	5881.77
445.84	6012.84
446.02	5886.45
446.21	5951.98
446.39	6143.91
446.58	6127.52
446.77	5959.00
446.95	5930.92
447.14	6148.59
447.32	6022.20
447.51	5975.39
447.69	6204.76
447.88	6092.41
448.06	6258.59
448.25	5900.49
448.43	5951.98
448.62	6157.95
448.80	6036.24
448.99	6085.39
449.17	6242.21
449.36	6204.76
449.54	6452.86
449.73	6267.95
449.91	6443.49
450.10	6387.32
450.28	6459.88
450.46	6363.92
450.65	6476.26
450.83	6399.02
451.02	6623.72
451.20	6518.39
451.39	6494.99
451.57	6434.13
451.76	6523.07
451.94	6541.80
452.13	6630.74
452.31	6754.79
452.49	6609.67
452.68	6670.53
452.86	6668.19
453.05	6771.17
453.23	6698.61
453.42	6537.12
453.60	6612.01
453.78	6691.59
453.97	6717.34
454.15	6813.30
454.34	6768.83
454.52	7105.87
454.70	6850.75
454.89	7068.42
455.07	6986.50
455.26	6806.28
455.44	7222.89
455.62	7068.42
455.81	7126.93
455.99	7002.88
456.17	7148.00
456.36	7124.59
456.54	7077.78
456.73	7243.96
456.91	7576.31
457.09	7517.80
457.28	7613.76
457.46	7332.90
457.64	7625.47
457.83	7410.14
458.01	7564.61
458.19	7522.48
458.38	7527.16
458.56	7679.30
458.74	7653.55
458.93	7618.44
459.11	7669.94
459.29	7744.83
459.48	7758.88
459.66	7770.58
459.84	7756.54
460.03	7939.10
460.21	7756.54
460.39	7672.28
460.57	7819.73
460.76	7960.16
460.94	7967.18
461.12	7878.24
461.31	7950.80
461.49	7995.27
461.67	8004.63
461.85	8205.92
462.04	7896.97
462.22	8545.30
462.40	8318.26
462.59	8290.18
462.77	8203.58
462.95	8416.57
463.13	8269.11
463.32	8346.35
463.50	8313.58
463.68	8388.48
463.86	8454.02
464.05	8177.83
464.23	8564.02
464.41	8472.74
464.59	8013.99
464.78	8638.92
464.96	8400.18
465.14	8407.20
465.32	8514.87
465.50	8730.20
465.69	8414.23
465.87	8678.71
466.05	8716.16
466.23	8624.87
466.41	8732.54
466.60	8887.01
466.78	8641.26
466.96	8835.52
467.14	8617.85
467.32	8863.61
467.51	8889.35
467.69	8704.45
467.87	8837.86
468.05	9004.04
468.23	8800.41
468.41	8978.30
468.60	9076.60
468.78	8980.64
468.96	8952.55
469.14	9088.30
469.32	9081.28
469.50	8917.44
469.69	9287.25
469.87	9270.86
470.05	9329.38
470.23	9270.86
470.41	9469.81
470.59	9579.81
470.77	9376.19
470.95	9589.17
471.14	9383.21
471.32	9366.82
471.50	9811.53
471.68	9614.92
471.86	9774.08
472.04	9724.93
472.22	10094.73
472.40	9825.57
472.58	10061.96
472.77	9846.63
472.95	10106.43
473.13	10560.50
473.31	9991.75
473.49	10200.05
473.67	10251.55
473.85	10008.13
474.03	10209.42
474.21	10246.87
474.39	10349.85
474.57	10635.39
474.75	10562.84
474.93	10686.89
475.12	10562.84
475.30	10665.82
475.48	10782.85
475.66	10892.85
475.84	10729.02
476.02	10939.66
476.20	10930.30
476.38	11300.11
476.56	11456.92
476.74	11449.90
476.92	11129.25
477.10	11492.03
477.28	11719.06
477.46	11681.61
477.64	11595.01
477.82	11803.32
478.00	12140.36
478.18	11913.33
478.36	11999.93
478.54	11941.41
478.72	12180.15
478.90	12383.77
479.08	12479.74
479.26	12709.11
479.44	12624.85
479.62	12903.37
479.80	12975.93
479.98	12776.98
480.16	13081.25
480.34	13149.13
480.52	13355.10
480.70	13397.23
480.88	13153.81
481.06	13289.56
481.24	13205.30
481.41	13584.47
481.59	13628.94
481.77	13944.91
481.95	14183.65
482.13	14036.19
482.31	13980.02
482.49	14345.14
482.67	14331.10
482.85	14516.00
483.03	14803.89
483.21	14883.47
483.39	14925.60
483.57	14904.53
483.74	15089.43
483.92	15267.31
484.10	14927.94
484.28	15419.45
484.46	15580.95
484.64	15971.82
484.82	15618.39
485.00	15871.17
485.18	16570.99
485.35	16512.48
485.53	16362.69
485.71	16187.14
485.89	16793.34
486.07	16421.20
486.25	16872.92
486.43	16989.95
486.61	16964.20
486.78	17160.81
486.96	16978.25
487.14	17444.01
487.32	17561.04
487.50	17668.70
487.68	17935.53
487.85	18239.79
488.03	18347.46
488.21	18574.49
488.39	18560.45
488.57	18572.15
488.75	18824.93
488.92	19040.26
489.10	19428.79
489.28	19131.54
489.46	19393.68
489.64	19239.20
489.81	19590.28
489.99	19751.78
490.17	19676.88
490.35	20147.33
490.53	20215.21
490.70	20306.49
490.88	20325.21
491.06	20594.37
491.24	20589.69
491.41	20695.02
491.59	21118.65
491.77	21226.32
491.95	21247.38
492.13	21362.07
492.30	21270.79
492.48	21310.58
492.66	21521.23
492.84	21680.38
493.01	21528.25
493.19	22157.85
493.37	22199.98
493.54	22181.26
493.72	22422.33
493.90	22527.66
494.08	22738.30
494.25	22979.38
494.43	22963.00
494.61	23358.55
494.79	23180.67
494.96	23332.80
495.14	23379.61
495.32	24130.92
495.49	23903.89
495.67	23814.95
495.85	23857.08
496.02	24215.18
496.20	24479.66
496.38	24147.31
496.55	24198.80
496.73	25111.61
496.91	24950.11
497.09	24776.91
497.26	25331.62
497.44	24678.61
497.62	24964.15
497.79	25102.25
497.97	25177.14
498.14	25930.80
498.32	26066.55
498.50	26050.16
498.67	25916.75
498.85	25841.85
499.03	26195.28
499.20	26445.71
499.38	26293.58
499.56	26831.90
499.73	26616.57
499.91	26759.34
500.08	27023.83
500.26	26682.11
500.44	27292.99
500.61	27513.00
500.79	27091.70
500.97	27264.90
501.14	27665.13
501.32	27527.04
501.49	27803.22
501.67	27339.80
501.84	28308.78
502.02	27700.24
502.20	27882.80
502.37	27969.40
502.55	28215.16
502.72	28559.22
502.90	27941.32
503.07	28552.20
503.25	28563.90
503.43	28418.78
503.60	28994.56
503.78	28968.81
503.95	28713.69
504.13	28929.02
504.30	29144.35
504.48	29450.96
504.65	29362.02
504.83	29493.09
505.01	29722.46
505.18	29439.26
505.36	29898.00
505.53	29626.50
505.71	30078.22
505.88	30164.82
506.06	30141.42
506.23	30565.06
506.41	30019.71
506.58	30293.55
506.76	30569.74
506.93	30483.14
507.11	30293.55
507.28	31021.46
507.46	30569.74
507.63	30665.70
507.81	31063.59
507.98	30604.84
508.16	31346.79
508.33	31381.90
508.50	31358.50
508.68	31351.48
508.85	31709.58
509.03	31782.13
509.20	31878.10
509.38	32147.26
509.55	32074.70
509.73	32233.86
509.90	32442.17
510.08	31945.97
510.25	31957.67
510.42	32460.89
510.60	32503.02
510.77	32690.26
510.95	33247.31
511.12	32680.90
511.30	33125.60
511.47	33312.84
511.64	33167.73
511.82	33205.18
511.99	33088.15
512.17	33497.75
512.34	33586.69
512.51	33521.15
512.69	33579.67
512.86	33764.57
513.04	34012.66
513.21	34052.45
513.38	33825.42
513.56	34110.97
513.73	34019.69
513.90	34384.81
514.08	34405.88
514.25	34644.61
514.43	34134.37
514.60	34075.86
514.77	34373.11
514.95	34998.03
515.12	34609.50
515.29	34726.53
515.47	35351.45
515.64	35365.49
515.81	35175.91
515.99	35503.59
516.16	35625.29
516.33	35644.02
516.51	35360.81
516.68	35629.98
516.85	35730.62
517.03	36390.65
517.20	36149.57
517.37	35924.88
517.54	35819.56
517.72	35915.52
517.89	35903.82
518.06	36009.14
518.24	36016.16
518.41	36208.09
518.58	36222.13
518.75	36194.04
518.93	36662.15
519.10	36245.54
519.27	36926.63
519.45	36629.38
519.62	37277.71
519.79	37163.03
519.96	37443.89
520.14	37240.26
520.31	36692.58
520.48	37207.50
520.65	37081.11
520.83	37509.43
521.00	37654.54
521.17	37792.63
521.34	37921.36
521.52	37729.44
521.69	37591.34
521.86	37890.93
522.03	37944.76
522.20	38274.78
522.38	37921.36
522.55	38213.93
522.72	38403.51
522.89	38480.75
523.07	38532.24
523.24	38270.10
523.41	38555.64
523.58	38462.02
523.75	38431.60
523.92	38782.68
524.10	39091.63
524.27	38738.21
524.44	39194.61
524.61	39208.65
524.78	39199.29
524.96	39459.09
525.13	39435.69
525.30	39828.90
525.47	39487.18
525.64	39892.09
525.81	39505.90
525.98	39913.16
526.16	39955.29
526.33	39573.78
526.50	40067.63
526.67	40133.17
526.84	40343.81
527.01	40292.32
527.18	40257.21
527.36	40491.27
527.53	39981.03
527.70	40797.88
527.87	40456.16
528.04	40121.46
528.21	40507.65
528.38	40706.60
528.55	41045.97
528.72	40905.54
528.89	40914.90
529.07	40498.29
529.24	40563.82
529.41	41102.15
529.58	41027.25
529.75	40907.88
529.92	41385.35
530.09	41680.26
530.26	41387.69
530.43	41713.03
530.60	41336.20
530.77	41050.66
530.94	41720.05
531.11	41825.37
531.28	41975.17
531.46	42239.65
531.63	41399.40
531.80	42024.32
531.97	42178.79
532.14	41923.68
532.31	41591.32
532.48	41729.41
532.65	41907.29
532.82	41778.56
532.99	42511.15
533.16	42401.14
533.33	42363.70
533.50	42520.51
533.67	42597.75
533.84	42103.90
534.01	42396.46
534.18	42169.43
534.35	42759.25
534.52	43012.02
534.69	42932.45
534.86	42700.73
535.03	42969.90
535.20	42728.82
535.37	43086.92
535.54	43290.55
535.71	43215.65
535.88	43402.89
536.05	43131.39
536.22	43501.20
536.38	43201.61
536.55	43426.30
536.72	43445.02
536.89	43093.94
537.06	43679.08
537.23	43639.29
537.40	43519.92
537.57	43856.96
537.74	43655.67
537.91	43892.07
538.08	44282.94
538.25	43704.82
538.42	43599.50
538.59	44367.20
538.75	44067.61
538.92	44046.54
539.09	44130.80
539.26	44828.28
539.43	43941.22
539.60	44083.99
539.77	44165.91
539.94	44652.74
540.11	44629.34
540.28	44437.41
540.44	44839.98
540.61	45003.82
540.78	44662.10
540.95	44945.31
541.12	44952.33
541.29	45062.33
541.46	44680.83
541.62	44416.35
541.79	45404.05
541.96	44392.94
542.13	44966.37
542.30	44807.22
542.47	44989.78
542.63	45193.40
542.80	45258.94
542.97	45319.79
543.14	45764.49
543.31	45792.58
543.48	45705.98
543.64	46199.83
543.81	46099.19
543.98	46286.43
544.15	45895.56
544.32	45977.48
544.48	46258.35
544.65	45942.38
544.82	46146.00
544.99	45743.43
545.16	46354.31
545.32	46513.47
545.49	47026.04
545.66	46691.35
545.83	46185.79
546.00	46494.74
546.16	46476.02
546.33	46356.65
546.50	45970.46
546.67	46824.76
546.83	46298.14
547.00	46349.63
547.17	46527.51
547.34	46356.65
547.50	46571.98
547.67	46784.97
547.84	46777.95
548.00	47171.16
548.17	47381.80
548.34	47124.35
548.51	47456.70
548.67	47260.10
548.84	47416.91
549.01	46864.55
549.18	47077.54
549.34	46855.18
549.51	47065.83
549.68	47349.04
549.84	47594.79
550.01	47494.15
550.18	47234.35
550.34	47330.31
550.51	47136.05
550.68	47430.96
550.84	47360.74
551.01	47669.69
551.18	47227.33
551.34	47285.84
551.51	47962.26
551.68	47697.78
551.84	47997.37
552.01	47545.64
552.18	47611.18
552.34	47725.86
552.51	47447.34
552.68	47641.60
552.84	47711.82
553.01	48320.36
553.18	48055.88
553.34	48254.82
553.51	48006.73
553.67	47995.03
553.84	48133.12
554.01	47964.60
554.17	48149.50
554.34	48198.65
554.51	48502.92
554.67	48734.63
554.84	48402.28
555.00	48179.93
555.17	48177.59
555.33	48126.10
555.50	47906.08
555.67	48156.52
555.83	48538.03
556.00	48875.07
556.16	48985.07
556.33	48488.88
556.50	48591.86
556.66	48542.71
556.83	48449.09
556.99	48886.77
557.16	48353.13
557.32	48715.91
557.49	48746.34
557.65	48353.13
557.82	49174.66
557.98	48919.54
558.15	49041.24
558.32	49036.56
558.48	49088.06
558.65	49120.82
558.81	48858.68
558.98	48786.13
559.14	48821.23
559.31	49059.97
559.47	49099.76
559.64	49169.97
559.80	49392.33
559.97	49251.89
560.13	49118.48
560.30	48729.95
560.46	48821.23
560.63	48956.99
560.79	49359.56
560.96	49586.59
561.12	49312.75
561.29	49310.41
561.45	49205.08
561.61	49642.76
561.78	49303.38
561.94	49052.95
562.11	49340.83
562.27	49233.17
562.44	49137.21
562.60	49214.44
562.77	49708.30
562.93	49509.35
563.10	50192.79
563.26	49563.18
563.42	49808.94
563.59	49474.24
563.75	49279.98
563.92	49617.02
564.08	49265.94
564.24	49476.58
564.41	49776.17
564.57	49872.14
564.74	49357.22
564.90	49853.41
565.07	49439.14
565.23	50050.02
565.39	49343.17
565.56	49806.60
565.72	49436.80
565.88	49708.30
566.05	49710.64
566.21	49900.22
566.38	49935.33
566.54	49738.72
566.70	49614.68
566.87	50178.75
567.03	49455.52
567.19	49900.22
567.36	49638.08
567.52	49752.77
567.68	50141.30
567.85	49631.06
568.01	50047.68
568.17	50113.21
568.34	50014.91
568.50	49998.52
568.66	49886.18
568.83	50089.80
568.99	49841.71
569.15	50167.04
569.32	49979.80
569.48	49944.69
569.64	50019.59
569.81	49968.10
569.97	50005.55
570.13	50181.09
570.30	50033.63
570.46	50040.65
570.62	50305.13
570.78	49705.96
570.95	50150.66
571.11	49954.05
571.27	50143.64
571.43	50164.70
571.60	50450.25
571.76	50120.23
571.92	50099.17
572.09	50342.58
572.25	50190.45
572.41	50078.10
572.57	50047.68
572.74	50246.62
572.90	50342.58
573.06	50380.03
573.22	50288.75
573.38	50361.31
573.55	50237.26
573.71	50590.68
573.87	50358.97
574.03	49979.80
574.20	50445.57
574.36	50272.37
574.52	50136.62
574.68	50160.02
574.84	50433.86
575.01	50937.08
575.17	50188.11
575.33	50183.43
575.49	50054.70
575.65	50595.36
575.82	50277.05
575.98	50181.09
576.14	50511.10
576.30	50314.50
576.46	50169.38
576.62	50438.54
576.79	50424.50
576.95	50066.40
577.11	50370.67
577.27	50628.13
577.43	50195.13
577.59	50363.65
577.75	50405.78
577.92	50373.01
578.08	50204.49
578.24	50260.66
578.40	50824.73
578.56	50569.61
578.72	50597.70
578.88	50305.13
579.04	50513.44
579.21	50223.22
579.37	50307.47
579.53	50686.64
579.69	50508.76
579.85	50480.67
580.01	50628.13
580.17	50518.12
580.33	50637.49
580.49	50466.63
580.65	50770.90
580.82	50513.44
580.98	50305.13
581.14	50494.72
581.30	50728.77
581.46	50611.74
581.62	50590.68
581.78	50557.91
581.94	50930.06
582.10	50312.16
582.26	50665.58
582.42	50394.07
582.58	50653.87
582.74	50443.23
582.90	50588.34
583.06	50665.58
583.22	50293.43
583.38	50852.82
583.54	50298.11
583.70	50894.95
583.86	50665.58
584.02	50295.77
584.18	50859.84
584.34	50534.51
584.50	50504.08
584.66	50794.31
584.82	50459.61
584.98	50813.03
585.14	50857.50
585.30	50555.57
585.46	50578.98
585.62	50724.09
585.78	50908.99
585.94	50349.60
586.10	50768.56
586.26	50447.91
586.42	50639.83
586.58	50899.63
586.74	50873.88
586.90	50927.72
587.06	50759.20
587.22	50958.14
587.38	50948.78
587.54	50981.55
587.70	50857.50
587.86	50791.97
588.02	51047.08
588.18	50728.77
588.34	50564.93
588.49	50621.11
588.65	50724.09
588.81	50904.31
588.97	51084.53
589.13	51337.31
589.29	50852.82
589.45	51112.62
589.61	51126.66
589.77	51358.38
589.93	50962.82
590.08	50756.86
590.24	51009.64
590.40	51433.27
590.56	51082.19
590.72	50962.82
590.88	50930.06
591.04	51157.09
591.20	51325.61
591.35	51248.37
591.51	51166.45
591.67	50988.57
591.83	51407.53
591.99	51297.52
592.15	51489.45
592.31	51435.61
592.46	51388.80
592.62	51473.06
592.78	51480.08
592.94	51194.54
593.10	51224.96
593.26	51585.41
593.41	51019.00
593.57	51494.13
593.73	51334.97
593.89	51363.06
594.05	51304.54
594.20	50997.93
594.36	51711.80
594.52	51475.40
594.68	51461.36
594.84	51526.89
594.99	51569.02
595.15	51554.98
595.31	51611.15
595.47	51515.19
595.62	51339.65
595.78	51297.52
595.94	51100.92
596.10	51157.09
596.25	51782.01
596.41	51611.15
596.57	51461.36
596.73	51475.40
596.88	51276.46
597.04	51400.50
597.20	51210.92
597.36	51154.75
597.51	51461.36
597.67	51044.74
597.83	51332.63
597.99	51367.74
598.14	51508.17
598.30	51290.50
598.46	51620.52
598.61	51585.41
598.77	51515.19
598.93	51693.07
599.09	51423.91
599.24	51538.60
599.40	51224.96
599.56	51089.21
599.71	51143.05
599.87	51620.52
600.03	51688.39
600.18	51669.67
600.34	51636.90
600.50	51473.06
600.65	51260.07
600.81	51646.26
600.97	51330.29
601.12	51508.17
601.28	51449.66
601.44	51533.92
601.59	51702.43
601.75	51274.12
601.91	51742.22
602.06	51491.79
602.22	51934.15
602.37	51545.62
602.53	51505.83
602.69	51236.67
602.84	51325.61
603.00	51288.16
603.16	51110.28
603.31	51519.87
603.47	51826.48
603.62	51662.64
603.78	51646.26
603.94	51356.03
604.09	51833.50
604.25	51779.67
604.40	51667.33
604.56	51702.43
604.71	51398.16
604.87	51311.56
605.03	51412.21
605.18	51201.56
605.34	51377.10
605.49	51391.14
605.65	51772.65
605.80	51489.45
605.96	51622.86
606.12	51477.74
606.27	51777.33
606.43	51529.23
606.58	51372.42
606.74	51098.58
606.89	51393.48
607.05	50932.40
607.20	51613.49
607.36	51395.82
607.51	51171.13
607.67	51468.38
607.82	51693.07
607.98	51365.40
608.13	51325.61
608.29	50986.23
608.44	51264.75
608.60	51004.95
608.75	51285.82
608.91	51255.39
609.06	50632.81
609.22	50941.76
609.37	51049.42
609.53	51426.25
609.68	51271.78
609.84	50986.23
609.99	51334.97
610.15	51098.58
610.30	51159.43
610.46	51098.58
610.61	50618.77
610.76	50770.90
610.92	50948.78
611.07	50897.29
611.23	50670.26
611.38	51150.07
611.54	51217.94
611.69	50913.67
611.84	51346.67
612.00	51166.45
612.15	51105.60
612.31	51246.03
612.46	50883.25
612.62	50770.90
612.77	50628.13
612.92	50890.27
613.08	50384.71
613.23	51178.15
613.39	50904.31
613.54	50471.31
613.69	50974.53
613.85	51416.89
614.00	51023.68
614.15	50969.85
614.31	50967.51
614.46	50918.35
614.62	50639.83
614.77	50927.72
614.92	51044.74
615.08	51019.00
615.23	50735.79
615.38	50803.67
615.54	50578.98
615.69	50911.33
615.84	50483.01
616.00	50789.62
616.15	50962.82
616.30	50600.04
616.46	50714.73
616.61	50728.77
616.76	50557.91
616.92	50452.59
617.07	50719.41
617.22	50293.43
617.37	50358.97
617.53	51028.36
617.68	50705.37
617.83	50452.59
617.99	50604.72
618.14	50468.97
618.29	50415.14
618.45	50192.79
618.60	50300.45
618.75	50066.40
618.90	49977.46
619.06	50258.32
619.21	50092.15
619.36	49904.90
619.51	49918.95
619.67	49832.35
619.82	50330.88
619.97	49984.48
620.12	50143.64
620.28	49518.71
620.43	49865.11
620.58	50145.98
620.73	49722.34
620.89	49752.77
621.04	50153.00
621.19	49860.43
621.34	50143.64
621.49	49895.54
621.65	49886.18
621.80	50480.67
621.95	50263.00
622.10	50059.38
622.25	49813.62
622.41	49846.39
622.56	49570.21
622.71	50005.55
622.86	50042.99
623.01	49495.31
623.16	49598.29
623.32	49624.04
623.47	50068.74
623.62	49645.10
623.77	49790.22
623.92	49750.43
624.07	49879.16
624.23	49907.24
624.38	49525.74
624.53	49453.18
624.68	49492.97
624.83	49446.16
624.98	49333.81
625.13	49350.20
625.29	49219.13
625.44	49207.42
625.59	49242.53
625.74	49256.57
625.89	49453.18
626.04	49862.77
626.19	49544.46
626.34	49696.59
626.49	49305.73
626.65	49235.51
626.80	49319.77
626.95	48683.14
627.10	48729.95
627.25	49088.06
627.40	48933.58
627.55	49347.86
627.70	48748.68
627.85	49141.89
628.00	48832.94
628.15	49303.38
628.30	48954.64
628.45	48886.77
628.60	49013.16
628.76	49010.82
628.91	48882.09
629.06	48498.24
629.21	49261.26
629.36	48561.44
629.51	48889.11
629.66	48858.68
629.81	48556.75
629.96	49029.54
630.11	48942.94
630.26	48865.70
630.41	48624.63
630.56	48486.54
630.71	48423.34
630.86	48814.21
631.01	48884.43
631.16	48329.72
631.31	48011.41
631.46	48137.80
631.61	48399.94
631.76	48322.70
631.91	48200.99
632.06	48332.06
632.21	48376.53
632.36	48739.32
632.51	48208.01
632.66	48254.82
632.81	48055.88
632.96	48296.95
633.10	48004.39
633.25	48090.99
633.40	48191.63
633.55	47861.61
633.70	47700.12
633.85	48126.10
634.00	48076.94
634.15	48451.43
634.30	48154.18
634.45	48208.01
634.60	48186.95
634.75	48282.91
634.90	47922.47
635.05	47648.63
635.19	47744.59
635.34	47988.00
635.49	47739.91
635.64	47430.96
635.79	47964.60
635.94	48126.10
636.09	47653.31
636.24	47728.20
636.39	47758.63
636.53	48109.71
636.68	47929.49
636.83	47870.98
636.98	47590.11
637.13	47210.95
637.28	47590.11
637.43	47634.58
637.57	47636.92
637.72	47990.34
637.87	47370.10
638.02	47306.91
638.17	47152.43
638.32	47557.35
638.46	47597.13
638.61	48046.52
638.76	47311.59
638.91	47213.29
639.06	47325.63
639.20	47414.57
639.35	47281.16
639.50	47400.53
639.65	47496.49
639.80	47590.11
639.94	47173.50
640.09	47222.65
640.24	47398.19
640.39	47271.80
640.54	46803.69
640.68	47213.29
640.83	46944.12
640.98	47014.34
641.13	46719.43
641.27	47384.15
641.42	46677.30
641.57	46614.11
641.72	46897.31
641.86	46384.74
642.01	46630.49
642.16	46731.14
642.31	46445.59
642.45	46904.34
642.60	46658.58
642.75	46571.98
642.90	46295.80
643.04	46927.74
643.19	46618.79
643.34	46649.22
643.48	46625.81
643.63	46333.24
643.78	46347.29
643.93	46536.87
644.07	46164.73
644.22	46855.18
644.37	45954.08
644.51	46384.74
644.66	46815.40
644.81	46403.46
644.95	46607.09
645.10	46267.71
645.25	46326.22
645.39	46319.20
645.54	46391.76
645.69	46127.28
645.83	46459.63
645.98	46745.18
646.13	46192.81
646.27	46157.70
646.42	46038.34
646.57	45942.38
646.71	45874.50
646.86	45783.22
647.00	46169.41
647.15	46288.77
647.30	46433.89
647.44	46450.27
647.59	46225.58
647.74	45792.58
647.88	45682.58
648.03	45879.18
648.17	46068.76
648.32	45478.95
648.47	46057.06
648.61	45600.66
648.76	46230.26
648.90	45970.46
649.05	46143.66
649.20	45848.75
649.34	45713.00
649.49	45703.64
649.63	45984.51
649.78	45855.78
649.92	45373.63
650.07	45352.56
650.21	45701.30
650.36	45603.00
650.51	45045.95
650.65	44954.67
650.80	45289.37
650.94	45544.48
651.09	44942.97
651.23	45282.34
651.38	45148.93
651.52	44914.88
651.67	45392.35
651.81	45558.53
651.96	45453.20
652.10	45357.24
652.25	45303.41
652.39	45104.46
652.54	45184.04
652.68	45460.23
652.83	45202.77
652.97	45382.99
653.12	45041.27
653.26	45057.65
653.41	44952.33
653.55	44959.35
653.70	45354.90
653.84	45633.42
653.99	45277.66
654.13	45408.73
654.27	44994.46
654.42	44868.07
654.56	44671.46
654.71	44669.12
654.85	44807.22
655.00	44741.68
655.14	44552.10
655.29	44147.18
655.43	44711.25
655.57	44535.71
655.72	44514.65
655.86	44772.11
656.01	44669.12
656.15	44542.74
656.30	44727.64
656.44	44715.93
656.58	44521.67
656.73	44091.01
656.87	44502.95
657.01	44034.84
657.16	44348.47
657.30	44011.43
657.45	44119.10
657.59	43824.19
657.73	43814.83
657.88	44329.75
658.02	43700.14
658.16	43728.23
658.31	43938.88
658.45	43976.33
658.60	44053.56
658.74	43786.74
658.88	43430.98
659.03	43655.67
659.17	43438.00
659.31	43887.39
659.46	43159.48
659.60	43686.10
659.74	43477.79
659.89	43438.00
660.03	43199.27
660.17	43817.17
660.32	43524.60
660.46	43166.50
660.60	43250.76
660.74	43599.50
660.89	43494.18
661.03	42990.96
661.17	43428.64
661.32	43239.06
661.46	42916.06
661.60	42506.47
661.74	43023.73
661.89	42822.44
662.03	42632.86
662.17	42216.24
662.31	42572.00
662.46	43042.45
662.60	42829.46
662.74	42429.23
662.88	42569.66
663.03	43126.71
663.17	42693.71
663.31	42384.76
663.45	42520.51
663.60	42019.64
663.74	42178.79
663.88	41806.65
664.02	41432.16
664.17	41926.02
664.31	41640.47
664.45	42167.09
664.59	42047.72
664.73	41654.51
664.88	41963.46
665.02	41968.15
665.16	41579.62
665.30	42036.02
665.44	42019.64
665.59	41350.24
665.73	41642.81
665.87	41139.60
666.01	41408.76
666.15	41736.43
666.29	41027.25
666.44	41242.58
666.58	40954.69
666.72	40905.54
666.86	41163.00
667.00	41062.36
667.14	40978.10
667.28	40793.20
667.43	41053.00
667.57	41184.07
667.71	41408.76
667.85	41118.53
667.99	40896.18
668.13	40779.15
668.27	40680.85
668.41	41015.55
668.56	40547.44
668.70	40491.27
668.84	40444.46
668.98	40034.86
669.12	40102.74
669.26	39999.76
669.40	40091.04
669.54	40053.59
669.68	40187.00
669.82	39936.56
669.96	39945.92
670.10	40198.70
670.25	40009.12
670.39	39821.87
670.53	39784.43
670.67	39625.27
670.81	39732.93
670.95	39290.57
671.09	39000.35
671.23	38923.11
671.37	39342.06
671.51	39044.82
671.65	38972.26
671.79	38906.73
671.93	38937.15
672.07	39686.12
672.21	39136.10
672.35	38768.63
672.49	39372.49
672.63	38857.57
672.77	38499.47
672.91	38569.69
673.05	38455.00
673.19	38443.30
673.33	38431.60
673.47	38452.66
673.61	37972.85
673.75	37935.40
673.89	38134.35
674.03	38073.49
674.17	38195.20
674.31	38471.39
674.45	37874.55
674.59	37673.26
674.73	37558.58
674.87	37422.83
675.01	37408.78
675.15	37624.11
675.29	37525.81
675.43	37188.77
675.56	37713.05
675.70	37462.61
675.84	36818.97
675.98	35775.09
676.12	36776.84
676.26	36996.85
676.40	36987.49
676.54	36306.39
676.68	36575.55
676.82	36105.10
676.96	36264.26
677.10	36610.66
677.23	36163.62
677.37	36158.94
677.51	36463.21
677.65	36282.98
677.79	35772.75
677.93	35906.16
678.07	35629.98
678.21	35005.05
678.34	35225.06
678.48	34993.35
678.62	34778.02
678.76	34293.53
678.90	34862.28
679.04	34717.17
679.18	35194.64
679.31	34558.01
679.45	34455.03
679.59	34616.52
679.73	34895.05
679.87	34466.73
680.00	34181.18
680.14	34445.66
680.28	34230.33
680.42	34024.37
680.56	33736.48
680.70	33324.55
680.83	33181.77
680.97	32877.51
681.11	33425.19
681.25	33137.30
681.39	33184.12
681.52	33275.40
681.66	33160.71
681.80	32793.25
681.94	33053.05
682.07	32856.44
682.21	32905.59
682.35	32716.01
682.49	32638.77
682.62	32456.21
682.76	31934.27
682.90	32322.80
683.04	32177.68
683.17	31917.89
683.31	31899.16
683.45	32142.58
683.59	31449.78
683.72	31447.44
683.86	31620.64
684.00	31229.77
684.13	31316.37
684.27	31023.80
684.41	31421.69
684.55	31342.11
684.68	31019.12
684.82	31035.50
684.96	31152.53
685.09	30586.12
685.23	30443.35
685.37	30426.96
685.50	30429.30
685.64	30064.18
685.78	29933.11
685.91	30286.53
686.05	30354.41
686.19	29411.17
686.32	29355.00
686.46	29605.44
686.60	29130.31
686.73	29961.20
686.87	29685.01
687.01	29837.15
687.14	29364.36
687.28	29523.52
687.42	29074.13
687.55	29333.93
687.69	29027.32
687.82	29071.79
687.96	28725.39
688.10	28339.21
688.23	28341.55
688.37	28271.33
688.50	28313.46
688.64	27941.32
688.78	27810.25
688.91	27803.22
689.05	28219.84
689.18	27768.12
689.32	27309.37
689.46	27377.25
689.59	27679.18
689.73	27974.08
689.86	27421.72
690.00	27744.71
690.13	27695.56
690.27	27271.92
690.41	27101.06
690.54	26937.23
690.68	26721.90
690.81	26326.35
690.95	26897.44
691.08	26497.20
691.22	26242.09
691.35	25937.82
691.49	26082.93
691.62	26345.07
691.76	26302.94
691.89	26389.54
692.03	26089.95
692.16	25891.01
692.30	25968.24
692.43	25954.20
692.57	25626.53
692.70	25359.70
692.84	25591.42
692.97	25378.43
693.11	25104.59
693.24	24844.79
693.38	24793.29
693.51	24992.24
693.65	24861.17
693.78	24959.47
693.92	24737.12
694.05	24479.66
694.19	24254.97
694.32	24229.23
694.45	24240.93
694.59	24219.86
694.72	24313.48
694.86	24240.93
694.99	23803.25
695.13	23608.98
695.26	23761.12
695.39	23625.37
695.53	23683.88
695.66	23442.81
695.80	23318.76
695.93	23007.47
696.07	22621.28
696.20	23190.03
696.33	22665.75
696.47	22782.77
696.60	22576.81
696.73	22792.14
696.87	22632.98
697.00	22750.01
697.14	22527.66
697.27	22455.10
697.40	22560.42
697.54	22714.90
697.67	22040.82
697.80	22244.45
697.94	21886.35
698.07	21951.88
698.21	21563.36
698.34	21287.17
698.47	21277.81
698.61	21132.70
698.74	21186.53
698.87	21099.93
699.01	20917.37
699.14	20713.74
699.27	21085.89
699.40	20961.84
699.54	20938.43
699.67	20840.13
699.80	20367.34
699.94	20430.54
700.07	20442.24
700.20	20467.98
700.34	20287.76
700.47	20210.53
700.60	20208.19
700.73	20114.56
700.87	19704.97
701.00	19571.56
701.13	19576.24
701.26	19763.48
701.40	19747.10
701.53	19197.07
701.66	19278.99
701.79	18998.13
701.93	19192.39
702.06	19112.81
702.19	19007.49
702.32	19194.73
702.46	19445.17
702.59	18892.80
702.72	18497.25
702.85	18710.24
702.99	18654.07
703.12	18822.59
703.25	18328.74
703.38	18382.57
703.51	18115.75
703.65	17858.29
703.78	17542.32
703.91	17830.20
704.04	17994.04
704.17	17755.30
704.31	17734.24
704.44	17827.86
704.57	17699.13
704.70	17542.32
704.83	17334.01
704.96	17544.66
705.10	17465.08
705.23	17305.92
>>>>>End Processed Spectral Data<<<<<
