SpectraSuite Data File
++++++++++++++++++++++++++++++++++++
Date: Fri Oct 04 11:39:19 GMT-05:00 2013
User: price-jones
Dark Spectrum Present: No
Reference Spectrum Present: No
Number of Sampled Component Spectra: 1
Spectrometers: USB2+H05261
Integration Time (usec): 100000 (USB2+H05261)
Spectra Averaged: 1 (USB2+H05261)
Boxcar Smoothing: 0 (USB2+H05261)
Correct for Electrical Dark: No (USB2+H05261)
Strobe/Lamp Enabled: No (USB2+H05261)
Correct for Detector Non-linearity: No (USB2+H05261)
Correct for Stray Light: No (USB2+H05261)
Number of Pixels in Processed Spectrum: 2048
>>>>>Begin Processed Spectral Data<<<<<
365.73	63.19
365.92	63.19
366.12	63.19
366.32	0.00
366.52	0.00
366.72	0.00
366.91	21.06
367.11	7.02
367.31	0.00
367.51	0.00
367.70	0.00
367.90	0.00
368.10	0.00
368.30	18.72
368.49	0.00
368.69	14.04
368.89	0.00
369.09	0.00
369.28	0.00
369.48	0.00
369.68	0.00
369.87	0.00
370.07	56.17
370.27	28.09
370.47	126.39
370.66	203.63
370.86	287.89
371.06	276.18
371.25	290.23
371.45	252.78
371.65	327.68
371.84	264.48
372.04	266.82
372.24	280.86
372.44	320.65
372.63	355.76
372.83	418.96
373.03	330.02
373.22	315.97
373.42	379.17
373.62	273.84
373.81	372.15
374.01	355.76
374.21	358.10
374.40	355.76
374.60	386.19
374.79	369.80
374.99	416.62
375.19	430.66
375.38	458.74
375.58	400.23
375.78	425.98
375.97	341.72
376.17	475.13
376.37	402.57
376.56	486.83
376.76	388.53
376.95	433.00
377.15	414.27
377.35	411.93
377.54	411.93
377.74	358.10
377.93	421.30
378.13	451.72
378.33	470.45
378.52	344.06
378.72	510.24
378.91	430.66
379.11	430.66
379.31	393.21
379.50	463.43
379.70	465.77
379.89	486.83
380.09	397.89
380.28	449.38
380.48	449.38
380.68	470.45
380.87	416.62
381.07	475.13
381.26	496.19
381.46	550.03
381.65	484.49
381.85	442.36
382.04	498.53
382.24	461.09
382.43	456.40
382.63	442.36
382.83	528.96
383.02	533.64
383.22	610.88
383.41	451.72
383.61	543.00
383.80	535.98
384.00	475.13
384.19	543.00
384.39	543.00
384.58	489.17
384.78	601.52
384.97	533.64
385.17	578.11
385.36	564.07
385.56	545.34
385.75	491.51
385.95	470.45
386.14	531.30
386.34	540.66
386.53	587.47
386.72	620.24
386.92	592.16
387.11	641.31
387.31	528.96
387.50	528.96
387.70	582.79
387.89	596.84
388.09	568.75
388.28	603.86
388.48	507.90
388.67	648.33
388.86	648.33
389.06	636.63
389.25	671.73
389.45	624.92
389.64	636.63
389.84	678.76
390.03	648.33
390.22	629.60
390.42	585.13
390.61	692.80
390.81	645.99
391.00	716.20
391.19	695.14
391.39	744.29
391.58	716.20
391.78	725.57
391.97	732.59
392.16	601.52
392.36	786.42
392.55	767.70
392.75	751.31
392.94	741.95
393.13	706.84
393.33	774.72
393.52	669.39
393.71	816.85
393.91	800.46
394.10	741.95
394.29	718.54
394.49	763.01
394.68	840.25
394.88	791.10
395.07	912.81
395.26	791.10
395.46	760.67
395.65	851.96
395.84	882.38
396.04	901.11
396.23	812.17
396.42	800.46
396.62	800.46
396.81	840.25
397.00	786.42
397.19	887.06
397.39	931.53
397.58	990.05
397.77	938.55
397.97	926.85
398.16	976.00
398.35	1036.86
398.55	905.79
398.74	915.15
398.93	980.68
399.12	940.90
399.32	1013.45
399.51	1015.79
399.70	1144.52
399.90	1088.35
400.09	1004.09
400.28	973.66
400.47	1041.54
400.67	1109.41
400.86	1071.97
401.05	1100.05
401.24	1102.39
401.44	1156.22
401.63	1177.29
401.82	1158.57
402.01	1123.46
402.21	1144.52
402.40	1196.01
402.59	1111.75
402.78	1135.16
402.97	1156.22
403.17	1268.57
403.36	1242.82
403.55	1252.19
403.74	1350.49
403.93	1303.68
404.13	1322.40
404.32	1287.29
404.51	1259.21
404.70	1373.89
404.89	1245.16
405.09	1423.05
405.28	1294.32
405.47	1355.17
405.66	1423.05
405.85	1423.05
406.05	1362.19
406.24	1451.13
406.43	1521.35
406.62	1390.28
406.81	1659.44
407.00	1570.50
407.20	1439.43
407.39	1467.52
407.58	1514.33
407.77	1586.88
407.96	1537.73
408.15	1507.30
408.34	1614.97
408.54	1638.38
408.73	1490.92
408.92	1643.06
409.11	1631.35
409.30	1757.74
409.49	1540.07
409.68	1678.16
409.87	1671.14
410.07	1703.91
410.26	1675.82
410.45	1757.74
410.64	1795.19
410.83	1884.13
411.02	1799.87
411.21	1825.62
411.40	1891.15
411.59	1788.17
411.78	1846.68
411.98	1813.92
412.17	1809.23
412.36	1987.11
412.55	1952.01
412.74	2026.90
412.93	1982.43
413.12	1991.80
413.31	2141.59
413.50	2113.50
413.69	2132.23
413.88	2204.78
414.07	2141.59
414.26	2139.25
414.45	2106.48
414.64	2258.62
414.83	2263.30
415.02	2230.53
415.22	2277.34
415.41	2373.30
415.60	2319.47
415.79	2368.62
415.98	2450.54
416.17	2417.77
416.36	2289.04
416.55	2296.07
416.74	2361.60
416.93	2443.52
417.12	2441.18
417.31	2579.27
417.50	2420.11
417.69	2621.40
417.88	2607.36
418.07	2602.68
418.26	2663.53
418.45	2729.06
418.64	2848.43
418.83	2731.41
419.02	2801.62
419.21	2813.32
419.39	2642.46
419.58	2691.62
419.77	2738.43
419.96	2803.96
420.15	2883.54
420.34	2747.79
420.53	2881.20
420.72	2909.29
420.91	2963.12
421.10	2986.52
421.29	3007.59
421.48	2946.73
421.67	3016.95
421.86	2897.58
422.05	2897.58
422.24	2974.82
422.43	2939.71
422.61	2953.76
422.80	3075.46
422.99	3021.63
423.18	3045.04
423.37	3023.97
423.56	3089.51
423.75	3082.49
423.94	2988.86
424.13	2794.60
424.32	2892.90
424.50	3073.12
424.69	3215.90
424.88	3236.96
425.07	3143.34
425.26	2928.01
425.45	3077.80
425.64	2977.16
425.83	3089.51
426.01	3206.53
426.20	3096.53
426.39	3054.40
426.58	3225.26
426.77	3171.43
426.96	3112.91
427.15	3201.85
427.33	3141.00
427.52	3148.02
427.71	3192.49
427.90	3239.30
428.09	3307.18
428.28	3267.39
428.46	3405.48
428.65	3229.94
428.84	3445.27
429.03	3431.23
429.22	3204.19
429.40	3398.46
429.59	3372.71
429.78	3330.58
429.97	3361.01
430.16	3344.63
430.34	3412.50
430.53	3478.04
430.72	3531.87
430.91	3459.31
431.10	3625.49
431.28	3616.13
431.47	3630.17
431.66	3606.77
431.85	3667.62
432.03	3627.83
432.22	3794.01
432.41	3777.62
432.60	3754.22
432.79	3669.96
432.97	3737.84
433.16	3716.77
433.35	3772.94
433.54	3906.35
433.72	3784.65
433.91	3850.18
434.10	3857.20
434.28	3709.75
434.47	3999.98
434.66	3943.80
434.85	4035.08
435.03	4037.42
435.22	4177.86
435.41	4517.23
435.59	4367.44
435.78	4360.42
435.97	4107.64
436.16	4152.11
436.34	3971.89
436.53	4126.36
436.72	4145.09
436.90	4007.00
437.09	4124.02
437.28	4007.00
437.46	4234.03
437.65	4145.09
437.84	4311.27
438.02	4278.50
438.21	4320.63
438.40	4301.90
438.58	4414.25
438.77	4568.73
438.96	4390.84
439.14	4454.04
439.33	4573.41
439.52	4521.92
439.70	4404.89
439.89	4320.63
440.08	4725.54
440.26	4664.69
440.45	4809.80
440.63	4645.96
440.82	4718.52
441.01	4755.97
441.19	4681.07
441.38	4781.71
441.57	4863.63
441.75	4947.89
441.94	4957.25
442.12	4966.62
442.31	5188.97
442.50	5015.77
442.68	4990.02
442.87	5100.03
443.05	5046.20
443.24	5078.96
443.43	4959.60
443.61	5163.22
443.80	5317.70
443.98	5085.98
444.17	5064.92
444.35	5093.01
444.54	5235.78
444.73	5195.99
444.91	5088.32
445.10	5364.51
445.28	5219.39
445.47	5104.71
445.65	5280.25
445.84	5280.25
446.02	5350.46
446.21	5235.78
446.39	5212.37
446.58	5282.59
446.77	5200.67
446.95	5081.30
447.14	5348.12
447.32	5238.12
447.51	5357.49
447.69	5317.70
447.88	5376.21
448.06	5451.11
448.25	5224.08
448.43	5465.15
448.62	5308.34
448.80	5289.61
448.99	5399.62
449.17	5455.79
449.36	5416.00
449.54	5825.59
449.73	5668.78
449.91	5621.97
450.10	5621.97
450.28	5872.40
450.46	5603.24
450.65	5727.29
450.83	5710.91
451.02	5671.12
451.20	5809.21
451.39	5853.68
451.57	5783.46
451.76	5877.09
451.94	5837.30
452.13	5959.00
452.31	5933.26
452.49	5729.63
452.68	5921.56
452.86	5926.24
453.05	6033.90
453.23	6087.73
453.42	6005.81
453.60	5886.45
453.78	5942.62
453.97	5860.70
454.15	6017.52
454.34	6029.22
454.52	6115.82
454.70	6059.65
454.89	6317.11
455.07	6134.54
455.26	6221.14
455.44	6167.31
455.62	6230.51
455.81	6239.87
455.99	6328.81
456.17	6382.64
456.36	6420.09
456.54	6384.98
456.73	6354.55
456.91	6487.96
457.09	6555.84
457.28	6848.41
457.46	6420.09
457.64	6635.42
457.83	6604.99
458.01	6567.54
458.19	6649.46
458.38	6595.63
458.56	6803.94
458.74	6841.39
458.93	6679.89
459.11	6480.94
459.29	6899.90
459.48	6820.32
459.66	6759.47
459.84	6895.22
460.03	7190.13
460.21	6832.02
460.39	6897.56
460.57	6803.94
460.76	6991.18
460.94	7122.25
461.12	7162.04
461.31	7089.48
461.49	6902.24
461.67	7124.59
461.85	7173.74
462.04	7204.17
462.22	7749.51
462.40	7403.11
462.59	7197.15
462.77	7229.91
462.95	7358.64
463.13	7297.79
463.32	7318.86
463.50	7372.69
463.68	7260.34
463.86	7421.84
464.05	7232.26
464.23	7229.91
464.41	7356.30
464.59	7414.82
464.78	7597.38
464.96	7391.41
465.14	7351.62
465.32	7581.00
465.50	7646.53
465.69	7552.91
465.87	7534.18
466.05	7536.52
466.23	7555.25
466.41	7812.71
466.60	7845.48
466.78	7805.69
466.96	7716.75
467.14	7803.35
467.32	7691.00
467.51	7836.11
467.69	7543.55
467.87	7784.62
468.05	7775.26
468.23	7985.91
468.41	7723.77
468.60	7953.14
468.78	7948.46
468.96	7817.39
469.14	8046.76
469.32	8224.64
469.50	7887.61
469.69	8042.08
469.87	8112.30
470.05	8208.26
470.23	8278.47
470.41	8341.67
470.59	8407.20
470.77	8212.94
470.95	8238.69
471.14	8339.33
471.32	8287.84
471.50	8643.60
471.68	8458.70
471.86	8557.00
472.04	8568.70
472.22	8889.35
472.40	8622.53
472.58	8615.51
472.77	8608.49
472.95	8767.65
473.13	9109.36
473.31	8823.82
473.49	8781.69
473.67	8898.72
473.85	8868.29
474.03	9125.75
474.21	8954.89
474.39	9149.15
474.57	9256.82
474.75	9282.56
474.93	9275.54
475.12	9247.46
475.30	9413.63
475.48	9355.12
475.66	9327.03
475.84	9350.44
476.02	9673.43
476.20	9619.60
476.38	9717.90
476.56	9790.46
476.74	9799.82
476.92	9933.23
477.10	9961.32
477.28	9966.00
477.46	9951.96
477.64	10223.46
477.82	10129.84
478.00	10733.70
478.18	10366.23
478.36	10530.07
478.54	10817.96
478.72	10705.61
478.90	10841.36
479.08	10832.00
479.26	10890.51
479.44	11143.29
479.62	11330.53
479.80	11044.99
479.98	11339.90
480.16	11442.88
480.34	11052.01
480.52	11674.59
480.70	11545.86
480.88	11396.07
481.06	11688.64
481.24	11627.78
481.41	11723.74
481.59	11906.31
481.77	12102.91
481.95	12060.78
482.13	12322.92
482.31	12194.19
482.49	12458.67
482.67	12650.60
482.85	12739.54
483.03	12776.98
483.21	12989.97
483.39	13064.87
483.57	12917.42
483.74	13114.02
483.92	13390.20
484.10	13280.20
484.28	13490.85
484.46	13696.82
484.64	13937.89
484.82	13654.69
485.00	13748.31
485.18	14190.67
485.35	14164.92
485.53	14417.70
485.71	14260.88
485.89	14721.97
486.07	14445.79
486.25	14335.78
486.43	14719.63
486.61	14717.29
486.78	14883.47
486.96	15147.95
487.14	15592.65
487.32	15297.74
487.50	15351.57
487.68	15665.21
487.85	15545.84
488.03	15681.59
488.21	15948.41
488.39	15850.11
488.57	16224.59
488.75	16477.37
488.92	16641.21
489.10	16624.83
489.28	16608.44
489.46	17139.74
489.64	16940.80
489.81	17209.96
489.99	17193.58
490.17	17312.94
490.35	17441.67
490.53	17640.62
490.70	17582.10
490.88	17467.42
491.06	17811.48
491.24	17619.55
491.41	18066.60
491.59	18176.60
491.77	18153.20
491.95	18490.23
492.13	18307.67
492.30	18616.62
492.48	18822.59
492.66	18665.77
492.84	18752.37
493.01	19094.09
493.19	19115.16
493.37	19302.40
493.54	19344.53
493.72	19379.64
493.90	19435.81
494.08	19936.68
494.25	19913.28
494.43	19932.00
494.61	20149.67
494.79	20177.76
494.96	20077.12
495.14	20456.28
495.32	20636.50
495.49	20725.44
495.67	20952.48
495.85	20889.28
496.02	21053.12
496.20	20746.51
496.38	20896.30
496.55	21174.83
496.73	21685.06
496.91	21268.45
497.09	21495.48
497.26	21914.44
497.44	21862.94
497.62	21891.03
497.79	22291.26
497.97	22249.13
498.14	22324.03
498.32	22532.34
498.50	22267.86
498.67	22668.09
498.85	22703.20
499.03	22733.62
499.20	22838.95
499.38	22855.33
499.56	22850.65
499.73	22869.37
499.91	23325.78
500.08	23594.94
500.26	23150.24
500.44	23110.45
500.61	23627.71
500.79	23388.97
500.97	23981.13
501.14	24156.67
501.32	23779.84
501.49	24051.34
501.67	24037.30
501.84	24077.09
502.02	24245.61
502.20	24699.67
502.37	24559.24
502.55	24608.39
502.72	24648.18
502.90	24425.83
503.07	24584.99
503.25	24915.00
503.43	24720.74
503.60	24856.49
503.78	24905.64
503.95	25097.56
504.13	25223.95
504.30	25240.34
504.48	25427.58
504.65	25773.98
504.83	25273.10
505.01	25710.78
505.18	25591.42
505.36	26134.42
505.53	25989.31
505.71	25900.37
505.88	25869.94
506.06	25795.04
506.23	26228.04
506.41	25757.60
506.58	26522.95
506.76	26457.42
506.93	26253.79
507.11	26279.54
507.28	26520.61
507.46	26380.18
507.63	26618.91
507.81	27021.48
507.98	26464.44
508.16	26883.39
508.33	26682.11
508.50	27063.61
508.68	27236.81
508.85	27669.81
509.03	27365.54
509.20	27592.58
509.38	27660.45
509.55	27498.95
509.73	27777.48
509.90	27880.46
510.08	28002.17
510.25	28130.90
510.42	28072.39
510.60	28287.71
510.77	28451.55
510.95	28659.86
511.12	28184.73
511.30	28357.93
511.47	28844.76
511.64	28734.76
511.82	29017.96
511.99	28835.40
512.17	28914.98
512.34	29092.86
512.51	29212.23
512.69	29184.14
512.86	29373.72
513.04	29448.62
513.21	29572.67
513.38	29858.21
513.56	29465.00
513.73	28992.22
513.90	29291.80
514.08	29537.56
514.25	29879.28
514.43	29963.54
514.60	29940.13
514.77	29935.45
514.95	30328.66
515.12	30298.23
515.29	29930.77
515.47	30532.29
515.64	30462.07
515.81	30536.97
515.99	30775.70
516.16	30532.29
516.33	31005.08
516.51	30796.77
516.68	30668.04
516.85	30904.43
517.03	31232.11
517.20	31037.84
517.37	31297.64
517.54	31229.77
517.72	31302.32
517.89	30841.24
518.06	31072.95
518.24	31159.55
518.41	31365.52
518.58	31672.13
518.75	31644.04
518.93	32297.05
519.10	31342.11
519.27	31889.80
519.45	31747.03
519.62	32198.75
519.79	31683.83
519.96	31817.24
520.14	32275.99
520.31	32140.24
520.48	32481.95
520.65	32130.87
520.83	32577.92
521.00	32128.53
521.17	32428.12
521.34	32758.14
521.52	32797.93
521.69	32968.79
521.86	33172.41
522.03	33184.12
522.20	33376.04
522.38	33153.69
522.55	33233.27
522.72	33130.28
522.89	33408.81
523.07	33586.69
523.24	33448.60
523.41	33720.10
523.58	33479.02
523.75	33729.46
523.92	33783.29
524.10	33172.41
524.27	33844.15
524.44	34139.05
524.61	34480.77
524.78	33820.74
524.96	34237.36
525.13	34227.99
525.30	34267.78
525.47	34426.94
525.64	34424.60
525.81	34410.56
525.98	34452.69
526.16	34412.90
526.33	34632.91
526.50	34857.60
526.67	34602.48
526.84	35115.06
527.01	35021.44
527.18	34857.60
527.36	35260.17
527.53	35398.26
527.70	35175.91
527.87	35452.09
528.04	34780.36
528.21	35016.75
528.38	35278.89
528.55	35531.67
528.72	35615.93
528.89	35470.82
529.07	35548.06
529.24	35597.21
529.41	35896.80
529.58	35086.97
529.75	35578.48
529.92	35353.79
530.09	35976.37
530.26	35608.91
530.43	35587.85
530.60	35938.93
530.77	36451.50
530.94	36343.84
531.11	36095.74
531.28	36027.87
531.46	36507.68
531.63	36479.59
531.80	36444.48
531.97	36591.94
532.14	36524.06
532.31	36458.52
532.48	37008.55
532.65	36847.05
532.82	36613.00
532.99	36669.17
533.16	36355.54
533.33	36725.35
533.50	37202.82
533.67	36917.27
533.84	36727.69
534.01	37174.73
534.18	37127.92
534.35	37488.36
534.52	37418.14
534.69	37340.91
534.86	37579.64
535.03	37214.52
535.20	37907.32
535.37	37748.16
535.54	37427.51
535.71	37280.05
535.88	37907.32
536.05	37862.85
536.22	37495.38
536.38	38094.56
536.55	38211.59
536.72	38117.96
536.89	37907.32
537.06	38281.80
537.23	38066.47
537.40	37888.59
537.57	38246.69
537.74	38188.18
537.91	38572.03
538.08	38382.45
538.25	38124.99
538.42	38347.34
538.59	38808.42
538.75	37827.74
538.92	38438.62
539.09	38216.27
539.26	38387.13
539.43	38628.20
539.60	38810.76
539.77	38773.31
539.94	39714.21
540.11	39203.97
540.28	38998.01
540.44	39363.13
540.61	39323.34
540.78	39131.42
540.95	39264.83
541.12	39423.98
541.29	39388.88
541.46	39754.00
541.62	39044.82
541.79	39711.87
541.96	39164.18
542.13	39285.89
542.30	39770.38
542.47	39873.37
542.63	39929.54
542.80	40046.57
542.97	39915.50
543.14	40404.67
543.31	40072.31
543.48	40100.40
543.64	40280.62
543.81	40730.00
543.98	40261.90
544.15	40650.42
544.32	40882.14
544.48	40645.74
544.65	40861.07
544.82	40458.50
544.99	40067.63
545.16	40659.79
545.32	40589.57
545.49	40989.80
545.66	41490.68
545.83	41900.27
546.00	41698.98
546.16	41265.99
546.33	41212.15
546.50	40397.65
546.67	41214.49
546.83	40325.09
547.00	40341.47
547.17	41055.34
547.34	40612.98
547.50	40765.11
547.67	41163.00
547.84	40821.28
548.00	41160.66
548.17	41364.29
548.34	40790.86
548.51	41626.43
548.67	41574.94
548.84	41546.85
549.01	41090.44
549.18	41198.11
549.34	41504.72
549.51	41682.60
549.68	41691.96
549.84	41202.79
550.01	41429.82
550.18	41221.52
550.34	41542.17
550.51	41801.97
550.68	41862.82
550.84	41500.04
551.01	41647.49
551.18	41333.86
551.34	41371.31
551.51	41968.15
551.68	41935.38
551.84	41996.23
552.01	41808.99
552.18	42021.98
552.34	41696.64
552.51	41563.23
552.68	41993.89
552.84	42178.79
553.01	42272.42
553.18	42169.43
553.34	42115.60
553.51	41937.72
553.67	42150.71
553.84	42340.29
554.01	42291.14
554.17	42454.98
554.34	42305.18
554.51	42234.97
554.67	42199.86
554.84	42405.83
555.00	42419.87
555.17	41937.72
555.33	42703.07
555.50	42178.79
555.67	42518.17
555.83	42490.09
556.00	42731.16
556.16	42614.13
556.33	42312.20
556.50	42349.65
556.66	42628.18
556.83	42520.51
556.99	43328.00
557.16	42555.62
557.32	42691.37
557.49	42923.08
557.65	42471.36
557.82	42932.45
557.98	43199.27
558.15	42796.70
558.32	43133.73
558.48	43222.67
558.65	42714.78
558.81	43435.66
558.98	43454.39
559.14	43012.02
559.31	43246.08
559.47	43168.84
559.64	42967.55
559.80	43456.73
559.97	43171.18
560.13	42974.58
560.30	43159.48
560.46	43519.92
560.63	43744.61
560.79	43061.18
560.96	43342.04
561.12	43529.28
561.29	43313.95
561.45	43615.88
561.61	43454.39
561.78	43435.66
561.94	43140.75
562.11	43599.50
562.27	43260.12
562.44	43215.65
562.60	43831.21
562.77	43407.58
562.93	43159.48
563.10	43814.83
563.26	43210.97
563.42	43826.53
563.59	44013.77
563.75	43859.30
563.92	43854.62
564.08	43440.34
564.24	43814.83
564.41	43559.71
564.57	43594.82
564.74	43650.99
564.90	43435.66
565.07	43945.90
565.23	44182.29
565.39	44074.63
565.56	43852.28
565.72	43852.28
565.88	43498.86
566.05	43592.48
566.21	43702.48
566.38	43510.56
566.54	43737.59
566.70	44100.37
566.87	44238.47
567.03	43707.16
567.19	44505.29
567.36	44266.55
567.52	43908.45
567.68	43863.98
567.85	43789.08
568.01	44189.31
568.17	43765.68
568.34	44102.71
568.50	44467.84
568.66	44217.40
568.83	44226.76
568.99	44100.37
569.15	44046.54
569.32	43861.64
569.48	43496.52
569.64	44093.35
569.81	43927.17
569.97	43938.88
570.13	44301.66
570.30	44268.89
570.46	44318.04
570.62	44287.62
570.78	44240.81
570.95	44067.61
571.11	44217.40
571.27	44186.97
571.43	43847.60
571.60	44142.50
571.76	44495.92
571.92	44428.05
572.09	44608.27
572.25	44170.59
572.41	44233.78
572.57	44322.72
572.74	44222.08
572.90	44322.72
573.06	44327.41
573.22	44140.16
573.38	44549.76
573.55	44329.75
573.71	44671.46
573.87	44432.73
574.03	44261.87
574.20	44533.37
574.36	44250.17
574.52	44435.07
574.68	44411.67
574.84	44259.53
575.01	44067.61
575.17	44645.72
575.33	44182.29
575.49	44346.13
575.65	44741.68
575.82	44828.28
575.98	44460.82
576.14	44643.38
576.30	44601.25
576.46	44067.61
576.62	44779.13
576.79	44631.68
576.95	44428.05
577.11	45029.57
577.27	44978.07
577.43	44779.13
577.59	44521.67
577.75	44797.85
577.92	44512.31
578.08	44669.12
578.24	44465.50
578.40	44233.78
578.56	44615.29
578.72	44339.11
578.88	45041.27
579.04	44877.43
579.21	45151.27
579.37	45003.82
579.53	45022.54
579.69	44561.46
579.85	44339.11
580.01	44610.61
580.17	44428.05
580.33	44491.24
580.49	44453.79
580.65	44631.68
580.82	44659.76
580.98	44718.28
581.14	44617.63
581.30	44697.21
581.46	44402.30
581.62	44577.84
581.78	44428.05
581.94	44821.26
582.10	44720.62
582.26	44957.01
582.42	44886.79
582.58	44797.85
582.74	44968.71
582.90	45162.98
583.06	44971.05
583.22	44575.50
583.38	45067.02
583.54	45228.51
583.70	45050.63
583.86	44678.49
584.02	44477.20
584.18	44980.42
584.34	45095.10
584.50	45638.11
584.66	44893.82
584.82	44893.82
584.98	44774.45
585.14	44402.30
585.30	44432.73
585.46	44516.99
585.62	44896.16
585.78	44971.05
585.94	44491.24
586.10	44678.49
586.26	45050.63
586.42	45228.51
586.58	45654.49
586.74	45015.52
586.90	44748.70
587.06	44877.43
587.22	45244.90
587.38	45064.67
587.54	44912.54
587.70	45368.94
587.86	45464.91
588.02	45244.90
588.18	45705.98
588.34	44844.66
588.49	45202.77
588.65	44488.90
588.81	44704.23
588.97	45235.53
589.13	44837.64
589.29	44718.28
589.45	44470.18
589.61	45134.89
589.77	45310.43
589.93	45338.52
590.08	45640.45
590.24	44629.34
590.40	45591.30
590.56	45418.10
590.72	45287.03
590.88	44823.60
591.04	44741.68
591.20	45354.90
591.35	45551.51
591.51	46038.34
591.67	45263.62
591.83	45581.93
591.99	45471.93
592.15	45720.02
592.31	45551.51
592.46	45406.39
592.62	44863.39
592.78	45610.02
592.94	45928.33
593.10	45392.35
593.26	45361.92
593.41	45696.62
593.57	45670.87
593.73	45509.38
593.89	45546.82
594.05	45588.95
594.20	45111.49
594.36	45422.78
594.52	45216.81
594.68	45277.66
594.84	45041.27
594.99	45652.15
595.15	45427.46
595.31	45823.01
595.47	45848.75
595.62	45659.17
595.78	45333.84
595.94	45361.92
596.10	45375.97
596.25	45200.43
596.41	45216.81
596.57	45165.32
596.73	45347.88
596.88	45577.25
597.04	45251.92
597.20	46012.59
597.36	45556.19
597.51	46031.32
597.67	45530.44
597.83	45357.24
597.99	45413.41
598.14	45469.59
598.30	45361.92
598.46	45600.66
598.61	45436.82
598.77	44999.14
598.93	45104.46
599.09	45633.42
599.24	45586.61
599.40	45778.54
599.56	45546.82
599.71	45628.74
599.87	45944.72
600.03	45827.69
600.18	45537.46
600.34	45652.15
600.50	45865.14
600.65	45331.50
600.81	45539.80
600.97	45516.40
601.12	45879.18
601.28	45930.67
601.44	45656.83
601.59	45818.33
601.75	45588.95
601.91	45633.42
602.06	45193.40
602.22	45804.28
602.37	45815.99
602.53	45563.21
602.69	45666.19
602.84	46005.57
603.00	45673.21
603.16	45640.45
603.31	45354.90
603.47	45401.71
603.62	45509.38
603.78	45703.64
603.94	45359.58
604.09	45574.91
604.25	45734.07
604.40	45305.75
604.56	45446.18
604.71	45914.29
604.87	45448.52
605.03	45511.72
605.18	45563.21
605.34	45677.90
605.49	45090.42
605.65	45549.17
605.80	45179.36
605.96	45167.66
606.12	45329.16
606.27	45586.61
606.43	45464.91
606.58	45488.31
606.74	45310.43
606.89	45439.16
607.05	45422.78
607.20	45603.00
607.36	45537.46
607.51	45514.06
607.67	44964.03
607.82	45207.45
607.98	45144.25
608.13	45298.73
608.29	45076.38
608.44	45160.64
608.60	45350.22
608.75	45212.13
608.91	45251.92
609.06	44952.33
609.22	45315.11
609.37	45010.84
609.53	45333.84
609.68	44739.34
609.84	45263.62
609.99	45261.28
610.15	45258.94
610.30	45230.85
610.46	45055.31
610.61	45888.54
610.76	45687.26
610.92	45909.61
611.07	46138.98
611.23	45640.45
611.38	46082.81
611.54	46143.66
611.69	45556.19
611.84	45223.83
612.00	45198.09
612.15	44999.14
612.31	45296.39
612.46	45256.60
612.62	45811.31
612.77	45036.59
612.92	45404.05
613.08	45008.50
613.23	45256.60
613.39	45214.47
613.54	44830.62
613.69	45001.48
613.85	44587.21
614.00	44751.04
614.15	44821.26
614.31	45029.57
614.46	44685.51
614.62	45371.28
614.77	44582.52
614.92	44779.13
615.08	44744.02
615.23	44708.91
615.38	45083.40
615.54	44626.99
615.69	44093.35
615.84	44570.82
616.00	44495.92
616.15	44816.58
616.30	44507.63
616.46	44201.02
616.61	44514.65
616.76	44601.25
616.92	44552.10
617.07	44547.42
617.22	44215.06
617.37	43793.76
617.53	44032.50
617.68	44107.40
617.83	44364.85
617.99	44376.56
618.14	44404.64
618.29	44423.37
618.45	44058.24
618.60	44179.95
618.75	44098.03
618.90	43917.81
619.06	44278.25
619.21	43854.62
619.36	43880.36
619.51	44051.22
619.67	43714.19
619.82	43650.99
619.97	43646.31
620.12	43861.64
620.28	43585.46
620.43	43934.20
620.58	44435.07
620.73	44060.58
620.89	44198.68
621.04	44371.88
621.19	44039.52
621.34	43910.79
621.49	43709.50
621.65	43835.89
621.80	43688.44
621.95	43629.93
622.10	43672.06
622.25	43753.97
622.41	43573.75
622.56	43913.13
622.71	43526.94
622.86	43896.75
623.01	43601.84
623.16	43370.13
623.32	43552.69
623.47	42904.36
623.62	43512.90
623.77	43356.08
623.92	43374.81
624.07	43632.27
624.23	43232.04
624.38	43248.42
624.53	43227.35
624.68	43302.25
624.83	43540.99
624.98	43737.59
625.13	42962.87
625.29	43199.27
625.44	43758.66
625.59	43220.33
625.74	42916.06
625.89	43749.29
626.04	43316.29
626.19	42962.87
626.34	43217.99
626.49	43117.35
626.65	42579.03
626.80	42670.31
626.95	42375.40
627.10	42780.31
627.25	43140.75
627.40	43096.28
627.55	42628.18
627.70	42344.97
627.85	42349.65
628.00	42780.31
628.15	42815.42
628.30	42768.61
628.45	42454.98
628.60	42796.70
628.76	42707.76
628.91	43068.20
629.06	42623.50
629.21	42272.42
629.36	42426.89
629.51	42288.80
629.66	42206.88
629.81	42291.14
629.96	41965.81
630.11	42340.29
630.26	42307.52
630.41	42398.80
630.56	42267.73
630.71	42721.80
630.86	42344.97
631.01	42803.72
631.16	42436.25
631.31	42232.63
631.46	41750.48
631.61	42117.94
631.76	42075.81
631.91	42075.81
632.06	42218.58
632.21	42167.09
632.36	41193.43
632.51	41734.09
632.66	42192.84
632.81	41661.54
632.96	41907.29
633.10	41998.57
633.25	42110.92
633.40	42199.86
633.55	42050.06
633.70	41876.86
633.85	42087.51
634.00	41647.49
634.15	41598.34
634.30	41565.57
634.45	41574.94
634.60	41265.99
634.75	41649.83
634.90	41675.58
635.05	41619.41
635.19	41811.33
635.34	41343.22
635.49	41647.49
635.64	41390.03
635.79	42131.98
635.94	41617.07
636.09	41748.14
636.24	41638.13
636.39	41443.87
636.53	41558.55
636.68	41193.43
636.83	40924.27
636.98	41420.46
637.13	40697.24
637.28	41031.93
637.43	41715.37
637.57	41560.89
637.72	41298.75
637.87	41036.61
638.02	40940.65
638.17	40765.11
638.32	40704.26
638.46	40971.08
638.61	40982.78
638.76	41111.51
638.91	40105.08
639.06	40254.87
639.20	40907.88
639.35	40849.37
639.50	41024.91
639.65	40985.12
639.80	40603.61
639.94	41001.50
640.09	40505.31
640.24	40598.93
640.39	40954.69
640.54	40402.33
640.68	40179.98
640.83	40912.56
640.98	40500.63
641.13	39908.47
641.27	40928.95
641.42	40706.60
641.57	40545.10
641.72	41158.32
641.86	41291.73
642.01	40540.42
642.16	40594.25
642.31	40156.57
642.45	40128.48
642.60	40446.80
642.75	39639.31
642.90	40257.21
643.04	39786.77
643.19	40222.11
643.34	39875.71
643.48	40025.50
643.63	40294.66
643.78	40392.97
643.93	40538.08
644.07	40456.16
644.22	40165.93
644.37	39737.62
644.51	40435.10
644.66	39859.32
644.81	39257.81
644.95	39482.50
645.10	39735.27
645.25	40308.71
645.39	40196.36
645.54	39447.39
645.69	40084.01
645.83	40013.80
645.98	39936.56
646.13	40044.23
646.27	40130.83
646.42	39587.82
646.57	39573.78
646.71	40179.98
646.86	39632.29
647.00	39342.06
647.15	39323.34
647.30	39360.79
647.44	39093.97
647.59	39580.80
647.74	39475.48
647.88	39452.07
648.03	39459.09
648.17	39587.82
648.32	39316.32
648.47	39789.11
648.61	39379.51
648.76	39412.28
648.90	39402.92
649.05	39110.35
649.20	39014.39
649.34	39225.04
649.49	38227.97
649.63	39124.40
649.78	38759.27
649.92	38824.81
650.07	39196.95
650.21	39440.37
650.36	39498.88
650.51	39124.40
650.65	39346.75
650.80	39498.88
650.94	39192.27
651.09	39297.59
651.23	39051.84
651.38	39234.40
651.52	39260.15
651.67	38747.57
651.81	39026.09
651.96	38455.00
652.10	38721.82
652.25	38588.41
652.39	39438.03
652.54	39391.22
652.68	39084.61
652.83	39075.24
652.97	39346.75
653.12	39098.65
653.26	38906.73
653.41	38607.14
653.55	38258.40
653.70	38209.25
653.84	38455.00
653.99	38366.06
654.13	38309.89
654.27	38410.53
654.42	38363.72
654.56	38298.19
654.71	38990.98
654.85	38731.18
655.00	38529.90
655.14	38518.20
655.29	38447.98
655.43	38286.48
655.57	38618.84
655.72	38286.48
655.86	38134.35
656.01	38115.62
656.15	37502.40
656.30	37940.08
656.44	37874.55
656.58	38199.88
656.73	37986.89
656.87	38223.29
657.01	37682.62
657.16	38363.72
657.30	38387.13
657.45	38139.03
657.59	37764.54
657.73	37308.14
657.88	37422.83
658.02	38342.66
658.16	37621.77
658.31	37867.53
658.45	37818.38
658.60	37626.45
658.74	37731.78
658.88	37553.90
659.03	37663.90
659.17	37834.76
659.31	37368.99
659.46	37780.93
659.60	37691.99
659.74	37544.53
659.89	37343.25
660.03	37584.32
660.17	37481.34
660.32	37345.59
660.46	36865.78
660.60	36842.37
660.74	36563.85
660.89	37076.43
661.03	36678.54
661.17	37109.19
661.32	36706.62
661.46	37186.43
661.60	36659.81
661.74	37069.40
661.89	36561.51
662.03	36809.61
662.17	36980.46
662.31	36758.11
662.46	36596.62
662.60	36095.74
662.74	36362.56
662.88	36294.69
663.03	36451.50
663.17	36430.44
663.31	36685.56
663.45	36172.98
663.60	36676.19
663.74	36027.87
663.88	35639.34
664.02	36130.85
664.17	36526.40
664.31	36425.76
664.45	36201.07
664.59	35878.07
664.73	35974.03
664.88	35831.26
665.02	35372.52
665.16	35889.77
665.30	35522.31
665.44	35360.81
665.59	35047.18
665.73	35314.00
665.87	35033.14
666.01	35510.61
666.15	35201.66
666.29	35424.01
666.44	35709.55
666.58	35428.69
666.72	34967.60
666.86	35431.03
667.00	35463.80
667.14	35042.50
667.28	35292.94
667.43	34960.58
667.57	35414.65
667.71	34881.00
667.85	35054.20
667.99	34684.40
668.13	34850.58
668.27	35044.84
668.41	34464.39
668.56	34412.90
668.70	34646.95
668.84	34960.58
668.98	34740.57
669.12	34415.24
669.26	34277.15
669.40	34569.71
669.54	34335.66
669.68	34302.89
669.82	33965.85
669.96	34089.90
670.10	34033.73
670.25	33706.05
670.39	33841.81
670.53	33666.27
670.67	33984.58
670.81	33778.61
670.95	33809.04
671.09	33986.92
671.23	33607.75
671.37	33762.23
671.51	33757.55
671.65	33439.23
671.79	33352.63
671.93	33242.63
672.07	33687.33
672.21	33146.67
672.35	32746.44
672.49	32933.68
672.63	32795.59
672.77	32893.89
672.91	32781.54
673.05	32664.52
673.19	33024.96
673.33	32627.07
673.47	32767.50
673.61	32996.87
673.75	32713.67
673.89	32559.19
674.03	32664.52
674.17	32767.50
674.31	32414.08
674.45	32573.24
674.59	32114.49
674.73	32339.18
674.87	31765.75
675.01	31756.39
675.15	32236.20
675.29	31784.48
675.43	32224.50
675.56	31784.48
675.70	31793.84
675.84	31931.93
675.98	30766.34
676.12	32189.39
676.26	31489.57
676.40	31281.26
676.54	31426.37
676.68	31498.93
676.82	30719.53
676.96	30696.13
677.10	30792.09
677.23	30817.83
677.37	31063.59
677.51	30642.29
677.65	30532.29
677.79	30333.34
677.93	30630.59
678.07	30288.87
678.21	30387.18
678.34	30520.59
678.48	30040.78
678.62	30106.31
678.76	30038.44
678.90	29673.31
679.04	29729.48
679.18	29696.72
679.31	29434.58
679.45	29521.18
679.59	29118.60
679.73	29284.78
679.87	29228.61
680.00	29085.84
680.14	28819.02
680.28	28552.20
680.42	29181.80
680.56	28755.82
680.70	28709.01
680.83	28556.88
680.97	28919.66
681.11	28786.25
681.25	28917.32
681.39	28498.36
681.52	28325.16
681.66	28175.37
681.80	28320.48
681.94	28051.32
682.07	28212.82
682.21	27838.33
682.35	27398.31
682.49	27857.06
682.62	27215.75
682.76	27585.55
682.90	27707.26
683.04	27562.15
683.17	27470.87
683.31	27290.65
683.45	27157.24
683.59	26927.86
683.72	27171.28
683.86	27367.88
684.00	27131.49
684.13	26953.61
684.27	26920.84
684.41	27054.25
684.55	26464.44
684.68	25972.92
684.82	26752.32
684.96	25891.01
685.09	25689.72
685.23	25874.62
685.37	25638.23
685.50	25853.56
685.64	26054.84
685.78	26127.40
685.91	26277.19
686.05	26061.87
686.19	25832.49
686.32	25729.51
686.46	25156.08
686.60	25263.74
686.73	25551.63
686.87	25216.93
687.01	24971.18
687.14	24882.24
687.28	24730.10
687.42	24919.68
687.55	24826.06
687.69	24531.15
687.82	25071.82
687.96	24645.84
688.10	24402.43
688.23	24173.05
688.37	24390.72
688.50	24603.71
688.64	24409.45
688.78	24142.63
688.91	24025.60
689.05	23828.99
689.18	24194.12
689.32	23454.51
689.46	23058.96
689.59	23431.10
689.73	23599.62
689.86	23234.50
690.00	23206.41
690.13	23070.66
690.27	23239.18
690.41	23023.85
690.54	23023.85
690.68	23080.02
690.81	22845.97
690.95	22972.36
691.08	22775.75
691.22	22684.47
691.35	22511.27
691.49	22630.64
691.62	22244.45
691.76	22057.21
691.89	22118.06
692.03	21926.14
692.16	21940.18
692.30	21785.71
692.43	21797.41
692.57	21710.81
692.70	22029.12
692.84	21914.44
692.97	21603.14
693.11	21788.05
693.24	21565.70
693.38	21362.07
693.51	21434.63
693.65	21553.99
693.78	21329.30
693.92	21291.85
694.05	21090.57
694.19	20737.15
694.32	20695.02
694.45	20594.37
694.59	20973.54
694.72	20673.95
694.86	20187.12
694.99	20269.04
695.13	20339.26
695.26	20049.03
695.39	20203.50
695.53	20287.76
695.66	19920.30
695.80	20376.70
695.93	19915.62
696.07	20074.77
696.20	19887.53
696.33	20079.46
696.47	19651.14
696.60	19634.75
696.73	19459.21
696.87	19513.05
697.00	19405.38
697.14	19178.35
697.27	19110.47
697.40	18958.34
697.54	18850.67
697.67	18747.69
697.80	18628.32
697.94	18293.63
698.07	18581.51
698.21	18228.09
698.34	18614.28
698.47	18548.75
698.61	18288.95
698.74	18143.83
698.87	18441.08
699.01	18207.03
699.14	18335.76
699.27	18134.47
699.40	18015.10
699.54	17640.62
699.67	17699.13
699.80	17577.42
699.94	17345.71
700.07	17633.60
700.20	17385.50
700.34	17181.87
700.47	17392.52
700.60	17041.44
700.73	17256.77
700.87	17167.83
701.00	17111.66
701.13	16877.60
701.26	16968.88
701.40	16968.88
701.53	16341.62
701.66	16989.95
701.79	16828.45
701.93	16641.21
702.06	16545.25
702.19	16397.79
702.32	16503.12
702.46	16468.01
702.59	16170.76
702.72	16152.04
702.85	16173.10
702.99	16130.97
703.12	15960.11
703.25	16203.53
703.38	15414.77
703.51	15681.59
703.65	15782.23
703.78	15660.52
703.91	15356.25
704.04	15382.00
704.17	15480.30
704.31	15590.31
704.44	15447.54
704.57	15236.89
704.70	15281.36
704.83	15154.97
704.96	15117.52
705.10	14745.38
705.23	14658.78
>>>>>End Processed Spectral Data<<<<<
