SpectraSuite Data File
++++++++++++++++++++++++++++++++++++
Date: Fri Oct 04 11:39:42 GMT-05:00 2013
User: price-jones
Dark Spectrum Present: No
Reference Spectrum Present: No
Number of Sampled Component Spectra: 1
Spectrometers: USB2+H05261
Integration Time (usec): 100000 (USB2+H05261)
Spectra Averaged: 1 (USB2+H05261)
Boxcar Smoothing: 0 (USB2+H05261)
Correct for Electrical Dark: No (USB2+H05261)
Strobe/Lamp Enabled: No (USB2+H05261)
Correct for Detector Non-linearity: No (USB2+H05261)
Correct for Stray Light: No (USB2+H05261)
Number of Pixels in Processed Spectrum: 2048
>>>>>Begin Processed Spectral Data<<<<<
365.73	11.70
365.92	11.70
366.12	11.70
366.32	0.00
366.52	37.45
366.72	0.00
366.91	11.70
367.11	0.00
367.31	0.00
367.51	0.00
367.70	0.00
367.90	0.00
368.10	0.00
368.30	0.00
368.49	0.00
368.69	0.00
368.89	0.00
369.09	0.00
369.28	0.00
369.48	0.00
369.68	0.00
369.87	0.00
370.07	18.72
370.27	23.41
370.47	28.09
370.66	210.65
370.86	337.04
371.06	194.26
371.25	243.42
371.45	262.14
371.65	280.86
371.84	351.08
372.04	255.12
372.24	290.23
372.44	313.63
372.63	346.40
372.83	374.49
373.03	383.85
373.22	400.23
373.42	252.78
373.62	341.72
373.81	330.02
374.01	318.31
374.21	360.44
374.40	341.72
374.60	376.83
374.79	369.80
374.99	355.76
375.19	414.27
375.38	454.06
375.58	280.86
375.78	381.51
375.97	358.10
376.17	407.25
376.37	365.12
376.56	442.36
376.76	454.06
376.95	390.87
377.15	393.21
377.35	421.30
377.54	449.38
377.74	351.08
377.93	444.70
378.13	423.64
378.33	514.92
378.52	416.62
378.72	458.74
378.91	447.04
379.11	500.87
379.31	423.64
379.50	409.59
379.70	496.19
379.89	491.51
380.09	442.36
380.28	367.46
380.48	421.30
380.68	409.59
380.87	442.36
381.07	358.10
381.26	425.98
381.46	449.38
381.65	468.11
381.85	437.68
382.04	477.47
382.24	491.51
382.43	461.09
382.63	461.09
382.83	430.66
383.02	505.56
383.22	531.30
383.41	472.79
383.61	496.19
383.80	524.28
384.00	524.28
384.19	496.19
384.39	503.22
384.58	484.49
384.78	498.53
384.97	496.19
385.17	479.81
385.36	526.62
385.56	517.26
385.75	596.84
385.95	475.13
386.14	517.26
386.34	470.45
386.53	528.96
386.72	571.09
386.92	571.09
387.11	535.98
387.31	587.47
387.50	610.88
387.70	592.16
387.89	538.32
388.09	561.73
388.28	634.29
388.48	580.45
388.67	667.05
388.86	566.41
389.06	500.87
389.25	582.79
389.45	674.07
389.64	589.82
389.84	582.79
390.03	608.54
390.22	620.24
390.42	610.88
390.61	463.43
390.81	540.66
391.00	634.29
391.19	688.12
391.39	596.84
391.58	727.91
391.78	622.58
391.97	697.48
392.16	645.99
392.36	716.20
392.55	713.86
392.75	641.31
392.94	678.76
393.13	695.14
393.33	692.80
393.52	676.41
393.71	709.18
393.91	746.63
394.10	681.10
394.29	795.78
394.49	617.90
394.68	777.06
394.88	741.95
395.07	807.48
395.26	767.70
395.46	809.83
395.65	894.08
395.84	795.78
396.04	844.93
396.23	873.02
396.42	814.51
396.62	866.00
396.81	889.40
397.00	793.44
397.19	819.19
397.39	851.96
397.58	891.74
397.77	767.70
397.97	812.17
398.16	802.80
398.35	1001.75
398.55	856.64
398.74	994.73
398.93	929.19
399.12	861.32
399.32	908.13
399.51	985.37
399.70	978.34
399.90	1015.79
400.09	1020.47
400.28	1004.09
400.47	919.83
400.67	990.05
400.86	1041.54
401.05	1090.69
401.24	1025.15
401.44	1039.20
401.63	1142.18
401.82	1118.78
402.01	1004.09
402.21	1156.22
402.40	1111.75
402.59	1188.99
402.78	1165.59
402.97	1191.33
403.17	1203.04
403.36	1254.53
403.55	1245.16
403.74	1121.12
403.93	1303.68
404.13	1380.92
404.32	1254.53
404.51	1308.36
404.70	1371.55
404.89	1364.53
405.09	1341.13
405.28	1329.42
405.47	1390.28
405.66	1432.41
405.85	1334.11
406.05	1432.41
406.24	1371.55
406.43	1528.37
406.62	1504.96
406.81	1551.78
407.00	1488.58
407.20	1465.18
407.39	1563.48
407.58	1563.48
407.77	1533.05
407.96	1668.80
408.15	1636.03
408.34	1551.78
408.54	1591.56
408.73	1621.99
408.92	1577.52
409.11	1661.78
409.30	1685.19
409.49	1675.82
409.68	1732.00
409.87	1710.93
410.07	1678.16
410.26	1802.21
410.45	1799.87
410.64	1792.85
410.83	1785.83
411.02	1886.47
411.21	1996.48
411.40	1905.20
411.59	1998.82
411.78	1877.11
411.98	1954.35
412.17	1977.75
412.36	2104.14
412.55	2071.37
412.74	2139.25
412.93	2024.56
413.12	2099.46
413.31	2157.97
413.50	2193.08
413.69	2188.40
413.88	2324.15
414.07	2239.89
414.26	2263.30
414.45	2251.60
414.64	2310.11
414.83	2335.85
415.02	2363.94
415.22	2356.92
415.41	2429.48
415.60	2520.76
415.79	2455.22
415.98	2572.25
416.17	2544.16
416.36	2616.72
416.55	2597.99
416.74	2715.02
416.93	2832.05
417.12	2719.70
417.31	2708.00
417.50	2731.41
417.69	2757.15
417.88	2843.75
418.07	2785.24
418.26	2895.24
418.45	2836.73
418.64	2932.69
418.83	2881.20
419.02	2892.90
419.21	3019.29
419.39	3070.78
419.58	3023.97
419.77	2981.84
419.96	3038.02
420.15	3124.62
420.34	2970.14
420.53	3030.99
420.72	3201.85
420.91	3183.13
421.10	3112.91
421.29	3194.83
421.48	3103.55
421.67	3159.72
421.86	3190.15
422.05	3330.58
422.24	3258.03
422.43	3243.98
422.61	3173.77
422.80	3199.51
422.99	3300.16
423.18	3332.92
423.37	3473.36
423.56	3389.10
423.75	3361.01
423.94	3281.43
424.13	3105.89
424.32	3265.05
424.50	3332.92
424.69	3522.51
424.88	3447.61
425.07	3309.52
425.26	3410.16
425.45	3372.71
425.64	3426.54
425.83	3356.33
426.01	3382.07
426.20	3396.12
426.39	3375.05
426.58	3433.57
426.77	3478.04
426.96	3590.38
427.15	3349.31
427.33	3485.06
427.52	3616.13
427.71	3655.92
427.90	3538.89
428.09	3648.90
428.28	3641.87
428.46	3620.81
428.65	3751.88
428.84	3744.86
429.03	3824.44
429.22	3576.34
429.40	3775.28
429.59	3721.45
429.78	3557.61
429.97	3770.60
430.16	3665.28
430.34	3770.60
430.53	3990.61
430.72	3770.60
430.91	3831.46
431.10	3815.07
431.28	4035.08
431.47	3974.23
431.66	4037.42
431.85	3925.08
432.03	4035.08
432.22	4109.98
432.41	4102.96
432.60	4189.56
432.79	4035.08
432.97	4016.36
433.16	3964.87
433.35	4091.26
433.54	4161.47
433.72	4145.09
433.91	4067.85
434.10	4301.90
434.28	4147.43
434.47	4252.75
434.66	4194.24
434.85	4299.56
435.03	4512.55
435.22	4636.60
435.41	4699.80
435.59	4781.71
435.78	4592.13
435.97	4589.79
436.16	4425.95
436.34	4526.60
436.53	4390.84
436.72	4491.49
436.90	4388.50
437.09	4535.96
437.28	4449.36
437.46	4435.32
437.65	4503.19
437.84	4613.20
438.02	4678.73
438.21	4608.51
438.40	4578.09
438.58	4702.14
438.77	4725.54
438.96	4767.67
439.14	4919.81
439.33	4983.00
439.52	4940.87
439.70	4971.30
439.89	4865.97
440.08	4950.23
440.26	4910.44
440.45	5025.13
440.63	5125.77
440.82	4938.53
441.01	5123.43
441.19	5109.39
441.38	5441.75
441.57	5451.11
441.75	5188.97
441.94	5444.09
442.12	5458.13
442.31	5511.96
442.50	5446.43
442.68	5530.69
442.87	5584.52
443.05	5511.96
443.24	5685.16
443.43	5544.73
443.61	5636.01
443.80	5720.27
443.98	5528.35
444.17	5586.86
444.35	5612.60
444.54	5722.61
444.73	5727.29
444.91	5717.93
445.10	5633.67
445.28	5699.20
445.47	5682.82
445.65	5673.46
445.84	5715.59
446.02	5795.17
446.21	5710.91
446.39	5785.80
446.58	5757.72
446.77	5797.51
446.95	5645.37
447.14	5895.81
447.32	5804.53
447.51	5776.44
447.69	5867.72
447.88	5989.43
448.06	5804.53
448.25	5935.60
448.43	5949.64
448.62	6052.63
448.80	5877.09
448.99	5900.49
449.17	5914.53
449.36	5937.94
449.54	6092.41
449.73	6038.58
449.91	6031.56
450.10	6127.52
450.28	6326.47
450.46	6122.84
450.65	6150.93
450.83	6265.61
451.02	6031.56
451.20	6293.70
451.39	6359.24
451.57	6188.38
451.76	6223.48
451.94	6289.02
452.13	6384.98
452.31	6429.45
452.49	6270.30
452.68	6230.51
452.86	6291.36
453.05	6473.92
453.23	6452.86
453.42	6345.19
453.60	6422.43
453.78	6452.86
453.97	6370.94
454.15	6614.35
454.34	6408.39
454.52	6586.27
454.70	6532.44
454.89	6801.60
455.07	6696.27
455.26	6534.78
455.44	6689.25
455.62	6612.01
455.81	6881.18
455.99	6726.70
456.17	6909.26
456.36	6794.58
456.54	6846.07
456.73	7026.29
456.91	7115.23
457.09	7040.33
457.28	7136.29
457.46	6965.43
457.64	7178.42
457.83	7110.55
458.01	6951.39
458.19	7115.23
458.38	7274.38
458.56	7321.20
458.74	7321.20
458.93	7281.41
459.11	7260.34
459.29	7342.26
459.48	7342.26
459.66	7522.48
459.84	7396.09
460.03	7417.16
460.21	7391.41
460.39	7438.22
460.57	7227.57
460.76	7365.67
460.94	7461.63
461.12	7613.76
461.31	7585.68
461.49	7590.36
461.67	7501.42
461.85	7782.28
462.04	7606.74
462.22	8070.17
462.40	8105.28
462.59	7749.51
462.77	7826.75
462.95	7765.90
463.13	7833.77
463.32	7871.22
463.50	8006.97
463.68	8049.10
463.86	7845.48
464.05	7885.26
464.23	7953.14
464.41	8074.85
464.59	7939.10
464.78	8088.89
464.96	7880.58
465.14	7976.55
465.32	8063.15
465.50	8084.21
465.69	8369.76
465.87	8128.68
466.05	8273.79
466.23	8245.71
466.41	8219.96
466.60	8395.50
466.78	8313.58
466.96	8212.94
467.14	8479.76
467.32	8131.02
467.51	8376.78
467.69	8208.26
467.87	8514.87
468.05	8505.51
468.23	8381.46
468.41	8290.18
468.60	8526.57
468.78	8613.17
468.96	8306.56
469.14	8552.32
469.32	8713.81
469.50	8491.46
469.69	8482.10
469.87	8784.03
470.05	8737.22
470.23	8809.78
470.41	8769.99
470.59	8681.05
470.77	8681.05
470.95	8755.94
471.14	9034.47
471.32	8823.82
471.50	9193.62
471.68	9228.73
471.86	9158.52
472.04	9233.41
472.22	9303.63
472.40	9036.81
472.58	9378.53
472.77	9453.42
472.95	9296.61
473.13	9444.06
473.31	9486.19
473.49	9488.53
473.67	9584.49
473.85	9509.60
474.03	9657.05
474.21	9614.92
474.39	9753.01
474.57	9916.85
474.75	10209.42
474.93	9956.64
475.12	9657.05
475.30	10101.75
475.48	9832.59
475.66	10162.61
475.84	10036.22
476.02	10178.99
476.20	10310.06
476.38	10396.66
476.56	10609.65
476.74	10703.27
476.92	10665.82
477.10	10298.36
477.28	10656.46
477.46	10911.58
477.64	10911.58
477.82	11082.44
478.00	11173.72
478.18	11276.70
478.36	11290.74
478.54	11328.19
478.72	11470.97
478.90	11793.96
479.08	11646.51
479.26	11705.02
479.44	11815.02
479.62	12018.65
479.80	11815.02
479.98	12072.48
480.16	12131.00
480.34	12032.69
480.52	12453.99
480.70	12479.74
480.88	12018.65
481.06	12365.05
481.24	12472.71
481.41	12517.18
481.59	12980.61
481.77	13074.23
481.95	12699.75
482.13	13252.11
482.31	13027.42
482.49	13385.52
482.67	13336.37
482.85	13710.86
483.03	13862.99
483.21	13926.19
483.39	13919.17
483.57	13855.97
483.74	13977.68
483.92	14047.90
484.10	14122.79
484.28	14445.79
484.46	14590.90
484.64	14923.26
484.82	14806.23
485.00	14890.49
485.18	14747.72
485.35	15456.90
485.53	15115.18
485.71	15131.56
485.89	15609.03
486.07	15536.48
486.25	15688.61
486.43	15854.79
486.61	15679.25
486.78	16114.59
486.96	16152.04
487.14	16369.71
487.32	16470.35
487.50	16486.73
487.68	16355.66
487.85	16458.65
488.03	16753.55
488.21	17050.80
488.39	17095.27
488.57	17088.25
488.75	17249.75
488.92	17352.73
489.10	17287.20
489.28	17722.54
489.46	17975.31
489.64	17977.65
489.81	17980.00
489.99	18345.12
490.17	18298.31
490.35	18530.02
490.53	18553.43
490.70	18841.31
490.88	18487.89
491.06	18988.77
491.24	18750.03
491.41	19351.55
491.59	19234.52
491.77	19419.42
491.95	19283.67
492.13	19384.32
492.30	19791.57
492.48	19370.27
492.66	19765.82
492.84	19833.70
493.01	20173.08
493.19	20107.54
493.37	20325.21
493.54	20444.58
493.72	20727.78
493.90	20751.19
494.08	20776.94
494.25	21235.68
494.43	21095.25
494.61	21392.50
494.79	21174.83
494.96	21575.06
495.14	21521.23
495.32	21940.18
495.49	21535.27
495.67	22167.21
495.85	22150.83
496.02	22335.73
496.20	22354.46
496.38	22455.10
496.55	22394.25
496.73	22569.79
496.91	22541.70
497.09	22806.18
497.26	22895.12
497.44	23220.45
497.62	23112.79
497.79	23639.41
497.97	23335.14
498.14	23688.56
498.32	23641.75
498.50	23683.88
498.67	24226.89
498.85	23702.61
499.03	24013.90
499.20	24388.38
499.38	24390.72
499.56	24411.79
499.73	24439.87
499.91	24442.21
500.08	24758.19
500.26	24189.44
500.44	24730.10
500.61	24772.23
500.79	24896.28
500.97	25333.96
501.14	25095.22
501.32	25092.88
501.49	25425.24
501.67	24875.21
501.84	25411.20
502.02	25394.81
502.20	25734.19
502.37	25888.67
502.55	25661.63
502.72	25624.18
502.90	25947.18
503.07	25738.87
503.25	25979.95
503.43	25979.95
503.60	26164.85
503.78	26316.98
503.95	26403.58
504.13	26085.27
504.30	26457.42
504.48	26499.55
504.65	26569.76
504.83	26693.81
505.01	26878.71
505.18	27145.53
505.36	27641.73
505.53	27206.39
505.71	27400.65
505.88	27300.01
506.06	27061.27
506.23	27740.03
506.41	27384.27
506.58	27721.30
506.76	27796.20
506.93	27894.50
507.11	27651.09
507.28	28156.64
507.46	28006.85
507.63	27910.89
507.81	28194.09
507.98	28109.83
508.16	28287.71
508.33	28301.76
508.50	28725.39
508.68	28636.45
508.85	29106.90
509.03	28912.64
509.20	29099.88
509.38	29090.52
509.55	29092.86
509.73	28758.16
509.90	29429.90
510.08	29376.06
510.25	29151.37
510.42	29165.42
510.60	29500.11
510.77	29820.77
510.95	29827.79
511.12	29565.65
511.30	29776.30
511.47	30103.97
511.64	30054.82
511.82	30441.01
511.99	29944.81
512.17	30396.54
512.34	30246.74
512.51	30319.30
512.69	30410.58
512.86	30455.05
513.04	30672.72
513.21	30979.33
513.38	30972.31
513.56	31084.65
513.73	30976.99
513.90	31070.61
514.08	31505.95
514.25	31126.78
514.43	31424.03
514.60	31817.24
514.77	31323.39
514.95	31646.38
515.12	31655.75
515.29	31852.35
515.47	31646.38
515.64	32182.37
515.81	31786.82
515.99	31857.03
516.16	32100.45
516.33	32425.78
516.51	32369.61
516.68	31936.61
516.85	32074.70
517.03	32451.53
517.20	32404.72
517.37	32318.12
517.54	32692.60
517.72	32467.91
517.89	32105.13
518.06	32961.76
518.24	32931.34
518.41	32889.21
518.58	32844.74
518.75	33036.66
518.93	32992.19
519.10	33633.50
519.27	33223.90
519.45	33055.39
519.62	33373.70
519.79	33308.16
519.96	33724.78
520.14	33874.57
520.31	33532.86
520.48	34211.61
520.65	33467.32
520.83	34253.74
521.00	33752.87
521.17	33757.55
521.34	33872.23
521.52	34026.71
521.69	34480.77
521.86	34714.83
522.03	34295.87
522.20	34712.49
522.38	34600.14
522.55	34408.22
522.72	34941.86
522.89	35138.46
523.07	35218.04
523.24	34918.45
523.41	34857.60
523.58	34895.05
523.75	35316.34
523.92	34639.93
524.10	34834.19
524.27	35534.01
524.44	35248.47
524.61	35672.10
524.78	35639.34
524.96	35646.36
525.13	35524.65
525.30	35695.51
525.47	35587.85
525.64	35573.80
525.81	35913.18
525.98	36130.85
526.16	35936.59
526.33	35952.97
526.50	36257.24
526.67	35491.88
526.84	36130.85
527.01	36360.22
527.18	36240.86
527.36	36299.37
527.53	36772.16
527.70	36587.25
527.87	36825.99
528.04	36870.46
528.21	36383.63
528.38	36348.52
528.55	36676.19
528.72	36790.88
528.89	37001.53
529.07	37329.20
529.24	37104.51
529.41	37184.09
529.58	37111.53
529.75	36858.76
529.92	37244.94
530.09	36884.50
530.26	37212.18
530.43	37102.17
530.60	37471.98
530.77	37219.20
530.94	37177.07
531.11	37663.90
531.28	37322.18
531.46	37722.41
531.63	37736.46
531.80	37895.61
531.97	37926.04
532.14	38132.01
532.31	37912.00
532.48	38075.84
532.65	38040.73
532.82	37673.26
532.99	37900.29
533.16	37830.08
533.33	38639.90
533.50	38705.44
533.67	38562.67
533.84	38258.40
534.01	38132.01
534.18	37652.20
534.35	38916.09
534.52	38319.25
534.69	38689.06
534.86	38363.72
535.03	38539.26
535.20	39077.58
535.37	38242.01
535.54	38920.77
535.71	39187.59
535.88	38574.37
536.05	39292.91
536.22	39672.08
536.38	38974.60
536.55	39594.84
536.72	38756.93
536.89	38525.22
537.06	39395.90
537.23	39271.85
537.40	38569.69
537.57	39065.88
537.74	39440.37
537.91	39704.85
538.08	39482.50
538.25	39550.37
538.42	39133.76
538.59	39576.12
538.75	39196.95
538.92	39761.02
539.09	39831.24
539.26	39728.25
539.43	39732.93
539.60	40126.14
539.77	39882.73
539.94	40182.32
540.11	40247.85
540.28	39981.03
540.44	40512.33
540.61	40187.00
540.78	40322.75
540.95	40676.17
541.12	40722.98
541.29	40552.12
541.46	40601.27
541.62	40573.19
541.79	40744.05
541.96	39873.37
542.13	40631.70
542.30	41027.25
542.47	41191.09
542.63	41247.26
542.80	41167.68
542.97	41326.84
543.14	41378.33
543.31	41029.59
543.48	41249.60
543.64	41471.95
543.81	41635.79
543.98	41574.94
544.15	41689.62
544.32	41427.48
544.48	41900.27
544.65	41865.16
544.82	41708.35
544.99	41876.86
545.16	41455.57
545.32	41743.45
545.49	42529.87
545.66	42852.87
545.83	43089.26
546.00	43089.26
546.16	42557.96
546.33	41886.23
546.50	41701.32
546.67	42139.00
546.83	41375.99
547.00	41998.57
547.17	41846.44
547.34	41902.61
547.50	42307.52
547.67	42277.10
547.84	42162.41
548.00	42492.43
548.17	42066.45
548.34	42005.59
548.51	42274.76
548.67	42705.41
548.84	42476.04
549.01	42347.31
549.18	42209.22
549.34	42707.76
549.51	42124.96
549.68	42546.26
549.84	42546.26
550.01	42319.23
550.18	42389.44
550.34	42288.80
550.51	42408.17
550.68	42859.89
550.84	42314.55
551.01	42307.52
551.18	42110.92
551.34	42274.76
551.51	42466.68
551.68	42777.97
551.84	42731.16
552.01	42717.12
552.18	42876.27
552.34	42452.64
552.51	43115.01
552.68	42873.93
552.84	42536.90
553.01	43000.32
553.18	43243.74
553.34	43082.24
553.51	43068.20
553.67	43187.56
553.84	43302.25
554.01	43257.78
554.17	42756.91
554.34	43248.42
554.51	43208.63
554.67	43133.73
554.84	43737.59
555.00	44041.86
555.17	43222.67
555.33	43405.23
555.50	43159.48
555.67	43320.98
555.83	43042.45
556.00	43372.47
556.16	43468.43
556.33	43100.97
556.50	43400.55
556.66	43112.67
556.83	43540.99
556.99	43480.13
557.16	43672.06
557.32	43655.67
557.49	43688.44
557.65	43400.55
557.82	43421.62
557.98	43814.83
558.15	43555.03
558.32	43545.67
558.48	43744.61
558.65	44055.90
558.81	43929.51
558.98	43852.28
559.14	43665.03
559.31	43552.69
559.47	43861.64
559.64	43744.61
559.80	44051.22
559.97	44013.77
560.13	43821.85
560.30	44271.23
560.46	44147.18
560.63	43878.02
560.79	44154.21
560.96	44273.57
561.12	44020.80
561.29	44313.36
561.45	43866.32
561.61	44289.96
561.78	43807.81
561.94	44156.55
562.11	44107.40
562.27	44210.38
562.44	44030.16
562.60	43756.32
562.77	44264.21
562.93	44229.10
563.10	44540.39
563.26	44226.76
563.42	44289.96
563.59	44149.53
563.75	43978.67
563.92	44458.48
564.08	43990.37
564.24	44229.10
564.41	43889.73
564.57	43782.06
564.74	44088.67
564.90	44058.24
565.07	44205.70
565.23	44547.42
565.39	44477.20
565.56	44325.07
565.72	44058.24
565.88	44280.60
566.05	43964.62
566.21	44100.37
566.38	44088.67
566.54	43885.04
566.70	44367.20
566.87	44215.06
567.03	44147.18
567.19	44779.13
567.36	44484.22
567.52	44320.38
567.68	44252.51
567.85	44231.44
568.01	44526.35
568.17	44304.00
568.34	44636.36
568.50	44531.03
568.66	44346.13
568.83	44502.95
568.99	44472.52
569.15	44430.39
569.32	44456.14
569.48	44203.36
569.64	44645.72
569.81	44222.08
569.97	44369.54
570.13	44477.20
570.30	44582.52
570.46	44514.65
570.62	44762.75
570.78	44224.42
570.95	44247.83
571.11	44753.38
571.27	44198.68
571.43	44287.62
571.60	43981.01
571.76	44587.21
571.92	44381.24
572.09	44619.97
572.25	44329.75
572.41	44524.01
572.57	44603.59
572.74	44596.57
572.90	44296.98
573.06	44388.26
573.22	44636.36
573.38	44776.79
573.55	44318.04
573.71	44624.65
573.87	44699.55
574.03	44786.15
574.20	44610.61
574.36	44444.43
574.52	44360.17
574.68	44589.55
574.84	44582.52
575.01	44636.36
575.17	44617.63
575.33	44587.21
575.49	44346.13
575.65	44706.57
575.82	44680.83
575.98	44201.02
576.14	44388.26
576.30	44971.05
576.46	44626.99
576.62	44905.52
576.79	44577.84
576.95	44842.32
577.11	44636.36
577.27	45109.14
577.43	44823.60
577.59	44947.65
577.75	44814.24
577.92	44421.03
578.08	44570.82
578.24	44364.85
578.40	44940.63
578.56	44645.72
578.72	44767.43
578.88	45392.35
579.04	45181.70
579.21	44961.69
579.37	44912.54
579.53	44907.86
579.69	44294.64
579.85	44877.43
580.01	44362.51
580.17	44472.52
580.33	44554.44
580.49	44690.19
580.65	44605.93
580.82	44961.69
580.98	44566.14
581.14	44439.75
581.30	44772.11
581.46	44371.88
581.62	44158.89
581.78	44374.22
581.94	44643.38
582.10	44884.45
582.26	44837.64
582.42	44687.85
582.58	44900.84
582.74	44802.53
582.90	45008.50
583.06	44636.36
583.22	44847.00
583.38	44516.99
583.54	44917.22
583.70	44830.62
583.86	44643.38
584.02	44528.69
584.18	44917.22
584.34	44816.58
584.50	45020.20
584.66	44596.57
584.82	44598.91
584.98	44116.76
585.14	44577.84
585.30	44676.15
585.46	45078.72
585.62	44524.01
585.78	44832.96
585.94	44449.11
586.10	44493.58
586.26	44872.75
586.42	44491.24
586.58	44835.30
586.74	45083.40
586.90	44720.62
587.06	44542.74
587.22	44561.46
587.38	44825.94
587.54	44996.80
587.70	44655.08
587.86	44793.17
588.02	45272.98
588.18	45315.11
588.34	44776.79
588.49	44406.98
588.65	44509.97
588.81	44409.32
588.97	44418.69
589.13	44615.29
589.29	44580.18
589.45	45043.61
589.61	45041.27
589.77	45212.13
589.93	44926.58
590.08	44900.84
590.24	45237.87
590.40	44788.49
590.56	45406.39
590.72	44973.39
590.88	44744.02
591.04	44842.32
591.20	45303.41
591.35	44989.78
591.51	45385.33
591.67	45223.83
591.83	44722.96
591.99	45354.90
592.15	45010.84
592.31	45090.42
592.46	44854.03
592.62	45003.82
592.78	45008.50
592.94	44945.31
593.10	44751.04
593.26	44622.31
593.41	45338.52
593.57	45188.72
593.73	45158.30
593.89	45202.77
594.05	45228.51
594.20	45303.41
594.36	45242.56
594.52	44664.44
594.68	45202.77
594.84	44353.15
594.99	44973.39
595.15	45041.27
595.31	45436.82
595.47	45081.06
595.62	45125.53
595.78	44823.60
595.94	45045.95
596.10	44807.22
596.25	44823.60
596.41	45174.68
596.57	44598.91
596.73	45294.05
596.88	44839.98
597.04	44737.00
597.20	45340.86
597.36	45436.82
597.51	45287.03
597.67	44706.57
597.83	44996.80
597.99	45177.02
598.14	44615.29
598.30	44961.69
598.46	45146.59
598.61	45118.51
598.77	44755.72
598.93	45322.13
599.09	45017.86
599.24	45504.70
599.40	45113.83
599.56	44837.64
599.71	44949.99
599.87	45366.60
600.03	45071.70
600.18	44655.08
600.34	44800.19
600.50	45083.40
600.65	44797.85
600.81	45294.05
600.97	45301.07
601.12	45280.00
601.28	45340.86
601.44	44865.73
601.59	45483.63
601.75	45008.50
601.91	45254.26
602.06	45022.54
602.22	44694.87
602.37	44884.45
602.53	44767.43
602.69	44811.90
602.84	44924.24
603.00	45106.80
603.16	44996.80
603.31	45104.46
603.47	44933.60
603.62	44842.32
603.78	45235.53
603.94	44765.09
604.09	44790.83
604.25	44725.30
604.40	44423.37
604.56	44694.87
604.71	44746.36
604.87	45067.02
605.03	45371.28
605.18	44800.19
605.34	44683.17
605.49	44439.75
605.65	44762.75
605.80	44671.46
605.96	44575.50
606.12	44364.85
606.27	44678.49
606.43	43819.51
606.58	44996.80
606.74	44626.99
606.89	45116.17
607.05	44692.53
607.20	44648.06
607.36	44610.61
607.51	44493.58
607.67	44280.60
607.82	44348.47
607.98	44673.81
608.13	44465.50
608.29	44582.52
608.44	44147.18
608.60	44399.96
608.75	44685.51
608.91	45167.66
609.06	44285.28
609.22	44343.79
609.37	44463.16
609.53	44692.53
609.68	44156.55
609.84	44376.56
609.99	44547.42
610.15	44282.94
610.30	44886.79
610.46	44704.23
610.61	44725.30
610.76	45329.16
610.92	45092.76
611.07	45258.94
611.23	44947.65
611.38	45036.59
611.54	44912.54
611.69	44598.91
611.84	44390.60
612.00	44428.05
612.15	44105.06
612.31	44961.69
612.46	44245.49
612.62	44343.79
612.77	44486.56
612.92	44601.25
613.08	44013.77
613.23	44287.62
613.39	44149.53
613.54	43995.05
613.69	43702.48
613.85	43882.70
614.00	44252.51
614.15	44067.61
614.31	43606.52
614.46	44481.88
614.62	44053.56
614.77	44327.41
614.92	44268.89
615.08	44306.34
615.23	43629.93
615.38	43667.37
615.54	43276.51
615.69	43728.23
615.84	43145.44
616.00	43761.00
616.15	43494.18
616.30	43826.53
616.46	43234.38
616.61	43473.11
616.76	44044.20
616.92	43203.95
617.07	43421.62
617.22	43533.96
617.37	43096.28
617.53	43515.24
617.68	43248.42
617.83	43423.96
617.99	43122.03
618.14	43325.66
618.29	43592.48
618.45	43023.73
618.60	42667.97
618.75	43030.75
618.90	43175.86
619.06	43278.85
619.21	42721.80
619.36	42820.10
619.51	42920.74
619.67	42792.01
619.82	43192.25
619.97	42969.90
620.12	42511.15
620.28	42597.75
620.43	42497.11
620.58	43199.27
620.73	43192.25
620.89	43236.72
621.04	43189.91
621.19	42948.83
621.34	42724.14
621.49	42555.62
621.65	42642.22
621.80	42904.36
621.95	42284.12
622.10	42705.41
622.25	42621.16
622.41	42359.02
622.56	42656.26
622.71	42810.74
622.86	42373.06
623.01	42382.42
623.16	42506.47
623.32	42258.37
623.47	42674.99
623.62	42073.47
623.77	42344.97
623.92	42209.22
624.07	41972.83
624.23	42211.56
624.38	42368.38
624.53	42277.10
624.68	42576.69
624.83	42038.36
624.98	42169.43
625.13	41841.76
625.29	41998.57
625.44	42103.90
625.59	41727.07
625.74	41837.08
625.89	41687.28
626.04	41535.15
626.19	41588.98
626.34	41783.24
626.49	41783.24
626.65	41502.38
626.80	41708.35
626.95	42000.91
627.10	41584.30
627.25	41897.93
627.40	41605.36
627.55	41301.09
627.70	41549.19
627.85	41427.48
628.00	41137.26
628.15	41146.62
628.30	41558.55
628.45	41352.58
628.60	41034.27
628.76	41591.32
628.91	41631.11
629.06	41280.03
629.21	41177.04
629.36	41057.68
629.51	41076.40
629.66	41399.40
629.81	41256.62
629.96	40851.71
630.11	40776.81
630.26	41111.51
630.41	40950.01
630.56	41153.64
630.71	41455.57
630.86	40767.45
631.01	41263.64
631.16	40942.99
631.31	41223.86
631.46	40928.95
631.61	41219.17
631.76	41055.34
631.91	40802.56
632.06	40432.75
632.21	40821.28
632.36	40912.56
632.51	40477.22
632.66	40638.72
632.81	40538.08
632.96	40900.86
633.10	40514.67
633.25	40245.51
633.40	40205.72
633.55	40573.19
633.70	40524.04
633.85	40205.72
634.00	40517.01
634.15	40423.39
634.30	40172.96
634.45	40472.54
634.60	40594.25
634.75	40149.55
634.90	40229.13
635.05	40598.93
635.19	40788.52
635.34	40074.65
635.49	40339.13
635.64	40053.59
635.79	40484.25
635.94	39775.06
636.09	39868.69
636.24	40084.01
636.39	39629.95
636.53	39655.70
636.68	39344.41
636.83	39934.22
636.98	39711.87
637.13	39840.60
637.28	40402.33
637.43	40493.61
637.57	40062.95
637.72	39541.01
637.87	39632.29
638.02	40095.72
638.17	39550.37
638.32	39484.84
638.46	39175.89
638.61	39180.57
638.76	39503.56
638.91	39562.08
639.06	39559.73
639.20	39641.65
639.35	39218.02
639.50	39545.69
639.65	39751.66
639.80	39768.04
639.94	39218.02
640.09	39248.44
640.24	39257.81
640.39	39526.97
640.54	39215.68
640.68	39035.45
640.83	39365.47
640.98	38969.92
641.13	38930.13
641.27	39515.26
641.42	38565.01
641.57	38808.42
641.72	39384.19
641.86	39058.86
642.01	39054.18
642.16	39115.03
642.31	39061.20
642.45	38436.28
642.60	38607.14
642.75	38513.52
642.90	38656.29
643.04	38813.10
643.19	38515.86
643.34	38799.06
643.48	38988.64
643.63	38855.23
643.78	38770.97
643.93	38979.28
644.07	39239.08
644.22	38696.08
644.37	38525.22
644.51	38789.70
644.66	38263.08
644.81	38457.34
644.95	38827.15
645.10	38305.21
645.25	38323.93
645.39	38607.14
645.54	38520.54
645.69	38656.29
645.83	38445.64
645.98	38258.40
646.13	38625.86
646.27	38192.86
646.42	38281.80
646.57	38068.81
646.71	38345.00
646.86	38494.79
647.00	37820.72
647.15	38054.77
647.30	37907.32
647.44	37942.42
647.59	38361.38
647.74	38075.84
647.88	38045.41
648.03	37610.07
648.17	38148.39
648.32	37680.28
648.47	37975.19
648.61	38085.20
648.76	38036.05
648.90	37881.57
649.05	37743.48
649.20	38075.84
649.34	37687.31
649.49	37560.92
649.63	37586.66
649.78	37979.87
649.92	38139.03
650.07	38103.92
650.21	37436.87
650.36	37799.65
650.51	37689.65
650.65	37984.55
650.80	37752.84
650.94	38073.49
651.09	37502.40
651.23	37486.02
651.38	37483.68
651.52	37212.18
651.67	37251.97
651.81	37177.07
651.96	37418.14
652.10	36861.10
652.25	37493.04
652.39	37528.15
652.54	37338.57
652.68	37301.12
652.83	37277.71
652.97	36992.17
653.12	37476.66
653.26	37336.23
653.41	37628.79
653.55	37038.98
653.70	36982.80
653.84	37404.10
653.99	37125.58
654.13	36994.51
654.27	37223.88
654.42	37340.91
654.56	36917.27
654.71	36933.65
654.85	37179.41
655.00	37097.49
655.14	36877.48
655.29	36875.14
655.43	37027.28
655.57	36711.30
655.72	36741.73
655.86	36769.82
656.01	36369.58
656.15	36863.44
656.30	36767.48
656.44	36587.25
656.58	36547.47
656.73	36414.05
656.87	36662.15
657.01	36561.51
657.16	36648.11
657.30	36519.38
657.45	36636.41
657.59	36467.89
657.73	36079.36
657.88	36109.78
658.02	36233.83
658.16	36252.56
658.31	35697.85
658.45	35800.83
658.60	35959.99
658.74	36154.26
658.88	36095.74
659.03	36109.78
659.17	35548.06
659.31	36030.21
659.46	36032.55
659.60	36238.51
659.74	35688.49
659.89	36006.80
660.03	35618.27
660.17	35962.33
660.32	35445.07
660.46	35452.09
660.60	35283.58
660.74	35412.31
660.89	35477.84
661.03	34948.88
661.17	35194.64
661.32	35082.29
661.46	35353.79
661.60	35255.49
661.74	35559.76
661.89	34932.50
662.03	35330.39
662.17	35225.06
662.31	34986.33
662.46	35454.44
662.60	35276.55
662.74	35079.95
662.88	34675.04
663.03	34483.11
663.17	34986.33
663.31	34494.82
663.45	34642.27
663.60	34621.20
663.74	34595.46
663.88	34345.02
664.02	34677.38
664.17	34532.26
664.31	34574.39
664.45	34710.14
664.59	34326.30
664.73	34462.05
664.88	34192.89
665.02	34370.77
665.16	34286.51
665.30	33905.00
665.44	33586.69
665.59	33663.93
665.73	34220.97
665.87	34054.79
666.01	33710.74
666.15	34352.04
666.29	33593.71
666.44	34160.12
666.58	33764.57
666.72	33539.88
666.86	33282.42
667.00	33783.29
667.14	33397.10
667.28	33633.50
667.43	33109.22
667.57	33310.50
667.71	33322.21
667.85	33287.10
667.99	32999.21
668.13	33284.76
668.27	33102.20
668.41	33158.37
668.56	32971.13
668.70	33284.76
668.84	32945.38
668.98	33125.60
669.12	33132.62
669.26	32708.99
669.40	32989.85
669.54	32765.16
669.68	32638.77
669.82	32531.11
669.96	32776.86
670.10	32142.58
670.25	32818.99
670.39	32400.04
670.53	31887.46
670.67	32102.79
670.81	32273.65
670.95	32400.04
671.09	32500.68
671.23	32018.53
671.37	32432.80
671.51	32130.87
671.65	32130.87
671.79	31833.63
671.93	31480.21
672.07	31697.88
672.21	31517.65
672.35	31101.04
672.49	31091.68
672.63	30979.33
672.77	30998.06
672.91	31262.54
673.05	30778.04
673.19	30991.03
673.33	31211.04
673.47	31096.36
673.61	31325.73
673.75	31112.74
673.89	31208.70
674.03	31009.76
674.17	30483.14
674.31	31131.47
674.45	31016.78
674.59	30405.90
674.73	30747.62
674.87	30389.52
675.01	30118.01
675.15	30387.18
675.29	30649.32
675.43	30595.48
675.56	30244.40
675.70	30352.07
675.84	30314.62
675.98	29324.57
676.12	29883.96
676.26	30026.73
676.40	30232.70
676.54	29919.07
676.68	29741.19
676.82	28933.70
676.96	29088.18
677.10	28971.15
677.23	29186.48
677.37	28830.72
677.51	29130.31
677.65	28978.17
677.79	28542.83
677.93	28800.29
678.07	28823.70
678.21	28931.36
678.34	28779.23
678.48	28591.98
678.62	28493.68
678.76	28524.11
678.90	28196.43
679.04	28013.87
679.18	28451.55
679.31	27814.93
679.45	27835.99
679.59	27838.33
679.73	27850.03
679.87	27655.77
680.00	27452.14
680.14	27620.66
680.28	27388.95
680.42	27522.36
680.56	27503.64
680.70	27316.39
680.83	27386.61
680.97	27063.61
681.11	26981.70
681.25	26946.59
681.39	26541.68
681.52	27147.87
681.66	26384.86
681.80	26127.40
681.94	26455.08
682.07	26431.67
682.21	26214.00
682.35	25970.58
682.49	26101.65
682.62	25872.28
682.76	26031.44
682.90	26288.90
683.04	25841.85
683.17	25902.71
683.31	25844.20
683.45	25612.48
683.59	25671.00
683.72	25593.76
683.86	25156.08
684.00	25415.88
684.13	25298.85
684.27	25226.29
684.41	24943.09
684.55	24751.17
684.68	24723.08
684.82	24643.50
684.96	24444.56
685.09	24353.27
685.23	24744.14
685.37	24315.83
685.50	24800.32
685.64	24290.08
685.78	24254.97
685.91	24332.21
686.05	24472.64
686.19	24163.69
686.32	24297.10
686.46	23688.56
686.60	23782.18
686.73	23735.37
686.87	23468.55
687.01	24016.24
687.14	23236.84
687.28	23372.59
687.42	23101.09
687.55	23157.26
687.69	23290.67
687.82	22801.50
687.96	23000.44
688.10	22902.14
688.23	23065.98
688.37	23129.17
688.50	22885.76
688.64	22792.14
688.78	23075.34
688.91	22366.16
689.05	22497.23
689.18	22192.96
689.32	22087.64
689.46	21846.56
689.59	22097.00
689.73	22118.06
689.86	22080.61
690.00	21708.47
690.13	21750.60
690.27	21443.99
690.41	21851.24
690.54	21553.99
690.68	21502.50
690.81	21479.10
690.95	21486.12
691.08	21149.08
691.22	21280.15
691.35	21701.45
691.49	21018.01
691.62	21233.34
691.76	20812.04
691.89	20446.92
692.03	20645.87
692.16	20362.66
692.30	20608.42
692.43	20531.18
692.57	20233.93
692.70	20201.16
692.84	20350.96
692.97	19798.59
693.11	20194.14
693.24	19707.31
693.38	20219.89
693.51	19978.81
693.65	19929.66
693.78	19552.84
693.92	19765.82
694.05	19494.32
694.19	19440.49
694.32	19510.71
694.45	19517.73
694.59	18885.78
694.72	18747.69
694.86	19112.81
694.99	18822.59
695.13	18988.77
695.26	18745.35
695.39	18595.56
695.53	18937.27
695.66	18719.60
695.80	18614.28
695.93	18597.90
696.07	18637.69
696.20	18253.84
696.33	18611.94
696.47	18078.30
696.60	18082.98
696.73	18263.20
696.87	17762.33
697.00	18087.66
697.14	17844.24
697.27	17462.74
697.40	17495.50
697.54	17221.66
697.67	17163.15
697.80	17504.87
697.94	17312.94
698.07	17249.75
698.21	17411.25
698.34	17160.81
698.47	17158.47
698.61	17078.89
698.74	17149.11
698.87	17050.80
699.01	16716.11
699.14	16992.29
699.27	16741.85
699.40	16868.24
699.54	16376.73
699.67	16266.72
699.80	15910.96
699.94	16290.13
700.07	16180.12
700.20	15971.82
700.34	15847.77
700.47	15964.79
700.60	15882.88
700.73	15854.79
700.87	15852.45
701.00	15829.04
701.13	15648.82
701.26	15522.43
701.40	15756.49
701.53	15564.56
701.66	15492.01
701.79	15403.07
701.93	15421.79
702.06	14984.11
702.19	15386.68
702.32	15026.24
702.46	14843.68
702.59	14743.03
702.72	14588.56
702.85	14562.81
702.99	14757.08
703.12	14565.15
703.25	14707.93
703.38	14541.75
703.51	14476.21
703.65	14338.12
703.78	14349.82
703.91	14295.99
704.04	14551.11
704.17	14108.75
704.31	14197.69
704.44	14277.27
704.57	14090.02
704.70	14015.13
704.83	13631.28
704.96	13731.92
705.10	13572.77
705.23	13532.98
>>>>>End Processed Spectral Data<<<<<
