SpectraSuite Data File
++++++++++++++++++++++++++++++++++++
Date: Fri Oct 04 11:39:41 GMT-05:00 2013
User: price-jones
Dark Spectrum Present: No
Reference Spectrum Present: No
Number of Sampled Component Spectra: 1
Spectrometers: USB2+H05261
Integration Time (usec): 100000 (USB2+H05261)
Spectra Averaged: 1 (USB2+H05261)
Boxcar Smoothing: 0 (USB2+H05261)
Correct for Electrical Dark: No (USB2+H05261)
Strobe/Lamp Enabled: No (USB2+H05261)
Correct for Detector Non-linearity: No (USB2+H05261)
Correct for Stray Light: No (USB2+H05261)
Number of Pixels in Processed Spectrum: 2048
>>>>>Begin Processed Spectral Data<<<<<
365.73	65.54
365.92	65.54
366.12	65.54
366.32	0.00
366.52	0.00
366.72	32.77
366.91	0.00
367.11	2.34
367.31	0.00
367.51	0.00
367.70	0.00
367.90	0.00
368.10	0.00
368.30	0.00
368.49	0.00
368.69	2.34
368.89	0.00
369.09	0.00
369.28	25.75
369.48	0.00
369.68	0.00
369.87	0.00
370.07	2.34
370.27	53.83
370.47	81.92
370.66	308.95
370.86	341.72
371.06	332.36
371.25	404.91
371.45	315.97
371.65	344.06
371.84	383.85
372.04	393.21
372.24	287.89
372.44	372.15
372.63	393.21
372.83	472.79
373.03	402.57
373.22	449.38
373.42	449.38
373.62	395.55
373.81	458.74
374.01	472.79
374.21	416.62
374.40	482.15
374.60	582.79
374.79	425.98
374.99	514.92
375.19	475.13
375.38	465.77
375.58	475.13
375.78	507.90
375.97	543.00
376.17	554.71
376.37	538.32
376.56	540.66
376.76	514.92
376.95	435.34
377.15	482.15
377.35	461.09
377.54	519.60
377.74	500.87
377.93	486.83
378.13	479.81
378.33	594.50
378.52	526.62
378.72	517.26
378.91	571.09
379.11	484.49
379.31	507.90
379.50	479.81
379.70	486.83
379.89	519.60
380.09	585.13
380.28	510.24
380.48	564.07
380.68	578.11
380.87	594.50
381.07	526.62
381.26	578.11
381.46	568.75
381.65	559.39
381.85	526.62
382.04	575.77
382.24	554.71
382.43	603.86
382.63	589.82
382.83	638.97
383.02	592.16
383.22	610.88
383.41	564.07
383.61	664.71
383.80	641.31
384.00	526.62
384.19	615.56
384.39	725.57
384.58	657.69
384.78	641.31
384.97	627.26
385.17	688.12
385.36	641.31
385.56	648.33
385.75	636.63
385.95	638.97
386.14	695.14
386.34	741.95
386.53	739.61
386.72	702.16
386.92	674.07
387.11	683.44
387.31	767.70
387.50	678.76
387.70	784.08
387.89	720.88
388.09	723.23
388.28	669.39
388.48	720.88
388.67	821.53
388.86	676.41
389.06	704.50
389.25	828.55
389.45	727.91
389.64	753.65
389.84	802.80
390.03	816.85
390.22	812.17
390.42	816.85
390.61	798.12
390.81	739.61
391.00	887.06
391.19	807.48
391.39	807.48
391.58	908.13
391.78	898.77
391.97	908.13
392.16	858.98
392.36	908.13
392.55	854.30
392.75	924.51
392.94	901.11
393.13	912.81
393.33	1032.18
393.52	1029.84
393.71	947.92
393.91	961.96
394.10	868.34
394.29	978.34
394.49	889.40
394.68	1088.35
394.88	917.49
395.07	1020.47
395.26	990.05
395.46	1006.43
395.65	1069.62
395.84	1027.50
396.04	1064.94
396.23	990.05
396.42	1057.92
396.62	1048.56
396.81	1083.67
397.00	1114.10
397.19	1062.60
397.39	1196.01
397.58	1139.84
397.77	1008.77
397.97	1116.44
398.16	1214.74
398.35	1109.41
398.55	1139.84
398.74	1102.39
398.93	1273.25
399.12	1242.82
399.32	1196.01
399.51	1193.67
399.70	1268.57
399.90	1221.76
400.09	1273.25
400.28	1254.53
400.47	1317.72
400.67	1336.45
400.86	1303.68
401.05	1301.34
401.24	1462.83
401.44	1341.13
401.63	1413.68
401.82	1329.42
402.01	1359.85
402.21	1336.45
402.40	1430.07
402.59	1434.75
402.78	1423.05
402.97	1483.90
403.17	1441.77
403.36	1467.52
403.55	1490.92
403.74	1495.60
403.93	1570.50
404.13	1584.54
404.32	1624.33
404.51	1577.52
404.70	1652.42
404.89	1579.86
405.09	1577.52
405.28	1631.35
405.47	1589.22
405.66	1668.80
405.85	1659.44
406.05	1647.74
406.24	1682.85
406.43	1720.29
406.62	1692.21
406.81	1830.30
407.00	1666.46
407.20	1743.70
407.39	1804.55
407.58	1774.13
407.77	1769.44
407.96	1865.41
408.15	1926.26
408.34	1881.79
408.54	1856.04
408.73	1881.79
408.92	1970.73
409.11	2008.18
409.30	1907.54
409.49	2092.44
409.68	1998.82
409.87	2134.57
410.07	2038.61
410.26	2076.06
410.45	2076.06
410.64	2019.88
410.83	2080.74
411.02	2101.80
411.21	2244.57
411.40	2183.72
411.59	2200.10
411.78	2218.83
411.98	2186.06
412.17	2239.89
412.36	2232.87
412.55	2349.90
412.74	2333.51
412.93	2354.58
413.12	2431.82
413.31	2497.35
413.50	2434.16
413.69	2581.61
413.88	2595.65
414.07	2457.56
414.26	2583.95
414.45	2637.78
414.64	2670.55
414.83	2649.49
415.02	2684.59
415.22	2778.22
415.41	2761.83
415.60	2885.88
415.79	2888.22
415.98	2862.48
416.17	2874.18
416.36	2970.14
416.55	2909.29
416.74	2904.60
416.93	2869.50
417.12	3122.27
417.31	2977.16
417.50	3075.46
417.69	3091.85
417.88	2984.18
418.07	3183.13
418.26	3063.76
418.45	3133.98
418.64	3318.88
418.83	3152.70
419.02	3204.19
419.21	3389.10
419.39	3176.11
419.58	3316.54
419.77	3337.60
419.96	3328.24
420.15	3524.85
420.34	3428.88
420.53	3405.48
420.72	3653.58
420.91	3499.10
421.10	3534.21
421.29	3634.85
421.48	3545.91
421.67	3604.42
421.86	3485.06
422.05	3485.06
422.24	3566.98
422.43	3599.74
422.61	3620.81
422.80	3826.78
422.99	3620.81
423.18	3686.34
423.37	3578.68
423.56	3702.73
423.75	3688.68
423.94	3583.36
424.13	3421.86
424.32	3543.57
424.50	3742.52
424.69	3875.93
424.88	3684.00
425.07	3595.06
425.26	3709.75
425.45	3728.47
425.64	3688.68
425.83	3688.68
426.01	3810.39
426.20	3691.02
426.39	3698.05
426.58	3852.52
426.77	3728.47
426.96	3808.05
427.15	3791.67
427.33	3878.27
427.52	3868.91
427.71	3936.78
427.90	4044.45
428.09	3885.29
428.28	4009.34
428.46	3882.95
428.65	4039.76
428.84	4053.81
429.03	4067.85
429.22	3906.35
429.40	4060.83
429.59	4161.47
429.78	3929.76
429.97	3990.61
430.16	4063.17
430.34	4383.82
430.53	4315.95
430.72	4264.46
430.91	4102.96
431.10	4124.02
431.28	4212.96
431.47	4222.33
431.66	4376.80
431.85	4159.13
432.03	4299.56
432.22	4404.89
432.41	4475.10
432.60	4486.81
432.79	4346.37
432.97	4573.41
433.16	4521.92
433.35	4533.62
433.54	4580.43
433.72	4512.55
433.91	4645.96
434.10	4648.30
434.28	4418.93
434.47	4706.82
434.66	4730.22
434.85	4643.62
435.03	4685.75
435.22	4835.55
435.41	5252.16
435.59	5114.07
435.78	4910.44
435.97	5004.07
436.16	4854.27
436.34	4985.34
436.53	4823.84
436.72	4877.68
436.90	4667.03
437.09	4997.04
437.28	4835.55
437.46	4793.42
437.65	4922.15
437.84	5039.17
438.02	4971.30
438.21	5081.30
438.40	4964.28
438.58	5170.24
438.77	5378.55
438.96	5205.35
439.14	5322.38
439.33	5411.32
439.52	5282.59
439.70	5411.32
439.89	5593.88
440.08	5652.39
440.26	5617.29
440.45	5507.28
440.63	5462.81
440.82	5671.12
441.01	5671.12
441.19	5666.44
441.38	5678.14
441.57	5844.32
441.75	5937.94
441.94	5961.34
442.12	5837.30
442.31	5827.93
442.50	6026.88
442.68	5881.77
442.87	5916.87
443.05	5994.11
443.24	6043.26
443.43	6099.44
443.61	6029.22
443.80	6277.32
443.98	6162.63
444.17	6052.63
444.35	6195.40
444.54	6289.02
444.73	6314.77
444.91	6125.18
445.10	6183.70
445.28	6195.40
445.47	6221.14
445.65	6115.82
445.84	6274.98
446.02	6396.68
446.21	6270.30
446.39	6181.35
446.58	6305.40
446.77	6429.45
446.95	6129.86
447.14	6246.89
447.32	6544.14
447.51	6328.81
447.69	6202.42
447.88	6370.94
448.06	6396.68
448.25	6284.34
448.43	6427.11
448.62	6408.39
448.80	6366.26
448.99	6387.32
449.17	6317.11
449.36	6581.59
449.54	6684.57
449.73	6689.25
449.91	6881.18
450.10	6658.82
450.28	6733.72
450.46	6637.76
450.65	6637.76
450.83	6689.25
451.02	6806.28
451.20	6801.60
451.39	6965.43
451.57	6754.79
451.76	6700.95
451.94	6766.49
452.13	6843.73
452.31	6885.86
452.49	6752.45
452.68	7061.40
452.86	6848.41
453.05	7035.65
453.23	6979.48
453.42	6970.12
453.60	6949.05
453.78	7183.10
453.97	6986.50
454.15	6974.80
454.34	7063.74
454.52	7307.15
454.70	7272.04
454.89	7335.24
455.07	7208.85
455.26	7236.94
455.44	7482.69
455.62	7375.03
455.81	7353.96
455.99	7375.03
456.17	7372.69
456.36	7314.17
456.54	7538.87
456.73	7662.91
456.91	7733.13
457.09	7777.60
457.28	7822.07
457.46	7564.61
457.64	7726.11
457.83	7801.01
458.01	7990.59
458.19	7791.64
458.38	7683.98
458.56	8013.99
458.74	7878.24
458.93	7950.80
459.11	8088.89
459.29	8107.62
459.48	8077.19
459.66	7995.27
459.84	8135.70
460.03	8344.01
460.21	7974.21
460.39	8187.19
460.57	8131.02
460.76	8093.57
460.94	8161.45
461.12	8407.20
461.31	8505.51
461.49	8248.05
461.67	7983.57
461.85	8568.70
462.04	8248.05
462.22	9018.08
462.40	8348.69
462.59	8407.20
462.77	8517.21
462.95	8411.89
463.13	8472.74
463.32	8372.10
463.50	8599.13
463.68	8580.40
463.86	8617.85
464.05	8507.85
464.23	8568.70
464.41	8678.71
464.59	8458.70
464.78	8833.18
464.96	8784.03
465.14	8732.54
465.32	8760.63
465.50	8800.41
465.69	8975.95
465.87	8753.60
466.05	9006.38
466.23	8863.61
466.41	8990.00
466.60	9249.80
466.78	8992.34
466.96	8819.14
467.14	8945.53
467.32	8887.01
467.51	9235.75
467.69	8905.74
467.87	9090.64
468.05	8994.68
468.23	9011.06
468.41	8924.46
468.60	9214.69
468.78	9242.78
468.96	9153.84
469.14	9315.33
469.32	9317.67
469.50	9195.96
469.69	9540.02
469.87	9437.04
470.05	9434.70
470.23	9479.17
470.41	9584.49
470.59	9823.23
470.77	9600.88
470.95	9699.18
471.14	9617.26
471.32	9722.59
471.50	9818.55
471.68	9867.70
471.86	9809.19
472.04	9898.13
472.22	10216.44
472.40	9860.68
472.58	9954.30
472.77	10143.88
472.95	10359.21
473.13	10494.96
473.31	10396.66
473.49	10200.05
473.67	10317.08
473.85	10403.68
474.03	10621.35
474.21	10661.14
474.39	10555.82
474.57	10813.28
474.75	10988.82
474.93	10799.23
475.12	11080.10
475.30	11136.27
475.48	11019.24
475.66	11145.63
475.84	11185.42
476.02	11257.98
476.20	10951.37
476.38	11379.68
476.56	11543.52
476.74	11513.10
476.92	11609.06
477.10	11644.17
477.28	11751.83
477.46	11573.95
477.64	11777.58
477.82	11822.05
478.00	12280.79
478.18	12241.00
478.36	12376.75
478.54	12301.86
478.72	12414.20
478.90	12575.70
479.08	12699.75
479.26	12835.50
479.44	13064.87
479.62	12999.34
479.80	13029.76
479.98	12849.54
480.16	13507.23
480.34	13135.09
480.52	13240.41
480.70	13467.44
480.88	13343.39
481.06	13551.70
481.24	13425.31
481.41	13757.67
481.59	13933.21
481.77	14178.97
481.95	14057.26
482.13	14188.33
482.31	14354.51
482.49	14406.00
482.67	14567.49
482.85	14925.60
483.03	14939.64
483.21	15068.37
483.39	15124.54
483.57	14988.79
483.74	15110.50
483.92	15555.20
484.10	15559.88
484.28	15623.08
484.46	15936.71
484.64	16086.50
484.82	15932.03
485.00	15882.88
485.18	16409.50
485.35	16704.40
485.53	16376.73
485.71	16517.16
485.89	16851.86
486.07	16601.42
486.25	16877.60
486.43	16870.58
486.61	17013.35
486.78	17467.42
486.96	17488.48
487.14	17593.81
487.32	17657.00
487.50	17696.79
487.68	17757.64
487.85	17980.00
488.03	18398.95
488.21	18396.61
488.39	18738.33
488.57	18775.78
488.75	18754.71
488.92	19143.24
489.10	18977.06
489.28	19344.53
489.46	19644.12
489.64	19349.21
489.81	19889.87
489.99	19721.35
490.17	19901.58
490.35	20067.75
490.53	20348.62
490.70	20489.05
490.88	20577.99
491.06	20732.47
491.24	20463.30
491.41	20788.64
491.59	21018.01
491.77	20692.68
491.95	21252.06
492.13	21507.18
492.30	21219.30
492.48	21226.32
492.66	21715.49
492.84	21699.11
493.01	22104.02
493.19	22333.39
493.37	22080.61
493.54	22335.73
493.72	22700.86
493.90	22476.16
494.08	22637.66
494.25	22939.59
494.43	23316.42
494.61	23206.41
494.79	23295.35
494.96	23166.62
495.14	22991.08
495.32	23501.32
495.49	23576.22
495.67	23983.47
495.85	24170.71
496.02	23929.64
496.20	24458.60
496.38	24240.93
496.55	23901.55
496.73	24746.48
496.91	24753.51
497.09	25006.28
497.26	24893.94
497.44	24854.15
497.62	25135.01
497.79	25563.33
497.97	25338.64
498.14	25322.26
498.32	25888.67
498.50	25811.43
498.67	25507.16
498.85	25799.73
499.03	26050.16
499.20	26359.11
499.38	26354.43
499.56	26576.78
499.73	26878.71
499.91	26314.64
500.08	27150.21
500.26	26497.20
500.44	26958.29
500.61	27019.14
500.79	26754.66
500.97	27424.06
501.14	27274.26
501.32	27250.86
501.49	27372.57
501.67	27117.45
501.84	27744.71
502.02	27608.96
502.20	27974.08
502.37	28149.62
502.55	27861.74
502.72	28154.30
502.90	27733.01
503.07	28030.26
503.25	28006.85
503.43	28297.08
503.60	28425.81
503.78	28584.96
503.95	28811.99
504.13	28774.55
504.30	28779.23
504.48	28629.43
504.65	28900.94
504.83	28924.34
505.01	29677.99
505.18	29731.83
505.36	29516.50
505.53	29495.43
505.71	29497.77
505.88	29776.30
506.06	29261.38
506.23	29996.31
506.41	29692.04
506.58	29975.24
506.76	30141.42
506.93	30057.16
507.11	29825.45
507.28	29989.28
507.46	30398.88
507.63	30218.66
507.81	30799.11
507.98	30494.84
508.16	30878.69
508.33	30916.14
508.50	31311.69
508.68	30724.21
508.85	31569.15
509.03	31091.68
509.20	31608.93
509.38	31477.86
509.55	31388.92
509.73	31454.46
509.90	31768.09
510.08	31835.97
510.25	31714.26
510.42	31868.73
510.60	32341.52
510.77	32142.58
510.95	32402.38
511.12	32161.30
511.30	32055.98
511.47	32788.56
511.64	32219.81
511.82	32723.03
511.99	32479.61
512.17	33020.28
512.34	32910.27
512.51	33141.99
512.69	33046.02
512.86	33104.54
513.04	33565.62
513.21	33619.46
513.38	33593.71
513.56	33668.61
513.73	33640.52
513.90	33553.92
514.08	33333.91
514.25	33806.70
514.43	34024.37
514.60	34108.63
514.77	34274.80
514.95	34199.91
515.12	34396.51
515.29	34057.14
515.47	34553.33
515.64	34146.08
515.81	34796.74
515.99	34857.60
516.16	35028.46
516.33	34981.65
516.51	35255.49
516.68	34768.66
516.85	34682.06
517.03	35475.50
517.20	35129.10
517.37	35431.03
517.54	35386.56
517.72	35283.58
517.89	35028.46
518.06	35543.38
518.24	35445.07
518.41	35229.74
518.58	35751.68
518.75	35449.75
518.93	35775.09
519.10	36077.02
519.27	35651.04
519.45	35566.78
519.62	36123.83
519.79	36067.66
519.96	36301.71
520.14	36601.30
520.31	36425.76
520.48	37003.87
520.65	36467.89
520.83	36779.18
521.00	36669.17
521.17	36521.72
521.34	36498.31
521.52	37174.73
521.69	37212.18
521.86	37488.36
522.03	37556.24
522.20	37378.36
522.38	37401.76
522.55	37071.75
522.72	37226.22
522.89	37565.60
523.07	37773.91
523.24	37340.91
523.41	38146.05
523.58	37638.15
523.75	38476.07
523.92	37549.21
524.10	37937.74
524.27	37961.15
524.44	38075.84
524.61	38550.96
524.78	37979.87
524.96	38457.34
525.13	38670.33
525.30	38347.34
525.47	38424.57
525.64	38579.05
525.81	38930.13
525.98	38885.66
526.16	38670.33
526.33	38852.89
526.50	39236.74
526.67	38663.31
526.84	39180.57
527.01	38866.94
527.18	38934.81
527.36	39494.20
527.53	38866.94
527.70	39835.92
527.87	39597.18
528.04	39613.57
528.21	39344.41
528.38	39260.15
528.55	39758.68
528.72	39824.22
528.89	39564.42
529.07	39943.58
529.24	39515.26
529.41	40027.84
529.58	40334.45
529.75	39674.42
529.92	40053.59
530.09	40053.59
530.26	40268.92
530.43	40175.30
530.60	40229.13
530.77	40147.21
530.94	40189.34
531.11	40034.86
531.28	40109.76
531.46	40648.08
531.63	40552.12
531.80	40517.01
531.97	41141.94
532.14	40690.21
532.31	40470.20
532.48	41001.50
532.65	40832.99
532.82	41064.70
532.99	40975.76
533.16	41209.81
533.33	41333.86
533.50	41230.88
533.67	41001.50
533.84	41282.37
534.01	41207.47
534.18	41109.17
534.35	42040.70
534.52	41429.82
534.69	41673.24
534.86	41621.75
535.03	41226.20
535.20	41560.89
535.37	41867.50
535.54	41495.36
535.71	41483.66
535.88	41771.54
536.05	41909.63
536.22	42450.30
536.38	42256.03
536.55	42092.19
536.72	42073.47
536.89	41816.01
537.06	42131.98
537.23	42113.26
537.40	42124.96
537.57	41883.89
537.74	42092.19
537.91	42607.11
538.08	42476.04
538.25	42314.55
538.42	42862.23
538.59	42649.24
538.75	42143.69
538.92	42632.86
539.09	42759.25
539.26	42979.26
539.43	42541.58
539.60	43377.15
539.77	43000.32
539.94	43435.66
540.11	43129.05
540.28	42974.58
540.44	43608.86
540.61	43129.05
540.78	43391.19
540.95	43208.63
541.12	43576.09
541.29	43459.07
541.46	43407.58
541.62	43482.47
541.79	44105.06
541.96	43643.97
542.13	43585.46
542.30	43817.17
542.47	44219.74
542.63	44229.10
542.80	44163.57
542.97	44662.10
543.14	44589.55
543.31	43962.28
543.48	43887.39
543.64	44247.83
543.81	44542.74
543.98	44711.25
544.15	44999.14
544.32	44666.78
544.48	44849.35
544.65	44957.01
544.82	44175.27
544.99	44563.80
545.16	44577.84
545.32	44437.41
545.49	45511.72
545.66	46141.32
545.83	45790.24
546.00	45542.14
546.16	45331.50
546.33	45034.25
546.50	44643.38
546.67	44875.09
546.83	44287.62
547.00	45017.86
547.17	45179.36
547.34	44961.69
547.50	44926.58
547.67	45481.29
547.84	45415.76
548.00	45219.15
548.17	44935.95
548.34	45099.78
548.51	45422.78
548.67	45387.67
548.84	45652.15
549.01	45336.18
549.18	45713.00
549.34	45186.38
549.51	45478.95
549.68	45289.37
549.84	45434.48
550.01	45727.05
550.18	45331.50
550.34	45542.14
550.51	45975.14
550.68	45429.80
550.84	45137.23
551.01	45598.32
551.18	45935.35
551.34	45701.30
551.51	45567.89
551.68	45832.37
551.84	45961.10
552.01	45823.01
552.18	46157.70
552.34	45724.71
552.51	46080.47
552.68	45497.67
552.84	46045.36
553.01	45991.53
553.18	45713.00
553.34	46117.92
553.51	45748.11
553.67	46450.27
553.84	46344.95
554.01	46227.92
554.17	46138.98
554.34	46183.45
554.51	46045.36
554.67	46426.87
554.84	46541.55
555.00	46483.04
555.17	46019.61
555.33	46225.58
555.50	46307.50
555.67	46082.81
555.83	46248.99
556.00	46497.08
556.16	47002.64
556.33	46377.72
556.50	46314.52
556.66	46747.52
556.83	46375.37
556.99	46822.42
557.16	46820.08
557.32	46859.87
557.49	46651.56
557.65	46649.22
557.82	46543.89
557.98	46756.88
558.15	46780.29
558.32	46838.80
558.48	46930.08
558.65	47056.47
558.81	47323.29
558.98	46672.62
559.14	46967.53
559.31	46625.81
559.47	46782.63
559.64	46871.57
559.80	46473.68
559.97	47208.61
560.13	47079.88
560.30	47175.84
560.46	46724.11
560.63	46986.25
560.79	47082.22
560.96	47178.18
561.12	46887.95
561.29	46885.61
561.45	46492.40
561.61	47173.50
561.78	47377.12
561.94	47437.98
562.11	46995.62
562.27	47187.54
562.44	47014.34
562.60	47056.47
562.77	46965.19
562.93	47208.61
563.10	47278.82
563.26	47107.96
563.42	47772.67
563.59	46981.57
563.75	46955.83
563.92	47313.93
564.08	47297.55
564.24	47346.70
564.41	47161.79
564.57	47000.30
564.74	46939.44
564.90	47175.84
565.07	47264.78
565.23	47749.27
565.39	47264.78
565.56	47753.95
565.72	47210.95
565.88	47456.70
566.05	46829.44
566.21	47004.98
566.38	47269.46
566.54	47564.37
566.70	47758.63
566.87	47646.29
567.03	47246.05
567.19	47803.10
567.36	47342.02
567.52	47629.90
567.68	47826.51
567.85	47435.64
568.01	47468.40
568.17	47573.73
568.34	47374.78
568.50	47508.19
568.66	47934.17
568.83	47248.39
568.99	47325.63
569.15	47828.85
569.32	47627.56
569.48	47187.54
569.64	47526.92
569.81	47526.92
569.97	47578.41
570.13	47833.53
570.30	47597.13
570.46	47669.69
570.62	47943.53
570.78	47735.23
570.95	47517.56
571.11	47037.75
571.27	47201.58
571.43	47372.44
571.60	47908.43
571.76	47440.32
571.92	47463.72
572.09	47959.92
572.25	47611.18
572.41	47192.22
572.57	47070.51
572.74	48116.73
572.90	47356.06
573.06	47573.73
573.22	47990.34
573.38	47852.25
573.55	47473.09
573.71	48189.29
573.87	47924.81
574.03	47805.44
574.20	47772.67
574.36	47437.98
574.52	47557.35
574.68	47564.37
574.84	47983.32
575.01	47573.73
575.17	48112.05
575.33	47955.24
575.49	47854.59
575.65	48100.35
575.82	47620.54
575.98	47756.29
576.14	47971.62
576.30	47555.00
576.46	47363.08
576.62	47323.29
576.79	48170.57
576.95	47367.76
577.11	47906.08
577.27	47725.86
577.43	47634.58
577.59	47835.87
577.75	47566.71
577.92	47330.31
578.08	47594.79
578.24	47580.75
578.40	47573.73
578.56	47508.19
578.72	48140.14
578.88	48102.69
579.04	48659.74
579.21	47669.69
579.37	47412.23
579.53	47536.28
579.69	47517.56
579.85	47552.66
580.01	47885.02
580.17	47416.91
580.33	47632.24
580.49	47819.49
580.65	48186.95
580.82	47697.78
580.98	47440.32
581.14	47908.43
581.30	48182.27
581.46	47550.32
581.62	47398.19
581.78	47274.14
581.94	47674.37
582.10	47665.01
582.26	47728.20
582.42	48114.39
582.58	48079.28
582.74	47819.49
582.90	48025.45
583.06	48198.65
583.22	47370.10
583.38	47351.38
583.54	47751.61
583.70	47812.46
583.86	47318.61
584.02	47627.56
584.18	47700.12
584.34	47985.66
584.50	48006.73
584.66	47674.37
584.82	47725.86
584.98	48154.18
585.14	47657.99
585.30	47393.51
585.46	47711.82
585.62	47622.88
585.78	47980.98
585.94	47765.65
586.10	47374.78
586.26	47927.15
586.42	47941.19
586.58	47870.98
586.74	47838.21
586.90	47746.93
587.06	47803.10
587.22	47833.53
587.38	47606.50
587.54	48308.66
587.70	48048.86
587.86	47894.38
588.02	47901.40
588.18	48130.78
588.34	47763.31
588.49	47800.76
588.65	47714.16
588.81	47309.25
588.97	47927.15
589.13	47833.53
589.29	48144.82
589.45	48102.69
589.61	48083.97
589.77	47770.33
589.93	48186.95
590.08	47737.57
590.24	48371.85
590.40	47870.98
590.56	48184.61
590.72	47833.53
590.88	47576.07
591.04	47842.89
591.20	48140.14
591.35	48596.54
591.51	48453.77
591.67	48210.35
591.83	48371.85
591.99	48411.64
592.15	48039.50
592.31	48191.63
592.46	48229.08
592.62	47763.31
592.78	47847.57
592.94	48212.70
593.10	48296.95
593.26	48149.50
593.41	48584.84
593.57	48062.90
593.73	48175.25
593.89	48030.13
594.05	48203.33
594.20	48158.86
594.36	47739.91
594.52	48041.84
594.68	47782.04
594.84	47819.49
594.99	47997.37
595.15	48093.33
595.31	48236.10
595.47	48222.06
595.62	48095.67
595.78	48098.01
595.94	48341.42
596.10	47945.87
596.25	47988.00
596.41	47831.19
596.57	47730.54
596.73	48282.91
596.88	48053.54
597.04	48137.80
597.20	47810.12
597.36	48573.14
597.51	48245.46
597.67	47917.79
597.83	47847.57
597.99	48011.41
598.14	48140.14
598.30	48182.27
598.46	47945.87
598.61	48460.79
598.77	48238.44
598.93	47931.83
599.09	48083.97
599.24	48657.40
599.40	47931.83
599.56	48318.02
599.71	48041.84
599.87	47980.98
600.03	48142.48
600.18	48430.36
600.34	48275.89
600.50	48395.26
600.65	48348.45
600.81	48224.40
600.97	48399.94
601.12	48584.84
601.28	48507.60
601.44	48020.77
601.59	47969.28
601.75	47601.82
601.91	47990.34
602.06	47826.51
602.22	48046.52
602.37	47594.79
602.53	47873.32
602.69	47924.81
602.84	47540.96
603.00	47985.66
603.16	47980.98
603.31	48009.07
603.47	47894.38
603.62	48053.54
603.78	48215.04
603.94	48275.89
604.09	47753.95
604.25	47667.35
604.40	47723.52
604.56	48163.54
604.71	48278.23
604.87	48198.65
605.03	47927.15
605.18	48170.57
605.34	48030.13
605.49	47758.63
605.65	48037.16
605.80	47721.18
605.96	47496.49
606.12	47709.48
606.27	47632.24
606.43	47676.71
606.58	48079.28
606.74	47718.84
606.89	47608.84
607.05	47688.42
607.20	47686.07
607.36	47515.22
607.51	47957.58
607.67	47426.28
607.82	47686.07
607.98	47550.32
608.13	47227.33
608.29	47629.90
608.44	47779.70
608.60	47606.50
608.75	48025.45
608.91	47711.82
609.06	47653.31
609.22	47482.45
609.37	47498.83
609.53	47288.18
609.68	47903.74
609.84	47604.16
609.99	47477.77
610.15	47456.70
610.30	47899.06
610.46	47702.46
610.61	47847.57
610.76	48135.46
610.92	47943.53
611.07	48348.45
611.23	48165.88
611.38	48098.01
611.54	47751.61
611.69	47569.05
611.84	47524.58
612.00	47122.01
612.15	46918.38
612.31	47494.15
612.46	47260.10
612.62	47725.86
612.77	47587.77
612.92	47723.52
613.08	47276.48
613.23	47070.51
613.39	47035.41
613.54	46473.68
613.69	47145.41
613.85	46920.72
614.00	46923.06
614.15	47079.88
614.31	46899.65
614.46	47629.90
614.62	47241.37
614.77	47311.59
614.92	47178.18
615.08	46906.68
615.23	47224.99
615.38	46817.74
615.54	46990.94
615.69	46625.81
615.84	46621.13
616.00	46674.96
616.15	46834.12
616.30	46665.60
616.46	46412.82
616.61	46630.49
616.76	46527.51
616.92	46604.75
617.07	46007.91
617.22	46412.82
617.37	46274.73
617.53	45984.51
617.68	46358.99
617.83	45977.48
617.99	46110.89
618.14	46459.63
618.29	46597.73
618.45	46445.59
618.60	46337.93
618.75	46138.98
618.90	46461.97
619.06	45984.51
619.21	46129.62
619.36	46548.57
619.51	46036.00
619.67	45825.35
619.82	45542.14
619.97	46115.58
620.12	45642.79
620.28	45801.94
620.43	45652.15
620.58	46061.74
620.73	46003.23
620.89	45722.37
621.04	45935.35
621.19	46028.98
621.34	46096.85
621.49	45595.98
621.65	45642.79
621.80	45715.34
621.95	45647.47
622.10	45907.27
622.25	45375.97
622.41	45263.62
622.56	46342.61
622.71	46071.10
622.86	45574.91
623.01	45626.40
623.16	45450.86
623.32	45226.17
623.47	45481.29
623.62	45319.79
623.77	45504.70
623.92	45118.51
624.07	45511.72
624.23	45565.55
624.38	45584.27
624.53	44842.32
624.68	45413.41
624.83	45368.94
624.98	45408.73
625.13	45057.65
625.29	45179.36
625.44	44844.66
625.59	44870.41
625.74	44783.81
625.89	44423.37
626.04	44907.86
626.19	44390.60
626.34	44959.35
626.49	44472.52
626.65	45003.82
626.80	44926.58
626.95	45083.40
627.10	44645.72
627.25	44957.01
627.40	44875.09
627.55	44388.26
627.70	44037.18
627.85	44311.02
628.00	44186.97
628.15	44872.75
628.30	44289.96
628.45	44493.58
628.60	44528.69
628.76	44498.26
628.91	44479.54
629.06	44474.86
629.21	44130.80
629.36	44701.89
629.51	44355.49
629.66	44268.89
629.81	44016.11
629.96	43573.75
630.11	43674.40
630.26	43976.33
630.41	44212.72
630.56	44144.84
630.71	44538.05
630.86	44088.67
631.01	44313.36
631.16	44142.50
631.31	43819.51
631.46	43995.05
631.61	43929.51
631.76	43585.46
631.91	43578.43
632.06	43756.32
632.21	43430.98
632.36	43634.61
632.51	43709.50
632.66	43983.35
632.81	43175.86
632.96	43856.96
633.10	43430.98
633.25	43826.53
633.40	43564.39
633.55	43894.41
633.70	43023.73
633.85	43049.47
634.00	43316.29
634.15	43576.09
634.30	43342.04
634.45	42902.02
634.60	42923.08
634.75	43477.79
634.90	43597.16
635.05	43468.43
635.19	42976.92
635.34	43503.54
635.49	43063.52
635.64	42834.14
635.79	43044.79
635.94	42932.45
636.09	42923.08
636.24	42698.39
636.39	42656.26
636.53	42852.87
636.68	42698.39
636.83	42738.18
636.98	43019.05
637.13	42988.62
637.28	43452.05
637.43	42887.98
637.57	42763.93
637.72	42703.07
637.87	43037.77
638.02	42827.12
638.17	42700.73
638.32	42195.18
638.46	42623.50
638.61	42520.51
638.76	42609.45
638.91	42174.11
639.06	42567.32
639.20	42572.00
639.35	42550.94
639.50	42705.41
639.65	42607.11
639.80	42300.50
639.94	41879.21
640.09	42387.10
640.24	42532.22
640.39	41797.29
640.54	41593.66
640.68	42436.25
640.83	41916.65
640.98	41528.13
641.13	41605.36
641.27	42155.39
641.42	41804.31
641.57	42171.77
641.72	42131.98
641.86	41890.91
642.01	41862.82
642.16	41797.29
642.31	41666.22
642.45	42188.16
642.60	41429.82
642.75	41443.87
642.90	41411.10
643.04	41497.70
643.19	41539.83
643.34	41659.20
643.48	41429.82
643.63	41862.82
643.78	42157.73
643.93	41668.56
644.07	41617.07
644.22	41558.55
644.37	41055.34
644.51	41734.09
644.66	41567.91
644.81	41062.36
644.95	41024.91
645.10	41076.40
645.25	41301.09
645.39	41539.83
645.54	41441.53
645.69	41385.35
645.83	41024.91
645.98	41771.54
646.13	41401.74
646.27	41584.30
646.42	40994.48
646.57	41354.93
646.71	41116.19
646.86	40921.93
647.00	41181.73
647.15	41420.46
647.30	40842.35
647.44	41359.61
647.59	40683.19
647.74	40980.44
647.88	40591.91
648.03	40594.25
648.17	40935.97
648.32	40926.61
648.47	40577.87
648.61	40800.22
648.76	41102.15
648.90	40643.40
649.05	40697.24
649.20	40985.12
649.34	40491.27
649.49	40472.54
649.63	40814.26
649.78	40566.16
649.92	40472.54
650.07	40730.00
650.21	40435.10
650.36	40708.94
650.51	40226.79
650.65	40685.53
650.80	40905.54
650.94	40479.57
651.09	40465.52
651.23	40203.38
651.38	40088.70
651.52	40292.32
651.67	39632.29
651.81	40222.11
651.96	39842.94
652.10	39959.97
652.25	40004.44
652.39	40116.78
652.54	40554.46
652.68	40044.23
652.83	40374.24
652.97	40240.83
653.12	40088.70
653.26	39388.88
653.41	39901.45
653.55	39545.69
653.70	40032.52
653.84	39730.59
653.99	39913.16
654.13	39763.36
654.27	39515.26
654.42	40414.03
654.56	39541.01
654.71	39761.02
654.85	39838.26
655.00	39601.86
655.14	39845.28
655.29	39358.45
655.43	39763.36
655.57	39297.59
655.72	39330.36
655.86	39480.16
656.01	38969.92
656.15	38913.75
656.30	39091.63
656.44	38944.17
656.58	38937.15
656.73	39253.12
656.87	39447.39
657.01	39428.66
657.16	39157.16
657.30	39007.37
657.45	38981.62
657.59	39386.54
657.73	38920.77
657.88	39075.24
658.02	38951.20
658.16	38813.10
658.31	39131.42
658.45	38815.44
658.60	38422.23
658.74	38637.56
658.88	38621.18
659.03	38422.23
659.17	38637.56
659.31	38513.52
659.46	38417.55
659.60	38447.98
659.74	38822.47
659.89	38471.39
660.03	38244.35
660.17	38880.98
660.32	38192.86
660.46	38150.73
660.60	38052.43
660.74	38101.58
660.89	38162.43
661.03	37675.60
661.17	37773.91
661.32	37965.83
661.46	37787.95
661.60	37823.06
661.74	37970.51
661.89	38199.88
662.03	37642.84
662.17	37617.09
662.31	38000.94
662.46	37771.57
662.60	37310.48
662.74	37542.19
662.88	37734.12
663.03	37376.01
663.17	37343.25
663.31	37017.91
663.45	37280.05
663.60	37254.31
663.74	36844.71
663.88	37291.76
664.02	37064.72
664.17	37200.47
664.31	37064.72
664.45	36744.07
664.59	36854.08
664.73	36877.48
664.88	36896.20
665.02	36264.26
665.16	36720.66
665.30	36479.59
665.44	36369.58
665.59	36423.42
665.73	36390.65
665.87	36254.90
666.01	36479.59
666.15	36781.52
666.29	36353.20
666.44	36662.15
666.58	36212.77
666.72	36051.27
666.86	36091.06
667.00	36238.51
667.14	35889.77
667.28	35683.81
667.43	35538.69
667.57	36065.31
667.71	36058.29
667.85	35651.04
667.99	35353.79
668.13	35356.13
668.27	35384.22
668.41	35716.58
668.56	35246.13
668.70	35592.53
668.84	35367.84
668.98	35309.32
669.12	34969.94
669.26	35236.77
669.40	35068.25
669.54	34796.74
669.68	35154.85
669.82	34965.26
669.96	34651.63
670.10	34595.46
670.25	34410.56
670.39	34518.22
670.53	34440.98
670.67	34059.48
670.81	34433.96
670.95	34780.36
671.09	34499.50
671.23	34239.70
671.37	34452.69
671.51	34604.82
671.65	34253.74
671.79	34043.09
671.93	33977.56
672.07	33848.83
672.21	33834.78
672.35	33626.48
672.49	33467.32
672.63	33748.18
672.77	33472.00
672.91	33642.86
673.05	33483.70
673.19	33446.26
673.33	33441.57
673.47	33528.17
673.61	33464.98
673.75	33523.49
673.89	33406.47
674.03	33041.34
674.17	32968.79
674.31	33008.58
674.45	32765.16
674.59	33165.39
674.73	33057.73
674.87	32577.92
675.01	32266.63
675.15	32313.44
675.29	32292.37
675.43	32641.11
675.56	32402.38
675.70	32643.45
675.84	32652.81
675.98	31536.38
676.12	31948.31
676.26	31690.85
676.40	32423.44
676.54	32505.36
676.68	32245.56
676.82	31372.54
676.96	31531.70
677.10	31709.58
677.23	31248.49
677.37	31143.17
677.51	30976.99
677.65	31234.45
677.79	30766.34
677.93	30946.56
678.07	30712.51
678.21	30450.37
678.34	30625.91
678.48	30480.80
678.62	30693.79
678.76	30213.98
678.90	30122.69
679.04	30342.70
679.18	30115.67
679.31	30019.71
679.45	29607.78
679.59	29724.80
679.73	29626.50
679.87	29619.48
680.00	29144.35
680.14	29205.20
680.28	29252.02
680.42	29294.14
680.56	29401.81
680.70	29268.40
680.83	28912.64
680.97	29186.48
681.11	29041.37
681.25	28886.89
681.39	29076.48
681.52	28636.45
681.66	28418.78
681.80	28477.30
681.94	28161.33
682.07	28425.81
682.21	28051.32
682.35	27922.59
682.49	28030.26
682.62	27894.50
682.76	27843.01
682.90	27763.43
683.04	28271.33
683.17	27679.18
683.31	27316.39
683.45	27756.41
683.59	27510.66
683.72	27440.44
683.86	27136.17
684.00	27180.64
684.13	27208.73
684.27	26916.16
684.41	26724.24
684.55	26801.47
684.68	26621.25
684.82	26625.93
684.96	26405.92
685.09	25989.31
685.23	26223.36
685.37	25944.84
685.50	26459.76
685.64	26190.59
685.78	26199.96
685.91	26115.70
686.05	26047.82
686.19	25818.45
686.32	25715.47
686.46	25436.94
686.60	25261.40
686.73	25357.36
686.87	25132.67
687.01	25443.96
687.14	25092.88
687.28	25071.82
687.42	24884.58
687.55	24577.97
687.69	24947.77
687.82	24971.18
687.96	24697.33
688.10	24505.41
688.23	24407.11
688.37	24402.43
688.50	24444.56
688.64	24531.15
688.78	24041.98
688.91	24123.90
689.05	24198.80
689.18	24109.86
689.32	23468.55
689.46	23536.43
689.59	23651.11
689.73	23770.48
689.86	23564.51
690.00	23552.81
690.13	23461.53
690.27	22984.06
690.41	23538.77
690.54	23166.62
690.68	23005.13
690.81	22995.76
690.95	23021.51
691.08	23115.13
691.22	22857.67
691.35	22696.17
691.49	22647.02
691.62	22457.44
691.76	22445.74
691.89	22167.21
692.03	21802.09
692.16	21956.57
692.30	21921.46
692.43	21869.97
692.57	21832.52
692.70	21839.54
692.84	21453.35
692.97	21553.99
693.11	21652.30
693.24	21404.20
693.38	21659.32
693.51	21317.60
693.65	21605.49
693.78	20828.43
693.92	21149.08
694.05	20961.84
694.19	21041.42
694.32	20685.65
694.45	20559.27
694.59	20636.50
694.72	20259.68
694.86	20060.73
694.99	20175.42
695.13	20367.34
695.26	20257.34
695.39	20046.69
695.53	20262.02
695.66	19793.91
695.80	19854.76
695.93	19817.32
696.07	19786.89
696.20	19660.50
696.33	19555.18
696.47	19562.20
696.60	19531.77
696.73	19290.70
696.87	19098.77
697.00	19440.49
697.14	18815.57
697.27	18827.27
697.40	18897.49
697.54	18761.73
697.67	18658.75
697.80	18326.39
697.94	18609.60
698.07	18192.98
698.21	18485.55
698.34	18633.00
698.47	18429.38
698.61	18052.55
698.74	18466.83
698.87	18249.16
699.01	18129.79
699.14	17865.31
699.27	17872.33
699.40	17942.55
699.54	17483.80
699.67	17317.62
699.80	17167.83
699.94	17465.08
700.07	17479.12
700.20	17095.27
700.34	17308.26
700.47	17043.78
700.60	17036.76
700.73	17247.41
700.87	16629.51
701.00	17076.55
701.13	16957.18
701.26	16798.02
701.40	16746.53
701.53	16531.20
701.66	16620.14
701.79	16594.40
701.93	16329.92
702.06	16271.40
702.19	16222.25
702.32	16203.53
702.46	16088.84
702.59	15770.53
702.72	15667.55
702.85	15641.80
702.99	15681.59
703.12	15704.99
703.25	15620.74
703.38	15335.19
703.51	15672.23
703.65	15484.98
703.78	15346.89
703.91	15183.06
704.04	15328.17
704.17	15286.04
704.31	15117.52
704.44	14665.80
704.57	14785.16
704.70	14941.98
704.83	14853.04
704.96	14792.19
705.10	14576.86
705.23	14661.12
>>>>>End Processed Spectral Data<<<<<
