SpectraSuite Data File
++++++++++++++++++++++++++++++++++++
Date: Fri Oct 04 11:39:15 GMT-05:00 2013
User: price-jones
Dark Spectrum Present: No
Reference Spectrum Present: No
Number of Sampled Component Spectra: 1
Spectrometers: USB2+H05261
Integration Time (usec): 100000 (USB2+H05261)
Spectra Averaged: 1 (USB2+H05261)
Boxcar Smoothing: 0 (USB2+H05261)
Correct for Electrical Dark: No (USB2+H05261)
Strobe/Lamp Enabled: No (USB2+H05261)
Correct for Detector Non-linearity: No (USB2+H05261)
Correct for Stray Light: No (USB2+H05261)
Number of Pixels in Processed Spectrum: 2048
>>>>>Begin Processed Spectral Data<<<<<
365.73	65.54
365.92	65.54
366.12	65.54
366.32	0.00
366.52	0.00
366.72	0.00
366.91	0.00
367.11	0.00
367.31	0.00
367.51	0.00
367.70	0.00
367.90	0.00
368.10	0.00
368.30	0.00
368.49	0.00
368.69	0.00
368.89	0.00
369.09	0.00
369.28	0.00
369.48	0.00
369.68	0.00
369.87	30.43
370.07	35.11
370.27	28.09
370.47	44.47
370.66	133.41
370.86	124.05
371.06	299.59
371.25	259.80
371.45	208.31
371.65	264.48
371.84	276.18
372.04	208.31
372.24	227.03
372.44	236.39
372.63	255.12
372.83	264.48
373.03	278.52
373.22	301.93
373.42	241.08
373.62	245.76
373.81	224.69
374.01	283.20
374.21	287.89
374.40	318.31
374.60	360.44
374.79	294.91
374.99	224.69
375.19	367.46
375.38	297.25
375.58	311.29
375.78	348.74
375.97	365.12
376.17	407.25
376.37	327.68
376.56	372.15
376.76	395.55
376.95	339.38
377.15	313.63
377.35	407.25
377.54	374.49
377.74	360.44
377.93	351.08
378.13	353.42
378.33	360.44
378.52	381.51
378.72	428.32
378.91	306.61
379.11	322.99
379.31	297.25
379.50	411.93
379.70	311.29
379.89	388.53
380.09	353.42
380.28	367.46
380.48	411.93
380.68	367.46
380.87	287.89
381.07	367.46
381.26	421.30
381.46	327.68
381.65	400.23
381.85	365.12
382.04	407.25
382.24	475.13
382.43	402.57
382.63	381.51
382.83	388.53
383.02	383.85
383.22	421.30
383.41	414.27
383.61	447.04
383.80	433.00
384.00	444.70
384.19	442.36
384.39	437.68
384.58	444.70
384.78	496.19
384.97	339.38
385.17	444.70
385.36	407.25
385.56	442.36
385.75	367.46
385.95	440.02
386.14	425.98
386.34	411.93
386.53	458.74
386.72	503.22
386.92	435.34
387.11	440.02
387.31	456.40
387.50	505.56
387.70	477.47
387.89	416.62
388.09	454.06
388.28	447.04
388.48	451.72
388.67	510.24
388.86	505.56
389.06	559.39
389.25	552.37
389.45	435.34
389.64	472.79
389.84	503.22
390.03	571.09
390.22	535.98
390.42	458.74
390.61	517.26
390.81	489.17
391.00	498.53
391.19	543.00
391.39	528.96
391.58	631.94
391.78	564.07
391.97	524.28
392.16	617.90
392.36	585.13
392.55	578.11
392.75	552.37
392.94	608.54
393.13	638.97
393.33	561.73
393.52	468.11
393.71	636.63
393.91	578.11
394.10	582.79
394.29	582.79
394.49	561.73
394.68	559.39
394.88	610.88
395.07	575.77
395.26	552.37
395.46	617.90
395.65	620.24
395.84	653.01
396.04	753.65
396.23	645.99
396.42	657.69
396.62	617.90
396.81	697.48
397.00	711.52
397.19	650.67
397.39	741.95
397.58	793.44
397.77	809.83
397.97	720.88
398.16	795.78
398.35	791.10
398.55	765.36
398.74	753.65
398.93	774.72
399.12	812.17
399.32	758.33
399.51	688.12
399.70	767.70
399.90	718.54
400.09	741.95
400.28	889.40
400.47	812.17
400.67	772.38
400.86	695.14
401.05	823.87
401.24	847.27
401.44	866.00
401.63	870.68
401.82	966.64
402.01	844.93
402.21	915.15
402.40	898.77
402.59	833.23
402.78	926.85
402.97	882.38
403.17	875.36
403.36	922.17
403.55	1050.90
403.74	938.55
403.93	968.98
404.13	1069.62
404.32	992.39
404.51	992.39
404.70	1062.60
404.89	947.92
405.09	1025.15
405.28	929.19
405.47	992.39
405.66	1032.18
405.85	1071.97
406.05	1036.86
406.24	1139.84
406.43	1071.97
406.62	1090.69
406.81	1177.29
407.00	1109.41
407.20	1081.33
407.39	1149.20
407.58	1121.12
407.77	1125.80
407.96	1212.40
408.15	1235.80
408.34	1158.57
408.54	1268.57
408.73	1137.50
408.92	1191.33
409.11	1249.85
409.30	1165.59
409.49	1373.89
409.68	1228.78
409.87	1254.53
410.07	1299.00
410.26	1350.49
410.45	1350.49
410.64	1373.89
410.83	1376.24
411.02	1371.55
411.21	1334.11
411.40	1369.21
411.59	1394.96
411.78	1336.45
411.98	1399.64
412.17	1439.43
412.36	1511.99
412.55	1509.65
412.74	1509.65
412.93	1434.75
413.12	1451.13
413.31	1610.29
413.50	1563.48
413.69	1612.63
413.88	1706.25
414.07	1610.29
414.26	1593.90
414.45	1633.69
414.64	1643.06
414.83	1689.87
415.02	1717.95
415.22	1654.76
415.41	1706.25
415.60	1643.06
415.79	1746.04
415.98	1764.76
416.17	1764.76
416.36	1736.68
416.55	1799.87
416.74	1900.52
416.93	1834.98
417.12	1732.00
417.31	1802.21
417.50	1776.47
417.69	1937.96
417.88	1989.46
418.07	1902.86
418.26	1937.96
418.45	2106.48
418.64	2099.46
418.83	2071.37
419.02	2003.50
419.21	2026.90
419.39	2069.03
419.58	1982.43
419.77	2010.52
419.96	2155.63
420.15	2155.63
420.34	2118.18
420.53	2085.42
420.72	2204.78
420.91	2211.81
421.10	2216.49
421.29	2307.77
421.48	2066.69
421.67	2172.02
421.86	2167.34
422.05	2174.36
422.24	2165.00
422.43	2162.66
422.61	2209.47
422.80	2202.44
422.99	2272.66
423.18	2193.08
423.37	2263.30
423.56	2303.09
423.75	2162.66
423.94	2265.64
424.13	2150.95
424.32	2174.36
424.50	2385.01
424.69	2427.14
424.88	2356.92
425.07	2326.49
425.26	2176.70
425.45	2244.57
425.64	2319.47
425.83	2239.89
426.01	2340.54
426.20	2260.96
426.39	2188.40
426.58	2366.28
426.77	2349.90
426.96	2340.54
427.15	2333.51
427.33	2406.07
427.52	2394.37
427.71	2429.48
427.90	2469.27
428.09	2356.92
428.28	2410.75
428.46	2443.52
428.65	2429.48
428.84	2499.69
429.03	2485.65
429.22	2492.67
429.40	2469.27
429.59	2525.44
429.78	2420.11
429.97	2450.54
430.16	2574.59
430.34	2516.08
430.53	2597.99
430.72	2579.27
430.91	2532.46
431.10	2551.18
431.28	2656.51
431.47	2829.71
431.66	2759.49
431.85	2579.27
432.03	2679.91
432.22	2773.53
432.41	2736.09
432.60	2640.12
432.79	2656.51
432.97	2729.06
433.16	2633.10
433.35	2825.03
433.54	2778.22
433.72	2820.35
433.91	2712.68
434.10	2850.77
434.28	2752.47
434.47	2944.39
434.66	2867.16
434.85	2883.54
435.03	3033.33
435.22	3082.49
435.41	3335.26
435.59	3375.05
435.78	3169.09
435.97	3087.17
436.16	3000.57
436.34	3030.99
436.53	2967.80
436.72	3023.97
436.90	2953.76
437.09	3021.63
437.28	2935.03
437.46	3009.93
437.65	3061.42
437.84	2995.89
438.02	3066.10
438.21	3047.38
438.40	3159.72
438.58	3204.19
438.77	3192.49
438.96	3286.11
439.14	3293.13
439.33	3361.01
439.52	3234.62
439.70	3248.66
439.89	3435.91
440.08	3459.31
440.26	3466.33
440.45	3379.73
440.63	3548.25
440.82	3545.91
441.01	3456.97
441.19	3412.50
441.38	3557.61
441.57	3662.94
441.75	3583.36
441.94	3740.18
442.12	3698.05
442.31	3676.98
442.50	3747.20
442.68	3691.02
442.87	3686.34
443.05	3719.11
443.24	3728.47
443.43	3824.44
443.61	3918.06
443.80	3819.75
443.98	3665.28
444.17	3662.94
444.35	3850.18
444.54	3831.46
444.73	3801.03
444.91	3740.18
445.10	3817.41
445.28	3838.48
445.47	3847.84
445.65	3730.81
445.84	3939.12
446.02	3967.21
446.21	3824.44
446.39	3922.74
446.58	3894.65
446.77	3796.35
446.95	3838.48
447.14	3948.48
447.32	3808.05
447.51	3871.25
447.69	4088.92
447.88	3894.65
448.06	3871.25
448.25	3836.14
448.43	3838.48
448.62	3899.33
448.80	3896.99
448.99	3964.87
449.17	3974.23
449.36	4095.94
449.54	4147.43
449.73	4198.92
449.91	4191.90
450.10	4131.05
450.28	4166.15
450.46	4131.05
450.65	4278.50
450.83	4175.52
451.02	4081.89
451.20	4025.72
451.39	4241.05
451.57	4035.08
451.76	4079.55
451.94	4194.24
452.13	4283.18
452.31	4308.93
452.49	4241.05
452.68	4264.46
452.86	4376.80
453.05	4294.88
453.23	4388.50
453.42	4234.03
453.60	4241.05
453.78	4404.89
453.97	4308.93
454.15	4332.33
454.34	4353.40
454.52	4552.34
454.70	4440.00
454.89	4414.25
455.07	4484.47
455.26	4484.47
455.44	4601.49
455.62	4606.17
455.81	4496.17
455.99	4507.87
456.17	4699.80
456.36	4601.49
456.54	4669.37
456.73	4615.54
456.91	4765.33
457.09	4610.86
457.28	4840.23
457.46	4751.29
457.64	4681.07
457.83	4821.50
458.01	4692.77
458.19	4905.76
458.38	4830.87
458.56	4954.91
458.74	4833.21
458.93	4980.66
459.11	5039.17
459.29	4739.58
459.48	4961.94
459.66	4968.96
459.84	5050.88
460.03	5174.92
460.21	4947.89
460.39	4975.98
460.57	4971.30
460.76	5102.37
460.94	5174.92
461.12	5064.92
461.31	5083.64
461.49	5053.22
461.67	5069.60
461.85	5364.51
462.04	5123.43
462.22	5240.46
462.40	5167.90
462.59	5188.97
462.77	5252.16
462.95	5352.81
463.13	5214.71
463.32	5298.97
463.50	5282.59
463.68	5350.46
463.86	5277.91
464.05	5221.74
464.23	5313.02
464.41	5444.09
464.59	5301.31
464.78	5458.13
464.96	5437.06
465.14	5322.38
465.32	5467.49
465.50	5526.00
465.69	5462.81
465.87	5521.32
466.05	5518.98
466.23	5479.19
466.41	5523.66
466.60	5650.05
466.78	5575.16
466.96	5579.84
467.14	5600.90
467.32	5696.86
467.51	5640.69
467.69	5668.78
467.87	5720.27
468.05	5549.41
468.23	5851.34
468.41	5568.13
468.60	5792.83
468.78	5834.96
468.96	5673.46
469.14	5834.96
469.32	5858.36
469.50	5607.92
469.69	5949.64
469.87	5987.09
470.05	6015.18
470.23	6108.80
470.41	5919.21
470.59	6057.31
470.77	6008.16
470.95	6012.84
471.14	6214.12
471.32	5928.58
471.50	6279.66
471.68	6249.23
471.86	6218.80
472.04	6094.76
472.22	6523.07
472.40	6204.76
472.58	6342.85
472.77	6392.00
472.95	6375.62
473.13	6595.63
473.31	6448.18
473.49	6448.18
473.67	6445.84
473.85	6328.81
474.03	6614.35
474.21	6621.38
474.39	6464.56
474.57	6602.65
474.75	6825.00
474.93	6785.21
475.12	6752.45
475.30	6740.74
475.48	6661.16
475.66	6930.33
475.84	6920.96
476.02	7014.59
476.20	6920.96
476.38	7059.06
476.56	7180.76
476.74	7218.21
476.92	7169.06
477.10	7276.73
477.28	7096.50
477.46	7351.62
477.64	7363.33
477.82	7454.61
478.00	7693.34
478.18	7583.34
478.36	7599.72
478.54	7887.61
478.72	7613.76
478.90	7988.25
479.08	7985.91
479.26	8116.98
479.44	7918.03
479.62	8053.78
479.80	8187.19
479.98	8243.37
480.16	8226.98
480.34	8084.21
480.52	8355.71
480.70	8519.55
480.88	8341.67
481.06	8486.78
481.24	8512.53
481.41	8575.72
481.59	8774.67
481.77	8847.22
481.95	8891.70
482.13	8868.29
482.31	8720.84
482.49	9006.38
482.67	9006.38
482.85	9064.89
483.03	9181.92
483.21	9441.72
483.39	9296.61
483.57	9142.13
483.74	9483.85
483.92	9441.72
484.10	9544.70
484.28	9633.64
484.46	9900.47
484.64	10249.21
484.82	9947.28
485.00	10239.84
485.18	10118.14
485.35	10286.65
485.53	10153.24
485.71	10345.17
485.89	10455.17
486.07	10410.70
486.25	10523.05
486.43	10628.37
486.61	10626.03
486.78	10740.72
486.96	10766.46
487.14	10824.98
487.32	11190.10
487.50	10956.05
487.68	10888.17
487.85	11239.25
488.03	11468.62
488.21	11414.79
488.39	11428.84
488.57	11730.76
488.75	11641.82
488.92	12100.57
489.10	11957.80
489.28	12032.69
489.46	12201.21
489.64	12210.57
489.81	12383.77
489.99	12285.47
490.17	12449.31
490.35	12638.89
490.53	12645.91
490.70	12816.77
490.88	12655.28
491.06	13050.83
491.24	12891.67
491.41	12732.51
491.59	13053.17
491.77	13132.75
491.95	13362.12
492.13	13380.84
492.30	13186.58
492.48	13142.11
492.66	13502.55
492.84	13359.78
493.01	13729.58
493.19	13743.63
493.37	13888.74
493.54	13963.64
493.72	14047.90
493.90	13956.61
494.08	14185.99
494.25	14298.33
494.43	14270.25
494.61	14450.47
494.79	14384.93
494.96	14534.73
495.14	14586.22
495.32	14817.93
495.49	14834.32
495.67	15194.76
495.85	14839.00
496.02	15007.52
496.20	15288.38
496.38	15213.48
496.55	15318.81
496.73	15831.38
496.91	15463.92
497.09	15735.42
497.26	15597.33
497.44	15658.18
497.62	15515.41
497.79	15683.93
497.97	15793.94
498.14	15941.39
498.32	16161.40
498.50	16189.49
498.67	16159.06
498.85	16046.71
499.03	16170.76
499.20	16222.25
499.38	16465.67
499.56	16353.32
499.73	16741.85
499.91	16879.94
500.08	16332.26
500.26	16840.15
500.44	16931.44
500.61	16814.41
500.79	16875.26
500.97	16945.48
501.14	17214.64
501.32	17132.72
501.49	17216.98
501.67	17338.69
501.84	17282.52
502.02	17231.02
502.20	17324.65
502.37	17645.30
502.55	17392.52
502.72	17668.70
502.90	17554.02
503.07	17493.16
503.25	17689.77
503.43	17570.40
503.60	17944.89
503.78	17837.22
503.95	17879.35
504.13	18012.76
504.30	18239.79
504.48	18286.61
504.65	18445.76
504.83	18389.59
505.01	18581.51
505.18	18544.06
505.36	18602.58
505.53	18553.43
505.71	18925.57
505.88	18731.31
506.06	18703.22
506.23	18740.67
506.41	18733.65
506.58	19321.12
506.76	19087.07
506.93	19009.83
507.11	18902.17
507.28	19391.34
507.46	19087.07
507.63	19154.94
507.81	19328.14
507.98	19269.63
508.16	19255.59
508.33	19351.55
508.50	19618.37
508.68	19716.67
508.85	19440.49
509.03	19669.86
509.20	19594.96
509.38	20030.30
509.55	19887.53
509.73	20252.66
509.90	20257.34
510.08	20126.27
510.25	19826.68
510.42	20280.74
510.60	20313.51
510.77	20383.73
510.95	20538.20
511.12	20189.46
511.30	20313.51
511.47	20451.60
511.64	20737.15
511.82	20898.64
511.99	20802.68
512.17	20847.15
512.34	20680.97
512.51	21008.65
512.69	21394.84
512.86	21303.56
513.04	21050.78
513.21	21233.34
513.38	21682.72
513.56	20950.14
513.73	21392.50
513.90	21177.17
514.08	21104.61
514.25	21366.75
514.43	21474.42
514.60	21551.65
514.77	21914.44
514.95	21867.63
515.12	21666.34
515.29	21528.25
515.47	21699.11
515.64	22024.44
515.81	21748.26
515.99	21795.07
516.16	22118.06
516.33	22450.42
516.51	22251.47
516.68	22223.39
516.85	21972.95
517.03	22204.66
517.20	22469.14
517.37	22368.50
517.54	22609.58
517.72	22391.91
517.89	23023.85
518.06	22544.04
518.24	22618.94
518.41	22473.82
518.58	22937.25
518.75	22466.80
518.93	22757.03
519.10	22970.02
519.27	23009.81
519.45	22773.41
519.62	22717.24
519.79	22778.09
519.96	22867.03
520.14	23208.75
520.31	23000.44
520.48	23239.18
520.65	23360.89
520.83	23550.47
521.00	23580.90
521.17	23323.44
521.34	23871.12
521.52	23211.09
521.69	23536.43
521.86	23676.86
522.03	23648.77
522.20	23859.42
522.38	23646.43
522.55	23920.28
522.72	23882.83
522.89	24189.44
523.07	24451.58
523.24	24283.06
523.41	24149.65
523.58	23861.76
523.75	24376.68
523.92	24144.97
524.10	24217.52
524.27	24278.38
524.44	24552.22
524.61	24706.70
524.78	24514.77
524.96	24418.81
525.13	24397.74
525.30	24634.14
525.47	24547.54
525.64	24893.94
525.81	24907.98
525.98	24982.88
526.16	24795.64
526.33	24559.24
526.50	24800.32
526.67	24812.02
526.84	25001.60
527.01	25020.33
527.18	25301.19
527.36	25177.14
527.53	25158.42
527.70	25408.86
527.87	25769.30
528.04	25460.35
528.21	25287.15
528.38	25088.20
528.55	25638.23
528.72	25806.75
528.89	25785.68
529.07	25708.44
529.24	25563.33
529.41	25553.97
529.58	25795.04
529.75	25322.26
529.92	25769.30
530.09	25788.02
530.26	25661.63
530.43	26183.57
530.60	25965.90
530.77	26251.45
530.94	26359.11
531.11	26249.11
531.28	25853.56
531.46	25853.56
531.63	26120.38
531.80	26211.66
531.97	26260.81
532.14	26319.32
532.31	26211.66
532.48	26335.71
532.65	26412.95
532.82	26347.41
532.99	26881.05
533.16	26164.85
533.33	26672.74
533.50	26881.05
533.67	27019.14
533.84	26316.98
534.01	26621.25
534.18	26345.07
534.35	26838.92
534.52	26569.76
534.69	26757.00
534.86	26771.05
535.03	26960.63
535.20	27033.19
535.37	27290.65
535.54	27112.77
535.71	27178.30
535.88	27035.53
536.05	26946.59
536.22	27356.18
536.38	26937.23
536.55	27175.96
536.72	27414.69
536.89	27257.88
537.06	27449.80
537.23	27391.29
537.40	27431.08
537.57	27166.60
537.74	27297.67
537.91	27833.65
538.08	27737.69
538.25	27686.20
538.42	27892.16
538.59	28233.88
538.75	27604.28
538.92	27683.86
539.09	27814.93
539.26	28046.64
539.43	27864.08
539.60	27922.59
539.77	28493.68
539.94	27967.06
540.11	27971.74
540.28	28329.84
540.44	28451.55
540.61	28247.93
540.78	28116.86
540.95	28561.56
541.12	28774.55
541.29	28414.10
541.46	28673.90
541.62	28428.15
541.79	28683.27
541.96	28477.30
542.13	28524.11
542.30	28505.38
542.47	28966.47
542.63	29006.26
542.80	28914.98
542.97	28947.75
543.14	29223.93
543.31	29294.14
543.48	29032.00
543.64	29275.42
543.81	29507.13
543.98	29605.44
544.15	29355.00
544.32	29586.71
544.48	29383.09
544.65	29287.12
544.82	29329.25
544.99	29336.27
545.16	29476.71
545.32	29425.22
545.49	29823.11
545.66	30274.83
545.83	29722.46
546.00	30082.91
546.16	30031.41
546.33	29392.45
546.50	29340.96
546.67	29422.87
546.83	29362.02
547.00	29366.70
547.17	29694.38
547.34	29654.59
547.50	29694.38
547.67	29867.58
547.84	29560.97
548.00	30108.65
548.17	30082.91
548.34	29890.98
548.51	30080.56
548.67	29893.32
548.84	30412.92
549.01	30003.33
549.18	29715.44
549.34	30120.35
549.51	30171.85
549.68	29949.50
549.84	30221.00
550.01	30204.61
550.18	29944.81
550.34	30272.49
550.51	29860.55
550.68	30181.21
550.84	30017.37
551.01	30213.98
551.18	30022.05
551.34	29811.40
551.51	30160.14
551.68	29722.46
551.84	30291.21
552.01	29954.18
552.18	30813.15
552.34	30319.30
552.51	30497.18
552.68	30204.61
552.84	30136.74
553.01	30588.46
553.18	30003.33
553.34	30745.28
553.51	30445.69
553.67	30567.40
553.84	31262.54
554.01	31012.10
554.17	30593.14
554.34	30843.58
554.51	30455.05
554.67	30483.14
554.84	30581.44
555.00	30625.91
555.17	30705.49
555.33	30639.95
555.50	30876.35
555.67	31136.15
555.83	30885.71
556.00	30768.68
556.16	31330.41
556.33	30895.07
556.50	30899.75
556.66	31103.38
556.83	31194.66
556.99	31070.61
557.16	31307.01
557.32	31494.25
557.49	31262.54
557.65	30967.63
557.82	31267.22
557.98	30569.74
558.15	30836.56
558.32	31012.10
558.48	30946.56
558.65	31096.36
558.81	31599.57
558.98	31335.09
559.14	31271.90
559.31	30958.27
559.47	31353.82
559.64	31297.64
559.80	31573.83
559.97	31232.11
560.13	31433.39
560.30	31330.41
560.46	31709.58
560.63	31400.63
560.79	31281.26
560.96	31728.30
561.12	31463.82
561.29	31332.75
561.45	31215.72
561.61	31782.13
561.78	31370.20
561.94	31431.05
562.11	31674.47
562.27	31817.24
562.44	31360.84
562.60	31405.31
562.77	31601.91
562.93	31899.16
563.10	31821.92
563.26	31283.60
563.42	31845.33
563.59	31789.16
563.75	31435.74
563.92	32016.19
564.08	31328.07
564.24	31955.33
564.41	32018.53
564.57	31545.74
564.74	31798.52
564.90	32044.27
565.07	32140.24
565.23	31756.39
565.39	31637.02
565.56	32013.85
565.72	31840.65
565.88	32210.45
566.05	31740.00
566.21	31899.16
566.38	31601.91
566.54	31931.93
566.70	32093.43
566.87	32254.92
567.03	31957.67
567.19	32107.47
567.36	32208.11
567.52	31747.03
567.68	31690.85
567.85	31662.77
568.01	31896.82
568.17	31861.71
568.34	32451.53
568.50	32060.66
568.66	32130.87
568.83	32175.34
568.99	32222.16
569.15	32133.21
569.32	32161.30
569.48	32055.98
569.64	32180.03
569.81	32336.84
569.97	32063.00
570.13	32477.27
570.30	32027.89
570.46	32374.29
570.62	32779.20
570.78	31866.39
570.95	32067.68
571.11	32320.46
571.27	32084.06
571.43	31889.80
571.60	32353.23
571.76	32439.82
571.92	32425.78
572.09	32498.34
572.25	32432.80
572.41	32247.90
572.57	32119.17
572.74	32037.25
572.90	32360.25
573.06	32327.48
573.22	32517.06
573.38	32350.88
573.55	32334.50
573.71	32608.34
573.87	32833.04
574.03	32112.15
574.20	32582.60
574.36	32488.98
574.52	32549.83
574.68	32465.57
574.84	32451.53
575.01	32575.58
575.17	32833.04
575.33	32100.45
575.49	32540.47
575.65	32542.81
575.82	32381.31
575.98	32460.89
576.14	32720.69
576.30	32486.64
576.46	32680.90
576.62	32151.94
576.79	32730.05
576.95	32538.13
577.11	32189.39
577.27	32521.74
577.43	32716.01
577.59	32357.91
577.75	32678.56
577.92	32421.10
578.08	32554.51
578.24	32334.50
578.40	32758.14
578.56	32741.75
578.72	32500.68
578.88	32772.18
579.04	32470.25
579.21	32627.07
579.37	33273.06
579.53	32376.63
579.69	32353.23
579.85	32704.31
580.01	32584.94
580.17	32414.08
580.33	32826.01
580.49	32549.83
580.65	33235.61
580.82	33195.82
580.98	32734.73
581.14	32512.38
581.30	33062.41
581.46	32826.01
581.62	32795.59
581.78	32952.40
581.94	33244.97
582.10	32573.24
582.26	32720.69
582.42	33181.77
582.58	32877.51
582.74	32481.95
582.90	32877.51
583.06	32781.54
583.22	32711.33
583.38	32818.99
583.54	32900.91
583.70	32685.58
583.86	32931.34
584.02	32629.41
584.18	32961.76
584.34	33013.26
584.50	32950.06
584.66	32886.87
584.82	32247.90
584.98	33003.89
585.14	33046.02
585.30	32638.77
585.46	32811.97
585.62	32584.94
585.78	32959.42
585.94	32573.24
586.10	33003.89
586.26	32891.55
586.42	32818.99
586.58	33237.95
586.74	32802.61
586.90	32500.68
587.06	32472.59
587.22	32566.21
587.38	32491.32
587.54	33106.88
587.70	33397.10
587.86	33010.92
588.02	32680.90
588.18	33167.73
588.34	32818.99
588.49	33219.22
588.65	33214.54
588.81	32624.73
588.97	32797.93
589.13	32968.79
589.29	32905.59
589.45	33371.36
589.61	33017.94
589.77	33362.00
589.93	33539.88
590.08	33020.28
590.24	32891.55
590.40	33001.55
590.56	33567.96
590.72	33111.56
590.88	33088.15
591.04	33015.60
591.20	33322.21
591.35	32797.93
591.51	33635.84
591.67	33254.33
591.83	33472.00
591.99	33113.90
592.15	33322.21
592.31	33422.85
592.46	32842.40
592.62	32807.29
592.78	32741.75
592.94	32837.72
593.10	32989.85
593.26	33376.04
593.41	33244.97
593.57	33207.52
593.73	33401.79
593.89	33373.70
594.05	33099.86
594.20	32910.27
594.36	33048.36
594.52	32781.54
594.68	33242.63
594.84	33029.64
594.99	33446.26
595.15	33593.71
595.31	33511.79
595.47	33277.74
595.62	33322.21
595.78	33544.56
595.94	33310.50
596.10	33385.40
596.25	33411.15
596.41	32987.51
596.57	33053.05
596.73	33233.27
596.88	33303.48
597.04	33429.87
597.20	33116.24
597.36	33591.37
597.51	33181.77
597.67	33095.18
597.83	33572.64
597.99	33324.55
598.14	33654.56
598.30	33120.92
598.46	33429.87
598.61	33713.08
598.77	33940.11
598.93	33497.75
599.09	33509.45
599.24	33729.46
599.40	33450.94
599.56	33347.95
599.71	33275.40
599.87	33212.20
600.03	33141.99
600.18	33226.24
600.34	33031.98
600.50	32875.16
600.65	32980.49
600.81	33172.41
600.97	33586.69
601.12	33809.04
601.28	33574.98
601.44	33420.51
601.59	33577.33
601.75	33544.56
601.91	33862.87
602.06	33216.88
602.22	33345.61
602.37	33074.11
602.53	33586.69
602.69	33523.49
602.84	33233.27
603.00	33282.42
603.16	33460.30
603.31	33619.46
603.47	33820.74
603.62	33347.95
603.78	33584.35
603.94	33472.00
604.09	33268.37
604.25	33439.23
604.40	33034.32
604.56	33254.33
604.71	33633.50
604.87	33256.67
605.03	33425.19
605.18	33586.69
605.34	33141.99
605.49	33275.40
605.65	33383.06
605.80	33109.22
605.96	33380.72
606.12	33434.55
606.27	33577.33
606.43	33118.58
606.58	33331.57
606.74	33298.80
606.89	33404.13
607.05	33631.16
607.20	33322.21
607.36	33254.33
607.51	33507.11
607.67	33111.56
607.82	33298.80
607.98	32931.34
608.13	33511.79
608.29	33394.76
608.44	32947.72
608.60	33303.48
608.75	33408.81
608.91	33153.69
609.06	33191.14
609.22	33518.81
609.37	33472.00
609.53	33088.15
609.68	32910.27
609.84	32830.69
609.99	33610.09
610.15	32992.19
610.30	33434.55
610.46	33462.64
610.61	33397.10
610.76	33617.11
610.92	33795.00
611.07	33912.02
611.23	33472.00
611.38	33703.71
611.54	33631.16
611.69	33113.90
611.84	33315.19
612.00	33785.63
612.15	33109.22
612.31	33120.92
612.46	33167.73
612.62	33158.37
612.77	33233.27
612.92	33371.36
613.08	33294.12
613.23	33064.75
613.39	32751.12
613.54	32837.72
613.69	32760.48
613.85	32774.52
614.00	32699.62
614.15	32910.27
614.31	32826.01
614.46	33216.88
614.62	33031.98
614.77	32786.22
614.92	32570.90
615.08	32847.08
615.23	32573.24
615.38	32439.82
615.54	32385.99
615.69	32512.38
615.84	32034.91
616.00	32301.73
616.15	32229.18
616.30	32566.21
616.46	32233.86
616.61	32924.32
616.76	32870.48
616.92	32229.18
617.07	32439.82
617.22	32388.33
617.37	32170.66
617.53	32533.45
617.68	32517.06
617.83	32287.69
617.99	32222.16
618.14	32376.63
618.29	32364.93
618.45	32680.90
618.60	32446.85
618.75	32353.23
618.90	32488.98
619.06	31812.56
619.21	32425.78
619.36	32444.51
619.51	31852.35
619.67	32121.51
619.82	32011.51
619.97	32327.48
620.12	32168.32
620.28	32187.05
620.43	32449.19
620.58	32407.06
620.73	32128.53
620.89	32458.55
621.04	32442.17
621.19	31997.46
621.34	32055.98
621.49	31805.54
621.65	32336.84
621.80	32102.79
621.95	31833.63
622.10	32570.90
622.25	31894.48
622.41	32198.75
622.56	32046.62
622.71	32322.80
622.86	31873.42
623.01	31875.76
623.16	31927.25
623.32	31775.11
623.47	31512.97
623.62	31571.49
623.77	31864.05
623.92	31608.93
624.07	31662.77
624.23	31894.48
624.38	31819.58
624.53	31669.79
624.68	31983.42
624.83	32107.47
624.98	31800.86
625.13	31639.36
625.29	31454.46
625.44	31751.71
625.59	31646.38
625.74	31761.07
625.89	31681.49
626.04	31489.57
626.19	31433.39
626.34	31288.28
626.49	31314.03
626.65	31442.76
626.80	31800.86
626.95	30991.03
627.10	31182.96
627.25	31096.36
627.40	31421.69
627.55	31255.51
627.70	31070.61
627.85	31445.10
628.00	31194.66
628.15	31211.04
628.30	31384.24
628.45	31105.72
628.60	31009.76
628.76	30789.75
628.91	31096.36
629.06	30778.04
629.21	30686.76
629.36	30714.85
629.51	30960.61
629.66	30822.51
629.81	31061.25
629.96	31143.17
630.11	30855.28
630.26	30892.73
630.41	30941.88
630.56	30785.07
630.71	31391.26
630.86	30773.36
631.01	30946.56
631.16	31133.81
631.31	30551.01
631.46	30536.97
631.61	30946.56
631.76	30822.51
631.91	30628.25
632.06	30515.90
632.21	30726.55
632.36	30859.96
632.51	30560.37
632.66	30916.14
632.81	31005.08
632.96	31150.19
633.10	30848.26
633.25	30270.15
633.40	30476.12
633.55	30773.36
633.70	30260.79
633.85	30616.55
634.00	30162.48
634.15	30689.10
634.30	30256.11
634.45	30661.02
634.60	30735.92
634.75	30309.94
634.90	30735.92
635.05	31023.80
635.19	30281.85
635.34	30670.38
635.49	30110.99
635.64	30555.69
635.79	30024.39
635.94	29958.86
636.09	30022.05
636.24	30071.20
636.39	29851.19
636.53	30068.86
636.68	29890.98
636.83	30054.82
636.98	30295.89
637.13	30146.10
637.28	30265.47
637.43	30183.55
637.57	30178.87
637.72	29853.53
637.87	30188.23
638.02	30232.70
638.17	30073.54
638.32	29762.25
638.46	29809.06
638.61	30209.29
638.76	29563.31
638.91	29879.28
639.06	29851.19
639.20	29811.40
639.35	30246.74
639.50	29790.34
639.65	29677.99
639.80	30150.78
639.94	29717.78
640.09	29813.74
640.24	29738.85
640.39	29399.47
640.54	29118.60
640.68	29434.58
640.83	29312.87
640.98	29120.95
641.13	29397.13
641.27	29659.27
641.42	29282.44
641.57	29483.73
641.72	29755.23
641.86	29343.30
642.01	28950.09
642.16	29273.08
642.31	28989.88
642.45	29820.77
642.60	29174.78
642.75	29074.13
642.90	28996.90
643.04	29015.62
643.19	29092.86
643.34	29551.60
643.48	28849.44
643.63	28786.25
643.78	29282.44
643.93	29188.82
644.07	29235.63
644.22	28718.37
644.37	29146.69
644.51	29504.79
644.66	29488.41
644.81	28957.11
644.95	29235.63
645.10	28835.40
645.25	28959.45
645.39	29006.26
645.54	29383.09
645.69	29041.37
645.83	28996.90
645.98	29223.93
646.13	29326.91
646.27	29450.96
646.42	29048.39
646.57	29282.44
646.71	28765.18
646.86	28769.86
647.00	29111.58
647.15	28802.63
647.30	28786.25
647.44	28840.08
647.59	28599.01
647.74	28594.32
647.88	28713.69
648.03	29055.41
648.17	29020.30
648.32	28797.95
648.47	28893.91
648.61	28748.80
648.76	28636.45
648.90	28690.29
649.05	28517.09
649.20	28606.03
649.34	28409.42
649.49	28432.83
649.63	28238.56
649.78	28329.84
649.92	28521.77
650.07	28458.57
650.21	28121.54
650.36	28706.67
650.51	28154.30
650.65	28428.15
650.80	28727.74
650.94	28716.03
651.09	28287.71
651.23	28350.91
651.38	28503.04
651.52	29041.37
651.67	28311.12
651.81	28299.42
651.96	28280.69
652.10	28718.37
652.25	28128.56
652.39	27915.57
652.54	27964.72
652.68	27843.01
652.83	28327.50
652.97	28563.90
653.12	28208.14
653.26	28266.65
653.41	28224.52
653.55	27941.32
653.70	27843.01
653.84	27690.88
653.99	27915.57
654.13	28276.01
654.27	28180.05
654.42	28315.80
654.56	28121.54
654.71	27885.14
654.85	27538.74
655.00	28257.29
655.14	27950.68
655.29	27882.80
655.43	27922.59
655.57	27850.03
655.72	27854.72
655.86	27587.89
656.01	27716.62
656.15	27608.96
656.30	27665.13
656.44	27328.10
656.58	27372.57
656.73	27807.90
656.87	27777.48
657.01	27922.59
657.16	28217.50
657.30	27711.94
657.45	27803.22
657.59	27718.96
657.73	27402.99
657.88	27456.82
658.02	27260.22
658.16	27164.26
658.31	27241.50
658.45	27613.64
658.60	27587.89
658.74	26958.29
658.88	27215.75
659.03	26998.08
659.17	27700.24
659.31	27513.00
659.46	27353.84
659.60	27381.93
659.74	27541.08
659.89	27318.73
660.03	27075.32
660.17	27150.21
660.32	26764.03
660.46	26843.60
660.60	26927.86
660.74	26941.91
660.89	26712.53
661.03	26675.09
661.17	27241.50
661.32	26934.88
661.46	26909.14
661.60	26663.38
661.74	26572.10
661.89	26946.59
662.03	26871.69
662.17	26850.63
662.31	26672.74
662.46	26864.67
662.60	26581.46
662.74	26558.06
662.88	26228.04
663.03	26600.19
663.17	26621.25
663.31	26382.52
663.45	26338.05
663.60	26115.70
663.74	25949.52
663.88	26094.63
664.02	26160.17
664.17	26314.64
664.31	25923.77
664.45	26375.50
664.59	26485.50
664.73	26403.58
664.88	26457.42
665.02	26008.03
665.16	26211.66
665.30	25603.12
665.44	26274.85
665.59	25935.48
665.73	25991.65
665.87	25766.96
666.01	25816.11
666.15	25750.57
666.29	25755.26
666.44	25986.97
666.58	25958.88
666.72	25652.27
666.86	25717.81
667.00	25317.57
667.14	25357.36
667.28	25275.45
667.43	25465.03
667.57	25579.71
667.71	25034.37
667.85	25432.26
667.99	25219.27
668.13	25378.43
668.27	25252.04
668.41	25193.53
668.56	24748.82
668.70	25043.73
668.84	25135.01
668.98	25352.68
669.12	25207.57
669.26	24931.39
669.40	25017.99
669.54	24900.96
669.68	25333.96
669.82	25170.12
669.96	24781.59
670.10	24961.81
670.25	24783.93
670.39	24671.59
670.53	24491.37
670.67	24196.46
670.81	24727.76
670.95	24828.40
671.09	24482.00
671.23	24407.11
671.37	24634.14
671.51	24739.46
671.65	24826.06
671.79	24327.53
671.93	24746.48
672.07	24198.80
672.21	24016.24
672.35	23653.45
672.49	23812.61
672.63	24046.66
672.77	23833.68
672.91	24079.43
673.05	23805.59
673.19	24163.69
673.33	23695.58
673.47	24130.92
673.61	23454.51
673.75	23550.47
673.89	23658.14
674.03	24065.39
674.17	23477.91
674.31	23536.43
674.45	23297.69
674.59	23400.68
674.73	23597.28
674.87	23115.13
675.01	23131.51
675.15	23157.26
675.29	23192.37
675.43	22955.97
675.56	22803.84
675.70	23108.11
675.84	23150.24
675.98	22630.64
676.12	22838.95
676.26	23035.55
676.40	22576.81
676.54	22693.83
676.68	22499.57
676.82	21748.26
676.96	22747.67
677.10	22483.19
677.23	22441.06
677.37	22267.86
677.51	22412.97
677.65	22099.34
677.79	22153.17
677.93	21837.20
678.07	22029.12
678.21	22148.49
678.34	21671.02
678.48	21596.12
678.62	21752.94
678.76	21544.63
678.90	21584.42
679.04	21420.58
679.18	21539.95
679.31	21420.58
679.45	21263.77
679.59	20669.27
679.73	21256.75
679.87	21135.04
680.00	20996.95
680.14	21142.06
680.28	21231.00
680.42	21081.21
680.56	21025.03
680.70	20793.32
680.83	20884.60
680.97	20437.56
681.11	20585.01
681.25	20442.24
681.39	20673.95
681.52	20599.05
681.66	20535.86
681.80	20615.44
681.94	20432.88
682.07	20601.40
682.21	20039.67
682.35	20053.71
682.49	19936.68
682.62	20156.69
682.76	20166.06
682.90	20098.18
683.04	19969.45
683.17	20231.59
683.31	20231.59
683.45	20067.75
683.59	19857.10
683.72	19681.56
683.86	19782.21
684.00	19379.64
684.13	19417.08
684.27	19124.52
684.41	19325.80
684.55	18948.98
684.68	18796.84
684.82	18906.85
684.96	18853.02
685.09	18733.65
685.23	18637.69
685.37	18656.41
685.50	18628.32
685.64	18803.86
685.78	18546.40
685.91	18691.52
686.05	18298.31
686.19	18445.76
686.32	18663.43
686.46	18169.58
686.60	18427.04
686.73	18427.04
686.87	18036.17
687.01	18331.08
687.14	18295.97
687.28	18015.10
687.42	17867.65
687.55	17469.76
687.69	17502.53
687.82	17593.81
687.96	18099.36
688.10	17928.50
688.23	17797.43
688.37	17635.94
688.50	17696.79
688.64	17525.93
688.78	17556.36
688.91	17270.81
689.05	17245.07
689.18	16877.60
689.32	16961.86
689.46	16800.37
689.59	16954.84
689.73	17055.48
689.86	16746.53
690.00	16889.31
690.13	16982.93
690.27	16526.52
690.41	16734.83
690.54	16460.99
690.68	16580.36
690.81	16758.24
690.95	16613.12
691.08	16428.22
691.22	16603.76
691.35	16739.51
691.49	16479.71
691.62	16180.12
691.76	15803.30
691.89	16201.19
692.03	16123.95
692.16	15770.53
692.30	15609.03
692.43	15686.27
692.57	15737.76
692.70	15805.64
692.84	15721.38
692.97	15815.00
693.11	15630.10
693.24	15810.32
693.38	15625.42
693.51	15300.08
693.65	15506.05
693.78	15220.50
693.92	15042.62
694.05	14995.81
694.19	14799.21
694.32	14806.23
694.45	15075.39
694.59	14822.61
694.72	14916.23
694.86	14672.82
694.99	14258.54
695.13	14808.57
695.26	14637.71
695.39	14572.18
695.53	14455.15
695.66	14951.34
695.80	14539.41
695.93	14740.69
696.07	14806.23
696.20	14544.09
696.33	14129.81
696.47	14017.47
696.60	13923.85
696.73	13572.77
696.87	13687.45
697.00	13851.29
697.14	13628.94
697.27	13465.10
697.40	13621.92
697.54	13469.78
697.67	13291.90
697.80	13074.23
697.94	13027.42
698.07	13294.24
698.21	13317.65
698.34	13397.23
698.47	13170.19
698.61	12980.61
698.74	12828.48
698.87	12989.97
699.01	13004.02
699.14	12816.77
699.27	12791.03
699.40	13046.15
699.54	12725.49
699.67	12594.42
699.80	12643.57
699.94	12507.82
700.07	12615.49
700.20	12311.22
700.34	12196.53
700.47	12210.57
700.60	12386.12
700.73	12556.97
700.87	12449.31
701.00	12453.99
701.13	12168.45
701.26	12018.65
701.40	12397.82
701.53	12060.78
701.66	12283.13
701.79	11838.43
701.93	11943.75
702.06	11932.05
702.19	11852.47
702.32	11597.35
702.46	11550.54
702.59	11602.04
702.72	11597.35
702.85	11337.56
702.99	11197.12
703.12	11442.88
703.25	11225.21
703.38	11154.99
703.51	11412.45
703.65	11180.74
703.78	11131.59
703.91	11330.53
704.04	11449.90
704.17	11265.00
704.31	11293.08
704.44	11117.54
704.57	10869.45
704.70	10668.16
704.83	10635.39
704.96	10506.66
705.10	10576.88
705.23	10501.98
>>>>>End Processed Spectral Data<<<<<
