SpectraSuite Data File
++++++++++++++++++++++++++++++++++++
Date: Fri Oct 04 11:40:03 GMT-05:00 2013
User: price-jones
Dark Spectrum Present: No
Reference Spectrum Present: No
Number of Sampled Component Spectra: 1
Spectrometers: USB2+H05261
Integration Time (usec): 100000 (USB2+H05261)
Spectra Averaged: 1 (USB2+H05261)
Boxcar Smoothing: 0 (USB2+H05261)
Correct for Electrical Dark: No (USB2+H05261)
Strobe/Lamp Enabled: No (USB2+H05261)
Correct for Detector Non-linearity: No (USB2+H05261)
Correct for Stray Light: No (USB2+H05261)
Number of Pixels in Processed Spectrum: 2048
>>>>>Begin Processed Spectral Data<<<<<
365.73	30.43
365.92	30.43
366.12	30.43
366.32	0.00
366.52	0.00
366.72	0.00
366.91	0.00
367.11	0.00
367.31	0.00
367.51	0.00
367.70	0.00
367.90	0.00
368.10	0.00
368.30	0.00
368.49	0.00
368.69	0.00
368.89	0.00
369.09	0.00
369.28	0.00
369.48	0.00
369.68	9.36
369.87	0.00
370.07	0.00
370.27	32.77
370.47	0.00
370.66	0.00
370.86	88.94
371.06	187.24
371.25	56.17
371.45	93.62
371.65	149.79
371.84	44.47
372.04	53.83
372.24	124.05
372.44	110.01
372.63	149.79
372.83	126.39
373.03	32.77
373.22	100.64
373.42	170.86
373.62	95.96
373.81	166.18
374.01	58.51
374.21	138.09
374.40	154.48
374.60	194.26
374.79	147.45
374.99	177.88
375.19	227.03
375.38	126.39
375.58	131.07
375.78	168.52
375.97	124.05
376.17	234.05
376.37	196.60
376.56	145.11
376.76	74.90
376.95	170.86
377.15	126.39
377.35	196.60
377.54	166.18
377.74	145.11
377.93	121.71
378.13	163.84
378.33	126.39
378.52	135.75
378.72	117.03
378.91	159.16
379.11	81.92
379.31	114.69
379.50	124.05
379.70	248.10
379.89	212.99
380.09	145.11
380.28	149.79
380.48	124.05
380.68	110.01
380.87	119.37
381.07	121.71
381.26	159.16
381.46	140.43
381.65	145.11
381.85	121.71
382.04	168.52
382.24	203.63
382.43	100.64
382.63	117.03
382.83	229.37
383.02	140.43
383.22	203.63
383.41	159.16
383.61	105.32
383.80	187.24
384.00	161.50
384.19	147.45
384.39	72.56
384.58	147.45
384.78	140.43
384.97	243.42
385.17	166.18
385.36	135.75
385.56	156.82
385.75	86.60
385.95	110.01
386.14	119.37
386.34	128.73
386.53	140.43
386.72	182.56
386.92	145.11
387.11	187.24
387.31	105.32
387.50	166.18
387.70	126.39
387.89	194.26
388.09	128.73
388.28	149.79
388.48	133.41
388.67	152.13
388.86	224.69
389.06	189.58
389.25	189.58
389.45	175.54
389.64	142.77
389.84	224.69
390.03	189.58
390.22	198.95
390.42	170.86
390.61	149.79
390.81	173.20
391.00	156.82
391.19	177.88
391.39	252.78
391.58	196.60
391.78	128.73
391.97	224.69
392.16	117.03
392.36	142.77
392.55	227.03
392.75	149.79
392.94	175.54
393.13	154.48
393.33	184.90
393.52	217.67
393.71	243.42
393.91	180.22
394.10	208.31
394.29	208.31
394.49	205.97
394.68	224.69
394.88	227.03
395.07	191.92
395.26	189.58
395.46	180.22
395.65	252.78
395.84	215.33
396.04	170.86
396.23	124.05
396.42	163.84
396.62	283.20
396.81	201.29
397.00	227.03
397.19	159.16
397.39	250.44
397.58	271.50
397.77	238.73
397.97	264.48
398.16	212.99
398.35	220.01
398.55	238.73
398.74	210.65
398.93	266.82
399.12	215.33
399.32	271.50
399.51	203.63
399.70	264.48
399.90	205.97
400.09	220.01
400.28	245.76
400.47	203.63
400.67	262.14
400.86	238.73
401.05	245.76
401.24	273.84
401.44	278.52
401.63	285.55
401.82	273.84
402.01	194.26
402.21	395.55
402.40	224.69
402.59	250.44
402.78	208.31
402.97	234.05
403.17	278.52
403.36	294.91
403.55	224.69
403.74	297.25
403.93	304.27
404.13	376.83
404.32	430.66
404.51	411.93
404.70	308.95
404.89	285.55
405.09	318.31
405.28	374.49
405.47	271.50
405.66	311.29
405.85	287.89
406.05	262.14
406.24	315.97
406.43	280.86
406.62	327.68
406.81	433.00
407.00	381.51
407.20	362.78
407.39	465.77
407.58	360.44
407.77	376.83
407.96	433.00
408.15	407.25
408.34	383.85
408.54	374.49
408.73	369.80
408.92	388.53
409.11	414.27
409.30	374.49
409.49	372.15
409.68	404.91
409.87	477.47
410.07	383.85
410.26	395.55
410.45	437.68
410.64	407.25
410.83	411.93
411.02	416.62
411.21	451.72
411.40	437.68
411.59	414.27
411.78	472.79
411.98	414.27
412.17	528.96
412.36	388.53
412.55	491.51
412.74	500.87
412.93	526.62
413.12	526.62
413.31	603.86
413.50	418.96
413.69	531.30
413.88	585.13
414.07	575.77
414.26	461.09
414.45	458.74
414.64	592.16
414.83	580.45
415.02	580.45
415.22	547.69
415.41	608.54
415.60	580.45
415.79	543.00
415.98	629.60
416.17	622.58
416.36	578.11
416.55	592.16
416.74	571.09
416.93	622.58
417.12	603.86
417.31	727.91
417.50	638.97
417.69	718.54
417.88	744.29
418.07	697.48
418.26	704.50
418.45	697.48
418.64	664.71
418.83	676.41
419.02	683.44
419.21	709.18
419.39	709.18
419.58	636.63
419.77	624.92
419.96	716.20
420.15	744.29
420.34	690.46
420.53	650.67
420.72	753.65
420.91	777.06
421.10	678.76
421.29	739.61
421.48	725.57
421.67	669.39
421.86	699.82
422.05	809.83
422.24	688.12
422.43	676.41
422.61	777.06
422.80	763.01
422.99	786.42
423.18	751.31
423.37	748.97
423.56	772.38
423.75	763.01
423.94	784.08
424.13	713.86
424.32	772.38
424.50	833.23
424.69	781.74
424.88	737.27
425.07	727.91
425.26	765.36
425.45	788.76
425.64	725.57
425.83	741.95
426.01	861.32
426.20	695.14
426.39	798.12
426.58	800.46
426.77	720.88
426.96	753.65
427.15	823.87
427.33	819.19
427.52	866.00
427.71	863.66
427.90	823.87
428.09	833.23
428.28	870.68
428.46	851.96
428.65	793.44
428.84	809.83
429.03	828.55
429.22	851.96
429.40	805.14
429.59	800.46
429.78	861.32
429.97	889.40
430.16	781.74
430.34	858.98
430.53	880.04
430.72	973.66
430.91	880.04
431.10	889.40
431.28	880.04
431.47	976.00
431.66	1020.47
431.85	936.21
432.03	877.70
432.22	973.66
432.41	875.36
432.60	954.94
432.79	840.25
432.97	882.38
433.16	896.43
433.35	901.11
433.54	950.26
433.72	980.68
433.91	940.90
434.10	908.13
434.28	905.79
434.47	1027.50
434.66	978.34
434.85	954.94
435.03	1116.44
435.22	1348.15
435.41	1511.99
435.59	1575.18
435.78	1383.26
435.97	1252.19
436.16	1181.97
436.34	931.53
436.53	1029.84
436.72	1128.14
436.90	945.58
437.09	1020.47
437.28	1022.81
437.46	1034.52
437.65	1020.47
437.84	1004.09
438.02	898.77
438.21	1046.22
438.40	1018.13
438.58	1032.18
438.77	1142.18
438.96	1064.94
439.14	940.90
439.33	1015.79
439.52	1086.01
439.70	1165.59
439.89	1114.10
440.08	1174.95
440.26	1097.71
440.45	1179.63
440.63	1125.80
440.82	1093.03
441.01	1226.44
441.19	1090.69
441.38	1114.10
441.57	1111.75
441.75	1263.89
441.94	1196.01
442.12	1088.35
442.31	1252.19
442.50	1102.39
442.68	1256.87
442.87	1252.19
443.05	1212.40
443.24	1240.48
443.43	1310.70
443.61	1188.99
443.80	1144.52
443.98	1188.99
444.17	1357.51
444.35	1294.32
444.54	1275.59
444.73	1313.04
444.91	1287.29
445.10	1231.12
445.28	1277.93
445.47	1210.06
445.65	1259.21
445.84	1196.01
446.02	1198.35
446.21	1301.34
446.39	1266.23
446.58	1203.04
446.77	1336.45
446.95	1268.57
447.14	1277.93
447.32	1359.85
447.51	1380.92
447.69	1212.40
447.88	1247.51
448.06	1224.10
448.25	1256.87
448.43	1186.65
448.62	1146.86
448.80	1261.55
448.99	1324.74
449.17	1404.32
449.36	1303.68
449.54	1343.47
449.73	1322.40
449.91	1380.92
450.10	1341.13
450.28	1310.70
450.46	1469.86
450.65	1378.58
450.83	1399.64
451.02	1345.81
451.20	1366.87
451.39	1434.75
451.57	1420.71
451.76	1291.98
451.94	1404.32
452.13	1373.89
452.31	1423.05
452.49	1352.83
452.68	1474.54
452.86	1392.62
453.05	1437.09
453.23	1504.96
453.42	1476.88
453.60	1406.66
453.78	1430.07
453.97	1460.49
454.15	1483.90
454.34	1423.05
454.52	1469.86
454.70	1455.81
454.89	1401.98
455.07	1509.65
455.26	1472.20
455.44	1481.56
455.62	1404.32
455.81	1474.54
455.99	1535.39
456.17	1511.99
456.36	1516.67
456.54	1406.66
456.73	1535.39
456.91	1502.62
457.09	1554.12
457.28	1495.60
457.46	1521.35
457.64	1565.82
457.83	1626.67
458.01	1521.35
458.19	1500.28
458.38	1528.37
458.56	1561.14
458.74	1596.25
458.93	1619.65
459.11	1582.20
459.29	1598.59
459.48	1504.96
459.66	1568.16
459.84	1647.74
460.03	1783.49
460.21	1659.44
460.39	1600.93
460.57	1547.09
460.76	1633.69
460.94	1584.54
461.12	1727.32
461.31	1561.14
461.49	1636.03
461.67	1664.12
461.85	1694.55
462.04	1692.21
462.22	2172.02
462.40	1762.42
462.59	1607.95
462.77	1682.85
462.95	1722.63
463.13	1757.74
463.32	1762.42
463.50	1675.82
463.68	1720.29
463.86	1717.95
464.05	1764.76
464.23	1774.13
464.41	1696.89
464.59	1678.16
464.78	1717.95
464.96	1694.55
465.14	1715.61
465.32	1806.89
465.50	1776.47
465.69	1743.70
465.87	1687.53
466.05	1870.09
466.23	1795.19
466.41	1724.97
466.60	1675.82
466.78	1739.02
466.96	1867.75
467.14	1724.97
467.32	1837.32
467.51	1898.17
467.69	1870.09
467.87	1865.41
468.05	1818.60
468.23	1755.40
468.41	1781.15
468.60	1757.74
468.78	1834.98
468.96	1816.26
469.14	1893.49
469.32	1891.15
469.50	1799.87
469.69	1907.54
469.87	1757.74
470.05	1788.17
470.23	1893.49
470.41	1820.94
470.59	1750.72
470.77	1853.70
470.95	1881.79
471.14	2106.48
471.32	1942.64
471.50	1982.43
471.68	1933.28
471.86	1799.87
472.04	1858.39
472.22	2050.31
472.40	1937.96
472.58	1930.94
472.77	1984.77
472.95	1935.62
473.13	2134.57
473.31	2038.61
473.49	1956.69
473.67	2017.54
473.85	1860.73
474.03	2054.99
474.21	2054.99
474.39	2146.27
474.57	2031.58
474.75	2211.81
474.93	2120.53
475.12	2115.84
475.30	2134.57
475.48	2069.03
475.66	2071.37
475.84	2200.10
476.02	2165.00
476.20	2186.06
476.38	2195.42
476.56	2263.30
476.74	2211.81
476.92	2200.10
477.10	2186.06
477.28	2312.45
477.46	2279.68
477.64	2228.19
477.82	2427.14
478.00	2326.49
478.18	2326.49
478.36	2354.58
478.54	2352.24
478.72	2408.41
478.90	2408.41
479.08	2359.26
479.26	2527.78
479.44	2499.69
479.62	2420.11
479.80	2551.18
479.98	2471.61
480.16	2576.93
480.34	2590.97
480.52	2569.91
480.70	2551.18
480.88	2581.61
481.06	2686.94
481.24	2656.51
481.41	2560.55
481.59	2733.75
481.77	2715.02
481.95	2705.66
482.13	2700.98
482.31	2834.39
482.49	2794.60
482.67	2750.13
482.85	2923.33
483.03	2801.62
483.21	2846.09
483.39	2937.37
483.57	2717.36
483.74	2850.77
483.92	3014.61
484.10	2956.10
484.28	3040.36
484.46	3054.40
484.64	3133.98
484.82	3033.33
485.00	3061.42
485.18	3096.53
485.35	3335.26
485.53	3126.96
485.71	3309.52
485.89	3297.81
486.07	3286.11
486.25	3346.97
486.43	3283.77
486.61	3342.28
486.78	3323.56
486.96	3258.03
487.14	3431.23
487.32	3428.88
487.50	3414.84
487.68	3421.86
487.85	3538.89
488.03	3461.65
488.21	3672.30
488.39	3658.26
488.57	3676.98
488.75	3667.62
488.92	3831.46
489.10	3665.28
489.28	3779.97
489.46	3651.24
489.64	3651.24
489.81	3822.09
489.99	3789.33
490.17	3922.74
490.35	3957.85
490.53	3948.48
490.70	3845.50
490.88	3899.33
491.06	3971.89
491.24	3889.97
491.41	3941.46
491.59	3960.19
491.77	3936.78
491.95	3997.64
492.13	4138.07
492.30	4051.47
492.48	4063.17
492.66	4142.75
492.84	4030.40
493.01	4184.88
493.19	4009.34
493.37	4173.18
493.54	4248.07
493.72	4201.26
493.90	4198.92
494.08	4304.25
494.25	4177.86
494.43	4259.78
494.61	4374.46
494.79	4386.16
494.96	4264.46
495.14	4437.66
495.32	4358.08
495.49	4386.16
495.67	4444.68
495.85	4521.92
496.02	4559.36
496.20	4510.21
496.38	4500.85
496.55	4575.75
496.73	4603.83
496.91	4664.69
497.09	4676.39
497.26	4655.33
497.44	4660.01
497.62	4664.69
497.79	4662.35
497.97	4554.68
498.14	4847.25
498.32	4943.21
498.50	4727.88
498.67	4940.87
498.85	4821.50
499.03	4807.46
499.20	4903.42
499.38	4889.38
499.56	4858.95
499.73	5013.43
499.91	5011.09
500.08	5060.24
500.26	4901.08
500.44	5006.41
500.61	5135.14
500.79	5081.30
500.97	5093.01
501.14	5060.24
501.32	5170.24
501.49	5097.69
501.67	5093.01
501.84	5160.88
502.02	5200.67
502.20	5167.90
502.37	5238.12
502.55	5238.12
502.72	5205.35
502.90	5331.74
503.07	5235.78
503.25	5284.93
503.43	5303.65
503.60	5331.74
503.78	5219.39
503.95	5207.69
504.13	5252.16
504.30	5479.19
504.48	5453.45
504.65	5502.60
504.83	5401.96
505.01	5376.21
505.18	5411.32
505.36	5357.49
505.53	5521.32
505.71	5364.51
505.88	5572.82
506.06	5628.99
506.23	5554.09
506.41	5514.30
506.58	5430.04
506.76	5483.88
506.93	5661.76
507.11	5610.26
507.28	5565.79
507.46	5572.82
507.63	5636.01
507.81	5661.76
507.98	5675.80
508.16	5741.33
508.33	5867.72
508.50	5612.60
508.68	5935.60
508.85	5891.13
509.03	5809.21
509.20	5839.64
509.38	5851.34
509.55	5963.68
509.73	5877.09
509.90	5856.02
510.08	5717.93
510.25	6129.86
510.42	5907.51
510.60	5860.70
510.77	6164.97
510.95	5954.32
511.12	5769.42
511.30	5982.41
511.47	6029.22
511.64	6005.81
511.82	6099.44
511.99	6153.27
512.17	6029.22
512.34	6101.78
512.51	6162.63
512.69	6043.26
512.86	6043.26
513.04	6363.92
513.21	6403.71
513.38	6310.08
513.56	6303.06
513.73	6270.30
513.90	6237.53
514.08	6253.91
514.25	6202.42
514.43	6420.09
514.60	6338.17
514.77	6347.53
514.95	6457.54
515.12	6490.31
515.29	6466.90
515.47	6375.62
515.64	6497.33
515.81	6408.39
515.99	6509.03
516.16	6518.39
516.33	6502.01
516.51	6377.96
516.68	6523.07
516.85	6436.47
517.03	6544.14
517.20	6480.94
517.37	6499.67
517.54	6626.06
517.72	6487.96
517.89	6555.84
518.06	6635.42
518.24	6490.31
518.41	6567.54
518.58	6703.29
518.75	6672.87
518.93	6703.29
519.10	6675.21
519.27	6457.54
519.45	6665.85
519.62	6740.74
519.79	6832.02
519.96	6764.15
520.14	6876.49
520.31	6874.15
520.48	6813.30
520.65	6930.33
520.83	6785.21
521.00	6848.41
521.17	6796.92
521.34	6757.13
521.52	6946.71
521.69	6881.18
521.86	7002.88
522.03	7026.29
522.20	7066.08
522.38	6986.50
522.55	7002.88
522.72	7028.63
522.89	6904.58
523.07	7157.36
523.24	7063.74
523.41	7019.27
523.58	7035.65
523.75	7255.66
523.92	7084.80
524.10	7075.44
524.27	7229.91
524.44	7208.85
524.61	7274.38
524.78	7258.00
524.96	7265.02
525.13	7166.72
525.30	7040.33
525.47	7115.23
525.64	7466.31
525.81	7258.00
525.98	7180.76
526.16	7225.23
526.33	7274.38
526.50	7375.03
526.67	7365.67
526.84	7213.53
527.01	7286.09
527.18	7410.14
527.36	7180.76
527.53	7286.09
527.70	7571.63
527.87	7485.03
528.04	7410.14
528.21	7442.90
528.38	7569.29
528.55	7449.93
528.72	7550.57
528.89	7405.46
529.07	7419.50
529.24	7452.27
529.41	7466.31
529.58	7585.68
529.75	7466.31
529.92	7662.91
530.09	7517.80
530.26	7475.67
530.43	7555.25
530.60	7672.28
530.77	7485.03
530.94	7740.15
531.11	7492.05
531.28	7798.66
531.46	7606.74
531.63	7456.95
531.80	7632.49
531.97	7887.61
532.14	7655.89
532.31	7658.23
532.48	7606.74
532.65	7632.49
532.82	7571.63
532.99	7772.92
533.16	7744.83
533.33	7948.46
533.50	7857.18
533.67	7754.19
533.84	7630.15
534.01	7719.09
534.18	7695.68
534.35	7850.16
534.52	7829.09
534.69	7840.79
534.86	7892.29
535.03	7749.51
535.20	7810.37
535.37	7925.05
535.54	7946.12
535.71	8030.38
535.88	7988.25
536.05	7885.26
536.22	7962.50
536.38	7948.46
536.55	8177.83
536.72	7852.50
536.89	7967.18
537.06	7960.16
537.23	8037.40
537.40	8025.70
537.57	7955.48
537.74	8035.06
537.91	8198.90
538.08	8063.15
538.25	8004.63
538.42	8219.96
538.59	8212.94
538.75	8039.74
538.92	8100.59
539.09	8184.85
539.26	8313.58
539.43	8208.26
539.60	8283.16
539.77	8421.25
539.94	8571.04
540.11	8400.18
540.28	8379.12
540.44	8341.67
540.61	8423.59
540.78	8461.04
540.95	8500.83
541.12	8685.73
541.29	8772.33
541.46	9039.15
541.62	8891.70
541.79	8908.08
541.96	8980.64
542.13	9102.34
542.30	8823.82
542.47	8987.66
542.63	8868.29
542.80	8828.50
542.97	9032.13
543.14	8816.80
543.31	8936.17
543.48	8781.69
543.64	8938.51
543.81	9029.79
543.98	8868.29
544.15	9004.04
544.32	9100.00
544.48	8903.40
544.65	8887.01
544.82	9046.17
544.99	8919.78
545.16	8894.04
545.32	8961.91
545.49	9633.64
545.66	9963.66
545.83	10438.79
546.00	10162.61
546.16	9755.35
546.33	9303.63
546.50	8980.64
546.67	9132.77
546.83	8894.04
547.00	9006.38
547.17	8713.81
547.34	8732.54
547.50	8727.86
547.67	8926.80
547.84	8748.92
548.00	8894.04
548.17	8755.94
548.34	8748.92
548.51	8723.18
548.67	8690.41
548.84	8678.71
549.01	8751.26
549.18	8814.46
549.34	8800.41
549.51	8800.41
549.68	8870.63
549.84	8760.63
550.01	8945.53
550.18	8929.14
550.34	8987.66
550.51	8709.13
550.68	8748.92
550.84	8578.06
551.01	8772.33
551.18	8786.37
551.34	8746.58
551.51	8795.73
551.68	8772.33
551.84	8933.82
552.01	8601.47
552.18	8683.39
552.34	8898.72
552.51	8917.44
552.68	8638.92
552.84	8711.47
553.01	8786.37
553.18	8559.34
553.34	8887.01
553.51	8540.61
553.67	8861.27
553.84	8835.52
554.01	8847.22
554.17	8690.41
554.34	8667.00
554.51	8917.44
554.67	8903.40
554.84	8669.34
555.00	8896.38
555.17	8896.38
555.33	8807.44
555.50	8795.73
555.67	8842.54
555.83	8713.81
556.00	8781.69
556.16	8772.33
556.33	8823.82
556.50	8891.70
556.66	8847.22
556.83	8697.43
556.99	8791.05
557.16	8882.33
557.32	8828.50
557.49	8922.12
557.65	8891.70
557.82	8718.50
557.98	8725.52
558.15	8837.86
558.32	8777.01
558.48	8814.46
558.65	8922.12
558.81	8861.27
558.98	8847.22
559.14	8833.18
559.31	8760.63
559.47	8847.22
559.64	8987.66
559.80	8727.86
559.97	8973.61
560.13	8851.91
560.30	8992.34
560.46	8681.05
560.63	8877.65
560.79	8903.40
560.96	8973.61
561.12	9013.40
561.29	8781.69
561.45	8954.89
561.61	8819.14
561.78	8800.41
561.94	9057.87
562.11	8966.59
562.27	8987.66
562.44	9004.04
562.60	8884.67
562.77	8992.34
562.93	8849.57
563.10	9057.87
563.26	8992.34
563.42	8887.01
563.59	8819.14
563.75	8968.93
563.92	8875.31
564.08	9179.58
564.24	8898.72
564.41	9025.11
564.57	8690.41
564.74	8720.84
564.90	9013.40
565.07	8812.12
565.23	9013.40
565.39	9027.45
565.56	9041.49
565.72	8854.25
565.88	8786.37
566.05	8938.51
566.21	8891.70
566.38	9022.77
566.54	8957.23
566.70	9032.13
566.87	8952.55
567.03	9114.05
567.19	9083.62
567.36	8863.61
567.52	9025.11
567.68	9137.45
567.85	8894.04
568.01	8987.66
568.17	8947.87
568.34	8992.34
568.50	8936.17
568.66	9064.89
568.83	8971.27
568.99	8917.44
569.15	8947.87
569.32	8997.02
569.48	8947.87
569.64	8917.44
569.81	8697.43
569.97	8971.27
570.13	9036.81
570.30	8854.25
570.46	8882.33
570.62	9013.40
570.78	8922.12
570.95	8936.17
571.11	8954.89
571.27	9221.71
571.43	8723.18
571.60	9188.94
571.76	8973.61
571.92	9064.89
572.09	9139.79
572.25	9078.94
572.41	8802.75
572.57	9114.05
572.74	8959.57
572.90	9036.81
573.06	8933.82
573.22	9041.49
573.38	9015.74
573.55	9062.55
573.71	9149.15
573.87	9104.68
574.03	8877.65
574.20	8788.71
574.36	8865.95
574.52	9027.45
574.68	8940.85
574.84	8905.74
575.01	9062.55
575.17	8973.61
575.33	9078.94
575.49	9170.22
575.65	9097.66
575.82	9111.71
575.98	8884.67
576.14	9092.98
576.30	8875.31
576.46	9057.87
576.62	9261.50
576.79	9322.35
576.95	9301.29
577.11	9156.18
577.27	9163.20
577.43	9181.92
577.59	9081.28
577.75	8837.86
577.92	8982.98
578.08	8795.73
578.24	9041.49
578.40	9303.63
578.56	9083.62
578.72	9167.88
578.88	9404.27
579.04	9448.74
579.21	9291.93
579.37	9139.79
579.53	8938.51
579.69	8997.02
579.85	9149.15
580.01	9294.27
580.17	9107.02
580.33	9165.54
580.49	9273.20
580.65	9331.72
580.82	9256.82
580.98	8901.06
581.14	9069.58
581.30	9174.90
581.46	9104.68
581.62	9088.30
581.78	9097.66
581.94	9081.28
582.10	8987.66
582.26	9111.71
582.42	9158.52
582.58	9362.14
582.74	9247.46
582.90	9116.39
583.06	9123.41
583.22	9170.22
583.38	8954.89
583.54	9198.31
583.70	9130.43
583.86	9149.15
584.02	9100.00
584.18	9301.29
584.34	9224.05
584.50	9153.84
584.66	9217.03
584.82	9057.87
584.98	9046.17
585.14	9048.51
585.30	9057.87
585.46	9245.12
585.62	9212.35
585.78	9193.62
585.94	9170.22
586.10	9130.43
586.26	8999.36
586.42	9359.80
586.58	9179.58
586.74	9195.96
586.90	9165.54
587.06	9212.35
587.22	9322.35
587.38	9114.05
587.54	9191.28
587.70	9366.82
587.86	9343.42
588.02	9186.60
588.18	9158.52
588.34	9235.75
588.49	9165.54
588.65	9202.99
588.81	9064.89
588.97	9039.15
589.13	9097.66
589.29	9296.61
589.45	9231.07
589.61	9193.62
589.77	9001.70
589.93	9224.05
590.08	9069.58
590.24	9336.40
590.40	9210.01
590.56	9294.27
590.72	9158.52
590.88	9074.26
591.04	9202.99
591.20	9163.20
591.35	9224.05
591.51	9231.07
591.67	9387.89
591.83	9263.84
591.99	9298.95
592.15	9015.74
592.31	9301.29
592.46	9336.40
592.62	9233.41
592.78	9090.64
592.94	9245.12
593.10	9327.03
593.26	9259.16
593.41	9034.47
593.57	9184.26
593.73	9135.11
593.89	9277.88
594.05	9210.01
594.20	9214.69
594.36	9135.11
594.52	9174.90
594.68	9114.05
594.84	9160.86
594.99	9336.40
595.15	9245.12
595.31	9268.52
595.47	9254.48
595.62	9177.24
595.78	9451.08
595.94	9095.32
596.10	9109.36
596.25	9125.75
596.41	9088.30
596.57	9195.96
596.73	8919.78
596.88	9118.73
597.04	9226.39
597.20	9083.62
597.36	9369.16
597.51	9060.21
597.67	9118.73
597.83	9231.07
597.99	9226.39
598.14	9034.47
598.30	9224.05
598.46	9160.86
598.61	8968.93
598.77	9408.95
598.93	9308.31
599.09	9200.65
599.24	9242.78
599.40	9184.26
599.56	9219.37
599.71	9221.71
599.87	9483.85
600.03	9135.11
600.18	9238.09
600.34	9221.71
600.50	9233.41
600.65	9158.52
600.81	9240.44
600.97	9006.38
601.12	9137.45
601.28	9266.18
601.44	9135.11
601.59	9022.77
601.75	9050.85
601.91	9055.53
602.06	8990.00
602.22	9212.35
602.37	8992.34
602.53	9102.34
602.69	8959.57
602.84	9041.49
603.00	9043.83
603.16	9146.81
603.31	9022.77
603.47	9233.41
603.62	9085.96
603.78	8987.66
603.94	9228.73
604.09	8943.19
604.25	9107.02
604.40	8971.27
604.56	9270.86
604.71	9158.52
604.87	9165.54
605.03	9039.15
605.18	9032.13
605.34	9324.69
605.49	8997.02
605.65	9104.68
605.80	8915.10
605.96	9195.96
606.12	9085.96
606.27	9291.93
606.43	9179.58
606.58	9256.82
606.74	8936.17
606.89	8905.74
607.05	9092.98
607.20	9128.09
607.36	8987.66
607.51	9151.49
607.67	9053.19
607.82	8922.12
607.98	9097.66
608.13	9144.47
608.29	9100.00
608.44	9151.49
608.60	9167.88
608.75	9193.62
608.91	9238.09
609.06	9303.63
609.22	9273.20
609.37	9090.64
609.53	9357.46
609.68	9275.54
609.84	9261.50
609.99	9490.87
610.15	9507.26
610.30	9598.54
610.46	9797.48
610.61	10188.35
610.76	10300.70
610.92	10597.95
611.07	10956.05
611.23	10824.98
611.38	10721.99
611.54	10272.61
611.69	10057.28
611.84	10148.56
612.00	9858.34
612.15	9621.94
612.31	9671.09
612.46	9453.42
612.62	9607.90
612.77	9727.27
612.92	9469.81
613.08	9359.80
613.23	9502.58
613.39	9394.91
613.54	9130.43
613.69	9296.61
613.85	9202.99
614.00	9191.28
614.15	9315.33
614.31	9104.68
614.46	9301.29
614.62	9268.52
614.77	9233.41
614.92	9305.97
615.08	9043.83
615.23	9226.39
615.38	9132.77
615.54	8901.06
615.69	8847.22
615.84	9071.92
616.00	9109.36
616.15	8868.29
616.30	8973.61
616.46	8987.66
616.61	8716.16
616.76	9011.06
616.92	8994.68
617.07	8933.82
617.22	8940.85
617.37	8896.38
617.53	8795.73
617.68	8826.16
617.83	8875.31
617.99	8702.11
618.14	8727.86
618.29	8854.25
618.45	8917.44
618.60	8882.33
618.75	8879.99
618.90	8568.70
619.06	8674.03
619.21	8662.32
619.36	8863.61
619.51	8802.75
619.67	8739.56
619.82	8777.01
619.97	8851.91
620.12	8685.73
620.28	8685.73
620.43	8950.21
620.58	8676.37
620.73	8887.01
620.89	8650.62
621.04	8835.52
621.19	8819.14
621.34	8767.65
621.49	8648.28
621.65	8610.83
621.80	8669.34
621.95	8514.87
622.10	8601.47
622.25	8638.92
622.41	8746.58
622.56	8711.47
622.71	8800.41
622.86	8730.20
623.01	8617.85
623.16	8657.64
623.32	8629.56
623.47	8709.13
623.62	8690.41
623.77	8622.53
623.92	8475.08
624.07	8685.73
624.23	8889.35
624.38	8519.55
624.53	8624.87
624.68	8557.00
624.83	8606.15
624.98	8671.68
625.13	8587.43
625.29	8620.19
625.44	8608.49
625.59	8503.17
625.74	8568.70
625.89	8376.78
626.04	8545.30
626.19	8425.93
626.34	8519.55
626.49	8402.52
626.65	8498.49
626.80	8606.15
626.95	8631.90
627.10	8762.97
627.25	8568.70
627.40	8341.67
627.55	8439.97
627.70	8353.37
627.85	8421.25
628.00	8257.41
628.15	8280.82
628.30	8444.65
628.45	8594.45
628.60	8388.48
628.76	8484.44
628.91	8617.85
629.06	8500.83
629.21	8500.83
629.36	8346.35
629.51	8245.71
629.66	8252.73
629.81	8346.35
629.96	8276.13
630.11	8315.92
630.26	8397.84
630.41	8395.50
630.56	8231.66
630.71	8348.69
630.86	8257.41
631.01	8472.74
631.16	8468.06
631.31	8390.82
631.46	8327.63
631.61	8353.37
631.76	8329.97
631.91	8353.37
632.06	8280.82
632.21	8135.70
632.36	8105.28
632.51	8306.56
632.66	8266.77
632.81	8072.51
632.96	8175.49
633.10	8133.36
633.25	8084.21
633.40	8262.09
633.55	8264.43
633.70	7967.18
633.85	8173.15
634.00	8046.76
634.15	8095.91
634.30	8124.00
634.45	7992.93
634.60	8030.38
634.75	8142.72
634.90	7997.61
635.05	8095.91
635.19	8255.07
635.34	8053.78
635.49	8168.47
635.64	8091.23
635.79	8145.06
635.94	8018.68
636.09	7915.69
636.24	8126.34
636.39	8098.25
636.53	7943.78
636.68	8058.46
636.83	8077.19
636.98	8107.62
637.13	7861.86
637.28	8088.89
637.43	8037.40
637.57	8173.15
637.72	8339.33
637.87	8009.31
638.02	7913.35
638.17	8212.94
638.32	7899.31
638.46	7789.30
638.61	7859.52
638.76	7852.50
638.91	7946.12
639.06	8016.33
639.20	7934.42
639.35	7976.55
639.50	8074.85
639.65	7976.55
639.80	7843.14
639.94	7859.52
640.09	8011.65
640.24	8035.06
640.39	7838.45
640.54	7892.29
640.68	7983.57
640.83	7864.20
640.98	8093.57
641.13	7915.69
641.27	7932.08
641.42	7960.16
641.57	7925.05
641.72	7808.03
641.86	7941.44
642.01	7808.03
642.16	7927.39
642.31	7948.46
642.45	7948.46
642.60	7789.30
642.75	7995.27
642.90	7852.50
643.04	7812.71
643.19	7791.64
643.34	7836.11
643.48	7819.73
643.63	7971.86
643.78	7981.23
643.93	7990.59
644.07	7770.58
644.22	7705.04
644.37	7791.64
644.51	7999.95
644.66	7906.33
644.81	7735.47
644.95	7541.21
645.10	7742.49
645.25	7550.57
645.39	7754.19
645.54	7756.54
645.69	7819.73
645.83	7758.88
645.98	7861.86
646.13	7751.85
646.27	8013.99
646.42	7714.41
646.57	7852.50
646.71	7779.94
646.86	7618.44
647.00	7793.98
647.15	7786.96
647.30	7669.94
647.44	7688.66
647.59	7808.03
647.74	7698.02
647.88	7733.13
648.03	7805.69
648.17	7791.64
648.32	7864.20
648.47	7665.25
648.61	7620.78
648.76	7655.89
648.90	7550.57
649.05	7517.80
649.20	7613.76
649.34	7644.19
649.49	7536.52
649.63	7623.12
649.78	7786.96
649.92	7583.34
650.07	7737.81
650.21	7513.12
650.36	7833.77
650.51	7623.12
650.65	7812.71
650.80	7716.75
650.94	7604.40
651.09	7655.89
651.23	7543.55
651.38	7489.71
651.52	7578.65
651.67	7595.04
651.81	7503.76
651.96	7803.35
652.10	7606.74
652.25	7581.00
652.39	7590.36
652.54	7609.08
652.68	7620.78
652.83	7721.43
652.97	7648.87
653.12	7557.59
653.26	7576.31
653.41	7735.47
653.55	7660.57
653.70	7496.74
653.84	7456.95
653.99	7405.46
654.13	7302.47
654.27	7496.74
654.42	7578.65
654.56	7426.52
654.71	7370.35
654.85	7489.71
655.00	7438.22
655.14	7468.65
655.29	7510.78
655.43	7421.84
655.57	7314.17
655.72	7265.02
655.86	7414.82
656.01	7442.90
656.15	7143.32
656.30	7283.75
656.44	7272.04
656.58	7384.39
656.73	7407.80
656.87	7353.96
657.01	7389.07
657.16	7578.65
657.30	7517.80
657.45	7559.93
657.59	7372.69
657.73	7405.46
657.88	7466.31
658.02	7311.83
658.16	7250.98
658.31	7297.79
658.45	7335.24
658.60	7304.81
658.74	7152.68
658.88	7393.75
659.03	7325.88
659.17	7187.79
659.31	7379.71
659.46	7084.80
659.60	7492.05
659.74	7302.47
659.89	7206.51
660.03	7363.33
660.17	7337.58
660.32	7332.90
660.46	7155.02
660.60	7204.17
660.74	7047.35
660.89	7089.48
661.03	7061.40
661.17	6888.20
661.32	7150.34
661.46	7377.37
661.60	7208.85
661.74	7155.02
661.89	7204.17
662.03	7187.79
662.17	7281.41
662.31	7302.47
662.46	7138.63
662.60	7091.82
662.74	7206.51
662.88	7012.24
663.03	7124.59
663.17	7094.16
663.31	7007.56
663.45	6970.12
663.60	6998.20
663.74	7201.83
663.88	7089.48
664.02	7098.84
664.17	6958.41
664.31	6939.69
664.45	7063.74
664.59	6888.20
664.73	6843.73
664.88	6949.05
665.02	6998.20
665.16	7037.99
665.30	7016.93
665.44	6846.07
665.59	6839.05
665.73	6860.11
665.87	6993.52
666.01	7007.56
666.15	6747.76
666.29	6813.30
666.44	6986.50
666.58	6942.03
666.72	6700.95
666.86	6890.54
667.00	6864.79
667.14	6977.14
667.28	6986.50
667.43	6782.87
667.57	6796.92
667.71	6782.87
667.85	6867.13
667.99	6761.81
668.13	6796.92
668.27	6792.23
668.41	6553.50
668.56	6715.00
668.70	6693.93
668.84	6616.69
668.98	6693.93
669.12	6523.07
669.26	6656.48
669.40	6707.98
669.54	6429.45
669.68	6623.72
669.82	6427.11
669.96	6487.96
670.10	6586.27
670.25	6558.18
670.39	6640.10
670.53	6469.24
670.67	6546.48
670.81	6544.14
670.95	6616.69
671.09	6621.38
671.23	6513.71
671.37	6670.53
671.51	6377.96
671.65	6520.73
671.79	6375.62
671.93	6424.77
672.07	6539.46
672.21	6541.80
672.35	6408.39
672.49	6483.28
672.63	6485.62
672.77	6300.72
672.91	6363.92
673.05	6352.21
673.19	6441.15
673.33	6324.13
673.47	6314.77
673.61	6317.11
673.75	6326.47
673.89	6389.66
674.03	6279.66
674.17	6277.32
674.31	6225.82
674.45	6380.30
674.59	6181.35
674.73	6141.57
674.87	6209.44
675.01	6253.91
675.15	6190.72
675.29	6204.76
675.43	6204.76
675.56	6157.95
675.70	6207.10
675.84	6153.27
675.98	5802.19
676.12	5937.94
676.26	6176.67
676.40	6169.65
676.54	6162.63
676.68	6083.05
676.82	5863.04
676.96	5912.19
677.10	6099.44
677.23	5968.37
677.37	5764.74
677.51	5827.93
677.65	5900.49
677.79	5720.27
677.93	5963.68
678.07	5867.72
678.21	5799.85
678.34	5849.00
678.48	5811.55
678.62	5767.08
678.76	5668.78
678.90	5738.99
679.04	5748.36
679.18	5652.39
679.31	5479.19
679.45	5572.82
679.59	5778.78
679.73	5729.63
679.87	5708.57
680.00	5748.36
680.14	5593.88
680.28	5682.82
680.42	5547.07
680.56	5614.95
680.70	5514.30
680.83	5490.90
680.97	5547.07
681.11	5696.86
681.25	5437.06
681.39	5483.88
681.52	5497.92
681.66	5549.41
681.80	5345.78
681.94	5518.98
682.07	5465.15
682.21	5369.19
682.35	5282.59
682.49	5444.09
682.62	5254.50
682.76	5263.86
682.90	5308.34
683.04	5362.17
683.17	5357.49
683.31	5317.70
683.45	5107.05
683.59	5205.35
683.72	5198.33
683.86	5219.39
684.00	5261.52
684.13	5373.87
684.27	5153.86
684.41	5057.90
684.55	5177.26
684.68	4964.28
684.82	5025.13
684.96	5128.11
685.09	5027.47
685.23	4938.53
685.37	5144.50
685.50	5032.15
685.64	5111.73
685.78	4999.38
685.91	5107.05
686.05	4985.34
686.19	5011.09
686.32	4945.55
686.46	4802.78
686.60	4980.66
686.73	4816.82
686.87	4842.57
687.01	4910.44
687.14	4800.44
687.28	4828.53
687.42	4660.01
687.55	4793.42
687.69	4692.77
687.82	4652.98
687.96	4734.90
688.10	4924.49
688.23	4730.22
688.37	4702.14
688.50	4606.17
688.64	4676.39
688.78	4688.09
688.91	4643.62
689.05	4608.51
689.18	4571.07
689.32	4519.57
689.46	4566.39
689.59	4552.34
689.73	4580.43
689.86	4622.56
690.00	4580.43
690.13	4423.61
690.27	4475.10
690.41	4503.19
690.54	4477.44
690.68	4376.80
690.81	4372.12
690.95	4355.74
691.08	4388.50
691.22	4395.53
691.35	4304.25
691.49	4358.08
691.62	4311.27
691.76	4304.25
691.89	4262.12
692.03	4149.77
692.16	4184.88
692.30	4060.83
692.43	4198.92
692.57	4379.14
692.70	4276.16
692.84	4131.05
692.97	4245.73
693.11	4039.76
693.24	4147.43
693.38	4081.89
693.51	4212.96
693.65	3995.29
693.78	4117.00
693.92	4173.18
694.05	4119.34
694.19	4074.87
694.32	3929.76
694.45	4032.74
694.59	4035.08
694.72	3927.42
694.86	3866.56
694.99	3756.56
695.13	3962.53
695.26	3829.12
695.39	3854.86
695.53	3950.82
695.66	3836.14
695.80	3761.24
695.93	3887.63
696.07	3803.37
696.20	3770.60
696.33	3810.39
696.47	3756.56
696.60	3831.46
696.73	3695.71
696.87	3737.84
697.00	3775.28
697.14	3756.56
697.27	3616.13
697.40	3676.98
697.54	3641.87
697.67	3566.98
697.80	3496.76
697.94	3695.71
698.07	3445.27
698.21	3517.83
698.34	3611.45
698.47	3611.45
698.61	3566.98
698.74	3634.85
698.87	3669.96
699.01	3569.32
699.14	3583.36
699.27	3564.64
699.40	3581.02
699.54	3468.67
699.67	3438.25
699.80	3398.46
699.94	3290.79
700.07	3222.92
700.20	3412.50
700.34	3311.86
700.47	3375.05
700.60	3276.75
700.73	3276.75
700.87	3272.07
701.00	3290.79
701.13	3276.75
701.26	3279.09
701.40	3274.41
701.53	3236.96
701.66	3304.84
701.79	3274.41
701.93	3185.47
702.06	3094.19
702.19	3138.66
702.32	3211.22
702.46	3265.05
702.59	3126.96
702.72	3131.64
702.85	3194.83
702.99	3063.76
703.12	3023.97
703.25	3115.25
703.38	3115.25
703.51	3049.72
703.65	2984.18
703.78	2970.14
703.91	2913.97
704.04	3023.97
704.17	3002.91
704.31	2991.20
704.44	3035.67
704.57	2832.05
704.70	2923.33
704.83	3026.31
704.96	2888.22
705.10	2895.24
705.23	2890.56
>>>>>End Processed Spectral Data<<<<<
