SpectraSuite Data File
++++++++++++++++++++++++++++++++++++
Date: Fri Oct 04 11:39:33 GMT-05:00 2013
User: price-jones
Dark Spectrum Present: No
Reference Spectrum Present: No
Number of Sampled Component Spectra: 1
Spectrometers: USB2+H05261
Integration Time (usec): 100000 (USB2+H05261)
Spectra Averaged: 1 (USB2+H05261)
Boxcar Smoothing: 0 (USB2+H05261)
Correct for Electrical Dark: No (USB2+H05261)
Strobe/Lamp Enabled: No (USB2+H05261)
Correct for Detector Non-linearity: No (USB2+H05261)
Correct for Stray Light: No (USB2+H05261)
Number of Pixels in Processed Spectrum: 2048
>>>>>Begin Processed Spectral Data<<<<<
365.73	7.02
365.92	7.02
366.12	7.02
366.32	0.00
366.52	0.00
366.72	0.00
366.91	0.00
367.11	4.68
367.31	0.00
367.51	0.00
367.70	0.00
367.90	0.00
368.10	0.00
368.30	25.75
368.49	0.00
368.69	0.00
368.89	0.00
369.09	0.00
369.28	0.00
369.48	0.00
369.68	0.00
369.87	51.49
370.07	102.98
370.27	18.72
370.47	91.28
370.66	121.71
370.86	166.18
371.06	201.29
371.25	163.84
371.45	163.84
371.65	184.90
371.84	212.99
372.04	182.56
372.24	205.97
372.44	234.05
372.63	224.69
372.83	266.82
373.03	241.08
373.22	187.24
373.42	241.08
373.62	304.27
373.81	292.57
374.01	273.84
374.21	245.76
374.40	166.18
374.60	271.50
374.79	365.12
374.99	290.23
375.19	271.50
375.38	334.70
375.58	222.35
375.78	327.68
375.97	252.78
376.17	294.91
376.37	297.25
376.56	311.29
376.76	311.29
376.95	287.89
377.15	212.99
377.35	360.44
377.54	245.76
377.74	224.69
377.93	224.69
378.13	266.82
378.33	278.52
378.52	210.65
378.72	283.20
378.91	355.76
379.11	257.46
379.31	229.37
379.50	280.86
379.70	322.99
379.89	353.42
380.09	322.99
380.28	322.99
380.48	297.25
380.68	266.82
380.87	238.73
381.07	304.27
381.26	337.04
381.46	299.59
381.65	266.82
381.85	372.15
382.04	285.55
382.24	276.18
382.43	283.20
382.63	229.37
382.83	308.95
383.02	374.49
383.22	315.97
383.41	301.93
383.61	341.72
383.80	304.27
384.00	273.84
384.19	355.76
384.39	365.12
384.58	273.84
384.78	315.97
384.97	367.46
385.17	353.42
385.36	313.63
385.56	334.70
385.75	381.51
385.95	379.17
386.14	362.78
386.34	344.06
386.53	283.20
386.72	344.06
386.92	355.76
387.11	369.80
387.31	423.64
387.50	322.99
387.70	421.30
387.89	374.49
388.09	395.55
388.28	367.46
388.48	468.11
388.67	355.76
388.86	465.77
389.06	374.49
389.25	468.11
389.45	395.55
389.64	393.21
389.84	421.30
390.03	416.62
390.22	456.40
390.42	369.80
390.61	402.57
390.81	472.79
391.00	440.02
391.19	458.74
391.39	388.53
391.58	514.92
391.78	458.74
391.97	463.43
392.16	365.12
392.36	479.81
392.55	465.77
392.75	390.87
392.94	484.49
393.13	475.13
393.33	507.90
393.52	496.19
393.71	454.06
393.91	519.60
394.10	550.03
394.29	554.71
394.49	454.06
394.68	484.49
394.88	491.51
395.07	550.03
395.26	538.32
395.46	540.66
395.65	557.05
395.84	557.05
396.04	582.79
396.23	524.28
396.42	491.51
396.62	610.88
396.81	582.79
397.00	517.26
397.19	629.60
397.39	615.56
397.58	622.58
397.77	517.26
397.97	638.97
398.16	587.47
398.35	706.84
398.55	669.39
398.74	617.90
398.93	741.95
399.12	631.94
399.32	631.94
399.51	688.12
399.70	667.05
399.90	662.37
400.09	624.92
400.28	695.14
400.47	674.07
400.67	751.31
400.86	744.29
401.05	753.65
401.24	870.68
401.44	709.18
401.63	828.55
401.82	786.42
402.01	795.78
402.21	842.59
402.40	770.04
402.59	896.43
402.78	861.32
402.97	826.21
403.17	856.64
403.36	926.85
403.55	835.57
403.74	919.83
403.93	887.06
404.13	983.02
404.32	1020.47
404.51	896.43
404.70	985.37
404.89	922.17
405.09	1027.50
405.28	1039.20
405.47	1001.75
405.66	1032.18
405.85	1032.18
406.05	1090.69
406.24	1015.79
406.43	1107.07
406.62	1130.48
406.81	1114.10
407.00	987.71
407.20	1184.31
407.39	1144.52
407.58	1179.63
407.77	1235.80
407.96	1254.53
408.15	1205.38
408.34	1226.44
408.54	1153.88
408.73	1282.61
408.92	1219.42
409.11	1238.14
409.30	1371.55
409.49	1238.14
409.68	1390.28
409.87	1385.60
410.07	1404.32
410.26	1350.49
410.45	1387.94
410.64	1308.36
410.83	1500.28
411.02	1380.92
411.21	1502.62
411.40	1439.43
411.59	1458.15
411.78	1549.43
411.98	1591.56
412.17	1591.56
412.36	1544.75
412.55	1638.38
412.74	1659.44
412.93	1703.91
413.12	1535.39
413.31	1717.95
413.50	1781.15
413.69	1703.91
413.88	1774.13
414.07	1853.70
414.26	1769.44
414.45	1827.96
414.64	1907.54
414.83	1849.02
415.02	1926.26
415.22	2005.84
415.41	1952.01
415.60	2008.18
415.79	2040.95
415.98	2054.99
416.17	1982.43
416.36	2104.14
416.55	2008.18
416.74	2092.44
416.93	2143.93
417.12	2200.10
417.31	2253.94
417.50	2218.83
417.69	2410.75
417.88	2251.60
418.07	2249.25
418.26	2279.68
418.45	2263.30
418.64	2368.62
418.83	2415.43
419.02	2338.20
419.21	2466.92
419.39	2368.62
419.58	2356.92
419.77	2415.43
419.96	2406.07
420.15	2593.31
420.34	2497.35
420.53	2623.74
420.72	2534.80
420.91	2593.31
421.10	2569.91
421.29	2635.44
421.48	2487.99
421.67	2581.61
421.86	2766.51
422.05	2642.46
422.24	2658.85
422.43	2612.04
422.61	2715.02
422.80	2825.03
422.99	2839.07
423.18	2836.73
423.37	2841.41
423.56	2670.55
423.75	2787.58
423.94	2710.34
424.13	2492.67
424.32	2616.72
424.50	2822.69
424.69	2857.79
424.88	2810.98
425.07	2794.60
425.26	2747.79
425.45	2792.26
425.64	2839.07
425.83	2815.66
426.01	2953.76
426.20	2747.79
426.39	2951.42
426.58	2920.99
426.77	3021.63
426.96	2862.48
427.15	2871.84
427.33	3077.80
427.52	3005.25
427.71	2876.52
427.90	2930.35
428.09	2979.50
428.28	2998.23
428.46	3009.93
428.65	3180.79
428.84	3103.55
429.03	3143.34
429.22	3014.61
429.40	3054.40
429.59	3260.37
429.78	3035.67
429.97	3091.85
430.16	3023.97
430.34	3199.51
430.53	3157.38
430.72	3283.77
430.91	3169.09
431.10	3061.42
431.28	3171.43
431.47	3190.15
431.66	3276.75
431.85	3267.39
432.03	3449.95
432.22	3386.76
432.41	3403.14
432.60	3517.83
432.79	3307.18
432.97	3431.23
433.16	3571.66
433.35	3300.16
433.54	3473.36
433.72	3424.20
433.91	3531.87
434.10	3478.04
434.28	3522.51
434.47	3522.51
434.66	3566.98
434.85	3623.15
435.03	3655.92
435.22	3812.73
435.41	4098.28
435.59	4037.42
435.78	4060.83
435.97	3843.16
436.16	3634.85
436.34	3686.34
436.53	3782.31
436.72	3688.68
436.90	3702.73
437.09	3831.46
437.28	3815.07
437.46	3950.82
437.65	3798.69
437.84	3789.33
438.02	3845.50
438.21	3854.86
438.40	3941.46
438.58	3948.48
438.77	4051.47
438.96	3978.91
439.14	4077.21
439.33	4198.92
439.52	4042.11
439.70	4138.07
439.89	4084.23
440.08	4184.88
440.26	4294.88
440.45	4229.35
440.63	4229.35
440.82	4402.55
441.01	4241.05
441.19	4407.23
441.38	4461.06
441.57	4315.95
441.75	4470.42
441.94	4550.00
442.12	4493.83
442.31	4631.92
442.50	4624.90
442.68	4638.94
442.87	4575.75
443.05	4601.49
443.24	4674.05
443.43	4617.88
443.61	4713.84
443.80	4933.85
443.98	4669.37
444.17	4662.35
444.35	4887.04
444.54	4755.97
444.73	4753.63
444.91	4716.18
445.10	4629.58
445.28	4889.38
445.47	4500.85
445.65	4830.87
445.84	4674.05
446.02	4908.10
446.21	4812.14
446.39	4798.10
446.58	4887.04
446.77	4702.14
446.95	4807.46
447.14	4861.29
447.32	4800.44
447.51	4795.76
447.69	4973.64
447.88	4891.72
448.06	4861.29
448.25	4690.43
448.43	4770.01
448.62	4992.36
448.80	4971.30
448.99	4847.25
449.17	4987.68
449.36	4908.10
449.54	5015.77
449.73	5064.92
449.91	5305.99
450.10	5200.67
450.28	5142.16
450.46	5210.03
450.65	5181.95
450.83	5205.35
451.02	4999.38
451.20	5343.44
451.39	5284.93
451.57	5102.37
451.76	5219.39
451.94	5188.97
452.13	5451.11
452.31	5348.12
452.49	5317.70
452.68	5296.63
452.86	5310.68
453.05	5493.24
453.23	5474.51
453.42	5376.21
453.60	5451.11
453.78	5392.59
453.97	5481.53
454.15	5411.32
454.34	5348.12
454.52	5404.30
454.70	5526.00
454.89	5521.32
455.07	5535.37
455.26	5736.65
455.44	5734.31
455.62	5556.43
455.81	5680.48
455.99	5760.06
456.17	5764.74
456.36	5753.04
456.54	5874.74
456.73	5841.98
456.91	6078.37
457.09	5973.05
457.28	5916.87
457.46	5877.09
457.64	6033.90
457.83	6026.88
458.01	5935.60
458.19	6017.52
458.38	5973.05
458.56	6064.33
458.74	5949.64
458.93	6167.31
459.11	6008.16
459.29	6047.94
459.48	6251.57
459.66	6146.25
459.84	6083.05
460.03	6389.66
460.21	6366.26
460.39	6298.38
460.57	6183.70
460.76	6225.82
460.94	6218.80
461.12	6396.68
461.31	6342.85
461.49	6303.06
461.67	6321.79
461.85	6616.69
462.04	6476.26
462.22	6562.86
462.40	6441.15
462.59	6509.03
462.77	6562.86
462.95	6651.80
463.13	6719.68
463.32	6525.41
463.50	6539.46
463.68	6640.10
463.86	6597.97
464.05	6558.18
464.23	6651.80
464.41	6654.14
464.59	6738.40
464.78	6892.88
464.96	6504.35
465.14	6710.32
465.32	6850.75
465.50	6986.50
465.69	6953.73
465.87	6633.08
466.05	6803.94
466.23	6988.84
466.41	6951.39
466.60	7115.23
466.78	6832.02
466.96	6794.58
467.14	7045.01
467.32	7021.61
467.51	7075.44
467.69	6787.55
467.87	7028.63
468.05	7166.72
468.23	6965.43
468.41	7007.56
468.60	7112.89
468.78	7300.13
468.96	7194.81
469.14	7213.53
469.32	7295.45
469.50	7157.36
469.69	7243.96
469.87	7389.07
470.05	7337.58
470.23	7391.41
470.41	7272.04
470.59	7485.03
470.77	7314.17
470.95	7625.47
471.14	7536.52
471.32	7400.77
471.50	7641.85
471.68	7576.31
471.86	7721.43
472.04	7695.68
472.22	7754.19
472.40	7763.56
472.58	7695.68
472.77	7854.84
472.95	7768.24
473.13	8032.72
473.31	7789.30
473.49	7803.35
473.67	8210.60
473.85	8053.78
474.03	8081.87
474.21	8124.00
474.39	8175.49
474.57	8116.98
474.75	8259.75
474.93	8603.81
475.12	8615.51
475.30	8493.80
475.48	8411.89
475.66	8395.50
475.84	8465.72
476.02	8596.79
476.20	8709.13
476.38	8697.43
476.56	8781.69
476.74	8933.82
476.92	8821.48
477.10	8793.39
477.28	9116.39
477.46	8697.43
477.64	8971.27
477.82	9277.88
478.00	9315.33
478.18	9654.71
478.36	9380.87
478.54	9439.38
478.72	9638.33
478.90	9453.42
479.08	9806.84
479.26	9621.94
479.44	9846.63
479.62	9940.26
479.80	9991.75
479.98	9973.02
480.16	10204.74
480.34	10303.04
480.52	10429.43
480.70	10583.90
480.88	10230.48
481.06	10406.02
481.24	10675.18
481.41	10773.49
481.59	10789.87
481.77	10761.78
481.95	10808.59
482.13	11005.20
482.31	11115.20
482.49	11040.31
482.67	10993.50
482.85	11300.11
483.03	11412.45
483.21	11604.38
483.39	11627.78
483.57	11300.11
483.74	11543.52
483.92	11740.13
484.10	11852.47
484.28	12180.15
484.46	12070.14
484.64	12542.93
484.82	12142.70
485.00	12386.12
485.18	12608.47
485.35	12533.57
485.53	12657.62
485.71	12645.91
485.89	12968.91
486.07	12865.92
486.25	12985.29
486.43	13165.51
486.61	13163.17
486.78	13352.76
486.96	13544.68
487.14	13748.31
487.32	13577.45
487.50	13673.41
487.68	13921.51
487.85	14211.73
488.03	14256.20
488.21	14190.67
488.39	14164.92
488.57	14511.32
488.75	14307.69
488.92	14728.99
489.10	14691.54
489.28	14696.22
489.46	15080.07
489.64	14927.94
489.81	15164.33
489.99	15276.68
490.17	15033.26
490.35	15749.46
490.53	15749.46
490.70	15824.36
490.88	15648.82
491.06	16240.98
491.24	15807.98
491.41	16058.42
491.59	16060.76
491.77	16086.50
491.95	16306.51
492.13	16512.48
492.30	16517.16
492.48	16528.86
492.66	16587.38
492.84	16727.81
493.01	16858.88
493.19	16898.67
493.37	17345.71
493.54	17301.24
493.72	17224.00
493.90	17252.09
494.08	17502.53
494.25	17273.15
494.43	17584.44
494.61	17947.23
494.79	17968.29
494.96	17905.10
495.14	17972.97
495.32	18319.37
495.49	18225.75
495.67	18258.52
495.85	18370.86
496.02	18530.02
496.20	18623.64
496.38	19117.50
496.55	18934.93
496.73	19054.30
496.91	18904.51
497.09	19138.56
497.26	19367.93
497.44	19351.55
497.62	19637.09
497.79	19840.72
497.97	19138.56
498.14	19541.13
498.32	19941.36
498.50	19920.30
498.67	20194.14
498.85	20016.26
499.03	20231.59
499.20	20276.06
499.38	20449.26
499.56	20203.50
499.73	20444.58
499.91	20863.54
500.08	21020.35
500.26	20503.09
500.44	20936.09
500.61	21221.64
500.79	20732.47
500.97	21090.57
501.14	21167.80
501.32	21184.19
501.49	21113.97
501.67	21242.70
501.84	21486.12
502.02	21436.97
502.20	21537.61
502.37	21568.04
502.55	21516.54
502.72	21399.52
502.90	21446.33
503.07	21708.47
503.25	21816.13
503.43	21678.04
503.60	22167.21
503.78	22080.61
503.95	22490.21
504.13	22312.33
504.30	22057.21
504.48	22221.05
504.65	22405.95
504.83	22951.29
505.01	22897.46
505.18	22508.93
505.36	22750.01
505.53	22642.34
505.71	23040.23
505.88	22869.37
506.06	22838.95
506.23	23129.17
506.41	23234.50
506.58	23276.63
506.76	23194.71
506.93	23314.08
507.11	23438.12
507.28	23690.90
507.46	23828.99
507.63	23623.03
507.81	23983.47
507.98	23674.52
508.16	23793.89
508.33	23803.25
508.50	24184.76
508.68	24224.54
508.85	24060.71
509.03	24168.37
509.20	24610.73
509.38	24299.44
509.55	24254.97
509.73	24535.84
509.90	24652.86
510.08	24704.35
510.25	24793.29
510.42	24767.55
510.60	25041.39
510.77	24957.13
510.95	25069.48
511.12	24666.91
511.30	25202.89
511.47	25626.53
511.64	25495.46
511.82	25495.46
511.99	25460.35
512.17	25645.25
512.34	25689.72
512.51	25481.41
512.69	25722.49
512.86	25694.40
513.04	26096.97
513.21	26061.87
513.38	25773.98
513.56	25933.14
513.73	26548.70
513.90	25818.45
514.08	26047.82
514.25	26394.22
514.43	26316.98
514.60	26499.55
514.77	26529.97
514.95	26979.36
515.12	26560.40
515.29	26546.36
515.47	27150.21
515.64	27061.27
515.81	26794.45
515.99	27152.55
516.16	26998.08
516.33	27346.82
516.51	27445.12
516.68	26951.27
516.85	27243.84
517.03	27292.99
517.20	27646.41
517.37	27115.11
517.54	27494.27
517.72	27569.17
517.89	27395.97
518.06	27920.25
518.24	27644.07
518.41	27868.76
518.58	28002.17
518.75	28039.62
518.93	27978.76
519.10	27807.90
519.27	28306.44
519.45	27929.61
519.62	28219.84
519.79	28212.82
519.96	28404.74
520.14	28542.83
520.31	28280.69
520.48	28865.83
520.65	28669.22
520.83	28732.42
521.00	28816.68
521.17	28390.70
521.34	28809.65
521.52	28840.08
521.69	28966.47
521.86	29090.52
522.03	29013.28
522.20	29076.48
522.38	29362.02
522.55	29034.35
522.72	29104.56
522.89	29179.46
523.07	29778.64
523.24	29556.28
523.41	29706.08
523.58	29530.54
523.75	29865.24
523.92	29448.62
524.10	29610.12
524.27	29881.62
524.44	29837.15
524.61	30433.99
524.78	30029.07
524.96	30279.51
525.13	29858.21
525.30	29834.81
525.47	30164.82
525.64	30710.17
525.81	30698.47
525.98	30326.32
526.16	30410.58
526.33	30766.34
526.50	30677.40
526.67	30377.81
526.84	30614.21
527.01	30384.83
527.18	30986.35
527.36	30473.78
527.53	31021.46
527.70	31054.23
527.87	31253.17
528.04	31213.38
528.21	31061.25
528.38	31112.74
528.55	30820.17
528.72	31360.84
528.89	31562.12
529.07	31302.32
529.24	31381.90
529.41	31414.67
529.58	31026.14
529.75	31632.34
529.92	31442.76
530.09	31690.85
530.26	31318.71
530.43	31695.53
530.60	31637.02
530.77	31688.51
530.94	32116.83
531.11	31693.19
531.28	31721.28
531.46	31651.06
531.63	32273.65
531.80	32039.59
531.97	32297.05
532.14	32173.00
532.31	32283.01
532.48	32041.93
532.65	32411.74
532.82	32058.32
532.99	32428.12
533.16	32507.70
533.33	32496.00
533.50	32917.29
533.67	32634.09
533.84	32039.59
534.01	32374.29
534.18	32568.55
534.35	32474.93
534.52	32308.76
534.69	32910.27
534.86	33027.30
535.03	32872.82
535.20	32989.85
535.37	33076.45
535.54	32989.85
535.71	32933.68
535.88	32982.83
536.05	33333.91
536.22	33312.84
536.38	33404.13
536.55	33415.83
536.72	33413.49
536.89	33177.09
537.06	33060.07
537.23	33563.28
537.40	33523.49
537.57	33326.89
537.74	33397.10
537.91	33666.27
538.08	33675.63
538.25	33558.60
538.42	33642.86
538.59	33893.30
538.75	33640.52
538.92	33970.54
539.09	33649.88
539.26	34169.48
539.43	33689.67
539.60	34405.88
539.77	33804.36
539.94	33947.13
540.11	34038.41
540.28	34604.82
540.44	34558.01
540.61	34501.84
540.78	34047.77
540.95	34555.67
541.12	34646.95
541.29	34653.97
541.46	34682.06
541.62	34433.96
541.79	34389.49
541.96	34588.44
542.13	34576.73
542.30	35213.36
542.47	35342.09
542.63	34625.89
542.80	35185.27
542.97	35358.47
543.14	34871.64
543.31	35119.74
543.48	35276.55
543.64	35810.20
543.81	35484.86
543.98	35456.78
544.15	35557.42
544.32	35655.72
544.48	35356.13
544.65	35512.95
544.82	35550.40
544.99	35325.71
545.16	35311.66
545.32	35601.89
545.49	36362.56
545.66	36952.38
545.83	36889.18
546.00	36854.08
546.16	36109.78
546.33	35416.99
546.50	35557.42
546.67	35674.45
546.83	35730.62
547.00	35639.34
547.17	36168.30
547.34	35906.16
547.50	35941.27
547.67	36479.59
547.84	36107.44
548.00	36016.16
548.17	36201.07
548.34	36105.10
548.51	36402.35
548.67	36411.71
548.84	36301.71
549.01	36261.92
549.18	36229.15
549.34	35903.82
549.51	36070.00
549.68	36116.81
549.84	36322.77
550.01	36177.66
550.18	35950.63
550.34	36350.86
550.51	36327.45
550.68	35875.73
550.84	36278.30
551.01	36772.16
551.18	36046.59
551.34	36013.82
551.51	36030.21
551.68	36357.88
551.84	36308.73
552.01	36210.43
552.18	36882.16
552.34	36215.11
552.51	36486.61
552.68	36605.98
552.84	36463.21
553.01	36833.01
553.18	36390.65
553.34	36715.98
553.51	37137.28
553.67	36814.29
553.84	36989.83
554.01	36992.17
554.17	37029.62
554.34	37076.43
554.51	36458.52
554.67	37221.54
554.84	36790.88
555.00	36786.20
555.17	36957.06
555.33	36994.51
555.50	37230.90
555.67	37235.58
555.83	37127.92
556.00	36945.36
556.16	37312.82
556.33	37092.81
556.50	37205.16
556.66	37303.46
556.83	36884.50
556.99	37361.97
557.16	37254.31
557.32	36907.91
557.49	37013.23
557.65	37043.66
557.82	36966.42
557.98	37111.53
558.15	36959.40
558.32	37418.14
558.48	37436.87
558.65	37436.87
558.81	37521.13
558.98	37432.19
559.14	37418.14
559.31	37467.30
559.47	37368.99
559.64	37340.91
559.80	37572.62
559.97	37893.27
560.13	37684.97
560.30	37312.82
560.46	37848.80
560.63	37591.34
560.79	37553.90
560.96	37560.92
561.12	37383.04
561.29	37656.88
561.45	37483.68
561.61	37586.66
561.78	37855.82
561.94	37593.68
562.11	37661.56
562.27	37483.68
562.44	37799.65
562.60	37256.65
562.77	37942.42
562.93	37865.19
563.10	38387.13
563.26	37343.25
563.42	37607.73
563.59	37846.46
563.75	37532.83
563.92	37996.26
564.08	37797.31
564.24	37963.49
564.41	37156.00
564.57	37193.45
564.74	37429.85
564.90	37816.04
565.07	37809.01
565.23	37841.78
565.39	37867.53
565.56	37806.67
565.72	37504.74
565.88	37546.87
566.05	37607.73
566.21	37380.70
566.38	37694.33
566.54	37900.29
566.70	38260.74
566.87	38323.93
567.03	38286.48
567.19	38525.22
567.36	37694.33
567.52	37368.99
567.68	38157.75
567.85	37895.61
568.01	37684.97
568.17	37762.20
568.34	38103.92
568.50	37851.14
568.66	37670.92
568.83	38401.17
568.99	37607.73
569.15	38082.86
569.32	38143.71
569.48	37776.25
569.64	37745.82
569.81	38101.58
569.97	38117.96
570.13	38309.89
570.30	38087.54
570.46	37982.21
570.62	38073.49
570.78	37858.17
570.95	37537.51
571.11	37823.06
571.27	37806.67
571.43	37801.99
571.60	38389.47
571.76	37684.97
571.92	37771.57
572.09	37816.04
572.25	37965.83
572.41	38260.74
572.57	38326.27
572.74	38347.34
572.90	37790.29
573.06	38150.73
573.22	37975.19
573.38	37977.53
573.55	38223.29
573.71	38373.08
573.87	38672.67
574.03	37972.85
574.20	37673.26
574.36	37752.84
574.52	38340.32
574.68	37464.96
574.84	38171.80
575.01	38169.46
575.17	37771.57
575.33	38110.94
575.49	38305.21
575.65	38792.04
575.82	38593.09
575.98	38033.71
576.14	38082.86
576.30	38433.94
576.46	38139.03
576.62	38239.67
576.79	38073.49
576.95	38239.67
577.11	38277.12
577.27	38239.67
577.43	38485.43
577.59	38202.22
577.75	38024.34
577.92	37762.20
578.08	38141.37
578.24	38143.71
578.40	38298.19
578.56	38103.92
578.72	38576.71
578.88	39126.74
579.04	38429.26
579.21	38143.71
579.37	38813.10
579.53	38415.21
579.69	38038.39
579.85	38012.64
580.01	38209.25
580.17	38293.50
580.33	37982.21
580.49	38113.28
580.65	38440.96
580.82	38525.22
580.98	38335.63
581.14	38031.36
581.30	38141.37
581.46	37848.80
581.62	38249.03
581.78	38057.11
581.94	38555.64
582.10	38342.66
582.26	38326.27
582.42	38543.94
582.58	38539.26
582.74	38546.28
582.90	38234.99
583.06	38120.31
583.22	38078.18
583.38	38185.84
583.54	38246.69
583.70	38122.65
583.86	38487.77
584.02	38305.21
584.18	38143.71
584.34	38319.25
584.50	38295.85
584.66	38260.74
584.82	38307.55
584.98	38527.56
585.14	38443.30
585.30	38375.42
585.46	38108.60
585.62	38277.12
585.78	38391.81
585.94	38050.09
586.10	38440.96
586.26	38445.64
586.42	38333.29
586.58	38438.62
586.74	38265.42
586.90	38155.41
587.06	37909.66
587.22	38389.47
587.38	37956.47
587.54	38604.80
587.70	38555.64
587.86	38773.31
588.02	38417.55
588.18	38899.70
588.34	38707.78
588.49	37902.64
588.65	38447.98
588.81	38319.25
588.97	38230.31
589.13	38562.67
589.29	38312.23
589.45	38370.74
589.61	38281.80
589.77	38469.04
589.93	38562.67
590.08	38803.74
590.24	38492.45
590.40	38773.31
590.56	38848.21
590.72	38480.75
590.88	38583.73
591.04	38436.28
591.20	38911.41
591.35	38525.22
591.51	38981.62
591.67	38925.45
591.83	38986.30
591.99	38768.63
592.15	38862.26
592.31	38202.22
592.46	38775.66
592.62	38223.29
592.78	38778.00
592.94	38611.82
593.10	38665.65
593.26	38602.46
593.41	38862.26
593.57	38663.31
593.73	38426.92
593.89	39119.71
594.05	38983.96
594.20	38560.33
594.36	39005.03
594.52	38670.33
594.68	38256.06
594.84	38199.88
594.99	38686.71
595.15	38696.08
595.31	38888.00
595.47	38171.80
595.62	39028.43
595.78	38471.39
595.94	38625.86
596.10	38742.89
596.25	38541.60
596.41	38726.50
596.57	38319.25
596.73	38703.10
596.88	38504.15
597.04	38728.84
597.20	38345.00
597.36	38703.10
597.51	39086.95
597.67	38380.10
597.83	38211.59
597.99	38370.74
598.14	38562.67
598.30	38237.33
598.46	38539.26
598.61	38803.74
598.77	38560.33
598.93	38553.30
599.09	38089.88
599.24	39295.25
599.40	38520.54
599.56	38562.67
599.71	38651.61
599.87	38944.17
600.03	38408.19
600.18	38756.93
600.34	38962.90
600.50	38579.05
600.65	38536.92
600.81	39016.73
600.97	38572.03
601.12	39386.54
601.28	38923.11
601.44	38745.23
601.59	38728.84
601.75	38579.05
601.91	38707.78
602.06	38581.39
602.22	38696.08
602.37	38164.78
602.53	38604.80
602.69	38408.19
602.84	38431.60
603.00	38639.90
603.16	39089.29
603.31	38686.71
603.47	38483.09
603.62	38560.33
603.78	38611.82
603.94	38864.60
604.09	38546.28
604.25	38328.61
604.40	38586.07
604.56	38471.39
604.71	38857.57
604.87	38529.90
605.03	38541.60
605.18	38965.24
605.34	38485.43
605.49	38195.20
605.65	38227.97
605.80	38129.67
605.96	38569.69
606.12	38586.07
606.27	38176.48
606.43	37996.26
606.58	38265.42
606.74	38623.52
606.89	38455.00
607.05	38302.87
607.20	38263.08
607.36	38384.79
607.51	38052.43
607.67	37596.03
607.82	37654.54
607.98	38050.09
608.13	38040.73
608.29	37991.58
608.44	38536.92
608.60	38234.99
608.75	38366.06
608.91	38490.11
609.06	37961.15
609.22	38244.35
609.37	37921.36
609.53	37874.55
609.68	38284.14
609.84	38019.66
609.99	38501.81
610.15	38103.92
610.30	38347.34
610.46	38352.02
610.61	38969.92
610.76	38775.66
610.92	38845.87
611.07	39206.31
611.23	39007.37
611.38	38888.00
611.54	38738.21
611.69	38279.46
611.84	38267.76
612.00	38129.67
612.15	37734.12
612.31	37640.50
612.46	38052.43
612.62	38377.76
612.77	38230.31
612.92	38480.75
613.08	37682.62
613.23	37942.42
613.39	37876.89
613.54	37720.07
613.69	37776.25
613.85	37500.06
614.00	37553.90
614.15	37886.25
614.31	37460.27
614.46	37670.92
614.62	37682.62
614.77	37897.95
614.92	37748.16
615.08	37757.52
615.23	37364.31
615.38	37720.07
615.54	37195.79
615.69	37422.83
615.84	36975.78
616.00	37235.58
616.15	37120.90
616.30	37516.45
616.46	37816.04
616.61	37488.36
616.76	37425.17
616.92	37298.78
617.07	37511.77
617.22	37074.09
617.37	36645.77
617.53	36835.35
617.68	37017.91
617.83	37113.87
617.99	37156.00
618.14	36947.70
618.29	37172.39
618.45	36924.29
618.60	36767.48
618.75	36837.69
618.90	36903.23
619.06	36926.63
619.21	36978.12
619.36	36994.51
619.51	36348.52
619.67	36531.08
619.82	36151.91
619.97	36531.08
620.12	36479.59
620.28	36652.79
620.43	36767.48
620.58	36877.48
620.73	36594.28
620.89	36814.29
621.04	36762.79
621.19	36458.52
621.34	36510.02
621.49	36556.83
621.65	36428.10
621.80	36603.64
621.95	36044.25
622.10	36554.49
622.25	36519.38
622.41	36531.08
622.56	36404.69
622.71	36767.48
622.86	36418.74
623.01	35922.54
623.16	36273.62
623.32	36264.26
623.47	36156.60
623.62	36126.17
623.77	35761.05
623.92	36123.83
624.07	36112.13
624.23	36105.10
624.38	36168.30
624.53	36093.40
624.68	36203.41
624.83	36006.80
624.98	35959.99
625.13	35959.99
625.29	36390.65
625.44	35622.95
625.59	36006.80
625.74	35424.01
625.89	35505.93
626.04	35522.31
626.19	35744.66
626.34	35494.22
626.49	35704.87
626.65	35768.07
626.80	35894.46
626.95	35433.37
627.10	35557.42
627.25	36002.12
627.40	35253.15
627.55	35618.27
627.70	35398.26
627.85	35508.27
628.00	35225.06
628.15	35552.74
628.30	35180.59
628.45	35725.94
628.60	35629.98
628.76	35646.36
628.91	35534.01
629.06	35297.62
629.21	35365.49
629.36	35496.56
629.51	35442.73
629.66	35363.15
629.81	35021.44
629.96	35002.71
630.11	34747.59
630.26	34951.22
630.41	35117.40
630.56	34878.66
630.71	35414.65
630.86	35220.38
631.01	35145.48
631.16	35386.56
631.31	34976.97
631.46	35257.83
631.61	35007.39
631.76	35206.34
631.91	34850.58
632.06	34913.77
632.21	34754.61
632.36	34735.89
632.51	34494.82
632.66	34813.13
632.81	34602.48
632.96	34838.87
633.10	34789.72
633.25	34590.78
633.40	34740.57
633.55	34918.45
633.70	34466.73
633.85	34412.90
634.00	34096.92
634.15	34373.11
634.30	34316.93
634.45	34174.16
634.60	34583.76
634.75	34536.94
634.90	34562.69
635.05	34408.22
635.19	34363.75
635.34	34529.92
635.49	34754.61
635.64	34272.46
635.79	34092.24
635.94	33928.41
636.09	34326.30
636.24	34213.95
636.39	34349.70
636.53	33802.02
636.68	34125.01
636.83	34190.55
636.98	34162.46
637.13	34443.32
637.28	34380.13
637.43	34593.12
637.57	34050.11
637.72	34319.28
637.87	33895.64
638.02	34101.61
638.17	34160.12
638.32	33853.51
638.46	33820.74
638.61	33675.63
638.76	33638.18
638.91	33610.09
639.06	33926.07
639.20	33727.12
639.35	34106.29
639.50	33570.30
639.65	33624.14
639.80	33708.40
639.94	33841.81
640.09	33153.69
640.24	33542.22
640.39	33656.90
640.54	33024.96
640.68	33354.97
640.83	33862.87
640.98	33310.50
641.13	33081.13
641.27	33359.66
641.42	33296.46
641.57	33525.83
641.72	33362.00
641.86	33443.91
642.01	33230.93
642.16	33003.89
642.31	33244.97
642.45	33666.27
642.60	33097.52
642.75	33233.27
642.90	33390.08
643.04	33003.89
643.19	33153.69
643.34	33303.48
643.48	33076.45
643.63	33326.89
643.78	33259.01
643.93	33479.02
644.07	33315.19
644.22	33109.22
644.37	33158.37
644.51	33490.73
644.66	33184.12
644.81	33212.20
644.95	33298.80
645.10	32821.33
645.25	32868.14
645.39	33324.55
645.54	32926.66
645.69	33046.02
645.83	32856.44
645.98	32753.46
646.13	32919.63
646.27	32961.76
646.42	32957.08
646.57	32402.38
646.71	32641.11
646.86	32968.79
647.00	32783.88
647.15	32474.93
647.30	32889.21
647.44	32566.21
647.59	32542.81
647.74	32102.79
647.88	32617.71
648.03	32790.91
648.17	32797.93
648.32	32533.45
648.47	32814.31
648.61	32720.69
648.76	32067.68
648.90	32402.38
649.05	32577.92
649.20	32313.44
649.34	32311.10
649.49	32467.91
649.63	32067.68
649.78	32624.73
649.92	31964.70
650.07	32446.85
650.21	32381.31
650.36	32397.70
650.51	32177.68
650.65	32369.61
650.80	32151.94
650.94	32353.23
651.09	32173.00
651.23	31700.22
651.38	32212.79
651.52	31880.44
651.67	31967.04
651.81	31723.62
651.96	31742.35
652.10	31749.37
652.25	32105.13
652.39	31838.31
652.54	31983.42
652.68	32119.17
652.83	32194.07
652.97	32079.38
653.12	31798.52
653.26	31871.07
653.41	32325.14
653.55	32020.87
653.70	31873.42
653.84	31938.95
653.99	31756.39
654.13	31424.03
654.27	31693.19
654.42	31737.66
654.56	31796.18
654.71	31637.02
654.85	31744.69
655.00	31838.31
655.14	31524.68
655.29	31255.51
655.43	31405.31
655.57	31363.18
655.72	31412.33
655.86	31487.23
656.01	31311.69
656.15	31491.91
656.30	31456.80
656.44	31262.54
656.58	31262.54
656.73	31358.50
656.87	31477.86
657.01	31384.24
657.16	31627.66
657.30	31213.38
657.45	31283.60
657.59	31402.97
657.73	30976.99
657.88	31070.61
658.02	31016.78
658.16	31072.95
658.31	30925.50
658.45	30721.87
658.60	30911.46
658.74	30618.89
658.88	30848.26
659.03	31000.40
659.17	30792.09
659.31	31023.80
659.46	31026.14
659.60	31110.40
659.74	30897.41
659.89	30724.21
660.03	30785.07
660.17	30764.00
660.32	30707.83
660.46	30668.04
660.60	30134.40
660.74	30265.47
660.89	30272.49
661.03	30162.48
661.17	30511.22
661.32	30183.55
661.46	30696.13
661.60	30125.04
661.74	30382.49
661.89	30176.53
662.03	30352.07
662.17	30312.28
662.31	29947.15
662.46	30293.55
662.60	30031.41
662.74	30148.44
662.88	29708.42
663.03	29809.06
663.17	29862.90
663.31	29441.60
663.45	29603.10
663.60	30059.50
663.74	29626.50
663.88	29893.32
664.02	29418.19
664.17	29956.52
664.31	29792.68
664.45	29350.32
664.59	29537.56
664.73	29722.46
664.88	29645.23
665.02	29081.16
665.16	29329.25
665.30	28957.11
665.44	29443.94
665.59	28793.27
665.73	28952.43
665.87	28900.94
666.01	29085.84
666.15	29359.68
666.29	29244.99
666.44	29127.97
666.58	28779.23
666.72	29046.05
666.86	28844.76
667.00	29020.30
667.14	28676.24
667.28	28863.49
667.43	28570.92
667.57	28472.62
667.71	28315.80
667.85	28294.74
667.99	28435.17
668.13	28371.97
668.27	28463.25
668.41	28652.84
668.56	28325.16
668.70	28500.70
668.84	28444.53
668.98	28627.09
669.12	28425.81
669.26	28563.90
669.40	28348.57
669.54	28177.71
669.68	28105.15
669.82	27674.49
669.96	27871.10
670.10	27946.00
670.25	27800.88
670.39	27840.67
670.53	27580.87
670.67	27328.10
670.81	27543.42
670.95	27714.28
671.09	27440.44
671.23	27683.86
671.37	27747.05
671.51	27410.01
671.65	27379.59
671.79	27349.16
671.93	27578.53
672.07	26960.63
672.21	27042.55
672.35	26948.93
672.49	26529.97
672.63	27101.06
672.77	26684.45
672.91	26899.78
673.05	27007.44
673.19	26525.29
673.33	26822.54
673.47	26946.59
673.61	26759.34
673.75	26885.73
673.89	26607.21
674.03	26993.40
674.17	26464.44
674.31	26319.32
674.45	26333.37
674.59	26122.72
674.73	26052.50
674.87	26169.53
675.01	26089.95
675.15	25940.16
675.29	25825.47
675.43	25907.39
675.56	25769.30
675.70	25752.91
675.84	25926.11
675.98	25172.46
676.12	25860.58
676.26	25668.66
676.40	25481.41
676.54	25551.63
676.68	25837.17
676.82	24800.32
676.96	25142.03
677.10	25064.80
677.23	24809.68
677.37	25060.12
677.51	24905.64
677.65	24814.36
677.79	24678.61
677.93	24409.45
678.07	24538.18
678.21	24482.00
678.34	24526.47
678.48	24694.99
678.62	24634.14
678.76	24306.46
678.90	24063.05
679.04	24350.93
679.18	24341.57
679.31	24002.19
679.45	23903.89
679.59	23868.78
679.73	23641.75
679.87	23721.33
680.00	23257.90
680.14	23419.40
680.28	23487.28
680.42	23440.47
680.56	23276.63
680.70	23239.18
680.83	23461.53
680.97	23178.33
681.11	23372.59
681.25	23323.44
681.39	23096.41
681.52	23030.87
681.66	23206.41
681.80	22895.12
681.94	22586.17
682.07	22698.52
682.21	22169.55
682.35	22419.99
682.49	22181.26
682.62	22544.04
682.76	22195.30
682.90	22487.87
683.04	22314.67
683.17	22148.49
683.31	21963.59
683.45	21937.84
683.59	22059.55
683.72	22118.06
683.86	21628.89
684.00	21750.60
684.13	21518.89
684.27	21715.49
684.41	21319.94
684.55	21083.55
684.68	21050.78
684.82	21118.65
684.96	21085.89
685.09	20886.94
685.23	21357.39
685.37	21116.31
685.50	20917.37
685.64	21092.91
685.78	20816.72
685.91	20631.82
686.05	20819.07
686.19	20606.08
686.32	20886.94
686.46	20678.63
686.60	20386.07
686.73	20198.82
686.87	20222.23
687.01	20112.22
687.14	19978.81
687.28	20161.37
687.42	19908.60
687.55	19751.78
687.69	20020.94
687.82	19864.13
687.96	19871.15
688.10	19576.24
688.23	19903.92
688.37	19360.91
688.50	19625.39
688.64	19477.94
688.78	19531.77
688.91	19180.69
689.05	19255.59
689.18	19157.28
689.32	18450.44
689.46	18649.39
689.59	18853.02
689.73	19049.62
689.86	18740.67
690.00	18672.79
690.13	18857.70
690.27	18431.72
690.41	18508.96
690.54	18052.55
690.68	18403.63
690.81	18403.63
690.95	18333.42
691.08	18450.44
691.22	18134.47
691.35	18118.09
691.49	18054.89
691.62	18141.49
691.76	17858.29
691.89	17500.19
692.03	17654.66
692.16	17635.94
692.30	17399.54
692.43	17371.46
692.57	17497.84
692.70	17532.95
692.84	17362.09
692.97	17242.73
693.11	17383.16
693.24	17252.09
693.38	16931.44
693.51	16901.01
693.65	17181.87
693.78	17179.53
693.92	16854.20
694.05	16940.80
694.19	16643.55
694.32	16617.80
694.45	16468.01
694.59	16348.64
694.72	16222.25
694.86	16208.21
694.99	16196.51
695.13	16269.06
695.26	16123.95
695.39	16109.91
695.53	16137.99
695.66	16322.90
695.80	15932.03
695.93	15723.72
696.07	15791.59
696.20	15899.26
696.33	15681.59
696.47	15864.15
696.60	15740.10
696.73	15550.52
696.87	15625.42
697.00	15386.68
697.14	15204.12
697.27	14892.83
697.40	15047.30
697.54	14885.81
697.67	14848.36
697.80	14890.49
697.94	14927.94
698.07	14876.44
698.21	14586.22
698.34	14974.75
698.47	14530.05
698.61	14471.53
698.74	14459.83
698.87	14752.40
699.01	14403.66
699.14	14214.07
699.27	14277.27
699.40	14450.47
699.54	14230.46
699.67	14291.31
699.80	14202.37
699.94	13795.12
700.07	13853.63
700.20	13619.58
700.34	13490.85
700.47	13673.41
700.60	13771.71
700.73	13699.16
700.87	13525.96
701.00	13284.88
701.13	13554.04
701.26	13624.26
701.40	13444.04
701.53	13455.74
701.66	13238.07
701.79	12823.80
701.93	13294.24
702.06	12805.07
702.19	12830.82
702.32	12999.34
702.46	12699.75
702.59	12774.64
702.72	12734.85
702.85	12643.57
702.99	12585.06
703.12	12585.06
703.25	12489.10
703.38	12271.43
703.51	12341.64
703.65	12418.88
703.78	12074.82
703.91	12229.30
704.04	12287.81
704.17	12102.91
704.31	12210.57
704.44	12081.85
704.57	12088.87
704.70	11927.37
704.83	11819.71
704.96	11709.70
705.10	11712.04
705.23	11742.47
>>>>>End Processed Spectral Data<<<<<
