SpectraSuite Data File
++++++++++++++++++++++++++++++++++++
Date: Fri Oct 04 11:39:40 GMT-05:00 2013
User: price-jones
Dark Spectrum Present: No
Reference Spectrum Present: No
Number of Sampled Component Spectra: 1
Spectrometers: USB2+H05261
Integration Time (usec): 100000 (USB2+H05261)
Spectra Averaged: 1 (USB2+H05261)
Boxcar Smoothing: 0 (USB2+H05261)
Correct for Electrical Dark: No (USB2+H05261)
Strobe/Lamp Enabled: No (USB2+H05261)
Correct for Detector Non-linearity: No (USB2+H05261)
Correct for Stray Light: No (USB2+H05261)
Number of Pixels in Processed Spectrum: 2048
>>>>>Begin Processed Spectral Data<<<<<
365.73	121.71
365.92	121.71
366.12	121.71
366.32	0.00
366.52	0.00
366.72	0.00
366.91	0.00
367.11	0.00
367.31	0.00
367.51	0.00
367.70	0.00
367.90	0.00
368.10	0.00
368.30	0.00
368.49	0.00
368.69	0.00
368.89	0.00
369.09	0.00
369.28	0.00
369.48	0.00
369.68	0.00
369.87	0.00
370.07	7.02
370.27	0.00
370.47	79.58
370.66	290.23
370.86	285.55
371.06	278.52
371.25	322.99
371.45	325.33
371.65	327.68
371.84	313.63
372.04	395.55
372.24	304.27
372.44	390.87
372.63	332.36
372.83	414.27
373.03	362.78
373.22	362.78
373.42	372.15
373.62	362.78
373.81	444.70
374.01	397.89
374.21	409.59
374.40	475.13
374.60	507.90
374.79	414.27
374.99	465.77
375.19	456.40
375.38	433.00
375.58	404.91
375.78	454.06
375.97	428.32
376.17	510.24
376.37	472.79
376.56	430.66
376.76	437.68
376.95	449.38
377.15	404.91
377.35	407.25
377.54	407.25
377.74	428.32
377.93	533.64
378.13	472.79
378.33	444.70
378.52	425.98
378.72	496.19
378.91	423.64
379.11	428.32
379.31	519.60
379.50	468.11
379.70	507.90
379.89	561.73
380.09	524.28
380.28	477.47
380.48	454.06
380.68	484.49
380.87	475.13
381.07	559.39
381.26	610.88
381.46	585.13
381.65	594.50
381.85	564.07
382.04	517.26
382.24	603.86
382.43	582.79
382.63	641.31
382.83	528.96
383.02	624.92
383.22	624.92
383.41	599.18
383.61	629.60
383.80	608.54
384.00	564.07
384.19	643.65
384.39	620.24
384.58	585.13
384.78	545.34
384.97	603.86
385.17	615.56
385.36	603.86
385.56	627.26
385.75	627.26
385.95	620.24
386.14	678.76
386.34	690.46
386.53	629.60
386.72	697.48
386.92	739.61
387.11	645.99
387.31	674.07
387.50	667.05
387.70	620.24
387.89	716.20
388.09	683.44
388.28	648.33
388.48	688.12
388.67	748.97
388.86	702.16
389.06	678.76
389.25	648.33
389.45	732.59
389.64	725.57
389.84	748.97
390.03	772.38
390.22	812.17
390.42	812.17
390.61	732.59
390.81	772.38
391.00	732.59
391.19	744.29
391.39	748.97
391.58	851.96
391.78	791.10
391.97	875.36
392.16	863.66
392.36	866.00
392.55	844.93
392.75	929.19
392.94	835.57
393.13	882.38
393.33	826.21
393.52	833.23
393.71	901.11
393.91	861.32
394.10	793.44
394.29	837.91
394.49	1004.09
394.68	936.21
394.88	929.19
395.07	938.55
395.26	908.13
395.46	950.26
395.65	938.55
395.84	966.64
396.04	990.05
396.23	1004.09
396.42	985.37
396.62	980.68
396.81	985.37
397.00	940.90
397.19	1064.94
397.39	1029.84
397.58	1069.62
397.77	1076.65
397.97	1139.84
398.16	1107.07
398.35	1165.59
398.55	1071.97
398.74	1102.39
398.93	1095.37
399.12	1132.82
399.32	1139.84
399.51	1160.91
399.70	1107.07
399.90	1114.10
400.09	1217.08
400.28	1259.21
400.47	1156.22
400.67	1315.38
400.86	1254.53
401.05	1212.40
401.24	1228.78
401.44	1294.32
401.63	1371.55
401.82	1322.40
402.01	1380.92
402.21	1352.83
402.40	1334.11
402.59	1383.26
402.78	1387.94
402.97	1392.62
403.17	1404.32
403.36	1324.74
403.55	1383.26
403.74	1350.49
403.93	1507.30
404.13	1476.88
404.32	1481.56
404.51	1481.56
404.70	1549.43
404.89	1544.75
405.09	1521.35
405.28	1570.50
405.47	1547.09
405.66	1586.88
405.85	1631.35
406.05	1565.82
406.24	1650.08
406.43	1624.33
406.62	1629.01
406.81	1778.81
407.00	1713.27
407.20	1724.97
407.39	1762.42
407.58	1760.08
407.77	1783.49
407.96	1741.36
408.15	1802.21
408.34	1806.89
408.54	1743.70
408.73	1837.32
408.92	1849.02
409.11	1827.96
409.30	1933.28
409.49	1914.56
409.68	1886.47
409.87	1982.43
410.07	2003.50
410.26	2062.01
410.45	2076.06
410.64	2001.16
410.83	2076.06
411.02	2008.18
411.21	2235.21
411.40	2146.27
411.59	2062.01
411.78	2183.72
411.98	2162.66
412.17	2174.36
412.36	2197.76
412.55	2352.24
412.74	2338.20
412.93	2286.70
413.12	2324.15
413.31	2403.73
413.50	2422.45
413.69	2408.41
413.88	2448.20
414.07	2480.97
414.26	2576.93
414.45	2471.61
414.64	2574.59
414.83	2612.04
415.02	2705.66
415.22	2600.34
415.41	2675.23
415.60	2705.66
415.79	2640.12
415.98	2885.88
416.17	2761.83
416.36	2836.73
416.55	2729.06
416.74	2977.16
416.93	2813.32
417.12	2946.73
417.31	2899.92
417.50	2843.75
417.69	3052.06
417.88	2939.71
418.07	3068.44
418.26	3014.61
418.45	3082.49
418.64	3197.17
418.83	3087.17
419.02	3218.24
419.21	3166.74
419.39	3173.77
419.58	3173.77
419.77	3274.41
419.96	3243.98
420.15	3262.71
420.34	3208.87
420.53	3251.00
420.72	3384.41
420.91	3459.31
421.10	3445.27
421.29	3396.12
421.48	3447.61
421.67	3471.01
421.86	3365.69
422.05	3372.71
422.24	3548.25
422.43	3456.97
422.61	3482.72
422.80	3440.59
422.99	3583.36
423.18	3478.04
423.37	3606.77
423.56	3592.72
423.75	3592.72
423.94	3545.91
424.13	3379.73
424.32	3431.23
424.50	3588.04
424.69	3777.62
424.88	3812.73
425.07	3705.07
425.26	3583.36
425.45	3634.85
425.64	3768.26
425.83	3613.79
426.01	3716.77
426.20	3604.42
426.39	3684.00
426.58	3712.09
426.77	3627.83
426.96	3904.01
427.15	3625.49
427.33	3822.09
427.52	3693.37
427.71	3831.46
427.90	3850.18
428.09	3999.98
428.28	3955.51
428.46	3885.29
428.65	3894.65
428.84	4014.02
429.03	4002.32
429.22	4084.23
429.40	4011.68
429.59	4044.45
429.78	3960.19
429.97	3915.72
430.16	3901.67
430.34	4070.19
430.53	4131.05
430.72	4119.34
430.91	4079.55
431.10	4166.15
431.28	4313.61
431.47	4198.92
431.66	4187.22
431.85	4100.62
432.03	4465.74
432.22	4358.08
432.41	4320.63
432.60	4416.59
432.79	4390.84
432.97	4463.40
433.16	4369.78
433.35	4409.57
433.54	4290.20
433.72	4510.21
433.91	4400.21
434.10	4470.42
434.28	4498.51
434.47	4528.94
434.66	4535.96
434.85	4643.62
435.03	4734.90
435.22	4816.82
435.41	5179.61
435.59	4936.19
435.78	4924.49
435.97	4751.29
436.16	4716.18
436.34	4732.56
436.53	4807.46
436.72	4854.27
436.90	4622.56
437.09	4819.16
437.28	4870.65
437.46	4910.44
437.65	4947.89
437.84	5069.60
438.02	4947.89
438.21	5008.75
438.40	4798.10
438.58	5071.94
438.77	5104.71
438.96	5046.20
439.14	5231.10
439.33	5308.34
439.52	5331.74
439.70	5327.06
439.89	5324.72
440.08	5434.72
440.26	5348.12
440.45	5338.76
440.63	5427.70
440.82	5430.04
441.01	5350.46
441.19	5614.95
441.38	5692.18
441.57	5715.59
441.75	5715.59
441.94	5874.74
442.12	5631.33
442.31	5926.24
442.50	5827.93
442.68	5844.32
442.87	5783.46
443.05	5841.98
443.24	5919.21
443.43	5916.87
443.61	5905.17
443.80	6202.42
443.98	6008.16
444.17	5668.78
444.35	6024.54
444.54	6207.10
444.73	6083.05
444.91	5928.58
445.10	6080.71
445.28	6106.46
445.47	5989.43
445.65	5951.98
445.84	6244.55
446.02	6040.92
446.21	6038.58
446.39	6274.98
446.58	6120.50
446.77	6324.13
446.95	6113.48
447.14	6061.99
447.32	6202.42
447.51	6298.38
447.69	6076.03
447.88	6202.42
448.06	6122.84
448.25	6396.68
448.43	6342.85
448.62	6258.59
448.80	6270.30
448.99	6324.13
449.17	6443.49
449.36	6263.27
449.54	6485.62
449.73	6384.98
449.91	6471.58
450.10	6506.69
450.28	6663.51
450.46	6382.64
450.65	6445.84
450.83	6801.60
451.02	6696.27
451.20	6654.14
451.39	6707.98
451.57	6520.73
451.76	6677.55
451.94	6696.27
452.13	6717.34
452.31	6682.23
452.49	6686.91
452.68	6768.83
452.86	6867.13
453.05	6862.45
453.23	6923.30
453.42	6881.18
453.60	6888.20
453.78	6853.09
453.97	6672.87
454.15	6827.34
454.34	6963.09
454.52	6942.03
454.70	7143.32
454.89	7052.03
455.07	6974.80
455.26	7056.72
455.44	7199.49
455.62	7105.87
455.81	7009.90
455.99	7143.32
456.17	7276.73
456.36	7262.68
456.54	7349.28
456.73	7463.97
456.91	7588.02
457.09	7353.96
457.28	7538.87
457.46	7541.21
457.64	7513.12
457.83	7531.84
458.01	7597.38
458.19	7691.00
458.38	7637.17
458.56	7763.56
458.74	7793.98
458.93	7772.92
459.11	7911.01
459.29	7726.11
459.48	7873.56
459.66	7648.87
459.84	7960.16
460.03	8074.85
460.21	7892.29
460.39	8044.42
460.57	7812.71
460.76	8025.70
460.94	8175.49
461.12	7957.82
461.31	8154.43
461.49	8013.99
461.67	8067.83
461.85	8400.18
462.04	8159.11
462.22	8486.78
462.40	8180.17
462.59	8311.24
462.77	8472.74
462.95	8315.92
463.13	8219.96
463.32	8344.01
463.50	8430.61
463.68	8376.78
463.86	8496.14
464.05	8446.99
464.23	8379.12
464.41	8585.08
464.59	8226.98
464.78	8751.26
464.96	8578.06
465.14	8493.80
465.32	8760.63
465.50	8667.00
465.69	8982.98
465.87	8500.83
466.05	8564.02
466.23	8620.19
466.41	8884.67
466.60	8926.80
466.78	8706.79
466.96	8737.22
467.14	8695.09
467.32	8816.80
467.51	8985.32
467.69	8772.33
467.87	8985.32
468.05	8968.93
468.23	8887.01
468.41	8854.25
468.60	9118.73
468.78	9123.41
468.96	8903.40
469.14	9097.66
469.32	9137.45
469.50	9167.88
469.69	9200.65
469.87	9430.02
470.05	9280.22
470.23	9312.99
470.41	9423.00
470.59	9408.95
470.77	9163.20
470.95	9458.10
471.14	9610.24
471.32	9453.42
471.50	9781.10
471.68	9687.48
471.86	9668.75
472.04	9678.12
472.22	9729.61
472.40	9724.93
472.58	9968.34
472.77	9966.00
472.95	9982.38
473.13	10340.49
473.31	9966.00
473.49	10136.86
473.67	10176.65
473.85	10127.50
474.03	10373.25
474.21	10298.36
474.39	10518.37
474.57	10459.85
474.75	10593.26
474.93	10853.06
475.12	10537.09
475.30	10761.78
475.48	10682.20
475.66	10846.04
475.84	10717.31
476.02	11105.84
476.20	10977.11
476.38	11005.20
476.56	11393.73
476.74	11400.75
476.92	11323.51
477.10	11417.13
477.28	11358.62
477.46	11255.64
477.64	11658.21
477.82	11695.66
478.00	11913.33
478.18	11922.69
478.36	12037.38
478.54	12362.71
478.72	11784.60
478.90	12313.56
479.08	12315.90
479.26	12542.93
479.44	12423.56
479.62	12662.30
479.80	12507.82
479.98	12833.16
480.16	13018.06
480.34	13062.53
480.52	12903.37
480.70	13200.62
480.88	13104.66
481.06	13172.54
481.24	13125.72
481.41	13235.73
481.59	13483.83
481.77	13769.37
481.95	13825.54
482.13	13958.96
482.31	13980.02
482.49	14181.31
482.67	14300.67
482.85	14239.82
483.03	14534.73
483.21	14616.65
483.39	14642.39
483.57	14871.76
483.74	14944.32
483.92	14857.72
484.10	14857.72
484.28	15257.95
484.46	15737.76
484.64	15768.19
484.82	15492.01
485.00	15592.65
485.18	15878.19
485.35	16074.80
485.53	16189.49
485.71	16283.11
485.89	16439.92
486.07	16552.27
486.25	16493.76
486.43	16856.54
486.61	16760.58
486.78	16893.99
486.96	17109.32
487.14	17387.84
487.32	17298.90
487.50	17455.72
487.68	17645.30
487.85	17851.27
488.03	17940.21
488.21	18015.10
488.39	18038.51
488.57	18113.41
488.75	18113.41
488.92	18848.33
489.10	18888.12
489.28	18707.90
489.46	18621.30
489.64	18855.36
489.81	19468.58
489.99	18977.06
490.17	19480.28
490.35	19917.96
490.53	19566.88
490.70	19735.40
490.88	19932.00
491.06	20264.36
491.24	20159.03
491.41	20318.19
491.59	20629.48
491.77	20376.70
491.95	20648.21
492.13	21177.17
492.30	21074.18
492.48	21041.42
492.66	21053.12
492.84	21247.38
493.01	21226.32
493.19	21617.19
493.37	21322.28
493.54	22099.34
493.72	22281.90
493.90	21891.03
494.08	22094.66
494.25	22427.01
494.43	22551.06
494.61	22485.53
494.79	22665.75
494.96	22803.84
495.14	22860.01
495.32	23218.11
495.49	23218.11
495.67	23346.84
495.85	23407.70
496.02	23470.89
496.20	23723.67
496.38	23852.40
496.55	23688.56
496.73	24297.10
496.91	24215.18
497.09	24393.06
497.26	24119.22
497.44	24280.72
497.62	24610.73
497.79	24840.11
497.97	24699.67
498.14	24765.21
498.32	25057.78
498.50	25399.49
498.67	25441.62
498.85	25355.02
499.03	25715.47
499.20	25387.79
499.38	25865.26
499.56	25951.86
499.73	25968.24
499.91	26221.02
500.08	26457.42
500.26	25869.94
500.44	26345.07
500.61	26349.75
500.79	26155.49
500.97	26511.25
501.14	26792.11
501.32	26986.38
501.49	26703.17
501.67	26639.98
501.84	27051.91
502.02	27051.91
502.20	27332.78
502.37	27314.05
502.55	27129.15
502.72	27538.74
502.90	26955.95
503.07	27300.01
503.25	27861.74
503.43	27704.92
503.60	27386.61
503.78	27920.25
503.95	28149.62
504.13	27777.48
504.30	28341.55
504.48	28158.99
504.65	28442.19
504.83	28690.29
505.01	28631.77
505.18	28603.69
505.36	29219.25
505.53	28699.65
505.71	28390.70
505.88	29120.95
506.06	28599.01
506.23	29270.74
506.41	29383.09
506.58	29139.67
506.76	29717.78
506.93	29544.58
507.11	29514.16
507.28	29895.66
507.46	29642.88
507.63	29841.83
507.81	29954.18
507.98	29696.72
508.16	30110.99
508.33	29813.74
508.50	30485.48
508.68	30621.23
508.85	30373.13
509.03	30609.53
509.20	30602.50
509.38	30759.32
509.55	31187.64
509.73	30979.33
509.90	31026.14
510.08	30820.17
510.25	31021.46
510.42	31470.84
510.60	31487.23
510.77	31559.78
510.95	31779.79
511.12	31566.81
511.30	31627.66
511.47	31718.94
511.64	31868.73
511.82	31978.74
511.99	31892.14
512.17	32224.50
512.34	32313.44
512.51	32203.43
512.69	32336.84
512.86	32488.98
513.04	32821.33
513.21	32634.09
513.38	33067.09
513.56	33069.43
513.73	32727.71
513.90	32856.44
514.08	32872.82
514.25	33273.06
514.43	33074.11
514.60	33532.86
514.77	33500.09
514.95	33509.45
515.12	33095.18
515.29	33284.76
515.47	33263.69
515.64	33867.55
515.81	34101.61
515.99	33942.45
516.16	34319.28
516.33	34101.61
516.51	34433.96
516.68	33771.59
516.85	33900.32
517.03	34572.05
517.20	34206.93
517.37	34761.64
517.54	35044.84
517.72	34974.63
517.89	34237.36
518.06	34953.56
518.24	34593.12
518.41	34883.34
518.58	34462.05
518.75	34909.09
518.93	35536.35
519.10	35105.70
519.27	35255.49
519.45	35049.52
519.62	35817.22
519.79	35449.75
519.96	35093.99
520.14	35264.85
520.31	35384.22
520.48	35887.43
520.65	35697.85
520.83	36226.81
521.00	35845.30
521.17	35754.02
521.34	36095.74
521.52	36074.68
521.69	36105.10
521.86	36409.37
522.03	36474.91
522.20	36627.04
522.38	36390.65
522.55	36610.66
522.72	36746.41
522.89	36631.72
523.07	36622.36
523.24	36835.35
523.41	37336.23
523.58	37141.96
523.75	37130.26
523.92	36793.22
524.10	37076.43
524.27	37216.86
524.44	37380.70
524.61	37813.70
524.78	37563.26
524.96	37961.15
525.13	37745.82
525.30	37518.79
525.47	38010.30
525.64	37750.50
525.81	38258.40
525.98	37989.24
526.16	38251.38
526.33	37876.89
526.50	37904.98
526.67	38171.80
526.84	38075.84
527.01	38113.28
527.18	38396.49
527.36	38403.51
527.53	38424.57
527.70	38763.95
527.87	38937.15
528.04	38780.34
528.21	38150.73
528.38	38623.52
528.55	39077.58
528.72	38583.73
528.89	39173.55
529.07	39391.22
529.24	39005.03
529.41	39337.38
529.58	38588.41
529.75	38646.93
529.92	39210.99
530.09	38998.01
530.26	38939.49
530.43	39140.78
530.60	38965.24
530.77	39419.30
530.94	39742.30
531.11	39344.41
531.28	39606.55
531.46	39615.91
531.63	39892.09
531.80	39864.00
531.97	40018.48
532.14	39997.41
532.31	40390.62
532.48	40229.13
532.65	39927.20
532.82	40119.12
532.99	39758.68
533.16	39833.58
533.33	40254.87
533.50	40460.84
533.67	40594.25
533.84	40091.04
534.01	40350.84
534.18	40170.61
534.35	40652.76
534.52	40788.52
534.69	41010.87
534.86	40816.60
535.03	40498.29
535.20	40657.45
535.37	40524.04
535.54	41315.14
535.71	40896.18
535.88	41104.49
536.05	41198.11
536.22	41251.94
536.38	41441.53
536.55	41322.16
536.72	41490.68
536.89	40727.66
537.06	41301.09
537.23	41242.58
537.40	41270.67
537.57	41282.37
537.74	41305.77
537.91	42005.59
538.08	41832.39
538.25	41797.29
538.42	41483.66
538.59	42153.05
538.75	41614.72
538.92	41656.85
539.09	42000.91
539.26	42377.74
539.43	41874.52
539.60	41890.91
539.77	42359.02
539.94	42443.27
540.11	42190.50
540.28	42478.38
540.44	42267.73
540.61	42160.07
540.78	42181.13
540.95	42520.51
541.12	42511.15
541.29	43519.92
541.46	43047.13
541.62	42689.03
541.79	42866.91
541.96	42532.22
542.13	42440.93
542.30	43440.34
542.47	43339.70
542.63	42906.70
542.80	43463.75
542.97	43435.66
543.14	43353.74
543.31	43110.33
543.48	43515.24
543.64	43913.13
543.81	43531.62
543.98	43753.97
544.15	44481.88
544.32	43856.96
544.48	44339.11
544.65	43753.97
544.82	43555.03
544.99	43632.27
545.16	44137.82
545.32	43732.91
545.49	44374.22
545.66	44949.99
545.83	44690.19
546.00	44905.52
546.16	44486.56
546.33	43789.08
546.50	43992.71
546.67	43700.14
546.83	43728.23
547.00	44072.29
547.17	44072.29
547.34	43896.75
547.50	44538.05
547.67	44741.68
547.84	44133.14
548.00	44561.46
548.17	44224.42
548.34	44194.00
548.51	44428.05
548.67	44858.71
548.84	44889.13
549.01	44325.07
549.18	44289.96
549.34	44023.14
549.51	44194.00
549.68	44285.28
549.84	44524.01
550.01	44479.54
550.18	44624.65
550.34	44900.84
550.51	44610.61
550.68	44917.22
550.84	44729.98
551.01	45146.59
551.18	44423.37
551.34	45141.91
551.51	44832.96
551.68	45062.33
551.84	45008.50
552.01	44865.73
552.18	45207.45
552.34	45001.48
552.51	44596.57
552.68	44676.15
552.84	44650.40
553.01	44645.72
553.18	45167.66
553.34	45151.27
553.51	44959.35
553.67	44992.12
553.84	45401.71
554.01	45401.71
554.17	45240.21
554.34	45375.97
554.51	45254.26
554.67	45471.93
554.84	45249.58
555.00	45577.25
555.17	45401.71
555.33	45436.82
555.50	45256.60
555.67	45310.43
555.83	45338.52
556.00	45532.78
556.16	46017.27
556.33	45158.30
556.50	45605.34
556.66	46059.40
556.83	45546.82
556.99	46171.75
557.16	45352.56
557.32	46057.06
557.49	46216.22
557.65	45668.53
557.82	45848.75
557.98	45890.88
558.15	45867.48
558.32	45645.13
558.48	45612.36
558.65	45436.82
558.81	45998.55
558.98	45947.06
559.14	45930.67
559.31	45794.92
559.47	45357.24
559.64	45752.79
559.80	45949.40
559.97	45823.01
560.13	45574.91
560.30	46129.62
560.46	46354.31
560.63	46398.78
560.79	46363.67
560.96	46038.34
561.12	46260.69
561.29	45890.88
561.45	46457.29
561.61	46333.24
561.78	46595.38
561.94	45998.55
562.11	46384.74
562.27	45911.95
562.44	46459.63
562.60	46178.77
562.77	46323.88
562.93	45844.07
563.10	46429.21
563.26	46160.05
563.42	46754.54
563.59	46347.29
563.75	46600.07
563.92	46665.60
564.08	46213.88
564.24	46483.04
564.41	46469.00
564.57	46265.37
564.74	46241.96
564.90	46473.68
565.07	46822.42
565.23	45844.07
565.39	46380.06
565.56	46539.21
565.72	46225.58
565.88	46246.65
566.05	46057.06
566.21	46305.16
566.38	46459.63
566.54	46576.66
566.70	46653.90
566.87	47255.42
567.03	46691.35
567.19	46995.62
567.36	46120.26
567.52	46457.29
567.68	46590.70
567.85	46707.73
568.01	46560.28
568.17	46405.80
568.34	47070.51
568.50	46663.26
568.66	46831.78
568.83	46859.87
568.99	46543.89
569.15	46419.84
569.32	46440.91
569.48	46192.81
569.64	46780.29
569.81	46642.20
569.97	46925.40
570.13	46696.03
570.30	46546.23
570.46	46883.27
570.62	46192.81
570.78	46480.70
570.95	46916.04
571.11	46529.85
571.27	46794.33
571.43	46347.29
571.60	46663.26
571.76	46927.74
571.92	46988.60
572.09	47065.83
572.25	46747.52
572.41	46972.21
572.57	46976.89
572.74	46993.28
572.90	47555.00
573.06	46831.78
573.22	46836.46
573.38	46770.93
573.55	46913.70
573.71	47220.31
573.87	46939.44
574.03	47281.16
574.20	47051.79
574.36	46616.45
574.52	47019.02
574.68	46574.32
574.84	46834.12
575.01	46794.33
575.17	46651.56
575.33	46417.50
575.49	46698.37
575.65	47061.15
575.82	46773.27
575.98	47016.68
576.14	47241.37
576.30	47150.09
576.46	46925.40
576.62	46703.05
576.79	47140.73
576.95	46712.41
577.11	46789.65
577.27	47075.19
577.43	46894.97
577.59	46799.01
577.75	46696.03
577.92	46717.09
578.08	46937.10
578.24	46738.16
578.40	46951.15
578.56	46850.50
578.72	46932.42
578.88	47501.17
579.04	47737.57
579.21	46986.25
579.37	46941.78
579.53	47096.26
579.69	46799.01
579.85	47154.77
580.01	47276.48
580.17	46880.93
580.33	47072.85
580.49	47122.01
580.65	47276.48
580.82	46909.02
580.98	47232.01
581.14	46710.07
581.30	47014.34
581.46	46677.30
581.62	46791.99
581.78	46532.19
581.94	47084.56
582.10	46951.15
582.26	46885.61
582.42	46918.38
582.58	47093.92
582.74	46815.40
582.90	47028.38
583.06	46932.42
583.22	47241.37
583.38	46829.44
583.54	46623.47
583.70	46845.82
583.86	47051.79
584.02	46897.31
584.18	47325.63
584.34	47114.98
584.50	47054.13
584.66	47117.32
584.82	46344.95
584.98	47089.24
585.14	47051.79
585.30	46810.71
585.46	46890.29
585.62	46918.38
585.78	47042.43
585.94	46902.00
586.10	47164.14
586.26	47264.78
586.42	46557.94
586.58	47093.92
586.74	47051.79
586.90	46546.23
587.06	46766.24
587.22	46925.40
587.38	46873.91
587.54	46799.01
587.70	47224.99
587.86	46834.12
588.02	47117.32
588.18	47447.34
588.34	47407.55
588.49	46927.74
588.65	46721.77
588.81	47374.78
588.97	46993.28
589.13	47047.11
589.29	46691.35
589.45	47405.21
589.61	47405.21
589.77	47203.92
589.93	47496.49
590.08	47494.15
590.24	47648.63
590.40	47473.09
590.56	47327.97
590.72	47119.66
590.88	46756.88
591.04	46799.01
591.20	47627.56
591.35	47217.97
591.51	47906.08
591.67	47246.05
591.83	47449.68
591.99	47384.15
592.15	47288.18
592.31	47629.90
592.46	47360.74
592.62	46766.24
592.78	46834.12
592.94	47014.34
593.10	47281.16
593.26	47334.99
593.41	47241.37
593.57	47295.21
593.73	47110.30
593.89	47393.51
594.05	47274.14
594.20	47316.27
594.36	47498.83
594.52	47063.49
594.68	46845.82
594.84	46787.31
594.99	47489.47
595.15	47400.53
595.31	47634.58
595.47	47175.84
595.62	47559.69
595.78	47381.80
595.94	47253.08
596.10	47302.23
596.25	47187.54
596.41	47374.78
596.57	47203.92
596.73	47405.21
596.88	47007.32
597.04	47866.30
597.20	47049.45
597.36	47402.87
597.51	47728.20
597.67	47232.01
597.83	47367.76
597.99	47119.66
598.14	47124.35
598.30	47276.48
598.46	47124.35
598.61	47423.93
598.77	46824.76
598.93	46962.85
599.09	47274.14
599.24	47896.72
599.40	47641.60
599.56	47072.85
599.71	47526.92
599.87	47475.43
600.03	47412.23
600.18	47246.05
600.34	47547.98
600.50	47154.77
600.65	46951.15
600.81	47285.84
600.97	47466.06
601.12	47398.19
601.28	47370.10
601.44	47519.90
601.59	47091.58
601.75	47100.94
601.91	47201.58
602.06	47093.92
602.22	46932.42
602.37	46946.47
602.53	47260.10
602.69	47112.64
602.84	47035.41
603.00	47384.15
603.16	47061.15
603.31	46904.34
603.47	47201.58
603.62	46841.14
603.78	47306.91
603.94	47124.35
604.09	47440.32
604.25	47459.04
604.40	46941.78
604.56	47161.79
604.71	47433.30
604.87	46955.83
605.03	47021.36
605.18	47334.99
605.34	47564.37
605.49	46330.90
605.65	46864.55
605.80	46513.47
605.96	47168.82
606.12	46707.73
606.27	47274.14
606.43	46658.58
606.58	46672.62
606.74	47119.66
606.89	46653.90
607.05	47114.98
607.20	46836.46
607.36	46684.33
607.51	47229.67
607.67	46777.95
607.82	46614.11
607.98	46438.57
608.13	46871.57
608.29	46930.08
608.44	47016.68
608.60	46810.71
608.75	46878.59
608.91	47274.14
609.06	46763.90
609.22	47086.90
609.37	46307.50
609.53	46534.53
609.68	46653.90
609.84	46609.43
609.99	46707.73
610.15	46951.15
610.30	46894.97
610.46	46707.73
610.61	47302.23
610.76	47384.15
610.92	47374.78
611.07	47360.74
611.23	47437.98
611.38	47138.39
611.54	47122.01
611.69	46948.81
611.84	46822.42
612.00	46997.96
612.15	46506.44
612.31	47007.32
612.46	46773.27
612.62	46557.94
612.77	46625.81
612.92	46616.45
613.08	45989.19
613.23	46394.10
613.39	46021.95
613.54	46263.03
613.69	46096.85
613.85	45900.25
614.00	46202.18
614.15	46415.16
614.31	46094.51
614.46	46635.17
614.62	46361.33
614.77	46312.18
614.92	46085.15
615.08	46494.74
615.23	46122.60
615.38	46094.51
615.54	45591.30
615.69	45895.56
615.84	45848.75
616.00	45890.88
616.15	45633.42
616.30	45586.61
616.46	45429.80
616.61	45464.91
616.76	45762.15
616.92	45846.41
617.07	45883.86
617.22	45413.41
617.37	45546.82
617.53	45827.69
617.68	45696.62
617.83	45312.77
617.99	44992.12
618.14	45326.81
618.29	45551.51
618.45	45516.40
618.60	45614.70
618.75	45427.46
618.90	45509.38
619.06	45684.92
619.21	45057.65
619.36	45434.48
619.51	45083.40
619.67	44680.83
619.82	45024.89
619.97	45036.59
620.12	45113.83
620.28	44896.16
620.43	45509.38
620.58	45333.84
620.73	45202.77
620.89	44737.00
621.04	45233.19
621.19	45031.91
621.34	44898.50
621.49	44294.64
621.65	44645.72
621.80	44919.56
621.95	44638.70
622.10	44818.92
622.25	44889.13
622.41	44666.78
622.56	44903.18
622.71	45280.00
622.86	44790.83
623.01	44776.79
623.16	44596.57
623.32	44573.16
623.47	44524.01
623.62	44701.89
623.77	44783.81
623.92	44577.84
624.07	44292.30
624.23	44594.23
624.38	44903.18
624.53	44238.47
624.68	44355.49
624.83	44477.20
624.98	44528.69
625.13	44072.29
625.29	44350.81
625.44	44236.12
625.59	44336.77
625.74	43735.25
625.89	43819.51
626.04	44112.08
626.19	43583.12
626.34	43882.70
626.49	43580.78
626.65	43981.01
626.80	44158.89
626.95	43721.21
627.10	43929.51
627.25	44144.84
627.40	43777.38
627.55	43313.95
627.70	43597.16
627.85	43749.29
628.00	43388.85
628.15	43342.04
628.30	42904.36
628.45	43578.43
628.60	43618.22
628.76	43742.27
628.91	43812.49
629.06	43604.18
629.21	43786.74
629.36	43489.49
629.51	43510.56
629.66	43482.47
629.81	43136.07
629.96	43243.74
630.11	42941.81
630.26	43356.08
630.41	43320.98
630.56	42916.06
630.71	43384.17
630.86	43531.62
631.01	43250.76
631.16	43475.45
631.31	43192.25
631.46	43028.41
631.61	43133.73
631.76	43414.60
631.91	43133.73
632.06	42951.17
632.21	42670.31
632.36	42763.93
632.51	42309.86
632.66	42703.07
632.81	42471.36
632.96	43187.56
633.10	43016.71
633.25	42864.57
633.40	42295.82
633.55	42719.46
633.70	42501.79
633.85	42572.00
634.00	42539.24
634.15	42171.77
634.30	42356.67
634.45	41926.02
634.60	42302.84
634.75	42148.37
634.90	42305.18
635.05	42909.04
635.19	42602.43
635.34	42492.43
635.49	42370.72
635.64	42167.09
635.79	42085.17
635.94	42176.45
636.09	41745.80
636.24	42494.77
636.39	42256.03
636.53	42403.49
636.68	42057.09
636.83	42007.94
636.98	42300.50
637.13	41895.59
637.28	42450.30
637.43	42316.89
637.57	42122.62
637.72	41584.30
637.87	41827.71
638.02	41553.87
638.17	41881.55
638.32	41872.18
638.46	41588.98
638.61	41340.88
638.76	41167.68
638.91	41670.90
639.06	41640.47
639.20	42024.32
639.35	41890.91
639.50	41511.74
639.65	41989.21
639.80	41687.28
639.94	41420.46
640.09	41186.41
640.24	41116.19
640.39	41020.23
640.54	41071.72
640.68	40734.68
640.83	41006.19
640.98	41076.40
641.13	40701.92
641.27	41488.34
641.42	41034.27
641.57	40989.80
641.72	41413.44
641.86	41397.06
642.01	40919.59
642.16	40865.75
642.31	41106.83
642.45	40924.27
642.60	40821.28
642.75	40849.37
642.90	40973.42
643.04	40463.18
643.19	40769.79
643.34	41071.72
643.48	41031.93
643.63	40980.44
643.78	40481.91
643.93	41273.01
644.07	40404.67
644.22	40678.51
644.37	40573.19
644.51	40538.08
644.66	40673.83
644.81	40620.00
644.95	40641.06
645.10	40797.88
645.25	40821.28
645.39	40952.35
645.54	40652.76
645.69	40474.88
645.83	40486.59
645.98	40739.36
646.13	40758.09
646.27	40423.39
646.42	40643.40
646.57	40119.12
646.71	40208.06
646.86	40411.69
647.00	40320.41
647.15	39915.50
647.30	39962.31
647.44	39938.90
647.59	40243.17
647.74	39934.22
647.88	40224.45
648.03	40130.83
648.17	40348.50
648.32	40320.41
648.47	40575.53
648.61	39952.94
648.76	39864.00
648.90	39725.91
649.05	39562.08
649.20	39943.58
649.34	39974.01
649.49	39971.67
649.63	39763.36
649.78	39531.65
649.92	39966.99
650.07	40435.10
650.21	39676.76
650.36	39800.81
650.51	39587.82
650.65	39599.52
650.80	39784.43
650.94	39482.50
651.09	39569.10
651.23	39126.74
651.38	39826.56
651.52	39533.99
651.67	39351.43
651.81	39199.29
651.96	39115.03
652.10	39665.06
652.25	39405.26
652.39	39337.38
652.54	39419.30
652.68	39122.05
652.83	39648.68
652.97	39533.99
653.12	39358.45
653.26	39290.57
653.41	39276.53
653.55	39129.08
653.70	39005.03
653.84	38862.26
653.99	38838.85
654.13	38742.89
654.27	38841.19
654.42	38579.05
654.56	39054.18
654.71	38934.81
654.85	38958.22
655.00	39262.49
655.14	39122.05
655.29	38705.44
655.43	39072.90
655.57	38230.31
655.72	38609.48
655.86	38429.26
656.01	38747.57
656.15	38110.94
656.30	38384.79
656.44	38583.73
656.58	38745.23
656.73	38483.09
656.87	38438.62
657.01	38148.39
657.16	38637.56
657.30	38052.43
657.45	38539.26
657.59	38366.06
657.73	38440.96
657.88	38274.78
658.02	38026.68
658.16	38134.35
658.31	37951.79
658.45	38197.54
658.60	37806.67
658.74	37989.24
658.88	37846.46
659.03	37691.99
659.17	37839.44
659.31	37865.19
659.46	37958.81
659.60	38234.99
659.74	38246.69
659.89	37759.86
660.03	37462.61
660.17	37809.01
660.32	37825.40
660.46	37411.12
660.60	37233.24
660.74	37069.40
660.89	37364.31
661.03	36779.18
661.17	37310.48
661.32	36971.10
661.46	37270.69
661.60	37535.17
661.74	37109.19
661.89	37212.18
662.03	37251.97
662.17	36947.70
662.31	36641.09
662.46	36973.44
662.60	37184.09
662.74	36992.17
662.88	36278.30
663.03	36521.72
663.17	36835.35
663.31	36088.72
663.45	36533.42
663.60	36165.96
663.74	36528.74
663.88	36519.38
664.02	36491.29
664.17	36348.52
664.31	36088.72
664.45	36304.05
664.59	36650.45
664.73	35817.22
664.88	35901.48
665.02	35988.08
665.16	36247.88
665.30	36093.40
665.44	36119.15
665.59	35838.28
665.73	35700.19
665.87	35295.28
666.01	35779.77
666.15	35590.19
666.29	35503.59
666.44	35625.29
666.58	35782.11
666.72	35318.68
666.86	35501.25
667.00	35569.12
667.14	35491.88
667.28	34801.43
667.43	34974.63
667.57	35159.53
667.71	34745.25
667.85	34913.77
667.99	35035.48
668.13	34665.67
668.27	34452.69
668.41	34726.53
668.56	34462.05
668.70	34843.56
668.84	35063.57
668.98	34607.16
669.12	34689.08
669.26	34775.68
669.40	34246.72
669.54	34789.72
669.68	34251.40
669.82	33951.81
669.96	34029.05
670.10	33912.02
670.25	34286.51
670.39	33832.44
670.53	34160.12
670.67	33965.85
670.81	34209.27
670.95	34022.03
671.09	33841.81
671.23	33869.89
671.37	33766.91
671.51	33752.87
671.65	33956.49
671.79	33565.62
671.93	33310.50
672.07	33563.28
672.21	33099.86
672.35	33024.96
672.49	33291.78
672.63	33420.51
672.77	32744.09
672.91	33064.75
673.05	32744.09
673.19	33233.27
673.33	32598.98
673.47	32959.42
673.61	32650.47
673.75	32573.24
673.89	32449.19
674.03	32561.53
674.17	32627.07
674.31	32355.57
674.45	32194.07
674.59	32343.86
674.73	32095.77
674.87	31601.91
675.01	32116.83
675.15	32133.21
675.29	31927.25
675.43	31845.33
675.56	31838.31
675.70	31770.43
675.84	32018.53
675.98	30771.02
676.12	31421.69
676.26	31527.02
676.40	31534.04
676.54	31737.66
676.68	31644.04
676.82	30696.13
676.96	31248.49
677.10	31089.34
677.23	30771.02
677.37	30532.29
677.51	30558.03
677.65	30199.93
677.79	29972.90
677.93	30281.85
678.07	30209.29
678.21	29890.98
678.34	30274.83
678.48	30045.46
678.62	30054.82
678.76	29645.23
678.90	29600.76
679.04	29635.86
679.18	29694.38
679.31	29376.06
679.45	28893.91
679.59	28959.45
679.73	29127.97
679.87	29125.63
680.00	28959.45
680.14	28711.35
680.28	28879.87
680.42	28687.95
680.56	28671.56
680.70	28751.14
680.83	28460.91
680.97	28531.13
681.11	28577.94
681.25	28474.96
681.39	28077.07
681.52	28245.58
681.66	28126.22
681.80	27859.40
681.94	27871.10
682.07	27742.37
682.21	27503.64
682.35	27180.64
682.49	27536.40
682.62	27356.18
682.76	27161.92
682.90	27309.37
683.04	27353.84
683.17	26902.12
683.31	27000.42
683.45	27002.76
683.59	27002.76
683.72	27007.44
683.86	26689.13
684.00	26803.82
684.13	26448.05
684.27	26340.39
684.41	26267.83
684.55	26279.54
684.68	25956.54
684.82	25949.52
684.96	26022.08
685.09	25785.68
685.23	25729.51
685.37	25771.64
685.50	25926.11
685.64	25902.71
685.78	25521.20
685.91	25586.74
686.05	25575.03
686.19	25556.31
686.32	25493.12
686.46	25228.63
686.60	24671.59
686.73	25048.41
686.87	24776.91
687.01	24584.99
687.14	24610.73
687.28	24500.73
687.42	24435.19
687.55	24460.94
687.69	24325.19
687.82	24233.91
687.96	24254.97
688.10	24322.85
688.23	24203.48
688.37	23828.99
688.50	23920.28
688.64	23953.04
688.78	23892.19
688.91	23623.03
689.05	23688.56
689.18	23466.21
689.32	22876.40
689.46	23206.41
689.59	22930.23
689.73	23101.09
689.86	22843.63
690.00	22703.20
690.13	23133.86
690.27	23136.20
690.41	22963.00
690.54	22888.10
690.68	22738.30
690.81	22623.62
690.95	22782.77
691.08	22513.61
691.22	22410.63
691.35	22178.92
691.49	22141.47
691.62	21905.07
691.76	22197.64
691.89	21792.73
692.03	21373.77
692.16	21518.89
692.30	21614.85
692.43	21216.96
692.57	21472.07
692.70	21259.09
692.84	20968.86
692.97	21167.80
693.11	21160.78
693.24	21116.31
693.38	20964.18
693.51	21174.83
693.65	20940.77
693.78	20840.13
693.92	20954.82
694.05	20463.30
694.19	20390.75
694.32	20294.79
694.45	20334.57
694.59	20315.85
694.72	20058.39
694.86	19728.38
694.99	19957.75
695.13	19969.45
695.26	19819.66
695.39	19456.87
695.53	19943.70
695.66	19798.59
695.80	19644.12
695.93	19463.90
696.07	19302.40
696.20	19229.84
696.33	19480.28
696.47	19264.95
696.60	18965.36
696.73	19030.90
696.87	19007.49
697.00	18761.73
697.14	18686.84
697.27	18523.00
697.40	18197.67
697.54	18230.43
697.67	18183.62
697.80	18431.72
697.94	18141.49
698.07	18263.20
698.21	18022.12
698.34	17937.87
698.47	18029.15
698.61	17816.16
698.74	17881.69
698.87	18001.06
699.01	17507.21
699.14	17717.86
699.27	17326.99
699.40	17338.69
699.54	17076.55
699.67	17216.98
699.80	17146.76
699.94	16842.50
700.07	17380.82
700.20	16744.19
700.34	16856.54
700.47	16627.17
700.60	16795.68
700.73	16776.96
700.87	16816.75
701.00	16451.63
701.13	16327.58
701.26	16613.12
701.40	16610.78
701.53	16528.86
701.66	16264.38
701.79	16086.50
701.93	15948.41
702.06	15665.21
702.19	16203.53
702.32	15850.11
702.46	15903.94
702.59	15660.52
702.72	15417.11
702.85	15412.43
702.99	15288.38
703.12	15550.52
703.25	15300.08
703.38	15442.85
703.51	15227.53
703.65	15419.45
703.78	15283.70
703.91	15136.24
704.04	14988.79
704.17	14932.62
704.31	14923.26
704.44	14754.74
704.57	14661.12
704.70	14567.49
704.83	14565.15
704.96	14370.89
705.10	14160.24
705.23	14464.51
>>>>>End Processed Spectral Data<<<<<
