SpectraSuite Data File
++++++++++++++++++++++++++++++++++++
Date: Fri Oct 04 11:39:27 GMT-05:00 2013
User: price-jones
Dark Spectrum Present: No
Reference Spectrum Present: No
Number of Sampled Component Spectra: 1
Spectrometers: USB2+H05261
Integration Time (usec): 100000 (USB2+H05261)
Spectra Averaged: 1 (USB2+H05261)
Boxcar Smoothing: 0 (USB2+H05261)
Correct for Electrical Dark: No (USB2+H05261)
Strobe/Lamp Enabled: No (USB2+H05261)
Correct for Detector Non-linearity: No (USB2+H05261)
Correct for Stray Light: No (USB2+H05261)
Number of Pixels in Processed Spectrum: 2048
>>>>>Begin Processed Spectral Data<<<<<
365.73	133.41
365.92	133.41
366.12	133.41
366.32	0.00
366.52	0.00
366.72	0.00
366.91	0.00
367.11	0.00
367.31	0.00
367.51	0.00
367.70	0.00
367.90	0.00
368.10	0.00
368.30	0.00
368.49	0.00
368.69	28.09
368.89	0.00
369.09	0.00
369.28	0.00
369.48	0.00
369.68	0.00
369.87	23.41
370.07	0.00
370.27	0.00
370.47	107.66
370.66	121.71
370.86	152.13
371.06	121.71
371.25	201.29
371.45	189.58
371.65	236.39
371.84	128.73
372.04	241.08
372.24	201.29
372.44	217.67
372.63	215.33
372.83	259.80
373.03	227.03
373.22	231.71
373.42	210.65
373.62	220.01
373.81	191.92
374.01	250.44
374.21	227.03
374.40	177.88
374.60	262.14
374.79	290.23
374.99	248.10
375.19	259.80
375.38	266.82
375.58	266.82
375.78	290.23
375.97	166.18
376.17	299.59
376.37	212.99
376.56	252.78
376.76	259.80
376.95	294.91
377.15	262.14
377.35	215.33
377.54	210.65
377.74	215.33
377.93	220.01
378.13	250.44
378.33	318.31
378.52	285.55
378.72	341.72
378.91	280.86
379.11	299.59
379.31	278.52
379.50	255.12
379.70	266.82
379.89	227.03
380.09	255.12
380.28	276.18
380.48	231.71
380.68	227.03
380.87	196.60
381.07	266.82
381.26	322.99
381.46	259.80
381.65	269.16
381.85	255.12
382.04	304.27
382.24	283.20
382.43	248.10
382.63	346.40
382.83	315.97
383.02	306.61
383.22	337.04
383.41	259.80
383.61	320.65
383.80	327.68
384.00	320.65
384.19	292.57
384.39	327.68
384.58	297.25
384.78	332.36
384.97	334.70
385.17	372.15
385.36	372.15
385.56	327.68
385.75	341.72
385.95	367.46
386.14	390.87
386.34	409.59
386.53	379.17
386.72	304.27
386.92	442.36
387.11	311.29
387.31	337.04
387.50	320.65
387.70	337.04
387.89	297.25
388.09	285.55
388.28	372.15
388.48	322.99
388.67	367.46
388.86	379.17
389.06	339.38
389.25	315.97
389.45	400.23
389.64	433.00
389.84	365.12
390.03	367.46
390.22	243.42
390.42	337.04
390.61	339.38
390.81	346.40
391.00	334.70
391.19	423.64
391.39	442.36
391.58	381.51
391.78	372.15
391.97	383.85
392.16	386.19
392.36	482.15
392.55	430.66
392.75	425.98
392.94	442.36
393.13	393.21
393.33	435.34
393.52	440.02
393.71	449.38
393.91	468.11
394.10	461.09
394.29	386.19
394.49	477.47
394.68	435.34
394.88	503.22
395.07	454.06
395.26	451.72
395.46	505.56
395.65	465.77
395.84	461.09
396.04	524.28
396.23	512.58
396.42	554.71
396.62	543.00
396.81	528.96
397.00	540.66
397.19	503.22
397.39	608.54
397.58	592.16
397.77	571.09
397.97	512.58
398.16	465.77
398.35	650.67
398.55	554.71
398.74	571.09
398.93	622.58
399.12	580.45
399.32	423.64
399.51	564.07
399.70	674.07
399.90	685.78
400.09	585.13
400.28	683.44
400.47	582.79
400.67	734.93
400.86	657.69
401.05	655.35
401.24	566.41
401.44	674.07
401.63	697.48
401.82	664.71
402.01	636.63
402.21	664.71
402.40	655.35
402.59	795.78
402.78	786.42
402.97	711.52
403.17	774.72
403.36	814.51
403.55	763.01
403.74	854.30
403.93	887.06
404.13	814.51
404.32	847.27
404.51	795.78
404.70	891.74
404.89	807.48
405.09	830.89
405.28	802.80
405.47	873.02
405.66	891.74
405.85	959.62
406.05	968.98
406.24	884.72
406.43	915.15
406.62	924.51
406.81	1034.52
407.00	990.05
407.20	1062.60
407.39	1060.26
407.58	1048.56
407.77	1020.47
407.96	940.90
408.15	983.02
408.34	1043.88
408.54	1027.50
408.73	1125.80
408.92	1027.50
409.11	1071.97
409.30	1100.05
409.49	1071.97
409.68	1256.87
409.87	1111.75
410.07	1125.80
410.26	1167.93
410.45	1149.20
410.64	1217.08
410.83	1247.51
411.02	1205.38
411.21	1310.70
411.40	1291.98
411.59	1273.25
411.78	1343.47
411.98	1369.21
412.17	1284.95
412.36	1334.11
412.55	1444.11
412.74	1509.65
412.93	1474.54
413.12	1355.17
413.31	1411.34
413.50	1430.07
413.69	1441.77
413.88	1563.48
414.07	1551.78
414.26	1565.82
414.45	1659.44
414.64	1519.01
414.83	1699.23
415.02	1617.31
415.22	1586.88
415.41	1717.95
415.60	1715.61
415.79	1572.84
415.98	1694.55
416.17	1760.08
416.36	1710.93
416.55	1746.04
416.74	1703.91
416.93	1900.52
417.12	1886.47
417.31	1839.66
417.50	1909.88
417.69	1825.62
417.88	1909.88
418.07	1954.35
418.26	1940.30
418.45	1834.98
418.64	2026.90
418.83	1940.30
419.02	1996.48
419.21	2066.69
419.39	2033.93
419.58	2029.24
419.77	1980.09
419.96	2108.82
420.15	2125.21
420.34	2019.88
420.53	2101.80
420.72	2195.42
420.91	1989.46
421.10	2153.29
421.29	2235.21
421.48	2211.81
421.67	2237.55
421.86	2190.74
422.05	2169.68
422.24	2150.95
422.43	2246.91
422.61	2232.87
422.80	2338.20
422.99	2256.28
423.18	2242.23
423.37	2321.81
423.56	2244.57
423.75	2146.27
423.94	2260.96
424.13	2150.95
424.32	2265.64
424.50	2349.90
424.69	2417.77
424.88	2319.47
425.07	2319.47
425.26	2338.20
425.45	2335.85
425.64	2244.57
425.83	2251.60
426.01	2382.67
426.20	2485.65
426.39	2277.34
426.58	2244.57
426.77	2321.81
426.96	2375.64
427.15	2438.84
427.33	2420.11
427.52	2490.33
427.71	2359.26
427.90	2457.56
428.09	2413.09
428.28	2497.35
428.46	2548.84
428.65	2457.56
428.84	2609.70
429.03	2729.06
429.22	2469.27
429.40	2534.80
429.59	2516.08
429.78	2490.33
429.97	2516.08
430.16	2466.92
430.34	2630.76
430.53	2602.68
430.72	2583.95
430.91	2590.97
431.10	2616.72
431.28	2689.28
431.47	2715.02
431.66	2726.72
431.85	2675.23
432.03	2724.38
432.22	2806.30
432.41	2754.81
432.60	2935.03
432.79	2771.19
432.97	2874.18
433.16	2785.24
433.35	2953.76
433.54	2906.95
433.72	2810.98
433.91	2801.62
434.10	2853.11
434.28	2932.69
434.47	2944.39
434.66	3014.61
434.85	2916.31
435.03	2946.73
435.22	3173.77
435.41	3325.90
435.59	3332.92
435.78	3211.22
435.97	3211.22
436.16	3164.40
436.34	3108.23
436.53	3166.74
436.72	3117.59
436.90	3033.33
437.09	3155.04
437.28	3112.91
437.46	3178.45
437.65	3206.53
437.84	3157.38
438.02	3159.72
438.21	3185.47
438.40	3105.89
438.58	3213.56
438.77	3311.86
438.96	3225.26
439.14	3199.51
439.33	3461.65
439.52	3431.23
439.70	3480.38
439.89	3288.45
440.08	3428.88
440.26	3487.40
440.45	3571.66
440.63	3485.06
440.82	3524.85
441.01	3655.92
441.19	3604.42
441.38	3733.15
441.57	3653.58
441.75	3688.68
441.94	3754.22
442.12	3653.58
442.31	3714.43
442.50	3754.22
442.68	3786.99
442.87	3672.30
443.05	3812.73
443.24	3861.88
443.43	3740.18
443.61	3826.78
443.80	3971.89
443.98	3798.69
444.17	3726.13
444.35	3983.59
444.54	3901.67
444.73	3864.22
444.91	3922.74
445.10	3899.33
445.28	4037.42
445.47	3847.84
445.65	4009.34
445.84	4030.40
446.02	4011.68
446.21	3967.21
446.39	3873.59
446.58	4053.81
446.77	3920.40
446.95	3974.23
447.14	3957.85
447.32	4102.96
447.51	4042.11
447.69	4161.47
447.88	4049.13
448.06	4063.17
448.25	3929.76
448.43	3990.61
448.62	4131.05
448.80	3880.61
448.99	4142.75
449.17	4236.37
449.36	3995.29
449.54	4191.90
449.73	4248.07
449.91	4276.16
450.10	4365.10
450.28	4362.76
450.46	4278.50
450.65	4381.48
450.83	4358.08
451.02	4222.33
451.20	4168.49
451.39	4283.18
451.57	4327.65
451.76	4334.67
451.94	4327.65
452.13	4456.38
452.31	4348.72
452.49	4353.40
452.68	4348.72
452.86	4418.93
453.05	4624.90
453.23	4418.93
453.42	4306.59
453.60	4369.78
453.78	4545.32
453.97	4411.91
454.15	4454.04
454.34	4451.70
454.52	4638.94
454.70	4599.15
454.89	4542.98
455.07	4608.51
455.26	4699.80
455.44	4545.32
455.62	4627.24
455.81	4711.50
455.99	4620.22
456.17	4898.74
456.36	4713.84
456.54	4765.33
456.73	4868.31
456.91	4985.34
457.09	4868.31
457.28	5085.98
457.46	4816.82
457.64	4873.00
457.83	4868.31
458.01	4833.21
458.19	4929.17
458.38	4950.23
458.56	5090.67
458.74	5097.69
458.93	4917.47
459.11	4945.55
459.29	4833.21
459.48	5249.82
459.66	5055.56
459.84	5090.67
460.03	4999.38
460.21	5102.37
460.39	5085.98
460.57	5048.54
460.76	5095.35
460.94	5163.22
461.12	5158.54
461.31	5200.67
461.49	5221.74
461.67	5170.24
461.85	5217.05
462.04	5149.18
462.22	5458.13
462.40	5338.76
462.59	5303.65
462.77	5362.17
462.95	5411.32
463.13	5350.46
463.32	5350.46
463.50	5455.79
463.68	5364.51
463.86	5430.04
464.05	5345.78
464.23	5416.00
464.41	5488.56
464.59	5448.77
464.78	5703.89
464.96	5486.22
465.14	5383.23
465.32	5621.97
465.50	5743.67
465.69	5619.63
465.87	5504.94
466.05	5516.64
466.23	5774.10
466.41	5738.99
466.60	5991.77
466.78	5624.31
466.96	5851.34
467.14	5748.36
467.32	5802.19
467.51	5942.62
467.69	5568.13
467.87	5682.82
468.05	5666.44
468.23	5762.40
468.41	5774.10
468.60	5769.42
468.78	5937.94
468.96	5898.15
469.14	5804.53
469.32	5961.34
469.50	5844.32
469.69	6108.80
469.87	6076.03
470.05	6225.82
470.23	6111.14
470.41	6232.85
470.59	6223.48
470.77	6064.33
470.95	6216.46
471.14	6282.00
471.32	6143.91
471.50	6438.81
471.68	6232.85
471.86	6403.71
472.04	6354.55
472.22	6513.71
472.40	6363.92
472.58	6263.27
472.77	6523.07
472.95	6686.91
473.13	6649.46
473.31	6342.85
473.49	6569.88
473.67	6658.82
473.85	6626.06
474.03	6757.13
474.21	6612.01
474.39	6691.59
474.57	6747.76
474.75	6911.60
474.93	6871.81
475.12	6920.96
475.30	6724.36
475.48	6848.41
475.66	6939.69
475.84	7000.54
476.02	7159.70
476.20	7229.91
476.38	7253.32
476.56	7290.77
476.74	7108.21
476.92	7253.32
477.10	7213.53
477.28	7517.80
477.46	7407.80
477.64	7658.23
477.82	7534.18
478.00	7606.74
478.18	7679.30
478.36	7749.51
478.54	7730.79
478.72	7880.58
478.90	7915.69
479.08	8065.49
479.26	8318.26
479.44	8112.30
479.62	8088.89
479.80	8229.32
479.98	8208.26
480.16	8196.56
480.34	8519.55
480.52	8484.44
480.70	8526.57
480.88	8503.17
481.06	8643.60
481.24	8428.27
481.41	8549.98
481.59	8641.26
481.77	8865.95
481.95	9074.26
482.13	8889.35
482.31	8919.78
482.49	9212.35
482.67	9413.63
482.85	9348.10
483.03	9188.94
483.21	9425.34
483.39	9661.73
483.57	9399.59
483.74	9467.47
483.92	9795.14
484.10	9661.73
484.28	9811.53
484.46	9888.76
484.64	10375.59
484.82	9851.31
485.00	9846.63
485.18	10038.56
485.35	10314.74
485.53	10443.47
485.71	10466.88
485.89	10897.53
486.07	10553.48
486.25	10729.02
486.43	10494.96
486.61	10785.19
486.78	11007.54
486.96	11257.98
487.14	11300.11
487.32	11262.66
487.50	11145.63
487.68	11101.16
487.85	11389.05
488.03	11501.39
488.21	11681.61
488.39	11632.46
488.57	11941.41
488.75	11793.96
488.92	12032.69
489.10	11992.90
489.28	12020.99
489.46	12329.94
489.64	12215.26
489.81	12514.84
489.99	12465.69
490.17	12636.55
490.35	12683.36
490.53	12840.18
490.70	12929.12
490.88	12835.50
491.06	12781.67
491.24	13041.46
491.41	13036.78
491.59	13336.37
491.77	13238.07
491.95	13558.72
492.13	13434.68
492.30	13666.39
492.48	13561.06
492.66	13621.92
492.84	13633.62
493.01	13839.59
493.19	13692.13
493.37	14104.07
493.54	13837.25
493.72	14127.47
493.90	14267.91
494.08	14284.29
494.25	14354.51
494.43	14476.21
494.61	14682.18
494.79	14661.12
494.96	14672.82
495.14	14689.20
495.32	14518.34
495.49	14850.70
495.67	15192.42
495.85	15112.84
496.02	15103.48
496.20	15176.03
496.38	15115.18
496.55	15276.68
496.73	15646.48
496.91	15590.31
497.09	15620.74
497.26	15969.48
497.44	15683.93
497.62	15763.51
497.79	15915.64
497.97	15697.97
498.14	16161.40
498.32	16173.10
498.50	16248.00
498.67	16458.65
498.85	16299.49
499.03	16659.93
499.20	16388.43
499.38	16627.17
499.56	16688.02
499.73	16744.19
499.91	16678.66
500.08	17069.53
500.26	16585.04
500.44	16952.50
500.61	16734.83
500.79	16943.14
500.97	17247.41
501.14	17252.09
501.32	17465.08
501.49	17380.82
501.67	17731.90
501.84	17612.53
502.02	17439.33
502.20	17532.95
502.37	17444.01
502.55	17504.87
502.72	17649.98
502.90	17734.24
503.07	17565.72
503.25	18078.30
503.43	17600.83
503.60	17916.80
503.78	18181.28
503.95	18059.57
504.13	18258.52
504.30	18202.35
504.48	18160.22
504.65	18256.18
504.83	18448.10
505.01	18712.58
505.18	18607.26
505.36	18654.07
505.53	18436.40
505.71	18651.73
505.88	18633.00
506.06	18684.50
506.23	19005.15
506.41	19077.71
506.58	19021.53
506.76	19262.61
506.93	18965.36
507.11	19192.39
507.28	18979.40
507.46	19274.31
507.63	19218.14
507.81	19726.04
507.98	19026.21
508.16	19484.96
508.33	19297.72
508.50	19854.76
508.68	19632.41
508.85	19889.87
509.03	19704.97
509.20	19962.43
509.38	19988.18
509.55	20074.77
509.73	19962.43
509.90	19735.40
510.08	20004.56
510.25	19995.20
510.42	20346.28
510.60	20446.92
510.77	20470.33
510.95	20634.16
511.12	20463.30
511.30	20343.94
511.47	20318.19
511.64	20751.19
511.82	20711.40
511.99	20566.29
512.17	20856.51
512.34	20697.36
512.51	20924.39
512.69	20762.89
512.86	20924.39
513.04	21165.46
513.21	21085.89
513.38	21184.19
513.56	21268.45
513.73	21029.71
513.90	21053.12
514.08	21132.70
514.25	21493.14
514.43	21689.74
514.60	21652.30
514.77	21790.39
514.95	21914.44
515.12	21832.52
515.29	21551.65
515.47	21762.30
515.64	21764.64
515.81	21977.63
515.99	22401.27
516.16	22115.72
516.33	22366.16
516.51	22632.98
516.68	22064.23
516.85	22256.15
517.03	22113.38
517.20	22401.27
517.37	22370.84
517.54	22518.29
517.72	22434.03
517.89	22328.71
518.06	22480.85
518.24	22848.31
518.41	22508.93
518.58	22869.37
518.75	23105.77
518.93	22860.01
519.10	22595.53
519.27	23091.73
519.45	23042.57
519.62	22649.36
519.79	23002.78
519.96	23206.41
520.14	23295.35
520.31	22955.97
520.48	23213.43
520.65	23260.24
520.83	23396.00
521.00	23482.59
521.17	23398.34
521.34	23449.83
521.52	23618.35
521.69	23213.43
521.86	24247.95
522.03	23819.63
522.20	23840.70
522.38	23726.01
522.55	23697.92
522.72	23927.30
522.89	23929.64
523.07	24393.06
523.24	24161.35
523.41	23836.02
523.58	24032.62
523.75	24566.26
523.92	24432.85
524.10	24166.03
524.27	24203.48
524.44	24339.23
524.61	24456.26
524.78	24694.99
524.96	24409.45
525.13	24568.60
525.30	24702.01
525.47	24837.76
525.64	24919.68
525.81	24498.39
525.98	24919.68
526.16	24849.47
526.33	24767.55
526.50	24898.62
526.67	24568.60
526.84	25017.99
527.01	24907.98
527.18	24907.98
527.36	25345.66
527.53	25104.59
527.70	25619.50
527.87	25216.93
528.04	25090.54
528.21	25525.88
528.38	25301.19
528.55	25425.24
528.72	25205.23
528.89	25303.53
529.07	25322.26
529.24	25605.46
529.41	25617.16
529.58	25130.33
529.75	25429.92
529.92	25771.64
530.09	25626.53
530.26	25638.23
530.43	25839.51
530.60	25977.61
530.77	25699.08
530.94	25708.44
531.11	25591.42
531.28	25710.78
531.46	25830.15
531.63	26024.42
531.80	26316.98
531.97	26422.31
532.14	26181.23
532.31	26298.26
532.48	26005.69
532.65	26211.66
532.82	25813.77
532.99	26389.54
533.16	26518.27
533.33	26904.46
533.50	26918.50
533.67	26398.90
533.84	26630.62
534.01	26536.99
534.18	26637.64
534.35	26661.04
534.52	26553.38
534.69	26864.67
534.86	26955.95
535.03	26909.14
535.20	26916.16
535.37	26895.10
535.54	27171.28
535.71	26581.46
535.88	27192.34
536.05	26991.06
536.22	27300.01
536.38	27124.47
536.55	26923.18
536.72	27517.68
536.89	27115.11
537.06	26972.33
537.23	27412.35
537.40	27599.60
537.57	27402.99
537.74	27498.95
537.91	27314.05
538.08	27381.93
538.25	27562.15
538.42	27793.86
538.59	27578.53
538.75	27218.09
538.92	27363.20
539.09	27779.82
539.26	27707.26
539.43	28039.62
539.60	27782.16
539.77	27974.08
539.94	27988.13
540.11	28182.39
540.28	27943.66
540.44	27934.29
540.61	27681.52
540.78	27917.91
540.95	27981.10
541.12	28746.46
541.29	28409.42
541.46	28264.31
541.62	28276.01
541.79	28276.01
541.96	28304.10
542.13	28240.90
542.30	28709.01
542.47	28758.16
542.63	28606.03
542.80	28622.41
542.97	28428.15
543.14	28938.38
543.31	28631.77
543.48	28753.48
543.64	29268.40
543.81	29223.93
543.98	28931.36
544.15	28999.24
544.32	29329.25
544.48	29338.62
544.65	29146.69
544.82	29158.39
544.99	28912.64
545.16	29113.92
545.32	29228.61
545.49	29755.23
545.66	30270.15
545.83	30347.39
546.00	30424.62
546.16	29626.50
546.33	29706.08
546.50	29027.32
546.67	29345.64
546.83	29020.30
547.00	29247.33
547.17	29268.40
547.34	29357.34
547.50	29457.98
547.67	30026.73
547.84	29504.79
548.00	29298.83
548.17	29441.60
548.34	29656.93
548.51	30068.86
548.67	29905.02
548.84	29762.25
549.01	29591.39
549.18	29364.36
549.34	29544.58
549.51	29317.55
549.68	29607.78
549.84	29640.54
550.01	29291.80
550.18	29724.80
550.34	29685.01
550.51	29738.85
550.68	30108.65
550.84	29638.20
551.01	29633.52
551.18	29296.49
551.34	29617.14
551.51	29614.80
551.68	29617.14
551.84	29827.79
552.01	29729.48
552.18	30323.98
552.34	29612.46
552.51	29696.72
552.68	29694.38
552.84	29853.53
553.01	30068.86
553.18	29996.31
553.34	29914.39
553.51	29869.92
553.67	30431.65
553.84	30204.61
554.01	29961.20
554.17	30195.25
554.34	30284.19
554.51	30012.69
554.67	30071.20
554.84	30197.59
555.00	30089.93
555.17	30291.21
555.33	30471.43
555.50	29944.81
555.67	30197.59
555.83	30209.29
556.00	30038.44
556.16	30733.57
556.33	30197.59
556.50	30457.39
556.66	30075.88
556.83	30192.91
556.99	30335.68
557.16	30251.42
557.32	30377.81
557.49	30656.34
557.65	30677.40
557.82	30235.04
557.98	30614.21
558.15	30319.30
558.32	30579.10
558.48	30443.35
558.65	30209.29
558.81	30426.96
558.98	30504.20
559.14	30429.30
559.31	30274.83
559.47	30656.34
559.64	30686.76
559.80	30742.94
559.97	30466.75
560.13	30574.42
560.30	30422.28
560.46	30529.95
560.63	30618.89
560.79	30548.67
560.96	30686.76
561.12	30288.87
561.29	30927.84
561.45	30775.70
561.61	30874.01
561.78	30347.39
561.94	30866.98
562.11	30864.64
562.27	30850.60
562.44	30976.99
562.60	30693.79
562.77	30749.96
562.93	30579.10
563.10	30946.56
563.26	30813.15
563.42	30944.22
563.59	31007.42
563.75	30845.92
563.92	30909.11
564.08	30888.05
564.24	30822.51
564.41	30621.23
564.57	30731.23
564.74	30789.75
564.90	30761.66
565.07	31171.25
565.23	31035.50
565.39	30913.80
565.56	31051.89
565.72	30583.78
565.88	31171.25
566.05	30672.72
566.21	31129.12
566.38	30558.03
566.54	30710.17
566.70	31538.72
566.87	31091.68
567.03	30955.93
567.19	31358.50
567.36	30981.67
567.52	30742.94
567.68	31152.53
567.85	30602.50
568.01	31012.10
568.17	31168.91
568.34	31307.01
568.50	31082.31
568.66	31239.13
568.83	31405.31
568.99	31435.74
569.15	30684.42
569.32	30988.69
569.48	30733.57
569.64	30941.88
569.81	31189.98
569.97	30937.20
570.13	31424.03
570.30	30808.47
570.46	31206.36
570.62	31028.48
570.78	31094.02
570.95	30939.54
571.11	30925.50
571.27	30721.87
571.43	30782.73
571.60	30869.33
571.76	31012.10
571.92	31346.79
572.09	31117.42
572.25	31367.86
572.41	31314.03
572.57	31274.24
572.74	30920.82
572.90	30958.27
573.06	30742.94
573.22	31007.42
573.38	31110.40
573.55	31108.06
573.71	31381.90
573.87	31449.78
574.03	31164.23
574.20	31101.04
574.36	31035.50
574.52	30920.82
574.68	30955.93
574.84	30878.69
575.01	31243.81
575.17	30991.03
575.33	31417.01
575.49	31108.06
575.65	31571.49
575.82	31204.02
575.98	31119.76
576.14	31227.43
576.30	30864.64
576.46	31445.10
576.62	31468.50
576.79	31583.19
576.95	31367.86
577.11	31391.26
577.27	31573.83
577.43	30925.50
577.59	31330.41
577.75	31215.72
577.92	31194.66
578.08	31208.70
578.24	30925.50
578.40	31372.54
578.56	31117.42
578.72	31248.49
578.88	31716.60
579.04	31744.69
579.21	31220.41
579.37	31424.03
579.53	31655.75
579.69	31119.76
579.85	31370.20
580.01	31358.50
580.17	31346.79
580.33	31122.10
580.49	31681.49
580.65	31325.73
580.82	31594.89
580.98	31388.92
581.14	31447.44
581.30	31452.12
581.46	30953.58
581.62	31000.40
581.78	31248.49
581.94	31445.10
582.10	31119.76
582.26	31372.54
582.42	31274.24
582.58	31620.64
582.74	31409.99
582.90	31194.66
583.06	31885.12
583.22	31140.83
583.38	30972.31
583.54	31271.90
583.70	31405.31
583.86	31187.64
584.02	31534.04
584.18	31496.59
584.34	31344.45
584.50	31290.62
584.66	31522.34
584.82	31222.75
584.98	31299.98
585.14	31044.87
585.30	31035.50
585.46	31330.41
585.62	31243.81
585.78	31388.92
585.94	31538.72
586.10	31569.15
586.26	31292.96
586.42	31606.59
586.58	31803.20
586.74	31585.53
586.90	31332.75
587.06	31489.57
587.22	31288.28
587.38	31150.19
587.54	31618.30
587.70	31555.10
587.86	32046.62
588.02	31608.93
588.18	32088.74
588.34	31288.28
588.49	31433.39
588.65	31386.58
588.81	31442.76
588.97	31105.72
589.13	31470.84
589.29	31496.59
589.45	31419.35
589.61	31793.84
589.77	31772.77
589.93	31644.04
590.08	31775.11
590.24	31662.77
590.40	31854.69
590.56	32011.51
590.72	31531.70
590.88	31253.17
591.04	31637.02
591.20	31442.76
591.35	31765.75
591.51	32133.21
591.67	31950.65
591.83	31878.10
591.99	31463.82
592.15	31564.46
592.31	31679.15
592.46	31393.61
592.62	31360.84
592.78	31641.70
592.94	31672.13
593.10	31747.03
593.26	31693.19
593.41	31630.00
593.57	31512.97
593.73	31519.99
593.89	31791.50
594.05	32053.64
594.20	31304.67
594.36	30988.69
594.52	31461.48
594.68	30965.29
594.84	31594.89
594.99	31550.42
595.15	31417.01
595.31	31545.74
595.47	32095.77
595.62	31639.36
595.78	31950.65
595.94	31761.07
596.10	31634.68
596.25	31562.12
596.41	31489.57
596.57	31409.99
596.73	31768.09
596.88	31779.79
597.04	31723.62
597.20	31538.72
597.36	31838.31
597.51	31887.46
597.67	31393.61
597.83	31718.94
597.99	31850.01
598.14	31901.50
598.30	31728.30
598.46	31281.26
598.61	31346.79
598.77	31622.98
598.93	31566.81
599.09	31662.77
599.24	32137.90
599.40	31559.78
599.56	31718.94
599.71	31835.97
599.87	31805.54
600.03	31545.74
600.18	31454.46
600.34	31468.50
600.50	31297.64
600.65	31461.48
600.81	31842.99
600.97	31859.37
601.12	31686.17
601.28	32130.87
601.44	31363.18
601.59	31548.08
601.75	31562.12
601.91	31611.28
602.06	31555.10
602.22	31557.44
602.37	31292.96
602.53	31374.88
602.69	31466.16
602.84	31608.93
603.00	31545.74
603.16	31468.50
603.31	31253.17
603.47	31381.90
603.62	31475.52
603.78	31365.52
603.94	31498.93
604.09	31379.56
604.25	31243.81
604.40	31182.96
604.56	31754.05
604.71	31716.60
604.87	31398.29
605.03	31503.61
605.18	31721.28
605.34	31405.31
605.49	31632.34
605.65	31023.80
605.80	31087.00
605.96	31269.56
606.12	31227.43
606.27	31419.35
606.43	31065.93
606.58	31299.98
606.74	31466.16
606.89	30948.90
607.05	31480.21
607.20	31445.10
607.36	31161.89
607.51	31360.84
607.67	31035.50
607.82	30646.97
607.98	31468.50
608.13	31185.30
608.29	31622.98
608.44	31337.43
608.60	31288.28
608.75	31290.62
608.91	31508.29
609.06	31143.17
609.22	31435.74
609.37	30946.56
609.53	30803.79
609.68	30759.32
609.84	30888.05
609.99	31192.32
610.15	31438.08
610.30	31555.10
610.46	31889.80
610.61	31903.84
610.76	31749.37
610.92	32297.05
611.07	32512.38
611.23	32364.93
611.38	32350.88
611.54	31288.28
611.69	31969.38
611.84	31276.58
612.00	31222.75
612.15	31428.71
612.31	31211.04
612.46	31070.61
612.62	31358.50
612.77	31309.35
612.92	31370.20
613.08	31339.77
613.23	31337.43
613.39	30885.71
613.54	30888.05
613.69	31016.78
613.85	30974.65
614.00	30941.88
614.15	30902.09
614.31	30874.01
614.46	30815.49
614.62	30801.45
614.77	30843.58
614.92	31070.61
615.08	30717.19
615.23	30749.96
615.38	30562.72
615.54	30382.49
615.69	30527.61
615.84	30522.93
616.00	30326.32
616.15	30319.30
616.30	30747.62
616.46	30719.53
616.61	30394.20
616.76	30859.96
616.92	30150.78
617.07	30417.60
617.22	30361.43
617.37	30188.23
617.53	30352.07
617.68	30249.08
617.83	30284.19
617.99	29851.19
618.14	30162.48
618.29	30267.81
618.45	30288.87
618.60	30143.76
618.75	30426.96
618.90	30176.53
619.06	30150.78
619.21	30506.54
619.36	30281.85
619.51	29841.83
619.67	29755.23
619.82	29879.28
619.97	29743.53
620.12	29972.90
620.28	29832.47
620.43	29982.26
620.58	30110.99
620.73	30132.06
620.89	30637.61
621.04	29991.62
621.19	30005.67
621.34	29731.83
621.49	29488.41
621.65	29827.79
621.80	29879.28
621.95	29394.79
622.10	29813.74
622.25	29582.03
622.41	29734.17
622.56	29610.12
622.71	29710.76
622.86	29338.62
623.01	30005.67
623.16	29600.76
623.32	29425.22
623.47	29551.60
623.62	29806.72
623.77	29474.37
623.92	29589.05
624.07	29954.18
624.23	29813.74
624.38	29713.10
624.53	29432.24
624.68	29785.66
624.83	29511.81
624.98	29647.57
625.13	29575.01
625.29	29652.25
625.44	29237.97
625.59	29247.33
625.74	29284.78
625.89	29130.31
626.04	28971.15
626.19	29024.98
626.34	29132.65
626.49	29298.83
626.65	28926.68
626.80	29668.63
626.95	29174.78
627.10	28816.68
627.25	28652.84
627.40	28945.41
627.55	28779.23
627.70	29099.88
627.85	28840.08
628.00	28671.56
628.15	29111.58
628.30	28758.16
628.45	28856.46
628.60	29144.35
628.76	29074.13
628.91	29039.03
629.06	29142.01
629.21	29165.42
629.36	28781.57
629.51	28823.70
629.66	28898.59
629.81	28744.12
629.96	28933.70
630.11	28687.95
630.26	28615.39
630.41	28776.89
630.56	28781.57
630.71	28687.95
630.86	29092.86
631.01	28664.54
631.16	28517.09
631.31	28615.39
631.46	28926.68
631.61	28622.41
631.76	28535.81
631.91	28439.85
632.06	28357.93
632.21	28376.66
632.36	28259.63
632.51	28393.04
632.66	28430.49
632.81	28039.62
632.96	28364.95
633.10	28285.37
633.25	28327.50
633.40	28444.53
633.55	28177.71
633.70	28180.05
633.85	28011.53
634.00	27861.74
634.15	28109.83
634.30	28271.33
634.45	27824.29
634.60	27962.38
634.75	28121.54
634.90	27938.97
635.05	27936.63
635.19	28158.99
635.34	28257.29
635.49	28002.17
635.64	27985.79
635.79	27969.40
635.94	27903.87
636.09	28016.21
636.24	28278.35
636.39	27665.13
636.53	27843.01
636.68	27756.41
636.83	27733.01
636.98	28058.34
637.13	27906.21
637.28	27868.76
637.43	28240.90
637.57	27903.87
637.72	27786.84
637.87	27618.32
638.02	27758.75
638.17	27901.53
638.32	27246.18
638.46	27339.80
638.61	27948.34
638.76	27608.96
638.91	27461.51
639.06	27468.53
639.20	27803.22
639.35	27606.62
639.50	27615.98
639.65	27615.98
639.80	27433.42
639.94	27644.07
640.09	26948.93
640.24	27496.61
640.39	27028.51
640.54	27194.68
640.68	27709.60
640.83	27281.28
640.98	27283.62
641.13	27077.66
641.27	27445.12
641.42	27105.74
641.57	27410.01
641.72	27850.03
641.86	27349.16
642.01	27208.73
642.16	27250.86
642.31	26733.60
642.45	27213.41
642.60	27211.07
642.75	27187.66
642.90	27070.64
643.04	26689.13
643.19	26712.53
643.34	27281.28
643.48	27335.12
643.63	27353.84
643.78	27225.11
643.93	27199.37
644.07	26946.59
644.22	26944.25
644.37	27353.84
644.51	27180.64
644.66	27014.46
644.81	26925.52
644.95	26569.76
645.10	26799.13
645.25	26728.92
645.39	26614.23
645.54	26773.39
645.69	26969.99
645.83	26754.66
645.98	26862.33
646.13	26834.24
646.27	26958.29
646.42	26932.54
646.57	26555.72
646.71	26560.40
646.86	26675.09
647.00	26443.37
647.15	26717.22
647.30	26871.69
647.44	26548.70
647.59	26665.72
647.74	26572.10
647.88	26558.06
648.03	26623.59
648.17	26185.91
648.32	26852.97
648.47	26623.59
648.61	26380.18
648.76	26796.79
648.90	26101.65
649.05	26249.11
649.20	26373.16
649.34	26338.05
649.49	26143.78
649.63	26328.69
649.78	26415.29
649.92	26335.71
650.07	26567.42
650.21	26380.18
650.36	26324.01
650.51	26464.44
650.65	26452.73
650.80	26457.42
650.94	26532.31
651.09	26328.69
651.23	26263.15
651.38	25891.01
651.52	26089.95
651.67	26155.49
651.81	25862.92
651.96	26148.46
652.10	25958.88
652.25	26101.65
652.39	26073.57
652.54	26300.60
652.68	26211.66
652.83	25750.57
652.97	26335.71
653.12	26260.81
653.26	25972.92
653.41	25912.07
653.55	26462.10
653.70	25790.36
653.84	26111.02
653.99	25453.33
654.13	25542.27
654.27	26015.05
654.42	25724.83
654.56	25565.67
654.71	25965.90
654.85	25998.67
655.00	25811.43
655.14	25928.45
655.29	25888.67
655.43	25663.97
655.57	25355.02
655.72	25671.00
655.86	25535.24
656.01	25600.78
656.15	25570.35
656.30	25362.04
656.44	25404.17
656.58	25710.78
656.73	25469.71
656.87	25411.20
657.01	25261.40
657.16	25769.30
657.30	25481.41
657.45	25504.82
657.59	25834.83
657.73	25362.04
657.88	25242.68
658.02	25188.85
658.16	25287.15
658.31	25259.06
658.45	25142.03
658.60	24957.13
658.74	25113.95
658.88	25404.17
659.03	25242.68
659.17	25053.09
659.31	25036.71
659.46	25191.19
659.60	25572.69
659.74	25195.87
659.89	24947.77
660.03	24910.32
660.17	25186.50
660.32	24725.42
660.46	24863.51
660.60	24830.74
660.74	24620.10
660.89	24907.98
661.03	24627.12
661.17	24566.26
661.32	24498.39
661.46	24531.15
661.60	24566.26
661.74	24936.07
661.89	24992.24
662.03	25298.85
662.17	24734.78
662.31	24070.07
662.46	24545.20
662.60	24383.70
662.74	24418.81
662.88	24226.89
663.03	24517.11
663.17	24261.99
663.31	24013.90
663.45	24016.24
663.60	23838.36
663.74	23971.77
663.88	24105.18
664.02	23910.91
664.17	24250.29
664.31	23859.42
664.45	24112.20
664.59	23953.04
664.73	23716.65
664.88	23913.25
665.02	23328.12
665.16	23503.66
665.30	23491.96
665.44	23374.93
665.59	23618.35
665.73	23417.06
665.87	23447.49
666.01	23566.85
666.15	23763.46
666.29	23524.72
666.44	23885.17
666.58	23590.26
666.72	23484.94
666.86	23407.70
667.00	23484.94
667.14	23360.89
667.28	23194.71
667.43	23199.39
667.57	23227.48
667.71	23342.16
667.85	23175.98
667.99	23300.03
668.13	23030.87
668.27	22806.18
668.41	22934.91
668.56	22972.36
668.70	23152.58
668.84	22822.56
668.98	23023.85
669.12	23012.15
669.26	23035.55
669.40	22867.03
669.54	22885.76
669.68	23002.78
669.82	22417.65
669.96	22366.16
670.10	22309.99
670.25	22377.86
670.39	22623.62
670.53	22307.65
670.67	22735.96
670.81	21965.93
670.95	22242.11
671.09	22237.43
671.23	22572.13
671.37	22356.80
671.51	22520.63
671.65	22284.24
671.79	22148.49
671.93	21881.67
672.07	21944.86
672.21	21923.80
672.35	21591.44
672.49	21841.88
672.63	21699.11
672.77	22045.51
672.91	21893.37
673.05	21734.21
673.19	21855.92
673.33	21621.87
673.47	21769.32
673.61	22075.93
673.75	21884.01
673.89	21600.80
674.03	21355.05
674.17	21525.91
674.31	21703.79
674.45	21420.58
674.59	21078.86
674.73	20884.60
674.87	21106.95
675.01	21277.81
675.15	21106.95
675.29	20994.61
675.43	20606.08
675.56	21046.10
675.70	21413.56
675.84	21394.84
675.98	20599.05
676.12	20945.45
676.26	21081.21
676.40	20783.96
676.54	20863.54
676.68	20510.11
676.82	20507.77
676.96	20318.19
677.10	20610.76
677.23	20524.16
677.37	20336.91
677.51	20098.18
677.65	20224.57
677.79	19892.21
677.93	20301.81
678.07	20114.56
678.21	19847.74
678.34	19889.87
678.48	19866.47
678.62	19660.50
678.76	19674.54
678.90	19641.78
679.04	19866.47
679.18	19609.01
679.31	19330.48
679.45	19325.80
679.59	18977.06
679.73	19386.66
679.87	19339.85
680.00	19276.65
680.14	18906.85
680.28	19192.39
680.42	19108.13
680.56	19246.23
680.70	19073.03
680.83	18958.34
680.97	18780.46
681.11	18724.29
681.25	19176.01
681.39	18565.13
681.52	18764.07
681.66	18771.10
681.80	18679.82
681.94	18644.71
682.07	18352.14
682.21	18160.22
682.35	17944.89
682.49	18302.99
682.62	18249.16
682.76	17996.38
682.90	17949.57
683.04	18003.40
683.17	17741.26
683.31	17806.80
683.45	17951.91
683.59	17764.67
683.72	17767.01
683.86	17865.31
684.00	17713.17
684.13	17710.83
684.27	17537.63
684.41	17387.84
684.55	17525.93
684.68	17226.34
684.82	17118.68
684.96	17092.93
685.09	17280.18
685.23	17282.52
685.37	16945.48
685.50	17308.26
685.64	17146.76
685.78	16922.07
685.91	17064.85
686.05	16929.09
686.19	16676.32
686.32	16730.15
686.46	16255.02
686.60	16608.44
686.73	16575.67
686.87	16442.26
687.01	16449.28
687.14	16383.75
687.28	16264.38
687.42	16170.76
687.55	16184.80
687.69	16315.87
687.82	16168.42
687.96	16051.39
688.10	15768.19
688.23	15946.07
688.37	15793.94
688.50	15754.15
688.64	15784.57
688.78	15459.24
688.91	15695.63
689.05	15707.34
689.18	15440.51
689.32	15157.31
689.46	14998.15
689.59	15452.22
689.73	15421.79
689.86	15073.05
690.00	15112.84
690.13	15218.16
690.27	15070.71
690.41	14977.09
690.54	14803.89
690.68	15187.74
690.81	15019.22
690.95	14927.94
691.08	15056.67
691.22	14878.79
691.35	14611.96
691.49	14633.03
691.62	14604.94
691.76	14349.82
691.89	14171.94
692.03	13921.51
692.16	14274.93
692.30	14178.97
692.43	14286.63
692.57	14001.08
692.70	14169.60
692.84	14029.17
692.97	14148.54
693.11	13991.72
693.24	13916.83
693.38	13811.50
693.51	13799.80
693.65	13858.31
693.78	13886.40
693.92	13891.08
694.05	13731.92
694.19	13685.11
694.32	13710.86
694.45	13294.24
694.59	13479.15
694.72	13158.49
694.86	13228.71
694.99	13135.09
695.13	13200.62
695.26	13277.86
695.39	13036.78
695.53	13092.96
695.66	13123.38
695.80	13027.42
695.93	13025.08
696.07	12870.61
696.20	12898.69
696.33	12688.04
696.47	12769.96
696.60	12643.57
696.73	12697.41
696.87	12549.95
697.00	12456.33
697.14	12491.44
697.27	12278.45
697.40	12524.21
697.54	12145.04
697.67	12210.57
697.80	11985.88
697.94	12208.23
698.07	11908.65
698.21	12081.85
698.34	12030.35
698.47	11978.86
698.61	11882.90
698.74	11747.15
698.87	11798.64
699.01	11721.40
699.14	11566.93
699.27	11751.83
699.40	11756.51
699.54	11396.07
699.67	11363.30
699.80	11379.68
699.94	11269.68
700.07	11176.06
700.20	11126.91
700.34	11110.52
700.47	11016.90
700.60	11267.34
700.73	11405.43
700.87	10981.79
701.00	10890.51
701.13	10860.09
701.26	11052.01
701.40	11136.27
701.53	10611.99
701.66	10923.28
701.79	10986.47
701.93	10855.40
702.06	10700.93
702.19	10373.25
702.32	10338.15
702.46	10291.34
702.59	10384.96
702.72	10216.44
702.85	10384.96
702.99	10303.04
703.12	10174.31
703.25	10204.74
703.38	10221.12
703.51	10183.67
703.65	10092.39
703.78	10204.74
703.91	9994.09
704.04	10071.33
704.17	10143.88
704.31	9966.00
704.44	9851.31
704.57	9769.40
704.70	9753.01
704.83	9671.09
704.96	9610.24
705.10	9406.61
705.23	9392.57
>>>>>End Processed Spectral Data<<<<<
