SpectraSuite Data File
++++++++++++++++++++++++++++++++++++
Date: Tue Oct 01 18:27:24 GMT-05:00 2013
User: stostad
Dark Spectrum Present: No
Reference Spectrum Present: No
Number of Sampled Component Spectra: 1
Spectrometers: USB2+H05261
Integration Time (usec): 100000 (USB2+H05261)
Spectra Averaged: 1 (USB2+H05261)
Boxcar Smoothing: 0 (USB2+H05261)
Correct for Electrical Dark: No (USB2+H05261)
Strobe/Lamp Enabled: No (USB2+H05261)
Correct for Detector Non-linearity: No (USB2+H05261)
Correct for Stray Light: No (USB2+H05261)
Number of Pixels in Processed Spectrum: 2048
>>>>>Begin Processed Spectral Data<<<<<
365.73	102.98
365.92	102.98
366.12	102.98
366.32	16.38
366.52	0.00
366.72	7.02
366.91	0.00
367.11	0.00
367.31	0.00
367.51	0.00
367.70	0.00
367.90	0.00
368.10	0.00
368.30	0.00
368.49	0.00
368.69	0.00
368.89	0.00
369.09	0.00
369.28	21.06
369.48	35.11
369.68	32.77
369.87	32.77
370.07	30.43
370.27	74.90
370.47	126.39
370.66	245.76
370.86	299.59
371.06	276.18
371.25	266.82
371.45	313.63
371.65	332.36
371.84	425.98
372.04	337.04
372.24	369.80
372.44	351.08
372.63	383.85
372.83	421.30
373.03	425.98
373.22	367.46
373.42	407.25
373.62	407.25
373.81	409.59
374.01	465.77
374.21	451.72
374.40	433.00
374.60	465.77
374.79	484.49
374.99	451.72
375.19	437.68
375.38	512.58
375.58	468.11
375.78	491.51
375.97	454.06
376.17	475.13
376.37	472.79
376.56	458.74
376.76	468.11
376.95	475.13
377.15	517.26
377.35	510.24
377.54	528.96
377.74	498.53
377.93	507.90
378.13	449.38
378.33	533.64
378.52	594.50
378.72	510.24
378.91	496.19
379.11	547.69
379.31	543.00
379.50	552.37
379.70	564.07
379.89	510.24
380.09	545.34
380.28	533.64
380.48	489.17
380.68	430.66
380.87	629.60
381.07	505.56
381.26	575.77
381.46	573.43
381.65	550.03
381.85	521.94
382.04	545.34
382.24	596.84
382.43	557.05
382.63	596.84
382.83	601.52
383.02	695.14
383.22	550.03
383.41	596.84
383.61	603.86
383.80	690.46
384.00	550.03
384.19	617.90
384.39	655.35
384.58	596.84
384.78	547.69
384.97	690.46
385.17	582.79
385.36	657.69
385.56	648.33
385.75	645.99
385.95	681.10
386.14	638.97
386.34	629.60
386.53	636.63
386.72	727.91
386.92	711.52
387.11	739.61
387.31	716.20
387.50	725.57
387.70	641.31
387.89	730.25
388.09	690.46
388.28	755.99
388.48	685.78
388.67	748.97
388.86	734.93
389.06	720.88
389.25	706.84
389.45	795.78
389.64	751.31
389.84	828.55
390.03	784.08
390.22	840.25
390.42	786.42
390.61	727.91
390.81	809.83
391.00	800.46
391.19	807.48
391.39	847.27
391.58	926.85
391.78	861.32
391.97	924.51
392.16	861.32
392.36	919.83
392.55	898.77
392.75	997.07
392.94	779.40
393.13	922.17
393.33	828.55
393.52	908.13
393.71	973.66
393.91	1004.09
394.10	875.36
394.29	912.81
394.49	940.90
394.68	1022.81
394.88	1018.13
395.07	924.51
395.26	985.37
395.46	940.90
395.65	1090.69
395.84	983.02
396.04	1071.97
396.23	1050.90
396.42	1034.52
396.62	1004.09
396.81	1062.60
397.00	1036.86
397.19	1090.69
397.39	1090.69
397.58	1083.67
397.77	1043.88
397.97	1057.92
398.16	1188.99
398.35	1181.97
398.55	1100.05
398.74	1177.29
398.93	1181.97
399.12	1214.74
399.32	1146.86
399.51	1172.61
399.70	1165.59
399.90	1221.76
400.09	1184.31
400.28	1284.95
400.47	1142.18
400.67	1235.80
400.86	1284.95
401.05	1299.00
401.24	1383.26
401.44	1366.87
401.63	1268.57
401.82	1355.17
402.01	1441.77
402.21	1453.47
402.40	1437.09
402.59	1383.26
402.78	1369.21
402.97	1366.87
403.17	1413.68
403.36	1504.96
403.55	1465.18
403.74	1568.16
403.93	1511.99
404.13	1535.39
404.32	1460.49
404.51	1528.37
404.70	1619.65
404.89	1621.99
405.09	1675.82
405.28	1511.99
405.47	1577.52
405.66	1570.50
405.85	1717.95
406.05	1621.99
406.24	1640.72
406.43	1701.57
406.62	1736.68
406.81	1734.34
407.00	1764.76
407.20	1764.76
407.39	1734.34
407.58	1867.75
407.77	1919.24
407.96	1753.06
408.15	1825.62
408.34	1816.26
408.54	1820.94
408.73	1886.47
408.92	1937.96
409.11	2003.50
409.30	1944.99
409.49	1966.05
409.68	2026.90
409.87	2010.52
410.07	2062.01
410.26	2015.20
410.45	2066.69
410.64	2097.12
410.83	2181.38
411.02	2132.23
411.21	2122.87
411.40	2148.61
411.59	2136.91
411.78	2223.51
411.98	2195.42
412.17	2228.19
412.36	2242.23
412.55	2359.26
412.74	2448.20
412.93	2427.14
413.12	2413.09
413.31	2497.35
413.50	2483.31
413.69	2457.56
413.88	2530.12
414.07	2502.03
414.26	2551.18
414.45	2614.38
414.64	2553.52
414.83	2593.31
415.02	2626.08
415.22	2766.51
415.41	2801.62
415.60	2808.64
415.79	2710.34
415.98	2911.63
416.17	2848.43
416.36	2869.50
416.55	2956.10
416.74	2909.29
416.93	2869.50
417.12	3033.33
417.31	2897.58
417.50	3042.70
417.69	3077.80
417.88	3059.08
418.07	3110.57
418.26	2998.23
418.45	3166.74
418.64	3253.34
418.83	3251.00
419.02	3152.70
419.21	3187.81
419.39	3304.84
419.58	3171.43
419.77	3225.26
419.96	3335.26
420.15	3325.90
420.34	3323.56
420.53	3428.88
420.72	3517.83
420.91	3351.65
421.10	3508.46
421.29	3597.40
421.48	3351.65
421.67	3449.95
421.86	3536.55
422.05	3536.55
422.24	3585.70
422.43	3480.38
422.61	3440.59
422.80	3674.64
422.99	3627.83
423.18	3679.32
423.37	3536.55
423.56	3791.67
423.75	3630.17
423.94	3543.57
424.13	3384.41
424.32	3445.27
424.50	3676.98
424.69	3784.65
424.88	3791.67
425.07	3681.66
425.26	3506.12
425.45	3609.11
425.64	3637.19
425.83	3684.00
426.01	3815.07
426.20	3840.82
426.39	3712.09
426.58	3639.53
426.77	3845.50
426.96	3763.58
427.15	3623.15
427.33	3686.34
427.52	3763.58
427.71	3850.18
427.90	3840.82
428.09	3887.63
428.28	3960.19
428.46	3950.82
428.65	3971.89
428.84	4145.09
429.03	4060.83
429.22	3974.23
429.40	4053.81
429.59	3962.53
429.78	3901.67
429.97	4046.79
430.16	3946.14
430.34	3948.48
430.53	4056.15
430.72	4210.62
430.91	4156.79
431.10	4091.26
431.28	4198.92
431.47	4304.25
431.66	4215.30
431.85	4168.49
432.03	4381.48
432.22	4505.53
432.41	4313.61
432.60	4276.16
432.79	4348.72
432.97	4365.10
433.16	4557.02
433.35	4376.80
433.54	4641.28
433.72	4435.32
433.91	4447.02
434.10	4479.79
434.28	4514.89
434.47	4435.32
434.66	4587.45
434.85	4674.05
435.03	4634.26
435.22	4484.47
435.41	4800.44
435.59	4587.45
435.78	4725.54
435.97	4809.80
436.16	4652.98
436.34	4777.03
436.53	4842.57
436.72	4997.04
436.90	4830.87
437.09	4882.36
437.28	4718.52
437.46	4851.93
437.65	4973.64
437.84	4975.98
438.02	4926.83
438.21	5039.17
438.40	4868.31
438.58	5228.76
438.77	5032.15
438.96	5179.61
439.14	5284.93
439.33	5242.80
439.52	5291.95
439.70	5338.76
439.89	5413.66
440.08	5495.58
440.26	5490.90
440.45	5458.13
440.63	5591.54
440.82	5628.99
441.01	5664.10
441.19	5659.42
441.38	5731.97
441.57	5731.97
441.75	5771.76
441.94	5860.70
442.12	5834.96
442.31	5961.34
442.50	6008.16
442.68	5905.17
442.87	5788.14
443.05	6071.35
443.24	6085.39
443.43	6216.46
443.61	6106.46
443.80	6223.48
443.98	5914.53
444.17	5961.34
444.35	6183.70
444.54	6392.00
444.73	6120.50
444.91	5930.92
445.10	6141.57
445.28	6101.78
445.47	6223.48
445.65	6310.08
445.84	6155.61
446.02	6286.68
446.21	6104.12
446.39	6274.98
446.58	6300.72
446.77	6324.13
446.95	6120.50
447.14	6289.02
447.32	6342.85
447.51	6312.42
447.69	6401.37
447.88	6410.73
448.06	6399.02
448.25	6403.71
448.43	6399.02
448.62	6321.79
448.80	6457.54
448.99	6614.35
449.17	6380.30
449.36	6567.54
449.54	6555.84
449.73	6588.61
449.91	6658.82
450.10	6595.63
450.28	6719.68
450.46	6686.91
450.65	6661.16
450.83	6787.55
451.02	6827.34
451.20	6892.88
451.39	6841.39
451.57	6729.04
451.76	6843.73
451.94	6792.23
452.13	7157.36
452.31	6892.88
452.49	6773.51
452.68	6974.80
452.86	7052.03
453.05	6956.07
453.23	7075.44
453.42	6925.65
453.60	6815.64
453.78	7108.21
453.97	7016.93
454.15	7131.61
454.34	7098.84
454.52	7206.51
454.70	7236.94
454.89	7295.45
455.07	7363.33
455.26	7234.60
455.44	7372.69
455.62	7309.49
455.81	7410.14
455.99	7342.26
456.17	7332.90
456.36	7482.69
456.54	7616.10
456.73	7508.44
456.91	7740.15
457.09	7669.94
457.28	7641.85
457.46	7534.18
457.64	7688.66
457.83	7864.20
458.01	7676.96
458.19	7981.23
458.38	7831.43
458.56	8079.53
458.74	7892.29
458.93	7850.16
459.11	7955.48
459.29	8077.19
459.48	7946.12
459.66	8065.49
459.84	8091.23
460.03	8315.92
460.21	8173.15
460.39	8098.25
460.57	8266.77
460.76	8236.35
460.94	8341.67
461.12	8294.86
461.31	8063.15
461.49	8290.18
461.67	8266.77
461.85	8430.61
462.04	8266.77
462.22	9100.00
462.40	8582.74
462.59	8472.74
462.77	8585.08
462.95	8622.53
463.13	8711.47
463.32	8538.27
463.50	8645.94
463.68	8779.35
463.86	8847.22
464.05	8760.63
464.23	8578.06
464.41	8767.65
464.59	8610.83
464.78	8746.58
464.96	8875.31
465.14	8676.37
465.32	8938.51
465.50	9006.38
465.69	9081.28
465.87	8954.89
466.05	8943.19
466.23	9177.24
466.41	8856.59
466.60	9280.22
466.78	8933.82
466.96	9249.80
467.14	9018.08
467.32	9287.25
467.51	9312.99
467.69	9013.40
467.87	9291.93
468.05	9334.06
468.23	9212.35
468.41	9334.06
468.60	9385.55
468.78	9570.45
468.96	9383.21
469.14	9437.04
469.32	9441.72
469.50	9242.78
469.69	9661.73
469.87	9734.29
470.05	9877.06
470.23	9682.80
470.41	9708.54
470.59	9907.49
470.77	9727.27
470.95	9935.57
471.14	9994.09
471.32	9727.27
471.50	10090.05
471.68	10178.99
471.86	9937.91
472.04	10164.95
472.22	10415.38
472.40	10174.31
472.58	10139.20
472.77	10305.38
472.95	10555.82
473.13	10796.89
473.31	10406.02
473.49	10373.25
473.67	10448.15
473.85	10815.62
474.03	10864.77
474.21	10874.13
474.39	10836.68
474.57	11124.57
474.75	10949.03
474.93	11094.14
475.12	11201.80
475.30	11316.49
475.48	11272.02
475.66	11463.94
475.84	11269.68
476.02	11683.95
476.20	11463.94
476.38	11655.87
476.56	11840.77
476.74	11875.88
476.92	11922.69
477.10	11712.04
477.28	11896.94
477.46	12016.31
477.64	12257.39
477.82	12407.18
478.00	12531.23
478.18	12578.04
478.36	12491.44
478.54	12669.32
478.72	12884.65
478.90	12938.48
479.08	13167.85
479.26	13041.46
479.44	13111.68
479.62	13160.83
479.80	13537.66
479.98	13394.89
480.16	13699.16
480.34	13692.13
480.52	13858.31
480.70	13973.00
480.88	13532.98
481.06	14010.45
481.24	13919.17
481.41	14106.41
481.59	14406.00
481.77	14508.98
481.95	14574.52
482.13	14801.55
482.31	14764.10
482.49	14979.43
482.67	15028.58
482.85	14981.77
483.03	15239.23
483.21	15508.39
483.39	15506.05
483.57	15569.24
483.74	15522.43
483.92	15983.52
484.10	15815.00
484.28	16215.23
484.46	16142.67
484.64	16566.31
484.82	16329.92
485.00	16421.20
485.18	17139.74
485.35	17362.09
485.53	16992.29
485.71	16922.07
485.89	17514.23
486.07	17153.79
486.25	17680.41
486.43	17624.23
486.61	17879.35
486.78	17860.63
486.96	18293.63
487.14	18361.50
487.32	18164.90
487.50	18370.86
487.68	18544.06
487.85	19098.77
488.03	19028.56
488.21	19236.86
488.39	19246.23
488.57	19426.45
488.75	19747.10
488.92	19702.63
489.10	19833.70
489.28	20032.65
489.46	20329.89
489.64	20259.68
489.81	20472.67
489.99	20662.25
490.17	20512.46
490.35	21556.33
490.53	20744.17
490.70	21469.73
490.88	21446.33
491.06	21451.01
491.24	21614.85
491.41	21656.98
491.59	22005.72
491.77	21912.10
491.95	21963.59
492.13	22157.85
492.30	22513.61
492.48	22560.42
492.66	22668.09
492.84	22850.65
493.01	22970.02
493.19	22773.41
493.37	23318.76
493.54	23304.71
493.72	23613.66
493.90	23328.12
494.08	23791.55
494.25	23861.76
494.43	23950.70
494.61	23946.02
494.79	24299.44
494.96	24524.13
495.14	24364.98
495.32	25048.41
495.49	24842.45
495.67	25125.65
495.85	25060.12
496.02	25055.43
496.20	25296.51
496.38	25310.55
496.55	25729.51
496.73	25933.14
496.91	25982.29
497.09	25745.89
497.26	26150.81
497.44	25825.47
497.62	26075.91
497.79	26455.08
497.97	26518.27
498.14	26902.12
498.32	27164.26
498.50	26520.61
498.67	26916.16
498.85	26761.69
499.03	27323.41
499.20	27491.93
499.38	27681.52
499.56	27793.86
499.73	27847.69
499.91	27875.78
500.08	28013.87
500.26	27398.31
500.44	28037.28
500.61	28063.02
500.79	28737.10
500.97	28346.23
501.14	28755.82
501.32	29053.07
501.49	29151.37
501.67	28547.51
501.84	29385.43
502.02	29509.47
502.20	29457.98
502.37	29343.30
502.55	29303.51
502.72	29642.88
502.90	29380.74
503.07	29661.61
503.25	29949.50
503.43	29827.79
503.60	30038.44
503.78	29947.15
503.95	29855.87
504.13	30356.75
504.30	30195.25
504.48	30618.89
504.65	30656.34
504.83	30714.85
505.01	30988.69
505.18	30815.49
505.36	31332.75
505.53	31433.39
505.71	31620.64
505.88	31456.80
506.06	31646.38
506.23	31669.79
506.41	31519.99
506.58	31826.60
506.76	31646.38
506.93	32018.53
507.11	32079.38
507.28	32070.02
507.46	32275.99
507.63	32385.99
507.81	32580.26
507.98	32533.45
508.16	32680.90
508.33	32503.02
508.50	32692.60
508.68	33048.36
508.85	33191.14
509.03	33123.26
509.20	33226.24
509.38	32921.98
509.55	33656.90
509.73	33619.46
509.90	33488.38
510.08	33848.83
510.25	33567.96
510.42	34134.37
510.60	33862.87
510.77	34038.41
510.95	34185.86
511.12	34050.11
511.30	34305.23
511.47	34230.33
511.64	34714.83
511.82	34593.12
511.99	34139.05
512.17	34836.53
512.34	34506.52
512.51	35264.85
512.69	35512.95
512.86	34958.24
513.04	35428.69
513.21	35463.80
513.38	35063.57
513.56	35688.49
513.73	35512.95
513.90	35618.27
514.08	35833.60
514.25	36481.93
514.43	36210.43
514.60	36226.81
514.77	35847.64
514.95	36407.03
515.12	35859.35
515.29	36297.03
515.47	36758.11
515.64	36830.67
515.81	36648.11
515.99	36830.67
516.16	37251.97
516.33	36524.06
516.51	37411.12
516.68	36987.49
516.85	37319.84
517.03	37329.20
517.20	37436.87
517.37	37380.70
517.54	37670.92
517.72	37766.88
517.89	37167.71
518.06	37799.65
518.24	37801.99
518.41	38059.45
518.58	38323.93
518.75	38078.18
518.93	38139.03
519.10	38007.96
519.27	37832.42
519.45	38452.66
519.62	38623.52
519.79	39098.65
519.96	38567.35
520.14	38993.32
520.31	38611.82
520.48	39187.59
520.65	39061.20
520.83	38810.76
521.00	39208.65
521.17	39143.12
521.34	39601.86
521.52	39517.60
521.69	39339.72
521.86	39477.82
522.03	39550.37
522.20	39618.25
522.38	39817.19
522.55	40114.44
522.72	39812.51
522.89	40020.82
523.07	40481.91
523.24	40133.17
523.41	40404.67
523.58	40526.38
523.75	40332.11
523.92	40959.38
524.10	40615.32
524.27	40907.88
524.44	40814.26
524.61	41385.35
524.78	41383.01
524.96	40591.91
525.13	41071.72
525.30	41373.65
525.47	41560.89
525.64	41436.84
525.81	41277.69
525.98	41565.57
526.16	41851.12
526.33	41268.33
526.50	41839.42
526.67	41600.68
526.84	41614.72
527.01	42066.45
527.18	41991.55
527.36	42253.69
527.53	42246.67
527.70	42445.62
527.87	41904.95
528.04	42141.35
528.21	42181.13
528.38	42195.18
528.55	42747.54
528.72	42740.52
528.89	42667.97
529.07	42696.05
529.24	42534.56
529.41	42796.70
529.58	42656.26
529.75	43077.56
529.92	43021.39
530.09	43454.39
530.26	42927.77
530.43	42848.19
530.60	42941.81
530.77	42990.96
530.94	43693.12
531.11	43157.14
531.28	43475.45
531.46	43824.19
531.63	43491.83
531.80	43435.66
531.97	43749.29
532.14	43583.12
532.31	43679.08
532.48	43901.43
532.65	44074.63
532.82	43964.62
532.99	44093.35
533.16	44060.58
533.33	44479.54
533.50	44559.12
533.67	44144.84
533.84	44020.80
534.01	44151.87
534.18	44392.94
534.35	44823.60
534.52	44598.91
534.69	44767.43
534.86	45141.91
535.03	44802.53
535.20	44521.67
535.37	44996.80
535.54	44814.24
535.71	44790.83
535.88	45361.92
536.05	45153.62
536.22	45612.36
536.38	45518.74
536.55	45106.80
536.72	45052.97
536.89	44788.49
537.06	45247.24
537.23	45659.17
537.40	45324.47
537.57	45390.01
537.74	45783.22
537.91	45717.68
538.08	45682.58
538.25	45242.56
538.42	45436.82
538.59	46057.06
538.75	45783.22
538.92	45794.92
539.09	46314.52
539.26	45881.52
539.43	46429.21
539.60	46075.79
539.77	46164.73
539.94	45933.01
540.11	46405.80
540.28	46829.44
540.44	46490.06
540.61	46623.47
540.78	46841.14
540.95	46211.54
541.12	46616.45
541.29	46686.67
541.46	46754.54
541.62	46562.62
541.79	46911.36
541.96	46115.58
542.13	46569.64
542.30	46993.28
542.47	46983.91
542.63	46831.78
542.80	46993.28
542.97	47075.19
543.14	47412.23
543.31	47304.57
543.48	47318.61
543.64	48032.47
543.81	47777.36
543.98	47859.27
544.15	47543.30
544.32	47952.90
544.48	48088.65
544.65	47629.90
544.82	47894.38
544.99	47552.66
545.16	47934.17
545.32	47746.93
545.49	48313.34
545.66	48343.77
545.83	47533.94
546.00	48266.53
546.16	48388.24
546.33	48261.85
546.50	47938.85
546.67	48685.48
546.83	48168.22
547.00	48198.65
547.17	48285.25
547.34	48664.42
547.50	48453.77
547.67	48701.87
547.84	48561.44
548.00	48559.09
548.17	48781.45
548.34	48552.07
548.51	49024.86
548.67	48657.40
548.84	48832.94
549.01	48758.04
549.18	48465.47
549.34	48376.53
549.51	49008.48
549.68	49050.61
549.84	48879.75
550.01	48708.89
550.18	48945.28
550.34	49050.61
550.51	49462.54
550.68	49453.18
550.84	48870.39
551.01	49474.24
551.18	49289.34
551.34	48940.60
551.51	49249.55
551.68	49256.57
551.84	49268.28
552.01	49048.27
552.18	49174.66
552.34	49212.10
552.51	49298.70
552.68	49567.87
552.84	49698.94
553.01	50354.29
553.18	49956.39
553.34	49780.85
553.51	49591.27
553.67	49855.75
553.84	49940.01
554.01	50071.08
554.17	49867.45
554.34	50019.59
554.51	50089.80
554.67	50136.62
554.84	50309.82
555.00	49902.56
555.17	50064.06
555.33	49902.56
555.50	49504.67
555.67	49605.31
555.83	49977.46
556.00	49839.37
556.16	50410.46
556.33	50424.50
556.50	50335.56
556.66	50373.01
556.83	50127.25
556.99	50555.57
557.16	50590.68
557.32	50373.01
557.49	50550.89
557.65	50688.98
557.82	50611.74
557.98	50609.40
558.15	50562.59
558.32	50576.64
558.48	50684.30
558.65	50461.95
558.81	50475.99
558.98	50520.46
559.14	50274.71
559.31	50539.19
559.47	50770.90
559.64	50717.07
559.80	50859.84
559.97	50822.39
560.13	50389.39
560.30	50796.65
560.46	50567.27
560.63	50768.56
560.79	50932.40
560.96	50897.29
561.12	50869.20
561.29	51133.68
561.45	50890.27
561.61	51217.94
561.78	51035.38
561.94	51030.70
562.11	50768.56
562.27	51016.66
562.44	51271.78
562.60	51395.82
562.77	51290.50
562.93	51002.61
563.10	51477.74
563.26	51323.27
563.42	51374.76
563.59	51239.01
563.75	51112.62
563.92	50967.51
564.08	51058.79
564.24	50965.17
564.41	51295.18
564.57	51175.81
564.74	50958.14
564.90	51449.66
565.07	50894.95
565.23	51421.57
565.39	51166.45
565.56	51295.18
565.72	51419.23
565.88	51248.37
566.05	51562.00
566.21	51452.00
566.38	51173.47
566.54	51400.50
566.70	51667.33
566.87	51620.52
567.03	51498.81
567.19	51468.38
567.36	51508.17
567.52	51360.72
567.68	51826.48
567.85	51428.59
568.01	51463.70
568.17	51285.82
568.34	51753.93
568.50	51477.74
568.66	51281.14
568.83	52016.07
568.99	51292.84
569.15	51468.38
569.32	51789.03
569.48	51700.09
569.64	51821.80
569.81	51868.61
569.97	51398.16
570.13	51732.86
570.30	51559.66
570.46	51543.28
570.62	51613.49
570.78	51529.23
570.95	51669.67
571.11	51730.52
571.27	51892.02
571.43	51784.35
571.60	52161.18
571.76	51569.02
571.92	51973.94
572.09	51744.56
572.25	51971.60
572.41	51859.25
572.57	52072.24
572.74	51980.96
572.90	51906.06
573.06	51985.64
573.22	52203.31
573.38	52350.76
573.55	51650.94
573.71	52069.90
573.87	51892.02
574.03	51536.26
574.20	51681.37
574.36	51386.46
574.52	51826.48
574.68	52013.73
574.84	52168.20
575.01	52233.74
575.17	52243.10
575.33	51985.64
575.49	51786.69
575.65	52060.54
575.82	51702.43
575.98	51718.82
576.14	52233.74
576.30	52266.50
576.46	52097.98
576.62	52264.16
576.79	52130.75
576.95	52018.41
577.11	52079.26
577.27	51936.49
577.43	51576.04
577.59	52231.40
577.75	51889.68
577.92	51634.56
578.08	52233.74
578.24	52025.43
578.40	52207.99
578.56	52193.95
578.72	51931.81
578.88	52367.15
579.04	52182.24
579.21	51791.37
579.37	51913.08
579.53	51927.13
579.69	52051.17
579.85	52229.05
580.01	52271.18
580.17	52184.58
580.33	52212.67
580.49	52364.81
580.65	52058.20
580.82	52062.88
580.98	52062.88
581.14	51978.62
581.30	52205.65
581.46	52018.41
581.62	51936.49
581.78	52170.54
581.94	52268.84
582.10	52240.76
582.26	52137.77
582.42	52135.43
582.58	52151.82
582.74	52109.69
582.90	52147.14
583.06	52442.04
583.22	52292.25
583.38	52488.85
583.54	52353.10
583.70	52446.72
583.86	52708.86
584.02	52140.11
584.18	52219.69
584.34	52186.92
584.50	52346.08
584.66	52294.59
584.82	51917.76
584.98	52219.69
585.14	52411.62
585.30	51791.37
585.46	52516.94
585.62	52191.61
585.78	52561.41
585.94	51716.48
586.10	51957.55
586.26	52051.17
586.42	52151.82
586.58	52282.89
586.74	52271.18
586.90	52133.09
587.06	52392.89
587.22	52608.22
587.38	52310.97
587.54	52758.02
587.70	52811.85
587.86	52589.50
588.02	52210.33
588.18	52580.13
588.34	52451.41
588.49	52561.41
588.65	52090.96
588.81	52538.01
588.97	52694.82
589.13	52547.37
589.29	52765.04
589.45	52882.06
589.61	52528.64
589.77	52282.89
589.93	52542.69
590.08	52486.51
590.24	52715.89
590.40	52582.48
590.56	52570.77
590.72	52664.39
590.88	52655.03
591.04	52451.41
591.20	53052.92
591.35	52837.59
591.51	52992.07
591.67	52802.49
591.83	52552.05
591.99	52835.25
592.15	52505.24
592.31	52949.94
592.46	52879.72
592.62	52980.37
592.78	52971.00
592.94	53258.89
593.10	52858.66
593.26	52832.91
593.41	52694.82
593.57	52615.24
593.73	52509.92
593.89	52540.35
594.05	52879.72
594.20	52795.46
594.36	52919.51
594.52	53001.43
594.68	53088.03
594.84	53024.84
594.99	53176.97
595.15	52921.85
595.31	52704.18
595.47	52638.65
595.62	53010.79
595.78	52865.68
595.94	52891.43
596.10	53071.65
596.25	52994.41
596.41	53052.92
596.57	52942.92
596.73	53038.88
596.88	53106.76
597.04	52987.39
597.20	52776.74
597.36	52779.08
597.51	53249.53
597.67	53059.94
597.83	52732.27
597.99	53083.35
598.14	52877.38
598.30	53106.76
598.46	53212.08
598.61	52774.40
598.77	52832.91
598.93	52725.25
599.09	53230.80
599.24	52858.66
599.40	52938.24
599.56	53024.84
599.71	53041.22
599.87	53216.76
600.03	53289.32
600.18	53228.46
600.34	53303.36
600.50	53263.57
600.65	53013.13
600.81	53165.27
600.97	53130.16
601.12	52978.03
601.28	52917.17
601.44	53001.43
601.59	53013.13
601.75	53116.12
601.91	53165.27
602.06	53167.61
602.22	53069.31
602.37	52935.90
602.53	53010.79
602.69	53001.43
602.84	52959.30
603.00	53097.39
603.16	52875.04
603.31	52896.11
603.47	53013.13
603.62	52989.73
603.78	53467.20
603.94	53268.25
604.09	53406.34
604.25	52931.22
604.40	53188.67
604.56	53127.82
604.71	52865.68
604.87	52893.77
605.03	52973.34
605.18	52608.22
605.34	52823.55
605.49	52846.96
605.65	53153.57
605.80	52776.74
605.96	53048.24
606.12	53092.71
606.27	53078.67
606.43	52811.85
606.58	53048.24
606.74	52692.48
606.89	52500.56
607.05	52619.92
607.20	52963.98
607.36	52954.62
607.51	53069.31
607.67	52844.62
607.82	53139.52
607.98	52706.52
608.13	52952.28
608.29	52882.06
608.44	52825.89
608.60	52905.47
608.75	52648.01
608.91	52549.71
609.06	52383.53
609.22	53013.13
609.37	52516.94
609.53	52591.84
609.68	52868.02
609.84	52680.78
609.99	52645.67
610.15	52713.55
610.30	52821.21
610.46	52659.71
610.61	52552.05
610.76	52456.09
610.92	52233.74
611.07	52556.73
611.23	52521.62
611.38	52610.56
611.54	52708.86
611.69	52554.39
611.84	52687.80
612.00	52498.22
612.15	52203.31
612.31	52538.01
612.46	52395.23
612.62	52453.75
612.77	52067.56
612.92	52488.85
613.08	52523.96
613.23	52332.04
613.39	52327.36
613.54	52362.46
613.69	52622.26
613.85	52481.83
614.00	52713.55
614.15	52491.19
614.31	52669.08
614.46	52329.70
614.62	52346.08
614.77	52226.71
614.92	52453.75
615.08	52622.26
615.23	52573.11
615.38	52507.58
615.54	52294.59
615.69	52055.85
615.84	52292.25
616.00	52514.60
616.15	52563.75
616.30	52205.65
616.46	52313.31
616.61	52198.63
616.76	51889.68
616.92	52060.54
617.07	51896.70
617.22	51941.17
617.37	51873.29
617.53	52404.59
617.68	52161.18
617.83	52233.74
617.99	52069.90
618.14	52458.43
618.29	51789.03
618.45	51948.19
618.60	51894.36
618.75	51800.74
618.90	51742.22
619.06	51931.81
619.21	51620.52
619.36	52023.09
619.51	51543.28
619.67	51576.04
619.82	51840.53
619.97	52034.79
620.12	51452.00
620.28	51173.47
620.43	51334.97
620.58	51578.39
620.73	51239.01
620.89	51566.68
621.04	51466.04
621.19	51583.07
621.34	51639.24
621.49	51604.13
621.65	51758.61
621.80	51863.93
621.95	51955.21
622.10	51892.02
622.25	51613.49
622.41	51391.14
622.56	51461.36
622.71	51592.43
622.86	51508.17
623.01	51386.46
623.16	51367.74
623.32	51489.45
623.47	51597.11
623.62	51608.81
623.77	51622.86
623.92	51477.74
624.07	51395.82
624.23	51629.88
624.38	51494.13
624.53	51168.79
624.68	51285.82
624.83	51002.61
624.98	51133.68
625.13	51241.35
625.29	51042.40
625.44	51086.87
625.59	51194.54
625.74	50859.84
625.89	51044.74
626.04	50908.99
626.19	50951.12
626.34	51365.40
626.49	50932.40
626.65	50796.65
626.80	50927.72
626.95	50878.57
627.10	50504.08
627.25	50979.21
627.40	50763.88
627.55	50628.13
627.70	51004.95
627.85	50913.67
628.00	50773.24
628.15	50864.52
628.30	50815.37
628.45	50951.12
628.60	50550.89
628.76	50415.14
628.91	50845.80
629.06	50520.46
629.21	50866.86
629.36	49993.84
629.51	50298.11
629.66	50586.00
629.81	50218.53
629.96	50873.88
630.11	50323.86
630.26	50508.76
630.41	50277.05
630.56	50384.71
630.71	50370.67
630.86	50373.01
631.01	50181.09
631.16	50260.66
631.31	49694.25
631.46	49897.88
631.61	50459.61
631.76	50398.76
631.91	50782.60
632.06	50167.04
632.21	49923.63
632.36	50349.60
632.51	49935.33
632.66	50153.00
632.81	49654.47
632.96	49874.48
633.10	49904.90
633.25	49757.45
633.40	49574.89
633.55	50047.68
633.70	49907.24
633.85	50272.37
634.00	49993.84
634.15	49773.83
634.30	49799.58
634.45	49783.19
634.60	50033.63
634.75	49900.22
634.90	49502.33
635.05	49830.01
635.19	49514.03
635.34	49855.75
635.49	49532.76
635.64	49521.05
635.79	50101.51
635.94	49490.63
636.09	49450.84
636.24	49729.36
636.39	49771.49
636.53	49762.13
636.68	49797.24
636.83	49591.27
636.98	49696.59
637.13	49043.59
637.28	50028.95
637.43	49659.15
637.57	49677.87
637.72	49102.10
637.87	49523.40
638.02	49425.09
638.17	49326.79
638.32	49265.94
638.46	49462.54
638.61	49251.89
638.76	49668.51
638.91	49450.84
639.06	49097.42
639.20	48889.11
639.35	49095.08
639.50	48816.55
639.65	48795.49
639.80	49027.20
639.94	48582.50
640.09	48736.98
640.24	49008.48
640.39	49195.72
640.54	49099.76
640.68	48891.45
640.83	49003.80
640.98	48769.74
641.13	48409.30
641.27	49186.36
641.42	48971.03
641.57	48397.60
641.72	48355.47
641.86	48477.18
642.01	48533.35
642.16	48285.25
642.31	48285.25
642.45	48856.34
642.60	48676.12
642.75	48825.92
642.90	48893.79
643.04	48432.71
643.19	48058.22
643.34	48502.92
643.48	48470.15
643.63	48533.35
643.78	48851.66
643.93	48385.89
644.07	48528.67
644.22	48193.97
644.37	48465.47
644.51	48306.32
644.66	48376.53
644.81	48191.63
644.95	48498.24
645.10	48114.39
645.25	47669.69
645.39	48025.45
645.54	48137.80
645.69	48083.97
645.83	48303.98
645.98	48343.77
646.13	47936.51
646.27	47894.38
646.42	48102.69
646.57	47887.36
646.71	47875.66
646.86	48165.88
647.00	48303.98
647.15	48383.55
647.30	48193.97
647.44	48147.16
647.59	48198.65
647.74	48210.35
647.88	47908.43
648.03	47929.49
648.17	47524.58
648.32	47606.50
648.47	48020.77
648.61	47590.11
648.76	47962.26
648.90	47620.54
649.05	47903.74
649.20	47878.00
649.34	47873.32
649.49	47473.09
649.63	48076.94
649.78	47913.11
649.92	47753.95
650.07	48163.54
650.21	47255.42
650.36	47393.51
650.51	47157.11
650.65	47194.56
650.80	47744.59
650.94	47360.74
651.09	47065.83
651.23	46902.00
651.38	47208.61
651.52	46843.48
651.67	47452.02
651.81	47585.43
651.96	47299.89
652.10	47428.62
652.25	47072.85
652.39	47257.76
652.54	47337.33
652.68	46590.70
652.83	46960.51
652.97	46810.71
653.12	46632.83
653.26	47182.86
653.41	46686.67
653.55	46665.60
653.70	46916.04
653.84	47281.16
653.99	46813.05
654.13	47107.96
654.27	47082.22
654.42	46843.48
654.56	46604.75
654.71	46703.05
654.85	46263.03
655.00	46649.22
655.14	46279.41
655.29	46288.77
655.43	46700.71
655.57	46351.97
655.72	46600.07
655.86	46593.04
656.01	46630.49
656.15	46501.76
656.30	46398.78
656.44	46263.03
656.58	46047.70
656.73	45869.82
656.87	46092.17
657.01	45865.14
657.16	46068.76
657.30	46218.56
657.45	46260.69
657.59	46230.26
657.73	45743.43
657.88	46181.11
658.02	45984.51
658.16	46216.22
658.31	46113.23
658.45	46356.65
658.60	46075.79
658.74	46274.73
658.88	45549.17
659.03	45584.27
659.17	45495.33
659.31	45322.13
659.46	45375.97
659.60	45287.03
659.74	45258.94
659.89	45507.04
660.03	45256.60
660.17	45668.53
660.32	45137.23
660.46	45600.66
660.60	44994.46
660.74	45607.68
660.89	45439.16
661.03	45404.05
661.17	45460.23
661.32	44861.05
661.46	44641.04
661.60	44594.23
661.74	44928.92
661.89	44807.22
662.03	44919.56
662.17	44341.45
662.31	44472.52
662.46	45067.02
662.60	44582.52
662.74	44589.55
662.88	44755.72
663.03	44779.13
663.17	44790.83
663.31	44528.69
663.45	44687.85
663.60	44362.51
663.74	43793.76
663.88	44081.65
664.02	44039.52
664.17	44271.23
664.31	43629.93
664.45	43845.26
664.59	43796.10
664.73	43629.93
664.88	44179.95
665.02	43604.18
665.16	43866.32
665.30	43817.17
665.44	44009.09
665.59	43639.29
665.73	44069.95
665.87	43320.98
666.01	42972.24
666.15	43014.37
666.29	42909.04
666.44	43524.60
666.58	43220.33
666.72	42689.03
666.86	42969.90
667.00	42946.49
667.14	42810.74
667.28	42588.39
667.43	42838.83
667.57	42988.62
667.71	43225.01
667.85	42983.94
667.99	43189.91
668.13	42866.91
668.27	42419.87
668.41	42513.49
668.56	42141.35
668.70	42316.89
668.84	41904.95
668.98	41893.25
669.12	42068.79
669.26	42160.07
669.40	42246.67
669.54	42351.99
669.68	42410.51
669.82	41890.91
669.96	41865.16
670.10	41628.77
670.25	41933.04
670.39	41780.90
670.53	41188.75
670.67	41415.78
670.81	41448.55
670.95	41567.91
671.09	40875.12
671.23	40863.41
671.37	40992.14
671.51	41214.49
671.65	40334.45
671.79	40914.90
671.93	40821.28
672.07	40996.82
672.21	40868.09
672.35	40364.88
672.49	40671.49
672.63	40697.24
672.77	40360.20
672.91	40390.62
673.05	40236.15
673.19	40739.36
673.33	39976.35
673.47	40107.42
673.61	39929.54
673.75	40074.65
673.89	40158.91
674.03	40126.14
674.17	39515.26
674.31	39981.03
674.45	39700.17
674.59	39395.90
674.73	39264.83
674.87	39838.26
675.01	39339.72
675.15	39234.40
675.29	39522.29
675.43	39510.58
675.56	39199.29
675.70	39473.13
675.84	38841.19
675.98	37848.80
676.12	38618.84
676.26	38763.95
676.40	38562.67
676.54	38197.54
676.68	38576.71
676.82	37989.24
676.96	37874.55
677.10	38164.78
677.23	38202.22
677.37	37975.19
677.51	38539.26
677.65	37827.74
677.79	37429.85
677.93	37303.46
678.07	37247.29
678.21	36360.22
678.34	36708.96
678.48	36538.10
678.62	36594.28
678.76	36519.38
678.90	36297.03
679.04	36800.24
679.18	36816.63
679.31	36477.25
679.45	36526.40
679.59	36690.24
679.73	36723.01
679.87	36545.12
680.00	36142.55
680.14	35964.67
680.28	36058.29
680.42	36095.74
680.56	35185.27
680.70	35101.01
680.83	35068.25
680.97	34656.31
681.11	35218.04
681.25	35126.76
681.39	34803.77
681.52	34621.20
681.66	34471.41
681.80	34834.19
681.94	34960.58
682.07	34836.53
682.21	34677.38
682.35	34436.30
682.49	34342.68
682.62	34017.35
682.76	33897.98
682.90	33795.00
683.04	33977.56
683.17	33729.46
683.31	33436.89
683.45	33376.04
683.59	33392.42
683.72	32865.80
683.86	32989.85
684.00	33097.52
684.13	32545.15
684.27	33165.39
684.41	33174.75
684.55	33181.77
684.68	32865.80
684.82	32725.37
684.96	32376.63
685.09	32327.48
685.23	31735.32
685.37	31784.48
685.50	32222.16
685.64	31302.32
685.78	31576.17
685.91	31763.41
686.05	31672.13
686.19	30593.14
686.32	31515.31
686.46	31311.69
686.60	31175.94
686.73	31232.11
686.87	31138.49
687.01	31267.22
687.14	31040.18
687.28	30902.09
687.42	31122.10
687.55	30771.02
687.69	30766.34
687.82	30387.18
687.96	30504.20
688.10	30171.85
688.23	29986.94
688.37	29858.21
688.50	29621.82
688.64	29619.48
688.78	29521.18
688.91	29450.96
689.05	29745.87
689.18	29544.58
689.32	29179.46
689.46	29289.46
689.59	29111.58
689.73	28861.15
689.86	28795.61
690.00	29158.39
690.13	29390.11
690.27	28830.72
690.41	28636.45
690.54	28151.96
690.68	28479.64
690.81	28236.22
690.95	28376.66
691.08	28009.19
691.22	27651.09
691.35	28166.01
691.49	27505.98
691.62	27639.39
691.76	27740.03
691.89	27538.74
692.03	27440.44
692.16	27498.95
692.30	27524.70
692.43	27459.16
692.57	27143.19
692.70	26960.63
692.84	26869.35
692.97	26401.24
693.11	26251.45
693.24	26281.88
693.38	26279.54
693.51	26197.62
693.65	26316.98
693.78	25965.90
693.92	25961.22
694.05	25713.13
694.19	26178.89
694.32	25446.30
694.45	25757.60
694.59	25614.82
694.72	25687.38
694.86	25977.61
694.99	25249.70
695.13	25282.47
695.26	25474.39
695.39	25046.07
695.53	24694.99
695.66	24283.06
695.80	24425.83
695.93	24063.05
696.07	23946.02
696.20	24034.96
696.33	23999.85
696.47	23955.38
696.60	23821.97
696.73	23859.42
696.87	23733.03
697.00	23618.35
697.14	23534.09
697.27	23620.69
697.40	24072.41
697.54	23550.47
697.67	23468.55
697.80	23372.59
697.94	23211.09
698.07	22731.28
698.21	22789.80
698.34	22721.92
698.47	22380.20
698.61	22260.84
698.74	22391.91
698.87	22504.25
699.01	22104.02
699.14	22024.44
699.27	22263.18
699.40	22167.21
699.54	21621.87
699.67	21874.65
699.80	21837.20
699.94	21956.57
700.07	21996.35
700.20	21546.97
700.34	21188.87
700.47	21476.76
700.60	21411.22
700.73	21085.89
700.87	20709.06
701.00	20753.53
701.13	20695.02
701.26	20489.05
701.40	20381.38
701.53	20641.18
701.66	20388.41
701.79	20367.34
701.93	20482.03
702.06	20357.98
702.19	19960.09
702.32	20393.09
702.46	20009.24
702.59	20264.36
702.72	19679.22
702.85	19747.10
702.99	19761.14
703.12	19601.99
703.25	19381.98
703.38	19534.11
703.51	19374.95
703.65	19087.07
703.78	18623.64
703.91	18909.19
704.04	19145.58
704.17	19030.90
704.31	18623.64
704.44	18892.80
704.57	18771.10
704.70	18670.45
704.83	18548.75
704.96	18656.41
705.10	18281.92
705.23	18443.42
>>>>>End Processed Spectral Data<<<<<
