SpectraSuite Data File
++++++++++++++++++++++++++++++++++++
Date: Fri Oct 04 11:39:40 GMT-05:00 2013
User: price-jones
Dark Spectrum Present: No
Reference Spectrum Present: No
Number of Sampled Component Spectra: 1
Spectrometers: USB2+H05261
Integration Time (usec): 100000 (USB2+H05261)
Spectra Averaged: 1 (USB2+H05261)
Boxcar Smoothing: 0 (USB2+H05261)
Correct for Electrical Dark: No (USB2+H05261)
Strobe/Lamp Enabled: No (USB2+H05261)
Correct for Detector Non-linearity: No (USB2+H05261)
Correct for Stray Light: No (USB2+H05261)
Number of Pixels in Processed Spectrum: 2048
>>>>>Begin Processed Spectral Data<<<<<
365.73	0.00
365.92	0.00
366.12	0.00
366.32	0.00
366.52	0.00
366.72	25.75
366.91	0.00
367.11	0.00
367.31	0.00
367.51	0.00
367.70	11.70
367.90	0.00
368.10	0.00
368.30	0.00
368.49	0.00
368.69	0.00
368.89	11.70
369.09	30.43
369.28	4.68
369.48	0.00
369.68	0.00
369.87	28.09
370.07	30.43
370.27	100.64
370.47	65.54
370.66	215.33
370.86	252.78
371.06	292.57
371.25	304.27
371.45	208.31
371.65	301.93
371.84	292.57
372.04	266.82
372.24	313.63
372.44	266.82
372.63	299.59
372.83	294.91
373.03	325.33
373.22	320.65
373.42	374.49
373.62	355.76
373.81	346.40
374.01	435.34
374.21	411.93
374.40	348.74
374.60	334.70
374.79	388.53
374.99	313.63
375.19	381.51
375.38	362.78
375.58	327.68
375.78	355.76
375.97	355.76
376.17	470.45
376.37	365.12
376.56	428.32
376.76	372.15
376.95	425.98
377.15	379.17
377.35	327.68
377.54	402.57
377.74	402.57
377.93	442.36
378.13	386.19
378.33	440.02
378.52	465.77
378.72	449.38
378.91	486.83
379.11	393.21
379.31	416.62
379.50	456.40
379.70	463.43
379.89	491.51
380.09	397.89
380.28	416.62
380.48	491.51
380.68	421.30
380.87	390.87
381.07	447.04
381.26	475.13
381.46	468.11
381.65	461.09
381.85	435.34
382.04	442.36
382.24	496.19
382.43	435.34
382.63	477.47
382.83	440.02
383.02	484.49
383.22	498.53
383.41	435.34
383.61	470.45
383.80	505.56
384.00	458.74
384.19	456.40
384.39	456.40
384.58	547.69
384.78	498.53
384.97	524.28
385.17	528.96
385.36	531.30
385.56	582.79
385.75	526.62
385.95	472.79
386.14	596.84
386.34	496.19
386.53	482.15
386.72	449.38
386.92	594.50
387.11	564.07
387.31	599.18
387.50	575.77
387.70	489.17
387.89	564.07
388.09	587.47
388.28	545.34
388.48	528.96
388.67	615.56
388.86	517.26
389.06	550.03
389.25	622.58
389.45	526.62
389.64	596.84
389.84	667.05
390.03	643.65
390.22	660.03
390.42	587.47
390.61	603.86
390.81	655.35
391.00	571.09
391.19	739.61
391.39	667.05
391.58	671.73
391.78	718.54
391.97	624.92
392.16	718.54
392.36	807.48
392.55	730.25
392.75	615.56
392.94	704.50
393.13	695.14
393.33	685.78
393.52	720.88
393.71	779.40
393.91	826.21
394.10	751.31
394.29	758.33
394.49	823.87
394.68	772.38
394.88	767.70
395.07	765.36
395.26	816.85
395.46	835.57
395.65	821.53
395.84	908.13
396.04	894.08
396.23	835.57
396.42	788.76
396.62	880.04
396.81	844.93
397.00	842.59
397.19	844.93
397.39	835.57
397.58	842.59
397.77	833.23
397.97	912.81
398.16	983.02
398.35	959.62
398.55	866.00
398.74	936.21
398.93	1020.47
399.12	915.15
399.32	1034.52
399.51	1001.75
399.70	961.96
399.90	959.62
400.09	997.07
400.28	1114.10
400.47	1090.69
400.67	1116.44
400.86	1041.54
401.05	1050.90
401.24	1186.65
401.44	1064.94
401.63	1064.94
401.82	1142.18
402.01	1067.28
402.21	1137.50
402.40	1226.44
402.59	1160.91
402.78	1167.93
402.97	1231.12
403.17	1228.78
403.36	1198.35
403.55	1299.00
403.74	1247.51
403.93	1261.55
404.13	1394.96
404.32	1362.19
404.51	1341.13
404.70	1376.24
404.89	1270.91
405.09	1362.19
405.28	1324.74
405.47	1306.02
405.66	1500.28
405.85	1420.71
406.05	1385.60
406.24	1488.58
406.43	1511.99
406.62	1504.96
406.81	1593.90
407.00	1455.81
407.20	1530.71
407.39	1511.99
407.58	1549.43
407.77	1617.31
407.96	1610.29
408.15	1640.72
408.34	1633.69
408.54	1612.63
408.73	1668.80
408.92	1650.08
409.11	1720.29
409.30	1647.74
409.49	1673.48
409.68	1650.08
409.87	1792.85
410.07	1771.79
410.26	1795.19
410.45	1802.21
410.64	1757.74
410.83	1818.60
411.02	1902.86
411.21	1963.71
411.40	2003.50
411.59	1886.47
411.78	1949.67
411.98	1949.67
412.17	2090.10
412.36	1996.48
412.55	1954.35
412.74	2118.18
412.93	2150.95
413.12	2136.91
413.31	2235.21
413.50	2101.80
413.69	2230.53
413.88	2244.57
414.07	2253.94
414.26	2263.30
414.45	2342.88
414.64	2326.49
414.83	2289.04
415.02	2438.84
415.22	2420.11
415.41	2567.57
415.60	2523.10
415.79	2476.29
415.98	2511.39
416.17	2677.57
416.36	2640.12
416.55	2626.08
416.74	2768.85
416.93	2689.28
417.12	2717.36
417.31	2862.48
417.50	2691.62
417.69	2789.92
417.88	2902.26
418.07	2743.11
418.26	2862.48
418.45	2881.20
418.64	2979.50
418.83	2911.63
419.02	2794.60
419.21	2970.14
419.39	2974.82
419.58	3063.76
419.77	3061.42
419.96	3075.46
420.15	3150.36
420.34	3077.80
420.53	3192.49
420.72	3361.01
420.91	3187.81
421.10	3187.81
421.29	3288.45
421.48	3204.19
421.67	3258.03
421.86	3246.32
422.05	3318.88
422.24	3213.56
422.43	3379.73
422.61	3265.05
422.80	3351.65
422.99	3307.18
423.18	3232.28
423.37	3461.65
423.56	3234.62
423.75	3368.03
423.94	3283.77
424.13	3243.98
424.32	3332.92
424.50	3438.25
424.69	3569.32
424.88	3449.95
425.07	3353.99
425.26	3300.16
425.45	3501.44
425.64	3452.29
425.83	3424.20
426.01	3398.46
426.20	3452.29
426.39	3578.68
426.58	3485.06
426.77	3527.19
426.96	3503.78
427.15	3595.06
427.33	3604.42
427.52	3630.17
427.71	3639.53
427.90	3651.24
428.09	3676.98
428.28	3613.79
428.46	3726.13
428.65	3770.60
428.84	3819.75
429.03	3803.37
429.22	3613.79
429.40	3630.17
429.59	3763.58
429.78	3878.27
429.97	3651.24
430.16	3669.96
430.34	3896.99
430.53	4044.45
430.72	3873.59
430.91	3861.88
431.10	3918.06
431.28	3995.29
431.47	4004.66
431.66	3983.59
431.85	3840.82
432.03	4079.55
432.22	4161.47
432.41	4016.36
432.60	4236.37
432.79	4156.79
432.97	4205.94
433.16	4304.25
433.35	4215.30
433.54	4198.92
433.72	4194.24
433.91	4191.90
434.10	4236.37
434.28	4351.06
434.47	4383.82
434.66	4175.52
434.85	4545.32
435.03	4559.36
435.22	4521.92
435.41	4814.48
435.59	4767.67
435.78	4819.16
435.97	4580.43
436.16	4566.39
436.34	4451.70
436.53	4634.26
436.72	4463.40
436.90	4634.26
437.09	4564.04
437.28	4561.70
437.46	4538.30
437.65	4674.05
437.84	4627.24
438.02	4634.26
438.21	4550.00
438.40	4730.22
438.58	4854.27
438.77	4961.94
438.96	4723.20
439.14	4966.62
439.33	5015.77
439.52	4961.94
439.70	5093.01
439.89	5121.09
440.08	5100.03
440.26	5046.20
440.45	5116.41
440.63	5114.07
440.82	5327.06
441.01	5238.12
441.19	5263.86
441.38	5469.83
441.57	5430.04
441.75	5397.28
441.94	5650.05
442.12	5626.65
442.31	5558.77
442.50	5621.97
442.68	5617.29
442.87	5500.26
443.05	5495.58
443.24	5619.63
443.43	5671.12
443.61	5570.48
443.80	5933.26
443.98	5631.33
444.17	5523.66
444.35	5703.89
444.54	5844.32
444.73	5813.89
444.91	5804.53
445.10	5795.17
445.28	5753.04
445.47	5797.51
445.65	5755.38
445.84	5813.89
446.02	5970.71
446.21	5832.62
446.39	5900.49
446.58	5788.14
446.77	5696.86
446.95	5706.23
447.14	5984.75
447.32	5963.68
447.51	5877.09
447.69	5944.96
447.88	5844.32
448.06	6059.65
448.25	5785.80
448.43	6071.35
448.62	5977.73
448.80	5982.41
448.99	5968.37
449.17	6101.78
449.36	5989.43
449.54	6307.74
449.73	6143.91
449.91	6043.26
450.10	6216.46
450.28	6237.53
450.46	6265.61
450.65	6244.55
450.83	6303.06
451.02	6413.07
451.20	6457.54
451.39	6307.74
451.57	6338.17
451.76	6174.33
451.94	6307.74
452.13	6469.24
452.31	6401.37
452.49	6274.98
452.68	6377.96
452.86	6457.54
453.05	6696.27
453.23	6445.84
453.42	6586.27
453.60	6607.33
453.78	6483.28
453.97	6459.88
454.15	6497.33
454.34	6530.09
454.52	6729.04
454.70	6551.16
454.89	6813.30
455.07	6595.63
455.26	6864.79
455.44	6733.72
455.62	6670.53
455.81	6960.75
455.99	7021.61
456.17	6850.75
456.36	6867.13
456.54	7045.01
456.73	7096.50
456.91	7304.81
457.09	7269.70
457.28	7155.02
457.46	7073.10
457.64	7173.74
457.83	7325.88
458.01	7073.10
458.19	7211.19
458.38	7260.34
458.56	7295.45
458.74	7391.41
458.93	7363.33
459.11	7192.47
459.29	7398.43
459.48	7414.82
459.66	7466.31
459.84	7389.07
460.03	7613.76
460.21	7637.17
460.39	7492.05
460.57	7400.77
460.76	7557.59
460.94	7735.47
461.12	7620.78
461.31	7733.13
461.49	7758.88
461.67	7571.63
461.85	7889.95
462.04	7777.60
462.22	7939.10
462.40	7742.49
462.59	7765.90
462.77	7665.25
462.95	8138.04
463.13	7936.76
463.32	7908.67
463.50	8016.33
463.68	8156.77
463.86	8093.57
464.05	7946.12
464.23	8023.36
464.41	8051.44
464.59	8016.33
464.78	8336.99
464.96	8198.90
465.14	8032.72
465.32	8112.30
465.50	8299.54
465.69	8367.42
465.87	8236.35
466.05	8226.98
466.23	8264.43
466.41	8416.57
466.60	8617.85
466.78	8360.39
466.96	8222.30
467.14	8152.09
467.32	8374.44
467.51	8648.28
467.69	8390.82
467.87	8442.31
468.05	8585.08
468.23	8421.25
468.41	8608.49
468.60	8446.99
468.78	8615.51
468.96	8461.04
469.14	8821.48
469.32	8814.46
469.50	8507.85
469.69	8713.81
469.87	8968.93
470.05	9027.45
470.23	8870.63
470.41	8961.91
470.59	8954.89
470.77	8875.31
470.95	9128.09
471.14	9139.79
471.32	8877.65
471.50	9282.56
471.68	9191.28
471.86	9130.43
472.04	9350.44
472.22	9458.10
472.40	9104.68
472.58	9556.41
472.77	9263.84
472.95	9687.48
473.13	9664.07
473.31	9558.75
473.49	9514.28
473.67	9659.39
473.85	9689.82
474.03	9928.55
474.21	9764.72
474.39	9930.89
474.57	9973.02
474.75	10059.62
474.93	10068.98
475.12	10153.24
475.30	10057.28
475.48	10059.62
475.66	10181.33
475.84	10235.16
476.02	10516.03
476.20	10242.18
476.38	10656.46
476.56	10824.98
476.74	10693.91
476.92	10583.90
477.10	10789.87
477.28	10766.46
477.46	10820.30
477.64	10965.41
477.82	11164.36
478.00	11169.04
478.18	11627.78
478.36	11382.03
478.54	11407.77
478.72	11580.97
478.90	11775.24
479.08	11660.55
479.26	11836.09
479.44	11871.20
479.62	12163.76
479.80	11875.88
479.98	12301.86
480.16	12477.40
480.34	12119.29
480.52	12507.82
480.70	12657.62
480.88	12573.36
481.06	12613.15
481.24	12528.89
481.41	12847.20
481.59	12863.58
481.77	13004.02
481.95	13153.81
482.13	13226.37
482.31	13060.19
482.49	13289.56
482.67	13460.42
482.85	13713.20
483.03	13858.31
483.21	13984.70
483.39	14085.34
483.57	14024.49
483.74	14169.60
483.92	14384.93
484.10	14338.12
484.28	14483.24
484.46	14710.27
484.64	14956.02
484.82	14710.27
485.00	14824.95
485.18	15122.20
485.35	15229.87
485.53	15618.39
485.71	15318.81
485.89	15751.81
486.07	15730.74
486.25	15723.72
486.43	15569.24
486.61	15903.94
486.78	16046.71
486.96	16109.91
487.14	16362.69
487.32	16606.10
487.50	16622.48
487.68	16744.19
487.85	17050.80
488.03	17174.85
488.21	17500.19
488.39	17392.52
488.57	17305.92
488.75	17270.81
488.92	18136.81
489.10	18209.37
489.28	17844.24
489.46	18047.87
489.64	18155.54
489.81	18366.18
489.99	18401.29
490.17	18412.99
490.35	18766.42
490.53	18965.36
490.70	18944.30
490.88	18817.91
491.06	19250.91
491.24	18841.31
491.41	19491.98
491.59	19611.35
491.77	19775.19
491.95	19793.91
492.13	19889.87
492.30	19887.53
492.48	20049.03
492.66	20114.56
492.84	20142.65
493.01	20603.74
493.19	20519.48
493.37	20699.70
493.54	20830.77
493.72	20861.19
493.90	20994.61
494.08	21071.84
494.25	21310.58
494.43	21645.27
494.61	21612.51
494.79	21825.50
494.96	21666.34
495.14	21923.80
495.32	22111.04
495.49	21862.94
495.67	22202.32
495.85	22375.52
496.02	22387.22
496.20	22394.25
496.38	22291.26
496.55	22534.68
496.73	23201.73
496.91	23143.22
497.09	23260.24
497.26	23527.06
497.44	23185.35
497.62	23321.10
497.79	23562.17
497.97	23506.00
498.14	23754.10
498.32	24074.75
498.50	24107.52
498.67	24084.11
498.85	24575.62
499.03	24477.32
499.20	24561.58
499.38	24554.56
499.56	25001.60
499.73	24793.29
499.91	24774.57
500.08	25118.63
500.26	24732.44
500.44	25238.00
500.61	24982.88
500.79	25165.44
500.97	25460.35
501.14	25668.66
501.32	25874.62
501.49	25415.88
501.67	25479.07
501.84	25893.35
502.02	25991.65
502.20	26522.95
502.37	26043.14
502.55	26052.50
502.72	26082.93
502.90	25951.86
503.07	26349.75
503.25	26235.06
503.43	26295.92
503.60	26553.38
503.78	27000.42
503.95	26775.73
504.13	27115.11
504.30	27138.51
504.48	26948.93
504.65	27168.94
504.83	27075.32
505.01	27473.21
505.18	27456.82
505.36	27887.48
505.53	27218.09
505.71	27709.60
505.88	27620.66
506.06	27730.67
506.23	28013.87
506.41	27714.28
506.58	28205.80
506.76	28205.80
506.93	28510.07
507.11	27908.55
507.28	28430.49
507.46	28486.66
507.63	28350.91
507.81	28587.30
507.98	28786.25
508.16	28732.42
508.33	28545.17
508.50	28938.38
508.68	29104.56
508.85	29338.62
509.03	29343.30
509.20	29392.45
509.38	29563.31
509.55	29766.93
509.73	29610.12
509.90	29586.71
510.08	29486.07
510.25	29858.21
510.42	30115.67
510.60	30024.39
510.77	30363.77
510.95	30513.56
511.12	29825.45
511.30	30106.31
511.47	30536.97
511.64	30515.90
511.82	30658.68
511.99	30630.59
512.17	30700.81
512.34	30349.73
512.51	30852.94
512.69	30787.41
512.86	31124.44
513.04	31557.44
513.21	31292.96
513.38	31372.54
513.56	31777.45
513.73	31323.39
513.90	31449.78
514.08	31426.37
514.25	31505.95
514.43	31960.02
514.60	31686.17
514.77	32147.26
514.95	32273.65
515.12	31934.27
515.29	32142.58
515.47	32063.00
515.64	32444.51
515.81	32261.94
515.99	32535.79
516.16	32692.60
516.33	32765.16
516.51	32788.56
516.68	32077.04
516.85	33034.32
517.03	32802.61
517.20	33333.91
517.37	33130.28
517.54	33556.26
517.72	33268.37
517.89	33015.60
518.06	33191.14
518.24	33067.09
518.41	33268.37
518.58	33479.02
518.75	33673.29
518.93	33862.87
519.10	33589.03
519.27	33656.90
519.45	33954.15
519.62	33979.90
519.79	34108.63
519.96	34408.22
520.14	34197.57
520.31	33897.98
520.48	34160.12
520.65	34164.80
520.83	34433.96
521.00	34082.88
521.17	34235.02
521.34	34232.68
521.52	35000.37
521.69	34920.79
521.86	34862.28
522.03	34913.77
522.20	34822.49
522.38	34855.26
522.55	34988.67
522.72	35140.80
522.89	35742.32
523.07	35400.60
523.24	35505.93
523.41	35302.30
523.58	35236.77
523.75	35585.50
523.92	35211.02
524.10	35292.94
524.27	35971.69
524.44	35838.28
524.61	36187.02
524.78	36275.96
524.96	35833.60
525.13	36046.59
525.30	36229.15
525.47	36275.96
525.64	36240.86
525.81	36587.25
525.98	36542.78
526.16	36285.33
526.33	36442.14
526.50	36715.98
526.67	36261.92
526.84	36589.59
527.01	36821.31
527.18	37062.38
527.36	36928.97
527.53	37249.63
527.70	37383.04
527.87	37228.56
528.04	36945.36
528.21	36950.04
528.38	36954.72
528.55	37095.15
528.72	37139.62
528.89	37333.89
529.07	37640.50
529.24	37188.77
529.41	37481.34
529.58	37383.04
529.75	37708.37
529.92	37558.58
530.09	37708.37
530.26	37495.38
530.43	37935.40
530.60	37801.99
530.77	37647.52
530.94	38115.62
531.11	38031.36
531.28	37879.23
531.46	38024.34
531.63	38146.05
531.80	38532.24
531.97	38136.69
532.14	38492.45
532.31	38513.52
532.48	38345.00
532.65	38319.25
532.82	38242.01
532.99	39026.09
533.16	38635.22
533.33	38920.77
533.50	38829.49
533.67	38724.16
533.84	38724.16
534.01	38714.80
534.18	38581.39
534.35	39285.89
534.52	38789.70
534.69	39421.64
534.86	39538.67
535.03	39072.90
535.20	39203.97
535.37	39590.16
535.54	39433.35
535.71	39035.45
535.88	39269.51
536.05	39498.88
536.22	39318.66
536.38	39386.54
536.55	39948.26
536.72	39653.36
536.89	39480.16
537.06	39365.47
537.23	39920.18
537.40	39634.63
537.57	39922.52
537.74	39981.03
537.91	40210.40
538.08	40168.27
538.25	39875.71
538.42	40016.14
538.59	39992.73
538.75	40081.67
538.92	40404.67
539.09	40238.49
539.26	40259.55
539.43	40474.88
539.60	40779.15
539.77	40612.98
539.94	41078.74
540.11	40643.40
540.28	40950.01
540.44	41036.61
540.61	40924.27
540.78	40907.88
540.95	40851.71
541.12	40954.69
541.29	40917.25
541.46	41233.22
541.62	41202.79
541.79	41614.72
541.96	40992.14
542.13	41228.54
542.30	41109.17
542.47	41677.92
542.63	41350.24
542.80	41713.03
542.97	42000.91
543.14	41532.81
543.31	41551.53
543.48	41624.09
543.64	42433.91
543.81	41984.53
543.98	42003.25
544.15	42440.93
544.32	42150.71
544.48	42167.09
544.65	42354.33
544.82	42092.19
544.99	42120.28
545.16	42122.62
545.32	42120.28
545.49	42738.18
545.66	43484.81
545.83	43054.15
546.00	43344.38
546.16	42887.98
546.33	42396.46
546.50	42185.82
546.67	42471.36
546.83	41483.66
547.00	42284.12
547.17	42445.62
547.34	42562.64
547.50	42632.86
547.67	42370.72
547.84	42541.58
548.00	42628.18
548.17	42981.60
548.34	42719.46
548.51	42845.85
548.67	42689.03
548.84	42953.51
549.01	42845.85
549.18	42934.79
549.34	43150.12
549.51	43000.32
549.68	42958.19
549.84	42658.60
550.01	43306.93
550.18	43019.05
550.34	43016.71
550.51	42855.21
550.68	42806.06
550.84	43082.24
551.01	42930.11
551.18	42981.60
551.34	42761.59
551.51	42988.62
551.68	43208.63
551.84	43285.87
552.01	43391.19
552.18	43351.40
552.34	43267.14
552.51	44273.57
552.68	42923.08
552.84	43332.68
553.01	43573.75
553.18	43438.00
553.34	43363.11
553.51	43746.95
553.67	43475.45
553.84	44196.34
554.01	43711.84
554.17	43742.27
554.34	43103.31
554.51	43503.54
554.67	43863.98
554.84	43709.50
555.00	43697.80
555.17	43978.67
555.33	43709.50
555.50	43938.88
555.67	43899.09
555.83	43681.42
556.00	43966.96
556.16	43913.13
556.33	43805.47
556.50	43976.33
556.66	44009.09
556.83	43648.65
556.99	44535.71
557.16	44395.28
557.32	44421.03
557.49	44205.70
557.65	43503.54
557.82	43650.99
557.98	44154.21
558.15	44350.81
558.32	44083.99
558.48	43732.91
558.65	44280.60
558.81	44175.27
558.98	44451.45
559.14	44140.16
559.31	44098.03
559.47	44149.53
559.64	43999.73
559.80	44388.26
559.97	44788.49
560.13	44123.78
560.30	44266.55
560.46	44418.69
560.63	44397.62
560.79	44715.93
560.96	44690.19
561.12	44212.72
561.29	44390.60
561.45	44556.78
561.61	44250.17
561.78	44465.50
561.94	44268.89
562.11	44584.86
562.27	44734.66
562.44	44194.00
562.60	44442.09
562.77	44844.66
562.93	44502.95
563.10	44292.30
563.26	44662.10
563.42	44987.44
563.59	44868.07
563.75	44282.94
563.92	44605.93
564.08	44683.17
564.24	44634.02
564.41	44669.12
564.57	44423.37
564.74	44570.82
564.90	44680.83
565.07	45045.95
565.23	44463.16
565.39	44952.33
565.56	44732.32
565.72	44699.55
565.88	44662.10
566.05	44479.54
566.21	44626.99
566.38	44416.35
566.54	44238.47
566.70	45006.16
566.87	44811.90
567.03	45209.79
567.19	45186.38
567.36	45357.24
567.52	44467.84
567.68	44879.77
567.85	44491.24
568.01	44933.60
568.17	44952.33
568.34	45130.21
568.50	45078.72
568.66	45375.97
568.83	45413.41
568.99	44626.99
569.15	44898.50
569.32	44996.80
569.48	44467.84
569.64	44802.53
569.81	45013.18
569.97	45078.72
570.13	44954.67
570.30	44446.77
570.46	45179.36
570.62	45378.31
570.78	44744.02
570.95	44467.84
571.11	44926.58
571.27	44760.40
571.43	44774.45
571.60	45256.60
571.76	44947.65
571.92	44737.00
572.09	45539.80
572.25	45375.97
572.41	44989.78
572.57	44938.29
572.74	45490.65
572.90	45045.95
573.06	44987.44
573.22	44917.22
573.38	45078.72
573.55	45380.65
573.71	45605.34
573.87	45212.13
574.03	45186.38
574.20	45544.48
574.36	44940.63
574.52	44910.20
574.68	44992.12
574.84	45404.05
575.01	45029.57
575.17	45069.36
575.33	45184.04
575.49	45055.31
575.65	45551.51
575.82	44882.11
575.98	45242.56
576.14	45500.01
576.30	45144.25
576.46	45263.62
576.62	45387.67
576.79	45017.86
576.95	45083.40
577.11	45179.36
577.27	45303.41
577.43	45188.72
577.59	45270.64
577.75	45118.51
577.92	44533.37
578.08	44739.34
578.24	44453.79
578.40	45069.36
578.56	45509.38
578.72	44987.44
578.88	45539.80
579.04	45937.69
579.21	45148.93
579.37	45368.94
579.53	45387.67
579.69	44692.53
579.85	44964.03
580.01	45003.82
580.17	45125.53
580.33	44903.18
580.49	45333.84
580.65	45551.51
580.82	45240.21
580.98	44989.78
581.14	45340.86
581.30	45284.68
581.46	45059.99
581.62	45043.61
581.78	44685.51
581.94	44964.03
582.10	44809.56
582.26	44879.77
582.42	45085.74
582.58	45258.94
582.74	45038.93
582.90	45296.39
583.06	45530.44
583.22	45446.18
583.38	45284.68
583.54	45385.33
583.70	44678.49
583.86	44987.44
584.02	44985.10
584.18	45483.63
584.34	45839.39
584.50	45588.95
584.66	45584.27
584.82	45036.59
584.98	45380.65
585.14	45308.09
585.30	45113.83
585.46	45200.43
585.62	44566.14
585.78	45488.31
585.94	44905.52
586.10	45570.23
586.26	45263.62
586.42	45371.28
586.58	45593.64
586.74	45581.93
586.90	45120.85
587.06	44882.11
587.22	45478.95
587.38	44989.78
587.54	45275.32
587.70	45261.28
587.86	45659.17
588.02	45539.80
588.18	45668.53
588.34	44980.42
588.49	45411.07
588.65	45352.56
588.81	44582.52
588.97	45556.19
589.13	45275.32
589.29	45247.24
589.45	45289.37
589.61	45607.68
589.77	46288.77
589.93	45731.73
590.08	45500.01
590.24	45525.76
590.40	45521.08
590.56	45830.03
590.72	45710.66
590.88	45294.05
591.04	45514.06
591.20	45380.65
591.35	45759.81
591.51	46183.45
591.67	45865.14
591.83	45794.92
591.99	45881.52
592.15	45067.02
592.31	45619.38
592.46	45067.02
592.62	45310.43
592.78	45530.44
592.94	45785.56
593.10	45331.50
593.26	45628.74
593.41	45813.65
593.57	45591.30
593.73	45642.79
593.89	46045.36
594.05	45567.89
594.20	45638.11
594.36	45263.62
594.52	45397.03
594.68	45598.32
594.84	45450.86
594.99	45790.24
595.15	45640.45
595.31	45638.11
595.47	45490.65
595.62	45984.51
595.78	45261.28
595.94	45497.67
596.10	45811.31
596.25	45263.62
596.41	45457.88
596.57	45141.91
596.73	45500.01
596.88	45289.37
597.04	45734.07
597.20	45951.74
597.36	45406.39
597.51	45794.92
597.67	45537.46
597.83	45511.72
597.99	45860.46
598.14	45448.52
598.30	45450.86
598.46	45446.18
598.61	45382.99
598.77	45113.83
598.93	45904.93
599.09	45476.61
599.24	46054.72
599.40	45563.21
599.56	45687.26
599.71	45202.77
599.87	45869.82
600.03	45237.87
600.18	45771.52
600.34	45516.40
600.50	45593.64
600.65	45502.35
600.81	45425.12
600.97	46188.13
601.12	46043.02
601.28	45591.30
601.44	45427.46
601.59	45507.04
601.75	45331.50
601.91	45626.40
602.06	45256.60
602.22	45469.59
602.37	45350.22
602.53	45633.42
602.69	45827.69
602.84	45626.40
603.00	45705.98
603.16	45453.20
603.31	45532.78
603.47	45649.81
603.62	45249.58
603.78	45509.38
603.94	44945.31
604.09	45567.89
604.25	45125.53
604.40	45244.90
604.56	45240.21
604.71	45495.33
604.87	45113.83
605.03	45539.80
605.18	45188.72
605.34	45345.54
605.49	44938.29
605.65	45052.97
605.80	44687.85
605.96	45244.90
606.12	45043.61
606.27	45497.67
606.43	45235.53
606.58	45228.51
606.74	45345.54
606.89	45605.34
607.05	45441.50
607.20	45242.56
607.36	45130.21
607.51	45144.25
607.67	45078.72
607.82	45219.15
607.98	45303.41
608.13	44589.55
608.29	45118.51
608.44	45029.57
608.60	45294.05
608.75	45118.51
608.91	45668.53
609.06	44933.60
609.22	45364.26
609.37	44802.53
609.53	45195.74
609.68	44847.00
609.84	44720.62
609.99	44900.84
610.15	44755.72
610.30	45558.53
610.46	45500.01
610.61	45579.59
610.76	45413.41
610.92	45722.37
611.07	46087.49
611.23	45705.98
611.38	45844.07
611.54	45624.06
611.69	45521.08
611.84	44666.78
612.00	45226.17
612.15	44907.86
612.31	44964.03
612.46	44589.55
612.62	44818.92
612.77	45312.77
612.92	45329.16
613.08	44608.27
613.23	44891.48
613.39	44952.33
613.54	44208.04
613.69	44587.21
613.85	44296.98
614.00	44762.75
614.15	44573.16
614.31	44502.95
614.46	44903.18
614.62	44397.62
614.77	44257.19
614.92	44598.91
615.08	44591.89
615.23	44271.23
615.38	44416.35
615.54	43945.90
615.69	44055.90
615.84	44034.84
616.00	44203.36
616.15	43950.58
616.30	44107.40
616.46	44308.68
616.61	44385.92
616.76	43803.13
616.92	44205.70
617.07	43800.79
617.22	43597.16
617.37	43683.76
617.53	44198.68
617.68	43828.87
617.83	43676.74
617.99	43489.49
618.14	43739.93
618.29	43772.70
618.45	43491.83
618.60	43833.55
618.75	43430.98
618.90	43292.89
619.06	43931.86
619.21	43440.34
619.36	43831.21
619.51	42983.94
619.67	42880.95
619.82	43164.16
619.97	43716.53
620.12	42997.98
620.28	42841.17
620.43	43407.58
620.58	43580.78
620.73	43503.54
620.89	43388.85
621.04	43161.82
621.19	43330.34
621.34	43145.44
621.49	43295.23
621.65	42951.17
621.80	42892.66
621.95	43430.98
622.10	43159.48
622.25	43187.56
622.41	42981.60
622.56	42944.15
622.71	43269.48
622.86	42897.34
623.01	43058.84
623.16	42916.06
623.32	42972.24
623.47	43023.73
623.62	42738.18
623.77	42731.16
623.92	42766.27
624.07	42665.63
624.23	42450.30
624.38	42864.57
624.53	42691.37
624.68	42859.89
624.83	43072.88
624.98	43119.69
625.13	42770.95
625.29	42660.94
625.44	42291.14
625.59	42230.29
625.74	41837.08
625.89	41933.04
626.04	42160.07
626.19	42564.98
626.34	41956.44
626.49	42164.75
626.65	42115.60
626.80	42129.64
626.95	41935.38
627.10	42003.25
627.25	42216.24
627.40	42286.46
627.55	41879.21
627.70	41787.92
627.85	41713.03
628.00	41677.92
628.15	42052.41
628.30	41340.88
628.45	42068.79
628.60	41841.76
628.76	41977.51
628.91	42309.86
629.06	42019.64
629.21	41727.07
629.36	41668.56
629.51	41628.77
629.66	41450.89
629.81	41345.56
629.96	41684.94
630.11	41345.56
630.26	41411.10
630.41	41481.31
630.56	41486.00
630.71	41647.49
630.86	41645.15
631.01	41923.68
631.16	41755.16
631.31	41516.42
631.46	41497.70
631.61	41839.42
631.76	41324.50
631.91	41053.00
632.06	41228.54
632.21	40928.95
632.36	41443.87
632.51	40563.82
632.66	40882.14
632.81	41062.36
632.96	41205.13
633.10	41118.53
633.25	41060.02
633.40	40964.06
633.55	41202.79
633.70	41111.51
633.85	40519.35
634.00	40584.89
634.15	40627.02
634.30	40978.10
634.45	40882.14
634.60	40652.76
634.75	41249.60
634.90	41151.30
635.05	40968.74
635.19	40818.94
635.34	41359.61
635.49	40673.83
635.64	40484.25
635.79	40643.40
635.94	40341.47
636.09	40767.45
636.24	40538.08
636.39	40339.13
636.53	40318.07
636.68	40528.72
636.83	40217.43
636.98	40568.51
637.13	40446.80
637.28	40575.53
637.43	40355.52
637.57	40758.09
637.72	40800.22
637.87	40238.49
638.02	40018.48
638.17	40531.06
638.32	40154.23
638.46	40137.85
638.61	40722.98
638.76	39669.74
638.91	40072.31
639.06	39662.72
639.20	39999.76
639.35	40297.00
639.50	39838.26
639.65	40055.93
639.80	40357.86
639.94	40135.51
640.09	39351.43
640.24	39737.62
640.39	39906.13
640.54	39636.97
640.68	39599.52
640.83	39695.49
640.98	39255.46
641.13	39239.08
641.27	39826.56
641.42	39194.61
641.57	39690.80
641.72	39931.88
641.86	39966.99
642.01	39756.34
642.16	39758.68
642.31	39463.77
642.45	39833.58
642.60	38895.02
642.75	39529.31
642.90	39196.95
643.04	39285.89
643.19	39173.55
643.34	39456.75
643.48	39672.08
643.63	39639.31
643.78	39309.30
643.93	39360.79
644.07	39442.71
644.22	39159.50
644.37	39122.05
644.51	39421.64
644.66	39398.24
644.81	38902.04
644.95	39079.92
645.10	38773.31
645.25	38934.81
645.39	38775.66
645.54	38820.13
645.69	39129.08
645.83	39000.35
645.98	38979.28
646.13	38759.27
646.27	38902.04
646.42	38829.49
646.57	39126.74
646.71	39110.35
646.86	39014.39
647.00	38632.88
647.15	38672.67
647.30	38422.23
647.44	38359.04
647.59	38658.63
647.74	38265.42
647.88	38845.87
648.03	39084.61
648.17	38939.49
648.32	38387.13
648.47	38859.91
648.61	38436.28
648.76	38756.93
648.90	38277.12
649.05	38698.42
649.20	38452.66
649.34	38256.06
649.49	37900.29
649.63	38253.72
649.78	38405.85
649.92	38120.31
650.07	38759.27
650.21	38153.07
650.36	38457.34
650.51	38010.30
650.65	38309.89
650.80	38312.23
650.94	37717.73
651.09	38120.31
651.23	37631.13
651.38	37848.80
651.52	37794.97
651.67	37806.67
651.81	37902.64
651.96	37970.51
652.10	38026.68
652.25	37834.76
652.39	37848.80
652.54	38155.41
652.68	37954.13
652.83	38096.90
652.97	38183.50
653.12	37804.33
653.26	37516.45
653.41	37846.46
653.55	37390.06
653.70	37413.46
653.84	37631.13
653.99	37628.79
654.13	37933.06
654.27	37727.10
654.42	37631.13
654.56	37184.09
654.71	37476.66
654.85	37486.02
655.00	37266.01
655.14	37422.83
655.29	37249.63
655.43	37434.53
655.57	37200.47
655.72	37191.11
655.86	36870.46
656.01	37216.86
656.15	37198.13
656.30	36814.29
656.44	36690.24
656.58	36753.43
656.73	36910.25
656.87	36896.20
657.01	37104.51
657.16	37127.92
657.30	36870.46
657.45	36844.71
657.59	37137.28
657.73	36772.16
657.88	36603.64
658.02	36872.80
658.16	36849.39
658.31	37099.83
658.45	36428.10
658.60	36669.17
658.74	36669.17
658.88	36383.63
659.03	36397.67
659.17	36460.87
659.31	36495.97
659.46	36346.18
659.60	36477.25
659.74	36357.88
659.89	36226.81
660.03	36467.89
660.17	36449.16
660.32	36224.47
660.46	36261.92
660.60	36180.00
660.74	35735.30
660.89	35758.70
661.03	35501.25
661.17	35936.59
661.32	36025.53
661.46	36133.19
661.60	35805.52
661.74	36002.12
661.89	36098.08
662.03	35611.25
662.17	35292.94
662.31	35379.54
662.46	35896.80
662.60	35693.17
662.74	35360.81
662.88	35204.00
663.03	34998.03
663.17	35201.66
663.31	34937.18
663.45	35014.41
663.60	35342.09
663.74	34944.20
663.88	34803.77
664.02	34906.75
664.17	35393.58
664.31	35136.12
664.45	35225.06
664.59	34974.63
664.73	34906.75
664.88	34895.05
665.02	34433.96
665.16	34569.71
665.30	34323.96
665.44	34555.67
665.59	34251.40
665.73	33944.79
665.87	34314.59
666.01	34338.00
666.15	34424.60
666.29	34394.17
666.44	34440.98
666.58	34148.42
666.72	34321.62
666.86	33848.83
667.00	34258.42
667.14	33839.47
667.28	33874.57
667.43	33584.35
667.57	33926.07
667.71	33530.51
667.85	33390.08
667.99	33570.30
668.13	33462.64
668.27	33483.70
668.41	33743.50
668.56	33743.50
668.70	33481.36
668.84	33165.39
668.98	33364.34
669.12	33523.49
669.26	33092.83
669.40	33275.40
669.54	33123.26
669.68	32680.90
669.82	32652.81
669.96	32603.66
670.10	32730.05
670.25	32629.41
670.39	32978.15
670.53	32390.67
670.67	32795.59
670.81	32931.34
670.95	32900.91
671.09	32524.08
671.23	32027.89
671.37	32882.19
671.51	32594.30
671.65	32453.87
671.79	32226.84
671.93	32320.46
672.07	32102.79
672.21	32201.09
672.35	31873.42
672.49	31676.81
672.63	31817.24
672.77	31779.79
672.91	31564.46
673.05	31564.46
673.19	31686.17
673.33	31435.74
673.47	31679.15
673.61	31817.24
673.75	31519.99
673.89	31686.17
674.03	31608.93
674.17	31208.70
674.31	31033.16
674.45	31395.95
674.59	30958.27
674.73	30705.49
674.87	30567.40
675.01	31035.50
675.15	31105.72
675.29	31028.48
675.43	30462.07
675.56	30991.03
675.70	30817.83
675.84	31012.10
675.98	29806.72
676.12	30529.95
676.26	30518.25
676.40	30361.43
676.54	30026.73
676.68	30038.44
676.82	29727.14
676.96	29687.36
677.10	29460.32
677.23	29577.35
677.37	29244.99
677.51	29343.30
677.65	29067.11
677.79	28861.15
677.93	29476.71
678.07	29102.22
678.21	29109.24
678.34	28933.70
678.48	29057.75
678.62	29109.24
678.76	28540.49
678.90	28421.13
679.04	28315.80
679.18	28411.76
679.31	28285.37
679.45	28301.76
679.59	28203.46
679.73	28158.99
679.87	27812.59
680.00	28009.19
680.14	27793.86
680.28	27737.69
680.42	27662.79
680.56	27887.48
680.70	27412.35
680.83	27990.47
680.97	27688.54
681.11	27754.07
681.25	27447.46
681.39	27339.80
681.52	27255.54
681.66	27154.90
681.80	27047.23
681.94	26787.43
682.07	26518.27
682.21	26340.39
682.35	26487.84
682.49	26281.88
682.62	26319.32
682.76	26129.74
682.90	26206.98
683.04	26551.04
683.17	26249.11
683.31	25982.29
683.45	25860.58
683.59	26473.80
683.72	25738.87
683.86	25773.98
684.00	25914.41
684.13	25619.50
684.27	25448.64
684.41	25406.52
684.55	25137.35
684.68	25401.83
684.82	24936.07
684.96	24793.29
685.09	24608.39
685.23	24896.28
685.37	24847.13
685.50	24999.26
685.64	24606.05
685.78	24713.72
685.91	24826.06
686.05	24519.45
686.19	24203.48
686.32	24498.39
686.46	24261.99
686.60	23941.34
686.73	23653.45
686.87	23814.95
687.01	23906.23
687.14	23637.07
687.28	23784.52
687.42	23454.51
687.55	23323.44
687.69	23836.02
687.82	23782.18
687.96	23220.45
688.10	23012.15
688.23	23496.64
688.37	23260.24
688.50	23110.45
688.64	23105.77
688.78	22808.52
688.91	22689.15
689.05	22939.59
689.18	22876.40
689.32	22253.81
689.46	22396.59
689.59	22401.27
689.73	22223.39
689.86	22024.44
690.00	21975.29
690.13	22188.28
690.27	21956.57
690.41	21614.85
690.54	21736.56
690.68	21804.43
690.81	21940.18
690.95	21701.45
691.08	21727.19
691.22	21448.67
691.35	21734.21
691.49	21394.84
691.62	21289.51
691.76	21064.82
691.89	20875.24
692.03	20919.71
692.16	20503.09
692.30	20561.61
692.43	20711.40
692.57	20393.09
692.70	20493.73
692.84	20819.07
692.97	20350.96
693.11	20482.03
693.24	20339.26
693.38	20386.07
693.51	20250.32
693.65	20634.16
693.78	20037.33
693.92	20184.78
694.05	19697.95
694.19	19868.81
694.32	19527.09
694.45	19309.42
694.59	19351.55
694.72	19318.78
694.86	19204.10
694.99	18944.30
695.13	18684.50
695.26	18939.62
695.39	18920.89
695.53	19229.84
695.66	19070.68
695.80	19023.87
695.93	18642.37
696.07	18743.01
696.20	18412.99
696.33	18672.79
696.47	18408.31
696.60	18181.28
696.73	18279.58
696.87	18253.84
697.00	18040.85
697.14	17919.14
697.27	17743.60
697.40	17940.21
697.54	17928.50
697.67	17752.96
697.80	17694.45
697.94	17638.28
698.07	17422.95
698.21	17593.81
698.34	17312.94
698.47	17165.49
698.61	17078.89
698.74	17228.68
698.87	17167.83
699.01	16938.46
699.14	17046.12
699.27	16886.97
699.40	16659.93
699.54	16734.83
699.67	16519.50
699.80	16439.92
699.94	16606.10
700.07	16133.31
700.20	16184.80
700.34	15992.88
700.47	16191.83
700.60	16084.16
700.73	16163.74
700.87	16145.02
701.00	15995.22
701.13	15887.56
701.26	15805.64
701.40	16063.10
701.53	15812.66
701.66	15520.09
701.79	15583.29
701.93	15508.39
702.06	15260.29
702.19	14995.81
702.32	15236.89
702.46	15115.18
702.59	15185.40
702.72	14771.12
702.85	14771.12
702.99	14934.96
703.12	14792.19
703.25	14839.00
703.38	14855.38
703.51	14724.31
703.65	14686.86
703.78	14377.91
703.91	14574.52
704.04	14560.47
704.17	14590.90
704.31	14260.88
704.44	14101.73
704.57	14214.07
704.70	14216.41
704.83	13958.96
704.96	13820.86
705.10	13762.35
705.23	13823.20
>>>>>End Processed Spectral Data<<<<<
