SpectraSuite Data File
++++++++++++++++++++++++++++++++++++
Date: Fri Oct 04 11:39:16 GMT-05:00 2013
User: price-jones
Dark Spectrum Present: No
Reference Spectrum Present: No
Number of Sampled Component Spectra: 1
Spectrometers: USB2+H05261
Integration Time (usec): 100000 (USB2+H05261)
Spectra Averaged: 1 (USB2+H05261)
Boxcar Smoothing: 0 (USB2+H05261)
Correct for Electrical Dark: No (USB2+H05261)
Strobe/Lamp Enabled: No (USB2+H05261)
Correct for Detector Non-linearity: No (USB2+H05261)
Correct for Stray Light: No (USB2+H05261)
Number of Pixels in Processed Spectrum: 2048
>>>>>Begin Processed Spectral Data<<<<<
365.73	0.00
365.92	0.00
366.12	0.00
366.32	0.00
366.52	0.00
366.72	4.68
366.91	0.00
367.11	0.00
367.31	0.00
367.51	0.00
367.70	0.00
367.90	0.00
368.10	0.00
368.30	0.00
368.49	0.00
368.69	0.00
368.89	23.41
369.09	0.00
369.28	0.00
369.48	0.00
369.68	0.00
369.87	0.00
370.07	0.00
370.27	21.06
370.47	70.22
370.66	238.73
370.86	201.29
371.06	245.76
371.25	306.61
371.45	222.35
371.65	318.31
371.84	220.01
372.04	238.73
372.24	285.55
372.44	313.63
372.63	278.52
372.83	339.38
373.03	287.89
373.22	271.50
373.42	402.57
373.62	306.61
373.81	320.65
374.01	315.97
374.21	362.78
374.40	355.76
374.60	313.63
374.79	255.12
374.99	372.15
375.19	285.55
375.38	381.51
375.58	334.70
375.78	360.44
375.97	447.04
376.17	297.25
376.37	308.95
376.56	360.44
376.76	393.21
376.95	339.38
377.15	369.80
377.35	344.06
377.54	337.04
377.74	341.72
377.93	308.95
378.13	465.77
378.33	409.59
378.52	386.19
378.72	393.21
378.91	411.93
379.11	318.31
379.31	280.86
379.50	332.36
379.70	379.17
379.89	423.64
380.09	381.51
380.28	367.46
380.48	475.13
380.68	395.55
380.87	400.23
381.07	348.74
381.26	402.57
381.46	479.81
381.65	322.99
381.85	521.94
382.04	472.79
382.24	447.04
382.43	404.91
382.63	425.98
382.83	411.93
383.02	463.43
383.22	421.30
383.41	409.59
383.61	463.43
383.80	454.06
384.00	428.32
384.19	423.64
384.39	423.64
384.58	477.47
384.78	486.83
384.97	451.72
385.17	428.32
385.36	458.74
385.56	498.53
385.75	444.70
385.95	388.53
386.14	475.13
386.34	510.24
386.53	559.39
386.72	514.92
386.92	559.39
387.11	531.30
387.31	451.72
387.50	449.38
387.70	489.17
387.89	456.40
388.09	510.24
388.28	503.22
388.48	564.07
388.67	552.37
388.86	564.07
389.06	456.40
389.25	571.09
389.45	552.37
389.64	608.54
389.84	540.66
390.03	568.75
390.22	596.84
390.42	498.53
390.61	580.45
390.81	477.47
391.00	688.12
391.19	594.50
391.39	634.29
391.58	641.31
391.78	620.24
391.97	636.63
392.16	554.71
392.36	695.14
392.55	725.57
392.75	641.31
392.94	552.37
393.13	568.75
393.33	606.20
393.52	648.33
393.71	664.71
393.91	641.31
394.10	739.61
394.29	727.91
394.49	655.35
394.68	713.86
394.88	739.61
395.07	716.20
395.26	695.14
395.46	676.41
395.65	760.67
395.84	629.60
396.04	835.57
396.23	777.06
396.42	704.50
396.62	732.59
396.81	772.38
397.00	676.41
397.19	697.48
397.39	763.01
397.58	873.02
397.77	788.76
397.97	791.10
398.16	847.27
398.35	875.36
398.55	774.72
398.74	814.51
398.93	910.47
399.12	854.30
399.32	875.36
399.51	873.02
399.70	922.17
399.90	882.38
400.09	842.59
400.28	1020.47
400.47	889.40
400.67	926.85
400.86	889.40
401.05	908.13
401.24	891.74
401.44	966.64
401.63	924.51
401.82	978.34
402.01	882.38
402.21	940.90
402.40	926.85
402.59	1008.77
402.78	1060.26
402.97	1025.15
403.17	1153.88
403.36	1046.22
403.55	1027.50
403.74	1008.77
403.93	1095.37
404.13	1076.65
404.32	1107.07
404.51	1050.90
404.70	1214.74
404.89	1074.31
405.09	1102.39
405.28	1261.55
405.47	1165.59
405.66	1242.82
405.85	1076.65
406.05	1128.14
406.24	1165.59
406.43	1160.91
406.62	1221.76
406.81	1273.25
407.00	1261.55
407.20	1224.10
407.39	1203.04
407.58	1256.87
407.77	1315.38
407.96	1249.85
408.15	1338.79
408.34	1273.25
408.54	1303.68
408.73	1313.04
408.92	1277.93
409.11	1416.02
409.30	1399.64
409.49	1359.85
409.68	1348.15
409.87	1404.32
410.07	1334.11
410.26	1327.08
410.45	1455.81
410.64	1455.81
410.83	1488.58
411.02	1458.15
411.21	1610.29
411.40	1465.18
411.59	1596.25
411.78	1493.26
411.98	1582.20
412.17	1572.84
412.36	1643.06
412.55	1652.42
412.74	1671.14
412.93	1689.87
413.12	1572.84
413.31	1703.91
413.50	1767.10
413.69	1736.68
413.88	1818.60
414.07	1802.21
414.26	1870.09
414.45	1809.23
414.64	1877.11
414.83	1823.28
415.02	1870.09
415.22	1944.99
415.41	2092.44
415.60	1963.71
415.79	2059.67
415.98	2040.95
416.17	1893.49
416.36	2038.61
416.55	2047.97
416.74	2146.27
416.93	1947.33
417.12	2172.02
417.31	2172.02
417.50	2183.72
417.69	2143.93
417.88	2253.94
418.07	2111.16
418.26	2153.29
418.45	2239.89
418.64	2258.62
418.83	2389.69
419.02	2277.34
419.21	2239.89
419.39	2253.94
419.58	2188.40
419.77	2193.08
419.96	2415.43
420.15	2502.03
420.34	2403.73
420.53	2448.20
420.72	2347.56
420.91	2413.09
421.10	2464.58
421.29	2537.14
421.48	2436.50
421.67	2495.01
421.86	2356.92
422.05	2466.92
422.24	2471.61
422.43	2462.24
422.61	2525.44
422.80	2410.75
422.99	2413.09
423.18	2539.48
423.37	2485.65
423.56	2612.04
423.75	2485.65
423.94	2502.03
424.13	2331.17
424.32	2420.11
424.50	2640.12
424.69	2708.00
424.88	2590.97
425.07	2492.67
425.26	2579.27
425.45	2469.27
425.64	2560.55
425.83	2532.46
426.01	2544.16
426.20	2600.34
426.39	2658.85
426.58	2593.31
426.77	2621.40
426.96	2595.65
427.15	2539.48
427.33	2633.10
427.52	2696.30
427.71	2698.64
427.90	2754.81
428.09	2789.92
428.28	2605.02
428.46	2754.81
428.65	2729.06
428.84	2771.19
429.03	2850.77
429.22	2862.48
429.40	2717.36
429.59	2836.73
429.78	2778.22
429.97	2789.92
430.16	2820.35
430.34	2836.73
430.53	2963.12
430.72	2876.52
430.91	3000.57
431.10	2913.97
431.28	2937.37
431.47	3005.25
431.66	3117.59
431.85	2986.52
432.03	3138.66
432.22	3054.40
432.41	3105.89
432.60	3152.70
432.79	3061.42
432.97	3026.31
433.16	3155.04
433.35	3091.85
433.54	3251.00
433.72	3091.85
433.91	3105.89
434.10	3241.64
434.28	3178.45
434.47	3225.26
434.66	3178.45
434.85	3229.94
435.03	3204.19
435.22	3424.20
435.41	3782.31
435.59	3658.26
435.78	3634.85
435.97	3293.13
436.16	3452.29
436.34	3499.10
436.53	3428.88
436.72	3424.20
436.90	3438.25
437.09	3550.59
437.28	3351.65
437.46	3478.04
437.65	3630.17
437.84	3506.12
438.02	3644.21
438.21	3438.25
438.40	3349.31
438.58	3557.61
438.77	3583.36
438.96	3583.36
439.14	3574.00
439.33	3866.56
439.52	3705.07
439.70	3772.94
439.89	3857.20
440.08	3815.07
440.26	3920.40
440.45	3775.28
440.63	3911.04
440.82	3908.69
441.01	3957.85
441.19	4011.68
441.38	4079.55
441.57	4114.66
441.75	4079.55
441.94	4042.11
442.12	4077.21
442.31	4322.97
442.50	4112.32
442.68	4215.30
442.87	4175.52
443.05	4250.41
443.24	4222.33
443.43	4266.80
443.61	4353.40
443.80	4332.33
443.98	4184.88
444.17	4173.18
444.35	4297.22
444.54	4451.70
444.73	4329.99
444.91	4444.68
445.10	4292.54
445.28	4339.35
445.47	4369.78
445.65	4292.54
445.84	4409.57
446.02	4341.69
446.21	4252.75
446.39	4411.91
446.58	4545.32
446.77	4358.08
446.95	4308.93
447.14	4421.27
447.32	4521.92
447.51	4554.68
447.69	4542.98
447.88	4400.21
448.06	4358.08
448.25	4449.36
448.43	4409.57
448.62	4348.72
448.80	4489.15
448.99	4517.23
449.17	4496.17
449.36	4418.93
449.54	4727.88
449.73	4727.88
449.91	4580.43
450.10	4674.05
450.28	4645.96
450.46	4784.06
450.65	4720.86
450.83	4779.37
451.02	4713.84
451.20	4821.50
451.39	4891.72
451.57	4748.95
451.76	4767.67
451.94	4751.29
452.13	4936.19
452.31	4830.87
452.49	4725.54
452.68	4826.18
452.86	4816.82
453.05	4943.21
453.23	4947.89
453.42	4929.17
453.60	4929.17
453.78	4844.91
453.97	4833.21
454.15	4887.04
454.34	4901.08
454.52	5071.94
454.70	5067.26
454.89	5139.82
455.07	5102.37
455.26	5085.98
455.44	5097.69
455.62	4924.49
455.81	5252.16
455.99	5172.58
456.17	5240.46
456.36	5322.38
456.54	5315.36
456.73	5401.96
456.91	5490.90
457.09	5245.14
457.28	5497.92
457.46	5247.48
457.64	5509.62
457.83	5444.09
458.01	5357.49
458.19	5479.19
458.38	5542.39
458.56	5603.24
458.74	5675.80
458.93	5575.16
459.11	5547.07
459.29	5558.77
459.48	5664.10
459.66	5636.01
459.84	5734.31
460.03	5778.78
460.21	5680.48
460.39	5685.16
460.57	5652.39
460.76	5774.10
460.94	5982.41
461.12	5755.38
461.31	5942.62
461.49	5722.61
461.67	5900.49
461.85	5881.77
462.04	5898.15
462.22	6197.74
462.40	6031.56
462.59	5877.09
462.77	5942.62
462.95	6104.12
463.13	6237.53
463.32	6267.95
463.50	5980.07
463.68	6054.97
463.86	6005.81
464.05	6143.91
464.23	6143.91
464.41	6120.50
464.59	6052.63
464.78	6319.45
464.96	6171.99
465.14	6195.40
465.32	6104.12
465.50	6232.85
465.69	6239.87
465.87	6202.42
466.05	6487.96
466.23	6296.04
466.41	6403.71
466.60	6691.59
466.78	6417.75
466.96	6392.00
467.14	6370.94
467.32	6293.70
467.51	6630.74
467.69	6314.77
467.87	6487.96
468.05	6487.96
468.23	6485.62
468.41	6387.32
468.60	6553.50
468.78	6885.86
468.96	6424.77
469.14	6560.52
469.32	6548.82
469.50	6600.31
469.69	6841.39
469.87	6707.98
470.05	6806.28
470.23	6820.32
470.41	6696.27
470.59	6883.52
470.77	6757.13
470.95	6944.37
471.14	7026.29
471.32	6892.88
471.50	6986.50
471.68	6939.69
471.86	7014.59
472.04	7021.61
472.22	7250.98
472.40	6998.20
472.58	7218.21
472.77	7344.60
472.95	7246.30
473.13	7623.12
473.31	7314.17
473.49	7538.87
473.67	7377.37
473.85	7480.35
474.03	7515.46
474.21	7400.77
474.39	7751.85
474.57	7520.14
474.75	7676.96
474.93	7644.19
475.12	7644.19
475.30	7632.49
475.48	7719.09
475.66	7978.89
475.84	7875.90
476.02	8044.42
476.20	7903.99
476.38	8217.62
476.56	8163.79
476.74	8215.28
476.92	8107.62
477.10	8332.31
477.28	8386.14
477.46	8280.82
477.64	8329.97
477.82	8549.98
478.00	8603.81
478.18	8582.74
478.36	8795.73
478.54	8968.93
478.72	8781.69
478.90	8835.52
479.08	9039.15
479.26	9078.94
479.44	9128.09
479.62	9057.87
479.80	9022.77
479.98	9156.18
480.16	9305.97
480.34	9369.16
480.52	9507.26
480.70	9706.20
480.88	9568.11
481.06	9652.37
481.24	9783.44
481.41	9837.27
481.59	9809.19
481.77	9909.83
481.95	10164.95
482.13	9977.70
482.31	10209.42
482.49	10143.88
482.67	10420.06
482.85	10469.22
483.03	10642.42
483.21	10532.41
483.39	10803.91
483.57	10574.54
483.74	10874.13
483.92	10930.30
484.10	10834.34
484.28	11122.23
484.46	11314.15
484.64	11559.91
484.82	11239.25
485.00	11419.47
485.18	11566.93
485.35	11707.36
485.53	11700.34
485.71	11651.19
485.89	12011.63
486.07	11721.40
486.25	12065.46
486.43	12102.91
486.61	12020.99
486.78	12456.33
486.96	12568.68
487.14	12666.98
487.32	12671.66
487.50	12629.53
487.68	12936.14
487.85	12851.88
488.03	13060.19
488.21	13238.07
488.39	13055.51
488.57	13334.03
488.75	13404.25
488.92	13886.40
489.10	13532.98
489.28	13612.56
489.46	13745.97
489.64	13792.78
489.81	14272.59
489.99	14115.77
490.17	14286.63
490.35	14567.49
490.53	14310.04
490.70	14574.52
490.88	14417.70
491.06	14740.69
491.24	14534.73
491.41	14897.51
491.59	15218.16
491.77	15192.42
491.95	15215.82
492.13	15059.01
492.30	15545.84
492.48	15131.56
492.66	15419.45
492.84	15501.37
493.01	15887.56
493.19	15915.64
493.37	15555.20
493.54	15941.39
493.72	16039.69
493.90	16395.45
494.08	16383.75
494.25	16578.01
494.43	16624.83
494.61	16753.55
494.79	16615.46
494.96	16580.36
495.14	16774.62
495.32	16891.65
495.49	16807.39
495.67	17221.66
495.85	16926.75
496.02	17198.26
496.20	17221.66
496.38	17481.46
496.55	17228.68
496.73	17657.00
496.91	17827.86
497.09	17729.56
497.26	17867.65
497.44	17881.69
497.62	17928.50
497.79	18033.83
497.97	18064.25
498.14	18305.33
498.32	18504.28
498.50	18494.91
498.67	18408.31
498.85	18700.88
499.03	18888.12
499.20	18799.18
499.38	18857.70
499.56	18869.40
499.73	19201.76
499.91	19140.90
500.08	18967.70
500.26	19168.99
500.44	19190.05
500.61	19297.72
500.79	19300.06
500.97	19501.34
501.14	19700.29
501.32	19777.53
501.49	19651.14
501.67	19782.21
501.84	19859.45
502.02	19805.61
502.20	20255.00
502.37	20056.05
502.55	19997.54
502.72	20065.41
502.90	20463.30
503.07	20034.99
503.25	20444.58
503.43	20409.47
503.60	20720.76
503.78	20666.93
503.95	20734.81
504.13	20844.81
504.30	20559.27
504.48	20762.89
504.65	20922.05
504.83	21289.51
505.01	21027.37
505.18	21455.69
505.36	21565.70
505.53	21376.11
505.71	21546.97
505.88	21411.22
506.06	21198.23
506.23	21509.52
506.41	21575.06
506.58	21614.85
506.76	21460.37
506.93	21656.98
507.11	22047.85
507.28	22087.64
507.46	21841.88
507.63	22132.11
507.81	22356.80
507.98	22581.49
508.16	22443.40
508.33	22167.21
508.50	22094.66
508.68	22824.90
508.85	22513.61
509.03	22607.23
509.20	22424.67
509.38	22857.67
509.55	23143.22
509.73	23103.43
509.90	23089.38
510.08	22993.42
510.25	22958.31
510.42	23077.68
510.60	23178.33
510.77	23524.72
510.95	23681.54
511.12	23597.28
511.30	23552.81
511.47	23421.74
511.64	23751.76
511.82	23515.36
511.99	23641.75
512.17	23821.97
512.34	23915.59
512.51	23737.71
512.69	24357.96
512.86	23880.49
513.04	24381.36
513.21	24393.06
513.38	24507.75
513.56	24416.47
513.73	24299.44
513.90	24084.11
514.08	24573.28
514.25	24608.39
514.43	24423.49
514.60	24826.06
514.77	25076.50
514.95	24856.49
515.12	24842.45
515.29	25160.76
515.47	25062.46
515.64	25319.92
515.81	25048.41
515.99	25633.55
516.16	25612.48
516.33	25432.26
516.51	25291.83
516.68	25724.83
516.85	25425.24
517.03	25298.85
517.20	25549.29
517.37	25680.36
517.54	25680.36
517.72	26057.18
517.89	25797.38
518.06	25855.90
518.24	25596.10
518.41	25776.32
518.58	26059.52
518.75	25958.88
518.93	26485.50
519.10	26099.31
519.27	26293.58
519.45	26192.94
519.62	25895.69
519.79	26410.60
519.96	26394.22
520.14	26661.04
520.31	26068.89
520.48	26771.05
520.65	26721.90
520.83	26923.18
521.00	26977.01
521.17	26529.97
521.34	27152.55
521.52	27005.10
521.69	26848.29
521.86	27061.27
522.03	27154.90
522.20	27091.70
522.38	27510.66
522.55	27426.40
522.72	27295.33
522.89	27501.29
523.07	27983.44
523.24	27704.92
523.41	27740.03
523.58	27321.07
523.75	27733.01
523.92	27662.79
524.10	27796.20
524.27	27761.09
524.44	28327.50
524.61	28020.89
524.78	28070.04
524.96	27908.55
525.13	28245.58
525.30	28500.70
525.47	28301.76
525.64	28709.01
525.81	28470.28
525.98	28465.60
526.16	28496.02
526.33	28837.74
526.50	28601.35
526.67	28807.31
526.84	28727.74
527.01	28734.76
527.18	29022.64
527.36	28950.09
527.53	29249.67
527.70	29390.11
527.87	29219.25
528.04	29233.29
528.21	29179.46
528.38	29118.60
528.55	29408.83
528.72	29324.57
528.89	29486.07
529.07	29331.59
529.24	29291.80
529.41	29472.03
529.58	29394.79
529.75	29362.02
529.92	29333.93
530.09	29755.23
530.26	29593.73
530.43	29804.38
530.60	29041.37
530.77	29738.85
530.94	30148.44
531.11	30043.12
531.28	29350.32
531.46	29610.12
531.63	30150.78
531.80	30113.33
531.97	30108.65
532.14	29923.75
532.31	30204.61
532.48	30359.09
532.65	30637.61
532.82	30036.09
532.99	30649.32
533.16	30403.56
533.33	30691.44
533.50	30806.13
533.67	30733.57
533.84	30539.31
534.01	30499.52
534.18	30309.94
534.35	30991.03
534.52	30691.44
534.69	30405.90
534.86	30984.01
535.03	30759.32
535.20	30932.52
535.37	31269.56
535.54	31299.98
535.71	31058.91
535.88	31388.92
536.05	30895.07
536.22	31255.51
536.38	31068.27
536.55	31204.02
536.72	31630.00
536.89	31189.98
537.06	31241.47
537.23	31491.91
537.40	31037.84
537.57	31468.50
537.74	31239.13
537.91	31639.36
538.08	31821.92
538.25	31716.60
538.42	31772.77
538.59	31882.78
538.75	31655.75
538.92	32088.74
539.09	31875.76
539.26	32182.37
539.43	31950.65
539.60	32236.20
539.77	32119.17
539.94	32367.27
540.11	32322.80
540.28	32203.43
540.44	32135.56
540.61	32163.64
540.78	32561.53
540.95	32664.52
541.12	32587.28
541.29	32891.55
541.46	32891.55
541.62	32617.71
541.79	32886.87
541.96	32641.11
542.13	32800.27
542.30	33067.09
542.47	33202.84
542.63	33284.76
542.80	33048.36
542.97	33263.69
543.14	33118.58
543.31	33446.26
543.48	33469.66
543.64	33436.89
543.81	33336.25
543.98	33495.41
544.15	33624.14
544.32	33841.81
544.48	33715.42
544.65	33523.49
544.82	33125.60
544.99	33621.80
545.16	33825.42
545.32	33413.49
545.49	33710.74
545.66	34829.51
545.83	34515.88
546.00	34747.59
546.16	34089.90
546.33	33986.92
546.50	33284.76
546.67	33886.28
546.83	33659.24
547.00	33654.56
547.17	33792.65
547.34	34087.56
547.50	33979.90
547.67	34127.35
547.84	34256.08
548.00	33862.87
548.17	34288.85
548.34	34359.06
548.51	34424.60
548.67	34398.85
548.84	34539.29
549.01	34677.38
549.18	34494.82
549.34	34068.84
549.51	34366.09
549.68	34216.29
549.84	34352.04
550.01	34558.01
550.18	34321.62
550.34	35129.10
550.51	34817.81
550.68	34497.16
550.84	34183.52
551.01	34408.22
551.18	34412.90
551.34	34487.79
551.51	34190.55
551.68	34443.32
551.84	34806.11
552.01	34754.61
552.18	34604.82
552.34	34845.90
552.51	35035.48
552.68	34555.67
552.84	34768.66
553.01	35253.15
553.18	35227.40
553.34	34981.65
553.51	34822.49
553.67	35161.87
553.84	35288.26
554.01	35339.75
554.17	35054.20
554.34	35241.45
554.51	34890.37
554.67	35744.66
554.84	34883.34
555.00	35325.71
555.17	35189.95
555.33	35145.48
555.50	35103.35
555.67	35337.41
555.83	35503.59
556.00	35232.08
556.16	36046.59
556.33	35447.41
556.50	35407.62
556.66	35147.82
556.83	35285.92
556.99	35615.93
557.16	35742.32
557.32	35796.15
557.49	35796.15
557.65	35164.21
557.82	35644.02
557.98	35578.48
558.15	35669.76
558.32	35309.32
558.48	35732.96
558.65	36006.80
558.81	36065.31
558.98	35988.08
559.14	36070.00
559.31	35555.08
559.47	35728.28
559.64	36278.30
559.80	35929.56
559.97	35936.59
560.13	36004.46
560.30	36587.25
560.46	36498.31
560.63	36264.26
560.79	35950.63
560.96	36444.48
561.12	36355.54
561.29	35959.99
561.45	35896.80
561.61	36271.28
561.78	35978.72
561.94	36151.91
562.11	35983.40
562.27	36400.01
562.44	35667.42
562.60	36027.87
562.77	36374.27
562.93	36311.07
563.10	36383.63
563.26	36198.73
563.42	36727.69
563.59	36254.90
563.75	36402.35
563.92	36568.53
564.08	35882.75
564.24	36524.06
564.41	36320.43
564.57	36486.61
564.74	36472.57
564.90	36638.75
565.07	36662.15
565.23	36727.69
565.39	36723.01
565.56	36495.97
565.72	36641.09
565.88	36624.70
566.05	36456.18
566.21	36392.99
566.38	36205.75
566.54	36521.72
566.70	36921.95
566.87	36856.42
567.03	36739.39
567.19	37221.54
567.36	37219.20
567.52	36652.79
567.68	36631.72
567.85	36299.37
568.01	36788.54
568.17	36786.20
568.34	37003.87
568.50	36758.11
568.66	36477.25
568.83	37127.92
568.99	36952.38
569.15	36978.12
569.32	36807.26
569.48	36608.32
569.64	36659.81
569.81	36823.65
569.97	36992.17
570.13	36978.12
570.30	36966.42
570.46	36875.14
570.62	37188.77
570.78	36907.91
570.95	36650.45
571.11	36870.46
571.27	36790.88
571.43	36816.63
571.60	37029.62
571.76	36552.15
571.92	37216.86
572.09	37226.22
572.25	36910.25
572.41	36945.36
572.57	36779.18
572.74	37090.47
572.90	36662.15
573.06	36584.91
573.22	37125.58
573.38	37144.30
573.55	37490.70
573.71	37284.73
573.87	37345.59
574.03	36992.17
574.20	36884.50
574.36	36968.76
574.52	37038.98
574.68	37184.09
574.84	37226.22
575.01	37661.56
575.17	37193.45
575.33	36727.69
575.49	36940.68
575.65	37228.56
575.82	37317.50
575.98	37429.85
576.14	37418.14
576.30	37862.85
576.46	37879.23
576.62	37230.90
576.79	37378.36
576.95	37350.27
577.11	37158.34
577.27	37092.81
577.43	37188.77
577.59	37366.65
577.75	37567.94
577.92	36994.51
578.08	37022.59
578.24	37324.52
578.40	37146.64
578.56	37102.17
578.72	37343.25
578.88	37565.60
579.04	37202.82
579.21	37266.01
579.37	37544.53
579.53	37511.77
579.69	37832.42
579.85	37390.06
580.01	37212.18
580.17	37226.22
580.33	37148.98
580.49	37134.94
580.65	37769.22
580.82	37677.94
580.98	37258.99
581.14	37235.58
581.30	37675.60
581.46	37170.05
581.62	37167.71
581.78	37572.62
581.94	37432.19
582.10	37172.39
582.26	37378.36
582.42	37633.47
582.58	37745.82
582.74	37708.37
582.90	37504.74
583.06	37514.11
583.22	37607.73
583.38	37675.60
583.54	37680.28
583.70	37663.90
583.86	37881.57
584.02	37610.07
584.18	38129.67
584.34	37759.86
584.50	37755.18
584.66	37567.94
584.82	37127.92
584.98	37684.97
585.14	37593.68
585.30	37589.00
585.46	37411.12
585.62	37441.55
585.78	37390.06
585.94	37455.59
586.10	37579.64
586.26	37731.78
586.42	37633.47
586.58	37890.93
586.74	37668.58
586.90	37195.79
587.06	37734.12
587.22	37570.28
587.38	37266.01
587.54	37663.90
587.70	37942.42
587.86	37741.14
588.02	37937.74
588.18	37801.99
588.34	37699.01
588.49	37879.23
588.65	37399.42
588.81	37846.46
588.97	37532.83
589.13	37790.29
589.29	37940.08
589.45	37333.89
589.61	37897.95
589.77	38054.77
589.93	37937.74
590.08	37970.51
590.24	37619.43
590.40	38010.30
590.56	38286.48
590.72	37904.98
590.88	37326.86
591.04	37579.64
591.20	38094.56
591.35	37958.81
591.51	38134.35
591.67	37872.21
591.83	37940.08
591.99	38045.41
592.15	38066.47
592.31	37825.40
592.46	37942.42
592.62	38005.62
592.78	37495.38
592.94	37893.27
593.10	38026.68
593.26	38014.98
593.41	38251.38
593.57	38284.14
593.73	38078.18
593.89	38520.54
594.05	38036.05
594.20	37867.53
594.36	37991.58
594.52	37937.74
594.68	37914.34
594.84	37743.48
594.99	37998.60
595.15	38176.48
595.31	38487.77
595.47	38452.66
595.62	38579.05
595.78	38031.36
595.94	38426.92
596.10	38375.42
596.25	38127.33
596.41	38014.98
596.57	37741.14
596.73	38026.68
596.88	38171.80
597.04	38225.63
597.20	38253.72
597.36	38279.46
597.51	38618.84
597.67	37600.71
597.83	37979.87
597.99	38555.64
598.14	38141.37
598.30	37874.55
598.46	38220.95
598.61	38663.31
598.77	37771.57
598.93	38157.75
599.09	38445.64
599.24	38487.77
599.40	38644.59
599.56	38567.35
599.71	37776.25
599.87	38040.73
600.03	37694.33
600.18	38132.01
600.34	37904.98
600.50	37928.38
600.65	38022.00
600.81	37993.92
600.97	38408.19
601.12	38487.77
601.28	38665.65
601.44	38040.73
601.59	38396.49
601.75	38153.07
601.91	38391.81
602.06	38174.14
602.22	38471.39
602.37	38227.97
602.53	38117.96
602.69	38302.87
602.84	38033.71
603.00	38438.62
603.16	38412.87
603.31	38328.61
603.47	38785.02
603.62	38497.13
603.78	38162.43
603.94	38022.00
604.09	38000.94
604.25	38251.38
604.40	38061.79
604.56	38059.45
604.71	38326.27
604.87	38260.74
605.03	38349.68
605.18	38508.83
605.34	38265.42
605.49	37874.55
605.65	37919.02
605.80	37666.24
605.96	38024.34
606.12	38092.22
606.27	38438.62
606.43	38122.65
606.58	38745.23
606.74	38321.59
606.89	37809.01
607.05	38464.36
607.20	37874.55
607.36	38422.23
607.51	38490.11
607.67	37989.24
607.82	38204.56
607.98	38178.82
608.13	37965.83
608.29	37897.95
608.44	38440.96
608.60	37684.97
608.75	38380.10
608.91	38190.52
609.06	38305.21
609.22	38499.47
609.37	37624.11
609.53	38106.26
609.68	37612.41
609.84	37846.46
609.99	37614.75
610.15	37846.46
610.30	38232.65
610.46	38218.61
610.61	38082.86
610.76	38529.90
610.92	38483.09
611.07	38869.28
611.23	38660.97
611.38	38366.06
611.54	38094.56
611.69	38497.13
611.84	38291.16
612.00	37986.89
612.15	37832.42
612.31	38621.18
612.46	38014.98
612.62	38574.37
612.77	38136.69
612.92	38237.33
613.08	38426.92
613.23	37771.57
613.39	37420.48
613.54	37626.45
613.69	37287.07
613.85	37483.68
614.00	38075.84
614.15	38068.81
614.31	37298.78
614.46	37928.38
614.62	37631.13
614.77	37347.93
614.92	37619.43
615.08	37455.59
615.23	37916.68
615.38	37277.71
615.54	37060.04
615.69	37251.97
615.84	37202.82
616.00	37057.70
616.15	36912.59
616.30	37076.43
616.46	36828.33
616.61	37516.45
616.76	37212.18
616.92	37230.90
617.07	37139.62
617.22	36783.86
617.37	36975.78
617.53	36978.12
617.68	37422.83
617.83	37233.24
617.99	36818.97
618.14	36914.93
618.29	36996.85
618.45	37214.52
618.60	36858.76
618.75	36877.48
618.90	37146.64
619.06	37371.33
619.21	36715.98
619.36	37158.34
619.51	36807.26
619.67	36774.50
619.82	36779.18
619.97	36680.88
620.12	36701.94
620.28	36708.96
620.43	37060.04
620.58	37397.08
620.73	36954.72
620.89	37425.17
621.04	36573.21
621.19	37069.40
621.34	36582.57
621.49	36498.31
621.65	37001.53
621.80	37060.04
621.95	36561.51
622.10	37099.83
622.25	36673.85
622.41	36573.21
622.56	36582.57
622.71	36779.18
622.86	36807.26
623.01	36797.90
623.16	36704.28
623.32	36264.26
623.47	36549.81
623.62	36505.34
623.77	35992.76
623.92	36142.55
624.07	36336.82
624.23	36498.31
624.38	36512.36
624.53	36084.04
624.68	36781.52
624.83	36425.76
624.98	36840.03
625.13	35739.98
625.29	36610.66
625.44	36470.23
625.59	36095.74
625.74	36039.57
625.89	36290.01
626.04	35852.33
626.19	35875.73
626.34	36189.36
626.49	35756.36
626.65	35871.05
626.80	35894.46
626.95	35833.60
627.10	36411.71
627.25	35625.29
627.40	35419.33
627.55	35625.29
627.70	35508.27
627.85	35629.98
628.00	35737.64
628.15	35431.03
628.30	35592.53
628.45	35828.92
628.60	35739.98
628.76	35974.03
628.91	36065.31
629.06	35590.19
629.21	35814.88
629.36	35351.45
629.51	35613.59
629.66	35594.87
629.81	35512.95
629.96	35431.03
630.11	35679.13
630.26	35438.05
630.41	35761.05
630.56	35157.19
630.71	35531.67
630.86	34981.65
631.01	35522.31
631.16	36105.10
631.31	35335.07
631.46	35016.75
631.61	34850.58
631.76	35143.14
631.91	35328.05
632.06	35250.81
632.21	35014.41
632.36	35817.22
632.51	34885.68
632.66	35173.57
632.81	35421.67
632.96	35576.14
633.10	35019.10
633.25	34918.45
633.40	35072.93
633.55	35138.46
633.70	35370.18
633.85	34513.54
634.00	34653.97
634.15	35147.82
634.30	34768.66
634.45	35276.55
634.60	34841.21
634.75	34892.71
634.90	34955.90
635.05	35339.75
635.19	34899.73
635.34	34925.47
635.49	34785.04
635.64	35122.08
635.79	34670.36
635.94	34405.88
636.09	34375.45
636.24	34127.35
636.39	34363.75
636.53	34572.05
636.68	34733.55
636.83	34644.61
636.98	34249.06
637.13	34792.06
637.28	34904.41
637.43	34693.76
637.57	34799.08
637.72	34164.80
637.87	33970.54
638.02	34527.58
638.17	34714.83
638.32	34560.35
638.46	34333.32
638.61	34347.36
638.76	34206.93
638.91	34429.28
639.06	33935.43
639.20	34354.38
639.35	33921.38
639.50	34380.13
639.65	34457.37
639.80	34082.88
639.94	34178.84
640.09	34593.12
640.24	34096.92
640.39	33848.83
640.54	33783.29
640.68	33935.43
640.83	33741.16
640.98	33462.64
641.13	33790.31
641.27	34656.31
641.42	33530.51
641.57	33759.89
641.72	34052.45
641.86	33954.15
642.01	33457.96
642.16	33741.16
642.31	33495.41
642.45	34134.37
642.60	32961.76
642.75	33546.90
642.90	33703.71
643.04	33762.23
643.19	33436.89
643.34	33469.66
643.48	33441.57
643.63	33521.15
643.78	33504.77
643.93	33649.88
644.07	34036.07
644.22	33628.82
644.37	33567.96
644.51	33539.88
644.66	33862.87
644.81	33614.77
644.95	33308.16
645.10	33378.38
645.25	33354.97
645.39	33212.20
645.54	33425.19
645.69	33745.84
645.83	33450.94
645.98	33172.41
646.13	33354.97
646.27	33638.18
646.42	33621.80
646.57	33464.98
646.71	33102.20
646.86	33212.20
647.00	32823.67
647.15	33090.49
647.30	33022.62
647.44	33003.89
647.59	33125.60
647.74	32790.91
647.88	33017.94
648.03	33146.67
648.17	33343.27
648.32	33415.83
648.47	32746.44
648.61	32776.86
648.76	33064.75
648.90	32851.76
649.05	32886.87
649.20	32826.01
649.34	32720.69
649.49	32531.11
649.63	32634.09
649.78	32788.56
649.92	32828.35
650.07	33230.93
650.21	32842.40
650.36	33001.55
650.51	32809.63
650.65	32547.49
650.80	32694.94
650.94	32598.98
651.09	32900.91
651.23	32753.46
651.38	33116.24
651.52	32910.27
651.67	32481.95
651.81	32435.14
651.96	32369.61
652.10	32690.26
652.25	32835.38
652.39	32306.41
652.54	32421.10
652.68	32577.92
652.83	32938.36
652.97	32914.95
653.12	32404.72
653.26	32156.62
653.41	32205.77
653.55	31943.63
653.70	32095.77
653.84	32343.86
653.99	31845.33
654.13	32261.94
654.27	32271.31
654.42	32034.91
654.56	31920.23
654.71	32283.01
654.85	32025.55
655.00	32594.30
655.14	32318.12
655.29	32329.82
655.43	32329.82
655.57	31945.97
655.72	31810.22
655.86	31971.72
656.01	32018.53
656.15	31559.78
656.30	31723.62
656.44	31683.83
656.58	31201.68
656.73	31892.14
656.87	31683.83
657.01	31861.71
657.16	32137.90
657.30	31538.72
657.45	31850.01
657.59	31564.46
657.73	31536.38
657.88	31604.25
658.02	31374.88
658.16	31182.96
658.31	31732.98
658.45	31592.55
658.60	31000.40
658.74	31283.60
658.88	31487.23
659.03	31346.79
659.17	31388.92
659.31	31299.98
659.46	31000.40
659.60	31517.65
659.74	31763.41
659.89	31510.63
660.03	31480.21
660.17	31248.49
660.32	31309.35
660.46	31138.49
660.60	31243.81
660.74	31044.87
660.89	31192.32
661.03	30689.10
661.17	30574.42
661.32	30405.90
661.46	30979.33
661.60	30738.26
661.74	30401.22
661.89	30913.80
662.03	31047.21
662.17	31143.17
662.31	30450.37
662.46	31182.96
662.60	30019.71
662.74	30654.00
662.88	30307.60
663.03	30174.19
663.17	30169.51
663.31	29998.65
663.45	30363.77
663.60	30192.91
663.74	29848.85
663.88	30377.81
664.02	29844.17
664.17	30710.17
664.31	30045.46
664.45	30225.68
664.59	30108.65
664.73	30235.04
664.88	30157.80
665.02	29560.97
665.16	29757.57
665.30	29521.18
665.44	29673.31
665.59	29298.83
665.73	29249.67
665.87	29207.55
666.01	29764.59
666.15	29937.79
666.29	29675.65
666.44	29771.61
666.58	29942.47
666.72	29771.61
666.86	29708.42
667.00	29326.91
667.14	29076.48
667.28	28996.90
667.43	29418.19
667.57	29165.42
667.71	29366.70
667.85	29563.31
667.99	29172.44
668.13	29057.75
668.27	28858.81
668.41	29308.19
668.56	28779.23
668.70	28709.01
668.84	29214.57
668.98	29048.39
669.12	29020.30
669.26	28386.02
669.40	28634.11
669.54	28421.13
669.68	28943.06
669.82	28833.06
669.96	28617.73
670.10	28542.83
670.25	28720.71
670.39	28201.11
670.53	28182.39
670.67	28002.17
670.81	28201.11
670.95	28173.03
671.09	27978.76
671.23	28079.41
671.37	28144.94
671.51	28119.20
671.65	28119.20
671.79	27754.07
671.93	27845.35
672.07	27969.40
672.21	27857.06
672.35	27522.36
672.49	27337.46
672.63	27950.68
672.77	27604.28
672.91	27454.48
673.05	27592.58
673.19	27711.94
673.33	27637.05
673.47	27339.80
673.61	27548.11
673.75	27445.12
673.89	27285.97
674.03	27461.51
674.17	27232.13
674.31	27269.58
674.45	27358.52
674.59	27040.21
674.73	26864.67
674.87	26927.86
675.01	26831.90
675.15	26705.51
675.29	26869.35
675.43	26642.32
675.56	26698.49
675.70	26815.52
675.84	26429.33
675.98	25933.14
676.12	26274.85
676.26	26555.72
676.40	26366.13
676.54	26237.41
676.68	25823.13
676.82	25408.86
676.96	26047.82
677.10	25696.74
677.23	25750.57
677.37	25930.80
677.51	25851.22
677.65	25556.31
677.79	25270.76
677.93	25469.71
678.07	25390.13
678.21	25603.12
678.34	25195.87
678.48	25186.50
678.62	25261.40
678.76	24631.80
678.90	24886.92
679.04	24954.79
679.18	24879.89
679.31	24533.50
679.45	24643.50
679.59	24643.50
679.73	24624.78
679.87	24535.84
680.00	24788.61
680.14	24659.88
680.28	24603.71
680.42	24435.19
680.56	24315.83
680.70	23885.17
680.83	23908.57
680.97	23995.17
681.11	24208.16
681.25	23882.83
681.39	23934.32
681.52	24063.05
681.66	24049.00
681.80	23960.06
681.94	23307.05
682.07	23388.97
682.21	23454.51
682.35	23508.34
682.49	22972.36
682.62	23178.33
682.76	23243.86
682.90	23049.60
683.04	23143.22
683.17	23232.16
683.31	23187.69
683.45	23143.22
683.59	22661.07
683.72	22759.37
683.86	22677.45
684.00	22471.48
684.13	22263.18
684.27	22352.12
684.41	22230.41
684.55	22235.09
684.68	21942.52
684.82	22228.07
684.96	21715.49
685.09	21493.14
685.23	21495.48
685.37	21785.71
685.50	21165.46
685.64	21834.86
685.78	21710.81
685.91	21521.23
686.05	21518.89
686.19	21336.32
686.32	21233.34
686.46	20989.92
686.60	21048.44
686.73	21188.87
686.87	21092.91
687.01	20779.28
687.14	20870.56
687.28	20554.58
687.42	20910.35
687.55	20783.96
687.69	20460.96
687.82	20727.78
687.96	20554.58
688.10	20594.37
688.23	20409.47
688.37	20486.71
688.50	20589.69
688.64	20608.42
688.78	20240.95
688.91	19988.18
689.05	19969.45
689.18	20119.24
689.32	19398.36
689.46	19527.09
689.59	19337.51
689.73	19456.87
689.86	19482.62
690.00	19562.20
690.13	19342.19
690.27	19323.46
690.41	19286.01
690.54	19367.93
690.68	19367.93
690.81	19363.25
690.95	19410.06
691.08	19173.67
691.22	19454.53
691.35	18913.87
691.49	18845.99
691.62	18899.83
691.76	18726.63
691.89	18649.39
692.03	18553.43
692.16	18284.26
692.30	18216.39
692.43	18335.76
692.57	18183.62
692.70	18150.85
692.84	18228.09
692.97	18015.10
693.11	18134.47
693.24	18075.96
693.38	17907.44
693.51	17841.90
693.65	18047.87
693.78	17806.80
693.92	17633.60
694.05	17497.84
694.19	17371.46
694.32	17167.83
694.45	17378.48
694.59	17036.76
694.72	17109.32
694.86	16851.86
694.99	16938.46
695.13	16973.56
695.26	17022.72
695.39	16795.68
695.53	16713.77
695.66	17104.64
695.80	17249.75
695.93	16870.58
696.07	16676.32
696.20	16580.36
696.33	16432.90
696.47	16393.11
696.60	16407.16
696.73	16072.46
696.87	16093.52
697.00	16006.92
697.14	15789.25
697.27	15866.49
697.40	15765.85
697.54	15962.45
697.67	15440.51
697.80	15389.02
697.94	15157.31
698.07	15417.11
698.21	15531.80
698.34	15484.98
698.47	15220.50
698.61	15274.34
698.74	15311.78
698.87	15180.71
699.01	15042.62
699.14	15075.39
699.27	15016.88
699.40	14937.30
699.54	14651.75
699.67	14745.38
699.80	14616.65
699.94	14429.40
700.07	14696.22
700.20	14677.50
700.34	14281.95
700.47	14324.08
700.60	14504.30
700.73	14508.98
700.87	14436.42
701.00	14391.95
701.13	14295.99
701.26	14265.57
701.40	14132.15
701.53	13912.14
701.66	14319.40
701.79	13907.46
701.93	13549.36
702.06	14057.26
702.19	13797.46
702.32	13425.31
702.46	13493.19
702.59	13242.75
702.72	13448.72
702.85	13481.49
702.99	13434.68
703.12	13366.80
703.25	13224.03
703.38	13156.15
703.51	13076.57
703.65	13137.43
703.78	13041.46
703.91	12912.74
704.04	12966.57
704.17	13135.09
704.31	12692.73
704.44	12753.58
704.57	12772.30
704.70	12355.69
704.83	12465.69
704.96	12376.75
705.10	12114.61
705.23	12315.90
>>>>>End Processed Spectral Data<<<<<
