SpectraSuite Data File
++++++++++++++++++++++++++++++++++++
Date: Tue Oct 01 18:27:28 GMT-05:00 2013
User: stostad
Dark Spectrum Present: No
Reference Spectrum Present: No
Number of Sampled Component Spectra: 1
Spectrometers: USB2+H05261
Integration Time (usec): 100000 (USB2+H05261)
Spectra Averaged: 1 (USB2+H05261)
Boxcar Smoothing: 0 (USB2+H05261)
Correct for Electrical Dark: No (USB2+H05261)
Strobe/Lamp Enabled: No (USB2+H05261)
Correct for Detector Non-linearity: No (USB2+H05261)
Correct for Stray Light: No (USB2+H05261)
Number of Pixels in Processed Spectrum: 2048
>>>>>Begin Processed Spectral Data<<<<<
365.73	119.37
365.92	119.37
366.12	119.37
366.32	0.00
366.52	46.81
366.72	0.00
366.91	0.00
367.11	9.36
367.31	0.00
367.51	0.00
367.70	0.00
367.90	2.34
368.10	0.00
368.30	0.00
368.49	0.00
368.69	9.36
368.89	0.00
369.09	0.00
369.28	0.00
369.48	30.43
369.68	0.00
369.87	72.56
370.07	32.77
370.27	98.30
370.47	177.88
370.66	208.31
370.86	379.17
371.06	341.72
371.25	358.10
371.45	248.10
371.65	372.15
371.84	320.65
372.04	278.52
372.24	341.72
372.44	379.17
372.63	407.25
372.83	416.62
373.03	379.17
373.22	330.02
373.42	372.15
373.62	395.55
373.81	386.19
374.01	435.34
374.21	376.83
374.40	430.66
374.60	503.22
374.79	400.23
374.99	463.43
375.19	437.68
375.38	458.74
375.58	437.68
375.78	489.17
375.97	444.70
376.17	498.53
376.37	463.43
376.56	416.62
376.76	428.32
376.95	395.55
377.15	484.49
377.35	435.34
377.54	521.94
377.74	393.21
377.93	444.70
378.13	472.79
378.33	493.85
378.52	465.77
378.72	489.17
378.91	512.58
379.11	477.47
379.31	430.66
379.50	507.90
379.70	535.98
379.89	547.69
380.09	554.71
380.28	507.90
380.48	496.19
380.68	486.83
380.87	496.19
381.07	507.90
381.26	566.41
381.46	526.62
381.65	533.64
381.85	531.30
382.04	531.30
382.24	531.30
382.43	503.22
382.63	620.24
382.83	540.66
383.02	627.26
383.22	589.82
383.41	543.00
383.61	528.96
383.80	599.18
384.00	650.67
384.19	617.90
384.39	463.43
384.58	578.11
384.78	608.54
384.97	571.09
385.17	650.67
385.36	585.13
385.56	543.00
385.75	543.00
385.95	571.09
386.14	599.18
386.34	662.37
386.53	629.60
386.72	580.45
386.92	720.88
387.11	676.41
387.31	653.01
387.50	650.67
387.70	716.20
387.89	641.31
388.09	688.12
388.28	697.48
388.48	676.41
388.67	660.03
388.86	631.94
389.06	723.23
389.25	692.80
389.45	685.78
389.64	727.91
389.84	727.91
390.03	760.67
390.22	739.61
390.42	697.48
390.61	667.05
390.81	697.48
391.00	711.52
391.19	746.63
391.39	732.59
391.58	732.59
391.78	833.23
391.97	681.10
392.16	716.20
392.36	842.59
392.55	821.53
392.75	854.30
392.94	814.51
393.13	910.47
393.33	788.76
393.52	866.00
393.71	933.87
393.91	894.08
394.10	877.70
394.29	898.77
394.49	910.47
394.68	873.02
394.88	987.71
395.07	854.30
395.26	917.49
395.46	957.28
395.65	931.53
395.84	915.15
396.04	1015.79
396.23	917.49
396.42	922.17
396.62	964.30
396.81	961.96
397.00	945.58
397.19	1027.50
397.39	978.34
397.58	1064.94
397.77	1004.09
397.97	912.81
398.16	992.39
398.35	1078.99
398.55	1076.65
398.74	1064.94
398.93	1053.24
399.12	1104.73
399.32	1076.65
399.51	1067.28
399.70	1137.50
399.90	1137.50
400.09	1153.88
400.28	1130.48
400.47	1191.33
400.67	1167.93
400.86	1266.23
401.05	1303.68
401.24	1240.48
401.44	1256.87
401.63	1128.14
401.82	1259.21
402.01	1228.78
402.21	1343.47
402.40	1275.59
402.59	1282.61
402.78	1261.55
402.97	1303.68
403.17	1331.76
403.36	1441.77
403.55	1355.17
403.74	1416.02
403.93	1369.21
404.13	1446.45
404.32	1401.98
404.51	1336.45
404.70	1413.68
404.89	1336.45
405.09	1413.68
405.28	1476.88
405.47	1483.90
405.66	1556.46
405.85	1556.46
406.05	1474.54
406.24	1481.56
406.43	1563.48
406.62	1647.74
406.81	1666.46
407.00	1605.61
407.20	1685.19
407.39	1607.95
407.58	1666.46
407.77	1748.38
407.96	1825.62
408.15	1734.34
408.34	1762.42
408.54	1652.42
408.73	1739.02
408.92	1706.25
409.11	1804.55
409.30	1870.09
409.49	1813.92
409.68	1860.73
409.87	1837.32
410.07	1867.75
410.26	1944.99
410.45	1959.03
410.64	1940.30
410.83	1909.88
411.02	1973.07
411.21	1959.03
411.40	2029.24
411.59	2033.93
411.78	2209.47
411.98	2085.42
412.17	2221.17
412.36	2232.87
412.55	2200.10
412.74	2099.46
412.93	2253.94
413.12	2218.83
413.31	2359.26
413.50	2392.03
413.69	2333.51
413.88	2349.90
414.07	2324.15
414.26	2469.27
414.45	2387.35
414.64	2417.77
414.83	2438.84
415.02	2476.29
415.22	2525.44
415.41	2530.12
415.60	2640.12
415.79	2565.23
415.98	2642.46
416.17	2567.57
416.36	2724.38
416.55	2691.62
416.74	2686.94
416.93	2689.28
417.12	2766.51
417.31	2782.90
417.50	2745.45
417.69	3002.91
417.88	2937.37
418.07	2949.08
418.26	2782.90
418.45	2946.73
418.64	3052.06
418.83	3070.78
419.02	2944.39
419.21	3084.83
419.39	3059.08
419.58	3082.49
419.77	3026.31
419.96	2970.14
420.15	3171.43
420.34	3082.49
420.53	3103.55
420.72	3180.79
420.91	3180.79
421.10	3204.19
421.29	3243.98
421.48	3157.38
421.67	3297.81
421.86	3351.65
422.05	3157.38
422.24	3243.98
422.43	3206.53
422.61	3421.86
422.80	3304.84
422.99	3236.96
423.18	3372.71
423.37	3372.71
423.56	3463.99
423.75	3372.71
423.94	3365.69
424.13	3169.09
424.32	3297.81
424.50	3515.48
424.69	3632.51
424.88	3456.97
425.07	3304.84
425.26	3323.56
425.45	3400.80
425.64	3438.25
425.83	3339.94
426.01	3557.61
426.20	3337.60
426.39	3293.13
426.58	3440.59
426.77	3482.72
426.96	3569.32
427.15	3510.80
427.33	3538.89
427.52	3517.83
427.71	3597.40
427.90	3775.28
428.09	3735.50
428.28	3634.85
428.46	3756.56
428.65	3599.74
428.84	3784.65
429.03	3838.48
429.22	3665.28
429.40	3747.20
429.59	3700.39
429.78	3583.36
429.97	3681.66
430.16	3672.30
430.34	3822.09
430.53	4044.45
430.72	3934.44
430.91	3808.05
431.10	3906.35
431.28	3962.53
431.47	3948.48
431.66	4093.60
431.85	4009.34
432.03	3957.85
432.22	4072.53
432.41	4105.30
432.60	4014.02
432.79	4016.36
432.97	4042.11
433.16	4196.58
433.35	4131.05
433.54	4329.99
433.72	4177.86
433.91	4222.33
434.10	4081.89
434.28	4074.87
434.47	4203.60
434.66	4404.89
434.85	4409.57
435.03	4322.97
435.22	4257.43
435.41	4468.08
435.59	4344.03
435.78	4341.69
435.97	4416.59
436.16	4348.72
436.34	4458.72
436.53	4482.13
436.72	4683.41
436.90	4528.94
437.09	4596.81
437.28	4440.00
437.46	4444.68
437.65	4678.73
437.84	4734.90
438.02	4819.16
438.21	4582.77
438.40	4542.98
438.58	4770.01
438.77	4767.67
438.96	4891.72
439.14	4943.21
439.33	4926.83
439.52	4952.57
439.70	4978.32
439.89	5095.35
440.08	5008.75
440.26	5088.32
440.45	5128.11
440.63	5137.48
440.82	5228.76
441.01	5172.58
441.19	5296.63
441.38	5444.09
441.57	5357.49
441.75	5411.32
441.94	5518.98
442.12	5390.25
442.31	5610.26
442.50	5439.40
442.68	5610.26
442.87	5570.48
443.05	5563.45
443.24	5652.39
443.43	5687.50
443.61	5734.31
443.80	5790.49
443.98	5603.24
444.17	5329.40
444.35	5790.49
444.54	5846.66
444.73	5956.66
444.91	5710.91
445.10	5598.56
445.28	5774.10
445.47	5621.97
445.65	5757.72
445.84	5872.40
446.02	5771.76
446.21	5741.33
446.39	5811.55
446.58	5846.66
446.77	5907.51
446.95	5839.64
447.14	5813.89
447.32	5884.11
447.51	5881.77
447.69	5820.91
447.88	6029.22
448.06	5975.39
448.25	5818.57
448.43	5891.13
448.62	5928.58
448.80	5811.55
448.99	5994.11
449.17	6090.07
449.36	6136.88
449.54	6127.52
449.73	6235.19
449.91	5954.32
450.10	6253.91
450.28	6373.28
450.46	6293.70
450.65	6305.40
450.83	6328.81
451.02	6202.42
451.20	6504.35
451.39	6413.07
451.57	6321.79
451.76	6237.53
451.94	6319.45
452.13	6431.79
452.31	6448.18
452.49	6541.80
452.68	6525.41
452.86	6520.73
453.05	6581.59
453.23	6640.10
453.42	6445.84
453.60	6558.18
453.78	6656.48
453.97	6642.44
454.15	6689.25
454.34	6717.34
454.52	6684.57
454.70	6794.58
454.89	6703.29
455.07	6909.26
455.26	6724.36
455.44	6920.96
455.62	6848.41
455.81	6977.14
455.99	7037.99
456.17	6853.09
456.36	6881.18
456.54	7012.24
456.73	7124.59
456.91	7246.30
457.09	7208.85
457.28	7405.46
457.46	7302.47
457.64	7279.07
457.83	7166.72
458.01	7129.27
458.19	7323.54
458.38	7234.60
458.56	7349.28
458.74	7463.97
458.93	7517.80
459.11	7346.94
459.29	7665.25
459.48	7566.95
459.66	7506.10
459.84	7454.61
460.03	7831.43
460.21	7461.63
460.39	7555.25
460.57	7456.95
460.76	7569.29
460.94	7765.90
461.12	7798.66
461.31	7723.77
461.49	7866.54
461.67	7793.98
461.85	8053.78
462.04	7796.32
462.22	8332.31
462.40	7995.27
462.59	7892.29
462.77	8028.04
462.95	8116.98
463.13	8145.06
463.32	8098.25
463.50	7992.93
463.68	8138.04
463.86	8124.00
464.05	8177.83
464.23	8339.33
464.41	8152.09
464.59	8084.21
464.78	8248.05
464.96	8372.10
465.14	8126.34
465.32	8367.42
465.50	8454.02
465.69	8505.51
465.87	8475.08
466.05	8589.77
466.23	8493.80
466.41	8674.03
466.60	8662.32
466.78	8395.50
466.96	8624.87
467.14	8404.86
467.32	8442.31
467.51	8861.27
467.69	8395.50
467.87	8578.06
468.05	8748.92
468.23	8669.34
468.41	8606.15
468.60	8608.49
468.78	8877.65
468.96	8477.42
469.14	8772.33
469.32	8863.61
469.50	8830.84
469.69	8847.22
469.87	9078.94
470.05	9092.98
470.23	9109.36
470.41	9132.77
470.59	9188.94
470.77	9139.79
470.95	9303.63
471.14	9193.62
471.32	9104.68
471.50	9523.64
471.68	9298.95
471.86	9563.43
472.04	9341.08
472.22	9607.90
472.40	9373.85
472.58	9727.27
472.77	9542.36
472.95	9886.42
473.13	10101.75
473.31	9647.69
473.49	9856.00
473.67	9682.80
473.85	9865.36
474.03	9811.53
474.21	10115.80
474.39	9996.43
474.57	10445.81
474.75	10284.31
474.93	10314.74
475.12	10298.36
475.30	10558.16
475.48	10410.70
475.66	10656.46
475.84	10389.64
476.02	10628.37
476.20	10555.82
476.38	10892.85
476.56	11019.24
476.74	10860.09
476.92	11005.20
477.10	10993.50
477.28	10848.38
477.46	10988.82
477.64	11222.87
477.82	11449.90
478.00	11599.70
478.18	11534.16
478.36	11735.45
478.54	11733.11
478.72	12018.65
478.90	12058.44
479.08	11927.37
479.26	12154.40
479.44	12336.96
479.62	12257.39
479.80	12091.21
479.98	12629.53
480.16	12826.14
480.34	12744.22
480.52	12641.23
480.70	12812.09
480.88	12835.50
481.06	13020.40
481.24	12898.69
481.41	13102.32
481.59	13364.46
481.77	13476.80
481.95	13352.76
482.13	13535.32
482.31	13540.00
482.49	13940.23
482.67	14132.15
482.85	14153.22
483.03	14321.74
483.21	14218.75
483.39	14352.16
483.57	14417.70
483.74	14420.04
483.92	14904.53
484.10	14700.90
484.28	15199.44
484.46	15267.31
484.64	15524.77
484.82	15122.20
485.00	15524.77
485.18	15632.44
485.35	15815.00
485.53	15611.37
485.71	15910.96
485.89	16135.65
486.07	16060.76
486.25	16154.38
486.43	16304.17
486.61	16673.98
486.78	16676.32
486.96	16685.68
487.14	17280.18
487.32	17081.23
487.50	17125.70
487.68	17570.40
487.85	17427.63
488.03	17621.89
488.21	17703.81
488.39	18157.88
488.57	18008.08
488.75	18115.75
488.92	18520.66
489.10	18424.70
489.28	18478.53
489.46	18504.28
489.64	18389.59
489.81	19281.33
489.99	19061.32
490.17	19330.48
490.35	19744.76
490.53	19501.34
490.70	19679.22
490.88	19571.56
491.06	19831.36
491.24	20027.96
491.41	20056.05
491.59	20219.89
491.77	20343.94
491.95	20404.79
492.13	20521.82
492.30	20599.05
492.48	20786.30
492.66	20746.51
492.84	20966.52
493.01	20978.22
493.19	21116.31
493.37	21600.80
493.54	21638.25
493.72	21401.86
493.90	22059.55
494.08	22059.55
494.25	22319.35
494.43	21994.01
494.61	22665.75
494.79	22457.44
494.96	22317.01
495.14	22808.52
495.32	23026.19
495.49	22878.74
495.67	23030.87
495.85	23152.58
496.02	23508.34
496.20	23520.04
496.38	23587.92
496.55	23850.06
496.73	23873.46
496.91	23948.36
497.09	23957.72
497.26	24470.30
497.44	24041.98
497.62	24325.19
497.79	24694.99
497.97	24694.99
498.14	25081.18
498.32	25029.69
498.50	25181.82
498.67	25500.14
498.85	25247.36
499.03	25469.71
499.20	25687.38
499.38	25696.74
499.56	25867.60
499.73	25802.07
499.91	25883.98
500.08	25919.09
500.26	26190.59
500.44	25982.29
500.61	26209.32
500.79	26352.09
500.97	26356.77
501.14	26843.60
501.32	26799.13
501.49	26883.39
501.67	27026.17
501.84	26899.78
502.02	27260.22
502.20	27505.98
502.37	27307.03
502.55	27274.26
502.72	27168.94
502.90	27264.90
503.07	27835.99
503.25	27866.42
503.43	27578.53
503.60	27782.16
503.78	27819.61
503.95	27573.85
504.13	28135.58
504.30	28421.13
504.48	28297.08
504.65	28652.84
504.83	28563.90
505.01	28711.35
505.18	28751.14
505.36	28980.51
505.53	28474.96
505.71	29006.26
505.88	29301.17
506.06	29039.03
506.23	29270.74
506.41	29195.84
506.58	29235.63
506.76	29408.83
506.93	29743.53
507.11	29521.18
507.28	30118.01
507.46	30244.40
507.63	29958.86
507.81	30122.69
507.98	29958.86
508.16	30192.91
508.33	30291.21
508.50	30740.60
508.68	30754.64
508.85	30916.14
509.03	30703.15
509.20	30756.98
509.38	30864.64
509.55	30834.22
509.73	31152.53
509.90	31374.88
510.08	31639.36
510.25	30991.03
510.42	31276.58
510.60	31967.04
510.77	31580.85
510.95	31892.14
511.12	31475.52
511.30	31709.58
511.47	31810.22
511.64	31646.38
511.82	32290.03
511.99	32149.60
512.17	32400.04
512.34	32280.67
512.51	32758.14
512.69	32968.79
512.86	32849.42
513.04	32760.48
513.21	32767.50
513.38	33127.94
513.56	32926.66
513.73	32809.63
513.90	32882.19
514.08	33153.69
514.25	33092.83
514.43	33418.17
514.60	33345.61
514.77	33425.19
514.95	33865.21
515.12	33060.07
515.29	33734.14
515.47	34185.86
515.64	34155.44
515.81	34110.97
515.99	34110.97
516.16	34235.02
516.33	34597.80
516.51	34899.73
516.68	34387.15
516.85	34412.90
517.03	35091.65
517.20	34646.95
517.37	34771.00
517.54	34522.90
517.72	34810.79
517.89	34822.49
518.06	34782.70
518.24	35009.73
518.41	35494.22
518.58	35241.45
518.75	34813.13
518.93	35381.88
519.10	35271.87
519.27	35309.32
519.45	35330.39
519.62	35306.98
519.79	35962.33
519.96	36077.02
520.14	35978.72
520.31	35747.00
520.48	36154.26
520.65	36163.62
520.83	36250.22
521.00	36236.17
521.17	36467.89
521.34	36411.71
521.52	36350.86
521.69	36287.67
521.86	36545.12
522.03	36615.34
522.20	37134.94
522.38	36966.42
522.55	37404.10
522.72	37188.77
522.89	37184.09
523.07	37549.21
523.24	37195.79
523.41	37343.25
523.58	37483.68
523.75	37591.34
523.92	37518.79
524.10	37841.78
524.27	38218.61
524.44	37921.36
524.61	38026.68
524.78	37977.53
524.96	37649.86
525.13	38443.30
525.30	38717.14
525.47	38384.79
525.64	38546.28
525.81	38710.12
525.98	38710.12
526.16	38714.80
526.33	38618.84
526.50	38607.14
526.67	38845.87
526.84	38988.64
527.01	38820.13
527.18	38988.64
527.36	39189.93
527.53	38995.67
527.70	38803.74
527.87	39461.43
528.04	39110.35
528.21	39632.29
528.38	39229.72
528.55	39391.22
528.72	39667.40
528.89	39618.25
529.07	39445.05
529.24	39337.38
529.41	39594.84
529.58	39552.71
529.75	39386.54
529.92	39917.84
530.09	40041.88
530.26	39751.66
530.43	40278.28
530.60	39269.51
530.77	39679.10
530.94	40343.81
531.11	40098.06
531.28	40219.77
531.46	40727.66
531.63	40568.51
531.80	40294.66
531.97	41146.62
532.14	40746.39
532.31	40575.53
532.48	40786.18
532.65	40985.12
532.82	41127.89
532.99	41193.43
533.16	41261.30
533.33	41242.58
533.50	41401.74
533.67	41345.56
533.84	41294.07
534.01	41521.10
534.18	41497.70
534.35	41387.69
534.52	41607.70
534.69	41794.95
534.86	41778.56
535.03	41668.56
535.20	41448.55
535.37	41853.46
535.54	41785.58
535.71	42050.06
535.88	42012.62
536.05	42316.89
536.22	42230.29
536.38	42284.12
536.55	42082.83
536.72	41867.50
536.89	41970.49
537.06	42080.49
537.23	42286.46
537.40	42178.79
537.57	42490.09
537.74	42265.39
537.91	42408.17
538.08	42356.67
538.25	42359.02
538.42	42237.31
538.59	42946.49
538.75	42686.69
538.92	42906.70
539.09	43393.53
539.26	43281.19
539.43	43061.18
539.60	42845.85
539.77	43206.29
539.94	43639.29
540.11	43217.99
540.28	43220.33
540.44	43438.00
540.61	43681.42
540.78	43459.07
540.95	43105.65
541.12	43107.99
541.29	43351.40
541.46	43400.55
541.62	43281.19
541.79	43271.82
541.96	43482.47
542.13	43569.07
542.30	44163.57
542.47	44027.82
542.63	43519.92
542.80	43742.27
542.97	44196.34
543.14	44048.88
543.31	43814.83
543.48	44516.99
543.64	45109.14
543.81	44563.80
543.98	44673.81
544.15	44687.85
544.32	44758.06
544.48	44830.62
544.65	44081.65
544.82	44755.72
544.99	44554.44
545.16	45057.65
545.32	44849.35
545.49	45141.91
545.66	45326.81
545.83	44985.10
546.00	45170.00
546.16	45008.50
546.33	44727.64
546.50	44697.21
546.67	45413.41
546.83	45191.06
547.00	45268.30
547.17	44964.03
547.34	45230.85
547.50	45652.15
547.67	45350.22
547.84	45434.48
548.00	45420.44
548.17	45947.06
548.34	45916.63
548.51	45815.99
548.67	46007.91
548.84	45464.91
549.01	45750.45
549.18	45813.65
549.34	45839.39
549.51	46045.36
549.68	45823.01
549.84	45998.55
550.01	46281.75
550.18	46036.00
550.34	45846.41
550.51	46092.17
550.68	46033.66
550.84	45572.57
551.01	46127.28
551.18	45804.28
551.34	46422.19
551.51	46415.16
551.68	46623.47
551.84	46630.49
552.01	46653.90
552.18	46298.14
552.34	45727.05
552.51	46244.30
552.68	46234.94
552.84	46698.37
553.01	47217.97
553.18	46934.76
553.34	46696.03
553.51	46576.66
553.67	46330.90
553.84	46696.03
554.01	46506.44
554.17	46658.58
554.34	46894.97
554.51	46859.87
554.67	47161.79
554.84	47246.05
555.00	46885.61
555.17	46813.05
555.33	47220.31
555.50	47189.88
555.67	46602.41
555.83	46925.40
556.00	46976.89
556.16	47274.14
556.33	47494.15
556.50	47056.47
556.66	47423.93
556.83	47253.08
556.99	47428.62
557.16	47072.85
557.32	47110.30
557.49	47435.64
557.65	47430.96
557.82	47606.50
557.98	47819.49
558.15	47920.13
558.32	47807.78
558.48	47529.26
558.65	47454.36
558.81	47800.76
558.98	47873.32
559.14	47536.28
559.31	47852.25
559.47	47711.82
559.64	47896.72
559.80	48067.58
559.97	47842.89
560.13	47711.82
560.30	47281.16
560.46	47395.85
560.63	47786.72
560.79	47899.06
560.96	48046.52
561.12	48046.52
561.29	48165.88
561.45	48018.43
561.61	47742.25
561.78	48278.23
561.94	47643.94
562.11	48013.75
562.27	47742.25
562.44	48261.85
562.60	48210.35
562.77	48406.96
562.93	47988.00
563.10	48512.28
563.26	48301.64
563.42	48444.41
563.59	48390.58
563.75	47887.36
563.92	48432.71
564.08	48222.06
564.24	48193.97
564.41	48594.20
564.57	48460.79
564.74	48336.74
564.90	48568.46
565.07	48191.63
565.23	48301.64
565.39	48200.99
565.56	48165.88
565.72	48493.56
565.88	48598.88
566.05	48442.07
566.21	48657.40
566.38	48376.53
566.54	48528.67
566.70	48596.54
566.87	48659.74
567.03	48245.46
567.19	48409.30
567.36	48779.10
567.52	48652.72
567.68	48875.07
567.85	48638.67
568.01	49008.48
568.17	48687.82
568.34	48704.21
568.50	48385.89
568.66	48325.04
568.83	48748.68
568.99	48587.18
569.15	48512.28
569.32	49212.10
569.48	48657.40
569.64	48718.25
569.81	48729.95
569.97	48861.02
570.13	48875.07
570.30	48416.32
570.46	48891.45
570.62	48584.84
570.78	48790.81
570.95	48395.26
571.11	48879.75
571.27	48736.98
571.43	49001.46
571.60	49219.13
571.76	48982.73
571.92	48854.00
572.09	48814.21
572.25	48919.54
572.41	48732.29
572.57	48919.54
572.74	49109.12
572.90	49172.31
573.06	49104.44
573.22	49184.02
573.38	49516.37
573.55	49188.70
573.71	49125.50
573.87	49055.29
574.03	48804.85
574.20	48886.77
574.36	48591.86
574.52	48736.98
574.68	48919.54
574.84	49265.94
575.01	49198.06
575.17	49338.49
575.33	49017.84
575.49	48711.23
575.65	49272.96
575.82	49347.86
575.98	49038.90
576.14	49289.34
576.30	49167.63
576.46	48891.45
576.62	49071.67
576.79	49209.76
576.95	49146.57
577.11	49279.98
577.27	49027.20
577.43	49097.42
577.59	49148.91
577.75	49151.25
577.92	48804.85
578.08	48858.68
578.24	48893.79
578.40	49727.02
578.56	49415.73
578.72	49605.31
578.88	49174.66
579.04	49179.34
579.21	49394.67
579.37	48964.01
579.53	49205.08
579.69	49647.44
579.85	49345.51
580.01	49504.67
580.17	49429.77
580.33	49626.38
580.49	49209.76
580.65	49418.07
580.82	48900.81
580.98	49191.04
581.14	48800.17
581.30	49441.48
581.46	49397.01
581.62	49116.14
581.78	49371.26
581.94	49397.01
582.10	48760.38
582.26	49441.48
582.42	48769.74
582.58	49301.04
582.74	49378.28
582.90	49118.48
583.06	49254.23
583.22	49151.25
583.38	49670.85
583.54	49925.97
583.70	49879.16
583.86	49535.10
584.02	49167.63
584.18	49588.93
584.34	49378.28
584.50	49834.69
584.66	49649.78
584.82	48896.13
584.98	49542.12
585.14	49724.68
585.30	49825.32
585.46	49401.69
585.62	49427.43
585.78	49282.32
585.94	49200.40
586.10	49099.76
586.26	49090.40
586.42	49670.85
586.58	49434.45
586.74	49059.97
586.90	49361.90
587.06	49544.46
587.22	49893.20
587.38	49169.97
587.54	49755.11
587.70	50059.38
587.86	49420.41
588.02	49610.00
588.18	49436.80
588.34	49684.89
588.49	49734.04
588.65	49389.98
588.81	49968.10
588.97	49881.50
589.13	49972.78
589.29	49621.70
589.45	49984.48
589.61	50042.99
589.77	49940.01
589.93	49490.63
590.08	50169.38
590.24	49832.35
590.40	49897.88
590.56	50398.76
590.72	49748.09
590.88	49439.14
591.04	49579.57
591.20	50213.85
591.35	50010.23
591.51	50183.43
591.67	49860.43
591.83	49804.26
591.99	49727.02
592.15	49895.54
592.31	50073.42
592.46	49996.18
592.62	49984.48
592.78	49797.24
592.94	50424.50
593.10	49886.18
593.26	50073.42
593.41	50054.70
593.57	49958.73
593.73	49708.30
593.89	50143.64
594.05	50164.70
594.20	50557.91
594.36	50138.96
594.52	50000.86
594.68	50174.06
594.84	50143.64
594.99	50103.85
595.15	50258.32
595.31	50216.19
595.47	50045.33
595.62	50124.91
595.78	50092.15
595.94	49965.76
596.10	50239.60
596.25	50321.52
596.41	49972.78
596.57	50443.23
596.73	50354.29
596.88	50164.70
597.04	50026.61
597.20	50082.78
597.36	50003.20
597.51	50050.02
597.67	49741.06
597.83	49986.82
597.99	49860.43
598.14	50204.49
598.30	50408.12
598.46	50080.44
598.61	50195.13
598.77	50213.85
598.93	50365.99
599.09	50508.76
599.24	50178.75
599.40	50103.85
599.56	50209.17
599.71	50314.50
599.87	50784.94
600.03	50808.35
600.18	50216.19
600.34	50129.59
600.50	50270.03
600.65	50295.77
600.81	50576.64
600.97	50333.22
601.12	50038.31
601.28	49944.69
601.44	50178.75
601.59	50670.26
601.75	50150.66
601.91	50321.52
602.06	50415.14
602.22	50255.98
602.37	49902.56
602.53	50312.16
602.69	50497.06
602.84	50082.78
603.00	50216.19
603.16	49865.11
603.31	49886.18
603.47	50164.70
603.62	50113.21
603.78	50494.72
603.94	50522.80
604.09	50160.02
604.25	50223.22
604.40	49982.14
604.56	50192.79
604.71	50183.43
604.87	49869.79
605.03	49806.60
605.18	49886.18
605.34	50033.63
605.49	50007.89
605.65	49968.10
605.80	50033.63
605.96	50466.63
606.12	49979.80
606.27	50422.16
606.43	50178.75
606.58	50211.51
606.74	50087.46
606.89	49972.78
607.05	50059.38
607.20	50057.04
607.36	49818.30
607.51	50204.49
607.67	50230.24
607.82	50197.47
607.98	50082.78
608.13	49670.85
608.29	49890.86
608.44	49944.69
608.60	50003.20
608.75	50110.87
608.91	49848.73
609.06	49497.65
609.22	49778.51
609.37	49144.23
609.53	49822.98
609.68	50314.50
609.84	49846.39
609.99	49972.78
610.15	50223.22
610.30	49865.11
610.46	49813.62
610.61	49446.16
610.76	49457.86
610.92	49371.26
611.07	49759.79
611.23	49265.94
611.38	49752.77
611.54	50054.70
611.69	49392.33
611.84	49801.92
612.00	49610.00
612.15	49645.10
612.31	49923.63
612.46	49394.67
612.62	49670.85
612.77	49359.56
612.92	49600.63
613.08	49406.37
613.23	49347.86
613.39	49446.16
613.54	49427.43
613.69	49432.11
613.85	49724.68
614.00	49670.85
614.15	49911.92
614.31	48954.64
614.46	49668.51
614.62	49556.16
614.77	49528.08
614.92	49134.87
615.08	49242.53
615.23	49064.65
615.38	49909.58
615.54	49350.20
615.69	49364.24
615.84	48879.75
616.00	49488.29
616.15	49385.30
616.30	49439.14
616.46	49389.98
616.61	49169.97
616.76	49001.46
616.92	48556.75
617.07	49013.16
617.22	48846.98
617.37	48619.95
617.53	49237.85
617.68	49200.40
617.83	49481.27
617.99	49219.13
618.14	48935.92
618.29	49043.59
618.45	48767.40
618.60	48821.23
618.75	48713.57
618.90	49125.50
619.06	48655.06
619.21	48795.49
619.36	49008.48
619.51	48472.49
619.67	48495.90
619.82	48395.26
619.97	48697.19
620.12	48685.48
620.28	48238.44
620.43	48619.95
620.58	48570.80
620.73	48502.92
620.89	48610.59
621.04	48786.13
621.19	48896.13
621.34	49034.22
621.49	48987.41
621.65	48753.36
621.80	48924.22
621.95	48713.57
622.10	48814.21
622.25	48210.35
622.41	48198.65
622.56	48428.02
622.71	48664.42
622.86	48388.24
623.01	48594.20
623.16	48432.71
623.32	48289.93
623.47	48289.93
623.62	48746.34
623.77	48790.81
623.92	48519.31
624.07	48371.85
624.23	48538.03
624.38	48320.36
624.53	47763.31
624.68	48598.88
624.83	48371.85
624.98	48346.11
625.13	47412.23
625.29	48210.35
625.44	47924.81
625.59	47957.58
625.74	47814.80
625.89	48172.91
626.04	48006.73
626.19	47812.46
626.34	48069.92
626.49	47702.46
626.65	47627.56
626.80	48006.73
626.95	47344.36
627.10	47414.57
627.25	47332.65
627.40	47430.96
627.55	47342.02
627.70	47770.33
627.85	47674.37
628.00	47908.43
628.15	48128.44
628.30	47828.85
628.45	47966.94
628.60	47604.16
628.76	47508.19
628.91	47372.44
629.06	47264.78
629.21	47306.91
629.36	47320.95
629.51	47309.25
629.66	47508.19
629.81	46843.48
629.96	47351.38
630.11	46990.94
630.26	46983.91
630.41	47480.11
630.56	47669.69
630.71	47131.37
630.86	47070.51
631.01	46930.08
631.16	46916.04
631.31	46850.50
631.46	46625.81
631.61	47070.51
631.76	46670.28
631.91	47138.39
632.06	46916.04
632.21	46635.17
632.36	47152.43
632.51	46452.61
632.66	46738.16
632.81	46698.37
632.96	46831.78
633.10	46920.72
633.25	46660.92
633.40	46763.90
633.55	46438.57
633.70	46707.73
633.85	46632.83
634.00	46326.22
634.15	46892.63
634.30	47171.16
634.45	47023.70
634.60	46794.33
634.75	46630.49
634.90	46588.36
635.05	46775.61
635.19	46614.11
635.34	46799.01
635.49	46089.83
635.64	46115.58
635.79	46408.14
635.94	46478.36
636.09	46583.68
636.24	46267.71
636.39	45900.25
636.53	46478.36
636.68	46202.18
636.83	46497.08
636.98	46146.00
637.13	45553.85
637.28	46209.20
637.43	46335.59
637.57	45958.76
637.72	46003.23
637.87	46277.07
638.02	46218.56
638.17	46057.06
638.32	46197.49
638.46	46328.56
638.61	46237.28
638.76	45710.66
638.91	45787.90
639.06	45649.81
639.20	45556.19
639.35	45687.26
639.50	45380.65
639.65	45738.75
639.80	45794.92
639.94	45399.37
640.09	45322.13
640.24	45635.77
640.39	45787.90
640.54	45574.91
640.68	45830.03
640.83	45460.23
640.98	45464.91
641.13	44921.90
641.27	45106.80
641.42	45647.47
641.57	45439.16
641.72	45158.30
641.86	45127.87
642.01	44971.05
642.16	45137.23
642.31	44847.00
642.45	45467.25
642.60	45102.12
642.75	45111.49
642.90	45209.79
643.04	45361.92
643.19	44566.14
643.34	44605.93
643.48	44641.04
643.63	44987.44
643.78	44947.65
643.93	45174.68
644.07	44837.64
644.22	45172.34
644.37	44371.88
644.51	44673.81
644.66	45043.61
644.81	44893.82
644.95	45064.67
645.10	45085.74
645.25	44879.77
645.39	44837.64
645.54	44673.81
645.69	44800.19
645.83	44692.53
645.98	44353.15
646.13	44505.29
646.27	44545.08
646.42	43915.47
646.57	44266.55
646.71	44556.78
646.86	44732.32
647.00	44662.10
647.15	44289.96
647.30	44952.33
647.44	44538.05
647.59	44374.22
647.74	44463.16
647.88	44133.14
648.03	44093.35
648.17	44170.59
648.32	44318.04
648.47	44254.85
648.61	44479.54
648.76	44865.73
648.90	44268.89
649.05	44678.49
649.20	44507.63
649.34	44435.07
649.49	44119.10
649.63	44334.43
649.78	44051.22
649.92	44046.54
650.07	44423.37
650.21	44130.80
650.36	44006.75
650.51	43810.15
650.65	43793.76
650.80	44051.22
650.94	43496.52
651.09	43353.74
651.23	43328.00
651.38	43466.09
651.52	43702.48
651.67	44273.57
651.81	44301.66
651.96	43810.15
652.10	44006.75
652.25	43786.74
652.39	43594.82
652.54	43765.68
652.68	43531.62
652.83	43505.88
652.97	43700.14
653.12	43264.80
653.26	43206.29
653.41	43419.28
653.55	43821.85
653.70	43594.82
653.84	43714.19
653.99	43945.90
654.13	43915.47
654.27	43550.35
654.42	43842.92
654.56	43749.29
654.71	43016.71
654.85	43014.37
655.00	42866.91
655.14	42920.74
655.29	42967.55
655.43	42993.30
655.57	42969.90
655.72	43124.37
655.86	43468.43
656.01	43243.74
656.15	42600.09
656.30	43208.63
656.44	43257.78
656.58	42679.67
656.73	42731.16
656.87	42600.09
657.01	42508.81
657.16	42574.34
657.30	42398.80
657.45	42815.42
657.59	42632.86
657.73	42389.44
657.88	42581.37
658.02	42866.91
658.16	42576.69
658.31	42918.40
658.45	42560.30
658.60	42696.05
658.74	42560.30
658.88	42677.33
659.03	42232.63
659.17	42176.45
659.31	41860.48
659.46	41907.29
659.60	42237.31
659.74	41991.55
659.89	42021.98
660.03	41940.06
660.17	41911.97
660.32	41830.05
660.46	41996.23
660.60	41848.78
660.74	42368.38
660.89	42485.40
661.03	41682.60
661.17	41741.11
661.32	41645.15
661.46	41748.14
661.60	40917.25
661.74	41265.99
661.89	41645.15
662.03	41289.39
662.17	40982.78
662.31	41317.48
662.46	41167.68
662.60	41450.89
662.74	40872.78
662.88	41516.42
663.03	41516.42
663.17	41165.34
663.31	41132.57
663.45	41069.38
663.60	40788.52
663.74	40690.21
663.88	40341.47
664.02	40718.30
664.17	40957.03
664.31	40622.34
664.45	40573.19
664.59	40444.46
664.73	40411.69
664.88	40304.02
665.02	40135.51
665.16	40620.00
665.30	40605.95
665.44	40161.25
665.59	40378.92
665.73	40491.27
665.87	39751.66
666.01	39711.87
666.15	39622.93
666.29	39819.53
666.44	40053.59
666.58	39440.37
666.72	39229.72
666.86	39545.69
667.00	39629.95
667.14	39651.02
667.28	39409.94
667.43	39407.60
667.57	39880.39
667.71	39693.15
667.85	39218.02
667.99	39431.01
668.13	39152.48
668.27	39126.74
668.41	39075.24
668.56	38314.57
668.70	38972.26
668.84	38518.20
668.98	38813.10
669.12	38909.07
669.26	38410.53
669.40	38796.72
669.54	38717.14
669.68	38581.39
669.82	38373.08
669.96	38581.39
670.10	38782.68
670.25	38740.55
670.39	38330.95
670.53	37687.31
670.67	38220.95
670.81	38574.37
670.95	37801.99
671.09	37869.87
671.23	37684.97
671.37	37668.58
671.51	37607.73
671.65	37460.27
671.79	37345.59
671.93	37853.48
672.07	37495.38
672.21	37153.66
672.35	37497.72
672.49	37322.18
672.63	37776.25
672.77	37266.01
672.91	36875.14
673.05	36907.91
673.19	37333.89
673.33	36582.57
673.47	36964.08
673.61	36470.23
673.75	36968.76
673.89	37083.45
674.03	36669.17
674.17	36477.25
674.31	36507.68
674.45	36781.52
674.59	36645.77
674.73	36388.31
674.87	36175.32
675.01	36002.12
675.15	36189.36
675.29	36140.21
675.43	36023.19
675.56	35508.27
675.70	35868.71
675.84	35723.60
675.98	34897.39
676.12	35477.84
676.26	35363.15
676.40	35257.83
676.54	35353.79
676.68	35086.97
676.82	34359.06
676.96	34986.33
677.10	35267.19
677.23	34686.74
677.37	34883.34
677.51	34670.36
677.65	34691.42
677.79	34417.58
677.93	34651.63
678.07	34373.11
678.21	33542.22
678.34	33869.89
678.48	33975.22
678.62	33282.42
678.76	33041.34
678.90	32914.95
679.04	33483.70
679.18	33605.41
679.31	32926.66
679.45	33397.10
679.59	33008.58
679.73	33226.24
679.87	33322.21
680.00	32811.97
680.14	32800.27
680.28	32954.74
680.42	32231.52
680.56	32393.01
680.70	31964.70
680.83	32006.83
680.97	31896.82
681.11	31910.86
681.25	31903.84
681.39	32322.80
681.52	31899.16
681.66	31765.75
681.80	32023.21
681.94	31714.26
682.07	31749.37
682.21	31531.70
682.35	31393.61
682.49	31438.08
682.62	31019.12
682.76	30899.75
682.90	30796.77
683.04	30539.31
683.17	30756.98
683.31	30501.86
683.45	30663.36
683.59	30359.09
683.72	30483.14
683.86	30361.43
684.00	30384.83
684.13	30602.50
684.27	30352.07
684.41	30298.23
684.55	29605.44
684.68	29593.73
684.82	30195.25
684.96	29663.95
685.09	29631.18
685.23	29046.05
685.37	29483.73
685.50	29088.18
685.64	28762.84
685.78	29104.56
685.91	29029.66
686.05	28627.09
686.19	28252.61
686.32	28718.37
686.46	28219.84
686.60	28383.68
686.73	28449.21
686.87	28772.21
687.01	28222.18
687.14	28259.63
687.28	28402.40
687.42	28116.86
687.55	28240.90
687.69	27934.29
687.82	27915.57
687.96	27999.83
688.10	27360.86
688.23	27147.87
688.37	27278.94
688.50	27030.85
688.64	26824.88
688.78	26960.63
688.91	26665.72
689.05	26829.56
689.18	26735.94
689.32	26211.66
689.46	26436.35
689.59	26246.77
689.73	26551.04
689.86	26438.69
690.00	26539.33
690.13	26185.91
690.27	26096.97
690.41	26225.70
690.54	25675.68
690.68	25776.32
690.81	25785.68
690.95	25439.28
691.08	25443.96
691.22	25252.04
691.35	25373.75
691.49	25404.17
691.62	25303.53
691.76	25017.99
691.89	24912.66
692.03	25071.82
692.16	24926.71
692.30	24821.38
692.43	24795.64
692.57	24458.60
692.70	24430.51
692.84	24484.34
692.97	24428.17
693.11	23828.99
693.24	23538.77
693.38	24004.53
693.51	23618.35
693.65	23501.32
693.78	23768.14
693.92	23728.35
694.05	23756.44
694.19	23239.18
694.32	23496.64
694.45	23143.22
694.59	23187.69
694.72	22958.31
694.86	23061.30
694.99	23225.14
695.13	23051.94
695.26	22661.07
695.39	22843.63
695.53	22677.45
695.66	22820.22
695.80	21935.50
695.93	22089.98
696.07	22071.25
696.20	21722.51
696.33	21720.17
696.47	21401.86
696.60	21788.05
696.73	21603.14
696.87	21603.14
697.00	21493.14
697.14	21455.69
697.27	21427.60
697.40	21350.37
697.54	21439.31
697.67	21261.43
697.80	21205.25
697.94	21193.55
698.07	20535.86
698.21	20671.61
698.34	20680.97
698.47	20255.00
698.61	20365.00
698.74	20121.59
698.87	20063.07
699.01	19955.41
699.14	20198.82
699.27	20201.16
699.40	19847.74
699.54	19932.00
699.67	20091.16
699.80	20009.24
699.94	19859.45
700.07	19969.45
700.20	19878.17
700.34	19241.54
700.47	19468.58
700.60	19309.42
700.73	19283.67
700.87	19218.14
701.00	19030.90
701.13	18567.47
701.26	18642.37
701.40	18665.77
701.53	18342.78
701.66	18544.06
701.79	18221.07
701.93	18499.59
702.06	18310.01
702.19	18401.29
702.32	18279.58
702.46	18487.89
702.59	18157.88
702.72	17930.84
702.85	17757.64
702.99	17937.87
703.12	17654.66
703.25	17488.48
703.38	17689.77
703.51	17132.72
703.65	17579.76
703.78	17076.55
703.91	16908.03
704.04	16863.56
704.17	17088.25
704.31	16950.16
704.44	16835.47
704.57	16910.37
704.70	16783.98
704.83	17048.46
704.96	16856.54
705.10	16718.45
705.23	16533.54
>>>>>End Processed Spectral Data<<<<<
