SpectraSuite Data File
++++++++++++++++++++++++++++++++++++
Date: Fri Oct 04 11:39:52 GMT-05:00 2013
User: price-jones
Dark Spectrum Present: No
Reference Spectrum Present: No
Number of Sampled Component Spectra: 1
Spectrometers: USB2+H05261
Integration Time (usec): 100000 (USB2+H05261)
Spectra Averaged: 1 (USB2+H05261)
Boxcar Smoothing: 0 (USB2+H05261)
Correct for Electrical Dark: No (USB2+H05261)
Strobe/Lamp Enabled: No (USB2+H05261)
Correct for Detector Non-linearity: No (USB2+H05261)
Correct for Stray Light: No (USB2+H05261)
Number of Pixels in Processed Spectrum: 2048
>>>>>Begin Processed Spectral Data<<<<<
365.73	46.81
365.92	46.81
366.12	46.81
366.32	0.00
366.52	0.00
366.72	0.00
366.91	0.00
367.11	0.00
367.31	0.00
367.51	0.00
367.70	0.00
367.90	14.04
368.10	0.00
368.30	0.00
368.49	0.00
368.69	28.09
368.89	0.00
369.09	0.00
369.28	0.00
369.48	0.00
369.68	0.00
369.87	0.00
370.07	0.00
370.27	51.49
370.47	0.00
370.66	35.11
370.86	53.83
371.06	124.05
371.25	49.15
371.45	124.05
371.65	91.28
371.84	32.77
372.04	77.24
372.24	86.60
372.44	114.69
372.63	114.69
372.83	163.84
373.03	119.37
373.22	84.26
373.42	46.81
373.62	112.35
373.81	131.07
374.01	147.45
374.21	84.26
374.40	77.24
374.60	187.24
374.79	152.13
374.99	110.01
375.19	138.09
375.38	131.07
375.58	107.66
375.78	180.22
375.97	163.84
376.17	266.82
376.37	135.75
376.56	184.90
376.76	110.01
376.95	142.77
377.15	72.56
377.35	149.79
377.54	131.07
377.74	65.54
377.93	46.81
378.13	126.39
378.33	100.64
378.52	117.03
378.72	196.60
378.91	154.48
379.11	147.45
379.31	173.20
379.50	46.81
379.70	128.73
379.89	156.82
380.09	72.56
380.28	95.96
380.48	65.54
380.68	107.66
380.87	63.19
381.07	128.73
381.26	126.39
381.46	91.28
381.65	88.94
381.85	72.56
382.04	107.66
382.24	128.73
382.43	58.51
382.63	102.98
382.83	142.77
383.02	156.82
383.22	182.56
383.41	198.95
383.61	16.38
383.80	44.47
384.00	147.45
384.19	107.66
384.39	107.66
384.58	93.62
384.78	124.05
384.97	147.45
385.17	149.79
385.36	98.30
385.56	142.77
385.75	35.11
385.95	119.37
386.14	175.54
386.34	77.24
386.53	77.24
386.72	138.09
386.92	147.45
387.11	107.66
387.31	9.36
387.50	112.35
387.70	140.43
387.89	133.41
388.09	105.32
388.28	49.15
388.48	81.92
388.67	154.48
388.86	112.35
389.06	117.03
389.25	133.41
389.45	91.28
389.64	63.19
389.84	173.20
390.03	154.48
390.22	156.82
390.42	67.88
390.61	56.17
390.81	100.64
391.00	140.43
391.19	161.50
391.39	168.52
391.58	168.52
391.78	161.50
391.97	131.07
392.16	56.17
392.36	131.07
392.55	126.39
392.75	77.24
392.94	126.39
393.13	121.71
393.33	112.35
393.52	112.35
393.71	126.39
393.91	107.66
394.10	175.54
394.29	91.28
394.49	152.13
394.68	128.73
394.88	107.66
395.07	110.01
395.26	86.60
395.46	152.13
395.65	210.65
395.84	91.28
396.04	168.52
396.23	110.01
396.42	133.41
396.62	166.18
396.81	159.16
397.00	145.11
397.19	149.79
397.39	128.73
397.58	149.79
397.77	124.05
397.97	131.07
398.16	135.75
398.35	126.39
398.55	145.11
398.74	131.07
398.93	166.18
399.12	140.43
399.32	154.48
399.51	166.18
399.70	147.45
399.90	140.43
400.09	180.22
400.28	102.98
400.47	163.84
400.67	67.88
400.86	135.75
401.05	95.96
401.24	138.09
401.44	121.71
401.63	180.22
401.82	128.73
402.01	163.84
402.21	159.16
402.40	149.79
402.59	166.18
402.78	79.58
402.97	194.26
403.17	131.07
403.36	156.82
403.55	100.64
403.74	182.56
403.93	259.80
404.13	262.14
404.32	231.71
404.51	257.46
404.70	280.86
404.89	142.77
405.09	100.64
405.28	159.16
405.47	147.45
405.66	152.13
405.85	231.71
406.05	140.43
406.24	145.11
406.43	70.22
406.62	217.67
406.81	182.56
407.00	128.73
407.20	224.69
407.39	142.77
407.58	180.22
407.77	203.63
407.96	180.22
408.15	252.78
408.34	133.41
408.54	168.52
408.73	189.58
408.92	173.20
409.11	163.84
409.30	229.37
409.49	189.58
409.68	184.90
409.87	236.39
410.07	86.60
410.26	189.58
410.45	175.54
410.64	112.35
410.83	159.16
411.02	102.98
411.21	168.52
411.40	154.48
411.59	203.63
411.78	222.35
411.98	159.16
412.17	154.48
412.36	142.77
412.55	191.92
412.74	248.10
412.93	264.48
413.12	201.29
413.31	210.65
413.50	257.46
413.69	173.20
413.88	322.99
414.07	243.42
414.26	170.86
414.45	168.52
414.64	208.31
414.83	194.26
415.02	259.80
415.22	194.26
415.41	229.37
415.60	177.88
415.79	152.13
415.98	278.52
416.17	311.29
416.36	248.10
416.55	287.89
416.74	212.99
416.93	269.16
417.12	264.48
417.31	212.99
417.50	196.60
417.69	304.27
417.88	238.73
418.07	252.78
418.26	217.67
418.45	299.59
418.64	287.89
418.83	220.01
419.02	217.67
419.21	266.82
419.39	217.67
419.58	215.33
419.77	170.86
419.96	280.86
420.15	280.86
420.34	205.97
420.53	229.37
420.72	273.84
420.91	276.18
421.10	245.76
421.29	250.44
421.48	238.73
421.67	224.69
421.86	313.63
422.05	212.99
422.24	320.65
422.43	227.03
422.61	245.76
422.80	243.42
422.99	231.71
423.18	227.03
423.37	241.08
423.56	212.99
423.75	262.14
423.94	266.82
424.13	194.26
424.32	210.65
424.50	271.50
424.69	180.22
424.88	292.57
425.07	245.76
425.26	299.59
425.45	222.35
425.64	215.33
425.83	166.18
426.01	276.18
426.20	224.69
426.39	243.42
426.58	217.67
426.77	201.29
426.96	227.03
427.15	161.50
427.33	248.10
427.52	210.65
427.71	220.01
427.90	257.46
428.09	210.65
428.28	234.05
428.46	220.01
428.65	290.23
428.84	283.20
429.03	243.42
429.22	191.92
429.40	266.82
429.59	308.95
429.78	301.93
429.97	264.48
430.16	259.80
430.34	276.18
430.53	173.20
430.72	278.52
430.91	313.63
431.10	285.55
431.28	250.44
431.47	278.52
431.66	372.15
431.85	262.14
432.03	255.12
432.22	290.23
432.41	285.55
432.60	348.74
432.79	273.84
432.97	259.80
433.16	294.91
433.35	248.10
433.54	271.50
433.72	280.86
433.91	322.99
434.10	257.46
434.28	344.06
434.47	283.20
434.66	337.04
434.85	320.65
435.03	433.00
435.22	723.23
435.41	1088.35
435.59	1090.69
435.78	781.74
435.97	496.19
436.16	472.79
436.34	264.48
436.53	205.97
436.72	262.14
436.90	339.38
437.09	351.08
437.28	348.74
437.46	341.72
437.65	276.18
437.84	348.74
438.02	383.85
438.21	280.86
438.40	381.51
438.58	294.91
438.77	325.33
438.96	313.63
439.14	322.99
439.33	402.57
439.52	280.86
439.70	311.29
439.89	306.61
440.08	299.59
440.26	358.10
440.45	297.25
440.63	290.23
440.82	248.10
441.01	346.40
441.19	250.44
441.38	348.74
441.57	355.76
441.75	362.78
441.94	369.80
442.12	374.49
442.31	266.82
442.50	348.74
442.68	353.42
442.87	397.89
443.05	320.65
443.24	374.49
443.43	355.76
443.61	411.93
443.80	414.27
443.98	287.89
444.17	320.65
444.35	308.95
444.54	388.53
444.73	449.38
444.91	386.19
445.10	287.89
445.28	301.93
445.47	322.99
445.65	353.42
445.84	330.02
446.02	367.46
446.21	287.89
446.39	330.02
446.58	372.15
446.77	367.46
446.95	320.65
447.14	353.42
447.32	381.51
447.51	386.19
447.69	346.40
447.88	337.04
448.06	355.76
448.25	313.63
448.43	348.74
448.62	418.96
448.80	339.38
448.99	369.80
449.17	318.31
449.36	372.15
449.54	313.63
449.73	376.83
449.91	404.91
450.10	320.65
450.28	374.49
450.46	397.89
450.65	341.72
450.83	332.36
451.02	383.85
451.20	395.55
451.39	369.80
451.57	327.68
451.76	381.51
451.94	348.74
452.13	400.23
452.31	397.89
452.49	404.91
452.68	299.59
452.86	341.72
453.05	423.64
453.23	400.23
453.42	341.72
453.60	456.40
453.78	367.46
453.97	339.38
454.15	369.80
454.34	362.78
454.52	358.10
454.70	550.03
454.89	411.93
455.07	383.85
455.26	409.59
455.44	381.51
455.62	430.66
455.81	400.23
455.99	365.12
456.17	358.10
456.36	358.10
456.54	322.99
456.73	423.64
456.91	400.23
457.09	463.43
457.28	402.57
457.46	425.98
457.64	409.59
457.83	355.76
458.01	411.93
458.19	390.87
458.38	327.68
458.56	430.66
458.74	322.99
458.93	411.93
459.11	337.04
459.29	461.09
459.48	418.96
459.66	566.41
459.84	440.02
460.03	484.49
460.21	442.36
460.39	376.83
460.57	447.04
460.76	365.12
460.94	414.27
461.12	442.36
461.31	479.81
461.49	461.09
461.67	458.74
461.85	383.85
462.04	327.68
462.22	828.55
462.40	444.70
462.59	477.47
462.77	440.02
462.95	451.72
463.13	428.32
463.32	351.08
463.50	433.00
463.68	425.98
463.86	393.21
464.05	456.40
464.23	418.96
464.41	425.98
464.59	435.34
464.78	491.51
464.96	421.30
465.14	470.45
465.32	447.04
465.50	437.68
465.69	433.00
465.87	414.27
466.05	512.58
466.23	407.25
466.41	425.98
466.60	468.11
466.78	503.22
466.96	468.11
467.14	402.57
467.32	458.74
467.51	402.57
467.69	409.59
467.87	402.57
468.05	421.30
468.23	472.79
468.41	435.34
468.60	374.49
468.78	470.45
468.96	449.38
469.14	526.62
469.32	437.68
469.50	475.13
469.69	468.11
469.87	442.36
470.05	463.43
470.23	454.06
470.41	491.51
470.59	491.51
470.77	451.72
470.95	390.87
471.14	496.19
471.32	475.13
471.50	517.26
471.68	442.36
471.86	489.17
472.04	482.15
472.22	552.37
472.40	503.22
472.58	407.25
472.77	428.32
472.95	489.17
473.13	512.58
473.31	561.73
473.49	458.74
473.67	463.43
473.85	528.96
474.03	482.15
474.21	552.37
474.39	435.34
474.57	519.60
474.75	564.07
474.93	468.11
475.12	470.45
475.30	512.58
475.48	493.85
475.66	496.19
475.84	418.96
476.02	589.82
476.20	496.19
476.38	519.60
476.56	634.29
476.74	545.34
476.92	521.94
477.10	550.03
477.28	552.37
477.46	554.71
477.64	554.71
477.82	482.15
478.00	622.58
478.18	587.47
478.36	585.13
478.54	596.84
478.72	603.86
478.90	538.32
479.08	606.20
479.26	540.66
479.44	547.69
479.62	561.73
479.80	624.92
479.98	547.69
480.16	559.39
480.34	657.69
480.52	514.92
480.70	540.66
480.88	594.50
481.06	615.56
481.24	568.75
481.41	559.39
481.59	592.16
481.77	580.45
481.95	519.60
482.13	615.56
482.31	566.41
482.49	561.73
482.67	636.63
482.85	702.16
483.03	748.97
483.21	683.44
483.39	685.78
483.57	737.27
483.74	793.44
483.92	631.94
484.10	629.60
484.28	781.74
484.46	779.40
484.64	723.23
484.82	685.78
485.00	734.93
485.18	737.27
485.35	753.65
485.53	683.44
485.71	781.74
485.89	781.74
486.07	772.38
486.25	863.66
486.43	730.25
486.61	901.11
486.78	858.98
486.96	753.65
487.14	833.23
487.32	777.06
487.50	814.51
487.68	889.40
487.85	793.44
488.03	884.72
488.21	774.72
488.39	772.38
488.57	917.49
488.75	851.96
488.92	1062.60
489.10	901.11
489.28	912.81
489.46	884.72
489.64	894.08
489.81	894.08
489.99	905.79
490.17	896.43
490.35	870.68
490.53	887.06
490.70	908.13
490.88	840.25
491.06	898.77
491.24	807.48
491.41	919.83
491.59	926.85
491.77	849.61
491.95	812.17
492.13	856.64
492.30	961.96
492.48	842.59
492.66	926.85
492.84	882.38
493.01	915.15
493.19	861.32
493.37	999.41
493.54	926.85
493.72	858.98
493.90	950.26
494.08	997.07
494.25	945.58
494.43	856.64
494.61	926.85
494.79	894.08
494.96	873.02
495.14	931.53
495.32	950.26
495.49	943.24
495.67	978.34
495.85	945.58
496.02	980.68
496.20	1008.77
496.38	1008.77
496.55	917.49
496.73	971.32
496.91	1027.50
497.09	1006.43
497.26	957.28
497.44	950.26
497.62	1001.75
497.79	1011.11
497.97	912.81
498.14	1076.65
498.32	1029.84
498.50	976.00
498.67	1001.75
498.85	1069.62
499.03	983.02
499.20	1027.50
499.38	1001.75
499.56	1060.26
499.73	1158.57
499.91	1102.39
500.08	1090.69
500.26	1074.31
500.44	938.55
500.61	1036.86
500.79	1034.52
500.97	926.85
501.14	1032.18
501.32	1034.52
501.49	1083.67
501.67	1053.24
501.84	1039.20
502.02	985.37
502.20	1071.97
502.37	1121.12
502.55	1015.79
502.72	938.55
502.90	1062.60
503.07	1107.07
503.25	1013.45
503.43	957.28
503.60	1069.62
503.78	1060.26
503.95	1095.37
504.13	1076.65
504.30	1088.35
504.48	1130.48
504.65	1125.80
504.83	1090.69
505.01	1039.20
505.18	1015.79
505.36	1029.84
505.53	1067.28
505.71	1100.05
505.88	1125.80
506.06	1053.24
506.23	1116.44
506.41	1067.28
506.58	1083.67
506.76	1102.39
506.93	1039.20
507.11	1053.24
507.28	1109.41
507.46	1128.14
507.63	1132.82
507.81	1104.73
507.98	1057.92
508.16	1121.12
508.33	1132.82
508.50	1207.72
508.68	1137.50
508.85	1149.20
509.03	1153.88
509.20	1160.91
509.38	1235.80
509.55	1135.16
509.73	1100.05
509.90	1188.99
510.08	1184.31
510.25	1172.61
510.42	1125.80
510.60	1132.82
510.77	1125.80
510.95	1212.40
511.12	1078.99
511.30	1240.48
511.47	1238.14
511.64	1280.27
511.82	1210.06
511.99	1221.76
512.17	1198.35
512.34	1151.54
512.51	1196.01
512.69	1153.88
512.86	1245.16
513.04	1235.80
513.21	1268.57
513.38	1242.82
513.56	1165.59
513.73	1170.27
513.90	1207.72
514.08	1184.31
514.25	1172.61
514.43	1177.29
514.60	1219.42
514.77	1179.63
514.95	1263.89
515.12	1205.38
515.29	1275.59
515.47	1242.82
515.64	1203.04
515.81	1200.69
515.99	1338.79
516.16	1233.46
516.33	1226.44
516.51	1207.72
516.68	1270.91
516.85	1139.84
517.03	1200.69
517.20	1366.87
517.37	1210.06
517.54	1383.26
517.72	1336.45
517.89	1196.01
518.06	1135.16
518.24	1249.85
518.41	1315.38
518.58	1329.42
518.75	1259.21
518.93	1369.21
519.10	1387.94
519.27	1362.19
519.45	1228.78
519.62	1284.95
519.79	1308.36
519.96	1296.66
520.14	1331.76
520.31	1345.81
520.48	1299.00
520.65	1345.81
520.83	1282.61
521.00	1315.38
521.17	1245.16
521.34	1224.10
521.52	1413.68
521.69	1334.11
521.86	1350.49
522.03	1341.13
522.20	1313.04
522.38	1378.58
522.55	1303.68
522.72	1261.55
522.89	1261.55
523.07	1406.66
523.24	1376.24
523.41	1420.71
523.58	1334.11
523.75	1350.49
523.92	1317.72
524.10	1345.81
524.27	1322.40
524.44	1294.32
524.61	1380.92
524.78	1310.70
524.96	1394.96
525.13	1313.04
525.30	1331.76
525.47	1376.24
525.64	1371.55
525.81	1392.62
525.98	1392.62
526.16	1341.13
526.33	1446.45
526.50	1366.87
526.67	1397.30
526.84	1394.96
527.01	1317.72
527.18	1444.11
527.36	1495.60
527.53	1401.98
527.70	1331.76
527.87	1460.49
528.04	1430.07
528.21	1404.32
528.38	1465.18
528.55	1404.32
528.72	1416.02
528.89	1502.62
529.07	1453.47
529.24	1462.83
529.41	1540.07
529.58	1476.88
529.75	1411.34
529.92	1376.24
530.09	1448.79
530.26	1528.37
530.43	1411.34
530.60	1507.30
530.77	1409.00
530.94	1441.77
531.11	1385.60
531.28	1519.01
531.46	1387.94
531.63	1371.55
531.80	1448.79
531.97	1453.47
532.14	1357.51
532.31	1472.20
532.48	1479.22
532.65	1526.03
532.82	1399.64
532.99	1390.28
533.16	1465.18
533.33	1537.73
533.50	1579.86
533.67	1387.94
533.84	1493.26
534.01	1516.67
534.18	1437.09
534.35	1507.30
534.52	1481.56
534.69	1657.10
534.86	1455.81
535.03	1460.49
535.20	1542.41
535.37	1507.30
535.54	1502.62
535.71	1483.90
535.88	1528.37
536.05	1619.65
536.22	1596.25
536.38	1446.45
536.55	1514.33
536.72	1610.29
536.89	1535.39
537.06	1558.80
537.23	1596.25
537.40	1638.38
537.57	1607.95
537.74	1668.80
537.91	1610.29
538.08	1706.25
538.25	1572.84
538.42	1614.97
538.59	1633.69
538.75	1577.52
538.92	1626.67
539.09	1657.10
539.26	1652.42
539.43	1760.08
539.60	1708.59
539.77	1715.61
539.94	1909.88
540.11	1944.99
540.28	2003.50
540.44	1811.57
540.61	2008.18
540.78	1947.33
540.95	2101.80
541.12	2204.78
541.29	2275.00
541.46	2267.98
541.62	2326.49
541.79	2282.02
541.96	2286.70
542.13	2284.36
542.30	2293.72
542.47	2321.81
542.63	2291.38
542.80	2195.42
542.97	2275.00
543.14	2242.23
543.31	2293.72
543.48	2244.57
543.64	2356.92
543.81	2223.51
543.98	2251.60
544.15	2183.72
544.32	2256.28
544.48	2228.19
544.65	2047.97
544.82	2251.60
544.99	2172.02
545.16	2237.55
545.32	2193.08
545.49	2700.98
545.66	3281.43
545.83	3789.33
546.00	3648.90
546.16	2953.76
546.33	2448.20
546.50	2136.91
546.67	2120.53
546.83	2047.97
547.00	2071.37
547.17	1914.56
547.34	1982.43
547.50	1947.33
547.67	1963.71
547.84	1984.77
548.00	1921.58
548.17	1937.96
548.34	1802.21
548.51	1944.99
548.67	1937.96
548.84	1898.17
549.01	1860.73
549.18	1898.17
549.34	1921.58
549.51	1834.98
549.68	1959.03
549.84	1774.13
550.01	1874.77
550.18	1926.26
550.34	1832.64
550.51	1743.70
550.68	1799.87
550.84	1689.87
551.01	1795.19
551.18	1797.53
551.34	1696.89
551.51	1764.76
551.68	1703.91
551.84	1771.79
552.01	1614.97
552.18	1682.85
552.34	1713.27
552.51	1713.27
552.68	1781.15
552.84	1708.59
553.01	1694.55
553.18	1699.23
553.34	1661.78
553.51	1619.65
553.67	1610.29
553.84	1703.91
554.01	1626.67
554.17	1750.72
554.34	1619.65
554.51	1706.25
554.67	1729.66
554.84	1671.14
555.00	1727.32
555.17	1689.87
555.33	1729.66
555.50	1605.61
555.67	1621.99
555.83	1600.93
556.00	1577.52
556.16	1762.42
556.33	1713.27
556.50	1699.23
556.66	1575.18
556.83	1619.65
556.99	1572.84
557.16	1591.56
557.32	1584.54
557.49	1488.58
557.65	1659.44
557.82	1671.14
557.98	1607.95
558.15	1629.01
558.32	1523.69
558.48	1624.33
558.65	1624.33
558.81	1528.37
558.98	1549.43
559.14	1586.88
559.31	1703.91
559.47	1600.93
559.64	1523.69
559.80	1650.08
559.97	1584.54
560.13	1643.06
560.30	1596.25
560.46	1589.22
560.63	1516.67
560.79	1490.92
560.96	1593.90
561.12	1535.39
561.29	1612.63
561.45	1530.71
561.61	1582.20
561.78	1657.10
561.94	1664.12
562.11	1540.07
562.27	1591.56
562.44	1657.10
562.60	1577.52
562.77	1598.59
562.93	1600.93
563.10	1610.29
563.26	1680.50
563.42	1687.53
563.59	1685.19
563.75	1624.33
563.92	1633.69
564.08	1582.20
564.24	1706.25
564.41	1659.44
564.57	1645.40
564.74	1675.82
564.90	1610.29
565.07	1657.10
565.23	1706.25
565.39	1556.46
565.56	1664.12
565.72	1547.09
565.88	1584.54
566.05	1558.80
566.21	1607.95
566.38	1554.12
566.54	1645.40
566.70	1636.03
566.87	1666.46
567.03	1603.27
567.19	1621.99
567.36	1607.95
567.52	1563.48
567.68	1575.18
567.85	1544.75
568.01	1558.80
568.17	1563.48
568.34	1591.56
568.50	1685.19
568.66	1570.50
568.83	1806.89
568.99	1568.16
569.15	1636.03
569.32	1647.74
569.48	1556.46
569.64	1631.35
569.81	1575.18
569.97	1600.93
570.13	1638.38
570.30	1610.29
570.46	1570.50
570.62	1575.18
570.78	1633.69
570.95	1607.95
571.11	1584.54
571.27	1687.53
571.43	1600.93
571.60	1640.72
571.76	1668.80
571.92	1619.65
572.09	1586.88
572.25	1577.52
572.41	1540.07
572.57	1680.50
572.74	1607.95
572.90	1710.93
573.06	1706.25
573.22	1596.25
573.38	1619.65
573.55	1636.03
573.71	1614.97
573.87	1598.59
574.03	1640.72
574.20	1645.40
574.36	1533.05
574.52	1579.86
574.68	1495.60
574.84	1715.61
575.01	1584.54
575.17	1612.63
575.33	1598.59
575.49	1624.33
575.65	1708.59
575.82	1687.53
575.98	1710.93
576.14	1682.85
576.30	1748.38
576.46	1832.64
576.62	1977.75
576.79	2054.99
576.95	1905.20
577.11	1806.89
577.27	1820.94
577.43	1750.72
577.59	1586.88
577.75	1664.12
577.92	1488.58
578.08	1521.35
578.24	1591.56
578.40	1739.02
578.56	1851.36
578.72	1942.64
578.88	2024.56
579.04	1952.01
579.21	1734.34
579.37	1678.16
579.53	1694.55
579.69	1666.46
579.85	1785.83
580.01	1797.53
580.17	1746.04
580.33	1699.23
580.49	1762.42
580.65	1809.23
580.82	1685.19
580.98	1633.69
581.14	1743.70
581.30	1760.08
581.46	1732.00
581.62	1706.25
581.78	1636.03
581.94	1720.29
582.10	1762.42
582.26	1748.38
582.42	1689.87
582.58	1813.92
582.74	1767.10
582.90	1827.96
583.06	1809.23
583.22	1767.10
583.38	1764.76
583.54	1832.64
583.70	1762.42
583.86	1720.29
584.02	1849.02
584.18	1753.06
584.34	1760.08
584.50	1710.93
584.66	1664.12
584.82	1750.72
584.98	1760.08
585.14	1753.06
585.30	1746.04
585.46	1685.19
585.62	1680.50
585.78	1724.97
585.94	1785.83
586.10	1834.98
586.26	1743.70
586.42	1912.22
586.58	1891.15
586.74	1860.73
586.90	1879.45
587.06	1879.45
587.22	1872.43
587.38	1856.04
587.54	1865.41
587.70	1809.23
587.86	1844.34
588.02	1694.55
588.18	1785.83
588.34	1769.44
588.49	1643.06
588.65	1694.55
588.81	1673.48
588.97	1610.29
589.13	1743.70
589.29	1659.44
589.45	1706.25
589.61	1715.61
589.77	1736.68
589.93	1687.53
590.08	1703.91
590.24	1671.14
590.40	1713.27
590.56	1811.57
590.72	1701.57
590.88	1699.23
591.04	1769.44
591.20	1685.19
591.35	1792.85
591.51	1746.04
591.67	1785.83
591.83	1769.44
591.99	1680.50
592.15	1781.15
592.31	1820.94
592.46	1722.63
592.62	1872.43
592.78	1856.04
592.94	1834.98
593.10	1708.59
593.26	1776.47
593.41	1790.51
593.57	1675.82
593.73	1629.01
593.89	1706.25
594.05	1795.19
594.20	1748.38
594.36	1680.50
594.52	1678.16
594.68	1680.50
594.84	1708.59
594.99	1750.72
595.15	1600.93
595.31	1774.13
595.47	1675.82
595.62	1682.85
595.78	1626.67
595.94	1603.27
596.10	1568.16
596.25	1659.44
596.41	1668.80
596.57	1708.59
596.73	1769.44
596.88	1577.52
597.04	1633.69
597.20	1650.08
597.36	1827.96
597.51	1710.93
597.67	1645.40
597.83	1657.10
597.99	1661.78
598.14	1626.67
598.30	1633.69
598.46	1661.78
598.61	1699.23
598.77	1722.63
598.93	1650.08
599.09	1703.91
599.24	1764.76
599.40	1736.68
599.56	1736.68
599.71	1706.25
599.87	1762.42
600.03	1727.32
600.18	1600.93
600.34	1746.04
600.50	1593.90
600.65	1699.23
600.81	1664.12
600.97	1699.23
601.12	1664.12
601.28	1680.50
601.44	1680.50
601.59	1621.99
601.75	1561.14
601.91	1657.10
602.06	1713.27
602.22	1654.76
602.37	1633.69
602.53	1624.33
602.69	1727.32
602.84	1542.41
603.00	1598.59
603.16	1680.50
603.31	1575.18
603.47	1605.61
603.62	1607.95
603.78	1593.90
603.94	1633.69
604.09	1661.78
604.25	1689.87
604.40	1563.48
604.56	1657.10
604.71	1708.59
604.87	1575.18
605.03	1563.48
605.18	1708.59
605.34	1591.56
605.49	1488.58
605.65	1596.25
605.80	1607.95
605.96	1710.93
606.12	1643.06
606.27	1827.96
606.43	1617.31
606.58	1701.57
606.74	1612.63
606.89	1621.99
607.05	1699.23
607.20	1657.10
607.36	1614.97
607.51	1671.14
607.67	1645.40
607.82	1703.91
607.98	1727.32
608.13	1776.47
608.29	1792.85
608.44	1820.94
608.60	1743.70
608.75	1811.57
608.91	1708.59
609.06	1820.94
609.22	1830.30
609.37	1708.59
609.53	1923.92
609.68	2017.54
609.84	2001.16
609.99	2113.50
610.15	2218.83
610.30	2370.96
610.46	2497.35
610.61	2747.79
610.76	3225.26
610.92	3538.89
611.07	3667.62
611.23	3768.26
611.38	3559.95
611.54	3344.63
611.69	3040.36
611.84	2754.81
612.00	2572.25
612.15	2450.54
612.31	2331.17
612.46	2321.81
612.62	2134.57
612.77	2181.38
612.92	2174.36
613.08	2188.40
613.23	1956.69
613.39	2059.67
613.54	2008.18
613.69	2033.93
613.85	2001.16
614.00	1984.77
614.15	1952.01
614.31	1996.48
614.46	2139.25
614.62	1928.60
614.77	1970.73
614.92	1898.17
615.08	1874.77
615.23	1844.34
615.38	1804.55
615.54	1830.30
615.69	1785.83
615.84	1790.51
616.00	1750.72
616.15	1680.50
616.30	1614.97
616.46	1666.46
616.61	1732.00
616.76	1678.16
616.92	1647.74
617.07	1558.80
617.22	1739.02
617.37	1668.80
617.53	1645.40
617.68	1593.90
617.83	1715.61
617.99	1572.84
618.14	1626.67
618.29	1762.42
618.45	1666.46
618.60	1502.62
618.75	1575.18
618.90	1561.14
619.06	1575.18
619.21	1614.97
619.36	1631.35
619.51	1626.67
619.67	1659.44
619.82	1575.18
619.97	1675.82
620.12	1666.46
620.28	1540.07
620.43	1650.08
620.58	1626.67
620.73	1507.30
620.89	1680.50
621.04	1575.18
621.19	1727.32
621.34	1561.14
621.49	1530.71
621.65	1535.39
621.80	1577.52
621.95	1591.56
622.10	1661.78
622.25	1540.07
622.41	1514.33
622.56	1584.54
622.71	1722.63
622.86	1668.80
623.01	1593.90
623.16	1671.14
623.32	1624.33
623.47	1643.06
623.62	1528.37
623.77	1479.22
623.92	1579.86
624.07	1584.54
624.23	1682.85
624.38	1577.52
624.53	1598.59
624.68	1624.33
624.83	1647.74
624.98	1584.54
625.13	1460.49
625.29	1600.93
625.44	1605.61
625.59	1586.88
625.74	1596.25
625.89	1591.56
626.04	1453.47
626.19	1619.65
626.34	1460.49
626.49	1549.43
626.65	1509.65
626.80	1591.56
626.95	1577.52
627.10	1495.60
627.25	1596.25
627.40	1453.47
627.55	1502.62
627.70	1474.54
627.85	1516.67
628.00	1495.60
628.15	1504.96
628.30	1490.92
628.45	1455.81
628.60	1582.20
628.76	1584.54
628.91	1521.35
629.06	1547.09
629.21	1516.67
629.36	1598.59
629.51	1596.25
629.66	1591.56
629.81	1577.52
629.96	1542.41
630.11	1605.61
630.26	1591.56
630.41	1650.08
630.56	1724.97
630.71	1694.55
630.86	1722.63
631.01	1654.76
631.16	1643.06
631.31	1607.95
631.46	1619.65
631.61	1563.48
631.76	1561.14
631.91	1465.18
632.06	1537.73
632.21	1554.12
632.36	1474.54
632.51	1460.49
632.66	1404.32
632.81	1366.87
632.96	1460.49
633.10	1387.94
633.25	1420.71
633.40	1401.98
633.55	1409.00
633.70	1357.51
633.85	1364.53
634.00	1401.98
634.15	1416.02
634.30	1406.66
634.45	1462.83
634.60	1413.68
634.75	1338.79
634.90	1455.81
635.05	1441.77
635.19	1458.15
635.34	1427.73
635.49	1366.87
635.64	1373.89
635.79	1376.24
635.94	1357.51
636.09	1486.24
636.24	1359.85
636.39	1411.34
636.53	1476.88
636.68	1369.21
636.83	1383.26
636.98	1385.60
637.13	1420.71
637.28	1439.43
637.43	1479.22
637.57	1418.36
637.72	1481.56
637.87	1413.68
638.02	1446.45
638.17	1380.92
638.32	1446.45
638.46	1418.36
638.61	1551.78
638.76	1373.89
638.91	1404.32
639.06	1364.53
639.20	1526.03
639.35	1411.34
639.50	1369.21
639.65	1399.64
639.80	1275.59
639.94	1320.06
640.09	1455.81
640.24	1324.74
640.39	1357.51
640.54	1385.60
640.68	1394.96
640.83	1441.77
640.98	1341.13
641.13	1369.21
641.27	1469.86
641.42	1263.89
641.57	1291.98
641.72	1378.58
641.86	1369.21
642.01	1373.89
642.16	1350.49
642.31	1359.85
642.45	1554.12
642.60	1441.77
642.75	1268.57
642.90	1406.66
643.04	1357.51
643.19	1416.02
643.34	1303.68
643.48	1362.19
643.63	1362.19
643.78	1411.34
643.93	1413.68
644.07	1432.41
644.22	1434.75
644.37	1324.74
644.51	1289.64
644.66	1355.17
644.81	1327.08
644.95	1387.94
645.10	1343.47
645.25	1348.15
645.39	1509.65
645.54	1327.08
645.69	1453.47
645.83	1343.47
645.98	1366.87
646.13	1373.89
646.27	1371.55
646.42	1291.98
646.57	1320.06
646.71	1390.28
646.86	1378.58
647.00	1341.13
647.15	1409.00
647.30	1233.46
647.44	1341.13
647.59	1329.42
647.74	1336.45
647.88	1310.70
648.03	1341.13
648.17	1453.47
648.32	1268.57
648.47	1301.34
648.61	1411.34
648.76	1289.64
648.90	1362.19
649.05	1366.87
649.20	1308.36
649.34	1329.42
649.49	1259.21
649.63	1385.60
649.78	1390.28
649.92	1291.98
650.07	1383.26
650.21	1303.68
650.36	1406.66
650.51	1387.94
650.65	1409.00
650.80	1406.66
650.94	1376.24
651.09	1327.08
651.23	1343.47
651.38	1350.49
651.52	1369.21
651.67	1294.32
651.81	1317.72
651.96	1327.08
652.10	1366.87
652.25	1336.45
652.39	1254.53
652.54	1338.79
652.68	1355.17
652.83	1277.93
652.97	1277.93
653.12	1401.98
653.26	1355.17
653.41	1366.87
653.55	1315.38
653.70	1275.59
653.84	1376.24
653.99	1334.11
654.13	1303.68
654.27	1296.66
654.42	1254.53
654.56	1352.83
654.71	1383.26
654.85	1350.49
655.00	1256.87
655.14	1324.74
655.29	1224.10
655.43	1310.70
655.57	1217.08
655.72	1210.06
655.86	1282.61
656.01	1291.98
656.15	1247.51
656.30	1282.61
656.44	1261.55
656.58	1294.32
656.73	1280.27
656.87	1188.99
657.01	1193.67
657.16	1296.66
657.30	1331.76
657.45	1343.47
657.59	1306.02
657.73	1287.29
657.88	1317.72
658.02	1249.85
658.16	1317.72
658.31	1205.38
658.45	1270.91
658.60	1284.95
658.74	1191.33
658.88	1345.81
659.03	1291.98
659.17	1249.85
659.31	1277.93
659.46	1306.02
659.60	1299.00
659.74	1210.06
659.89	1217.08
660.03	1284.95
660.17	1198.35
660.32	1275.59
660.46	1273.25
660.60	1313.04
660.74	1357.51
660.89	1268.57
661.03	1219.42
661.17	1329.42
661.32	1263.89
661.46	1280.27
661.60	1172.61
661.74	1256.87
661.89	1261.55
662.03	1228.78
662.17	1228.78
662.31	1280.27
662.46	1235.80
662.60	1231.12
662.74	1158.57
662.88	1217.08
663.03	1334.11
663.17	1137.50
663.31	1210.06
663.45	1128.14
663.60	1249.85
663.74	1200.69
663.88	1268.57
664.02	1188.99
664.17	1296.66
664.31	1200.69
664.45	1116.44
664.59	1200.69
664.73	1224.10
664.88	1181.97
665.02	1235.80
665.16	1259.21
665.30	1280.27
665.44	1203.04
665.59	1228.78
665.73	1231.12
665.87	1277.93
666.01	1231.12
666.15	1149.20
666.29	1158.57
666.44	1210.06
666.58	1146.86
666.72	1249.85
666.86	1128.14
667.00	1196.01
667.14	1242.82
667.28	1149.20
667.43	1149.20
667.57	1153.88
667.71	1261.55
667.85	1221.76
667.99	1179.63
668.13	1205.38
668.27	1172.61
668.41	1205.38
668.56	1188.99
668.70	1233.46
668.84	1146.86
668.98	1125.80
669.12	1146.86
669.26	1128.14
669.40	1226.44
669.54	1214.74
669.68	1132.82
669.82	1149.20
669.96	1130.48
670.10	1156.22
670.25	1174.95
670.39	1212.40
670.53	1083.67
670.67	1128.14
670.81	1083.67
670.95	1078.99
671.09	1153.88
671.23	1240.48
671.37	1053.24
671.51	1100.05
671.65	1137.50
671.79	1128.14
671.93	1123.46
672.07	1139.84
672.21	1158.57
672.35	1076.65
672.49	1135.16
672.63	1114.10
672.77	1088.35
672.91	1025.15
673.05	1198.35
673.19	1081.33
673.33	1022.81
673.47	1163.25
673.61	1151.54
673.75	1078.99
673.89	1139.84
674.03	1132.82
674.17	1081.33
674.31	1144.52
674.45	1095.37
674.59	1060.26
674.73	1067.28
674.87	1086.01
675.01	1132.82
675.15	1097.71
675.29	1039.20
675.43	1046.22
675.56	1069.62
675.70	1088.35
675.84	1036.86
675.98	1039.20
676.12	1069.62
676.26	1074.31
676.40	1034.52
676.54	1062.60
676.68	1111.75
676.82	1095.37
676.96	1064.94
677.10	1043.88
677.23	1081.33
677.37	1004.09
677.51	1034.52
677.65	1097.71
677.79	1097.71
677.93	1018.13
678.07	1078.99
678.21	1008.77
678.34	1050.90
678.48	976.00
678.62	973.66
678.76	1039.20
678.90	997.07
679.04	1034.52
679.18	997.07
679.31	990.05
679.45	1015.79
679.59	1062.60
679.73	1029.84
679.87	966.64
680.00	959.62
680.14	1071.97
680.28	1083.67
680.42	912.81
680.56	1008.77
680.70	887.06
680.83	1027.50
680.97	936.21
681.11	992.39
681.25	1046.22
681.39	1001.75
681.52	875.36
681.66	968.98
681.80	929.19
681.94	891.74
682.07	954.94
682.21	976.00
682.35	971.32
682.49	950.26
682.62	954.94
682.76	877.70
682.90	891.74
683.04	924.51
683.17	959.62
683.31	938.55
683.45	1004.09
683.59	1008.77
683.72	929.19
683.86	976.00
684.00	978.34
684.13	1050.90
684.27	903.45
684.41	880.04
684.55	922.17
684.68	866.00
684.82	891.74
684.96	976.00
685.09	877.70
685.23	875.36
685.37	936.21
685.50	922.17
685.64	973.66
685.78	819.19
685.91	849.61
686.05	823.87
686.19	884.72
686.32	980.68
686.46	816.85
686.60	901.11
686.73	856.64
686.87	901.11
687.01	868.34
687.14	858.98
687.28	849.61
687.42	915.15
687.55	840.25
687.69	880.04
687.82	968.98
687.96	847.27
688.10	847.27
688.23	849.61
688.37	873.02
688.50	873.02
688.64	795.78
688.78	734.93
688.91	793.44
689.05	828.55
689.18	730.25
689.32	772.38
689.46	788.76
689.59	844.93
689.73	758.33
689.86	816.85
690.00	821.53
690.13	753.65
690.27	809.83
690.41	807.48
690.54	758.33
690.68	791.10
690.81	774.72
690.95	779.40
691.08	816.85
691.22	779.40
691.35	784.08
691.49	777.06
691.62	772.38
691.76	746.63
691.89	774.72
692.03	711.52
692.16	823.87
692.30	699.82
692.43	760.67
692.57	767.70
692.70	695.14
692.84	758.33
692.97	788.76
693.11	777.06
693.24	807.48
693.38	751.31
693.51	795.78
693.65	772.38
693.78	755.99
693.92	753.65
694.05	723.23
694.19	662.37
694.32	741.95
694.45	727.91
694.59	653.01
694.72	645.99
694.86	763.01
694.99	692.80
695.13	645.99
695.26	636.63
695.39	781.74
695.53	763.01
695.66	720.88
695.80	690.46
695.93	657.69
696.07	601.52
696.20	713.86
696.33	662.37
696.47	713.86
696.60	695.14
696.73	671.73
696.87	674.07
697.00	702.16
697.14	713.86
697.27	631.94
697.40	741.95
697.54	683.44
697.67	688.12
697.80	706.84
697.94	730.25
698.07	634.29
698.21	674.07
698.34	678.76
698.47	603.86
698.61	634.29
698.74	671.73
698.87	641.31
699.01	624.92
699.14	601.52
699.27	690.46
699.40	734.93
699.54	587.47
699.67	629.60
699.80	610.88
699.94	599.18
700.07	550.03
700.20	608.54
700.34	627.26
700.47	603.86
700.60	552.37
700.73	678.76
700.87	664.71
701.00	564.07
701.13	557.05
701.26	521.94
701.40	624.92
701.53	585.13
701.66	592.16
701.79	578.11
701.93	533.64
702.06	638.97
702.19	631.94
702.32	629.60
702.46	533.64
702.59	613.22
702.72	517.26
702.85	559.39
702.99	596.84
703.12	493.85
703.25	557.05
703.38	514.92
703.51	568.75
703.65	566.41
703.78	674.07
703.91	561.73
704.04	592.16
704.17	566.41
704.31	601.52
704.44	594.50
704.57	491.51
704.70	484.49
704.83	475.13
704.96	545.34
705.10	524.28
705.23	599.18
>>>>>End Processed Spectral Data<<<<<
