SpectraSuite Data File
++++++++++++++++++++++++++++++++++++
Date: Fri Oct 04 11:39:18 GMT-05:00 2013
User: price-jones
Dark Spectrum Present: No
Reference Spectrum Present: No
Number of Sampled Component Spectra: 1
Spectrometers: USB2+H05261
Integration Time (usec): 100000 (USB2+H05261)
Spectra Averaged: 1 (USB2+H05261)
Boxcar Smoothing: 0 (USB2+H05261)
Correct for Electrical Dark: No (USB2+H05261)
Strobe/Lamp Enabled: No (USB2+H05261)
Correct for Detector Non-linearity: No (USB2+H05261)
Correct for Stray Light: No (USB2+H05261)
Number of Pixels in Processed Spectrum: 2048
>>>>>Begin Processed Spectral Data<<<<<
365.73	0.00
365.92	0.00
366.12	0.00
366.32	0.00
366.52	0.00
366.72	0.00
366.91	0.00
367.11	0.00
367.31	0.00
367.51	0.00
367.70	0.00
367.90	14.04
368.10	0.00
368.30	0.00
368.49	0.00
368.69	0.00
368.89	0.00
369.09	0.00
369.28	0.00
369.48	0.00
369.68	0.00
369.87	0.00
370.07	28.09
370.27	124.05
370.47	72.56
370.66	196.60
370.86	222.35
371.06	245.76
371.25	224.69
371.45	198.95
371.65	320.65
371.84	250.44
372.04	304.27
372.24	353.42
372.44	353.42
372.63	266.82
372.83	388.53
373.03	299.59
373.22	348.74
373.42	290.23
373.62	402.57
373.81	411.93
374.01	395.55
374.21	388.53
374.40	351.08
374.60	327.68
374.79	353.42
374.99	360.44
375.19	404.91
375.38	425.98
375.58	393.21
375.78	395.55
375.97	430.66
376.17	442.36
376.37	425.98
376.56	437.68
376.76	395.55
376.95	374.49
377.15	369.80
377.35	430.66
377.54	386.19
377.74	404.91
377.93	400.23
378.13	437.68
378.33	447.04
378.52	362.78
378.72	409.59
378.91	454.06
379.11	430.66
379.31	437.68
379.50	451.72
379.70	571.09
379.89	547.69
380.09	451.72
380.28	440.02
380.48	402.57
380.68	468.11
380.87	489.17
381.07	447.04
381.26	491.51
381.46	463.43
381.65	557.05
381.85	444.70
382.04	414.27
382.24	423.64
382.43	444.70
382.63	484.49
382.83	519.60
383.02	491.51
383.22	486.83
383.41	418.96
383.61	470.45
383.80	587.47
384.00	491.51
384.19	503.22
384.39	493.85
384.58	566.41
384.78	521.94
384.97	535.98
385.17	610.88
385.36	498.53
385.56	482.15
385.75	510.24
385.95	564.07
386.14	622.58
386.34	617.90
386.53	582.79
386.72	587.47
386.92	617.90
387.11	514.92
387.31	510.24
387.50	589.82
387.70	550.03
387.89	622.58
388.09	650.67
388.28	676.41
388.48	697.48
388.67	580.45
388.86	582.79
389.06	624.92
389.25	674.07
389.45	692.80
389.64	664.71
389.84	699.82
390.03	674.07
390.22	730.25
390.42	603.86
390.61	648.33
390.81	634.29
391.00	716.20
391.19	624.92
391.39	596.84
391.58	688.12
391.78	685.78
391.97	739.61
392.16	653.01
392.36	727.91
392.55	786.42
392.75	814.51
392.94	763.01
393.13	779.40
393.33	755.99
393.52	725.57
393.71	723.23
393.91	737.27
394.10	739.61
394.29	807.48
394.49	802.80
394.68	770.04
394.88	718.54
395.07	844.93
395.26	805.14
395.46	826.21
395.65	786.42
395.84	816.85
396.04	968.98
396.23	840.25
396.42	835.57
396.62	903.45
396.81	999.41
397.00	964.30
397.19	957.28
397.39	931.53
397.58	968.98
397.77	983.02
397.97	891.74
398.16	912.81
398.35	901.11
398.55	1001.75
398.74	945.58
398.93	943.24
399.12	971.32
399.32	992.39
399.51	961.96
399.70	1071.97
399.90	1018.13
400.09	999.41
400.28	1041.54
400.47	1172.61
400.67	1116.44
400.86	1022.81
401.05	1111.75
401.24	1104.73
401.44	1226.44
401.63	1074.31
401.82	1177.29
402.01	1128.14
402.21	1144.52
402.40	1203.04
402.59	1193.67
402.78	1177.29
402.97	1114.10
403.17	1146.86
403.36	1186.65
403.55	1233.46
403.74	1329.42
403.93	1203.04
404.13	1345.81
404.32	1331.76
404.51	1310.70
404.70	1310.70
404.89	1366.87
405.09	1411.34
405.28	1350.49
405.47	1331.76
405.66	1406.66
405.85	1430.07
406.05	1469.86
406.24	1486.24
406.43	1486.24
406.62	1451.13
406.81	1526.03
407.00	1465.18
407.20	1385.60
407.39	1483.90
407.58	1528.37
407.77	1535.39
407.96	1687.53
408.15	1582.20
408.34	1563.48
408.54	1591.56
408.73	1727.32
408.92	1657.10
409.11	1668.80
409.30	1607.95
409.49	1636.03
409.68	1668.80
409.87	1746.04
410.07	1811.57
410.26	1720.29
410.45	1767.10
410.64	1788.17
410.83	1818.60
411.02	1823.28
411.21	1809.23
411.40	1921.58
411.59	1820.94
411.78	1813.92
411.98	1982.43
412.17	1863.07
412.36	2022.22
412.55	2036.27
412.74	2050.31
412.93	2047.97
413.12	1954.35
413.31	2052.65
413.50	2057.33
413.69	2122.87
413.88	2146.27
414.07	2143.93
414.26	2221.17
414.45	2076.06
414.64	2150.95
414.83	2333.51
415.02	2272.66
415.22	2380.32
415.41	2424.80
415.60	2387.35
415.79	2450.54
415.98	2394.37
416.17	2347.56
416.36	2401.39
416.55	2457.56
416.74	2544.16
416.93	2541.82
417.12	2527.78
417.31	2595.65
417.50	2562.89
417.69	2656.51
417.88	2705.66
418.07	2572.25
418.26	2670.55
418.45	2649.49
418.64	2818.00
418.83	2806.30
419.02	2668.21
419.21	2759.49
419.39	2810.98
419.58	2801.62
419.77	2736.09
419.96	3007.59
420.15	2920.99
420.34	2920.99
420.53	2965.46
420.72	2956.10
420.91	3000.57
421.10	3012.27
421.29	3075.46
421.48	2920.99
421.67	3066.10
421.86	2909.29
422.05	3000.57
422.24	3035.67
422.43	3068.44
422.61	3084.83
422.80	2991.20
422.99	3119.93
423.18	3073.12
423.37	3225.26
423.56	3152.70
423.75	3187.81
423.94	3023.97
424.13	2902.26
424.32	3009.93
424.50	3166.74
424.69	3370.37
424.88	3236.96
425.07	3192.49
425.26	3105.89
425.45	3267.39
425.64	3190.15
425.83	3122.27
426.01	3246.32
426.20	3159.72
426.39	3276.75
426.58	3166.74
426.77	3309.52
426.96	3293.13
427.15	3122.27
427.33	3229.94
427.52	3297.81
427.71	3384.41
427.90	3236.96
428.09	3332.92
428.28	3279.09
428.46	3363.35
428.65	3405.48
428.84	3494.42
429.03	3456.97
429.22	3459.31
429.40	3548.25
429.59	3445.27
429.78	3368.03
429.97	3412.50
430.16	3375.05
430.34	3515.48
430.53	3578.68
430.72	3592.72
430.91	3475.70
431.10	3569.32
431.28	3674.64
431.47	3705.07
431.66	3648.90
431.85	3653.58
432.03	3782.31
432.22	3805.71
432.41	3850.18
432.60	3779.97
432.79	3770.60
432.97	3819.75
433.16	3822.09
433.35	3815.07
433.54	3908.69
433.72	3854.86
433.91	3854.86
434.10	3946.14
434.28	3964.87
434.47	3922.74
434.66	4053.81
434.85	4124.02
435.03	4093.60
435.22	4379.14
435.41	4503.19
435.59	4404.89
435.78	4266.80
435.97	4285.52
436.16	4166.15
436.34	4215.30
436.53	4234.03
436.72	4374.46
436.90	4292.54
437.09	4229.35
437.28	4154.45
437.46	4133.39
437.65	4297.22
437.84	4409.57
438.02	4348.72
438.21	4379.14
438.40	4299.56
438.58	4397.87
438.77	4496.17
438.96	4456.38
439.14	4521.92
439.33	4550.00
439.52	4608.51
439.70	4622.56
439.89	4652.98
440.08	4784.06
440.26	4723.20
440.45	4695.11
440.63	4692.77
440.82	4746.61
441.01	4835.55
441.19	4856.61
441.38	4961.94
441.57	5015.77
441.75	5088.32
441.94	5114.07
442.12	5020.45
442.31	5200.67
442.50	5135.14
442.68	5158.54
442.87	5247.48
443.05	5179.61
443.24	5118.75
443.43	5322.38
443.61	5303.65
443.80	5390.25
443.98	5366.85
444.17	5095.35
444.35	5245.14
444.54	5310.68
444.73	5481.53
444.91	5401.96
445.10	5383.23
445.28	5259.18
445.47	5458.13
445.65	5364.51
445.84	5427.70
446.02	5385.57
446.21	5544.73
446.39	5591.54
446.58	5397.28
446.77	5458.13
446.95	5315.36
447.14	5320.04
447.32	5518.98
447.51	5444.09
447.69	5481.53
447.88	5376.21
448.06	5334.08
448.25	5352.81
448.43	5504.94
448.62	5430.04
448.80	5448.77
448.99	5397.28
449.17	5617.29
449.36	5366.85
449.54	5647.71
449.73	5753.04
449.91	5713.25
450.10	5949.64
450.28	5973.05
450.46	5788.14
450.65	6029.22
450.83	5949.64
451.02	5762.40
451.20	6050.28
451.39	5867.72
451.57	5877.09
451.76	5944.96
451.94	5727.29
452.13	6050.28
452.31	6047.94
452.49	5923.90
452.68	5968.37
452.86	5912.19
453.05	6214.12
453.23	6085.39
453.42	6083.05
453.60	6174.33
453.78	6267.95
453.97	6012.84
454.15	6064.33
454.34	6125.18
454.52	6298.38
454.70	6279.66
454.89	6253.91
455.07	6204.76
455.26	6312.42
455.44	6389.66
455.62	6359.24
455.81	6260.93
455.99	6473.92
456.17	6319.45
456.36	6452.86
456.54	6588.61
456.73	6682.23
456.91	6764.15
457.09	6703.29
457.28	6551.16
457.46	6579.25
457.64	6808.62
457.83	6602.65
458.01	6778.19
458.19	6853.09
458.38	6665.85
458.56	6789.89
458.74	6878.83
458.93	6916.28
459.11	6754.79
459.29	6829.68
459.48	6876.49
459.66	6986.50
459.84	6984.16
460.03	7122.25
460.21	6953.73
460.39	6993.52
460.57	7016.93
460.76	7096.50
460.94	7377.37
461.12	7073.10
461.31	7063.74
461.49	7192.47
461.67	7162.04
461.85	7419.50
462.04	7225.23
462.22	7789.30
462.40	7276.73
462.59	7407.80
462.77	7328.22
462.95	7583.34
463.13	7375.03
463.32	7438.22
463.50	7478.01
463.68	7438.22
463.86	7573.97
464.05	7646.53
464.23	7517.80
464.41	7578.65
464.59	7618.44
464.78	7627.81
464.96	7583.34
465.14	7316.51
465.32	7779.94
465.50	7695.68
465.69	7831.43
465.87	7639.51
466.05	7831.43
466.23	7915.69
466.41	7866.54
466.60	7918.03
466.78	7796.32
466.96	7861.86
467.14	7892.29
467.32	7875.90
467.51	7899.31
467.69	7857.18
467.87	8044.42
468.05	8091.23
468.23	7857.18
468.41	7892.29
468.60	8388.48
468.78	8222.30
468.96	7981.23
469.14	8159.11
469.32	8098.25
469.50	7999.95
469.69	8266.77
469.87	8395.50
470.05	8451.67
470.23	8294.86
470.41	8493.80
470.59	8432.95
470.77	8315.92
470.95	8540.61
471.14	8538.27
471.32	8695.09
471.50	8830.84
471.68	8777.01
471.86	8819.14
472.04	8786.37
472.22	8798.07
472.40	8662.32
472.58	8711.47
472.77	8959.57
472.95	8898.72
473.13	9301.29
473.31	8884.67
473.49	9011.06
473.67	9135.11
473.85	9130.43
474.03	9125.75
474.21	9202.99
474.39	9528.32
474.57	9486.19
474.75	9425.34
474.93	9404.27
475.12	9516.62
475.30	9652.37
475.48	9504.92
475.66	9760.03
475.84	9736.63
476.02	9724.93
476.20	9991.75
476.38	9841.95
476.56	9961.32
476.74	10200.05
476.92	10113.45
477.10	10267.93
477.28	10354.53
477.46	10277.29
477.64	10410.70
477.82	10668.16
478.00	10630.71
478.18	10743.06
478.36	10855.40
478.54	10916.26
478.72	10815.62
478.90	11192.44
479.08	11185.42
479.26	11044.99
479.44	11157.33
479.62	11403.09
479.80	11513.10
479.98	11449.90
480.16	11772.89
480.34	11791.62
480.52	11936.73
480.70	11850.13
480.88	11667.57
481.06	12116.95
481.24	12145.04
481.41	12063.12
481.59	12264.41
481.77	12393.14
481.95	12425.90
482.13	12397.82
482.31	12514.84
482.49	12575.70
482.67	12781.67
482.85	12985.29
483.03	13247.43
483.21	13343.39
483.39	13238.07
483.57	13406.59
483.74	13338.71
483.92	13558.72
484.10	13476.80
484.28	13853.63
484.46	13982.36
484.64	14090.02
484.82	13912.14
485.00	14120.45
485.18	14368.55
485.35	14567.49
485.53	14728.99
485.71	14452.81
485.89	15000.49
486.07	14876.44
486.25	14864.74
486.43	15257.95
486.61	14981.77
486.78	15208.80
486.96	15281.36
487.14	15641.80
487.32	15737.76
487.50	15873.51
487.68	15929.69
487.85	16116.93
488.03	16386.09
488.21	16229.27
488.39	16568.65
488.57	16713.77
488.75	16573.33
488.92	17074.21
489.10	16922.07
489.28	16936.12
489.46	17490.82
489.64	16959.52
489.81	17921.48
489.99	17528.27
490.17	17586.79
490.35	17949.57
490.53	17813.82
490.70	18059.57
490.88	18136.81
491.06	18068.94
491.24	18333.42
491.41	18508.96
491.59	18368.52
491.77	18415.34
491.95	18787.48
492.13	18628.32
492.30	19101.11
492.48	19103.45
492.66	19014.51
492.84	19318.78
493.01	19414.74
493.19	19882.85
493.37	19995.20
493.54	19971.79
493.72	19824.34
493.90	20456.28
494.08	19859.45
494.25	20187.12
494.43	20648.21
494.61	20706.72
494.79	20842.47
494.96	20573.31
495.14	20865.88
495.32	20900.98
495.49	20889.28
495.67	21259.09
495.85	21586.76
496.02	21486.12
496.20	21741.24
496.38	21722.51
496.55	21504.84
496.73	21977.63
496.91	21928.48
497.09	22207.00
497.26	22527.66
497.44	22043.17
497.62	22499.57
497.79	22757.03
497.97	22588.51
498.14	22801.50
498.32	23173.64
498.50	23143.22
498.67	23145.56
498.85	23477.91
499.03	23309.40
499.20	23321.10
499.38	23300.03
499.56	23398.34
499.73	23662.82
499.91	23920.28
500.08	24168.37
500.26	23789.20
500.44	23915.59
500.61	24133.26
500.79	24130.92
500.97	24580.31
501.14	24489.03
501.32	24720.74
501.49	24390.72
501.67	24744.14
501.84	24971.18
502.02	24538.18
502.20	25228.63
502.37	24947.77
502.55	24856.49
502.72	25113.95
502.90	25626.53
503.07	25020.33
503.25	25589.08
503.43	25319.92
503.60	25553.97
503.78	25813.77
503.95	25876.96
504.13	25785.68
504.30	26033.78
504.48	25593.76
504.65	25930.80
504.83	26008.03
505.01	26389.54
505.18	26515.93
505.36	26487.84
505.53	26300.60
505.71	26106.34
505.88	26551.04
506.06	26754.66
506.23	26820.20
506.41	26506.57
506.58	26897.44
506.76	26995.74
506.93	26977.01
507.11	27084.68
507.28	27510.66
507.46	27440.44
507.63	27515.34
507.81	27934.29
507.98	27475.55
508.16	27784.50
508.33	27826.63
508.50	27946.00
508.68	27878.12
508.85	28369.63
509.03	28074.73
509.20	28645.82
509.38	28472.62
509.55	28519.43
509.73	28566.24
509.90	28456.23
510.08	28683.27
510.25	28423.47
510.42	29046.05
510.60	29090.52
510.77	28973.49
510.95	29240.31
511.12	29130.31
511.30	29048.39
511.47	29745.87
511.64	29090.52
511.82	29682.67
511.99	29504.79
512.17	29640.54
512.34	29642.88
512.51	29776.30
512.69	29907.37
512.86	29874.60
513.04	30422.28
513.21	30279.51
513.38	30064.18
513.56	30345.05
513.73	30433.99
513.90	30548.67
514.08	30373.13
514.25	30574.42
514.43	30815.49
514.60	30778.04
514.77	30672.72
514.95	31178.28
515.12	30586.12
515.29	31171.25
515.47	31152.53
515.64	31262.54
515.81	31178.28
515.99	31744.69
516.16	31576.17
516.33	31730.64
516.51	31924.91
516.68	31569.15
516.85	31622.98
517.03	31913.20
517.20	32046.62
517.37	32250.24
517.54	31864.05
517.72	32163.64
517.89	31864.05
518.06	32102.79
518.24	32250.24
518.41	32463.23
518.58	32521.74
518.75	32130.87
518.93	32627.07
519.10	32591.96
519.27	32858.78
519.45	32528.77
519.62	32531.11
519.79	32723.03
519.96	32725.37
520.14	33490.73
520.31	33062.41
520.48	33305.82
520.65	33289.44
520.83	32982.83
521.00	33949.47
521.17	33237.95
521.34	33223.90
521.52	33518.81
521.69	34061.82
521.86	33825.42
522.03	34209.27
522.20	33563.28
522.38	34005.64
522.55	34024.37
522.72	33727.12
522.89	34340.34
523.07	34644.61
523.24	34684.40
523.41	34637.59
523.58	34335.66
523.75	34483.11
523.92	34370.77
524.10	34550.99
524.27	34976.97
524.44	34939.52
524.61	35014.41
524.78	34792.06
524.96	35129.10
525.13	34869.30
525.30	35229.74
525.47	35154.85
525.64	35126.76
525.81	35386.56
525.98	35761.05
526.16	35487.20
526.33	35466.14
526.50	35667.42
526.67	35269.53
526.84	35910.84
527.01	35124.42
527.18	35620.61
527.36	36006.80
527.53	36215.11
527.70	36486.61
527.87	36416.40
528.04	36144.89
528.21	36304.05
528.38	36189.36
528.55	36364.90
528.72	36161.28
528.89	36503.00
529.07	36528.74
529.24	36201.07
529.41	36587.25
529.58	36559.17
529.75	36631.72
529.92	36477.25
530.09	36718.32
530.26	36835.35
530.43	37163.03
530.60	36708.96
530.77	37188.77
530.94	37034.30
531.11	36924.29
531.28	37090.47
531.46	37479.00
531.63	37202.82
531.80	37345.59
531.97	37481.34
532.14	37886.25
532.31	37411.12
532.48	37724.75
532.65	37790.29
532.82	37361.97
532.99	37710.71
533.16	37549.21
533.33	37780.93
533.50	38108.60
533.67	38501.81
533.84	37930.72
534.01	37755.18
534.18	38033.71
534.35	38246.69
534.52	38258.40
534.69	38670.33
534.86	38689.06
535.03	38244.35
535.20	38794.38
535.37	38342.66
535.54	38607.14
535.71	38284.14
535.88	38822.47
536.05	38824.81
536.22	38424.57
536.38	39110.35
536.55	38916.09
536.72	39175.89
536.89	38829.49
537.06	39077.58
537.23	39079.92
537.40	38843.53
537.57	39161.84
537.74	39526.97
537.91	39782.09
538.08	39405.26
538.25	39541.01
538.42	39906.13
538.59	39269.51
538.75	39185.25
538.92	39632.29
539.09	39852.30
539.26	39487.18
539.43	39438.03
539.60	39831.24
539.77	39716.55
539.94	40016.14
540.11	40158.91
540.28	40463.18
540.44	40201.04
540.61	40299.34
540.78	39672.08
540.95	40184.66
541.12	39931.88
541.29	40748.73
541.46	40779.15
541.62	40343.81
541.79	40521.69
541.96	40212.74
542.13	40229.13
542.30	40435.10
542.47	40844.69
542.63	40769.79
542.80	41144.28
542.97	41319.82
543.14	41043.63
543.31	41432.16
543.48	40882.14
543.64	41666.22
543.81	41923.68
543.98	41572.60
544.15	41984.53
544.32	41752.82
544.48	41769.20
544.65	41457.91
544.82	41612.38
544.99	41383.01
545.16	41668.56
545.32	41298.75
545.49	42635.20
545.66	42693.71
545.83	42607.11
546.00	42710.10
546.16	42220.92
546.33	41801.97
546.50	41738.77
546.67	41869.84
546.83	40985.12
547.00	41799.63
547.17	41481.31
547.34	42263.05
547.50	42026.66
547.67	42150.71
547.84	42450.30
548.00	41993.89
548.17	42646.90
548.34	42293.48
548.51	42644.56
548.67	42569.66
548.84	42653.92
549.01	42319.23
549.18	42616.47
549.34	42892.66
549.51	42618.81
549.68	42560.30
549.84	42155.39
550.01	42359.02
550.18	42227.95
550.34	42487.74
550.51	42550.94
550.68	42759.25
550.84	42227.95
551.01	42466.68
551.18	42529.87
551.34	42316.89
551.51	42859.89
551.68	42801.38
551.84	42766.27
552.01	42677.33
552.18	43267.14
552.34	43129.05
552.51	42632.86
552.68	42852.87
552.84	43487.15
553.01	43278.85
553.18	43215.65
553.34	43391.19
553.51	43005.00
553.67	43452.05
553.84	43463.75
554.01	43517.58
554.17	43409.92
554.34	43318.64
554.51	43646.31
554.67	43531.62
554.84	43428.64
555.00	43122.03
555.17	42815.42
555.33	43856.96
555.50	43557.37
555.67	43789.08
555.83	43328.00
556.00	43267.14
556.16	43761.00
556.33	43400.55
556.50	43878.02
556.66	43892.07
556.83	43510.56
556.99	44470.18
557.16	43945.90
557.32	43852.28
557.49	44123.78
557.65	43636.95
557.82	43910.79
557.98	43798.44
558.15	44158.89
558.32	44172.93
558.48	44060.58
558.65	44247.83
558.81	44065.27
558.98	44105.06
559.14	44449.11
559.31	44467.84
559.47	43903.77
559.64	44135.48
559.80	44259.53
559.97	44531.03
560.13	44336.77
560.30	44296.98
560.46	44697.21
560.63	44765.09
560.79	44397.62
560.96	44266.55
561.12	44648.06
561.29	44151.87
561.45	44556.78
561.61	44631.68
561.78	44704.23
561.94	44446.77
562.11	44985.10
562.27	44477.20
562.44	45090.42
562.60	44549.76
562.77	44907.86
562.93	44170.59
563.10	45041.27
563.26	44746.36
563.42	44912.54
563.59	44720.62
563.75	44809.56
563.92	44968.71
564.08	44545.08
564.24	44903.18
564.41	44512.31
564.57	44720.62
564.74	44645.72
564.90	44598.91
565.07	45090.42
565.23	44914.88
565.39	44697.21
565.56	44835.30
565.72	45055.31
565.88	44839.98
566.05	44498.26
566.21	44769.77
566.38	44849.35
566.54	45024.89
566.70	45162.98
566.87	45436.82
567.03	44919.56
567.19	45411.07
567.36	44926.58
567.52	44971.05
567.68	45104.46
567.85	45109.14
568.01	44996.80
568.17	45092.76
568.34	45287.03
568.50	45272.98
568.66	45097.44
568.83	45244.90
568.99	45319.79
569.15	45104.46
569.32	45132.55
569.48	44439.75
569.64	45167.66
569.81	45095.10
569.97	45270.64
570.13	45155.96
570.30	45184.04
570.46	45305.75
570.62	45139.57
570.78	45432.14
570.95	45256.60
571.11	45546.82
571.27	45097.44
571.43	45099.78
571.60	45464.91
571.76	45062.33
571.92	45673.21
572.09	45710.66
572.25	45656.83
572.41	45443.84
572.57	45528.10
572.74	45539.80
572.90	45294.05
573.06	45308.09
573.22	45378.31
573.38	45237.87
573.55	45642.79
573.71	45752.79
573.87	45923.65
574.03	45511.72
574.20	45853.44
574.36	45254.26
574.52	45237.87
574.68	45495.33
574.84	45696.62
575.01	45965.78
575.17	45095.10
575.33	45986.85
575.49	45722.37
575.65	46155.36
575.82	45691.94
575.98	45455.54
576.14	45942.38
576.30	45591.30
576.46	45614.70
576.62	45263.62
576.79	45848.75
576.95	45598.32
577.11	45792.58
577.27	45858.12
577.43	45827.69
577.59	45652.15
577.75	45591.30
577.92	45659.17
578.08	45705.98
578.24	45338.52
578.40	45502.35
578.56	45387.67
578.72	45441.50
578.88	46195.15
579.04	46089.83
579.21	45780.88
579.37	45502.35
579.53	46131.96
579.69	45656.83
579.85	45928.33
580.01	45787.90
580.17	45689.60
580.33	45879.18
580.49	45813.65
580.65	46291.12
580.82	46103.87
580.98	46101.53
581.14	45916.63
581.30	45947.06
581.46	45998.55
581.62	45958.76
581.78	45525.76
581.94	45851.09
582.10	45670.87
582.26	45872.16
582.42	45773.86
582.58	45902.59
582.74	45907.27
582.90	46078.13
583.06	46234.94
583.22	45682.58
583.38	45886.20
583.54	46026.63
583.70	45968.12
583.86	46043.02
584.02	45820.67
584.18	46422.19
584.34	46562.62
584.50	46637.51
584.66	46087.49
584.82	45727.05
584.98	46380.06
585.14	46349.63
585.30	45708.32
585.46	45773.86
585.62	45478.95
585.78	45830.03
585.94	46068.76
586.10	46127.28
586.26	45762.15
586.42	46122.60
586.58	46415.16
586.74	46153.02
586.90	45844.07
587.06	45617.04
587.22	46087.49
587.38	45935.35
587.54	46536.87
587.70	46443.25
587.86	46237.28
588.02	46043.02
588.18	46349.63
588.34	45918.97
588.49	46227.92
588.65	45893.22
588.81	46326.22
588.97	46122.60
589.13	46024.29
589.29	46518.15
589.45	46543.89
589.61	46330.90
589.77	46754.54
589.93	46564.96
590.08	46574.32
590.24	46602.41
590.40	46763.90
590.56	46794.33
590.72	46164.73
590.88	46113.23
591.04	45989.19
591.20	46595.38
591.35	46593.04
591.51	47196.90
591.67	46452.61
591.83	46749.86
591.99	46382.40
592.15	46426.87
592.31	46808.37
592.46	46522.83
592.62	46316.86
592.78	46487.72
592.94	46302.82
593.10	46522.83
593.26	46719.43
593.41	47213.29
593.57	46405.80
593.73	46815.40
593.89	46691.35
594.05	46904.34
594.20	46347.29
594.36	46134.30
594.52	46492.40
594.68	46195.15
594.84	46295.80
594.99	46473.68
595.15	46583.68
595.31	47363.08
595.47	47056.47
595.62	46876.25
595.78	46651.56
595.94	46726.46
596.10	46595.38
596.25	46710.07
596.41	46689.01
596.57	46227.92
596.73	46415.16
596.88	46597.73
597.04	46862.21
597.20	46349.63
597.36	46543.89
597.51	46969.87
597.67	46600.07
597.83	46782.63
597.99	46452.61
598.14	46279.41
598.30	46880.93
598.46	46876.25
598.61	46932.42
598.77	46761.56
598.93	46630.49
599.09	46567.30
599.24	46955.83
599.40	46670.28
599.56	46403.46
599.71	46539.21
599.87	46719.43
600.03	46422.19
600.18	46766.24
600.34	46930.08
600.50	46700.71
600.65	46939.44
600.81	47049.45
600.97	47070.51
601.12	47239.03
601.28	47112.64
601.44	46579.00
601.59	46752.20
601.75	46761.56
601.91	47168.82
602.06	45944.72
602.22	46742.84
602.37	46845.82
602.53	46904.34
602.69	46906.68
602.84	46707.73
603.00	46855.18
603.16	46583.68
603.31	46527.51
603.47	46866.89
603.62	46794.33
603.78	47065.83
603.94	46831.78
604.09	46988.60
604.25	46906.68
604.40	46501.76
604.56	46490.06
604.71	47171.16
604.87	46740.50
605.03	46983.91
605.18	46260.69
605.34	46960.51
605.49	46485.38
605.65	46597.73
605.80	46122.60
605.96	46667.94
606.12	46436.23
606.27	46724.11
606.43	46471.34
606.58	46464.32
606.74	46394.10
606.89	46684.33
607.05	46532.19
607.20	46653.90
607.36	46270.05
607.51	46497.08
607.67	46787.31
607.82	46443.25
607.98	46419.84
608.13	46138.98
608.29	46363.67
608.44	46368.35
608.60	46705.39
608.75	46934.76
608.91	46185.79
609.06	46178.77
609.22	46674.96
609.37	46415.16
609.53	46246.65
609.68	46167.07
609.84	46143.66
609.99	46288.77
610.15	46270.05
610.30	46820.08
610.46	46782.63
610.61	46630.49
610.76	46927.74
610.92	47255.42
611.07	47391.17
611.23	46892.63
611.38	46728.80
611.54	47075.19
611.69	46749.86
611.84	46656.24
612.00	46272.39
612.15	46216.22
612.31	46440.91
612.46	46579.00
612.62	46756.88
612.77	46368.35
612.92	46894.97
613.08	46253.67
613.23	46885.61
613.39	45853.44
613.54	45996.21
613.69	46326.22
613.85	46110.89
614.00	45872.16
614.15	46066.42
614.31	45778.54
614.46	46787.31
614.62	45614.70
614.77	46492.40
614.92	46265.37
615.08	45928.33
615.23	45535.12
615.38	45970.46
615.54	45591.30
615.69	45839.39
615.84	45654.49
616.00	46117.92
616.15	45408.73
616.30	45696.62
616.46	45495.33
616.61	45598.32
616.76	45717.68
616.92	45940.04
617.07	45734.07
617.22	45272.98
617.37	44945.31
617.53	45443.84
617.68	45675.55
617.83	45708.32
617.99	45780.88
618.14	45329.16
618.29	45659.17
618.45	45518.74
618.60	45488.31
618.75	45347.88
618.90	45511.72
619.06	45823.01
619.21	45525.76
619.36	45282.34
619.51	44924.24
619.67	44928.92
619.82	45085.74
619.97	45240.21
620.12	44949.99
620.28	44982.76
620.43	44807.22
620.58	45284.68
620.73	45235.53
620.89	45191.06
621.04	45251.92
621.19	45357.24
621.34	44949.99
621.49	45050.63
621.65	44477.20
621.80	44886.79
621.95	44456.14
622.10	44734.66
622.25	44912.54
622.41	44856.37
622.56	45052.97
622.71	45514.06
622.86	44809.56
623.01	45111.49
623.16	44783.81
623.32	44346.13
623.47	44505.29
623.62	44828.28
623.77	44603.59
623.92	44786.15
624.07	44451.45
624.23	44282.94
624.38	44650.40
624.53	44800.19
624.68	44493.58
624.83	44739.34
624.98	44884.45
625.13	44477.20
625.29	44919.56
625.44	44580.18
625.59	44100.37
625.74	44210.38
625.89	44196.34
626.04	44098.03
626.19	44287.62
626.34	44205.70
626.49	44076.97
626.65	43917.81
626.80	43943.56
626.95	43601.84
627.10	44025.48
627.25	44168.25
627.40	44296.98
627.55	44025.48
627.70	43866.32
627.85	43948.24
628.00	44184.63
628.15	43842.92
628.30	43817.17
628.45	44137.82
628.60	43882.70
628.76	43920.15
628.91	43913.13
629.06	43702.48
629.21	43955.26
629.36	43538.65
629.51	43531.62
629.66	43503.54
629.81	43592.48
629.96	43337.36
630.11	43168.84
630.26	43213.31
630.41	43704.82
630.56	43833.55
630.71	43641.63
630.86	43878.02
631.01	43847.60
631.16	43573.75
631.31	43414.60
631.46	43681.42
631.61	43208.63
631.76	43587.80
631.91	43494.18
632.06	43199.27
632.21	43227.35
632.36	43208.63
632.51	42656.26
632.66	43365.45
632.81	42630.52
632.96	42843.51
633.10	43138.41
633.25	43290.55
633.40	43056.50
633.55	43353.74
633.70	43428.64
633.85	43002.66
634.00	42876.27
634.15	42913.72
634.30	42916.06
634.45	42836.48
634.60	42618.81
634.75	43058.84
634.90	42916.06
635.05	42801.38
635.19	42827.12
635.34	43271.82
635.49	42752.23
635.64	42391.78
635.79	42902.02
635.94	42576.69
636.09	42796.70
636.24	42684.35
636.39	42469.02
636.53	42377.74
636.68	42295.82
636.83	42520.51
636.98	42674.99
637.13	42674.99
637.28	42593.07
637.43	42651.58
637.57	42564.98
637.72	42272.42
637.87	42347.31
638.02	42354.33
638.17	42298.16
638.32	42288.80
638.46	42124.96
638.61	42298.16
638.76	41909.63
638.91	41954.10
639.06	41970.49
639.20	42045.38
639.35	42302.84
639.50	42124.96
639.65	42562.64
639.80	41916.65
639.94	41881.55
640.09	42148.37
640.24	41984.53
640.39	41872.18
640.54	41951.76
640.68	42099.22
640.83	42021.98
640.98	41811.33
641.13	41642.81
641.27	41933.04
641.42	41989.21
641.57	42183.48
641.72	42274.76
641.86	42284.12
642.01	41565.57
642.16	41867.50
642.31	41661.54
642.45	41242.58
642.60	41109.17
642.75	41331.52
642.90	41109.17
643.04	41071.72
643.19	41352.58
643.34	41024.91
643.48	41200.45
643.63	42059.43
643.78	41528.13
643.93	41743.45
644.07	41530.47
644.22	41317.48
644.37	40942.99
644.51	41198.11
644.66	41626.43
644.81	40900.86
644.95	40950.01
645.10	40795.54
645.25	41109.17
645.39	40809.58
645.54	41188.75
645.69	41027.25
645.83	41312.80
645.98	41045.97
646.13	41249.60
646.27	41507.06
646.42	41067.04
646.57	41251.94
646.71	41155.98
646.86	40840.01
647.00	40786.18
647.15	40631.70
647.30	40959.38
647.44	40399.99
647.59	40732.34
647.74	40378.92
647.88	41109.17
648.03	40945.33
648.17	40669.15
648.32	40825.96
648.47	40992.14
648.61	40896.18
648.76	40905.54
648.90	40835.33
649.05	40212.74
649.20	41041.29
649.34	40669.15
649.49	40449.14
649.63	40198.70
649.78	40474.88
649.92	40458.50
650.07	40793.20
650.21	40369.56
650.36	40526.38
650.51	40896.18
650.65	40535.74
650.80	40451.48
650.94	40531.06
651.09	40453.82
651.23	40418.71
651.38	40409.35
651.52	39966.99
651.67	39807.83
651.81	40109.76
651.96	40360.20
652.10	39978.69
652.25	39819.53
652.39	40297.00
652.54	40273.60
652.68	40179.98
652.83	39817.19
652.97	40369.56
653.12	40444.46
653.26	39803.15
653.41	40299.34
653.55	39346.75
653.70	40027.84
653.84	39416.96
653.99	39777.40
654.13	39906.13
654.27	40184.66
654.42	39735.27
654.56	39512.92
654.71	39744.64
654.85	39910.82
655.00	40030.18
655.14	39599.52
655.29	39718.89
655.43	39473.13
655.57	39597.18
655.72	39538.67
655.86	39770.38
656.01	39426.32
656.15	39325.68
656.30	38988.64
656.44	39232.06
656.58	39306.96
656.73	39145.46
656.87	39552.71
657.01	39739.96
657.16	40053.59
657.30	39423.98
657.45	39445.05
657.59	39536.33
657.73	39318.66
657.88	38995.67
658.02	38794.38
658.16	38918.43
658.31	38646.93
658.45	39260.15
658.60	38452.66
658.74	38773.31
658.88	38890.34
659.03	38852.89
659.17	38389.47
659.31	38513.52
659.46	38307.55
659.60	39030.77
659.74	38644.59
659.89	38696.08
660.03	38686.71
660.17	38838.85
660.32	38305.21
660.46	38464.36
660.60	38075.84
660.74	38136.69
660.89	37766.88
661.03	37776.25
661.17	38073.49
661.32	37986.89
661.46	38150.73
661.60	37701.35
661.74	37958.81
661.89	37986.89
662.03	37816.04
662.17	37579.64
662.31	37841.78
662.46	38246.69
662.60	37879.23
662.74	37371.33
662.88	37148.98
663.03	37223.88
663.17	37415.80
663.31	37497.72
663.45	37371.33
663.60	37418.14
663.74	37551.56
663.88	37268.35
664.02	37404.10
664.17	37684.97
664.31	37383.04
664.45	37174.73
664.59	37429.85
664.73	37759.86
664.88	37064.72
665.02	36767.48
665.16	37165.37
665.30	36795.56
665.44	37008.55
665.59	36517.04
665.73	36657.47
665.87	36414.05
666.01	36432.78
666.15	36725.35
666.29	36814.29
666.44	36776.84
666.58	36453.84
666.72	36882.16
666.86	36584.91
667.00	36196.38
667.14	36329.80
667.28	35964.67
667.43	36182.34
667.57	36091.06
667.71	36275.96
667.85	35522.31
667.99	35583.16
668.13	35955.31
668.27	36149.57
668.41	35959.99
668.56	35948.29
668.70	36252.56
668.84	35742.32
668.98	35779.77
669.12	35765.73
669.26	35665.08
669.40	35562.10
669.54	35365.49
669.68	35526.99
669.82	34983.99
669.96	35388.90
670.10	35250.81
670.25	35302.30
670.39	34876.32
670.53	35250.81
670.67	34895.05
670.81	35370.18
670.95	35026.12
671.09	34967.60
671.23	35318.68
671.37	35101.01
671.51	35089.31
671.65	34862.28
671.79	34548.65
671.93	34684.40
672.07	34555.67
672.21	34911.43
672.35	34136.71
672.49	34220.97
672.63	34113.31
672.77	33827.76
672.91	34160.12
673.05	34099.26
673.19	34075.86
673.33	34146.08
673.47	33846.49
673.61	33881.60
673.75	34036.07
673.89	34160.12
674.03	33549.24
674.17	34040.75
674.31	33848.83
674.45	33523.49
674.59	33603.07
674.73	32968.79
674.87	33177.09
675.01	33088.15
675.15	33099.86
675.29	33188.80
675.43	33319.87
675.56	32884.53
675.70	32847.08
675.84	33195.82
675.98	32095.77
676.12	32577.92
676.26	32685.58
676.40	32673.88
676.54	32643.45
676.68	32355.57
676.82	31709.58
676.96	31871.07
677.10	32233.86
677.23	32285.35
677.37	31938.95
677.51	32116.83
677.65	31604.25
677.79	31283.60
677.93	31735.32
678.07	31702.56
678.21	31735.32
678.34	31398.29
678.48	31318.71
678.62	31042.53
678.76	31159.55
678.90	30857.62
679.04	30986.35
679.18	31278.92
679.31	30462.07
679.45	30375.47
679.59	30632.93
679.73	30455.05
679.87	30349.73
680.00	30026.73
680.14	29619.48
680.28	29956.52
680.42	29961.20
680.56	30012.69
680.70	30061.84
680.83	29802.04
680.97	29752.89
681.11	30155.46
681.25	29607.78
681.39	29083.50
681.52	29457.98
681.66	29628.84
681.80	29256.70
681.94	29237.97
682.07	29127.97
682.21	28870.51
682.35	28996.90
682.49	28542.83
682.62	28528.79
682.76	28556.88
682.90	28900.94
683.04	28744.12
683.17	28753.48
683.31	28758.16
683.45	28634.11
683.59	28423.47
683.72	28418.78
683.86	28353.25
684.00	28376.66
684.13	27854.72
684.27	27864.08
684.41	27587.89
684.55	27257.88
684.68	27477.89
684.82	27269.58
684.96	27295.33
685.09	26843.60
685.23	27199.37
685.37	26960.63
685.50	26775.73
685.64	27077.66
685.78	26867.01
685.91	27119.79
686.05	27126.81
686.19	26609.55
686.32	26817.86
686.46	26286.56
686.60	26469.12
686.73	26324.01
686.87	26541.68
687.01	26026.76
687.14	25848.88
687.28	26136.76
687.42	25773.98
687.55	26036.12
687.69	25696.74
687.82	25663.97
687.96	25692.06
688.10	25631.21
688.23	25572.69
688.37	25535.24
688.50	25612.48
688.64	25343.32
688.78	25530.56
688.91	24954.79
689.05	24992.24
689.18	25003.94
689.32	24699.67
689.46	24493.71
689.59	24512.43
689.73	24905.64
689.86	24322.85
690.00	24348.59
690.13	24517.11
690.27	23896.87
690.41	23763.46
690.54	23990.49
690.68	24020.92
690.81	24016.24
690.95	24053.69
691.08	23936.66
691.22	23672.18
691.35	23545.79
691.49	23520.04
691.62	23236.84
691.76	22925.55
691.89	23166.62
692.03	22651.70
692.16	23005.13
692.30	22820.22
692.43	22822.56
692.57	22904.48
692.70	22986.40
692.84	22665.75
692.97	22590.85
693.11	22728.94
693.24	22948.95
693.38	22483.19
693.51	22487.87
693.65	22249.13
693.78	22099.34
693.92	22066.57
694.05	21535.27
694.19	22136.79
694.32	21844.22
694.45	21401.86
694.59	21563.36
694.72	21453.35
694.86	21495.48
694.99	21137.38
695.13	21326.96
695.26	20823.75
695.39	20985.24
695.53	21137.38
695.66	21071.84
695.80	21048.44
695.93	20540.54
696.07	20704.38
696.20	20870.56
696.33	20758.21
696.47	20645.87
696.60	20732.47
696.73	20414.15
696.87	20205.84
697.00	20173.08
697.14	20168.40
697.27	19775.19
697.40	19644.12
697.54	19796.25
697.67	19665.18
697.80	19510.71
697.94	19531.77
698.07	19358.57
698.21	19171.33
698.34	19742.42
698.47	19225.16
698.61	19103.45
698.74	19288.35
698.87	19208.78
699.01	18965.36
699.14	18923.23
699.27	18939.62
699.40	18885.78
699.54	18707.90
699.67	18525.34
699.80	18534.70
699.94	18382.57
700.07	18300.65
700.20	18120.43
700.34	17830.20
700.47	17930.84
700.60	18015.10
700.73	17919.14
700.87	18148.51
701.00	17724.88
701.13	17614.87
701.26	17858.29
701.40	17930.84
701.53	17551.68
701.66	17720.20
701.79	17500.19
701.93	17221.66
702.06	17235.70
702.19	17165.49
702.32	17067.19
702.46	16943.14
702.59	16957.18
702.72	16582.70
702.85	16819.09
702.99	16664.61
703.12	16748.87
703.25	16578.01
703.38	16496.10
703.51	16903.35
703.65	16638.87
703.78	16350.98
703.91	16226.93
704.04	16496.10
704.17	16339.28
704.31	16311.19
704.44	16042.03
704.57	16037.35
704.70	15990.54
704.83	15700.31
704.96	15737.76
705.10	15550.52
705.23	15782.23
>>>>>End Processed Spectral Data<<<<<
