SpectraSuite Data File
++++++++++++++++++++++++++++++++++++
Date: Fri Oct 04 11:39:36 GMT-05:00 2013
User: price-jones
Dark Spectrum Present: No
Reference Spectrum Present: No
Number of Sampled Component Spectra: 1
Spectrometers: USB2+H05261
Integration Time (usec): 100000 (USB2+H05261)
Spectra Averaged: 1 (USB2+H05261)
Boxcar Smoothing: 0 (USB2+H05261)
Correct for Electrical Dark: No (USB2+H05261)
Strobe/Lamp Enabled: No (USB2+H05261)
Correct for Detector Non-linearity: No (USB2+H05261)
Correct for Stray Light: No (USB2+H05261)
Number of Pixels in Processed Spectrum: 2048
>>>>>Begin Processed Spectral Data<<<<<
365.73	63.19
365.92	63.19
366.12	63.19
366.32	0.00
366.52	0.00
366.72	0.00
366.91	0.00
367.11	0.00
367.31	0.00
367.51	0.00
367.70	0.00
367.90	0.00
368.10	0.00
368.30	0.00
368.49	0.00
368.69	0.00
368.89	58.51
369.09	0.00
369.28	0.00
369.48	0.00
369.68	0.00
369.87	0.00
370.07	0.00
370.27	35.11
370.47	46.81
370.66	238.73
370.86	278.52
371.06	367.46
371.25	313.63
371.45	285.55
371.65	395.55
371.84	297.25
372.04	308.95
372.24	332.36
372.44	330.02
372.63	421.30
372.83	418.96
373.03	395.55
373.22	322.99
373.42	299.59
373.62	325.33
373.81	339.38
374.01	372.15
374.21	374.49
374.40	379.17
374.60	451.72
374.79	348.74
374.99	372.15
375.19	416.62
375.38	416.62
375.58	320.65
375.78	456.40
375.97	470.45
376.17	493.85
376.37	447.04
376.56	442.36
376.76	454.06
376.95	479.81
377.15	423.64
377.35	397.89
377.54	503.22
377.74	435.34
377.93	388.53
378.13	472.79
378.33	465.77
378.52	414.27
378.72	496.19
378.91	486.83
379.11	489.17
379.31	454.06
379.50	472.79
379.70	479.81
379.89	503.22
380.09	425.98
380.28	407.25
380.48	503.22
380.68	463.43
380.87	440.02
381.07	465.77
381.26	554.71
381.46	517.26
381.65	578.11
381.85	531.30
382.04	514.92
382.24	606.20
382.43	571.09
382.63	507.90
382.83	456.40
383.02	528.96
383.22	505.56
383.41	526.62
383.61	505.56
383.80	528.96
384.00	519.60
384.19	545.34
384.39	664.71
384.58	500.87
384.78	566.41
384.97	559.39
385.17	615.56
385.36	496.19
385.56	564.07
385.75	552.37
385.95	561.73
386.14	624.92
386.34	575.77
386.53	540.66
386.72	662.37
386.92	624.92
387.11	582.79
387.31	599.18
387.50	559.39
387.70	564.07
387.89	634.29
388.09	465.77
388.28	603.86
388.48	594.50
388.67	596.84
388.86	617.90
389.06	678.76
389.25	667.05
389.45	709.18
389.64	645.99
389.84	681.10
390.03	702.16
390.22	718.54
390.42	613.22
390.61	711.52
390.81	709.18
391.00	746.63
391.19	837.91
391.39	695.14
391.58	727.91
391.78	718.54
391.97	734.93
392.16	681.10
392.36	833.23
392.55	795.78
392.75	685.78
392.94	755.99
393.13	819.19
393.33	816.85
393.52	748.97
393.71	884.72
393.91	695.14
394.10	833.23
394.29	751.31
394.49	842.59
394.68	786.42
394.88	854.30
395.07	910.47
395.26	912.81
395.46	842.59
395.65	978.34
395.84	905.79
396.04	957.28
396.23	976.00
396.42	1034.52
396.62	1015.79
396.81	826.21
397.00	978.34
397.19	931.53
397.39	954.94
397.58	1013.45
397.77	936.21
397.97	999.41
398.16	980.68
398.35	999.41
398.55	1043.88
398.74	1001.75
398.93	1132.82
399.12	1046.22
399.32	1062.60
399.51	1090.69
399.70	1078.99
399.90	1109.41
400.09	1053.24
400.28	1093.03
400.47	1043.88
400.67	1020.47
400.86	1111.75
401.05	1146.86
401.24	1144.52
401.44	1299.00
401.63	1233.46
401.82	1200.69
402.01	1163.25
402.21	1186.65
402.40	1240.48
402.59	1205.38
402.78	1263.89
402.97	1245.16
403.17	1273.25
403.36	1294.32
403.55	1210.06
403.74	1198.35
403.93	1324.74
404.13	1448.79
404.32	1357.51
404.51	1350.49
404.70	1411.34
404.89	1362.19
405.09	1373.89
405.28	1453.47
405.47	1394.96
405.66	1465.18
405.85	1519.01
406.05	1530.71
406.24	1462.83
406.43	1479.22
406.62	1486.24
406.81	1624.33
407.00	1537.73
407.20	1556.46
407.39	1521.35
407.58	1647.74
407.77	1708.59
407.96	1696.89
408.15	1802.21
408.34	1671.14
408.54	1715.61
408.73	1650.08
408.92	1806.89
409.11	1778.81
409.30	1898.17
409.49	1802.21
409.68	1713.27
409.87	1760.08
410.07	1813.92
410.26	1909.88
410.45	1865.41
410.64	1886.47
410.83	1860.73
411.02	1912.22
411.21	2083.08
411.40	2090.10
411.59	1966.05
411.78	2076.06
411.98	2015.20
412.17	2157.97
412.36	2101.80
412.55	2190.74
412.74	2181.38
412.93	2209.47
413.12	2216.49
413.31	2296.07
413.50	2106.48
413.69	2277.34
413.88	2354.58
414.07	2363.94
414.26	2452.88
414.45	2368.62
414.64	2382.67
414.83	2471.61
415.02	2560.55
415.22	2410.75
415.41	2670.55
415.60	2567.57
415.79	2525.44
415.98	2581.61
416.17	2715.02
416.36	2567.57
416.55	2637.78
416.74	2679.91
416.93	2825.03
417.12	2715.02
417.31	2827.37
417.50	2787.58
417.69	3021.63
417.88	2911.63
418.07	2932.69
418.26	2864.82
418.45	3110.57
418.64	3124.62
418.83	3052.06
419.02	2958.44
419.21	3112.91
419.39	3131.64
419.58	3040.36
419.77	3056.74
419.96	3133.98
420.15	3145.68
420.34	3089.51
420.53	3173.77
420.72	3255.69
420.91	3272.07
421.10	3183.13
421.29	3344.63
421.48	3243.98
421.67	3253.34
421.86	3440.59
422.05	3253.34
422.24	3297.81
422.43	3311.86
422.61	3494.42
422.80	3571.66
422.99	3375.05
423.18	3346.97
423.37	3501.44
423.56	3384.41
423.75	3463.99
423.94	3389.10
424.13	3159.72
424.32	3215.90
424.50	3463.99
424.69	3496.76
424.88	3339.94
425.07	3487.40
425.26	3417.18
425.45	3543.57
425.64	3496.76
425.83	3480.38
426.01	3634.85
426.20	3447.61
426.39	3541.23
426.58	3454.63
426.77	3674.64
426.96	3639.53
427.15	3548.25
427.33	3735.50
427.52	3585.70
427.71	3641.87
427.90	3609.11
428.09	3609.11
428.28	3796.35
428.46	3779.97
428.65	3826.78
428.84	3761.24
429.03	3887.63
429.22	3599.74
429.40	3791.67
429.59	3840.82
429.78	3653.58
429.97	3791.67
430.16	3749.54
430.34	3794.01
430.53	3936.78
430.72	4035.08
430.91	3985.93
431.10	3892.31
431.28	3962.53
431.47	4035.08
431.66	4170.83
431.85	4168.49
432.03	4098.28
432.22	4273.82
432.41	4238.71
432.60	4168.49
432.79	4173.18
432.97	4234.03
433.16	4222.33
433.35	4072.53
433.54	4229.35
433.72	4187.22
433.91	4395.53
434.10	4318.29
434.28	4344.03
434.47	4245.73
434.66	4231.69
434.85	4463.40
435.03	4535.96
435.22	4741.93
435.41	5004.07
435.59	4795.76
435.78	4657.67
435.97	4531.28
436.16	4662.35
436.34	4554.68
436.53	4547.66
436.72	4676.39
436.90	4482.13
437.09	4819.16
437.28	4585.11
437.46	4629.58
437.65	4828.53
437.84	4777.03
438.02	4755.97
438.21	4765.33
438.40	4704.48
438.58	4837.89
438.77	4959.60
438.96	4952.57
439.14	5039.17
439.33	5036.83
439.52	5050.88
439.70	5181.95
439.89	5128.11
440.08	5071.94
440.26	5181.95
440.45	5153.86
440.63	5327.06
440.82	5336.42
441.01	5247.48
441.19	5518.98
441.38	5549.41
441.57	5540.05
441.75	5533.03
441.94	5650.05
442.12	5554.09
442.31	5518.98
442.50	5633.67
442.68	5636.01
442.87	5692.18
443.05	5600.90
443.24	5668.78
443.43	5827.93
443.61	5839.64
443.80	6022.20
443.98	5708.57
444.17	5610.26
444.35	5825.59
444.54	6031.56
444.73	5905.17
444.91	5750.70
445.10	5846.66
445.28	5863.04
445.47	5727.29
445.65	5605.58
445.84	5872.40
446.02	5905.17
446.21	5844.32
446.39	5935.60
446.58	6005.81
446.77	6111.14
446.95	5717.93
447.14	5844.32
447.32	5954.32
447.51	6003.47
447.69	6040.92
447.88	5820.91
448.06	6036.24
448.25	5987.09
448.43	6078.37
448.62	6080.71
448.80	6132.20
448.99	6069.01
449.17	6237.53
449.36	6031.56
449.54	6169.65
449.73	6267.95
449.91	6361.58
450.10	6214.12
450.28	6382.64
450.46	6314.77
450.65	6359.24
450.83	6326.47
451.02	6462.22
451.20	6424.77
451.39	6464.56
451.57	6176.67
451.76	6506.69
451.94	6509.03
452.13	6420.09
452.31	6457.54
452.49	6420.09
452.68	6546.48
452.86	6661.16
453.05	6516.05
453.23	6476.26
453.42	6626.06
453.60	6583.93
453.78	6619.04
453.97	6574.56
454.15	6733.72
454.34	6649.46
454.52	6773.51
454.70	6773.51
454.89	6848.41
455.07	6719.68
455.26	6808.62
455.44	6738.40
455.62	7023.95
455.81	6916.28
455.99	7056.72
456.17	7028.63
456.36	6916.28
456.54	7101.19
456.73	7190.13
456.91	7211.19
457.09	7157.36
457.28	7307.15
457.46	7194.81
457.64	7452.27
457.83	7360.98
458.01	7183.10
458.19	7297.79
458.38	7295.45
458.56	7410.14
458.74	7463.97
458.93	7215.87
459.11	7456.95
459.29	7559.93
459.48	7508.44
459.66	7321.20
459.84	7566.95
460.03	7604.40
460.21	7742.49
460.39	7676.96
460.57	7691.00
460.76	7641.85
460.94	7662.91
461.12	7698.02
461.31	7770.58
461.49	7786.96
461.67	7859.52
461.85	7957.82
462.04	7932.08
462.22	7962.50
462.40	7896.97
462.59	8098.25
462.77	8070.17
462.95	8023.36
463.13	7906.33
463.32	8051.44
463.50	8016.33
463.68	8266.77
463.86	8135.70
464.05	7960.16
464.23	8079.53
464.41	8269.11
464.59	8166.13
464.78	8205.92
464.96	8142.72
465.14	8458.70
465.32	8402.52
465.50	8510.19
465.69	8379.12
465.87	8393.16
466.05	8355.71
466.23	8360.39
466.41	8379.12
466.60	8564.02
466.78	8390.82
466.96	8482.10
467.14	8351.03
467.32	8540.61
467.51	8528.91
467.69	8521.89
467.87	8627.21
468.05	8437.63
468.23	8573.38
468.41	8542.96
468.60	8617.85
468.78	8697.43
468.96	8662.32
469.14	8807.44
469.32	8809.78
469.50	8589.77
469.69	8966.59
469.87	9111.71
470.05	8990.00
470.23	8982.98
470.41	9102.34
470.59	9153.84
470.77	8954.89
470.95	9090.64
471.14	9036.81
471.32	9032.13
471.50	9240.44
471.68	9245.12
471.86	9366.82
472.04	9458.10
472.22	9621.94
472.40	9320.01
472.58	9568.11
472.77	9455.76
472.95	9745.99
473.13	9923.87
473.31	9664.07
473.49	9706.20
473.67	9853.66
473.85	9790.46
474.03	9937.91
474.21	9914.51
474.39	10113.45
474.57	10251.55
474.75	10167.29
474.93	10174.31
475.12	10307.72
475.30	10249.21
475.48	10195.37
475.66	10324.10
475.84	10387.30
476.02	10509.01
476.20	10494.96
476.38	10724.33
476.56	10864.77
476.74	10808.59
476.92	10956.05
477.10	10806.25
477.28	10867.11
477.46	10951.37
477.64	11021.58
477.82	11166.70
478.00	11620.76
478.18	11602.04
478.36	11557.57
478.54	11695.66
478.72	11501.39
478.90	11822.05
479.08	11943.75
479.26	11920.35
479.44	11845.45
479.62	12131.00
479.80	12145.04
479.98	12411.86
480.16	12437.61
480.34	12500.80
480.52	12430.59
480.70	12521.87
480.88	12514.84
481.06	12692.73
481.24	12868.27
481.41	12945.50
481.59	13107.00
481.77	12938.48
481.95	13348.08
482.13	13645.32
482.31	13380.84
482.49	13589.15
482.67	13305.95
482.85	13827.88
483.03	13874.70
483.21	14193.01
483.39	14092.37
483.57	14043.21
483.74	14335.78
483.92	14544.09
484.10	14588.56
484.28	14747.72
484.46	14960.70
484.64	15250.93
484.82	14890.49
485.00	15129.22
485.18	15346.89
485.35	15672.23
485.53	15267.31
485.71	15433.49
485.89	15843.09
486.07	15997.56
486.25	15925.00
486.43	16271.40
486.61	16133.31
486.78	16271.40
486.96	16290.13
487.14	16795.68
487.32	16622.48
487.50	16730.15
487.68	16779.30
487.85	17146.76
488.03	17343.37
488.21	17923.82
488.39	17362.09
488.57	17649.98
488.75	17596.15
488.92	18097.02
489.10	17893.40
489.28	18335.76
489.46	18237.45
489.64	18405.97
489.81	18551.09
489.99	18689.18
490.17	18604.92
490.35	19019.19
490.53	18780.46
490.70	19098.77
490.88	19094.09
491.06	19508.37
491.24	19365.59
491.41	19459.21
491.59	19644.12
491.77	19477.94
491.95	20135.63
492.13	20264.36
492.30	20004.56
492.48	20072.43
492.66	20273.72
492.84	20367.34
493.01	20219.89
493.19	20545.22
493.37	21013.33
493.54	21006.31
493.72	21069.50
493.90	20992.26
494.08	21666.34
494.25	21507.18
494.43	21610.17
494.61	22008.06
494.79	21692.08
494.96	21759.96
495.14	22225.73
495.32	22209.34
495.49	22188.28
495.67	22207.00
495.85	22852.99
496.02	22658.73
496.20	23096.41
496.38	22899.80
496.55	22885.76
496.73	23501.32
496.91	23267.27
497.09	23323.44
497.26	23585.58
497.44	23508.34
497.62	23543.45
497.79	23868.78
497.97	23892.19
498.14	24159.01
498.32	23992.83
498.50	24095.82
498.67	24584.99
498.85	24442.21
499.03	24397.74
499.20	24381.36
499.38	24943.09
499.56	24905.64
499.73	25280.13
499.91	25029.69
500.08	25137.35
500.26	24741.80
500.44	24994.58
500.61	25287.15
500.79	24933.73
500.97	25568.01
501.14	25827.81
501.32	26054.84
501.49	25586.74
501.67	25937.82
501.84	26363.79
502.02	26073.57
502.20	26548.70
502.37	26562.74
502.55	26003.35
502.72	26555.72
502.90	26382.52
503.07	26237.41
503.25	26569.76
503.43	26476.14
503.60	27016.80
503.78	27143.19
503.95	26902.12
504.13	27051.91
504.30	27182.98
504.48	26953.61
504.65	27180.64
504.83	27578.53
505.01	27950.68
505.18	27534.06
505.36	27679.18
505.53	27920.25
505.71	28098.13
505.88	27814.93
506.06	27569.17
506.23	28336.87
506.41	28215.16
506.58	27964.72
506.76	28360.27
506.93	28381.34
507.11	28514.75
507.28	28786.25
507.46	29013.28
507.63	28804.97
507.81	29167.76
507.98	28854.12
508.16	28992.22
508.33	28994.56
508.50	29226.27
508.68	29160.73
508.85	29799.70
509.03	29392.45
509.20	29724.80
509.38	29919.07
509.55	29996.31
509.73	30082.91
509.90	29996.31
510.08	30134.40
510.25	29818.42
510.42	30508.88
510.60	30085.25
510.77	30607.19
510.95	30565.06
511.12	29972.90
511.30	30520.59
511.47	30679.74
511.64	30677.40
511.82	30960.61
511.99	30810.81
512.17	30962.95
512.34	30960.61
512.51	31246.15
512.69	31110.40
512.86	31295.30
513.04	31541.06
513.21	31337.43
513.38	31845.33
513.56	31868.73
513.73	31576.17
513.90	31700.22
514.08	31452.12
514.25	31857.03
514.43	32212.79
514.60	32006.83
514.77	31873.42
514.95	32367.27
515.12	32278.33
515.29	32180.03
515.47	32173.00
515.64	32818.99
515.81	32662.18
515.99	33106.88
516.16	32973.47
516.33	33039.00
516.51	33146.67
516.68	32816.65
516.85	33195.82
517.03	32954.74
517.20	33741.16
517.37	33104.54
517.54	33610.09
517.72	33298.80
517.89	33303.48
518.06	33626.48
518.24	33207.52
518.41	33731.80
518.58	33504.77
518.75	33558.60
518.93	33727.12
519.10	34040.75
519.27	33750.52
519.45	33820.74
519.62	33993.94
519.79	33834.78
519.96	34436.30
520.14	34380.13
520.31	33970.54
520.48	34892.71
520.65	34487.79
520.83	34969.94
521.00	34607.16
521.17	34717.17
521.34	35119.74
521.52	34892.71
521.69	34981.65
521.86	35351.45
522.03	35660.40
522.20	35103.35
522.38	34864.62
522.55	35302.30
522.72	35264.85
522.89	35915.52
523.07	35597.21
523.24	35379.54
523.41	36044.25
523.58	35531.67
523.75	36163.62
523.92	35814.88
524.10	35480.18
524.27	35564.44
524.44	36095.74
524.61	36257.24
524.78	36708.96
524.96	36360.22
525.13	36140.21
525.30	36477.25
525.47	36896.20
525.64	36353.20
525.81	36769.82
525.98	36926.63
526.16	37038.98
526.33	36971.10
526.50	37055.36
526.67	36355.54
526.84	36676.19
527.01	36818.97
527.18	37216.86
527.36	37242.60
527.53	37191.11
527.70	37453.25
527.87	37731.78
528.04	37263.67
528.21	37010.89
528.38	36935.99
528.55	38134.35
528.72	37439.21
528.89	37703.69
529.07	37970.51
529.24	37399.42
529.41	37801.99
529.58	37750.50
529.75	37778.59
529.92	37944.76
530.09	37876.89
530.26	38031.36
530.43	38087.54
530.60	38139.03
530.77	38190.52
530.94	38251.38
531.11	38438.62
531.28	38293.50
531.46	38312.23
531.63	38827.15
531.80	38623.52
531.97	38398.83
532.14	38983.96
532.31	38770.97
532.48	38218.61
532.65	38939.49
532.82	38768.63
532.99	38916.09
533.16	38768.63
533.33	39051.84
533.50	39358.45
533.67	39316.32
533.84	39054.18
534.01	39206.31
534.18	38754.59
534.35	39194.61
534.52	38749.91
534.69	39969.33
534.86	39524.63
535.03	39278.87
535.20	39772.72
535.37	39735.27
535.54	39695.49
535.71	39449.73
535.88	39901.45
536.05	39852.30
536.22	40011.46
536.38	39948.26
536.55	39770.38
536.72	40044.23
536.89	39632.29
537.06	40240.83
537.23	40205.72
537.40	39810.17
537.57	39889.75
537.74	40126.14
537.91	40673.83
538.08	40418.71
538.25	40299.34
538.42	40121.46
538.59	40547.44
538.75	39665.06
538.92	40423.39
539.09	40924.27
539.26	40727.66
539.43	41139.60
539.60	40814.26
539.77	40945.33
539.94	41022.57
540.11	40697.24
540.28	40837.67
540.44	41385.35
540.61	40882.14
540.78	41111.51
540.95	41284.71
541.12	41450.89
541.29	41544.51
541.46	41284.71
541.62	41237.90
541.79	41675.58
541.96	41324.50
542.13	41478.97
542.30	41263.64
542.47	41603.02
542.63	42026.66
542.80	41862.82
542.97	42246.67
543.14	41982.19
543.31	42249.01
543.48	41951.76
543.64	42337.95
543.81	42412.85
543.98	42478.38
544.15	42637.54
544.32	42600.09
544.48	42227.95
544.65	42403.49
544.82	41893.25
544.99	42270.08
545.16	42377.74
545.32	42457.32
545.49	43328.00
545.66	43555.03
545.83	43866.32
546.00	43662.69
546.16	43030.75
546.33	42660.94
546.50	42099.22
546.67	42745.20
546.83	42171.77
547.00	42918.40
547.17	42883.30
547.34	42988.62
547.50	43100.97
547.67	43697.80
547.84	43145.44
548.00	42679.67
548.17	42906.70
548.34	42993.30
548.51	43241.40
548.67	43271.82
548.84	43014.37
549.01	43311.61
549.18	43150.12
549.34	43299.91
549.51	43086.92
549.68	42988.62
549.84	43079.90
550.01	43388.85
550.18	43206.29
550.34	43384.17
550.51	43627.59
550.68	43662.69
550.84	43005.00
551.01	43526.94
551.18	43028.41
551.34	43320.98
551.51	43849.94
551.68	43594.82
551.84	43571.41
552.01	43501.20
552.18	43875.68
552.34	43468.43
552.51	43648.65
552.68	43557.37
552.84	43728.23
553.01	43772.70
553.18	43761.00
553.34	43936.54
553.51	43920.15
553.67	44030.16
553.84	44126.12
554.01	44287.62
554.17	43899.09
554.34	44098.03
554.51	44215.06
554.67	44399.96
554.84	44416.35
555.00	43817.17
555.17	43990.37
555.33	43807.81
555.50	44381.24
555.67	43978.67
555.83	44135.48
556.00	43931.86
556.16	44444.43
556.33	44839.98
556.50	44257.19
556.66	44662.10
556.83	44217.40
556.99	44357.83
557.16	44872.75
557.32	44561.46
557.49	44949.99
557.65	44566.14
557.82	44348.47
557.98	44357.83
558.15	44629.34
558.32	44692.53
558.48	44486.56
558.65	44729.98
558.81	44893.82
558.98	44722.96
559.14	44907.86
559.31	44519.33
559.47	44456.14
559.64	44879.77
559.80	44636.36
559.97	44999.14
560.13	44535.71
560.30	44954.67
560.46	45064.67
560.63	44800.19
560.79	44872.75
560.96	45090.42
561.12	44760.40
561.29	45113.83
561.45	45050.63
561.61	44577.84
561.78	45170.00
561.94	44769.77
562.11	44973.39
562.27	45071.70
562.44	44713.59
562.60	44460.82
562.77	44821.26
562.93	44924.24
563.10	45457.88
563.26	44952.33
563.42	45436.82
563.59	45195.74
563.75	45050.63
563.92	45272.98
564.08	45202.77
564.24	45375.97
564.41	45469.59
564.57	44692.53
564.74	44921.90
564.90	44816.58
565.07	45308.09
565.23	45509.38
565.39	45621.72
565.56	45315.11
565.72	44889.13
565.88	44828.28
566.05	44751.04
566.21	45162.98
566.38	45233.19
566.54	44975.73
566.70	45181.70
566.87	45577.25
567.03	45277.66
567.19	45689.60
567.36	45460.23
567.52	45081.06
567.68	45277.66
567.85	44954.67
568.01	45422.78
568.17	45244.90
568.34	45322.13
568.50	45371.28
568.66	45242.56
568.83	45631.08
568.99	45268.30
569.15	45228.51
569.32	45158.30
569.48	44900.84
569.64	45289.37
569.81	44858.71
569.97	45045.95
570.13	45471.93
570.30	45420.44
570.46	45478.95
570.62	45598.32
570.78	45249.58
570.95	45361.92
571.11	45366.60
571.27	45268.30
571.43	44870.41
571.60	45277.66
571.76	45373.63
571.92	45638.11
572.09	45673.21
572.25	45354.90
572.41	45757.47
572.57	45502.35
572.74	45558.53
572.90	45296.39
573.06	45556.19
573.22	45191.06
573.38	45432.14
573.55	45790.24
573.71	45839.39
573.87	45752.79
574.03	45420.44
574.20	45628.74
574.36	45261.28
574.52	45390.01
574.68	45242.56
574.84	45242.56
575.01	45808.96
575.17	45588.95
575.33	45308.09
575.49	45666.19
575.65	45595.98
575.82	45914.29
575.98	45577.25
576.14	45553.85
576.30	45827.69
576.46	45783.22
576.62	45404.05
576.79	45610.02
576.95	45172.34
577.11	45666.19
577.27	45682.58
577.43	45766.84
577.59	45361.92
577.75	45860.46
577.92	45546.82
578.08	45045.95
578.24	45298.73
578.40	45748.11
578.56	45743.43
578.72	45635.77
578.88	45801.94
579.04	46057.06
579.21	45691.94
579.37	45734.07
579.53	45787.90
579.69	45736.41
579.85	45521.08
580.01	45586.61
580.17	45727.05
580.33	45656.83
580.49	45457.88
580.65	46089.83
580.82	45406.39
580.98	45495.33
581.14	45769.18
581.30	46000.89
581.46	45378.31
581.62	45361.92
581.78	45258.94
581.94	46028.98
582.10	45357.24
582.26	45642.79
582.42	45921.31
582.58	46052.38
582.74	45911.95
582.90	45902.59
583.06	45727.05
583.22	45605.34
583.38	45298.73
583.54	45446.18
583.70	45301.07
583.86	45331.50
584.02	45743.43
584.18	45911.95
584.34	45638.11
584.50	45691.94
584.66	45579.59
584.82	45382.99
584.98	45813.65
585.14	45212.13
585.30	45397.03
585.46	45455.54
585.62	45209.79
585.78	45392.35
585.94	45659.17
586.10	46073.45
586.26	46101.53
586.42	45923.65
586.58	46110.89
586.74	45478.95
586.90	45743.43
587.06	45790.24
587.22	45844.07
587.38	45476.61
587.54	45776.20
587.70	46096.85
587.86	46019.61
588.02	45748.11
588.18	46087.49
588.34	46274.73
588.49	45624.06
588.65	45495.33
588.81	45518.74
588.97	46007.91
589.13	45940.04
589.29	45883.86
589.45	45689.60
589.61	46101.53
589.77	46305.16
589.93	46370.69
590.08	46216.22
590.24	45886.20
590.40	46122.60
590.56	45823.01
590.72	45813.65
590.88	45574.91
591.04	46075.79
591.20	46274.73
591.35	45853.44
591.51	46492.40
591.67	45977.48
591.83	46190.47
591.99	46160.05
592.15	46071.10
592.31	46230.26
592.46	45808.96
592.62	46007.91
592.78	45776.20
592.94	45897.91
593.10	46239.62
593.26	46260.69
593.41	46185.79
593.57	45930.67
593.73	46033.66
593.89	46284.09
594.05	46050.04
594.20	45914.29
594.36	45975.14
594.52	45830.03
594.68	45951.74
594.84	45661.51
594.99	46469.00
595.15	46288.77
595.31	46274.73
595.47	46211.54
595.62	46391.76
595.78	45848.75
595.94	45937.69
596.10	45949.40
596.25	45855.78
596.41	45808.96
596.57	46010.25
596.73	45933.01
596.88	45860.46
597.04	46031.32
597.20	46330.90
597.36	46349.63
597.51	46363.67
597.67	46176.43
597.83	45535.12
597.99	46082.81
598.14	45776.20
598.30	46038.34
598.46	45640.45
598.61	46019.61
598.77	45958.76
598.93	46000.89
599.09	46124.94
599.24	46555.60
599.40	46071.10
599.56	46218.56
599.71	46197.49
599.87	45785.56
600.03	46206.86
600.18	45755.13
600.34	46206.86
600.50	46131.96
600.65	45937.69
600.81	46260.69
600.97	45940.04
601.12	46522.83
601.28	46454.95
601.44	45989.19
601.59	46129.62
601.75	45918.97
601.91	45975.14
602.06	45745.77
602.22	45914.29
602.37	45762.15
602.53	45628.74
602.69	46155.36
602.84	45687.26
603.00	45656.83
603.16	46157.70
603.31	45958.76
603.47	45701.30
603.62	45982.16
603.78	46192.81
603.94	45631.08
604.09	45530.44
604.25	45748.11
604.40	45483.63
604.56	45879.18
604.71	46499.42
604.87	46064.08
605.03	45872.16
605.18	45797.26
605.34	45542.14
605.49	45757.47
605.65	45818.33
605.80	45600.66
605.96	45502.35
606.12	45670.87
606.27	46036.00
606.43	45680.24
606.58	45729.39
606.74	45986.85
606.89	45790.24
607.05	45970.46
607.20	45659.17
607.36	45277.66
607.51	45586.61
607.67	45301.07
607.82	45507.04
607.98	45371.28
608.13	45539.80
608.29	45588.95
608.44	45790.24
608.60	45193.40
608.75	45310.43
608.91	45954.08
609.06	45326.81
609.22	45567.89
609.37	44708.91
609.53	45783.22
609.68	45422.78
609.84	45041.27
609.99	45338.52
610.15	45530.44
610.30	45530.44
610.46	45605.34
610.61	45993.87
610.76	45914.29
610.92	46256.01
611.07	46127.28
611.23	46213.88
611.38	46061.74
611.54	45886.20
611.69	45663.85
611.84	45607.68
612.00	45778.54
612.15	45088.08
612.31	45467.25
612.46	45544.48
612.62	45764.49
612.77	45090.42
612.92	45675.55
613.08	45064.67
613.23	45177.02
613.39	44919.56
613.54	44615.29
613.69	44924.24
613.85	44573.16
614.00	45151.27
614.15	44648.06
614.31	44952.33
614.46	45090.42
614.62	44973.39
614.77	45340.86
614.92	45055.31
615.08	44776.79
615.23	45258.94
615.38	44364.85
615.54	44641.04
615.69	44603.59
615.84	44559.12
616.00	44666.78
616.15	44404.64
616.30	44889.13
616.46	44484.22
616.61	44423.37
616.76	44381.24
616.92	44816.58
617.07	44650.40
617.22	44182.29
617.37	44079.31
617.53	44149.53
617.68	44051.22
617.83	44252.51
617.99	44289.96
618.14	44088.67
618.29	44041.86
618.45	44224.42
618.60	44058.24
618.75	44318.04
618.90	44245.49
619.06	44025.48
619.21	44018.46
619.36	43885.04
619.51	44067.61
619.67	43573.75
619.82	43604.18
619.97	43709.50
620.12	43555.03
620.28	43597.16
620.43	44346.13
620.58	43969.30
620.73	44114.42
620.89	44275.91
621.04	43999.73
621.19	43915.47
621.34	43650.99
621.49	43377.15
621.65	43468.43
621.80	43709.50
621.95	43632.27
622.10	43063.52
622.25	43522.26
622.41	43777.38
622.56	43681.42
622.71	43777.38
622.86	43302.25
623.01	43763.34
623.16	43283.53
623.32	43262.46
623.47	43110.33
623.62	43344.38
623.77	43323.32
623.92	43086.92
624.07	43323.32
624.23	43325.66
624.38	43194.59
624.53	43107.99
624.68	43461.41
624.83	43468.43
624.98	42906.70
625.13	43262.46
625.29	43215.65
625.44	42431.57
625.59	42487.74
625.74	42749.88
625.89	42698.39
626.04	42359.02
626.19	43058.84
626.34	42801.38
626.49	42452.64
626.65	42717.12
626.80	43175.86
626.95	42712.44
627.10	42415.19
627.25	42969.90
627.40	42628.18
627.55	42359.02
627.70	42293.48
627.85	42335.61
628.00	42115.60
628.15	42213.90
628.30	42244.33
628.45	42139.00
628.60	42370.72
628.76	42387.10
628.91	42120.28
629.06	42312.20
629.21	42080.49
629.36	42045.38
629.51	42206.88
629.66	41998.57
629.81	41888.57
629.96	42026.66
630.11	41935.38
630.26	41860.48
630.41	41902.61
630.56	41921.34
630.71	42478.38
630.86	42089.85
631.01	42096.88
631.16	42167.09
631.31	42089.85
631.46	41883.89
631.61	41914.31
631.76	41972.83
631.91	41724.73
632.06	41607.70
632.21	41603.02
632.36	41567.91
632.51	41443.87
632.66	41460.25
632.81	41797.29
632.96	41244.92
633.10	41191.09
633.25	41855.80
633.40	41296.41
633.55	41392.37
633.70	41490.68
633.85	41184.07
634.00	41174.70
634.15	41457.91
634.30	41036.61
634.45	41464.93
634.60	41333.86
634.75	41436.84
634.90	41181.73
635.05	41221.52
635.19	40903.20
635.34	41303.43
635.49	41368.97
635.64	41610.04
635.79	40767.45
635.94	41043.63
636.09	40601.27
636.24	40950.01
636.39	40744.05
636.53	40886.82
636.68	40414.03
636.83	40769.79
636.98	40517.01
637.13	40685.53
637.28	40631.70
637.43	40793.20
637.57	40928.95
637.72	40479.57
637.87	40435.10
638.02	40837.67
638.17	40521.69
638.32	40430.41
638.46	40287.64
638.61	40498.29
638.76	40339.13
638.91	40182.32
639.06	40388.28
639.20	40226.79
639.35	40566.16
639.50	40311.05
639.65	40442.12
639.80	40470.20
639.94	40135.51
640.09	40264.24
640.24	39845.28
640.39	40215.08
640.54	39798.47
640.68	39662.72
640.83	40053.59
640.98	39484.84
641.13	40088.70
641.27	40037.20
641.42	39988.05
641.57	40034.86
641.72	40044.23
641.86	39959.97
642.01	39744.64
642.16	39978.69
642.31	39370.15
642.45	39913.16
642.60	39906.13
642.75	39847.62
642.90	39681.44
643.04	39557.39
643.19	39112.69
643.34	39910.82
643.48	39445.05
643.63	39510.58
643.78	39620.59
643.93	39739.96
644.07	39906.13
644.22	39625.27
644.37	39541.01
644.51	39220.36
644.66	39826.56
644.81	39533.99
644.95	39234.40
645.10	39510.58
645.25	39218.02
645.39	39454.41
645.54	39730.59
645.69	39793.79
645.83	39456.75
645.98	39110.35
646.13	39470.79
646.27	39342.06
646.42	39337.38
646.57	39159.50
646.71	39267.17
646.86	39250.78
647.00	38953.54
647.15	38946.51
647.30	38979.28
647.44	38888.00
647.59	39119.71
647.74	38822.47
647.88	38810.76
648.03	39063.54
648.17	39358.45
648.32	38913.75
648.47	39416.96
648.61	38822.47
648.76	38965.24
648.90	38855.23
649.05	38541.60
649.20	38916.09
649.34	38340.32
649.49	38436.28
649.63	38040.73
649.78	38621.18
649.92	38703.10
650.07	39051.84
650.21	38731.18
650.36	38401.17
650.51	38117.96
650.65	38855.23
650.80	38651.61
650.94	38590.75
651.09	38150.73
651.23	38335.63
651.38	38234.99
651.52	38160.09
651.67	38106.26
651.81	38068.81
651.96	38036.05
652.10	37940.08
652.25	37752.84
652.39	38326.27
652.54	38473.73
652.68	38471.39
652.83	38391.81
652.97	38480.75
653.12	38249.03
653.26	38031.36
653.41	38134.35
653.55	37919.02
653.70	37680.28
653.84	37832.42
653.99	37607.73
654.13	37745.82
654.27	37780.93
654.42	38012.64
654.56	37944.76
654.71	38047.75
654.85	37762.20
655.00	38242.01
655.14	37490.70
655.29	37570.28
655.43	37750.50
655.57	37654.54
655.72	37474.32
655.86	37460.27
656.01	37635.81
656.15	37074.09
656.30	37340.91
656.44	37331.54
656.58	37448.57
656.73	37156.00
656.87	37312.82
657.01	37750.50
657.16	37228.56
657.30	37261.33
657.45	37429.85
657.59	37720.07
657.73	37083.45
657.88	37013.23
658.02	36947.70
658.16	37237.92
658.31	36903.23
658.45	36833.01
658.60	36598.96
658.74	36769.82
658.88	36685.56
659.03	36896.20
659.17	36416.40
659.31	36797.90
659.46	37099.83
659.60	36582.57
659.74	36994.51
659.89	36807.26
660.03	36971.10
660.17	36528.74
660.32	36594.28
660.46	36254.90
660.60	36009.14
660.74	36233.83
660.89	36533.42
661.03	36065.31
661.17	36002.12
661.32	36112.13
661.46	36191.70
661.60	36229.15
661.74	36128.51
661.89	36222.13
662.03	36177.66
662.17	35690.83
662.31	35761.05
662.46	35908.50
662.60	35639.34
662.74	35859.35
662.88	35332.73
663.03	35559.76
663.17	35737.64
663.31	35536.35
663.45	35381.88
663.60	35220.38
663.74	35522.31
663.88	35505.93
664.02	35407.62
664.17	35653.38
664.31	35124.42
664.45	35328.05
664.59	35253.15
664.73	35409.96
664.88	35147.82
665.02	34864.62
665.16	34878.66
665.30	34976.97
665.44	35000.37
665.59	34597.80
665.73	34349.70
665.87	34469.07
666.01	34518.22
666.15	34979.31
666.29	34651.63
666.44	34796.74
666.58	34288.85
666.72	34616.52
666.86	34230.33
667.00	34672.70
667.14	34010.32
667.28	33797.34
667.43	34000.96
667.57	34110.97
667.71	34141.39
667.85	33956.49
667.99	34227.99
668.13	33514.13
668.27	33755.21
668.41	33713.08
668.56	33860.53
668.70	33979.90
668.84	33722.44
668.98	33741.16
669.12	33724.78
669.26	33923.72
669.40	33560.94
669.54	33362.00
669.68	33219.22
669.82	33273.06
669.96	33273.06
670.10	33287.10
670.25	33301.14
670.39	33263.69
670.53	33006.23
670.67	32828.35
670.81	33289.44
670.95	32971.13
671.09	32961.76
671.23	33172.41
671.37	33132.62
671.51	33237.95
671.65	32889.21
671.79	32566.21
671.93	32442.17
672.07	32329.82
672.21	32217.47
672.35	32151.94
672.49	31962.36
672.63	32173.00
672.77	31889.80
672.91	32030.23
673.05	31835.97
673.19	32210.45
673.33	31473.18
673.47	31742.35
673.61	31906.18
673.75	31484.89
673.89	31751.71
674.03	31924.91
674.17	31468.50
674.31	31307.01
674.45	31267.22
674.59	31103.38
674.73	31054.23
674.87	31182.96
675.01	31250.83
675.15	31072.95
675.29	31164.23
675.43	30892.73
675.56	30682.08
675.70	30859.96
675.84	30998.06
675.98	30005.67
676.12	30595.48
676.26	30876.35
676.40	30904.43
676.54	30424.62
676.68	30347.39
676.82	29806.72
676.96	29944.81
677.10	29914.39
677.23	29596.07
677.37	29710.76
677.51	29647.57
677.65	29537.56
677.79	29266.06
677.93	29362.02
678.07	29333.93
678.21	29099.88
678.34	29212.23
678.48	29549.26
678.62	29392.45
678.76	29113.92
678.90	29193.50
679.04	28875.19
679.18	28690.29
679.31	28273.67
679.45	28374.31
679.59	28381.34
679.73	28276.01
679.87	27906.21
680.00	28325.16
680.14	27763.43
680.28	27688.54
680.42	27871.10
680.56	27971.74
680.70	27562.15
680.83	27826.63
680.97	27857.06
681.11	27950.68
681.25	27623.00
681.39	27412.35
681.52	27459.16
681.66	27262.56
681.80	27269.58
681.94	26759.34
682.07	27112.77
682.21	26801.47
682.35	26654.02
682.49	26813.18
682.62	26403.58
682.76	26352.09
682.90	26410.60
683.04	26506.57
683.17	26359.11
683.31	26057.18
683.45	26581.46
683.59	26204.64
683.72	26150.81
683.86	25926.11
684.00	25830.15
684.13	25872.28
684.27	25752.91
684.41	25696.74
684.55	25415.88
684.68	25720.15
684.82	25132.67
684.96	24830.74
685.09	25020.33
685.23	25324.60
685.37	25104.59
685.50	25560.99
685.64	25120.97
685.78	24861.17
685.91	25015.65
686.05	25001.60
686.19	24610.73
686.32	24458.60
686.46	24531.15
686.60	24163.69
686.73	24350.93
686.87	24023.26
687.01	24002.19
687.14	23974.11
687.28	23711.97
687.42	23800.91
687.55	23758.78
687.69	23632.39
687.82	23501.32
687.96	23524.72
688.10	23311.74
688.23	23681.54
688.37	23201.73
688.50	23300.03
688.64	23608.98
688.78	23204.07
688.91	22738.30
689.05	22714.90
689.18	22850.65
689.32	22665.75
689.46	22742.99
689.59	22118.06
689.73	22328.71
689.86	22223.39
690.00	22270.20
690.13	22295.94
690.27	22314.67
690.41	22202.32
690.54	21977.63
690.68	21898.05
690.81	21898.05
690.95	21715.49
691.08	21982.31
691.22	21813.79
691.35	21392.50
691.49	21837.20
691.62	21404.20
691.76	21355.05
691.89	21287.17
692.03	20926.73
692.16	20680.97
692.30	20893.96
692.43	20599.05
692.57	20786.30
692.70	20460.96
692.84	20772.25
692.97	20821.41
693.11	20166.06
693.24	20489.05
693.38	20496.07
693.51	20339.26
693.65	20477.35
693.78	20184.78
693.92	20063.07
694.05	19913.28
694.19	19953.07
694.32	19447.51
694.45	19557.52
694.59	19639.44
694.72	19377.30
694.86	19250.91
694.99	19049.62
695.13	19501.34
695.26	19058.98
695.39	19075.37
695.53	19225.16
695.66	19051.96
695.80	18946.64
695.93	18857.70
696.07	19073.03
696.20	19129.20
696.33	18668.11
696.47	18724.29
696.60	18845.99
696.73	18178.94
696.87	18075.96
697.00	18267.88
697.14	18113.41
697.27	18092.34
697.40	17781.05
697.54	18085.32
697.67	17610.19
697.80	17596.15
697.94	17867.65
698.07	17390.18
698.21	17633.60
698.34	17710.83
698.47	17610.19
698.61	17149.11
698.74	17490.82
698.87	17355.07
699.01	17303.58
699.14	17317.62
699.27	17345.71
699.40	16884.62
699.54	16748.87
699.67	16730.15
699.80	16580.36
699.94	16463.33
700.07	16191.83
700.20	16325.24
700.34	16205.87
700.47	16081.82
700.60	16212.89
700.73	16252.68
700.87	16121.61
701.00	16102.89
701.13	15864.15
701.26	16203.53
701.40	15950.75
701.53	15929.69
701.66	15875.85
701.79	15950.75
701.93	15676.91
702.06	15070.71
702.19	15335.19
702.32	15501.37
702.46	15255.61
702.59	15068.37
702.72	15201.78
702.85	15042.62
702.99	15026.24
703.12	14738.35
703.25	15124.54
703.38	14682.18
703.51	14801.55
703.65	14949.00
703.78	14635.37
703.91	14644.73
704.04	14633.03
704.17	14361.53
704.31	14417.70
704.44	14377.91
704.57	14223.44
704.70	14143.86
704.83	14083.00
704.96	13820.86
705.10	13745.97
705.23	13916.83
>>>>>End Processed Spectral Data<<<<<
