SpectraSuite Data File
++++++++++++++++++++++++++++++++++++
Date: Tue Oct 01 18:27:28 GMT-05:00 2013
User: stostad
Dark Spectrum Present: No
Reference Spectrum Present: No
Number of Sampled Component Spectra: 1
Spectrometers: USB2+H05261
Integration Time (usec): 100000 (USB2+H05261)
Spectra Averaged: 1 (USB2+H05261)
Boxcar Smoothing: 0 (USB2+H05261)
Correct for Electrical Dark: No (USB2+H05261)
Strobe/Lamp Enabled: No (USB2+H05261)
Correct for Detector Non-linearity: No (USB2+H05261)
Correct for Stray Light: No (USB2+H05261)
Number of Pixels in Processed Spectrum: 2048
>>>>>Begin Processed Spectral Data<<<<<
365.73	51.49
365.92	51.49
366.12	51.49
366.32	9.36
366.52	9.36
366.72	0.00
366.91	0.00
367.11	0.00
367.31	0.00
367.51	0.00
367.70	0.00
367.90	0.00
368.10	0.00
368.30	0.00
368.49	0.00
368.69	2.34
368.89	0.00
369.09	0.00
369.28	0.00
369.48	58.51
369.68	23.41
369.87	0.00
370.07	14.04
370.27	42.13
370.47	93.62
370.66	252.78
370.86	257.46
371.06	257.46
371.25	308.95
371.45	269.16
371.65	386.19
371.84	379.17
372.04	409.59
372.24	360.44
372.44	404.91
372.63	313.63
372.83	393.21
373.03	376.83
373.22	388.53
373.42	440.02
373.62	376.83
373.81	472.79
374.01	416.62
374.21	496.19
374.40	414.27
374.60	463.43
374.79	435.34
374.99	379.17
375.19	421.30
375.38	444.70
375.58	451.72
375.78	477.47
375.97	470.45
376.17	503.22
376.37	451.72
376.56	463.43
376.76	470.45
376.95	484.49
377.15	519.60
377.35	491.51
377.54	482.15
377.74	505.56
377.93	409.59
378.13	458.74
378.33	486.83
378.52	451.72
378.72	547.69
378.91	512.58
379.11	465.77
379.31	491.51
379.50	505.56
379.70	498.53
379.89	512.58
380.09	543.00
380.28	498.53
380.48	465.77
380.68	545.34
380.87	533.64
381.07	561.73
381.26	512.58
381.46	575.77
381.65	543.00
381.85	496.19
382.04	564.07
382.24	547.69
382.43	554.71
382.63	468.11
382.83	566.41
383.02	638.97
383.22	550.03
383.41	531.30
383.61	543.00
383.80	638.97
384.00	617.90
384.19	552.37
384.39	561.73
384.58	613.22
384.78	624.92
384.97	582.79
385.17	620.24
385.36	594.50
385.56	655.35
385.75	638.97
385.95	538.32
386.14	613.22
386.34	638.97
386.53	629.60
386.72	685.78
386.92	631.94
387.11	573.43
387.31	638.97
387.50	662.37
387.70	709.18
387.89	725.57
388.09	660.03
388.28	641.31
388.48	683.44
388.67	704.50
388.86	713.86
389.06	674.07
389.25	676.41
389.45	709.18
389.64	704.50
389.84	784.08
390.03	716.20
390.22	739.61
390.42	695.14
390.61	748.97
390.81	744.29
391.00	765.36
391.19	814.51
391.39	702.16
391.58	674.07
391.78	763.01
391.97	802.80
392.16	774.72
392.36	800.46
392.55	870.68
392.75	842.59
392.94	821.53
393.13	875.36
393.33	840.25
393.52	882.38
393.71	940.90
393.91	938.55
394.10	819.19
394.29	903.45
394.49	858.98
394.68	952.60
394.88	933.87
395.07	936.21
395.26	936.21
395.46	898.77
395.65	997.07
395.84	891.74
396.04	1090.69
396.23	952.60
396.42	1062.60
396.62	1050.90
396.81	1041.54
397.00	1034.52
397.19	987.71
397.39	1027.50
397.58	1118.78
397.77	1048.56
397.97	1160.91
398.16	1130.48
398.35	1090.69
398.55	1048.56
398.74	1109.41
398.93	1041.54
399.12	1137.50
399.32	1116.44
399.51	1102.39
399.70	1177.29
399.90	1086.01
400.09	1116.44
400.28	1174.95
400.47	1160.91
400.67	1240.48
400.86	1282.61
401.05	1205.38
401.24	1177.29
401.44	1254.53
401.63	1306.02
401.82	1320.06
402.01	1277.93
402.21	1306.02
402.40	1380.92
402.59	1273.25
402.78	1273.25
402.97	1345.81
403.17	1270.91
403.36	1369.21
403.55	1413.68
403.74	1416.02
403.93	1390.28
404.13	1406.66
404.32	1385.60
404.51	1348.15
404.70	1481.56
404.89	1462.83
405.09	1526.03
405.28	1509.65
405.47	1530.71
405.66	1516.67
405.85	1497.94
406.05	1579.86
406.24	1617.31
406.43	1675.82
406.62	1624.33
406.81	1774.13
407.00	1629.01
407.20	1657.10
407.39	1682.85
407.58	1640.72
407.77	1830.30
407.96	1818.60
408.15	1755.40
408.34	1753.06
408.54	1774.13
408.73	1799.87
408.92	1767.10
409.11	1802.21
409.30	1916.90
409.49	1888.81
409.68	1914.56
409.87	1860.73
410.07	1940.30
410.26	1998.82
410.45	1984.77
410.64	2062.01
410.83	1973.07
411.02	1909.88
411.21	2090.10
411.40	2092.44
411.59	2047.97
411.78	2052.65
411.98	2169.68
412.17	2181.38
412.36	2211.81
412.55	2298.41
412.74	2420.11
412.93	2296.07
413.12	2200.10
413.31	2331.17
413.50	2450.54
413.69	2289.04
413.88	2345.22
414.07	2382.67
414.26	2459.90
414.45	2527.78
414.64	2469.27
414.83	2567.57
415.02	2565.23
415.22	2523.10
415.41	2586.29
415.60	2612.04
415.79	2640.12
415.98	2616.72
416.17	2712.68
416.36	2696.30
416.55	2668.21
416.74	2939.71
416.93	2832.05
417.12	2794.60
417.31	2785.24
417.50	2881.20
417.69	2981.84
417.88	2878.86
418.07	2988.86
418.26	2918.65
418.45	2850.77
418.64	3007.59
418.83	3082.49
419.02	3035.67
419.21	3162.06
419.39	3150.36
419.58	3042.70
419.77	3000.57
419.96	3087.17
420.15	3194.83
420.34	3119.93
420.53	3178.45
420.72	3171.43
420.91	3197.17
421.10	3337.60
421.29	3328.24
421.48	3159.72
421.67	3318.88
421.86	3190.15
422.05	3414.84
422.24	3337.60
422.43	3328.24
422.61	3445.27
422.80	3391.44
422.99	3478.04
423.18	3396.12
423.37	3485.06
423.56	3417.18
423.75	3428.88
423.94	3309.52
424.13	3169.09
424.32	3178.45
424.50	3496.76
424.69	3499.10
424.88	3576.34
425.07	3412.50
425.26	3452.29
425.45	3473.36
425.64	3438.25
425.83	3503.78
426.01	3538.89
426.20	3508.46
426.39	3515.48
426.58	3480.38
426.77	3548.25
426.96	3503.78
427.15	3510.80
427.33	3515.48
427.52	3653.58
427.71	3606.77
427.90	3669.96
428.09	3578.68
428.28	3686.34
428.46	3698.05
428.65	3604.42
428.84	3932.10
429.03	3824.44
429.22	3705.07
429.40	3894.65
429.59	3911.04
429.78	3571.66
429.97	3770.60
430.16	3889.97
430.34	3964.87
430.53	4042.11
430.72	4042.11
430.91	3866.56
431.10	4046.79
431.28	3920.40
431.47	4058.49
431.66	4095.94
431.85	4016.36
432.03	4081.89
432.22	4252.75
432.41	4037.42
432.60	4131.05
432.79	4119.34
432.97	4245.73
433.16	4191.90
433.35	4224.67
433.54	4283.18
433.72	4346.37
433.91	4283.18
434.10	4269.14
434.28	4290.20
434.47	4409.57
434.66	4379.14
434.85	4339.35
435.03	4362.76
435.22	4449.36
435.41	4411.91
435.59	4496.17
435.78	4571.07
435.97	4435.32
436.16	4493.83
436.34	4599.15
436.53	4475.10
436.72	4617.88
436.90	4631.92
437.09	4678.73
437.28	4484.47
437.46	4641.28
437.65	4671.71
437.84	4753.63
438.02	4800.44
438.21	4751.29
438.40	4671.71
438.58	4844.91
438.77	4940.87
438.96	4910.44
439.14	5130.45
439.33	5060.24
439.52	5001.72
439.70	4915.12
439.89	5177.26
440.08	5107.05
440.26	5392.59
440.45	5172.58
440.63	5186.63
440.82	5238.12
441.01	5238.12
441.19	5298.97
441.38	5439.40
441.57	5530.69
441.75	5610.26
441.94	5624.31
442.12	5432.38
442.31	5614.95
442.50	5614.95
442.68	5502.60
442.87	5621.97
443.05	5633.67
443.24	5907.51
443.43	5741.33
443.61	5954.32
443.80	5935.60
443.98	5549.41
444.17	5603.24
444.35	5827.93
444.54	5746.02
444.73	6008.16
444.91	5764.74
445.10	5987.09
445.28	5706.23
445.47	5905.17
445.65	5900.49
445.84	5853.68
446.02	5706.23
446.21	5834.96
446.39	5874.74
446.58	5860.70
446.77	5844.32
446.95	5877.09
447.14	5846.66
447.32	5900.49
447.51	6047.94
447.69	5951.98
447.88	6148.59
448.06	6029.22
448.25	6026.88
448.43	6097.10
448.62	5973.05
448.80	6078.37
448.99	6141.57
449.17	6043.26
449.36	6061.99
449.54	6392.00
449.73	6265.61
449.91	6291.36
450.10	6263.27
450.28	6347.53
450.46	6293.70
450.65	6408.39
450.83	6406.05
451.02	6427.11
451.20	6380.30
451.39	6595.63
451.57	6600.31
451.76	6443.49
451.94	6289.02
452.13	6471.58
452.31	6537.12
452.49	6384.98
452.68	6616.69
452.86	6431.79
453.05	6457.54
453.23	6686.91
453.42	6663.51
453.60	6677.55
453.78	6733.72
453.97	6839.05
454.15	6839.05
454.34	6757.13
454.52	6789.89
454.70	6977.14
454.89	6825.00
455.07	6958.41
455.26	6890.54
455.44	7028.63
455.62	6932.67
455.81	7005.22
455.99	7091.82
456.17	6895.22
456.36	7077.78
456.54	7246.30
456.73	7314.17
456.91	7335.24
457.09	7360.98
457.28	7463.97
457.46	7236.94
457.64	7456.95
457.83	7279.07
458.01	7304.81
458.19	7522.48
458.38	7433.54
458.56	7620.78
458.74	7564.61
458.93	7421.84
459.11	7681.64
459.29	7564.61
459.48	7728.45
459.66	7634.83
459.84	7817.39
460.03	7819.73
460.21	7826.75
460.39	7639.51
460.57	7716.75
460.76	7815.05
460.94	7805.69
461.12	7777.60
461.31	7925.05
461.49	7803.35
461.67	8035.06
461.85	8124.00
462.04	8081.87
462.22	8381.46
462.40	8252.73
462.59	8121.66
462.77	8023.36
462.95	8051.44
463.13	7983.57
463.32	8234.00
463.50	8170.81
463.68	8374.44
463.86	8271.45
464.05	8173.15
464.23	8369.76
464.41	8372.10
464.59	8102.93
464.78	8564.02
464.96	8271.45
465.14	8468.06
465.32	8568.70
465.50	8564.02
465.69	8557.00
465.87	8542.96
466.05	8421.25
466.23	8456.36
466.41	8688.07
466.60	8835.52
466.78	8578.06
466.96	8676.37
467.14	8636.58
467.32	8741.90
467.51	9041.49
467.69	8533.59
467.87	8739.56
468.05	8889.35
468.23	8702.11
468.41	8669.34
468.60	8697.43
468.78	8826.16
468.96	8791.05
469.14	8990.00
469.32	9027.45
469.50	8603.81
469.69	9273.20
469.87	9212.35
470.05	9298.95
470.23	9238.09
470.41	9174.90
470.59	9291.93
470.77	9432.36
470.95	9247.46
471.14	9444.06
471.32	9324.69
471.50	9781.10
471.68	9469.81
471.86	9509.60
472.04	9745.99
472.22	9827.91
472.40	9870.04
472.58	9877.06
472.77	9792.80
472.95	9902.81
473.13	10242.18
473.31	9689.82
473.49	9823.23
473.67	10068.98
473.85	9914.51
474.03	10211.76
474.21	10207.08
474.39	10424.75
474.57	10401.34
474.75	10485.60
474.93	10679.86
475.12	10537.09
475.30	10658.80
475.48	10693.91
475.66	10569.86
475.84	10595.61
476.02	10932.64
476.20	10930.30
476.38	11030.94
476.56	11119.89
476.74	11171.38
476.92	11066.05
477.10	11194.78
477.28	11414.79
477.46	11276.70
477.64	11489.69
477.82	11632.46
478.00	11901.62
478.18	11960.14
478.36	11957.80
478.54	11653.53
478.72	12262.07
478.90	12079.50
479.08	12458.67
479.26	12451.65
479.44	12311.22
479.62	12561.66
479.80	12610.81
479.98	12620.17
480.16	13202.96
480.34	13020.40
480.52	13235.73
480.70	12947.84
480.88	13004.02
481.06	13114.02
481.24	13095.30
481.41	13483.83
481.59	13736.60
481.77	13816.18
481.95	13689.79
482.13	13879.38
482.31	14015.13
482.49	14029.17
482.67	14354.51
482.85	14516.00
483.03	14752.40
483.21	14551.11
483.39	14714.95
483.57	14764.10
483.74	14953.68
483.92	15250.93
484.10	14824.95
484.28	15276.68
484.46	15449.88
484.64	15520.09
484.82	15398.38
485.00	15733.08
485.18	16184.80
485.35	16123.95
485.53	16259.70
485.71	16180.12
485.89	16453.97
486.07	16198.85
486.25	16798.02
486.43	16744.19
486.61	17043.78
486.78	17092.93
486.96	17055.48
487.14	17284.86
487.32	17575.08
487.50	17411.25
487.68	17734.24
487.85	17944.89
488.03	18090.00
488.21	17970.63
488.39	18171.92
488.57	18314.69
488.75	18490.23
488.92	18871.74
489.10	18787.48
489.28	18867.06
489.46	19049.62
489.64	19126.86
489.81	19566.88
489.99	19426.45
490.17	19714.33
490.35	19800.93
490.53	19822.00
490.70	19924.98
490.88	19995.20
491.06	20397.77
491.24	20175.42
491.41	20482.03
491.59	20989.92
491.77	20931.41
491.95	20893.96
492.13	20800.34
492.30	21135.04
492.48	21362.07
492.66	21429.94
492.84	21469.73
493.01	21507.18
493.19	21769.32
493.37	21823.16
493.54	21802.09
493.72	22366.16
493.90	22342.75
494.08	22593.19
494.25	22553.40
494.43	22522.98
494.61	22597.87
494.79	22972.36
494.96	23103.43
495.14	23297.69
495.32	23580.90
495.49	23513.02
495.67	23660.48
495.85	23960.06
496.02	23737.71
496.20	24170.71
496.38	23924.96
496.55	24018.58
496.73	24685.63
496.91	24430.51
497.09	24493.71
497.26	25048.41
497.44	24821.38
497.62	24772.23
497.79	25326.94
497.97	25191.19
498.14	25773.98
498.32	25965.90
498.50	25404.17
498.67	25692.06
498.85	25429.92
499.03	25893.35
499.20	26302.94
499.38	26153.15
499.56	26345.07
499.73	26291.24
499.91	26422.31
500.08	26457.42
500.26	26263.15
500.44	26906.80
500.61	26909.14
500.79	27012.12
500.97	27037.87
501.14	27138.51
501.32	27297.67
501.49	27466.19
501.67	27618.32
501.84	27386.61
502.02	27510.66
502.20	27922.59
502.37	27723.65
502.55	27463.85
502.72	28126.22
502.90	28273.67
503.07	28231.54
503.25	28072.39
503.43	28205.80
503.60	28374.31
503.78	28060.68
503.95	28531.13
504.13	28608.37
504.30	28435.17
504.48	28744.12
504.65	29380.74
504.83	29130.31
505.01	29179.46
505.18	28849.44
505.36	29525.86
505.53	29376.06
505.71	29673.31
505.88	29773.95
506.06	29408.83
506.23	30045.46
506.41	29537.56
506.58	29986.94
506.76	29855.87
506.93	30401.22
507.11	30174.19
507.28	30368.45
507.46	30527.61
507.63	30469.09
507.81	30815.49
507.98	29989.28
508.16	30960.61
508.33	30572.08
508.50	31026.14
508.68	31255.51
508.85	31260.20
509.03	31098.70
509.20	31281.26
509.38	31569.15
509.55	31730.64
509.73	31927.25
509.90	32201.09
510.08	31957.67
510.25	31950.65
510.42	31604.25
510.60	32109.81
510.77	32173.00
510.95	32364.93
511.12	32273.65
511.30	32142.58
511.47	32816.65
511.64	32472.59
511.82	33057.73
511.99	33024.96
512.17	33078.79
512.34	32884.53
512.51	33380.72
512.69	33860.53
512.86	33443.91
513.04	33401.79
513.21	33266.03
513.38	33214.54
513.56	33785.63
513.73	33841.81
513.90	33993.94
514.08	33582.01
514.25	34218.63
514.43	33986.92
514.60	34007.98
514.77	34206.93
514.95	33923.72
515.12	34005.64
515.29	34384.81
515.47	34855.26
515.64	35117.40
515.81	34707.80
515.99	34911.43
516.16	35051.86
516.33	34707.80
516.51	35119.74
516.68	35192.30
516.85	35445.07
517.03	35428.69
517.20	35679.13
517.37	35831.26
517.54	35534.01
517.72	35381.88
517.89	35484.86
518.06	35576.14
518.24	36205.75
518.41	36018.50
518.58	36315.75
518.75	35384.22
518.93	36397.67
519.10	36027.87
519.27	36297.03
519.45	36369.58
519.62	36385.97
519.79	36538.10
519.96	36273.62
520.14	36788.54
520.31	36327.45
520.48	36549.81
520.65	36601.30
520.83	36807.26
521.00	36889.18
521.17	37280.05
521.34	37411.12
521.52	37207.50
521.69	37153.66
521.86	37233.24
522.03	37708.37
522.20	37450.91
522.38	37734.12
522.55	37794.97
522.72	37631.13
522.89	38022.00
523.07	38333.29
523.24	38293.50
523.41	38281.80
523.58	37984.55
523.75	38279.46
523.92	37890.93
524.10	38429.26
524.27	38447.98
524.44	38639.90
524.61	38632.88
524.78	38565.01
524.96	38672.67
525.13	38852.89
525.30	39182.91
525.47	39051.84
525.64	39473.13
525.81	39440.37
525.98	39321.00
526.16	39035.45
526.33	39449.73
526.50	39831.24
526.67	39285.89
526.84	39512.92
527.01	39590.16
527.18	39536.33
527.36	39667.40
527.53	39704.85
527.70	40013.80
527.87	40079.33
528.04	40247.85
528.21	40194.02
528.38	40388.28
528.55	40835.33
528.72	40121.46
528.89	40381.26
529.07	40552.12
529.24	40348.50
529.41	40289.98
529.58	40252.53
529.75	40928.95
529.92	40706.60
530.09	40786.18
530.26	40739.36
530.43	40783.83
530.60	40453.82
530.77	40261.90
530.94	41123.21
531.11	40952.35
531.28	41392.37
531.46	41291.73
531.63	41303.43
531.80	41265.99
531.97	41326.84
532.14	41532.81
532.31	41277.69
532.48	41635.79
532.65	41715.37
532.82	41441.53
532.99	41799.63
533.16	41619.41
533.33	42094.53
533.50	41975.17
533.67	41715.37
533.84	41401.74
534.01	41813.67
534.18	41717.71
534.35	42574.34
534.52	42195.18
534.69	42672.65
534.86	42445.62
535.03	42316.89
535.20	42337.95
535.37	42581.37
535.54	42869.25
535.71	42333.27
535.88	43248.42
536.05	42920.74
536.22	43154.80
536.38	42684.35
536.55	43107.99
536.72	42871.59
536.89	42628.18
537.06	42827.12
537.23	43313.95
537.40	43210.97
537.57	43269.48
537.74	43098.62
537.91	43718.87
538.08	43487.15
538.25	42927.77
538.42	43229.69
538.59	43842.92
538.75	43372.47
538.92	43639.29
539.09	43297.57
539.26	43817.17
539.43	43817.17
539.60	44058.24
539.77	43461.41
539.94	44009.09
540.11	43814.83
540.28	44191.65
540.44	44025.48
540.61	44318.04
540.78	43842.92
540.95	44252.51
541.12	43971.64
541.29	44196.34
541.46	44219.74
541.62	44296.98
541.79	44397.62
541.96	44186.97
542.13	44772.11
542.30	44662.10
542.47	44825.94
542.63	45038.93
542.80	44376.56
542.97	44942.97
543.14	45146.59
543.31	45036.59
543.48	45184.04
543.64	45874.50
543.81	45233.19
543.98	45439.16
544.15	45340.86
544.32	45483.63
544.48	45958.76
544.65	45600.66
544.82	45277.66
544.99	45570.23
545.16	45675.55
545.32	45633.42
545.49	46300.48
545.66	46117.92
545.83	45834.71
546.00	45759.81
546.16	45844.07
546.33	45923.65
546.50	45689.60
546.67	46391.76
546.83	45698.96
547.00	45935.35
547.17	46316.86
547.34	46349.63
547.50	46319.20
547.67	46164.73
547.84	46328.56
548.00	46211.54
548.17	46799.01
548.34	46574.32
548.51	46476.02
548.67	46902.00
548.84	46735.82
549.01	46087.49
549.18	46382.40
549.34	46117.92
549.51	46986.25
549.68	46473.68
549.84	47271.80
550.01	47040.09
550.18	46691.35
550.34	46899.65
550.51	46562.62
550.68	46831.78
550.84	46476.02
551.01	47129.03
551.18	47033.07
551.34	46808.37
551.51	47051.79
551.68	47288.18
551.84	47107.96
552.01	47278.82
552.18	47058.81
552.34	46951.15
552.51	47058.81
552.68	47262.44
552.84	46934.76
553.01	48105.03
553.18	47662.67
553.34	47744.59
553.51	47428.62
553.67	47601.82
553.84	47622.88
554.01	47498.83
554.17	47505.85
554.34	47538.62
554.51	48058.22
554.67	47990.34
554.84	47604.16
555.00	47924.81
555.17	47906.08
555.33	48058.22
555.50	47674.37
555.67	47632.24
555.83	47725.86
556.00	47889.70
556.16	48650.38
556.33	48198.65
556.50	48119.07
556.66	48399.94
556.83	47950.56
556.99	47924.81
557.16	47915.45
557.32	48067.58
557.49	48411.64
557.65	48566.12
557.82	48776.76
557.98	48505.26
558.15	48633.99
558.32	48528.67
558.48	48268.87
558.65	48311.00
558.81	48516.96
558.98	48278.23
559.14	48435.05
559.31	48439.73
559.47	48535.69
559.64	48594.20
559.80	48872.73
559.97	48694.85
560.13	48608.25
560.30	48425.68
560.46	48189.29
560.63	48533.35
560.79	48921.88
560.96	48680.80
561.12	49167.63
561.29	48863.36
561.45	48994.43
561.61	49095.08
561.78	49010.82
561.94	48540.37
562.11	49099.76
562.27	48568.46
562.44	48746.34
562.60	48678.46
562.77	48849.32
562.93	49406.37
563.10	49542.12
563.26	49125.50
563.42	49525.74
563.59	48729.95
563.75	48849.32
563.92	49265.94
564.08	49223.81
564.24	49092.74
564.41	49317.43
564.57	49045.93
564.74	49057.63
564.90	48786.13
565.07	48708.89
565.23	48942.94
565.39	48734.63
565.56	49303.38
565.72	49216.78
565.88	49317.43
566.05	49193.38
566.21	49509.35
566.38	49064.65
566.54	49345.51
566.70	49277.64
566.87	49453.18
567.03	48994.43
567.19	49127.84
567.36	49099.76
567.52	49177.00
567.68	49689.57
567.85	49504.67
568.01	49326.79
568.17	49581.91
568.34	49544.46
568.50	49326.79
568.66	49310.41
568.83	49558.50
568.99	49455.52
569.15	49553.82
569.32	49750.43
569.48	49397.01
569.64	49525.74
569.81	49661.49
569.97	49717.66
570.13	49977.46
570.30	49504.67
570.46	49600.63
570.62	49153.59
570.78	49429.77
570.95	49244.87
571.11	49631.06
571.27	49441.48
571.43	49855.75
571.60	49811.28
571.76	49310.41
571.92	49703.62
572.09	49235.51
572.25	49872.14
572.41	49748.09
572.57	49663.83
572.74	50251.30
572.90	49722.34
573.06	49806.60
573.22	49738.72
573.38	49844.05
573.55	50127.25
573.71	49879.16
573.87	49996.18
574.03	49404.03
574.20	49656.81
574.36	49399.35
574.52	49801.92
574.68	49722.34
574.84	49853.41
575.01	50143.64
575.17	50089.80
575.33	49757.45
575.49	49762.13
575.65	49771.49
575.82	49804.26
575.98	49787.88
576.14	49940.01
576.30	50089.80
576.46	49888.52
576.62	49874.48
576.79	50042.99
576.95	50061.72
577.11	49666.17
577.27	49799.58
577.43	49729.36
577.59	49691.91
577.75	49925.97
577.92	49535.10
578.08	49972.78
578.24	49940.01
578.40	50468.97
578.56	50162.36
578.72	49979.80
578.88	49998.52
579.04	49682.55
579.21	49956.39
579.37	49525.74
579.53	49911.92
579.69	50066.40
579.85	50312.16
580.01	50183.43
580.17	50253.64
580.33	50007.89
580.49	50335.56
580.65	50230.24
580.82	49705.96
580.98	50370.67
581.14	50075.76
581.30	50209.17
581.46	50153.00
581.62	50272.37
581.78	50038.31
581.94	50274.71
582.10	50195.13
582.26	50059.38
582.42	49712.98
582.58	49918.95
582.74	49785.54
582.90	50340.24
583.06	49853.41
583.22	49855.75
583.38	50508.76
583.54	50298.11
583.70	50220.87
583.86	50522.80
584.02	50054.70
584.18	50639.83
584.34	50122.57
584.50	49797.24
584.66	50351.94
584.82	49989.16
584.98	50422.16
585.14	50246.62
585.30	50005.55
585.46	50347.26
585.62	50057.04
585.78	50370.67
585.94	49963.42
586.10	49982.14
586.26	49827.66
586.42	49993.84
586.58	50042.99
586.74	50078.10
586.90	50347.26
587.06	50305.13
587.22	50583.66
587.38	50485.36
587.54	50466.63
587.70	50246.62
587.86	50328.54
588.02	50155.34
588.18	50171.72
588.34	50326.20
588.49	50534.51
588.65	50295.77
588.81	50375.35
588.97	50581.32
589.13	50387.05
589.29	50464.29
589.45	50466.63
589.61	49986.82
589.77	50642.17
589.93	50436.20
590.08	50347.26
590.24	50300.45
590.40	50763.88
590.56	50632.81
590.72	50794.31
590.88	50316.84
591.04	50436.20
591.20	50993.25
591.35	51004.95
591.51	51028.36
591.67	50906.65
591.83	50904.31
591.99	50253.64
592.15	50674.94
592.31	50990.91
592.46	50281.73
592.62	50766.22
592.78	50630.47
592.94	50862.18
593.10	50965.17
593.26	50981.55
593.41	50337.90
593.57	50768.56
593.73	50527.48
593.89	50766.22
594.05	50714.73
594.20	50569.61
594.36	50864.52
594.52	50632.81
594.68	50855.16
594.84	50951.12
594.99	50955.80
595.15	51133.68
595.31	50803.67
595.47	50450.25
595.62	50611.74
595.78	50373.01
595.94	51047.08
596.10	50974.53
596.25	50740.47
596.41	50887.93
596.57	51285.82
596.73	51257.73
596.88	51194.54
597.04	50923.04
597.20	50679.62
597.36	50841.12
597.51	50571.96
597.67	50703.03
597.83	50869.20
597.99	50862.18
598.14	50745.15
598.30	51182.84
598.46	51470.72
598.61	51255.39
598.77	51042.40
598.93	51042.40
599.09	50630.47
599.24	50850.48
599.40	50721.75
599.56	50920.70
599.71	50724.09
599.87	51131.34
600.03	51199.22
600.18	51049.42
600.34	50937.08
600.50	51011.98
600.65	51192.20
600.81	51030.70
600.97	50958.14
601.12	50880.91
601.28	51091.55
601.44	51070.49
601.59	50974.53
601.75	50735.79
601.91	51089.21
602.06	50934.74
602.22	51023.68
602.37	51161.77
602.53	50986.23
602.69	51416.89
602.84	50843.46
603.00	50988.57
603.16	50780.26
603.31	51110.28
603.47	50974.53
603.62	50857.50
603.78	51379.44
603.94	51044.74
604.09	51107.94
604.25	51011.98
604.40	51168.79
604.56	51138.36
604.71	50974.53
604.87	50951.12
605.03	50635.15
605.18	50583.66
605.34	50892.61
605.49	50948.78
605.65	51168.79
605.80	51136.02
605.96	50845.80
606.12	50841.12
606.27	51103.26
606.43	50780.26
606.58	51138.36
606.74	50583.66
606.89	50499.40
607.05	50710.05
607.20	50852.82
607.36	50951.12
607.51	51061.13
607.67	51047.08
607.82	50684.30
607.98	51070.49
608.13	50686.64
608.29	50782.60
608.44	50763.88
608.60	50534.51
608.75	50602.38
608.91	50335.56
609.06	50354.29
609.22	50794.31
609.37	50628.13
609.53	50873.88
609.68	50749.84
609.84	50618.77
609.99	50836.44
610.15	50857.50
610.30	50557.91
610.46	50562.59
610.61	50225.56
610.76	50368.33
610.92	50419.82
611.07	50188.11
611.23	50218.53
611.38	50684.30
611.54	50258.32
611.69	50693.66
611.84	50653.87
612.00	50714.73
612.15	50457.27
612.31	50342.58
612.46	50337.90
612.62	50447.91
612.77	50110.87
612.92	50529.83
613.08	50202.15
613.23	50319.18
613.39	49844.05
613.54	50410.46
613.69	50506.42
613.85	50557.91
614.00	50578.98
614.15	50384.71
614.31	50017.25
614.46	50417.48
614.62	49963.42
614.77	50234.92
614.92	50288.75
615.08	49858.09
615.23	50183.43
615.38	50239.60
615.54	50408.12
615.69	49837.03
615.84	50010.23
616.00	50497.06
616.15	49944.69
616.30	50085.12
616.46	50061.72
616.61	49532.76
616.76	49783.19
616.92	49895.54
617.07	49900.22
617.22	49600.63
617.37	49633.40
617.53	50010.23
617.68	50106.19
617.83	49783.19
617.99	50202.15
618.14	49752.77
618.29	50064.06
618.45	49909.58
618.60	49874.48
618.75	49722.34
618.90	49490.63
619.06	49558.50
619.21	49581.91
619.36	49659.15
619.51	49485.95
619.67	49418.07
619.82	49528.08
619.97	49717.66
620.12	49385.30
620.28	48952.30
620.43	49230.83
620.58	49256.57
620.73	49186.36
620.89	49404.03
621.04	49530.42
621.19	49233.17
621.34	49338.49
621.49	49708.30
621.65	49361.90
621.80	49837.03
621.95	49537.44
622.10	49595.95
622.25	49120.82
622.41	49020.18
622.56	49413.39
622.71	49237.85
622.86	49036.56
623.01	49085.72
623.16	49233.17
623.32	48807.19
623.47	49085.72
623.62	49331.47
623.77	49219.13
623.92	49289.34
624.07	49139.55
624.23	49279.98
624.38	49109.12
624.53	49064.65
624.68	48851.66
624.83	48758.04
624.98	48893.79
625.13	48732.29
625.29	48507.60
625.44	48846.98
625.59	48456.11
625.74	48519.31
625.89	48631.65
626.04	48980.39
626.19	48882.09
626.34	48648.03
626.49	48430.36
626.65	48591.86
626.80	48437.39
626.95	48409.30
627.10	48282.91
627.25	48423.34
627.40	48278.23
627.55	48460.79
627.70	48215.04
627.85	48722.93
628.00	48533.35
628.15	48928.90
628.30	48378.87
628.45	48287.59
628.60	48252.48
628.76	48112.05
628.91	48355.47
629.06	48044.18
629.21	48423.34
629.36	47938.85
629.51	47922.47
629.66	48016.09
629.81	47950.56
629.96	48247.80
630.11	48413.98
630.26	48233.76
630.41	47873.32
630.56	48198.65
630.71	48013.75
630.86	48144.82
631.01	47852.25
631.16	47564.37
631.31	47482.45
631.46	47353.72
631.61	48025.45
631.76	47913.11
631.91	47641.60
632.06	47332.65
632.21	47409.89
632.36	47924.81
632.51	47416.91
632.66	47365.42
632.81	47243.71
632.96	47683.73
633.10	47229.67
633.25	47613.52
633.40	47281.16
633.55	47384.15
633.70	47388.83
633.85	47477.77
634.00	47440.32
634.15	47421.59
634.30	47547.98
634.45	47744.59
634.60	47739.91
634.75	47435.64
634.90	47372.44
635.05	47276.48
635.19	47374.78
635.34	47601.82
635.49	47159.45
635.64	47189.88
635.79	47107.96
635.94	47129.03
636.09	47234.35
636.24	47269.46
636.39	47143.07
636.53	47597.13
636.68	47325.63
636.83	47012.00
636.98	47016.68
637.13	46564.96
637.28	46768.58
637.43	47192.22
637.57	46944.12
637.72	47065.83
637.87	47079.88
638.02	46979.23
638.17	47070.51
638.32	46864.55
638.46	47145.41
638.61	46653.90
638.76	47147.75
638.91	46267.71
639.06	46761.56
639.20	46766.24
639.35	46672.62
639.50	46576.66
639.65	46485.38
639.80	46579.00
639.94	46541.55
640.09	46363.67
640.24	46447.93
640.39	46663.26
640.54	46478.36
640.68	45977.48
640.83	46611.77
640.98	46190.47
641.13	46260.69
641.27	46712.41
641.42	46358.99
641.57	46012.59
641.72	46026.63
641.86	46314.52
642.01	45481.29
642.16	45942.38
642.31	45785.56
642.45	46454.95
642.60	46064.08
642.75	46312.18
642.90	46122.60
643.04	46344.95
643.19	45736.41
643.34	45851.09
643.48	45607.68
643.63	46284.09
643.78	45954.08
643.93	45783.22
644.07	46021.95
644.22	45546.82
644.37	45462.57
644.51	45563.21
644.66	45490.65
644.81	45963.44
644.95	45708.32
645.10	45450.86
645.25	45881.52
645.39	45256.60
645.54	45450.86
645.69	45635.77
645.83	45605.34
645.98	45209.79
646.13	45745.77
646.27	45579.59
646.42	45113.83
646.57	45460.23
646.71	45357.24
646.86	45677.90
647.00	45495.33
647.15	45727.05
647.30	45886.20
647.44	45483.63
647.59	45553.85
647.74	45366.60
647.88	45226.17
648.03	45305.75
648.17	44713.59
648.32	44816.58
648.47	45287.03
648.61	45015.52
648.76	45315.11
648.90	45146.59
649.05	45282.34
649.20	45633.42
649.34	45123.19
649.49	45249.58
649.63	45579.59
649.78	45041.27
649.92	44971.05
650.07	45308.09
650.21	45022.54
650.36	45048.29
650.51	44091.01
650.65	44811.90
650.80	44711.25
650.94	44594.23
651.09	44287.62
651.23	44254.85
651.38	44519.33
651.52	44610.61
651.67	44428.05
651.81	45003.82
651.96	44900.84
652.10	44680.83
652.25	44196.34
652.39	44713.59
652.54	44271.23
652.68	44699.55
652.83	44737.00
652.97	44465.50
653.12	44308.68
653.26	43995.05
653.41	44243.15
653.55	44135.48
653.70	44641.04
653.84	44645.72
653.99	44605.93
654.13	44762.75
654.27	43948.24
654.42	44540.39
654.56	44273.57
654.71	44177.61
654.85	43601.84
655.00	44179.95
655.14	43643.97
655.29	43679.08
655.43	43990.37
655.57	43768.02
655.72	44208.04
655.86	44098.03
656.01	44144.84
656.15	44158.89
656.30	43826.53
656.44	43517.58
656.58	43676.74
656.73	43971.64
656.87	43468.43
657.01	43381.83
657.16	43653.33
657.30	43388.85
657.45	43533.96
657.59	43077.56
657.73	43278.85
657.88	43463.75
658.02	43019.05
658.16	43196.93
658.31	43412.26
658.45	43845.26
658.60	43503.54
658.74	43171.18
658.88	43239.06
659.03	42742.86
659.17	43152.46
659.31	42780.31
659.46	42300.50
659.60	42724.14
659.74	42930.11
659.89	42726.48
660.03	42962.87
660.17	43206.29
660.32	42841.17
660.46	43110.33
660.60	42637.54
660.74	42770.95
660.89	43161.82
661.03	42167.09
661.17	42827.12
661.32	42363.70
661.46	42368.38
661.60	42029.00
661.74	42162.41
661.89	42141.35
662.03	42202.20
662.17	41970.49
662.31	41759.84
662.46	41909.63
662.60	41741.11
662.74	42174.11
662.88	42061.77
663.03	42211.56
663.17	42354.33
663.31	41897.93
663.45	41778.56
663.60	41530.47
663.74	41663.88
663.88	41280.03
664.02	41289.39
664.17	41502.38
664.31	41352.58
664.45	41163.00
664.59	41045.97
664.73	41181.73
664.88	41579.62
665.02	40987.46
665.16	41165.34
665.30	41521.10
665.44	41481.31
665.59	41148.96
665.73	40739.36
665.87	40776.81
666.01	41214.49
666.15	40734.68
666.29	40715.96
666.44	40575.53
666.58	40348.50
666.72	40121.46
666.86	40002.10
667.00	40385.94
667.14	40638.72
667.28	40313.39
667.43	39924.86
667.57	40521.69
667.71	40390.62
667.85	40217.43
667.99	40065.29
668.13	40692.55
668.27	39714.21
668.41	40109.76
668.56	39454.41
668.70	39730.59
668.84	39339.72
668.98	39379.51
669.12	39491.86
669.26	39131.42
669.40	39622.93
669.54	39253.12
669.68	39475.48
669.82	39311.64
669.96	39695.49
670.10	39061.20
670.25	39218.02
670.39	39096.31
670.53	39077.58
670.67	39297.59
670.81	39428.66
670.95	38665.65
671.09	38471.39
671.23	38967.58
671.37	38684.37
671.51	38532.24
671.65	38534.58
671.79	38101.58
671.93	38146.05
672.07	38536.92
672.21	37926.04
672.35	38513.52
672.49	38375.42
672.63	38270.10
672.77	37972.85
672.91	37853.48
673.05	38206.90
673.19	38064.13
673.33	37610.07
673.47	37329.20
673.61	37504.74
673.75	37591.34
673.89	37638.15
674.03	37205.16
674.17	37371.33
674.31	37294.10
674.45	37125.58
674.59	37202.82
674.73	37261.33
674.87	37326.86
675.01	36821.31
675.15	37186.43
675.29	36811.95
675.43	36715.98
675.56	36882.16
675.70	36772.16
675.84	36582.57
675.98	35679.13
676.12	36402.35
676.26	36109.78
676.40	35938.93
676.54	35995.10
676.68	35821.90
676.82	35344.43
676.96	35899.14
677.10	35786.79
677.23	35831.26
677.37	35578.48
677.51	35463.80
677.65	35168.89
677.79	34881.00
677.93	35026.12
678.07	34885.68
678.21	34253.74
678.34	34209.27
678.48	34541.63
678.62	34015.01
678.76	33979.90
678.90	33989.26
679.04	34003.30
679.18	34525.24
679.31	33858.19
679.45	33799.68
679.59	33867.55
679.73	34085.22
679.87	34033.73
680.00	33923.72
680.14	33593.71
680.28	33687.33
680.42	33654.56
680.56	33125.60
680.70	32952.40
680.83	32896.23
680.97	32673.88
681.11	32563.87
681.25	32568.55
681.39	32765.16
681.52	32486.64
681.66	32521.74
681.80	32339.18
681.94	32666.86
682.07	32737.07
682.21	32540.47
682.35	32070.02
682.49	31868.73
682.62	32091.09
682.76	32006.83
682.90	31632.34
683.04	31271.90
683.17	31379.56
683.31	31075.29
683.45	31257.85
683.59	31047.21
683.72	31077.63
683.86	30916.14
684.00	31129.12
684.13	30492.50
684.27	30932.52
684.41	30731.23
684.55	30960.61
684.68	30338.02
684.82	30632.93
684.96	30670.38
685.09	30476.12
685.23	29516.50
685.37	29769.27
685.50	29848.85
685.64	29193.50
685.78	29425.22
685.91	29612.46
686.05	29284.78
686.19	29071.79
686.32	29436.92
686.46	29024.98
686.60	28996.90
686.73	29266.06
686.87	28744.12
687.01	28950.09
687.14	28926.68
687.28	29017.96
687.42	28802.63
687.55	28938.38
687.69	28545.17
687.82	28566.24
687.96	28329.84
688.10	27864.08
688.23	27835.99
688.37	28046.64
688.50	27845.35
688.64	27576.19
688.78	27365.54
688.91	27604.28
689.05	27246.18
689.18	27683.86
689.32	26532.31
689.46	27182.98
689.59	27241.50
689.73	27023.83
689.86	26815.52
690.00	27019.14
690.13	27154.90
690.27	26607.21
690.41	26536.99
690.54	26689.13
690.68	26146.12
690.81	26291.24
690.95	26232.72
691.08	26478.48
691.22	25888.67
691.35	25898.03
691.49	25942.50
691.62	25420.56
691.76	25525.88
691.89	25572.69
692.03	25387.79
692.16	25546.95
692.30	25397.15
692.43	25338.64
692.57	25394.81
692.70	24982.88
692.84	24938.41
692.97	24634.14
693.11	24503.07
693.24	24531.15
693.38	24374.34
693.51	24332.21
693.65	24786.27
693.78	24383.70
693.92	24217.52
694.05	24231.57
694.19	24219.86
694.32	24114.54
694.45	23957.72
694.59	23723.67
694.72	23714.31
694.86	23831.33
694.99	23634.73
695.13	23365.57
695.26	23257.90
695.39	23166.62
695.53	22979.38
695.66	22955.97
695.80	22452.76
695.93	22632.98
696.07	22394.25
696.20	22466.80
696.33	22183.60
696.47	22443.40
696.60	22012.74
696.73	22202.32
696.87	22017.42
697.00	22054.87
697.14	22045.51
697.27	22127.42
697.40	22127.42
697.54	22129.77
697.67	21769.32
697.80	21717.83
697.94	21315.26
698.07	21228.66
698.21	21193.55
698.34	21233.34
698.47	21310.58
698.61	20713.74
698.74	20568.63
698.87	20835.45
699.01	20280.74
699.14	20692.68
699.27	20776.94
699.40	20238.61
699.54	20247.97
699.67	20507.77
699.80	20538.20
699.94	20051.37
700.07	19747.10
700.20	20147.33
700.34	19868.81
700.47	19704.97
700.60	19590.28
700.73	19655.82
700.87	19599.65
701.00	19389.00
701.13	19658.16
701.26	19040.26
701.40	18904.51
701.53	18743.01
701.66	18778.12
701.79	19105.79
701.93	18843.65
702.06	18831.95
702.19	18401.29
702.32	18862.38
702.46	18480.87
702.59	18766.42
702.72	18375.55
702.85	18136.81
702.99	18340.44
703.12	18225.75
703.25	17872.33
703.38	17675.73
703.51	17923.82
703.65	17664.02
703.78	17589.13
703.91	17418.27
704.04	17343.37
704.17	17528.27
704.31	17198.26
704.44	17366.78
704.57	17343.37
704.70	17270.81
704.83	17216.98
704.96	17275.49
705.10	17216.98
705.23	17041.44
>>>>>End Processed Spectral Data<<<<<
