SpectraSuite Data File
++++++++++++++++++++++++++++++++++++
Date: Tue Oct 01 18:27:25 GMT-05:00 2013
User: stostad
Dark Spectrum Present: No
Reference Spectrum Present: No
Number of Sampled Component Spectra: 1
Spectrometers: USB2+H05261
Integration Time (usec): 100000 (USB2+H05261)
Spectra Averaged: 1 (USB2+H05261)
Boxcar Smoothing: 0 (USB2+H05261)
Correct for Electrical Dark: No (USB2+H05261)
Strobe/Lamp Enabled: No (USB2+H05261)
Correct for Detector Non-linearity: No (USB2+H05261)
Correct for Stray Light: No (USB2+H05261)
Number of Pixels in Processed Spectrum: 2048
>>>>>Begin Processed Spectral Data<<<<<
365.73	18.72
365.92	18.72
366.12	18.72
366.32	49.15
366.52	11.70
366.72	0.00
366.91	0.00
367.11	0.00
367.31	0.00
367.51	0.00
367.70	0.00
367.90	0.00
368.10	0.00
368.30	0.00
368.49	0.00
368.69	0.00
368.89	0.00
369.09	0.00
369.28	0.00
369.48	28.09
369.68	0.00
369.87	0.00
370.07	30.43
370.27	0.00
370.47	133.41
370.66	234.05
370.86	330.02
371.06	301.93
371.25	388.53
371.45	315.97
371.65	372.15
371.84	322.99
372.04	304.27
372.24	360.44
372.44	442.36
372.63	458.74
372.83	355.76
373.03	320.65
373.22	376.83
373.42	456.40
373.62	477.47
373.81	458.74
374.01	440.02
374.21	447.04
374.40	423.64
374.60	465.77
374.79	498.53
374.99	418.96
375.19	393.21
375.38	493.85
375.58	470.45
375.78	486.83
375.97	510.24
376.17	372.15
376.37	447.04
376.56	512.58
376.76	458.74
376.95	458.74
377.15	411.93
377.35	465.77
377.54	533.64
377.74	489.17
377.93	454.06
378.13	486.83
378.33	566.41
378.52	624.92
378.72	533.64
378.91	526.62
379.11	543.00
379.31	500.87
379.50	505.56
379.70	545.34
379.89	585.13
380.09	610.88
380.28	545.34
380.48	503.22
380.68	505.56
380.87	599.18
381.07	587.47
381.26	568.75
381.46	496.19
381.65	589.82
381.85	645.99
382.04	458.74
382.24	557.05
382.43	674.07
382.63	613.22
382.83	599.18
383.02	594.50
383.22	580.45
383.41	617.90
383.61	599.18
383.80	664.71
384.00	613.22
384.19	580.45
384.39	655.35
384.58	608.54
384.78	636.63
384.97	645.99
385.17	596.84
385.36	545.34
385.56	599.18
385.75	561.73
385.95	702.16
386.14	624.92
386.34	620.24
386.53	643.65
386.72	692.80
386.92	697.48
387.11	671.73
387.31	723.23
387.50	697.48
387.70	791.10
387.89	723.23
388.09	732.59
388.28	690.46
388.48	727.91
388.67	821.53
388.86	699.82
389.06	741.95
389.25	784.08
389.45	669.39
389.64	739.61
389.84	770.04
390.03	751.31
390.22	812.17
390.42	802.80
390.61	725.57
390.81	781.74
391.00	765.36
391.19	863.66
391.39	770.04
391.58	798.12
391.78	889.40
391.97	835.57
392.16	777.06
392.36	933.87
392.55	929.19
392.75	889.40
392.94	828.55
393.13	938.55
393.33	894.08
393.52	847.27
393.71	917.49
393.91	844.93
394.10	940.90
394.29	929.19
394.49	922.17
394.68	940.90
394.88	973.66
395.07	1015.79
395.26	1020.47
395.46	992.39
395.65	1076.65
395.84	1001.75
396.04	961.96
396.23	1001.75
396.42	1046.22
396.62	1036.86
396.81	1128.14
397.00	1102.39
397.19	1071.97
397.39	1069.62
397.58	1083.67
397.77	1074.31
397.97	1130.48
398.16	1203.04
398.35	1128.14
398.55	1067.28
398.74	1212.40
398.93	1151.54
399.12	1144.52
399.32	1067.28
399.51	1109.41
399.70	1142.18
399.90	1158.57
400.09	1212.40
400.28	1291.98
400.47	1235.80
400.67	1205.38
400.86	1263.89
401.05	1270.91
401.24	1306.02
401.44	1294.32
401.63	1458.15
401.82	1348.15
402.01	1364.53
402.21	1401.98
402.40	1350.49
402.59	1448.79
402.78	1366.87
402.97	1418.36
403.17	1329.42
403.36	1387.94
403.55	1476.88
403.74	1519.01
403.93	1458.15
404.13	1535.39
404.32	1483.90
404.51	1495.60
404.70	1610.29
404.89	1519.01
405.09	1540.07
405.28	1593.90
405.47	1563.48
405.66	1593.90
405.85	1643.06
406.05	1577.52
406.24	1661.78
406.43	1570.50
406.62	1753.06
406.81	1724.97
407.00	1748.38
407.20	1694.55
407.39	1741.36
407.58	1741.36
407.77	1811.57
407.96	1818.60
408.15	1839.66
408.34	1832.64
408.54	1839.66
408.73	1891.15
408.92	1860.73
409.11	1916.90
409.30	1879.45
409.49	1975.41
409.68	1858.39
409.87	2097.12
410.07	2071.37
410.26	2087.76
410.45	1980.09
410.64	2054.99
410.83	2195.42
411.02	2040.95
411.21	2097.12
411.40	2239.89
411.59	2183.72
411.78	2132.23
411.98	2197.76
412.17	2251.60
412.36	2307.77
412.55	2242.23
412.74	2289.04
412.93	2354.58
413.12	2385.01
413.31	2476.29
413.50	2338.20
413.69	2441.18
413.88	2520.76
414.07	2410.75
414.26	2593.31
414.45	2490.33
414.64	2567.57
414.83	2597.99
415.02	2658.85
415.22	2724.38
415.41	2612.04
415.60	2637.78
415.79	2771.19
415.98	2771.19
416.17	2829.71
416.36	3021.63
416.55	2895.24
416.74	2876.52
416.93	2867.16
417.12	2970.14
417.31	2988.86
417.50	2949.08
417.69	3211.22
417.88	3183.13
418.07	3070.78
418.26	3052.06
418.45	3199.51
418.64	3131.64
418.83	3251.00
419.02	3138.66
419.21	3241.64
419.39	3232.28
419.58	3171.43
419.77	3201.85
419.96	3138.66
420.15	3438.25
420.34	3300.16
420.53	3344.63
420.72	3375.05
420.91	3353.99
421.10	3379.73
421.29	3435.91
421.48	3323.56
421.67	3445.27
421.86	3433.57
422.05	3377.39
422.24	3623.15
422.43	3473.36
422.61	3574.00
422.80	3595.06
422.99	3534.21
423.18	3543.57
423.37	3611.45
423.56	3557.61
423.75	3658.26
423.94	3459.31
424.13	3258.03
424.32	3445.27
424.50	3508.46
424.69	3655.92
424.88	3707.41
425.07	3616.13
425.26	3515.48
425.45	3543.57
425.64	3585.70
425.83	3625.49
426.01	3644.21
426.20	3616.13
426.39	3754.22
426.58	3733.15
426.77	3658.26
426.96	3808.05
427.15	3702.73
427.33	3639.53
427.52	3740.18
427.71	3765.92
427.90	3833.80
428.09	3819.75
428.28	3819.75
428.46	3864.22
428.65	3946.14
428.84	3901.67
429.03	4051.47
429.22	3782.31
429.40	3960.19
429.59	3880.61
429.78	3829.12
429.97	3892.31
430.16	3819.75
430.34	4030.40
430.53	4088.92
430.72	4114.66
430.91	3953.16
431.10	4037.42
431.28	4184.88
431.47	4145.09
431.66	4250.41
431.85	4135.73
432.03	4329.99
432.22	4503.19
432.41	4264.46
432.60	4397.87
432.79	4285.52
432.97	4290.20
433.16	4362.76
433.35	4304.25
433.54	4339.35
433.72	4435.32
433.91	4559.36
434.10	4500.85
434.28	4344.03
434.47	4442.34
434.66	4533.62
434.85	4592.13
435.03	4676.39
435.22	4610.86
435.41	4779.37
435.59	4610.86
435.78	4622.56
435.97	4716.18
436.16	4662.35
436.34	4608.51
436.53	4863.63
436.72	4805.12
436.90	4685.75
437.09	4777.03
437.28	4737.24
437.46	4856.61
437.65	4854.27
437.84	4814.48
438.02	4814.48
438.21	4835.55
438.40	4807.46
438.58	5013.43
438.77	5078.96
438.96	5109.39
439.14	5111.73
439.33	5203.01
439.52	5238.12
439.70	5277.91
439.89	5261.52
440.08	5390.25
440.26	5380.89
440.45	5355.15
440.63	5441.75
440.82	5626.65
441.01	5404.30
441.19	5509.62
441.38	5514.30
441.57	5507.28
441.75	5575.16
441.94	5603.24
442.12	5781.12
442.31	5692.18
442.50	5736.65
442.68	5767.08
442.87	5783.46
443.05	5902.83
443.24	5994.11
443.43	5921.56
443.61	6003.47
443.80	6134.54
443.98	5856.02
444.17	5757.72
444.35	5921.56
444.54	6195.40
444.73	6258.59
444.91	5954.32
445.10	6160.29
445.28	5973.05
445.47	5923.90
445.65	6078.37
445.84	6022.20
446.02	6141.57
446.21	6094.76
446.39	6047.94
446.58	6230.51
446.77	6122.84
446.95	6256.25
447.14	6125.18
447.32	6244.55
447.51	6225.82
447.69	6174.33
447.88	6321.79
448.06	6174.33
448.25	6216.46
448.43	6207.10
448.62	6195.40
448.80	6209.44
448.99	6181.35
449.17	6305.40
449.36	6448.18
449.54	6485.62
449.73	6466.90
449.91	6427.11
450.10	6466.90
450.28	6483.28
450.46	6490.31
450.65	6551.16
450.83	6764.15
451.02	6799.26
451.20	6583.93
451.39	6661.16
451.57	6658.82
451.76	6630.74
451.94	6794.58
452.13	6670.53
452.31	6778.19
452.49	6722.02
452.68	6920.96
452.86	6745.42
453.05	6857.77
453.23	6853.09
453.42	6911.60
453.60	6782.87
453.78	6913.94
453.97	6853.09
454.15	7037.99
454.34	7047.35
454.52	7197.15
454.70	7037.99
454.89	6970.12
455.07	7089.48
455.26	7140.97
455.44	7248.64
455.62	7220.55
455.81	7119.91
455.99	7297.79
456.17	7311.83
456.36	7269.70
456.54	7440.56
456.73	7344.60
456.91	7559.93
457.09	7585.68
457.28	7695.68
457.46	7613.76
457.64	7501.42
457.83	7529.50
458.01	7691.00
458.19	7817.39
458.38	7770.58
458.56	7906.33
458.74	7850.16
458.93	7585.68
459.11	7765.90
459.29	7950.80
459.48	7985.91
459.66	7740.15
459.84	7845.48
460.03	8131.02
460.21	8037.40
460.39	8124.00
460.57	7967.18
460.76	8189.53
460.94	8196.56
461.12	8098.25
461.31	8107.62
461.49	8320.60
461.67	8135.70
461.85	8334.65
462.04	8252.73
462.22	8784.03
462.40	8444.65
462.59	8320.60
462.77	8360.39
462.95	8386.14
463.13	8542.96
463.32	8439.97
463.50	8514.87
463.68	8744.24
463.86	8571.04
464.05	8779.35
464.23	8615.51
464.41	8552.32
464.59	8376.78
464.78	8688.07
464.96	8791.05
465.14	8585.08
465.32	8908.08
465.50	8812.12
465.69	8659.98
465.87	8671.68
466.05	8891.70
466.23	8882.33
466.41	8800.41
466.60	8980.64
466.78	8795.73
466.96	8978.30
467.14	8933.82
467.32	9121.07
467.51	9165.54
467.69	8858.93
467.87	9245.12
468.05	9025.11
468.23	9083.62
468.41	8936.17
468.60	9123.41
468.78	9315.33
468.96	9128.09
469.14	9310.65
469.32	9177.24
469.50	9240.44
469.69	9673.43
469.87	9434.70
470.05	9603.22
470.23	9437.04
470.41	9453.42
470.59	9668.75
470.77	9535.34
470.95	9888.76
471.14	9804.50
471.32	9605.56
471.50	9741.31
471.68	10010.47
471.86	10068.98
472.04	10232.82
472.22	10281.97
472.40	9926.21
472.58	10071.33
472.77	10190.69
472.95	10207.08
473.13	10626.03
473.31	10342.83
473.49	10258.57
473.67	10270.27
473.85	10501.98
474.03	10452.83
474.21	10761.78
474.39	10740.72
474.57	10799.23
474.75	10787.53
474.93	10846.04
475.12	10885.83
475.30	11052.01
475.48	10951.37
475.66	11016.90
475.84	11227.55
476.02	11225.21
476.20	11375.00
476.38	11454.58
476.56	11449.90
476.74	11644.17
476.92	11524.80
477.10	11548.20
477.28	11796.30
477.46	11688.64
477.64	11882.90
477.82	12025.67
478.00	12425.90
478.18	12294.83
478.36	12205.89
478.54	12306.54
478.72	12606.13
478.90	12489.10
479.08	12816.77
479.26	13191.26
479.44	12746.56
479.62	12784.01
479.80	12851.88
479.98	13310.63
480.16	13509.57
480.34	13172.54
480.52	13413.61
480.70	13762.35
480.88	13378.50
481.06	13731.92
481.24	13914.48
481.41	14078.32
481.59	13905.12
481.77	14319.40
481.95	14235.14
482.13	14579.20
482.31	14377.91
482.49	14736.01
482.67	14796.87
482.85	14759.42
483.03	15208.80
483.21	15161.99
483.39	15272.00
483.57	15274.34
483.74	15386.68
483.92	15723.72
484.10	15508.39
484.28	15960.11
484.46	15917.98
484.64	16135.65
484.82	16093.52
485.00	16341.62
485.18	16713.77
485.35	16732.49
485.53	16472.69
485.71	16809.73
485.89	17212.30
486.07	17123.36
486.25	17144.42
486.43	17514.23
486.61	17518.91
486.78	18008.08
486.96	17572.74
487.14	18071.28
487.32	17980.00
487.50	18082.98
487.68	18183.62
487.85	18745.35
488.03	18726.63
488.21	18630.66
488.39	18661.09
488.57	19091.75
488.75	19307.08
488.92	19396.02
489.10	19840.72
489.28	19489.64
489.46	19960.09
489.64	19480.28
489.81	20016.26
489.99	20051.37
490.17	20472.67
490.35	20924.39
490.53	20669.27
490.70	20954.82
490.88	20599.05
491.06	20877.58
491.24	20947.79
491.41	20858.85
491.59	21546.97
491.77	21500.16
491.95	21986.99
492.13	21839.54
492.30	21738.90
492.48	21958.91
492.66	21933.16
492.84	22295.94
493.01	22396.59
493.19	22466.80
493.37	22817.88
493.54	22913.84
493.72	22888.10
493.90	23077.68
494.08	23166.62
494.25	23506.00
494.43	23449.83
494.61	23555.15
494.79	23999.85
494.96	23613.66
495.14	24137.94
495.32	24362.64
495.49	24400.08
495.67	24617.75
495.85	24603.71
496.02	24559.24
496.20	24753.51
496.38	24917.34
496.55	24954.79
496.73	25834.83
496.91	25071.82
497.09	25729.51
497.26	26019.74
497.44	25766.96
497.62	25876.96
497.79	26008.03
497.97	26146.12
498.14	26321.66
498.32	26534.65
498.50	26539.33
498.67	26679.77
498.85	26506.57
499.03	26867.01
499.20	27075.32
499.38	26874.03
499.56	27337.46
499.73	27508.32
499.91	27222.77
500.08	27438.10
500.26	27227.45
500.44	27623.00
500.61	27796.20
500.79	27772.80
500.97	28048.98
501.14	28016.21
501.32	28540.49
501.49	28608.37
501.67	28414.10
501.84	28638.80
502.02	28552.20
502.20	29118.60
502.37	28741.78
502.55	28526.45
502.72	28872.85
502.90	29254.36
503.07	29102.22
503.25	29020.30
503.43	29235.63
503.60	29818.42
503.78	29340.96
503.95	29556.28
504.13	29762.25
504.30	29813.74
504.48	30040.78
504.65	30277.17
504.83	30216.32
505.01	30546.33
505.18	30087.59
505.36	30979.33
505.53	30125.04
505.71	30639.95
505.88	30565.06
506.06	30628.25
506.23	31417.01
506.41	30764.00
506.58	31269.56
506.76	31168.91
506.93	31124.44
507.11	31519.99
507.28	31548.08
507.46	31613.62
507.63	31503.61
507.81	31454.46
507.98	31473.18
508.16	31866.39
508.33	31887.46
508.50	32151.94
508.68	32009.17
508.85	32561.53
509.03	32016.19
509.20	32493.66
509.38	32561.53
509.55	32741.75
509.73	32765.16
509.90	32723.03
510.08	33247.31
510.25	33167.73
510.42	33219.22
510.60	33364.34
510.77	33450.94
510.95	33483.70
511.12	33673.29
511.30	33399.44
511.47	33596.05
511.64	33521.15
511.82	33778.61
511.99	33914.36
512.17	33991.60
512.34	33888.62
512.51	34607.16
512.69	34007.98
512.86	35077.61
513.04	34885.68
513.21	34487.79
513.38	34719.51
513.56	34866.96
513.73	34810.79
513.90	35374.86
514.08	35466.14
514.25	35515.29
514.43	35491.88
514.60	35606.57
514.77	35449.75
514.95	36112.13
515.12	35505.93
515.29	35768.07
515.47	35700.19
515.64	36194.04
515.81	36079.36
515.99	36385.97
516.16	36271.28
516.33	36004.46
516.51	36746.41
516.68	36376.61
516.85	36596.62
517.03	37043.66
517.20	36889.18
517.37	36814.29
517.54	36671.51
517.72	36950.04
517.89	37397.08
518.06	37081.11
518.24	36842.37
518.41	37282.39
518.58	37359.63
518.75	37076.43
518.93	37486.02
519.10	37500.06
519.27	37607.73
519.45	37535.17
519.62	37724.75
519.79	38071.15
519.96	38185.84
520.14	38043.07
520.31	37586.66
520.48	37851.14
520.65	37961.15
520.83	38726.50
521.00	38649.27
521.17	38705.44
521.34	38686.71
521.52	38543.94
521.69	38976.94
521.86	38494.79
522.03	38810.76
522.20	39056.52
522.38	39302.28
522.55	38988.64
522.72	38995.67
522.89	39716.55
523.07	39770.38
523.24	39232.06
523.41	39330.36
523.58	39512.92
523.75	39983.37
523.92	39529.31
524.10	39641.65
524.27	40287.64
524.44	40144.87
524.61	40266.58
524.78	40203.38
524.96	40376.58
525.13	40343.81
525.30	40425.73
525.47	40769.79
525.64	40786.18
525.81	40825.96
525.98	40683.19
526.16	40854.05
526.33	40793.20
526.50	41230.88
526.67	41209.81
526.84	41118.53
527.01	41207.47
527.18	41345.56
527.36	41301.09
527.53	41219.17
527.70	41495.36
527.87	41610.04
528.04	41144.28
528.21	41544.51
528.38	41675.58
528.55	41977.51
528.72	41464.93
528.89	41837.08
529.07	41787.92
529.24	41549.19
529.41	42078.15
529.58	42108.58
529.75	42029.00
529.92	42347.31
530.09	42405.83
530.26	42202.20
530.43	42253.69
530.60	42330.93
530.77	42122.62
530.94	42539.24
531.11	42249.01
531.28	42724.14
531.46	42972.24
531.63	42813.08
531.80	42515.83
531.97	43182.88
532.14	42864.57
532.31	42553.28
532.48	42747.54
532.65	43290.55
532.82	43098.62
532.99	43213.31
533.16	43583.12
533.33	43283.53
533.50	43515.24
533.67	43503.54
533.84	43035.43
534.01	43587.80
534.18	43320.98
534.35	44201.02
534.52	43931.86
534.69	44512.31
534.86	44355.49
535.03	43878.02
535.20	43604.18
535.37	43782.06
535.54	44053.56
535.71	44009.09
535.88	44205.70
536.05	44657.42
536.22	44315.70
536.38	44568.48
536.55	44371.88
536.72	44467.84
536.89	44191.65
537.06	45057.65
537.23	44584.86
537.40	44624.65
537.57	44800.19
537.74	44800.19
537.91	45083.40
538.08	45057.65
538.25	44350.81
538.42	44919.56
538.59	45003.82
538.75	45006.16
538.92	45649.81
539.09	45315.11
539.26	45684.92
539.43	44907.86
539.60	45626.40
539.77	45294.05
539.94	45560.87
540.11	45509.38
540.28	45352.56
540.44	45708.32
540.61	45757.47
540.78	45631.08
540.95	46087.49
541.12	46014.93
541.29	45729.39
541.46	45820.67
541.62	45907.27
541.79	46024.29
541.96	45560.87
542.13	45874.50
542.30	46316.86
542.47	46134.30
542.63	46183.45
542.80	46138.98
542.97	46417.50
543.14	46686.67
543.31	46499.42
543.48	47194.56
543.64	47248.39
543.81	47033.07
543.98	46859.87
544.15	46829.44
544.32	46897.31
544.48	46988.60
544.65	46951.15
544.82	47168.82
544.99	46923.06
545.16	47037.75
545.32	47196.90
545.49	47327.97
545.66	47655.65
545.83	47463.72
546.00	47229.67
546.16	47395.85
546.33	47538.62
546.50	47227.33
546.67	47765.65
546.83	47299.89
547.00	47618.20
547.17	47861.61
547.34	47290.52
547.50	47716.50
547.67	48023.11
547.84	47629.90
548.00	47915.45
548.17	47688.42
548.34	47828.85
548.51	48198.65
548.67	48006.73
548.84	48109.71
549.01	47746.93
549.18	47948.21
549.34	47585.43
549.51	48212.70
549.68	48299.30
549.84	48147.16
550.01	48622.29
550.18	48018.43
550.34	48531.01
550.51	48622.29
550.68	48289.93
550.84	47950.56
551.01	48428.02
551.18	48692.50
551.34	48163.54
551.51	48610.59
551.68	49041.24
551.84	48666.76
552.01	48477.18
552.18	48350.79
552.34	48596.54
552.51	48582.50
552.68	48678.46
552.84	48666.76
553.01	49148.91
553.18	49146.57
553.34	49125.50
553.51	48683.14
553.67	48842.30
553.84	49177.00
554.01	49336.15
554.17	49560.84
554.34	49411.05
554.51	49535.10
554.67	49647.44
554.84	49591.27
555.00	49088.06
555.17	49029.54
555.33	49418.07
555.50	49221.47
555.67	49055.29
555.83	48893.79
556.00	49392.33
556.16	49846.39
556.33	49673.19
556.50	49427.43
556.66	49748.09
556.83	49490.63
556.99	49867.45
557.16	49593.61
557.32	49408.71
557.49	49705.96
557.65	49614.68
557.82	50169.38
557.98	49808.94
558.15	49872.14
558.32	50052.36
558.48	49652.12
558.65	49750.43
558.81	49537.44
558.98	49834.69
559.14	49984.48
559.31	49780.85
559.47	49954.05
559.64	49890.86
559.80	50012.57
559.97	50244.28
560.13	50057.04
560.30	49968.10
560.46	50129.59
560.63	49881.50
560.79	50190.45
560.96	49982.14
561.12	50103.85
561.29	50468.97
561.45	50309.82
561.61	50251.30
561.78	50370.67
561.94	50155.34
562.11	50365.99
562.27	50164.70
562.44	50120.23
562.60	50588.34
562.77	50035.97
562.93	50527.48
563.10	50752.18
563.26	50445.57
563.42	50873.88
563.59	50220.87
563.75	50532.17
563.92	50405.78
564.08	50539.19
564.24	50410.46
564.41	50670.26
564.57	50815.37
564.74	50471.31
564.90	50721.75
565.07	50581.32
565.23	50457.27
565.39	50583.66
565.56	50564.93
565.72	50527.48
565.88	50754.52
566.05	50387.05
566.21	50707.71
566.38	51033.04
566.54	50651.53
566.70	51021.34
566.87	50894.95
567.03	50478.33
567.19	51077.51
567.36	50876.22
567.52	50707.71
567.68	50983.89
567.85	50611.74
568.01	50806.01
568.17	50770.90
568.34	50862.18
568.50	50747.50
568.66	50705.37
568.83	50817.71
568.99	50656.21
569.15	50801.33
569.32	50480.67
569.48	50726.43
569.64	51187.52
569.81	50878.57
569.97	50990.91
570.13	51274.12
570.30	50894.95
570.46	51091.55
570.62	51133.68
570.78	50803.67
570.95	50993.25
571.11	51072.83
571.27	50948.78
571.43	51192.20
571.60	51255.39
571.76	50827.07
571.92	50927.72
572.09	51248.37
572.25	51136.02
572.41	50988.57
572.57	51058.79
572.74	50993.25
572.90	51145.39
573.06	51178.15
573.22	51709.46
573.38	51327.95
573.55	51248.37
573.71	51332.63
573.87	51089.21
574.03	50927.72
574.20	50941.76
574.36	51143.05
574.52	51168.79
574.68	50941.76
574.84	51260.07
575.01	51290.50
575.17	51358.38
575.33	51196.88
575.49	51173.47
575.65	51468.38
575.82	51428.59
575.98	51136.02
576.14	51192.20
576.30	51487.10
576.46	51337.31
576.62	51470.72
576.79	51433.27
576.95	50993.25
577.11	51136.02
577.27	51309.22
577.43	51447.32
577.59	51185.18
577.75	51337.31
577.92	51110.28
578.08	51019.00
578.24	51487.10
578.40	51770.31
578.56	51428.59
578.72	51407.53
578.88	51379.44
579.04	51332.63
579.21	51119.64
579.37	51426.25
579.53	51419.23
579.69	51365.40
579.85	51599.45
580.01	51847.55
580.17	51526.89
580.33	51426.25
580.49	51510.51
580.65	51435.61
580.82	51295.18
580.98	51295.18
581.14	51412.21
581.30	51529.23
581.46	51566.68
581.62	51693.07
581.78	51449.66
581.94	51885.00
582.10	51381.78
582.26	51475.40
582.42	51168.79
582.58	51414.55
582.74	51281.14
582.90	51667.33
583.06	51725.84
583.22	51461.36
583.38	52048.83
583.54	51592.43
583.70	51721.16
583.86	51896.70
584.02	51309.22
584.18	51894.36
584.34	51683.71
584.50	51615.83
584.66	51835.84
584.82	51323.27
584.98	51697.75
585.14	51704.77
585.30	51679.03
585.46	51847.55
585.62	51475.40
585.78	51978.62
585.94	51470.72
586.10	51674.35
586.26	51482.42
586.42	51290.50
586.58	51601.79
586.74	51360.72
586.90	51423.91
587.06	51585.41
587.22	51620.52
587.38	52112.03
587.54	51800.74
587.70	51770.31
587.86	51964.57
588.02	51566.68
588.18	51627.54
588.34	51559.66
588.49	51885.00
588.65	51547.96
588.81	52030.11
588.97	51838.18
589.13	52112.03
589.29	52112.03
589.45	52097.98
589.61	51730.52
589.77	52039.47
589.93	51922.44
590.08	52119.05
590.24	52165.86
590.40	52093.30
590.56	52116.71
590.72	52236.08
590.88	51999.68
591.04	52067.56
591.20	52467.79
591.35	51852.23
591.51	51990.32
591.67	52140.11
591.83	52025.43
591.99	52133.09
592.15	52259.48
592.31	52067.56
592.46	52154.16
592.62	52168.20
592.78	52334.38
592.94	52254.80
593.10	52034.79
593.26	52116.71
593.41	52233.74
593.57	52215.01
593.73	52205.65
593.89	52083.94
594.05	51845.21
594.20	52116.71
594.36	52470.13
594.52	52275.87
594.68	52247.78
594.84	52107.35
594.99	52222.03
595.15	52004.36
595.31	52350.76
595.47	52154.16
595.62	52198.63
595.78	51749.24
595.94	52030.11
596.10	52320.34
596.25	52598.86
596.41	52474.81
596.57	52470.13
596.73	52430.34
596.88	52329.70
597.04	52119.05
597.20	52378.85
597.36	52158.84
597.51	52589.50
597.67	52346.08
597.83	52292.25
597.99	52664.39
598.14	52327.36
598.30	52367.15
598.46	52275.87
598.61	52343.74
598.77	52135.43
598.93	52296.93
599.09	52458.43
599.24	52428.00
599.40	52226.71
599.56	52243.10
599.71	52184.58
599.87	52622.26
600.03	52362.46
600.18	52566.09
600.34	52645.67
600.50	52505.24
600.65	52163.52
600.81	52514.60
600.97	52521.62
601.12	52362.46
601.28	52100.32
601.44	52254.80
601.59	52275.87
601.75	52271.18
601.91	52650.35
602.06	52425.66
602.22	52540.35
602.37	52294.59
602.53	52287.57
602.69	52334.38
602.84	52292.25
603.00	51983.30
603.16	52390.55
603.31	52554.39
603.47	52533.32
603.62	52154.16
603.78	52519.28
603.94	52285.23
604.09	52514.60
604.25	52502.90
604.40	52233.74
604.56	52413.96
604.71	52437.36
604.87	52013.73
605.03	52411.62
605.18	51812.44
605.34	52222.03
605.49	52530.98
605.65	52350.76
605.80	52325.02
605.96	52273.52
606.12	52327.36
606.27	52645.67
606.43	52172.88
606.58	52215.01
606.74	52105.01
606.89	51978.62
607.05	52102.67
607.20	51784.35
607.36	52158.84
607.51	52266.50
607.67	52556.73
607.82	52282.89
607.98	52392.89
608.13	52413.96
608.29	51798.40
608.44	52142.45
608.60	52182.24
608.75	51976.28
608.91	52133.09
609.06	51526.89
609.22	51917.76
609.37	51817.12
609.53	52079.26
609.68	52491.19
609.84	52271.18
609.99	51941.17
610.15	52018.41
610.30	52259.48
610.46	51655.62
610.61	51421.57
610.76	51929.47
610.92	51735.20
611.07	51594.77
611.23	51554.98
611.38	51735.20
611.54	51957.55
611.69	51966.91
611.84	51835.84
612.00	51849.89
612.15	52079.26
612.31	52172.88
612.46	51931.81
612.62	51906.06
612.77	51672.01
612.92	52032.45
613.08	51533.92
613.23	51980.96
613.39	51519.87
613.54	51681.37
613.69	51618.17
613.85	51662.64
614.00	52004.36
614.15	51564.34
614.31	51674.35
614.46	51688.39
614.62	51679.03
614.77	51437.95
614.92	51578.39
615.08	51618.17
615.23	51697.75
615.38	51824.14
615.54	51501.15
615.69	51503.49
615.84	51339.65
616.00	51812.44
616.15	51700.09
616.30	51723.50
616.46	51587.75
616.61	51313.90
616.76	51463.70
616.92	51213.26
617.07	51239.01
617.22	50878.57
617.37	51367.74
617.53	51540.94
617.68	51803.08
617.83	51657.96
617.99	51590.09
618.14	51208.58
618.29	51433.27
618.45	51192.20
618.60	51269.43
618.75	50948.78
618.90	51082.19
619.06	51201.56
619.21	51185.18
619.36	51133.68
619.51	50906.65
619.67	50885.59
619.82	50974.53
619.97	51306.88
620.12	50777.92
620.28	50562.59
620.43	50749.84
620.58	50602.38
620.73	50752.18
620.89	50798.99
621.04	50782.60
621.19	50890.27
621.34	50923.04
621.49	51011.98
621.65	51168.79
621.80	51344.33
621.95	51035.38
622.10	50967.51
622.25	50885.59
622.41	50869.20
622.56	50850.48
622.71	51112.62
622.86	50728.77
623.01	50674.94
623.16	50618.77
623.32	50817.71
623.47	50761.54
623.62	50721.75
623.77	51026.02
623.92	50993.25
624.07	50796.65
624.23	50934.74
624.38	50740.47
624.53	50553.23
624.68	50445.57
624.83	50459.61
624.98	50347.26
625.13	50188.11
625.29	50305.13
625.44	50515.78
625.59	50052.36
625.74	50314.50
625.89	50356.63
626.04	50150.66
626.19	50557.91
626.34	50103.85
626.49	50138.96
626.65	49963.42
626.80	50272.37
626.95	50227.90
627.10	49815.96
627.25	49944.69
627.40	50059.38
627.55	49654.47
627.70	50216.19
627.85	49907.24
628.00	49895.54
628.15	50401.10
628.30	49600.63
628.45	49872.14
628.60	49965.76
628.76	49418.07
628.91	50103.85
629.06	49956.39
629.21	49778.51
629.36	49881.50
629.51	49537.44
629.66	49710.64
629.81	49413.39
629.96	49570.21
630.11	49914.26
630.26	49675.53
630.41	49523.40
630.56	49766.81
630.71	49392.33
630.86	49415.73
631.01	49123.16
631.16	49289.34
631.31	48947.62
631.46	48713.57
631.61	49530.42
631.76	49413.39
631.91	49338.49
632.06	49052.95
632.21	49041.24
632.36	49202.74
632.51	49366.58
632.66	49130.19
632.81	48610.59
632.96	49345.51
633.10	48914.86
633.25	49282.32
633.40	48954.64
633.55	48987.41
633.70	49069.33
633.85	49104.44
634.00	49125.50
634.15	48992.09
634.30	49155.93
634.45	49502.33
634.60	48942.94
634.75	49076.35
634.90	48720.59
635.05	49010.82
635.19	48896.13
635.34	49055.29
635.49	48877.41
635.64	48699.53
635.79	49120.82
635.94	48671.44
636.09	49003.80
636.24	48971.03
636.39	48619.95
636.53	49069.33
636.68	48430.36
636.83	49233.17
636.98	48680.80
637.13	48399.94
637.28	48722.93
637.43	48495.90
637.57	48655.06
637.72	48488.88
637.87	48507.60
638.02	48626.97
638.17	48872.73
638.32	48542.71
638.46	48650.38
638.61	48683.14
638.76	48135.46
638.91	48254.82
639.06	48165.88
639.20	48381.21
639.35	48013.75
639.50	47950.56
639.65	48006.73
639.80	48287.59
639.94	48236.10
640.09	48034.81
640.24	48203.33
640.39	48200.99
640.54	48208.01
640.68	48250.14
640.83	48186.95
640.98	48226.74
641.13	47533.94
641.27	48303.98
641.42	47964.60
641.57	47870.98
641.72	47749.27
641.86	47344.36
642.01	47655.65
642.16	47494.15
642.31	47454.36
642.45	47519.90
642.60	47592.45
642.75	47941.19
642.90	47555.00
643.04	47798.42
643.19	47421.59
643.34	47487.13
643.48	47344.36
643.63	47674.37
643.78	47615.86
643.93	47437.98
644.07	47456.70
644.22	47807.78
644.37	46820.08
644.51	47093.92
644.66	47185.20
644.81	47648.63
644.95	47274.14
645.10	46848.16
645.25	47475.43
645.39	47290.52
645.54	47398.19
645.69	47402.87
645.83	47117.32
645.98	47374.78
646.13	47318.61
646.27	47023.70
646.42	46859.87
646.57	47117.32
646.71	47168.82
646.86	47126.69
647.00	47594.79
647.15	47152.43
647.30	47229.67
647.44	47363.08
647.59	47330.31
647.74	47363.08
647.88	46932.42
648.03	47157.11
648.17	46717.09
648.32	46789.65
648.47	47061.15
648.61	46522.83
648.76	47114.98
648.90	46887.95
649.05	46754.54
649.20	46527.51
649.34	46857.52
649.49	46574.32
649.63	46625.81
649.78	46866.89
649.92	46415.16
650.07	47313.93
650.21	46735.82
650.36	46508.79
650.51	46375.37
650.65	46192.81
650.80	46487.72
650.94	46129.62
651.09	45900.25
651.23	46426.87
651.38	46532.19
651.52	46368.35
651.67	46473.68
651.81	46749.86
651.96	46518.15
652.10	46342.61
652.25	46028.98
652.39	46300.48
652.54	46550.91
652.68	46642.20
652.83	46021.95
652.97	46031.32
653.12	46169.41
653.26	46415.16
653.41	45879.18
653.55	46237.28
653.70	46270.05
653.84	46445.59
653.99	46164.73
654.13	46230.26
654.27	45982.16
654.42	45539.80
654.56	45914.29
654.71	45701.30
654.85	45696.62
655.00	45801.94
655.14	45645.13
655.29	45464.91
655.43	45801.94
655.57	45357.24
655.72	45504.70
655.86	45808.96
656.01	45818.33
656.15	45546.82
656.30	45656.83
656.44	46021.95
656.58	45427.46
656.73	45162.98
656.87	44940.63
657.01	44914.88
657.16	45705.98
657.30	45535.12
657.45	44905.52
657.59	44765.09
657.73	45043.61
657.88	45165.32
658.02	45088.08
658.16	45151.27
658.31	45481.29
658.45	45237.87
658.60	45027.23
658.74	44954.67
658.88	45027.23
659.03	44634.02
659.17	44772.11
659.31	44870.41
659.46	44194.00
659.60	44250.17
659.74	44278.25
659.89	44350.81
660.03	44671.46
660.17	44322.72
660.32	44245.49
660.46	45092.76
660.60	44170.59
660.74	44362.51
660.89	44292.30
661.03	44095.69
661.17	44641.04
661.32	43990.37
661.46	44039.52
661.60	43952.92
661.74	43782.06
661.89	44011.43
662.03	43768.02
662.17	43229.69
662.31	43416.94
662.46	44044.20
662.60	43470.77
662.74	43262.46
662.88	43639.29
663.03	43758.66
663.17	43863.98
663.31	43863.98
663.45	43665.03
663.60	43601.84
663.74	43061.18
663.88	43145.44
664.02	42920.74
664.17	43297.57
664.31	42527.53
664.45	43260.12
664.59	42904.36
664.73	42843.51
664.88	43496.52
665.02	42955.85
665.16	42939.47
665.30	42857.55
665.44	43012.02
665.59	42595.41
665.73	42986.28
665.87	42127.30
666.01	42316.89
666.15	42621.16
666.29	42153.05
666.44	42122.62
666.58	41977.51
666.72	41757.50
666.86	42131.98
667.00	42375.40
667.14	41617.07
667.28	41963.46
667.43	41722.39
667.57	42384.76
667.71	41961.12
667.85	42089.85
667.99	42127.30
668.13	41544.51
668.27	41525.78
668.41	41525.78
668.56	41429.82
668.70	41432.16
668.84	41235.56
668.98	41249.60
669.12	41181.73
669.26	41258.96
669.40	41603.02
669.54	40837.67
669.68	41003.85
669.82	40919.59
669.96	40823.62
670.10	40849.37
670.25	40992.14
670.39	41048.32
670.53	40603.61
670.67	40627.02
670.81	41036.61
670.95	40444.46
671.09	40018.48
671.23	39885.07
671.37	40449.14
671.51	39908.47
671.65	39936.56
671.79	39646.33
671.93	40425.73
672.07	40020.82
672.21	40222.11
672.35	39775.06
672.49	39990.39
672.63	39988.05
672.77	39709.53
672.91	39496.54
673.05	39470.79
673.19	39440.37
673.33	39330.36
673.47	39175.89
673.61	39065.88
673.75	39143.12
673.89	39129.08
674.03	38614.16
674.17	39112.69
674.31	39199.29
674.45	39072.90
674.59	38677.35
674.73	38717.14
674.87	38979.28
675.01	38789.70
675.15	38403.51
675.29	38155.41
675.43	38424.57
675.56	37670.92
675.70	38274.78
675.84	38003.28
675.98	36821.31
676.12	37809.01
676.26	38014.98
676.40	37947.11
676.54	37673.26
676.68	37354.95
676.82	36872.80
676.96	37275.37
677.10	37741.14
677.23	37174.73
677.37	37193.45
677.51	37479.00
677.65	37179.41
677.79	36828.33
677.93	36683.22
678.07	36524.06
678.21	35880.41
678.34	36030.21
678.48	35842.96
678.62	35789.13
678.76	35627.63
678.90	35456.78
679.04	35955.31
679.18	35674.45
679.31	35756.36
679.45	35510.61
679.59	35295.28
679.73	35360.81
679.87	35594.87
680.00	35512.95
680.14	35295.28
680.28	35072.93
680.42	34904.41
680.56	34822.49
680.70	34178.84
680.83	33949.47
680.97	34057.14
681.11	34319.28
681.25	34181.18
681.39	34045.43
681.52	34274.80
681.66	34094.58
681.80	33776.27
681.94	34094.58
682.07	33881.60
682.21	33780.95
682.35	33256.67
682.49	33343.27
682.62	33488.38
682.76	33371.36
682.90	33010.92
683.04	32950.06
683.17	33013.26
683.31	32308.76
683.45	33137.30
683.59	32727.71
683.72	31967.04
683.86	32601.32
684.00	31864.05
684.13	32037.25
684.27	32477.27
684.41	32191.73
684.55	32463.23
684.68	31955.33
684.82	31964.70
684.96	31784.48
685.09	31468.50
685.23	31365.52
685.37	31161.89
685.50	31564.46
685.64	30778.04
685.78	31047.21
685.91	31056.57
686.05	30855.28
686.19	30560.37
686.32	30597.82
686.46	30658.68
686.60	29902.68
686.73	30691.44
686.87	30026.73
687.01	30590.80
687.14	30338.02
687.28	30466.75
687.42	30211.64
687.55	30185.89
687.69	30431.65
687.82	29762.25
687.96	29682.67
688.10	29378.40
688.23	29460.32
688.37	29448.62
688.50	29336.27
688.64	28795.61
688.78	28907.96
688.91	28933.70
689.05	28790.93
689.18	28905.62
689.32	28498.36
689.46	28479.64
689.59	28545.17
689.73	28320.48
689.86	28137.92
690.00	28222.18
690.13	28606.03
690.27	28243.24
690.41	28116.86
690.54	27690.88
690.68	27620.66
690.81	27672.15
690.95	27304.69
691.08	27733.01
691.22	27311.71
691.35	27044.89
691.49	27271.92
691.62	26815.52
691.76	26960.63
691.89	27129.15
692.03	26672.74
692.16	26888.07
692.30	26710.19
692.43	26607.21
692.57	26387.20
692.70	26426.99
692.84	26389.54
692.97	25977.61
693.11	26089.95
693.24	25544.61
693.38	25455.67
693.51	25317.57
693.65	25322.26
693.78	25333.96
693.92	25514.18
694.05	25233.32
694.19	24952.45
694.32	25001.60
694.45	24884.58
694.59	24936.07
694.72	24694.99
694.86	25088.20
694.99	24919.68
695.13	24561.58
695.26	24624.78
695.39	24500.73
695.53	24180.07
695.66	23924.96
695.80	23707.29
695.93	23576.22
696.07	23503.66
696.20	23449.83
696.33	23569.19
696.47	23447.49
696.60	23403.02
696.73	23517.70
696.87	23330.46
697.00	23323.44
697.14	23218.11
697.27	23264.92
697.40	23379.61
697.54	23126.83
697.67	22857.67
697.80	22918.53
697.94	22635.32
698.07	22195.30
698.21	21879.33
698.34	22181.26
698.47	22122.74
698.61	21762.30
698.74	21909.75
698.87	21755.28
699.01	21408.88
699.14	21689.74
699.27	21909.75
699.40	21715.49
699.54	21221.64
699.67	21240.36
699.80	21036.74
699.94	21153.76
700.07	20868.22
700.20	20884.60
700.34	20699.70
700.47	20666.93
700.60	20854.17
700.73	20676.29
700.87	20608.42
701.00	20215.21
701.13	20271.38
701.26	20112.22
701.40	20060.73
701.53	19880.51
701.66	19992.86
701.79	19917.96
701.93	19761.14
702.06	19733.06
702.19	19854.76
702.32	19585.60
702.46	19756.46
702.59	19646.46
702.72	19447.51
702.85	19482.62
702.99	19080.05
703.12	19246.23
703.25	19131.54
703.38	19192.39
703.51	18642.37
703.65	18398.95
703.78	18258.52
703.91	18391.93
704.04	18401.29
704.17	18321.71
704.31	18314.69
704.44	18335.76
704.57	18455.12
704.70	17996.38
704.83	18029.15
704.96	18195.32
705.10	17972.97
705.23	17980.00
>>>>>End Processed Spectral Data<<<<<
