SpectraSuite Data File
++++++++++++++++++++++++++++++++++++
Date: Fri Oct 04 11:40:00 GMT-05:00 2013
User: price-jones
Dark Spectrum Present: No
Reference Spectrum Present: No
Number of Sampled Component Spectra: 1
Spectrometers: USB2+H05261
Integration Time (usec): 100000 (USB2+H05261)
Spectra Averaged: 1 (USB2+H05261)
Boxcar Smoothing: 0 (USB2+H05261)
Correct for Electrical Dark: No (USB2+H05261)
Strobe/Lamp Enabled: No (USB2+H05261)
Correct for Detector Non-linearity: No (USB2+H05261)
Correct for Stray Light: No (USB2+H05261)
Number of Pixels in Processed Spectrum: 2048
>>>>>Begin Processed Spectral Data<<<<<
365.73	70.22
365.92	70.22
366.12	70.22
366.32	0.00
366.52	0.00
366.72	0.00
366.91	0.00
367.11	0.00
367.31	0.00
367.51	0.00
367.70	0.00
367.90	0.00
368.10	0.00
368.30	0.00
368.49	0.00
368.69	0.00
368.89	0.00
369.09	0.00
369.28	0.00
369.48	0.00
369.68	0.00
369.87	0.00
370.07	18.72
370.27	72.56
370.47	65.54
370.66	0.00
370.86	135.75
371.06	95.96
371.25	117.03
371.45	154.48
371.65	126.39
371.84	138.09
372.04	119.37
372.24	154.48
372.44	112.35
372.63	173.20
372.83	203.63
373.03	166.18
373.22	149.79
373.42	147.45
373.62	177.88
373.81	121.71
374.01	215.33
374.21	121.71
374.40	95.96
374.60	187.24
374.79	189.58
374.99	201.29
375.19	208.31
375.38	161.50
375.58	119.37
375.78	210.65
375.97	142.77
376.17	241.08
376.37	180.22
376.56	191.92
376.76	128.73
376.95	124.05
377.15	191.92
377.35	156.82
377.54	168.52
377.74	121.71
377.93	163.84
378.13	220.01
378.33	243.42
378.52	175.54
378.72	140.43
378.91	180.22
379.11	117.03
379.31	81.92
379.50	110.01
379.70	191.92
379.89	138.09
380.09	131.07
380.28	187.24
380.48	180.22
380.68	198.95
380.87	152.13
381.07	180.22
381.26	220.01
381.46	184.90
381.65	212.99
381.85	95.96
382.04	182.56
382.24	231.71
382.43	163.84
382.63	117.03
382.83	215.33
383.02	140.43
383.22	166.18
383.41	154.48
383.61	138.09
383.80	210.65
384.00	152.13
384.19	191.92
384.39	196.60
384.58	135.75
384.78	166.18
384.97	182.56
385.17	133.41
385.36	217.67
385.56	138.09
385.75	145.11
385.95	100.64
386.14	142.77
386.34	229.37
386.53	168.52
386.72	110.01
386.92	180.22
387.11	159.16
387.31	208.31
387.50	170.86
387.70	161.50
387.89	189.58
388.09	177.88
388.28	180.22
388.48	154.48
388.67	154.48
388.86	135.75
389.06	203.63
389.25	154.48
389.45	180.22
389.64	175.54
389.84	212.99
390.03	259.80
390.22	163.84
390.42	212.99
390.61	208.31
390.81	194.26
391.00	180.22
391.19	287.89
391.39	252.78
391.58	182.56
391.78	152.13
391.97	231.71
392.16	152.13
392.36	285.55
392.55	184.90
392.75	227.03
392.94	184.90
393.13	236.39
393.33	182.56
393.52	194.26
393.71	203.63
393.91	180.22
394.10	245.76
394.29	229.37
394.49	196.60
394.68	212.99
394.88	245.76
395.07	220.01
395.26	245.76
395.46	266.82
395.65	360.44
395.84	257.46
396.04	271.50
396.23	351.08
396.42	311.29
396.62	334.70
396.81	327.68
397.00	241.08
397.19	271.50
397.39	212.99
397.58	339.38
397.77	292.57
397.97	257.46
398.16	280.86
398.35	264.48
398.55	283.20
398.74	313.63
398.93	273.84
399.12	327.68
399.32	292.57
399.51	248.10
399.70	257.46
399.90	273.84
400.09	348.74
400.28	339.38
400.47	306.61
400.67	353.42
400.86	362.78
401.05	390.87
401.24	332.36
401.44	395.55
401.63	325.33
401.82	442.36
402.01	337.04
402.21	409.59
402.40	372.15
402.59	454.06
402.78	365.12
402.97	374.49
403.17	355.76
403.36	351.08
403.55	390.87
403.74	320.65
403.93	430.66
404.13	498.53
404.32	421.30
404.51	449.38
404.70	482.15
404.89	411.93
405.09	496.19
405.28	479.81
405.47	456.40
405.66	491.51
405.85	491.51
406.05	479.81
406.24	479.81
406.43	444.70
406.62	514.92
406.81	554.71
407.00	535.98
407.20	580.45
407.39	557.05
407.58	566.41
407.77	521.94
407.96	566.41
408.15	564.07
408.34	547.69
408.54	538.32
408.73	599.18
408.92	528.96
409.11	592.16
409.30	582.79
409.49	622.58
409.68	582.79
409.87	613.22
410.07	606.20
410.26	697.48
410.45	664.71
410.64	695.14
410.83	716.20
411.02	657.69
411.21	704.50
411.40	660.03
411.59	716.20
411.78	713.86
411.98	657.69
412.17	641.31
412.36	671.73
412.55	720.88
412.74	774.72
412.93	650.67
413.12	748.97
413.31	858.98
413.50	828.55
413.69	723.23
413.88	837.91
414.07	847.27
414.26	903.45
414.45	823.87
414.64	793.44
414.83	898.77
415.02	835.57
415.22	903.45
415.41	978.34
415.60	877.70
415.79	908.13
415.98	922.17
416.17	929.19
416.36	938.55
416.55	924.51
416.74	894.08
416.93	994.73
417.12	943.24
417.31	891.74
417.50	912.81
417.69	1008.77
417.88	978.34
418.07	1008.77
418.26	1034.52
418.45	1034.52
418.64	1146.86
418.83	1083.67
419.02	1076.65
419.21	1046.22
419.39	1102.39
419.58	1121.12
419.77	1142.18
419.96	1081.33
420.15	1078.99
420.34	1116.44
420.53	1050.90
420.72	1116.44
420.91	1172.61
421.10	1139.84
421.29	1224.10
421.48	1130.48
421.67	1172.61
421.86	1231.12
422.05	1228.78
422.24	1153.88
422.43	1256.87
422.61	1200.69
422.80	1245.16
422.99	1266.23
423.18	1212.40
423.37	1179.63
423.56	1221.76
423.75	1170.27
423.94	1282.61
424.13	1130.48
424.32	1214.74
424.50	1242.82
424.69	1153.88
424.88	1327.08
425.07	1231.12
425.26	1273.25
425.45	1277.93
425.64	1252.19
425.83	1245.16
426.01	1266.23
426.20	1280.27
426.39	1268.57
426.58	1144.52
426.77	1261.55
426.96	1233.46
427.15	1261.55
427.33	1343.47
427.52	1261.55
427.71	1359.85
427.90	1369.21
428.09	1291.98
428.28	1334.11
428.46	1359.85
428.65	1446.45
428.84	1448.79
429.03	1441.77
429.22	1394.96
429.40	1425.39
429.59	1462.83
429.78	1385.60
429.97	1291.98
430.16	1338.79
430.34	1416.02
430.53	1420.71
430.72	1359.85
430.91	1348.15
431.10	1350.49
431.28	1420.71
431.47	1444.11
431.66	1504.96
431.85	1425.39
432.03	1427.73
432.22	1549.43
432.41	1584.54
432.60	1568.16
432.79	1476.88
432.97	1502.62
433.16	1519.01
433.35	1488.58
433.54	1610.29
433.72	1528.37
433.91	1533.05
434.10	1624.33
434.28	1549.43
434.47	1547.09
434.66	1568.16
434.85	1558.80
435.03	1671.14
435.22	1720.29
435.41	2104.14
435.59	2015.20
435.78	1834.98
435.97	1682.85
436.16	1722.63
436.34	1640.72
436.53	1612.63
436.72	1732.00
436.90	1657.10
437.09	1671.14
437.28	1645.40
437.46	1586.88
437.65	1774.13
437.84	1645.40
438.02	1699.23
438.21	1586.88
438.40	1624.33
438.58	1802.21
438.77	1753.06
438.96	1720.29
439.14	1762.42
439.33	1774.13
439.52	1818.60
439.70	1842.00
439.89	1858.39
440.08	1844.34
440.26	1823.28
440.45	1944.99
440.63	1937.96
440.82	1844.34
441.01	2001.16
441.19	1874.77
441.38	1881.79
441.57	1867.75
441.75	2015.20
441.94	2015.20
442.12	2017.54
442.31	1987.11
442.50	2045.63
442.68	1989.46
442.87	2125.21
443.05	2015.20
443.24	2085.42
443.43	2078.40
443.61	2033.93
443.80	2141.59
443.98	2062.01
444.17	1926.26
444.35	2031.58
444.54	2132.23
444.73	2136.91
444.91	2106.48
445.10	2001.16
445.28	2064.35
445.47	2146.27
445.65	2076.06
445.84	2071.37
446.02	1998.82
446.21	2012.86
446.39	2143.93
446.58	2183.72
446.77	2197.76
446.95	2115.84
447.14	2080.74
447.32	2258.62
447.51	2094.78
447.69	2050.31
447.88	2132.23
448.06	2047.97
448.25	2106.48
448.43	2050.31
448.62	2087.76
448.80	2062.01
448.99	2246.91
449.17	2125.21
449.36	2179.04
449.54	2319.47
449.73	2396.71
449.91	2242.23
450.10	2260.96
450.28	2221.17
450.46	2291.38
450.65	2244.57
450.83	2181.38
451.02	2305.43
451.20	2176.70
451.39	2239.89
451.57	2305.43
451.76	2289.04
451.94	2284.36
452.13	2347.56
452.31	2349.90
452.49	2380.32
452.68	2349.90
452.86	2251.60
453.05	2401.39
453.23	2370.96
453.42	2263.30
453.60	2394.37
453.78	2452.88
453.97	2403.73
454.15	2345.22
454.34	2431.82
454.52	2499.69
454.70	2476.29
454.89	2541.82
455.07	2251.60
455.26	2413.09
455.44	2511.39
455.62	2359.26
455.81	2424.80
455.99	2626.08
456.17	2612.04
456.36	2427.14
456.54	2544.16
456.73	2576.93
456.91	2642.46
457.09	2579.27
457.28	2576.93
457.46	2485.65
457.64	2616.72
457.83	2696.30
458.01	2640.12
458.19	2548.84
458.38	2663.53
458.56	2630.76
458.74	2672.89
458.93	2700.98
459.11	2773.53
459.29	2651.83
459.48	2771.19
459.66	2693.96
459.84	2754.81
460.03	2705.66
460.21	2658.85
460.39	2778.22
460.57	2693.96
460.76	2703.32
460.94	2803.96
461.12	2738.43
461.31	2801.62
461.49	2794.60
461.67	2731.41
461.85	2871.84
462.04	2794.60
462.22	3293.13
462.40	2995.89
462.59	2874.18
462.77	2850.77
462.95	2773.53
463.13	2890.56
463.32	2855.45
463.50	2923.33
463.68	2890.56
463.86	2909.29
464.05	2867.16
464.23	2892.90
464.41	3009.93
464.59	2930.35
464.78	2918.65
464.96	2916.31
465.14	2876.52
465.32	2930.35
465.50	2972.48
465.69	3094.19
465.87	3035.67
466.05	3030.99
466.23	2953.76
466.41	3047.38
466.60	3098.87
466.78	2979.50
466.96	3016.95
467.14	3019.29
467.32	2960.78
467.51	3066.10
467.69	3016.95
467.87	3183.13
468.05	3115.25
468.23	3213.56
468.41	3173.77
468.60	3077.80
468.78	3143.34
468.96	3162.06
469.14	3110.57
469.32	3145.68
469.50	3145.68
469.69	3070.78
469.87	3227.60
470.05	3110.57
470.23	3206.53
470.41	3155.04
470.59	3180.79
470.77	3185.47
470.95	3318.88
471.14	3141.00
471.32	3222.92
471.50	3339.94
471.68	3328.24
471.86	3370.37
472.04	3400.80
472.22	3410.16
472.40	3463.99
472.58	3384.41
472.77	3307.18
472.95	3407.82
473.13	3618.47
473.31	3630.17
473.49	3433.57
473.67	3419.52
473.85	3424.20
474.03	3574.00
474.21	3599.74
474.39	3581.02
474.57	3592.72
474.75	3653.58
474.93	3634.85
475.12	3555.27
475.30	3658.26
475.48	3604.42
475.66	3791.67
475.84	3653.58
476.02	3777.62
476.20	3742.52
476.38	3808.05
476.56	3784.65
476.74	3953.16
476.92	3702.73
477.10	3810.39
477.28	3798.69
477.46	4032.74
477.64	4018.70
477.82	3927.42
478.00	4060.83
478.18	4152.11
478.36	4205.94
478.54	4077.21
478.72	4168.49
478.90	4222.33
479.08	4217.65
479.26	4067.85
479.44	4365.10
479.62	4238.71
479.80	4456.38
479.98	4447.02
480.16	4250.41
480.34	4477.44
480.52	4435.32
480.70	4477.44
480.88	4461.06
481.06	4519.57
481.24	4491.49
481.41	4702.14
481.59	4629.58
481.77	4629.58
481.95	4791.08
482.13	4667.03
482.31	4851.93
482.49	4826.18
482.67	4873.00
482.85	4947.89
483.03	5067.26
483.21	5139.82
483.39	5111.73
483.57	4779.37
483.74	4945.55
483.92	4999.38
484.10	5008.75
484.28	5128.11
484.46	5350.46
484.64	5305.99
484.82	5163.22
485.00	5291.95
485.18	5556.43
485.35	5462.81
485.53	5678.14
485.71	5549.41
485.89	5603.24
486.07	5448.77
486.25	5682.82
486.43	5657.07
486.61	5877.09
486.78	5760.06
486.96	5687.50
487.14	5949.64
487.32	5872.40
487.50	5795.17
487.68	5856.02
487.85	6092.41
488.03	6162.63
488.21	6179.01
488.39	6012.84
488.57	6293.70
488.75	6113.48
488.92	6520.73
489.10	6384.98
489.28	6399.02
489.46	6274.98
489.64	6457.54
489.81	6574.56
489.99	6637.76
490.17	6548.82
490.35	6726.70
490.53	6738.40
490.70	6700.95
490.88	6766.49
491.06	6700.95
491.24	6743.08
491.41	6944.37
491.59	6839.05
491.77	6906.92
491.95	7089.48
492.13	7056.72
492.30	7061.40
492.48	6988.84
492.66	7080.12
492.84	7000.54
493.01	7349.28
493.19	7236.94
493.37	7337.58
493.54	7321.20
493.72	7428.86
493.90	7478.01
494.08	7559.93
494.25	7555.25
494.43	7541.21
494.61	7747.17
494.79	7503.76
494.96	7541.21
495.14	7676.96
495.32	7864.20
495.49	7782.28
495.67	7892.29
495.85	7889.95
496.02	7988.25
496.20	8035.06
496.38	7887.61
496.55	7962.50
496.73	8161.45
496.91	8056.12
497.09	8236.35
497.26	8351.03
497.44	8058.46
497.62	8210.60
497.79	8379.12
497.97	8374.44
498.14	8482.10
498.32	8554.66
498.50	8379.12
498.67	8671.68
498.85	8454.02
499.03	8554.66
499.20	8601.47
499.38	8585.08
499.56	8788.71
499.73	8842.54
499.91	8725.52
500.08	8748.92
500.26	8779.35
500.44	8959.57
500.61	8730.20
500.79	8922.12
500.97	9008.72
501.14	9088.30
501.32	8940.85
501.49	9032.13
501.67	9029.79
501.84	9132.77
502.02	8975.95
502.20	9350.44
502.37	9385.55
502.55	9303.63
502.72	9100.00
502.90	9156.18
503.07	9277.88
503.25	9371.50
503.43	9638.33
503.60	9350.44
503.78	9376.19
503.95	9647.69
504.13	9540.02
504.30	9455.76
504.48	9376.19
504.65	9949.62
504.83	9509.60
505.01	9647.69
505.18	9799.82
505.36	9771.74
505.53	9671.09
505.71	9696.84
505.88	9809.19
506.06	9851.31
506.23	9863.02
506.41	9867.70
506.58	9898.13
506.76	9888.76
506.93	9750.67
507.11	9912.17
507.28	10132.18
507.46	10015.15
507.63	10090.05
507.81	10008.13
507.98	10127.50
508.16	10080.69
508.33	10265.59
508.50	10228.14
508.68	10239.84
508.85	10424.75
509.03	10345.17
509.20	10380.28
509.38	10399.00
509.55	10464.54
509.73	10555.82
509.90	10656.46
510.08	10424.75
510.25	10436.45
510.42	10640.08
510.60	10532.41
510.77	10801.57
510.95	10829.66
511.12	10588.58
511.30	10597.95
511.47	10757.10
511.64	10993.50
511.82	10967.75
511.99	10892.85
512.17	10995.84
512.34	10827.32
512.51	11098.82
512.69	10946.69
512.86	11073.07
513.04	11040.31
513.21	11192.44
513.38	11162.01
513.56	11367.98
513.73	11012.22
513.90	11178.40
514.08	11019.24
514.25	11187.76
514.43	11307.13
514.60	11187.76
514.77	11087.12
514.95	11648.85
515.12	11414.79
515.29	11419.47
515.47	11459.26
515.64	11538.84
515.81	11449.90
515.99	11789.28
516.16	11578.63
516.33	11669.91
516.51	11903.96
516.68	11482.67
516.85	11648.85
517.03	11536.50
517.20	11747.15
517.37	11829.07
517.54	11674.59
517.72	11632.46
517.89	11765.87
518.06	11861.84
518.24	11506.07
518.41	12091.21
518.58	11864.18
518.75	11822.05
518.93	12035.03
519.10	11976.52
519.27	11934.39
519.45	12100.57
519.62	12109.93
519.79	12020.99
519.96	12037.38
520.14	12226.96
520.31	12407.18
520.48	12119.29
520.65	12219.94
520.83	12327.60
521.00	12329.94
521.17	12339.30
521.34	12205.89
521.52	12407.18
521.69	12290.15
521.86	12528.89
522.03	12727.83
522.20	12535.91
522.38	12346.33
522.55	12470.37
522.72	12482.08
522.89	12624.85
523.07	12676.34
523.24	12659.96
523.41	12648.26
523.58	12313.56
523.75	12793.37
523.92	12610.81
524.10	12622.51
524.27	12645.91
524.44	12798.05
524.61	13142.11
524.78	13088.28
524.96	12674.00
525.13	12959.55
525.30	12982.95
525.47	12812.09
525.64	13008.70
525.81	13186.58
525.98	13270.84
526.16	13081.25
526.33	13277.86
526.50	13207.64
526.67	13053.17
526.84	13041.46
527.01	13036.78
527.18	13362.12
527.36	13181.90
527.53	13289.56
527.70	13399.57
527.87	13371.48
528.04	13263.82
528.21	13289.56
528.38	13245.09
528.55	13570.43
528.72	13509.57
528.89	13352.76
529.07	13277.86
529.24	13289.56
529.41	13516.59
529.58	13642.98
529.75	13221.69
529.92	13507.23
530.09	13628.94
530.26	13437.02
530.43	13544.68
530.60	13495.53
530.77	13411.27
530.94	13621.92
531.11	13713.20
531.28	13727.24
531.46	13830.23
531.63	13689.79
531.80	13565.74
531.97	13879.38
532.14	13851.29
532.31	13729.58
532.48	13858.31
532.65	13987.04
532.82	13633.62
532.99	13809.16
533.16	13708.52
533.33	13886.40
533.50	14015.13
533.67	13973.00
533.84	13970.66
534.01	13963.64
534.18	13982.36
534.35	14017.47
534.52	13977.68
534.69	13996.40
534.86	14181.31
535.03	14015.13
535.20	14197.69
535.37	14211.73
535.54	14120.45
535.71	13980.02
535.88	14286.63
536.05	14270.25
536.22	14483.24
536.38	14185.99
536.55	14363.87
536.72	14122.79
536.89	14354.51
537.06	14258.54
537.23	14211.73
537.40	14396.64
537.57	14410.68
537.74	14485.58
537.91	14518.34
538.08	14668.14
538.25	14270.25
538.42	14368.55
538.59	14593.24
538.75	14576.86
538.92	14539.41
539.09	14656.43
539.26	14958.36
539.43	14590.90
539.60	14808.57
539.77	14611.96
539.94	14633.03
540.11	14614.30
540.28	14932.62
540.44	14958.36
540.61	14824.95
540.78	15119.86
540.95	14871.76
541.12	14888.15
541.29	15225.18
541.46	15396.04
541.62	15204.12
541.79	15246.25
541.96	15169.01
542.13	15068.37
542.30	15382.00
542.47	15644.14
542.63	15225.18
542.80	15314.13
542.97	15592.65
543.14	15283.70
543.31	15391.36
543.48	15248.59
543.64	15431.15
543.81	15328.17
543.98	15552.86
544.15	15669.89
544.32	15506.05
544.48	15800.96
544.65	15506.05
544.82	15784.57
544.99	15524.77
545.16	15569.24
545.32	15810.32
545.49	16257.36
545.66	16617.80
545.83	16510.14
546.00	16833.13
546.16	16161.40
546.33	15704.99
546.50	15625.42
546.67	15826.70
546.83	15447.54
547.00	15384.34
547.17	15810.32
547.34	15676.91
547.50	15761.17
547.67	15800.96
547.84	15613.71
548.00	15683.93
548.17	15995.22
548.34	15592.65
548.51	15969.48
548.67	15833.72
548.84	15454.56
549.01	15627.76
549.18	15868.83
549.34	15850.11
549.51	15815.00
549.68	15623.08
549.84	15840.75
550.01	15754.15
550.18	15747.12
550.34	15857.13
550.51	15793.94
550.68	15901.60
550.84	15564.56
551.01	15510.73
551.18	15693.29
551.34	15616.05
551.51	15751.81
551.68	15700.31
551.84	16004.58
552.01	15796.28
552.18	15672.23
552.34	15999.90
552.51	15829.04
552.68	15798.62
552.84	15885.22
553.01	15892.24
553.18	16060.76
553.34	15880.53
553.51	15885.22
553.67	15878.19
553.84	16121.61
554.01	16177.78
554.17	15815.00
554.34	15810.32
554.51	16039.69
554.67	15894.58
554.84	15857.13
555.00	15840.75
555.17	15992.88
555.33	16107.57
555.50	16149.70
555.67	15964.79
555.83	15702.65
556.00	15906.28
556.16	16130.97
556.33	16283.11
556.50	15903.94
556.66	15999.90
556.83	16173.10
556.99	16011.60
557.16	16042.03
557.32	15950.75
557.49	16322.90
557.65	16027.99
557.82	16013.95
557.98	15995.22
558.15	15974.16
558.32	16098.20
558.48	16067.78
558.65	16280.77
558.81	16358.00
558.98	15871.17
559.14	16011.60
559.31	15920.32
559.47	15974.16
559.64	15983.52
559.80	16365.03
559.97	16470.35
560.13	16484.39
560.30	16114.59
560.46	16346.30
560.63	16306.51
560.79	16084.16
560.96	16248.00
561.12	16006.92
561.29	16072.46
561.45	15997.56
561.61	16137.99
561.78	16313.53
561.94	16142.67
562.11	16149.70
562.27	16091.18
562.44	16088.84
562.60	16135.65
562.77	16397.79
562.93	16156.72
563.10	16563.97
563.26	15906.28
563.42	16264.38
563.59	16051.39
563.75	16224.59
563.92	16423.54
564.08	16212.89
564.24	16379.07
564.41	16163.74
564.57	15985.86
564.74	16194.17
564.90	16149.70
565.07	16404.81
565.23	16374.39
565.39	16219.91
565.56	16409.50
565.72	16123.95
565.88	15908.62
566.05	16042.03
566.21	16367.37
566.38	16367.37
566.54	16472.69
566.70	16451.63
566.87	16353.32
567.03	16343.96
567.19	16861.22
567.36	16379.07
567.52	16252.68
567.68	16142.67
567.85	16084.16
568.01	16262.04
568.17	16315.87
568.34	16386.09
568.50	16393.11
568.66	16360.34
568.83	16620.14
568.99	16301.83
569.15	16432.90
569.32	16400.13
569.48	16177.78
569.64	16290.13
569.81	16540.57
569.97	16350.98
570.13	16358.00
570.30	16205.87
570.46	16432.90
570.62	16348.64
570.78	16243.32
570.95	16257.36
571.11	16479.71
571.27	16271.40
571.43	16084.16
571.60	16500.78
571.76	16430.56
571.92	16397.79
572.09	16547.59
572.25	16741.85
572.41	16594.40
572.57	16383.75
572.74	16695.04
572.90	16444.60
573.06	16306.51
573.22	16205.87
573.38	16498.44
573.55	16510.14
573.71	16666.95
573.87	16734.83
574.03	16425.88
574.20	16636.53
574.36	16250.34
574.52	16425.88
574.68	16313.53
574.84	16421.20
575.01	16294.81
575.17	16634.19
575.33	16468.01
575.49	16421.20
575.65	16367.37
575.82	16744.19
575.98	16524.18
576.14	16362.69
576.30	16570.99
576.46	16479.71
576.62	16758.24
576.79	16737.17
576.95	16554.61
577.11	16638.87
577.27	16505.46
577.43	16596.74
577.59	16561.63
577.75	16332.26
577.92	16358.00
578.08	16257.36
578.24	16397.79
578.40	16320.56
578.56	16386.09
578.72	16854.20
578.88	16922.07
579.04	16863.56
579.21	16627.17
579.37	16524.18
579.53	16430.56
579.69	16491.41
579.85	16657.59
580.01	16414.18
580.17	16730.15
580.33	16423.54
580.49	16479.71
580.65	16879.94
580.82	16725.47
580.98	16690.36
581.14	16702.06
581.30	16856.54
581.46	16500.78
581.62	16594.40
581.78	16383.75
581.94	16718.45
582.10	16538.23
582.26	16498.44
582.42	16669.30
582.58	16489.07
582.74	16762.92
582.90	16809.73
583.06	16608.44
583.22	16727.81
583.38	16685.68
583.54	16671.64
583.70	16355.66
583.86	16449.28
584.02	16664.61
584.18	16748.87
584.34	16762.92
584.50	16936.12
584.66	16664.61
584.82	16556.95
584.98	16662.27
585.14	16514.82
585.30	16819.09
585.46	16311.19
585.62	16643.55
585.78	16517.16
585.94	16570.99
586.10	16828.45
586.26	16915.05
586.42	16809.73
586.58	17029.74
586.74	16755.90
586.90	16664.61
587.06	16727.81
587.22	16910.37
587.38	16819.09
587.54	16758.24
587.70	16879.94
587.86	16681.00
588.02	16999.31
588.18	16739.51
588.34	16987.61
588.49	16734.83
588.65	16498.44
588.81	16507.80
588.97	16592.06
589.13	16561.63
589.29	16863.56
589.45	16681.00
589.61	16638.87
589.77	16814.41
589.93	16833.13
590.08	16989.95
590.24	16709.08
590.40	16758.24
590.56	16877.60
590.72	16496.10
590.88	16718.45
591.04	16599.08
591.20	16753.55
591.35	17029.74
591.51	16868.24
591.67	16772.28
591.83	16812.07
591.99	16851.86
592.15	17111.66
592.31	17076.55
592.46	16716.11
592.62	16826.11
592.78	16610.78
592.94	16613.12
593.10	16922.07
593.26	16844.84
593.41	16711.42
593.57	16741.85
593.73	16798.02
593.89	16903.35
594.05	16685.68
594.20	16690.36
594.36	16692.70
594.52	16760.58
594.68	16606.10
594.84	16819.09
594.99	16634.19
595.15	16706.74
595.31	16966.54
595.47	16870.58
595.62	16926.75
595.78	16898.67
595.94	16800.37
596.10	16826.11
596.25	16798.02
596.41	16676.32
596.57	16966.54
596.73	16678.66
596.88	16678.66
597.04	16945.48
597.20	16882.28
597.36	16854.20
597.51	17076.55
597.67	16755.90
597.83	16643.55
597.99	16945.48
598.14	16695.04
598.30	16837.81
598.46	16985.27
598.61	16901.01
598.77	16610.78
598.93	16769.94
599.09	16718.45
599.24	16936.12
599.40	16659.93
599.56	17121.02
599.71	16938.46
599.87	16678.66
600.03	16709.08
600.18	16905.69
600.34	16695.04
600.50	16533.54
600.65	17041.44
600.81	16704.40
600.97	16985.27
601.12	16996.97
601.28	16685.68
601.44	16636.53
601.59	16961.86
601.75	16554.61
601.91	16734.83
602.06	16568.65
602.22	16374.39
602.37	16629.51
602.53	16446.94
602.69	16688.02
602.84	16814.41
603.00	16957.18
603.16	16858.88
603.31	16641.21
603.47	16699.72
603.62	16765.26
603.78	16627.17
603.94	16779.30
604.09	16690.36
604.25	16578.01
604.40	16479.71
604.56	16971.22
604.71	17001.65
604.87	16819.09
605.03	16706.74
605.18	16741.85
605.34	16655.25
605.49	16416.52
605.65	16594.40
605.80	16645.89
605.96	16610.78
606.12	16463.33
606.27	16666.95
606.43	16711.42
606.58	16510.14
606.74	16472.69
606.89	17003.99
607.05	16837.81
607.20	16868.24
607.36	16510.14
607.51	16456.31
607.67	16652.91
607.82	16395.45
607.98	16751.21
608.13	16374.39
608.29	16540.57
608.44	16556.95
608.60	16613.12
608.75	16690.36
608.91	17003.99
609.06	16812.07
609.22	16798.02
609.37	16879.94
609.53	16690.36
609.68	16718.45
609.84	16449.28
609.99	16711.42
610.15	16819.09
610.30	16886.97
610.46	16706.74
610.61	17610.19
610.76	17879.35
610.92	17848.93
611.07	17783.39
611.23	17865.31
611.38	17490.82
611.54	17280.18
611.69	17383.16
611.84	17233.36
612.00	16886.97
612.15	16985.27
612.31	17039.10
612.46	16814.41
612.62	16896.33
612.77	16704.40
612.92	16805.05
613.08	16411.84
613.23	16683.34
613.39	16592.06
613.54	16369.71
613.69	16755.90
613.85	16411.84
614.00	16538.23
614.15	16589.72
614.31	16283.11
614.46	16706.74
614.62	16699.72
614.77	16472.69
614.92	16596.74
615.08	16533.54
615.23	16252.68
615.38	16369.71
615.54	16159.06
615.69	16311.19
615.84	16079.48
616.00	16180.12
616.15	16283.11
616.30	16208.21
616.46	16133.31
616.61	16201.19
616.76	16381.41
616.92	16334.60
617.07	16191.83
617.22	15850.11
617.37	16004.58
617.53	15995.22
617.68	15873.51
617.83	15950.75
617.99	15967.13
618.14	16173.10
618.29	16077.14
618.45	16177.78
618.60	15887.56
618.75	16299.49
618.90	16070.12
619.06	16128.63
619.21	15925.00
619.36	16035.01
619.51	15791.59
619.67	15838.41
619.82	15838.41
619.97	15969.48
620.12	15859.47
620.28	15786.91
620.43	16109.91
620.58	16025.65
620.73	16145.02
620.89	16152.04
621.04	16025.65
621.19	15932.03
621.34	16100.55
621.49	15941.39
621.65	15887.56
621.80	16088.84
621.95	15889.90
622.10	16105.23
622.25	15985.86
622.41	15695.63
622.56	15807.98
622.71	15623.08
622.86	15903.94
623.01	15990.54
623.16	16147.36
623.32	15906.28
623.47	15735.42
623.62	15683.93
623.77	15831.38
623.92	15700.31
624.07	15770.53
624.23	15726.06
624.38	15955.43
624.53	15838.41
624.68	15875.85
624.83	15723.72
624.98	15669.89
625.13	15559.88
625.29	15690.95
625.44	15475.62
625.59	15513.07
625.74	15494.35
625.89	15374.98
626.04	15374.98
626.19	15627.76
626.34	15370.30
626.49	15520.09
626.65	15122.20
626.80	15562.22
626.95	15587.97
627.10	15169.01
627.25	15283.70
627.40	15531.80
627.55	15398.38
627.70	15676.91
627.85	15400.72
628.00	15470.94
628.15	15639.46
628.30	15370.30
628.45	15435.83
628.60	15316.47
628.76	15616.05
628.91	15501.37
629.06	15344.55
629.21	15426.47
629.36	15297.74
629.51	15215.82
629.66	15382.00
629.81	15342.21
629.96	15325.83
630.11	15449.88
630.26	15178.37
630.41	15421.79
630.56	15433.49
630.71	15459.24
630.86	15382.00
631.01	15393.70
631.16	15440.51
631.31	15363.28
631.46	15367.96
631.61	15091.77
631.76	15328.17
631.91	14941.98
632.06	15290.72
632.21	15176.03
632.36	15026.24
632.51	15115.18
632.66	15129.22
632.81	14941.98
632.96	15234.55
633.10	14909.21
633.25	15192.42
633.40	15040.28
633.55	15183.06
633.70	14682.18
633.85	14841.34
634.00	15136.24
634.15	15236.89
634.30	14834.32
634.45	14916.23
634.60	14956.02
634.75	15225.18
634.90	15014.54
635.05	14787.50
635.19	15014.54
635.34	15180.71
635.49	14970.07
635.64	14946.66
635.79	14726.65
635.94	14934.96
636.09	14822.61
636.24	15007.52
636.39	14827.29
636.53	14963.04
636.68	14906.87
636.83	14661.12
636.98	14789.85
637.13	14595.58
637.28	14918.57
637.43	14888.15
637.57	15023.90
637.72	14803.89
637.87	14871.76
638.02	14817.93
638.17	14881.13
638.32	14848.36
638.46	14609.62
638.61	14743.03
638.76	14679.84
638.91	14574.52
639.06	14806.23
639.20	14635.37
639.35	14609.62
639.50	14836.66
639.65	14703.25
639.80	14696.22
639.94	14555.79
640.09	14822.61
640.24	14855.38
640.39	14532.39
640.54	14654.09
640.68	14235.14
640.83	14651.75
640.98	14398.98
641.13	14672.82
641.27	14614.30
641.42	14490.26
641.57	14513.66
641.72	14740.69
641.86	14630.69
642.01	14319.40
642.16	14586.22
642.31	14361.53
642.45	14590.90
642.60	14466.85
642.75	14384.93
642.90	14604.94
643.04	14293.65
643.19	14347.48
643.34	14459.83
643.48	14670.48
643.63	14391.95
643.78	14602.60
643.93	14586.22
644.07	14305.35
644.22	14396.64
644.37	14003.43
644.51	14003.43
644.66	14513.66
644.81	14200.03
644.95	14338.12
645.10	14239.82
645.25	14207.05
645.39	14384.93
645.54	14188.33
645.69	14232.80
645.83	14335.78
645.98	14265.57
646.13	14518.34
646.27	14359.19
646.42	14146.20
646.57	14221.10
646.71	14106.41
646.86	14251.52
647.00	14178.97
647.15	14139.18
647.30	14106.41
647.44	13965.98
647.59	14295.99
647.74	14094.71
647.88	14195.35
648.03	14307.69
648.17	14270.25
648.32	14162.58
648.47	14373.23
648.61	13984.70
648.76	14160.24
648.90	14249.18
649.05	13909.80
649.20	14010.45
649.34	14122.79
649.49	13806.82
649.63	13921.51
649.78	14171.94
649.92	14050.24
650.07	14307.69
650.21	14157.90
650.36	14314.72
650.51	14171.94
650.65	14281.95
650.80	14125.13
650.94	13895.76
651.09	13965.98
651.23	13977.68
651.38	14038.53
651.52	14059.60
651.67	13895.76
651.81	14083.00
651.96	14270.25
652.10	14064.28
652.25	14101.73
652.39	13909.80
652.54	14094.71
652.68	14171.94
652.83	14129.81
652.97	13949.59
653.12	14146.20
653.26	13841.93
653.41	13973.00
653.55	13694.47
653.70	13867.67
653.84	13926.19
653.99	13680.43
654.13	13874.70
654.27	13760.01
654.42	13893.42
654.56	13778.73
654.71	13781.07
654.85	13806.82
655.00	13638.30
655.14	13884.06
655.29	13664.05
655.43	13666.39
655.57	13846.61
655.72	13635.96
655.86	13474.46
656.01	13659.37
656.15	13502.55
656.30	13664.05
656.44	13855.97
656.58	13563.40
656.73	13806.82
656.87	13626.60
657.01	13558.72
657.16	13521.27
657.30	13614.90
657.45	13460.42
657.59	13584.47
657.73	13825.54
657.88	13556.38
658.02	13427.65
658.16	13338.71
658.31	13493.19
658.45	13516.59
658.60	13432.33
658.74	13486.17
658.88	13497.87
659.03	13549.36
659.17	13151.47
659.31	13240.41
659.46	13413.61
659.60	13352.76
659.74	13486.17
659.89	13310.63
660.03	13415.95
660.17	13352.76
660.32	13282.54
660.46	13411.27
660.60	13273.18
660.74	13378.50
660.89	13394.89
661.03	13198.28
661.17	13071.89
661.32	13254.45
661.46	13247.43
661.60	13029.76
661.74	13359.78
661.89	13385.52
662.03	13214.66
662.17	13195.94
662.31	12989.97
662.46	13219.35
662.60	13071.89
662.74	12884.65
662.88	12910.40
663.03	12917.42
663.17	12975.93
663.31	12835.50
663.45	13209.98
663.60	13069.55
663.74	13015.72
663.88	12776.98
664.02	13128.06
664.17	12849.54
664.31	12784.01
664.45	12706.77
664.59	13071.89
664.73	12800.39
664.88	12854.22
665.02	12622.51
665.16	12720.81
665.30	12692.73
665.44	12519.53
665.59	12755.92
665.73	12713.79
665.87	12524.21
666.01	12872.95
666.15	12753.58
666.29	12521.87
666.44	12802.73
666.58	12634.21
666.72	12624.85
666.86	12582.72
667.00	12428.24
667.14	12369.73
667.28	12723.15
667.43	12292.49
667.57	12304.20
667.71	12343.99
667.85	12376.75
667.99	12374.41
668.13	12290.15
668.27	12540.59
668.41	12313.56
668.56	12292.49
668.70	12458.67
668.84	12201.21
668.98	12533.57
669.12	12189.51
669.26	12311.22
669.40	12372.07
669.54	12025.67
669.68	12231.64
669.82	12032.69
669.96	12210.57
670.10	12114.61
670.25	12224.62
670.39	11934.39
670.53	12028.01
670.67	12065.46
670.81	11850.13
670.95	11847.79
671.09	11871.20
671.23	11976.52
671.37	11845.45
671.51	11913.33
671.65	12175.47
671.79	11878.22
671.93	11829.07
672.07	11857.15
672.21	11859.49
672.35	11721.40
672.49	11723.74
672.63	11751.83
672.77	11625.44
672.91	11637.14
673.05	11501.39
673.19	11740.13
673.33	11683.95
673.47	11758.85
673.61	11545.86
673.75	11632.46
673.89	11412.45
674.03	11367.98
674.17	11571.61
674.31	11529.48
674.45	11449.90
674.59	11459.26
674.73	11461.60
674.87	11342.24
675.01	11293.08
675.15	11529.48
675.29	11321.17
675.43	11243.93
675.56	11382.03
675.70	11407.77
675.84	11545.86
675.98	11049.67
676.12	11140.95
676.26	11356.28
676.40	11316.49
676.54	11112.86
676.68	11014.56
676.82	10780.51
676.96	11103.50
677.10	10712.63
677.23	10970.09
677.37	10977.11
677.51	10883.49
677.65	10930.30
677.79	10623.69
677.93	10647.10
678.07	10810.93
678.21	10637.73
678.34	10616.67
678.48	10572.20
678.62	10469.22
678.76	10576.88
678.90	10562.84
679.04	10562.84
679.18	10527.73
679.31	10485.60
679.45	10214.10
679.59	10459.85
679.73	10258.57
679.87	10300.70
680.00	10106.43
680.14	10141.54
680.28	10401.34
680.42	9900.47
680.56	10246.87
680.70	10186.01
680.83	10036.22
680.97	10214.10
681.11	10115.80
681.25	9989.41
681.39	9963.66
681.52	10029.20
681.66	9851.31
681.80	9895.78
681.94	9921.53
682.07	9919.19
682.21	9888.76
682.35	9912.17
682.49	9769.40
682.62	9872.38
682.76	9652.37
682.90	9633.64
683.04	9984.73
683.17	9696.84
683.31	9680.46
683.45	9774.08
683.59	9570.45
683.72	9614.92
683.86	9455.76
684.00	9446.40
684.13	9549.39
684.27	9441.72
684.41	9502.58
684.55	9453.42
684.68	9308.31
684.82	9114.05
684.96	9390.23
685.09	9177.24
685.23	9188.94
685.37	9219.37
685.50	9160.86
685.64	9345.76
685.78	9160.86
685.91	9228.73
686.05	9118.73
686.19	8992.34
686.32	8835.52
686.46	8802.75
686.60	8685.73
686.73	8938.51
686.87	8887.01
687.01	8936.17
687.14	8641.26
687.28	8784.03
687.42	8727.86
687.55	8809.78
687.69	8676.37
687.82	8744.24
687.96	8692.75
688.10	8613.17
688.23	8720.84
688.37	8482.10
688.50	8739.56
688.64	8667.00
688.78	8409.54
688.91	8500.83
689.05	8320.60
689.18	8278.47
689.32	8318.26
689.46	8124.00
689.59	8301.88
689.73	8273.79
689.86	8116.98
690.00	8112.30
690.13	8163.79
690.27	8081.87
690.41	8226.98
690.54	8149.75
690.68	8086.55
690.81	8271.45
690.95	8051.44
691.08	8119.32
691.22	8035.06
691.35	7850.16
691.49	7971.86
691.62	7939.10
691.76	7882.92
691.89	7723.77
692.03	7534.18
692.16	7756.54
692.30	7599.72
692.43	7555.25
692.57	7616.10
692.70	7573.97
692.84	7723.77
692.97	7445.24
693.11	7398.43
693.24	7566.95
693.38	7398.43
693.51	7618.44
693.65	7599.72
693.78	7382.05
693.92	7405.46
694.05	7405.46
694.19	7241.62
694.32	7290.77
694.45	7267.36
694.59	7241.62
694.72	7246.30
694.86	7229.91
694.99	7091.82
695.13	7075.44
695.26	7103.53
695.39	7066.08
695.53	7227.57
695.66	7159.70
695.80	7208.85
695.93	6981.82
696.07	6939.69
696.20	7098.84
696.33	7007.56
696.47	6860.11
696.60	6775.85
696.73	6764.15
696.87	6712.66
697.00	6970.12
697.14	6825.00
697.27	6483.28
697.40	6668.19
697.54	6677.55
697.67	6593.29
697.80	6647.12
697.94	6527.75
698.07	6483.28
698.21	6569.88
698.34	6506.69
698.47	6516.05
698.61	6434.13
698.74	6314.77
698.87	6560.52
699.01	6492.65
699.14	6415.41
699.27	6438.81
699.40	6347.53
699.54	6303.06
699.67	6265.61
699.80	6239.87
699.94	6108.80
700.07	5998.79
700.20	6108.80
700.34	6017.52
700.47	6008.16
700.60	6136.88
700.73	6064.33
700.87	6157.95
701.00	6094.76
701.13	5818.57
701.26	5851.34
701.40	5888.79
701.53	5944.96
701.66	5881.77
701.79	5851.34
701.93	5846.66
702.06	5844.32
702.19	5708.57
702.32	5753.04
702.46	5607.92
702.59	5795.17
702.72	5734.31
702.85	5617.29
702.99	5514.30
703.12	5511.96
703.25	5579.84
703.38	5593.88
703.51	5516.64
703.65	5556.43
703.78	5486.22
703.91	5542.39
704.04	5465.15
704.17	5453.45
704.31	5390.25
704.44	5338.76
704.57	5362.17
704.70	5214.71
704.83	5275.57
704.96	5268.55
705.10	5394.93
705.23	5266.21
>>>>>End Processed Spectral Data<<<<<
