SpectraSuite Data File
++++++++++++++++++++++++++++++++++++
Date: Fri Oct 04 11:39:59 GMT-05:00 2013
User: price-jones
Dark Spectrum Present: No
Reference Spectrum Present: No
Number of Sampled Component Spectra: 1
Spectrometers: USB2+H05261
Integration Time (usec): 100000 (USB2+H05261)
Spectra Averaged: 1 (USB2+H05261)
Boxcar Smoothing: 0 (USB2+H05261)
Correct for Electrical Dark: No (USB2+H05261)
Strobe/Lamp Enabled: No (USB2+H05261)
Correct for Detector Non-linearity: No (USB2+H05261)
Correct for Stray Light: No (USB2+H05261)
Number of Pixels in Processed Spectrum: 2048
>>>>>Begin Processed Spectral Data<<<<<
365.73	0.00
365.92	0.00
366.12	0.00
366.32	0.00
366.52	0.00
366.72	0.00
366.91	0.00
367.11	0.00
367.31	0.00
367.51	9.36
367.70	0.00
367.90	0.00
368.10	0.00
368.30	0.00
368.49	0.00
368.69	0.00
368.89	23.41
369.09	0.00
369.28	0.00
369.48	0.00
369.68	0.00
369.87	0.00
370.07	0.00
370.27	0.00
370.47	0.00
370.66	121.71
370.86	95.96
371.06	39.79
371.25	140.43
371.45	32.77
371.65	93.62
371.84	124.05
372.04	95.96
372.24	159.16
372.44	16.38
372.63	147.45
372.83	105.32
373.03	72.56
373.22	84.26
373.42	112.35
373.62	145.11
373.81	147.45
374.01	91.28
374.21	156.82
374.40	142.77
374.60	74.90
374.79	147.45
374.99	81.92
375.19	156.82
375.38	124.05
375.58	147.45
375.78	203.63
375.97	170.86
376.17	170.86
376.37	149.79
376.56	175.54
376.76	105.32
376.95	121.71
377.15	37.45
377.35	65.54
377.54	180.22
377.74	86.60
377.93	154.48
378.13	117.03
378.33	133.41
378.52	124.05
378.72	110.01
378.91	110.01
379.11	114.69
379.31	93.62
379.50	16.38
379.70	142.77
379.89	138.09
380.09	107.66
380.28	114.69
380.48	117.03
380.68	105.32
380.87	65.54
381.07	177.88
381.26	121.71
381.46	163.84
381.65	154.48
381.85	131.07
382.04	142.77
382.24	124.05
382.43	107.66
382.63	100.64
382.83	102.98
383.02	100.64
383.22	124.05
383.41	112.35
383.61	114.69
383.80	142.77
384.00	93.62
384.19	133.41
384.39	166.18
384.58	124.05
384.78	107.66
384.97	114.69
385.17	56.17
385.36	191.92
385.56	81.92
385.75	121.71
385.95	53.83
386.14	65.54
386.34	138.09
386.53	79.58
386.72	63.19
386.92	65.54
387.11	110.01
387.31	105.32
387.50	88.94
387.70	135.75
387.89	51.49
388.09	133.41
388.28	117.03
388.48	44.47
388.67	154.48
388.86	121.71
389.06	124.05
389.25	93.62
389.45	170.86
389.64	152.13
389.84	98.30
390.03	208.31
390.22	117.03
390.42	84.26
390.61	74.90
390.81	91.28
391.00	117.03
391.19	135.75
391.39	119.37
391.58	112.35
391.78	117.03
391.97	124.05
392.16	112.35
392.36	138.09
392.55	215.33
392.75	152.13
392.94	112.35
393.13	135.75
393.33	91.28
393.52	147.45
393.71	189.58
393.91	142.77
394.10	156.82
394.29	124.05
394.49	93.62
394.68	124.05
394.88	189.58
395.07	128.73
395.26	119.37
395.46	128.73
395.65	163.84
395.84	81.92
396.04	203.63
396.23	60.85
396.42	88.94
396.62	58.51
396.81	98.30
397.00	168.52
397.19	180.22
397.39	142.77
397.58	147.45
397.77	91.28
397.97	166.18
398.16	86.60
398.35	140.43
398.55	91.28
398.74	121.71
398.93	107.66
399.12	177.88
399.32	98.30
399.51	88.94
399.70	119.37
399.90	91.28
400.09	147.45
400.28	156.82
400.47	126.39
400.67	138.09
400.86	110.01
401.05	56.17
401.24	117.03
401.44	56.17
401.63	110.01
401.82	112.35
402.01	131.07
402.21	126.39
402.40	163.84
402.59	124.05
402.78	105.32
402.97	135.75
403.17	135.75
403.36	152.13
403.55	128.73
403.74	133.41
403.93	173.20
404.13	220.01
404.32	252.78
404.51	177.88
404.70	175.54
404.89	147.45
405.09	154.48
405.28	102.98
405.47	72.56
405.66	124.05
405.85	152.13
406.05	152.13
406.24	138.09
406.43	46.81
406.62	114.69
406.81	140.43
407.00	208.31
407.20	168.52
407.39	175.54
407.58	128.73
407.77	175.54
407.96	170.86
408.15	135.75
408.34	142.77
408.54	163.84
408.73	131.07
408.92	166.18
409.11	128.73
409.30	154.48
409.49	180.22
409.68	170.86
409.87	187.24
410.07	163.84
410.26	166.18
410.45	102.98
410.64	149.79
410.83	227.03
411.02	117.03
411.21	203.63
411.40	184.90
411.59	135.75
411.78	163.84
411.98	114.69
412.17	98.30
412.36	138.09
412.55	177.88
412.74	173.20
412.93	166.18
413.12	175.54
413.31	159.16
413.50	163.84
413.69	140.43
413.88	154.48
414.07	91.28
414.26	135.75
414.45	161.50
414.64	182.56
414.83	79.58
415.02	173.20
415.22	177.88
415.41	182.56
415.60	184.90
415.79	145.11
415.98	203.63
416.17	184.90
416.36	170.86
416.55	131.07
416.74	126.39
416.93	182.56
417.12	128.73
417.31	187.24
417.50	166.18
417.69	88.94
417.88	112.35
418.07	224.69
418.26	149.79
418.45	180.22
418.64	196.60
418.83	135.75
419.02	175.54
419.21	208.31
419.39	198.95
419.58	98.30
419.77	166.18
419.96	170.86
420.15	177.88
420.34	175.54
420.53	88.94
420.72	163.84
420.91	210.65
421.10	180.22
421.29	168.52
421.48	177.88
421.67	205.97
421.86	238.73
422.05	234.05
422.24	102.98
422.43	203.63
422.61	65.54
422.80	100.64
422.99	203.63
423.18	217.67
423.37	191.92
423.56	135.75
423.75	159.16
423.94	215.33
424.13	175.54
424.32	124.05
424.50	191.92
424.69	212.99
424.88	236.39
425.07	229.37
425.26	198.95
425.45	159.16
425.64	180.22
425.83	161.50
426.01	269.16
426.20	184.90
426.39	110.01
426.58	180.22
426.77	117.03
426.96	245.76
427.15	180.22
427.33	163.84
427.52	142.77
427.71	142.77
427.90	177.88
428.09	161.50
428.28	77.24
428.46	117.03
428.65	154.48
428.84	149.79
429.03	147.45
429.22	182.56
429.40	72.56
429.59	191.92
429.78	184.90
429.97	208.31
430.16	208.31
430.34	133.41
430.53	173.20
430.72	198.95
430.91	222.35
431.10	145.11
431.28	198.95
431.47	215.33
431.66	159.16
431.85	145.11
432.03	180.22
432.22	255.12
432.41	227.03
432.60	194.26
432.79	95.96
432.97	205.97
433.16	163.84
433.35	208.31
433.54	173.20
433.72	222.35
433.91	259.80
434.10	208.31
434.28	224.69
434.47	231.71
434.66	339.38
434.85	180.22
435.03	318.31
435.22	547.69
435.41	887.06
435.59	1011.11
435.78	709.18
435.97	374.49
436.16	283.20
436.34	231.71
436.53	159.16
436.72	212.99
436.90	255.12
437.09	189.58
437.28	191.92
437.46	142.77
437.65	248.10
437.84	156.82
438.02	159.16
438.21	175.54
438.40	147.45
438.58	182.56
438.77	159.16
438.96	194.26
439.14	292.57
439.33	259.80
439.52	180.22
439.70	177.88
439.89	126.39
440.08	168.52
440.26	203.63
440.45	318.31
440.63	110.01
440.82	175.54
441.01	168.52
441.19	170.86
441.38	196.60
441.57	238.73
441.75	166.18
441.94	245.76
442.12	224.69
442.31	156.82
442.50	231.71
442.68	156.82
442.87	142.77
443.05	177.88
443.24	273.84
443.43	245.76
443.61	229.37
443.80	248.10
443.98	212.99
444.17	198.95
444.35	161.50
444.54	231.71
444.73	212.99
444.91	266.82
445.10	215.33
445.28	173.20
445.47	163.84
445.65	187.24
445.84	243.42
446.02	170.86
446.21	201.29
446.39	189.58
446.58	170.86
446.77	147.45
446.95	189.58
447.14	152.13
447.32	189.58
447.51	198.95
447.69	250.44
447.88	187.24
448.06	224.69
448.25	187.24
448.43	142.77
448.62	205.97
448.80	217.67
448.99	201.29
449.17	241.08
449.36	201.29
449.54	215.33
449.73	187.24
449.91	273.84
450.10	187.24
450.28	194.26
450.46	271.50
450.65	262.14
450.83	234.05
451.02	234.05
451.20	180.22
451.39	201.29
451.57	198.95
451.76	182.56
451.94	227.03
452.13	212.99
452.31	245.76
452.49	168.52
452.68	177.88
452.86	278.52
453.05	301.93
453.23	259.80
453.42	224.69
453.60	168.52
453.78	156.82
453.97	280.86
454.15	175.54
454.34	138.09
454.52	276.18
454.70	269.16
454.89	229.37
455.07	163.84
455.26	208.31
455.44	252.78
455.62	168.52
455.81	259.80
455.99	222.35
456.17	198.95
456.36	241.08
456.54	215.33
456.73	222.35
456.91	212.99
457.09	259.80
457.28	236.39
457.46	212.99
457.64	196.60
457.83	201.29
458.01	156.82
458.19	173.20
458.38	245.76
458.56	168.52
458.74	187.24
458.93	152.13
459.11	201.29
459.29	248.10
459.48	224.69
459.66	250.44
459.84	313.63
460.03	264.48
460.21	245.76
460.39	229.37
460.57	203.63
460.76	278.52
460.94	203.63
461.12	224.69
461.31	201.29
461.49	191.92
461.67	154.48
461.85	205.97
462.04	248.10
462.22	688.12
462.40	250.44
462.59	224.69
462.77	198.95
462.95	184.90
463.13	208.31
463.32	231.71
463.50	220.01
463.68	250.44
463.86	220.01
464.05	205.97
464.23	276.18
464.41	283.20
464.59	215.33
464.78	173.20
464.96	154.48
465.14	287.89
465.32	220.01
465.50	306.61
465.69	191.92
465.87	215.33
466.05	234.05
466.23	180.22
466.41	220.01
466.60	297.25
466.78	241.08
466.96	264.48
467.14	231.71
467.32	276.18
467.51	290.23
467.69	182.56
467.87	205.97
468.05	220.01
468.23	238.73
468.41	248.10
468.60	220.01
468.78	304.27
468.96	156.82
469.14	215.33
469.32	189.58
469.50	264.48
469.69	252.78
469.87	262.14
470.05	168.52
470.23	287.89
470.41	177.88
470.59	257.46
470.77	222.35
470.95	238.73
471.14	318.31
471.32	292.57
471.50	220.01
471.68	189.58
471.86	243.42
472.04	273.84
472.22	184.90
472.40	210.65
472.58	229.37
472.77	201.29
472.95	229.37
473.13	210.65
473.31	203.63
473.49	231.71
473.67	283.20
473.85	215.33
474.03	234.05
474.21	248.10
474.39	243.42
474.57	322.99
474.75	248.10
474.93	292.57
475.12	208.31
475.30	259.80
475.48	229.37
475.66	262.14
475.84	220.01
476.02	285.55
476.20	301.93
476.38	257.46
476.56	330.02
476.74	212.99
476.92	259.80
477.10	297.25
477.28	280.86
477.46	304.27
477.64	292.57
477.82	252.78
478.00	215.33
478.18	250.44
478.36	245.76
478.54	201.29
478.72	266.82
478.90	337.04
479.08	318.31
479.26	287.89
479.44	220.01
479.62	320.65
479.80	231.71
479.98	234.05
480.16	287.89
480.34	290.23
480.52	271.50
480.70	294.91
480.88	264.48
481.06	220.01
481.24	220.01
481.41	238.73
481.59	271.50
481.77	262.14
481.95	259.80
482.13	290.23
482.31	280.86
482.49	287.89
482.67	266.82
482.85	332.36
483.03	325.33
483.21	278.52
483.39	287.89
483.57	313.63
483.74	367.46
483.92	407.25
484.10	306.61
484.28	353.42
484.46	390.87
484.64	339.38
484.82	344.06
485.00	386.19
485.18	346.40
485.35	395.55
485.53	269.16
485.71	414.27
485.89	365.12
486.07	346.40
486.25	442.36
486.43	390.87
486.61	414.27
486.78	430.66
486.96	365.12
487.14	404.91
487.32	425.98
487.50	395.55
487.68	367.46
487.85	390.87
488.03	353.42
488.21	421.30
488.39	411.93
488.57	416.62
488.75	468.11
488.92	683.44
489.10	440.02
489.28	425.98
489.46	376.83
489.64	442.36
489.81	421.30
489.99	440.02
490.17	362.78
490.35	444.70
490.53	383.85
490.70	372.15
490.88	379.17
491.06	444.70
491.24	433.00
491.41	348.74
491.59	390.87
491.77	416.62
491.95	379.17
492.13	414.27
492.30	374.49
492.48	430.66
492.66	393.21
492.84	376.83
493.01	393.21
493.19	416.62
493.37	456.40
493.54	327.68
493.72	409.59
493.90	395.55
494.08	475.13
494.25	367.46
494.43	433.00
494.61	341.72
494.79	404.91
494.96	395.55
495.14	397.89
495.32	475.13
495.49	400.23
495.67	355.76
495.85	425.98
496.02	372.15
496.20	461.09
496.38	454.06
496.55	414.27
496.73	475.13
496.91	381.51
497.09	449.38
497.26	418.96
497.44	416.62
497.62	423.64
497.79	301.93
497.97	369.80
498.14	365.12
498.32	315.97
498.50	409.59
498.67	362.78
498.85	337.04
499.03	397.89
499.20	348.74
499.38	428.32
499.56	400.23
499.73	451.72
499.91	397.89
500.08	369.80
500.26	423.64
500.44	374.49
500.61	416.62
500.79	390.87
500.97	386.19
501.14	409.59
501.32	348.74
501.49	367.46
501.67	393.21
501.84	411.93
502.02	294.91
502.20	465.77
502.37	374.49
502.55	362.78
502.72	365.12
502.90	337.04
503.07	379.17
503.25	381.51
503.43	435.34
503.60	346.40
503.78	353.42
503.95	353.42
504.13	339.38
504.30	437.68
504.48	433.00
504.65	468.11
504.83	414.27
505.01	486.83
505.18	374.49
505.36	470.45
505.53	433.00
505.71	484.49
505.88	407.25
506.06	421.30
506.23	409.59
506.41	383.85
506.58	388.53
506.76	430.66
506.93	454.06
507.11	353.42
507.28	454.06
507.46	411.93
507.63	472.79
507.81	367.46
507.98	454.06
508.16	358.10
508.33	365.12
508.50	442.36
508.68	374.49
508.85	320.65
509.03	362.78
509.20	416.62
509.38	351.08
509.55	372.15
509.73	416.62
509.90	456.40
510.08	461.09
510.25	465.77
510.42	472.79
510.60	437.68
510.77	475.13
510.95	437.68
511.12	362.78
511.30	433.00
511.47	472.79
511.64	517.26
511.82	416.62
511.99	458.74
512.17	414.27
512.34	381.51
512.51	409.59
512.69	407.25
512.86	482.15
513.04	393.21
513.21	365.12
513.38	402.57
513.56	435.34
513.73	414.27
513.90	395.55
514.08	402.57
514.25	433.00
514.43	433.00
514.60	500.87
514.77	383.85
514.95	416.62
515.12	402.57
515.29	390.87
515.47	397.89
515.64	442.36
515.81	381.51
515.99	423.64
516.16	418.96
516.33	418.96
516.51	425.98
516.68	360.44
516.85	374.49
517.03	442.36
517.20	421.30
517.37	496.19
517.54	414.27
517.72	386.19
517.89	386.19
518.06	463.43
518.24	526.62
518.41	411.93
518.58	461.09
518.75	444.70
518.93	454.06
519.10	493.85
519.27	418.96
519.45	493.85
519.62	475.13
519.79	468.11
519.96	395.55
520.14	367.46
520.31	423.64
520.48	433.00
520.65	397.89
520.83	465.77
521.00	465.77
521.17	503.22
521.34	428.32
521.52	409.59
521.69	456.40
521.86	339.38
522.03	449.38
522.20	433.00
522.38	491.51
522.55	400.23
522.72	435.34
522.89	404.91
523.07	514.92
523.24	407.25
523.41	411.93
523.58	355.76
523.75	479.81
523.92	322.99
524.10	482.15
524.27	440.02
524.44	411.93
524.61	463.43
524.78	440.02
524.96	486.83
525.13	491.51
525.30	519.60
525.47	512.58
525.64	421.30
525.81	444.70
525.98	557.05
526.16	456.40
526.33	428.32
526.50	433.00
526.67	411.93
526.84	440.02
527.01	435.34
527.18	479.81
527.36	458.74
527.53	477.47
527.70	524.28
527.87	397.89
528.04	440.02
528.21	538.32
528.38	526.62
528.55	418.96
528.72	421.30
528.89	400.23
529.07	442.36
529.24	477.47
529.41	528.96
529.58	454.06
529.75	463.43
529.92	496.19
530.09	500.87
530.26	496.19
530.43	456.40
530.60	435.34
530.77	498.53
530.94	543.00
531.11	521.94
531.28	475.13
531.46	482.15
531.63	510.24
531.80	498.53
531.97	489.17
532.14	472.79
532.31	409.59
532.48	545.34
532.65	454.06
532.82	437.68
532.99	468.11
533.16	507.90
533.33	514.92
533.50	531.30
533.67	500.87
533.84	486.83
534.01	468.11
534.18	447.04
534.35	451.72
534.52	519.60
534.69	561.73
534.86	498.53
535.03	449.38
535.20	456.40
535.37	521.94
535.54	461.09
535.71	528.96
535.88	472.79
536.05	531.30
536.22	528.96
536.38	554.71
536.55	512.58
536.72	528.96
536.89	477.47
537.06	559.39
537.23	545.34
537.40	409.59
537.57	498.53
537.74	564.07
537.91	667.05
538.08	566.41
538.25	622.58
538.42	592.16
538.59	580.45
538.75	617.90
538.92	631.94
539.09	704.50
539.26	634.29
539.43	629.60
539.60	688.12
539.77	758.33
539.94	732.59
540.11	844.93
540.28	849.61
540.44	835.57
540.61	798.12
540.78	947.92
540.95	947.92
541.12	1203.04
541.29	1198.35
541.46	1249.85
541.62	1296.66
541.79	1270.91
541.96	1210.06
542.13	1242.82
542.30	1193.67
542.47	1210.06
542.63	1259.21
542.80	1231.12
542.97	1177.29
543.14	1116.44
543.31	1184.31
543.48	1034.52
543.64	1188.99
543.81	1153.88
543.98	1102.39
544.15	1025.15
544.32	1179.63
544.48	1151.54
544.65	1114.10
544.82	1088.35
544.99	1130.48
545.16	1207.72
545.32	1050.90
545.49	1643.06
545.66	2186.06
545.83	2616.72
546.00	2256.28
546.16	1722.63
546.33	1341.13
546.50	1067.28
546.67	1004.09
546.83	929.19
547.00	915.15
547.17	821.53
547.34	880.04
547.50	840.25
547.67	786.42
547.84	725.57
548.00	826.21
548.17	788.76
548.34	681.10
548.51	844.93
548.67	840.25
548.84	765.36
549.01	779.40
549.18	723.23
549.34	770.04
549.51	828.55
549.68	781.74
549.84	709.18
550.01	660.03
550.18	704.50
550.34	758.33
550.51	690.46
550.68	713.86
550.84	671.73
551.01	741.95
551.18	634.29
551.34	613.22
551.51	638.97
551.68	578.11
551.84	685.78
552.01	643.65
552.18	615.56
552.34	674.07
552.51	627.26
552.68	657.69
552.84	610.88
553.01	587.47
553.18	636.63
553.34	580.45
553.51	477.47
553.67	561.73
553.84	531.30
554.01	603.86
554.17	620.24
554.34	535.98
554.51	566.41
554.67	521.94
554.84	573.43
555.00	547.69
555.17	521.94
555.33	512.58
555.50	540.66
555.67	540.66
555.83	533.64
556.00	505.56
556.16	718.54
556.33	519.60
556.50	500.87
556.66	514.92
556.83	500.87
556.99	512.58
557.16	524.28
557.32	451.72
557.49	489.17
557.65	503.22
557.82	498.53
557.98	454.06
558.15	470.45
558.32	554.71
558.48	489.17
558.65	498.53
558.81	510.24
558.98	393.21
559.14	533.64
559.31	524.28
559.47	613.22
559.64	503.22
559.80	545.34
559.97	538.32
560.13	519.60
560.30	447.04
560.46	517.26
560.63	489.17
560.79	507.90
560.96	493.85
561.12	451.72
561.29	449.38
561.45	486.83
561.61	507.90
561.78	589.82
561.94	435.34
562.11	484.49
562.27	519.60
562.44	524.28
562.60	533.64
562.77	489.17
562.93	587.47
563.10	531.30
563.26	512.58
563.42	547.69
563.59	449.38
563.75	360.44
563.92	491.51
564.08	440.02
564.24	507.90
564.41	505.56
564.57	500.87
564.74	458.74
564.90	482.15
565.07	524.28
565.23	571.09
565.39	465.77
565.56	496.19
565.72	533.64
565.88	416.62
566.05	435.34
566.21	477.47
566.38	524.28
566.54	489.17
566.70	547.69
566.87	414.27
567.03	425.98
567.19	461.09
567.36	503.22
567.52	421.30
567.68	472.79
567.85	416.62
568.01	500.87
568.17	505.56
568.34	533.64
568.50	550.03
568.66	449.38
568.83	491.51
568.99	484.49
569.15	587.47
569.32	535.98
569.48	433.00
569.64	477.47
569.81	433.00
569.97	449.38
570.13	416.62
570.30	461.09
570.46	381.51
570.62	486.83
570.78	388.53
570.95	376.83
571.11	503.22
571.27	440.02
571.43	456.40
571.60	517.26
571.76	433.00
571.92	521.94
572.09	486.83
572.25	505.56
572.41	517.26
572.57	486.83
572.74	531.30
572.90	519.60
573.06	433.00
573.22	496.19
573.38	447.04
573.55	503.22
573.71	507.90
573.87	477.47
574.03	470.45
574.20	442.36
574.36	561.73
574.52	458.74
574.68	449.38
574.84	418.96
575.01	503.22
575.17	482.15
575.33	566.41
575.49	498.53
575.65	489.17
575.82	540.66
575.98	505.56
576.14	463.43
576.30	512.58
576.46	690.46
576.62	795.78
576.79	816.85
576.95	828.55
577.11	631.94
577.27	592.16
577.43	571.09
577.59	463.43
577.75	594.50
577.92	550.03
578.08	414.27
578.24	451.72
578.40	557.05
578.56	685.78
578.72	704.50
578.88	896.43
579.04	727.91
579.21	622.58
579.37	568.75
579.53	603.86
579.69	575.77
579.85	524.28
580.01	653.01
580.17	587.47
580.33	510.24
580.49	573.43
580.65	510.24
580.82	589.82
580.98	587.47
581.14	484.49
581.30	568.75
581.46	545.34
581.62	524.28
581.78	550.03
581.94	596.84
582.10	599.18
582.26	571.09
582.42	589.82
582.58	753.65
582.74	601.52
582.90	566.41
583.06	697.48
583.22	613.22
583.38	683.44
583.54	557.05
583.70	676.41
583.86	746.63
584.02	664.71
584.18	685.78
584.34	622.58
584.50	561.73
584.66	599.18
584.82	580.45
584.98	613.22
585.14	638.97
585.30	587.47
585.46	491.51
585.62	573.43
585.78	571.09
585.94	643.65
586.10	564.07
586.26	564.07
586.42	610.88
586.58	582.79
586.74	716.20
586.90	767.70
587.06	777.06
587.22	744.29
587.38	734.93
587.54	681.10
587.70	699.82
587.86	690.46
588.02	475.13
588.18	603.86
588.34	615.56
588.49	517.26
588.65	512.58
588.81	500.87
588.97	505.56
589.13	554.71
589.29	552.37
589.45	514.92
589.61	507.90
589.77	496.19
589.93	545.34
590.08	461.09
590.24	519.60
590.40	540.66
590.56	645.99
590.72	528.96
590.88	461.09
591.04	606.20
591.20	524.28
591.35	573.43
591.51	496.19
591.67	571.09
591.83	486.83
591.99	514.92
592.15	606.20
592.31	582.79
592.46	634.29
592.62	599.18
592.78	566.41
592.94	695.14
593.10	653.01
593.26	587.47
593.41	636.63
593.57	575.77
593.73	571.09
593.89	550.03
594.05	547.69
594.20	507.90
594.36	566.41
594.52	528.96
594.68	390.87
594.84	528.96
594.99	484.49
595.15	503.22
595.31	610.88
595.47	533.64
595.62	526.62
595.78	528.96
595.94	557.05
596.10	507.90
596.25	568.75
596.41	444.70
596.57	526.62
596.73	512.58
596.88	538.32
597.04	493.85
597.20	379.17
597.36	528.96
597.51	535.98
597.67	482.15
597.83	557.05
597.99	653.01
598.14	564.07
598.30	524.28
598.46	526.62
598.61	575.77
598.77	517.26
598.93	540.66
599.09	524.28
599.24	472.79
599.40	603.86
599.56	479.81
599.71	540.66
599.87	503.22
600.03	533.64
600.18	561.73
600.34	531.30
600.50	461.09
600.65	486.83
600.81	507.90
600.97	475.13
601.12	477.47
601.28	592.16
601.44	470.45
601.59	521.94
601.75	486.83
601.91	472.79
602.06	491.51
602.22	535.98
602.37	528.96
602.53	461.09
602.69	533.64
602.84	521.94
603.00	414.27
603.16	524.28
603.31	512.58
603.47	468.11
603.62	461.09
603.78	491.51
603.94	503.22
604.09	477.47
604.25	437.68
604.40	456.40
604.56	479.81
604.71	451.72
604.87	458.74
605.03	468.11
605.18	477.47
605.34	521.94
605.49	449.38
605.65	519.60
605.80	468.11
605.96	463.43
606.12	514.92
606.27	505.56
606.43	524.28
606.58	557.05
606.74	505.56
606.89	486.83
607.05	566.41
607.20	489.17
607.36	519.60
607.51	580.45
607.67	524.28
607.82	517.26
607.98	603.86
608.13	468.11
608.29	521.94
608.44	594.50
608.60	573.43
608.75	603.86
608.91	606.20
609.06	704.50
609.22	648.33
609.37	638.97
609.53	739.61
609.68	748.97
609.84	746.63
609.99	835.57
610.15	1006.43
610.30	1107.07
610.46	1362.19
610.61	1640.72
610.76	1884.13
610.92	2256.28
611.07	2326.49
611.23	2530.12
611.38	2359.26
611.54	2073.71
611.69	1834.98
611.84	1617.31
612.00	1390.28
612.15	1224.10
612.31	1163.25
612.46	1008.77
612.62	1001.75
612.77	936.21
612.92	926.85
613.08	943.24
613.23	880.04
613.39	903.45
613.54	873.02
613.69	837.91
613.85	863.66
614.00	795.78
614.15	809.83
614.31	835.57
614.46	870.68
614.62	807.48
614.77	819.19
614.92	770.04
615.08	805.14
615.23	692.80
615.38	711.52
615.54	692.80
615.69	638.97
615.84	711.52
616.00	697.48
616.15	627.26
616.30	610.88
616.46	592.16
616.61	531.30
616.76	571.09
616.92	514.92
617.07	587.47
617.22	678.76
617.37	472.79
617.53	505.56
617.68	564.07
617.83	568.75
617.99	554.71
618.14	566.41
618.29	550.03
618.45	528.96
618.60	550.03
618.75	521.94
618.90	498.53
619.06	468.11
619.21	561.73
619.36	608.54
619.51	514.92
619.67	514.92
619.82	503.22
619.97	550.03
620.12	444.70
620.28	547.69
620.43	550.03
620.58	571.09
620.73	561.73
620.89	500.87
621.04	526.62
621.19	660.03
621.34	491.51
621.49	496.19
621.65	578.11
621.80	571.09
621.95	566.41
622.10	538.32
622.25	491.51
622.41	482.15
622.56	468.11
622.71	514.92
622.86	585.13
623.01	475.13
623.16	571.09
623.32	470.45
623.47	547.69
623.62	510.24
623.77	564.07
623.92	543.00
624.07	498.53
624.23	524.28
624.38	449.38
624.53	444.70
624.68	456.40
624.83	531.30
624.98	440.02
625.13	491.51
625.29	423.64
625.44	484.49
625.59	510.24
625.74	578.11
625.89	430.66
626.04	454.06
626.19	440.02
626.34	493.85
626.49	430.66
626.65	484.49
626.80	454.06
626.95	533.64
627.10	479.81
627.25	547.69
627.40	454.06
627.55	559.39
627.70	472.79
627.85	535.98
628.00	365.12
628.15	489.17
628.30	468.11
628.45	418.96
628.60	454.06
628.76	493.85
628.91	528.96
629.06	496.19
629.21	456.40
629.36	440.02
629.51	517.26
629.66	535.98
629.81	407.25
629.96	524.28
630.11	465.77
630.26	554.71
630.41	596.84
630.56	622.58
630.71	538.32
630.86	587.47
631.01	627.26
631.16	606.20
631.31	571.09
631.46	554.71
631.61	524.28
631.76	479.81
631.91	395.55
632.06	479.81
632.21	402.57
632.36	449.38
632.51	402.57
632.66	341.72
632.81	372.15
632.96	440.02
633.10	472.79
633.25	428.32
633.40	381.51
633.55	325.33
633.70	362.78
633.85	386.19
634.00	360.44
634.15	470.45
634.30	463.43
634.45	355.76
634.60	379.17
634.75	372.15
634.90	416.62
635.05	330.02
635.19	383.85
635.34	313.63
635.49	320.65
635.64	402.57
635.79	400.23
635.94	365.12
636.09	358.10
636.24	386.19
636.39	372.15
636.53	416.62
636.68	418.96
636.83	351.08
636.98	468.11
637.13	330.02
637.28	346.40
637.43	428.32
637.57	425.98
637.72	418.96
637.87	376.83
638.02	315.97
638.17	362.78
638.32	292.57
638.46	374.49
638.61	456.40
638.76	433.00
638.91	344.06
639.06	388.53
639.20	409.59
639.35	386.19
639.50	374.49
639.65	395.55
639.80	327.68
639.94	472.79
640.09	407.25
640.24	383.85
640.39	388.53
640.54	517.26
640.68	407.25
640.83	386.19
640.98	346.40
641.13	355.76
641.27	360.44
641.42	379.17
641.57	374.49
641.72	418.96
641.86	369.80
642.01	367.46
642.16	435.34
642.31	348.74
642.45	416.62
642.60	421.30
642.75	451.72
642.90	416.62
643.04	327.68
643.19	348.74
643.34	418.96
643.48	442.36
643.63	433.00
643.78	353.42
643.93	362.78
644.07	395.55
644.22	388.53
644.37	376.83
644.51	292.57
644.66	482.15
644.81	301.93
644.95	393.21
645.10	386.19
645.25	351.08
645.39	320.65
645.54	388.53
645.69	383.85
645.83	353.42
645.98	388.53
646.13	308.95
646.27	386.19
646.42	290.23
646.57	362.78
646.71	327.68
646.86	369.80
647.00	416.62
647.15	381.51
647.30	360.44
647.44	414.27
647.59	341.72
647.74	297.25
647.88	369.80
648.03	376.83
648.17	428.32
648.32	327.68
648.47	372.15
648.61	428.32
648.76	355.76
648.90	376.83
649.05	311.29
649.20	404.91
649.34	301.93
649.49	341.72
649.63	360.44
649.78	297.25
649.92	315.97
650.07	414.27
650.21	463.43
650.36	528.96
650.51	393.21
650.65	433.00
650.80	407.25
650.94	379.17
651.09	365.12
651.23	339.38
651.38	351.08
651.52	411.93
651.67	421.30
651.81	330.02
651.96	444.70
652.10	365.12
652.25	442.36
652.39	339.38
652.54	435.34
652.68	440.02
652.83	341.72
652.97	379.17
653.12	402.57
653.26	372.15
653.41	369.80
653.55	386.19
653.70	353.42
653.84	365.12
653.99	360.44
654.13	299.59
654.27	376.83
654.42	339.38
654.56	252.78
654.71	334.70
654.85	283.20
655.00	383.85
655.14	379.17
655.29	393.21
655.43	351.08
655.57	404.91
655.72	257.46
655.86	330.02
656.01	360.44
656.15	325.33
656.30	395.55
656.44	294.91
656.58	365.12
656.73	299.59
656.87	374.49
657.01	383.85
657.16	400.23
657.30	346.40
657.45	358.10
657.59	383.85
657.73	369.80
657.88	353.42
658.02	355.76
658.16	346.40
658.31	334.70
658.45	400.23
658.60	330.02
658.74	290.23
658.88	348.74
659.03	402.57
659.17	273.84
659.31	393.21
659.46	353.42
659.60	344.06
659.74	395.55
659.89	367.46
660.03	369.80
660.17	362.78
660.32	358.10
660.46	369.80
660.60	374.49
660.74	374.49
660.89	367.46
661.03	416.62
661.17	271.50
661.32	376.83
661.46	381.51
661.60	355.76
661.74	376.83
661.89	383.85
662.03	409.59
662.17	337.04
662.31	425.98
662.46	308.95
662.60	348.74
662.74	337.04
662.88	355.76
663.03	330.02
663.17	400.23
663.31	369.80
663.45	294.91
663.60	283.20
663.74	332.36
663.88	313.63
664.02	430.66
664.17	351.08
664.31	367.46
664.45	311.29
664.59	252.78
664.73	315.97
664.88	299.59
665.02	308.95
665.16	395.55
665.30	355.76
665.44	411.93
665.59	388.53
665.73	332.36
665.87	379.17
666.01	362.78
666.15	262.14
666.29	264.48
666.44	379.17
666.58	346.40
666.72	355.76
666.86	315.97
667.00	383.85
667.14	348.74
667.28	252.78
667.43	374.49
667.57	337.04
667.71	280.86
667.85	360.44
667.99	313.63
668.13	297.25
668.27	334.70
668.41	351.08
668.56	407.25
668.70	379.17
668.84	301.93
668.98	297.25
669.12	320.65
669.26	315.97
669.40	409.59
669.54	388.53
669.68	332.36
669.82	299.59
669.96	390.87
670.10	341.72
670.25	355.76
670.39	313.63
670.53	341.72
670.67	358.10
670.81	250.44
670.95	306.61
671.09	337.04
671.23	285.55
671.37	388.53
671.51	257.46
671.65	290.23
671.79	334.70
671.93	290.23
672.07	388.53
672.21	339.38
672.35	273.84
672.49	294.91
672.63	360.44
672.77	271.50
672.91	327.68
673.05	266.82
673.19	379.17
673.33	264.48
673.47	376.83
673.61	280.86
673.75	243.42
673.89	318.31
674.03	313.63
674.17	294.91
674.31	241.08
674.45	341.72
674.59	245.76
674.73	245.76
674.87	313.63
675.01	374.49
675.15	273.84
675.29	362.78
675.43	365.12
675.56	299.59
675.70	306.61
675.84	313.63
675.98	308.95
676.12	236.39
676.26	292.57
676.40	205.97
676.54	313.63
676.68	297.25
676.82	322.99
676.96	334.70
677.10	294.91
677.23	318.31
677.37	248.10
677.51	215.33
677.65	367.46
677.79	285.55
677.93	315.97
678.07	250.44
678.21	177.88
678.34	330.02
678.48	318.31
678.62	308.95
678.76	227.03
678.90	390.87
679.04	271.50
679.18	182.56
679.31	191.92
679.45	234.05
679.59	236.39
679.73	250.44
679.87	243.42
680.00	227.03
680.14	280.86
680.28	294.91
680.42	259.80
680.56	234.05
680.70	259.80
680.83	259.80
680.97	297.25
681.11	250.44
681.25	362.78
681.39	299.59
681.52	339.38
681.66	318.31
681.80	241.08
681.94	215.33
682.07	248.10
682.21	262.14
682.35	245.76
682.49	231.71
682.62	322.99
682.76	322.99
682.90	327.68
683.04	280.86
683.17	266.82
683.31	229.37
683.45	248.10
683.59	278.52
683.72	355.76
683.86	255.12
684.00	365.12
684.13	318.31
684.27	269.16
684.41	257.46
684.55	276.18
684.68	283.20
684.82	266.82
684.96	205.97
685.09	290.23
685.23	243.42
685.37	297.25
685.50	264.48
685.64	348.74
685.78	250.44
685.91	205.97
686.05	322.99
686.19	245.76
686.32	184.90
686.46	304.27
686.60	250.44
686.73	308.95
686.87	269.16
687.01	236.39
687.14	234.05
687.28	255.12
687.42	238.73
687.55	205.97
687.69	301.93
687.82	273.84
687.96	362.78
688.10	273.84
688.23	294.91
688.37	334.70
688.50	184.90
688.64	224.69
688.78	231.71
688.91	212.99
689.05	229.37
689.18	236.39
689.32	311.29
689.46	234.05
689.59	220.01
689.73	243.42
689.86	212.99
690.00	248.10
690.13	231.71
690.27	231.71
690.41	198.95
690.54	203.63
690.68	182.56
690.81	227.03
690.95	259.80
691.08	182.56
691.22	241.08
691.35	252.78
691.49	194.26
691.62	220.01
691.76	278.52
691.89	276.18
692.03	227.03
692.16	215.33
692.30	280.86
692.43	264.48
692.57	222.35
692.70	194.26
692.84	182.56
692.97	189.58
693.11	224.69
693.24	205.97
693.38	177.88
693.51	271.50
693.65	149.79
693.78	142.77
693.92	166.18
694.05	175.54
694.19	229.37
694.32	234.05
694.45	238.73
694.59	208.31
694.72	152.13
694.86	161.50
694.99	215.33
695.13	147.45
695.26	273.84
695.39	182.56
695.53	245.76
695.66	203.63
695.80	189.58
695.93	222.35
696.07	215.33
696.20	280.86
696.33	234.05
696.47	262.14
696.60	283.20
696.73	205.97
696.87	187.24
697.00	250.44
697.14	257.46
697.27	194.26
697.40	322.99
697.54	180.22
697.67	212.99
697.80	322.99
697.94	170.86
698.07	217.67
698.21	255.12
698.34	210.65
698.47	227.03
698.61	170.86
698.74	121.71
698.87	252.78
699.01	180.22
699.14	184.90
699.27	229.37
699.40	269.16
699.54	220.01
699.67	168.52
699.80	173.20
699.94	187.24
700.07	196.60
700.20	222.35
700.34	212.99
700.47	222.35
700.60	229.37
700.73	182.56
700.87	212.99
701.00	187.24
701.13	175.54
701.26	229.37
701.40	154.48
701.53	201.29
701.66	95.96
701.79	205.97
701.93	212.99
702.06	257.46
702.19	208.31
702.32	191.92
702.46	142.77
702.59	264.48
702.72	220.01
702.85	161.50
702.99	248.10
703.12	201.29
703.25	145.11
703.38	201.29
703.51	250.44
703.65	208.31
703.78	81.92
703.91	177.88
704.04	189.58
704.17	198.95
704.31	191.92
704.44	163.84
704.57	163.84
704.70	177.88
704.83	229.37
704.96	271.50
705.10	255.12
705.23	159.16
>>>>>End Processed Spectral Data<<<<<
