SpectraSuite Data File
++++++++++++++++++++++++++++++++++++
Date: Fri Oct 04 11:39:15 GMT-05:00 2013
User: price-jones
Dark Spectrum Present: No
Reference Spectrum Present: No
Number of Sampled Component Spectra: 1
Spectrometers: USB2+H05261
Integration Time (usec): 100000 (USB2+H05261)
Spectra Averaged: 1 (USB2+H05261)
Boxcar Smoothing: 0 (USB2+H05261)
Correct for Electrical Dark: No (USB2+H05261)
Strobe/Lamp Enabled: No (USB2+H05261)
Correct for Detector Non-linearity: No (USB2+H05261)
Correct for Stray Light: No (USB2+H05261)
Number of Pixels in Processed Spectrum: 2048
>>>>>Begin Processed Spectral Data<<<<<
365.73	117.03
365.92	117.03
366.12	117.03
366.32	39.79
366.52	0.00
366.72	0.00
366.91	0.00
367.11	23.41
367.31	0.00
367.51	0.00
367.70	0.00
367.90	4.68
368.10	0.00
368.30	30.43
368.49	0.00
368.69	0.00
368.89	0.00
369.09	14.04
369.28	0.00
369.48	0.00
369.68	0.00
369.87	21.06
370.07	18.72
370.27	18.72
370.47	39.79
370.66	154.48
370.86	177.88
371.06	252.78
371.25	229.37
371.45	248.10
371.65	245.76
371.84	194.26
372.04	184.90
372.24	217.67
372.44	234.05
372.63	278.52
372.83	294.91
373.03	327.68
373.22	177.88
373.42	248.10
373.62	351.08
373.81	273.84
374.01	369.80
374.21	299.59
374.40	280.86
374.60	463.43
374.79	269.16
374.99	337.04
375.19	362.78
375.38	404.91
375.58	358.10
375.78	365.12
375.97	306.61
376.17	334.70
376.37	334.70
376.56	416.62
376.76	348.74
376.95	248.10
377.15	304.27
377.35	308.95
377.54	397.89
377.74	346.40
377.93	358.10
378.13	344.06
378.33	388.53
378.52	409.59
378.72	351.08
378.91	416.62
379.11	376.83
379.31	407.25
379.50	313.63
379.70	440.02
379.89	404.91
380.09	414.27
380.28	376.83
380.48	301.93
380.68	376.83
380.87	322.99
381.07	409.59
381.26	440.02
381.46	475.13
381.65	409.59
381.85	416.62
382.04	376.83
382.24	418.96
382.43	369.80
382.63	428.32
382.83	308.95
383.02	383.85
383.22	435.34
383.41	395.55
383.61	367.46
383.80	390.87
384.00	437.68
384.19	407.25
384.39	440.02
384.58	456.40
384.78	454.06
384.97	507.90
385.17	313.63
385.36	484.49
385.56	447.04
385.75	463.43
385.95	414.27
386.14	411.93
386.34	388.53
386.53	379.17
386.72	433.00
386.92	531.30
387.11	517.26
387.31	482.15
387.50	435.34
387.70	374.49
387.89	458.74
388.09	477.47
388.28	470.45
388.48	428.32
388.67	491.51
388.86	498.53
389.06	489.17
389.25	526.62
389.45	496.19
389.64	498.53
389.84	585.13
390.03	493.85
390.22	528.96
390.42	564.07
390.61	557.05
390.81	561.73
391.00	543.00
391.19	528.96
391.39	533.64
391.58	601.52
391.78	561.73
391.97	550.03
392.16	425.98
392.36	575.77
392.55	608.54
392.75	606.20
392.94	552.37
393.13	601.52
393.33	566.41
393.52	653.01
393.71	634.29
393.91	582.79
394.10	559.39
394.29	617.90
394.49	566.41
394.68	702.16
394.88	692.80
395.07	648.33
395.26	671.73
395.46	638.97
395.65	608.54
395.84	704.50
396.04	620.24
396.23	660.03
396.42	641.31
396.62	725.57
396.81	758.33
397.00	763.01
397.19	697.48
397.39	734.93
397.58	727.91
397.77	734.93
397.97	753.65
398.16	795.78
398.35	802.80
398.55	690.46
398.74	772.38
398.93	798.12
399.12	699.82
399.32	725.57
399.51	709.18
399.70	779.40
399.90	791.10
400.09	786.42
400.28	784.08
400.47	765.36
400.67	854.30
400.86	751.31
401.05	784.08
401.24	863.66
401.44	931.53
401.63	880.04
401.82	858.98
402.01	791.10
402.21	877.70
402.40	945.58
402.59	910.47
402.78	910.47
402.97	929.19
403.17	922.17
403.36	961.96
403.55	908.13
403.74	966.64
403.93	954.94
404.13	1078.99
404.32	1029.84
404.51	1025.15
404.70	1144.52
404.89	954.94
405.09	1001.75
405.28	1015.79
405.47	994.73
405.66	1088.35
405.85	1179.63
406.05	1039.20
406.24	1114.10
406.43	1046.22
406.62	1074.31
406.81	1123.46
407.00	1128.14
407.20	1071.97
407.39	1146.86
407.58	1121.12
407.77	1118.78
407.96	1191.33
408.15	1174.95
408.34	1172.61
408.54	1203.04
408.73	1172.61
408.92	1165.59
409.11	1268.57
409.30	1151.54
409.49	1301.34
409.68	1226.44
409.87	1188.99
410.07	1284.95
410.26	1336.45
410.45	1301.34
410.64	1301.34
410.83	1329.42
411.02	1350.49
411.21	1317.72
411.40	1448.79
411.59	1329.42
411.78	1338.79
411.98	1401.98
412.17	1500.28
412.36	1385.60
412.55	1451.13
412.74	1460.49
412.93	1486.24
413.12	1547.09
413.31	1596.25
413.50	1504.96
413.69	1591.56
413.88	1598.59
414.07	1586.88
414.26	1659.44
414.45	1614.97
414.64	1661.78
414.83	1645.40
415.02	1724.97
415.22	1664.12
415.41	1762.42
415.60	1750.72
415.79	1727.32
415.98	1792.85
416.17	1750.72
416.36	1788.17
416.55	1806.89
416.74	1797.53
416.93	1867.75
417.12	1858.39
417.31	1895.83
417.50	1863.07
417.69	1923.92
417.88	1907.54
418.07	1991.80
418.26	1888.81
418.45	1914.56
418.64	2064.35
418.83	1935.62
419.02	1984.77
419.21	2129.89
419.39	2157.97
419.58	2069.03
419.77	1984.77
419.96	2099.46
420.15	2246.91
420.34	2003.50
420.53	2113.50
420.72	2202.44
420.91	2169.68
421.10	2099.46
421.29	2214.15
421.48	2239.89
421.67	2172.02
421.86	2251.60
422.05	2179.04
422.24	2139.25
422.43	2209.47
422.61	2237.55
422.80	2251.60
422.99	2195.42
423.18	2249.25
423.37	2326.49
423.56	2373.30
423.75	2312.45
423.94	2286.70
424.13	2200.10
424.32	2153.29
424.50	2326.49
424.69	2331.17
424.88	2424.80
425.07	2293.72
425.26	2242.23
425.45	2345.22
425.64	2282.02
425.83	2314.79
426.01	2375.64
426.20	2282.02
426.39	2263.30
426.58	2340.54
426.77	2354.58
426.96	2347.56
427.15	2352.24
427.33	2363.94
427.52	2359.26
427.71	2466.92
427.90	2354.58
428.09	2392.03
428.28	2574.59
428.46	2394.37
428.65	2551.18
428.84	2562.89
429.03	2586.29
429.22	2441.18
429.40	2534.80
429.59	2492.67
429.78	2537.14
429.97	2431.82
430.16	2485.65
430.34	2457.56
430.53	2635.44
430.72	2572.25
430.91	2560.55
431.10	2408.41
431.28	2612.04
431.47	2719.70
431.66	2775.88
431.85	2651.83
432.03	2808.64
432.22	2801.62
432.41	2813.32
432.60	2736.09
432.79	2846.09
432.97	2782.90
433.16	2881.20
433.35	2544.16
433.54	2733.75
433.72	2724.38
433.91	2867.16
434.10	2799.28
434.28	2703.32
434.47	2799.28
434.66	3028.65
434.85	2918.65
435.03	2979.50
435.22	3042.70
435.41	3286.11
435.59	3290.79
435.78	3164.40
435.97	3087.17
436.16	3021.63
436.34	2949.08
436.53	2951.42
436.72	3082.49
436.90	2956.10
437.09	3098.87
437.28	3077.80
437.46	3007.59
437.65	3091.85
437.84	3166.74
438.02	3145.68
438.21	3260.37
438.40	3028.65
438.58	3162.06
438.77	3187.81
438.96	3276.75
439.14	3213.56
439.33	3449.95
439.52	3328.24
439.70	3255.69
439.89	3412.50
440.08	3293.13
440.26	3555.27
440.45	3508.46
440.63	3339.94
440.82	3426.54
441.01	3419.52
441.19	3705.07
441.38	3562.30
441.57	3646.55
441.75	3707.41
441.94	3632.51
442.12	3702.73
442.31	3817.41
442.50	3620.81
442.68	3702.73
442.87	3698.05
443.05	3716.77
443.24	3904.01
443.43	3808.05
443.61	3864.22
443.80	3960.19
443.98	3726.13
444.17	3576.34
444.35	3922.74
444.54	3833.80
444.73	3758.90
444.91	3918.06
445.10	3836.14
445.28	3779.97
445.47	3775.28
445.65	3758.90
445.84	3939.12
446.02	3875.93
446.21	3927.42
446.39	3999.98
446.58	4042.11
446.77	3978.91
446.95	3803.37
447.14	3943.80
447.32	3992.95
447.51	3957.85
447.69	3932.10
447.88	3922.74
448.06	3845.50
448.25	3831.46
448.43	4128.70
448.62	3934.44
448.80	3950.82
448.99	4119.34
449.17	3992.95
449.36	3929.76
449.54	4227.01
449.73	4163.81
449.91	4182.54
450.10	4035.08
450.28	4077.21
450.46	4194.24
450.65	4154.45
450.83	4238.71
451.02	4098.28
451.20	4227.01
451.39	4168.49
451.57	4049.13
451.76	4189.56
451.94	4170.83
452.13	4257.43
452.31	4318.29
452.49	4301.90
452.68	4423.61
452.86	4369.78
453.05	4362.76
453.23	4217.65
453.42	4348.72
453.60	4390.84
453.78	4332.33
453.97	4287.86
454.15	4311.27
454.34	4421.27
454.52	4507.87
454.70	4442.34
454.89	4376.80
455.07	4416.59
455.26	4540.64
455.44	4676.39
455.62	4538.30
455.81	4531.28
455.99	4638.94
456.17	4505.53
456.36	4517.23
456.54	4692.77
456.73	4690.43
456.91	4844.91
457.09	4800.44
457.28	4880.02
457.46	4779.37
457.64	4844.91
457.83	4917.47
458.01	4718.52
458.19	4957.25
458.38	4821.50
458.56	4870.65
458.74	5078.96
458.93	4854.27
459.11	4940.87
459.29	4835.55
459.48	4912.78
459.66	4971.30
459.84	5053.22
460.03	5282.59
460.21	4938.53
460.39	5071.94
460.57	5006.41
460.76	4936.19
460.94	5102.37
461.12	5181.95
461.31	5039.17
461.49	5039.17
461.67	5184.29
461.85	5263.86
462.04	5093.01
462.22	5355.15
462.40	5324.72
462.59	5184.29
462.77	5301.31
462.95	5472.17
463.13	5366.85
463.32	5348.12
463.50	5636.01
463.68	5493.24
463.86	5516.64
464.05	5301.31
464.23	5366.85
464.41	5579.84
464.59	5284.93
464.78	5661.76
464.96	5476.85
465.14	5423.02
465.32	5423.02
465.50	5469.83
465.69	5710.91
465.87	5640.69
466.05	5563.45
466.23	5554.09
466.41	5696.86
466.60	5675.80
466.78	5589.20
466.96	5720.27
467.14	5610.26
467.32	5617.29
467.51	5736.65
467.69	5579.84
467.87	5727.29
468.05	5699.20
468.23	5762.40
468.41	5593.88
468.60	5757.72
468.78	5856.02
468.96	5804.53
469.14	5888.79
469.32	5771.76
469.50	5776.44
469.69	6001.13
469.87	5781.12
470.05	5987.09
470.23	5984.75
470.41	6010.50
470.59	6073.69
470.77	5994.11
470.95	6022.20
471.14	6384.98
471.32	6101.78
471.50	6188.38
471.68	6143.91
471.86	6146.25
472.04	6176.67
472.22	6377.96
472.40	6127.52
472.58	6321.79
472.77	6476.26
472.95	6417.75
473.13	6504.35
473.31	6504.35
473.49	6448.18
473.67	6361.58
473.85	6810.96
474.03	6609.67
474.21	6647.12
474.39	6658.82
474.57	6867.13
474.75	6836.70
474.93	6834.36
475.12	6766.49
475.30	6745.42
475.48	6789.89
475.66	7000.54
475.84	6820.32
476.02	7084.80
476.20	7059.06
476.38	7030.97
476.56	7183.10
476.74	7108.21
476.92	7150.34
477.10	7227.57
477.28	7342.26
477.46	7356.30
477.64	7403.11
477.82	7468.65
478.00	7871.22
478.18	7620.78
478.36	7595.04
478.54	7786.96
478.72	7915.69
478.90	7932.08
479.08	7934.42
479.26	8201.24
479.44	8152.09
479.62	8079.53
479.80	8189.53
479.98	8086.55
480.16	8219.96
480.34	8131.02
480.52	8421.25
480.70	8557.00
480.88	8479.76
481.06	8493.80
481.24	8561.68
481.41	8601.47
481.59	8739.56
481.77	8634.24
481.95	9008.72
482.13	9160.86
482.31	8830.84
482.49	8994.68
482.67	9041.49
482.85	9238.09
483.03	9404.27
483.21	9317.67
483.39	9425.34
483.57	9404.27
483.74	9643.01
483.92	9476.83
484.10	9380.87
484.28	9694.50
484.46	9933.23
484.64	10040.90
484.82	9846.63
485.00	10120.48
485.18	10317.08
485.35	10209.42
485.53	10499.64
485.71	10368.57
485.89	10558.16
486.07	10361.55
486.25	10569.86
486.43	10733.70
486.61	10855.40
486.78	10834.34
486.96	10934.98
487.14	10946.69
487.32	11124.57
487.50	11180.74
487.68	11220.53
487.85	11599.70
488.03	11751.83
488.21	11779.92
488.39	11885.24
488.57	11740.13
488.75	11868.86
488.92	12114.61
489.10	12112.27
489.28	12053.76
489.46	12173.13
489.64	12180.15
489.81	12315.90
489.99	12313.56
490.17	12390.80
490.35	12802.73
490.53	12685.70
490.70	12924.44
490.88	12877.63
491.06	13116.36
491.24	12952.52
491.41	13160.83
491.59	13284.88
491.77	13057.85
491.95	13631.28
492.13	13408.93
492.30	13266.16
492.48	13619.58
492.66	13556.38
492.84	13696.82
493.01	14143.86
493.19	13870.01
493.37	13848.95
493.54	14008.11
493.72	14277.27
493.90	14251.52
494.08	14494.94
494.25	14408.34
494.43	14555.79
494.61	14614.30
494.79	14745.38
494.96	14675.16
495.14	14696.22
495.32	14768.78
495.49	14890.49
495.67	14953.68
495.85	15206.46
496.02	15461.58
496.20	15318.81
496.38	15243.91
496.55	15559.88
496.73	15826.70
496.91	15653.50
497.09	15906.28
497.26	15798.62
497.44	15529.45
497.62	15819.68
497.79	15910.96
497.97	15789.25
498.14	16320.56
498.32	16570.99
498.50	16137.99
498.67	16538.23
498.85	16395.45
499.03	16594.40
499.20	16650.57
499.38	16669.30
499.56	16620.14
499.73	16725.47
499.91	17123.36
500.08	17057.82
500.26	16901.01
500.44	16877.60
500.61	17029.74
500.79	17200.60
500.97	17123.36
501.14	17406.56
501.32	17153.79
501.49	17434.65
501.67	17364.43
501.84	17406.56
502.02	17481.46
502.20	17427.63
502.37	17827.86
502.55	17743.60
502.72	17813.82
502.90	17816.16
503.07	18052.55
503.25	17905.10
503.43	17680.41
503.60	17809.14
503.78	18113.41
503.95	18235.11
504.13	18171.92
504.30	18136.81
504.48	18167.24
504.65	18305.33
504.83	18298.31
505.01	18602.58
505.18	18684.50
505.36	18579.17
505.53	18934.93
505.71	18562.79
505.88	18691.52
506.06	18637.69
506.23	18991.11
506.41	19016.85
506.58	18944.30
506.76	18871.74
506.93	19103.45
507.11	19157.28
507.28	19318.78
507.46	19487.30
507.63	19431.13
507.81	19796.25
507.98	19506.02
508.16	19351.55
508.33	19627.73
508.50	19789.23
508.68	20053.71
508.85	20140.31
509.03	20065.41
509.20	19908.60
509.38	20013.92
509.55	20046.69
509.73	20095.84
509.90	20030.30
510.08	19714.33
510.25	20308.83
510.42	20224.57
510.60	20376.70
510.77	20453.94
510.95	20673.95
511.12	20458.62
511.30	20559.27
511.47	20809.70
511.64	20872.90
511.82	20961.84
511.99	20765.23
512.17	21102.27
512.34	21025.03
512.51	21151.42
512.69	20903.32
512.86	21235.68
513.04	21212.28
513.21	21362.07
513.38	21500.16
513.56	21240.36
513.73	21757.62
513.90	21605.49
514.08	21420.58
514.25	21612.51
514.43	21500.16
514.60	21493.14
514.77	21834.86
514.95	21944.86
515.12	22010.40
515.29	21685.06
515.47	21895.71
515.64	22134.45
515.81	21900.39
515.99	21848.90
516.16	22553.40
516.33	22338.07
516.51	22555.74
516.68	22375.52
516.85	22242.11
517.03	22677.45
517.20	22623.62
517.37	22469.14
517.54	22597.87
517.72	22607.23
517.89	22595.53
518.06	22569.79
518.24	22487.87
518.41	22672.77
518.58	22572.13
518.75	22787.46
518.93	23300.03
519.10	23002.78
519.27	23215.77
519.45	23225.14
519.62	23084.70
519.79	23285.99
519.96	22857.67
520.14	23386.63
520.31	23688.56
520.48	23452.17
520.65	23587.92
520.83	23709.63
521.00	23571.54
521.17	23828.99
521.34	23850.06
521.52	23576.22
521.69	23868.78
521.86	24198.80
522.03	23950.70
522.20	24065.39
522.38	23950.70
522.55	24203.48
522.72	24025.60
522.89	24222.20
523.07	24437.53
523.24	24453.92
523.41	24453.92
523.58	24269.01
523.75	24699.67
523.92	24549.88
524.10	24503.07
524.27	24395.40
524.44	24643.50
524.61	24940.75
524.78	24865.85
524.96	24889.26
525.13	25025.01
525.30	24924.36
525.47	25230.98
525.64	24870.53
525.81	24840.11
525.98	25193.53
526.16	24849.47
526.33	25015.65
526.50	25359.70
526.67	24973.52
526.84	25308.21
527.01	25277.79
527.18	25158.42
527.36	25490.77
527.53	25556.31
527.70	25757.60
527.87	25671.00
528.04	25441.62
528.21	25472.05
528.38	25216.93
528.55	25902.71
528.72	25654.61
528.89	25881.64
529.07	25717.81
529.24	25509.50
529.41	25785.68
529.58	25546.95
529.75	25741.21
529.92	25703.76
530.09	26080.59
530.26	26157.83
530.43	26204.64
530.60	25869.94
530.77	25846.54
530.94	26080.59
531.11	26429.33
531.28	26424.65
531.46	25989.31
531.63	26684.45
531.80	26677.43
531.97	26541.68
532.14	26588.49
532.31	26684.45
532.48	26562.74
532.65	26480.82
532.82	26391.88
532.99	26927.86
533.16	26710.19
533.33	26789.77
533.50	26932.54
533.67	26752.32
533.84	26754.66
534.01	27082.34
534.18	26642.32
534.35	27220.43
534.52	26752.32
534.69	27267.24
534.86	27213.41
535.03	26916.16
535.20	27346.82
535.37	27531.72
535.54	27630.02
535.71	27063.61
535.88	27431.08
536.05	27323.41
536.22	27557.47
536.38	27505.98
536.55	27328.10
536.72	27604.28
536.89	27234.47
537.06	27709.60
537.23	27232.13
537.40	27646.41
537.57	27442.78
537.74	27658.11
537.91	28018.55
538.08	27988.13
538.25	28018.55
538.42	27896.85
538.59	28163.67
538.75	27896.85
538.92	27835.99
539.09	28203.46
539.26	28046.64
539.43	28491.34
539.60	28334.53
539.77	28510.07
539.94	28725.39
540.11	28524.11
540.28	28395.38
540.44	28456.23
540.61	28034.94
540.78	28187.07
540.95	28568.58
541.12	28318.14
541.29	28587.30
541.46	28584.96
541.62	28919.66
541.79	28620.07
541.96	28601.35
542.13	28912.64
542.30	28821.36
542.47	29046.05
542.63	29113.92
542.80	28678.58
542.97	29802.04
543.14	29972.90
543.31	29392.45
543.48	29577.35
543.64	29390.11
543.81	29673.31
543.98	29551.60
544.15	29439.26
544.32	29930.77
544.48	29607.78
544.65	29521.18
544.82	29465.00
544.99	29240.31
545.16	29675.65
545.32	29448.62
545.49	29890.98
545.66	30892.73
545.83	30703.15
546.00	30534.63
546.16	30237.38
546.33	29883.96
546.50	29734.17
546.67	29785.66
546.83	29612.46
547.00	29544.58
547.17	29736.51
547.34	29785.66
547.50	29965.88
547.67	30288.87
547.84	29933.11
548.00	30267.81
548.17	30057.16
548.34	30122.69
548.51	30312.28
548.67	30433.99
548.84	30244.40
549.01	30132.06
549.18	30314.62
549.34	29968.22
549.51	30340.36
549.68	29816.08
549.84	30066.52
550.01	30279.51
550.18	29783.32
550.34	30728.89
550.51	30546.33
550.68	30300.58
550.84	29867.58
551.01	30424.62
551.18	30150.78
551.34	30103.97
551.51	30429.30
551.68	30298.23
551.84	30953.58
552.01	30438.67
552.18	30644.63
552.34	30749.96
552.51	30710.17
552.68	30518.25
552.84	30525.27
553.01	30841.24
553.18	30661.02
553.34	30852.94
553.51	30689.10
553.67	30939.54
553.84	31087.00
554.01	31105.72
554.17	30941.88
554.34	30796.77
554.51	30993.37
554.67	30773.36
554.84	30838.90
555.00	30976.99
555.17	30764.00
555.33	30892.73
555.50	30780.39
555.67	31150.19
555.83	31276.58
556.00	31491.91
556.16	31225.09
556.33	31147.85
556.50	30874.01
556.66	31241.47
556.83	31236.79
556.99	31695.53
557.16	31445.10
557.32	31594.89
557.49	31674.47
557.65	30904.43
557.82	31440.42
557.98	31206.36
558.15	31250.83
558.32	31503.61
558.48	31314.03
558.65	31304.67
558.81	31842.99
558.98	31555.10
559.14	31564.46
559.31	31204.02
559.47	31756.39
559.64	32009.17
559.80	31592.55
559.97	31615.96
560.13	31882.78
560.30	31688.51
560.46	31721.28
560.63	31737.66
560.79	31690.85
560.96	31571.49
561.12	31438.08
561.29	31402.97
561.45	31562.12
561.61	31800.86
561.78	31964.70
561.94	31861.71
562.11	31622.98
562.27	32002.14
562.44	31587.87
562.60	31709.58
562.77	32149.60
562.93	31917.89
563.10	31543.40
563.26	31819.58
563.42	31960.02
563.59	32098.11
563.75	32077.04
563.92	32208.11
564.08	31915.54
564.24	32187.05
564.41	31793.84
564.57	32313.44
564.74	31990.44
564.90	32453.87
565.07	32439.82
565.23	32130.87
565.39	32006.83
565.56	31924.91
565.72	32407.06
565.88	31976.40
566.05	32004.49
566.21	32072.36
566.38	32114.49
566.54	31852.35
566.70	32261.94
566.87	32121.51
567.03	32158.96
567.19	32598.98
567.36	32325.14
567.52	31917.89
567.68	32231.52
567.85	31728.30
568.01	32257.26
568.17	32437.48
568.34	32259.60
568.50	32308.76
568.66	32507.70
568.83	32320.46
568.99	32144.92
569.15	32268.97
569.32	32203.43
569.48	32730.05
569.64	32407.06
569.81	32491.32
569.97	32348.54
570.13	32402.38
570.30	32432.80
570.46	32423.44
570.62	32126.19
570.78	32519.40
570.95	32662.18
571.11	32512.38
571.27	32526.42
571.43	32627.07
571.60	32409.40
571.76	32442.17
571.92	32519.40
572.09	32708.99
572.25	32554.51
572.41	32573.24
572.57	32488.98
572.74	32807.29
572.90	32259.60
573.06	32168.32
573.22	32910.27
573.38	32411.74
573.55	32390.67
573.71	32912.61
573.87	32704.31
574.03	32238.54
574.20	32711.33
574.36	32336.84
574.52	32924.32
574.68	32662.18
574.84	32804.95
575.01	32811.97
575.17	32767.50
575.33	32730.05
575.49	32730.05
575.65	33221.56
575.82	32818.99
575.98	33024.96
576.14	32952.40
576.30	32708.99
576.46	32795.59
576.62	32645.79
576.79	32924.32
576.95	32570.90
577.11	33092.83
577.27	32711.33
577.43	33003.89
577.59	32680.90
577.75	33069.43
577.92	32275.99
578.08	32304.07
578.24	32603.66
578.40	32496.00
578.56	33090.49
578.72	32879.85
578.88	33123.26
579.04	33076.45
579.21	33376.04
579.37	32783.88
579.53	33453.28
579.69	32692.60
579.85	32449.19
580.01	32676.22
580.17	32877.51
580.33	32737.07
580.49	32388.33
580.65	33186.46
580.82	33259.01
580.98	32837.72
581.14	32716.01
581.30	33291.78
581.46	32826.01
581.62	32971.13
581.78	32769.84
581.94	32919.63
582.10	33064.75
582.26	33294.12
582.42	32788.56
582.58	32563.87
582.74	32776.86
582.90	32929.00
583.06	33111.56
583.22	32807.29
583.38	33153.69
583.54	32959.42
583.70	32727.71
583.86	33439.23
584.02	33179.43
584.18	33333.91
584.34	32952.40
584.50	33153.69
584.66	32924.32
584.82	32734.73
584.98	33111.56
585.14	32793.25
585.30	32847.08
585.46	33202.84
585.62	32898.57
585.78	33097.52
585.94	32854.10
586.10	33010.92
586.26	33167.73
586.42	33331.57
586.58	33420.51
586.74	33104.54
586.90	32865.80
587.06	32950.06
587.22	33383.06
587.38	32765.16
587.54	32765.16
587.70	33181.77
587.86	32954.74
588.02	33359.66
588.18	33132.62
588.34	33298.80
588.49	33118.58
588.65	32886.87
588.81	33207.52
588.97	33151.35
589.13	33579.67
589.29	32996.87
589.45	33464.98
589.61	33654.56
589.77	33689.67
589.93	33268.37
590.08	33439.23
590.24	33343.27
590.40	33216.88
590.56	33876.91
590.72	33755.21
590.88	33085.81
591.04	33149.01
591.20	33544.56
591.35	33628.82
591.51	33692.01
591.67	33256.67
591.83	33450.94
591.99	33582.01
592.15	33516.47
592.31	33350.29
592.46	33017.94
592.62	33336.25
592.78	33301.14
592.94	33553.92
593.10	33315.19
593.26	33813.72
593.41	33422.85
593.57	33584.35
593.73	33764.57
593.89	33425.19
594.05	33474.34
594.20	33221.56
594.36	33472.00
594.52	33134.96
594.68	32912.61
594.84	32884.53
594.99	33560.94
595.15	33727.12
595.31	33881.60
595.47	33820.74
595.62	33532.86
595.78	33429.87
595.94	33666.27
596.10	33993.94
596.25	33546.90
596.41	33205.18
596.57	32931.34
596.73	33399.44
596.88	33387.74
597.04	33406.47
597.20	33572.64
597.36	33848.83
597.51	33617.11
597.67	33528.17
597.83	33420.51
597.99	33521.15
598.14	33834.78
598.30	33584.35
598.46	33802.02
598.61	33963.51
598.77	33682.65
598.93	33507.11
599.09	33809.04
599.24	33799.68
599.40	33900.32
599.56	33628.82
599.71	33366.68
599.87	33668.61
600.03	33263.69
600.18	33352.63
600.34	33160.71
600.50	33762.23
600.65	33008.58
600.81	33652.22
600.97	33748.18
601.12	33684.99
601.28	33937.77
601.44	33687.33
601.59	33663.93
601.75	34017.35
601.91	33455.62
602.06	33586.69
602.22	33832.44
602.37	33511.79
602.53	33802.02
602.69	34038.41
602.84	33090.49
603.00	33628.82
603.16	34052.45
603.31	33776.27
603.47	33947.13
603.62	33432.21
603.78	33661.58
603.94	33366.68
604.09	33392.42
604.25	33376.04
604.40	33415.83
604.56	33596.05
604.71	33771.59
604.87	33713.08
605.03	33682.65
605.18	33455.62
605.34	33738.82
605.49	33394.76
605.65	33120.92
605.80	33846.49
605.96	33682.65
606.12	33883.94
606.27	33890.96
606.43	33373.70
606.58	33834.78
606.74	33919.04
606.89	33687.33
607.05	33546.90
607.20	33897.98
607.36	33858.19
607.51	33816.06
607.67	33362.00
607.82	33144.33
607.98	33476.68
608.13	33193.48
608.29	33654.56
608.44	33495.41
608.60	33661.58
608.75	33556.26
608.91	33762.23
609.06	33860.53
609.22	33565.62
609.37	33460.30
609.53	33216.88
609.68	33436.89
609.84	33373.70
609.99	33378.38
610.15	33558.60
610.30	33219.22
610.46	33195.82
610.61	33680.31
610.76	33717.76
610.92	34050.11
611.07	34190.55
611.23	34108.63
611.38	33809.04
611.54	33652.22
611.69	33776.27
611.84	33839.47
612.00	33684.99
612.15	33406.47
612.31	33612.43
612.46	33200.50
612.62	33333.91
612.77	33446.26
612.92	33673.29
613.08	33266.03
613.23	33486.04
613.39	33530.51
613.54	33329.23
613.69	33237.95
613.85	33376.04
614.00	33151.35
614.15	33188.80
614.31	32891.55
614.46	33312.84
614.62	32678.56
614.77	32994.53
614.92	32870.48
615.08	33406.47
615.23	33668.61
615.38	33230.93
615.54	32636.43
615.69	32580.26
615.84	33020.28
616.00	32280.67
616.15	32414.08
616.30	32713.67
616.46	32776.86
616.61	32591.96
616.76	32580.26
616.92	32650.47
617.07	32493.66
617.22	32753.46
617.37	32294.71
617.53	32877.51
617.68	32460.89
617.83	32542.81
617.99	32622.39
618.14	32629.41
618.29	32776.86
618.45	32566.21
618.60	32814.31
618.75	32830.69
618.90	32631.75
619.06	32268.97
619.21	32580.26
619.36	32442.17
619.51	32596.64
619.67	32318.12
619.82	32315.78
619.97	32418.76
620.12	32257.26
620.28	32030.23
620.43	32528.77
620.58	32467.91
620.73	32591.96
620.89	32304.07
621.04	32723.03
621.19	32458.55
621.34	32645.79
621.49	31969.38
621.65	32149.60
621.80	32512.38
621.95	32449.19
622.10	32397.70
622.25	32360.25
622.41	32531.11
622.56	31812.56
622.71	32140.24
622.86	32402.38
623.01	31952.99
623.16	31828.95
623.32	31459.14
623.47	31807.88
623.62	31934.27
623.77	31723.62
623.92	32053.64
624.07	31852.35
624.23	31864.05
624.38	31885.12
624.53	31903.84
624.68	31714.26
624.83	31908.52
624.98	32048.96
625.13	31487.23
625.29	31899.16
625.44	31777.45
625.59	31852.35
625.74	31805.54
625.89	31704.90
626.04	31744.69
626.19	31562.12
626.34	31524.68
626.49	31665.11
626.65	31601.91
626.80	31859.37
626.95	31515.31
627.10	31402.97
627.25	31630.00
627.40	31400.63
627.55	31302.32
627.70	31173.60
627.85	31229.77
628.00	31288.28
628.15	31304.67
628.30	31311.69
628.45	31580.85
628.60	31063.59
628.76	31117.42
628.91	31339.77
629.06	31131.47
629.21	30937.20
629.36	31150.19
629.51	31077.63
629.66	31377.22
629.81	31304.67
629.96	31234.45
630.11	31049.55
630.26	31206.36
630.41	30974.65
630.56	31131.47
630.71	31309.35
630.86	31171.25
631.01	30831.88
631.16	31433.39
631.31	30719.53
631.46	30885.71
631.61	31035.50
631.76	30459.73
631.91	31253.17
632.06	30866.98
632.21	30906.77
632.36	30904.43
632.51	30829.54
632.66	31192.32
632.81	30771.02
632.96	31307.01
633.10	30876.35
633.25	30607.19
633.40	31072.95
633.55	31063.59
633.70	30389.52
633.85	30274.83
634.00	30494.84
634.15	30525.27
634.30	30927.84
634.45	30742.94
634.60	30504.20
634.75	30749.96
634.90	30632.93
635.05	30747.62
635.19	30607.19
635.34	30536.97
635.49	30415.26
635.64	30934.86
635.79	30546.33
635.94	30295.89
636.09	30511.22
636.24	29898.00
636.39	30366.11
636.53	30288.87
636.68	30228.02
636.83	30396.54
636.98	30448.03
637.13	30422.28
637.28	30513.56
637.43	30820.17
637.57	30387.18
637.72	30068.86
637.87	30480.80
638.02	30218.66
638.17	30558.03
638.32	30036.09
638.46	30148.44
638.61	29860.55
638.76	30043.12
638.91	30129.72
639.06	30092.27
639.20	30052.48
639.35	30190.57
639.50	30209.29
639.65	30426.96
639.80	29780.98
639.94	29940.13
640.09	30125.04
640.24	29914.39
640.39	29802.04
640.54	29738.85
640.68	29399.47
640.83	29638.20
640.98	29589.05
641.13	29371.38
641.27	30003.33
641.42	29406.49
641.57	29596.07
641.72	29670.97
641.86	29720.12
642.01	29139.67
642.16	29399.47
642.31	29654.59
642.45	29596.07
642.60	29355.00
642.75	29310.53
642.90	29457.98
643.04	29385.43
643.19	29315.21
643.34	29804.38
643.48	29226.27
643.63	29242.65
643.78	29256.70
643.93	29600.76
644.07	29312.87
644.22	29322.23
644.37	29244.99
644.51	29071.79
644.66	29404.15
644.81	29029.66
644.95	29371.38
645.10	29549.26
645.25	29434.58
645.39	29092.86
645.54	29287.12
645.69	28994.56
645.83	29542.24
645.98	29586.71
646.13	29460.32
646.27	29322.23
646.42	29565.65
646.57	29364.36
646.71	29053.07
646.86	29022.64
647.00	29163.08
647.15	29092.86
647.30	29003.92
647.44	29104.56
647.59	28985.19
647.74	29163.08
647.88	29092.86
648.03	28692.63
648.17	29308.19
648.32	28950.09
648.47	28931.36
648.61	29282.44
648.76	28922.00
648.90	28980.51
649.05	28835.40
649.20	28741.78
649.34	28748.80
649.49	28540.49
649.63	28362.61
649.78	28491.34
649.92	28819.02
650.07	28898.59
650.21	28409.42
650.36	29097.54
650.51	28879.87
650.65	28510.07
650.80	28959.45
650.94	28711.35
651.09	28655.18
651.23	28561.56
651.38	28765.18
651.52	28980.51
651.67	28783.91
651.81	28765.18
651.96	28587.30
652.10	28271.33
652.25	28610.71
652.39	28479.64
652.54	28755.82
652.68	28709.01
652.83	28388.36
652.97	28580.28
653.12	28308.78
653.26	28301.76
653.41	28439.85
653.55	28292.40
653.70	28194.09
653.84	28123.88
653.99	28264.31
654.13	28610.71
654.27	28510.07
654.42	28287.71
654.56	27960.04
654.71	28774.55
654.85	28404.74
655.00	28376.66
655.14	28121.54
655.29	28418.78
655.43	28425.81
655.57	27889.82
655.72	27861.74
655.86	27660.45
656.01	27929.61
656.15	27747.05
656.30	27924.93
656.44	27878.12
656.58	27835.99
656.73	27976.42
656.87	28070.04
657.01	27833.65
657.16	27878.12
657.30	28170.69
657.45	27819.61
657.59	27873.44
657.73	27693.22
657.88	27697.90
658.02	27733.01
658.16	27541.08
658.31	27229.79
658.45	27365.54
658.60	27349.16
658.74	27302.35
658.88	27606.62
659.03	27564.49
659.17	27754.07
659.31	27765.78
659.46	27688.54
659.60	28084.09
659.74	27683.86
659.89	27747.05
660.03	27690.88
660.17	27358.52
660.32	26962.97
660.46	27782.16
660.60	27246.18
660.74	27124.47
660.89	27194.68
661.03	26881.05
661.17	27379.59
661.32	27358.52
661.46	27225.11
661.60	26953.61
661.74	27171.28
661.89	27061.27
662.03	27311.71
662.17	27250.86
662.31	26728.92
662.46	27026.17
662.60	26719.56
662.74	26616.57
662.88	26504.23
663.03	26913.82
663.17	26813.18
663.31	26314.64
663.45	26611.89
663.60	26536.99
663.74	26464.44
663.88	26609.55
664.02	26141.44
664.17	26354.43
664.31	26050.16
664.45	26588.49
664.59	26441.03
664.73	26356.77
664.88	26452.73
665.02	26125.06
665.16	26232.72
665.30	26096.97
665.44	26366.13
665.59	25841.85
665.73	26331.03
665.87	26087.61
666.01	26150.81
666.15	26143.78
666.29	25813.77
666.44	26127.40
666.58	26087.61
666.72	25853.56
666.86	25797.38
667.00	25867.60
667.14	25584.40
667.28	25663.97
667.43	25912.07
667.57	25640.57
667.71	25434.60
667.85	25696.74
667.99	25408.86
668.13	25766.96
668.27	25579.71
668.41	25481.41
668.56	25242.68
668.70	25315.23
668.84	25256.72
668.98	25448.64
669.12	25249.70
669.26	25202.89
669.40	25099.90
669.54	25455.67
669.68	25083.52
669.82	25298.85
669.96	25137.35
670.10	25060.12
670.25	24809.68
670.39	24783.93
670.53	24538.18
670.67	24189.44
670.81	24746.48
670.95	24559.24
671.09	24652.86
671.23	24350.93
671.37	24589.67
671.51	24629.46
671.65	24343.91
671.79	24720.74
671.93	24566.26
672.07	24357.96
672.21	24236.25
672.35	24194.12
672.49	24084.11
672.63	24322.85
672.77	23997.51
672.91	23873.46
673.05	24034.96
673.19	24006.87
673.33	24271.36
673.47	23852.40
673.61	24016.24
673.75	24051.34
673.89	23983.47
674.03	23812.61
674.17	23606.64
674.31	24189.44
674.45	23517.70
674.59	23599.62
674.73	23723.67
674.87	23152.58
675.01	22998.10
675.15	23201.73
675.29	22986.40
675.43	23290.67
675.56	23234.50
675.70	23044.91
675.84	23164.28
675.98	22567.45
676.12	23075.34
676.26	23393.65
676.40	22831.93
676.54	22684.47
676.68	22647.02
676.82	22286.58
676.96	22567.45
677.10	22834.27
677.23	22574.47
677.37	22136.79
677.51	22473.82
677.65	22469.14
677.79	22118.06
677.93	22396.59
678.07	22302.96
678.21	22387.22
678.34	22209.34
678.48	22089.98
678.62	21994.01
678.76	21682.72
678.90	21565.70
679.04	21654.64
679.18	21635.91
679.31	21385.47
679.45	21408.88
679.59	21338.66
679.73	21366.75
679.87	21130.36
680.00	21502.50
680.14	21645.27
680.28	21333.98
680.42	21099.93
680.56	21163.12
680.70	21010.99
680.83	20985.24
680.97	20908.01
681.11	21036.74
681.25	21048.44
681.39	20575.65
681.52	20725.44
681.66	21099.93
681.80	20805.02
681.94	20325.21
682.07	20367.34
682.21	20271.38
682.35	20011.58
682.49	20322.87
682.62	20585.01
682.76	19934.34
682.90	20383.73
683.04	20140.31
683.17	19950.73
683.31	20294.79
683.45	20355.64
683.59	20126.27
683.72	19960.09
683.86	19674.54
684.00	19990.52
684.13	19943.70
684.27	19470.92
684.41	19246.23
684.55	19087.07
684.68	18796.84
684.82	18899.83
684.96	18974.72
685.09	18937.27
685.23	18642.37
685.37	18803.86
685.50	18668.11
685.64	18930.25
685.78	18946.64
685.91	18906.85
686.05	18974.72
686.19	18530.02
686.32	18911.53
686.46	18445.76
686.60	18204.69
686.73	18347.46
686.87	18518.32
687.01	18162.56
687.14	18246.82
687.28	17905.10
687.42	18178.94
687.55	17813.82
687.69	18207.03
687.82	18101.70
687.96	17818.50
688.10	17788.07
688.23	17923.82
688.37	17998.72
688.50	18019.78
688.64	18001.06
688.78	17156.13
688.91	17235.70
689.05	17547.00
689.18	17268.47
689.32	17507.21
689.46	16968.88
689.59	17083.57
689.73	17263.79
689.86	17216.98
690.00	16917.39
690.13	17027.40
690.27	16840.15
690.41	16903.35
690.54	16561.63
690.68	16662.27
690.81	17015.69
690.95	16779.30
691.08	16760.58
691.22	16255.02
691.35	16802.71
691.49	16725.47
691.62	16423.54
691.76	16070.12
691.89	16414.18
692.03	16025.65
692.16	15590.31
692.30	15707.34
692.43	15714.36
692.57	15880.53
692.70	15857.13
692.84	15627.76
692.97	15559.88
693.11	15803.30
693.24	15829.04
693.38	15531.80
693.51	15592.65
693.65	15393.70
693.78	15456.90
693.92	15154.97
694.05	15197.10
694.19	15047.30
694.32	15077.73
694.45	14867.08
694.59	14930.28
694.72	14853.04
694.86	14785.16
694.99	14764.10
695.13	14881.13
695.26	15087.09
695.39	14668.14
695.53	14930.28
695.66	14656.43
695.80	14771.12
695.93	14895.17
696.07	14853.04
696.20	14799.21
696.33	14403.66
696.47	14223.44
696.60	14122.79
696.73	14080.66
696.87	13893.42
697.00	13563.40
697.14	13411.27
697.27	13528.30
697.40	13755.33
697.54	13706.18
697.67	13437.02
697.80	13706.18
697.94	13209.98
698.07	13273.18
698.21	13434.68
698.34	13467.44
698.47	13090.62
698.61	13245.09
698.74	13341.05
698.87	13425.31
699.01	13231.05
699.14	13116.36
699.27	12961.89
699.40	13046.15
699.54	12737.20
699.67	12802.73
699.80	12627.19
699.94	12458.67
700.07	12746.56
700.20	12580.38
700.34	12463.35
700.47	12514.84
700.60	12355.69
700.73	12393.14
700.87	12372.07
701.00	12587.40
701.13	12135.68
701.26	12351.01
701.40	12341.64
701.53	12224.62
701.66	12133.34
701.79	12037.38
701.93	12086.53
702.06	11948.43
702.19	11733.11
702.32	11763.53
702.46	11768.21
702.59	11819.71
702.72	11679.27
702.85	11765.87
702.99	11346.92
703.12	11623.10
703.25	11510.75
703.38	11475.65
703.51	11377.34
703.65	11215.85
703.78	11419.47
703.91	11187.76
704.04	11346.92
704.17	11377.34
704.31	10888.17
704.44	10841.36
704.57	10925.62
704.70	10743.06
704.83	10607.31
704.96	10532.41
705.10	10443.47
705.23	10633.05
>>>>>End Processed Spectral Data<<<<<
