SpectraSuite Data File
++++++++++++++++++++++++++++++++++++
Date: Fri Oct 04 11:39:38 GMT-05:00 2013
User: price-jones
Dark Spectrum Present: No
Reference Spectrum Present: No
Number of Sampled Component Spectra: 1
Spectrometers: USB2+H05261
Integration Time (usec): 100000 (USB2+H05261)
Spectra Averaged: 1 (USB2+H05261)
Boxcar Smoothing: 0 (USB2+H05261)
Correct for Electrical Dark: No (USB2+H05261)
Strobe/Lamp Enabled: No (USB2+H05261)
Correct for Detector Non-linearity: No (USB2+H05261)
Correct for Stray Light: No (USB2+H05261)
Number of Pixels in Processed Spectrum: 2048
>>>>>Begin Processed Spectral Data<<<<<
365.73	67.88
365.92	67.88
366.12	67.88
366.32	0.00
366.52	0.00
366.72	0.00
366.91	0.00
367.11	0.00
367.31	0.00
367.51	0.00
367.70	0.00
367.90	0.00
368.10	0.00
368.30	0.00
368.49	0.00
368.69	0.00
368.89	0.00
369.09	0.00
369.28	0.00
369.48	0.00
369.68	0.00
369.87	0.00
370.07	28.09
370.27	25.75
370.47	114.69
370.66	346.40
370.86	381.51
371.06	313.63
371.25	320.65
371.45	344.06
371.65	402.57
371.84	362.78
372.04	353.42
372.24	458.74
372.44	421.30
372.63	493.85
372.83	444.70
373.03	449.38
373.22	416.62
373.42	503.22
373.62	524.28
373.81	442.36
374.01	528.96
374.21	503.22
374.40	461.09
374.60	552.37
374.79	425.98
374.99	425.98
375.19	528.96
375.38	521.94
375.58	528.96
375.78	491.51
375.97	486.83
376.17	564.07
376.37	510.24
376.56	500.87
376.76	578.11
376.95	514.92
377.15	533.64
377.35	561.73
377.54	519.60
377.74	540.66
377.93	526.62
378.13	580.45
378.33	554.71
378.52	599.18
378.72	484.49
378.91	566.41
379.11	503.22
379.31	608.54
379.50	650.67
379.70	669.39
379.89	638.97
380.09	622.58
380.28	571.09
380.48	582.79
380.68	596.84
380.87	610.88
381.07	615.56
381.26	676.41
381.46	634.29
381.65	770.04
381.85	566.41
382.04	657.69
382.24	730.25
382.43	660.03
382.63	653.01
382.83	613.22
383.02	706.84
383.22	793.44
383.41	683.44
383.61	727.91
383.80	723.23
384.00	638.97
384.19	711.52
384.39	720.88
384.58	655.35
384.78	751.31
384.97	648.33
385.17	699.82
385.36	725.57
385.56	732.59
385.75	662.37
385.95	713.86
386.14	812.17
386.34	737.27
386.53	767.70
386.72	741.95
386.92	777.06
387.11	784.08
387.31	837.91
387.50	802.80
387.70	751.31
387.89	770.04
388.09	763.01
388.28	826.21
388.48	856.64
388.67	770.04
388.86	774.72
389.06	842.59
389.25	849.61
389.45	821.53
389.64	931.53
389.84	983.02
390.03	936.21
390.22	952.60
390.42	912.81
390.61	882.38
390.81	854.30
391.00	898.77
391.19	931.53
391.39	875.36
391.58	898.77
391.78	1004.09
391.97	884.72
392.16	933.87
392.36	999.41
392.55	961.96
392.75	976.00
392.94	983.02
393.13	957.28
393.33	1048.56
393.52	1048.56
393.71	1123.46
393.91	1111.75
394.10	1015.79
394.29	1013.45
394.49	1083.67
394.68	1032.18
394.88	1055.58
395.07	1064.94
395.26	1076.65
395.46	1001.75
395.65	1130.48
395.84	1062.60
396.04	1233.46
396.23	1163.25
396.42	1167.93
396.62	1128.14
396.81	1149.20
397.00	1224.10
397.19	1214.74
397.39	1198.35
397.58	1198.35
397.77	1200.69
397.97	1198.35
398.16	1252.19
398.35	1221.76
398.55	1263.89
398.74	1249.85
398.93	1233.46
399.12	1261.55
399.32	1240.48
399.51	1423.05
399.70	1376.24
399.90	1348.15
400.09	1362.19
400.28	1495.60
400.47	1315.38
400.67	1451.13
400.86	1394.96
401.05	1385.60
401.24	1507.30
401.44	1558.80
401.63	1582.20
401.82	1441.77
402.01	1460.49
402.21	1486.24
402.40	1530.71
402.59	1544.75
402.78	1584.54
402.97	1544.75
403.17	1572.84
403.36	1633.69
403.55	1540.07
403.74	1614.97
403.93	1638.38
404.13	1563.48
404.32	1678.16
404.51	1526.03
404.70	1741.36
404.89	1708.59
405.09	1806.89
405.28	1764.76
405.47	1837.32
405.66	1755.40
405.85	1781.15
406.05	1849.02
406.24	1757.74
406.43	1839.66
406.62	1865.41
406.81	1921.58
407.00	1842.00
407.20	1797.53
407.39	1902.86
407.58	1844.34
407.77	1998.82
407.96	1973.07
408.15	2008.18
408.34	1912.22
408.54	2045.63
408.73	2073.71
408.92	2111.16
409.11	2071.37
409.30	2136.91
409.49	2127.55
409.68	2085.42
409.87	2059.67
410.07	2188.40
410.26	2115.84
410.45	2200.10
410.64	2080.74
410.83	2211.81
411.02	2237.55
411.21	2293.72
411.40	2296.07
411.59	2415.43
411.78	2258.62
411.98	2328.83
412.17	2476.29
412.36	2417.77
412.55	2368.62
412.74	2455.22
412.93	2569.91
413.12	2513.74
413.31	2593.31
413.50	2539.48
413.69	2665.87
413.88	2670.55
414.07	2703.32
414.26	2780.56
414.45	2722.04
414.64	2881.20
414.83	2864.82
415.02	2775.88
415.22	2855.45
415.41	2803.96
415.60	2902.26
415.79	2867.16
415.98	2958.44
416.17	2956.10
416.36	2967.80
416.55	3000.57
416.74	3094.19
416.93	3014.61
417.12	3047.38
417.31	3169.09
417.50	3173.77
417.69	3283.77
417.88	3265.05
418.07	3297.81
418.26	3218.24
418.45	3379.73
418.64	3372.71
418.83	3456.97
419.02	3386.76
419.21	3412.50
419.39	3356.33
419.58	3445.27
419.77	3236.96
419.96	3433.57
420.15	3574.00
420.34	3494.42
420.53	3515.48
420.72	3538.89
420.91	3632.51
421.10	3620.81
421.29	3597.40
421.48	3627.83
421.67	3609.11
421.86	3707.41
422.05	3641.87
422.24	3716.77
422.43	3756.56
422.61	3716.77
422.80	3906.35
422.99	3730.81
423.18	3831.46
423.37	3850.18
423.56	3808.05
423.75	3786.99
423.94	3749.54
424.13	3576.34
424.32	3672.30
424.50	3887.63
424.69	3999.98
424.88	3887.63
425.07	3761.24
425.26	3695.71
425.45	3845.50
425.64	3922.74
425.83	3688.68
426.01	3817.41
426.20	3927.42
426.39	4081.89
426.58	3913.38
426.77	3801.03
426.96	3939.12
427.15	3786.99
427.33	3885.29
427.52	4032.74
427.71	4117.00
427.90	4044.45
428.09	4018.70
428.28	4025.72
428.46	4058.49
428.65	4138.07
428.84	4297.22
429.03	4294.88
429.22	4063.17
429.40	4276.16
429.59	4315.95
429.78	3894.65
429.97	4014.02
430.16	4170.83
430.34	4234.03
430.53	4547.66
430.72	4397.87
430.91	4215.30
431.10	4308.93
431.28	4435.32
431.47	4458.72
431.66	4601.49
431.85	4386.16
432.03	4542.98
432.22	4758.31
432.41	4620.22
432.60	4760.65
432.79	4498.51
432.97	4603.83
433.16	4587.45
433.35	4699.80
433.54	4634.26
433.72	4723.20
433.91	4706.82
434.10	4643.62
434.28	4762.99
434.47	4840.23
434.66	4774.69
434.85	4683.41
435.03	4966.62
435.22	5118.75
435.41	5266.21
435.59	5151.52
435.78	5172.58
435.97	5116.41
436.16	5062.58
436.34	4992.36
436.53	4858.95
436.72	5071.94
436.90	4980.66
437.09	5081.30
437.28	4940.87
437.46	5188.97
437.65	5109.39
437.84	5188.97
438.02	5067.26
438.21	5343.44
438.40	5261.52
438.58	5390.25
438.77	5291.95
438.96	5380.89
439.14	5554.09
439.33	5467.49
439.52	5612.60
439.70	5554.09
439.89	5643.03
440.08	5586.86
440.26	5628.99
440.45	5722.61
440.63	5692.18
440.82	5673.46
441.01	5762.40
441.19	5844.32
441.38	5804.53
441.57	5916.87
441.75	5851.34
441.94	5895.81
442.12	6122.84
442.31	6193.06
442.50	5975.39
442.68	6111.14
442.87	6125.18
443.05	6293.70
443.24	6417.75
443.43	6326.47
443.61	6197.74
443.80	6586.27
443.98	6235.19
444.17	6164.97
444.35	6303.06
444.54	6415.41
444.73	6349.87
444.91	6230.51
445.10	6392.00
445.28	6319.45
445.47	6361.58
445.65	6403.71
445.84	6572.22
446.02	6427.11
446.21	6403.71
446.39	6478.60
446.58	6300.72
446.77	6392.00
446.95	6370.94
447.14	6450.52
447.32	6609.67
447.51	6438.81
447.69	6651.80
447.88	6492.65
448.06	6829.68
448.25	6504.35
448.43	6612.01
448.62	6473.92
448.80	6546.48
448.99	6527.75
449.17	6560.52
449.36	6565.20
449.54	6743.08
449.73	6834.36
449.91	6944.37
450.10	6829.68
450.28	6867.13
450.46	6754.79
450.65	6965.43
450.83	6967.77
451.02	6942.03
451.20	7045.01
451.39	6810.96
451.57	6920.96
451.76	7016.93
451.94	7009.90
452.13	7133.95
452.31	7014.59
452.49	6972.46
452.68	7222.89
452.86	6925.65
453.05	7173.74
453.23	7190.13
453.42	7225.23
453.60	7016.93
453.78	7323.54
453.97	7124.59
454.15	7131.61
454.34	7077.78
454.52	7487.37
454.70	7377.37
454.89	7391.41
455.07	7445.24
455.26	7419.50
455.44	7506.10
455.62	7613.76
455.81	7332.90
455.99	7581.00
456.17	7688.66
456.36	7602.06
456.54	7531.84
456.73	7838.45
456.91	7988.25
457.09	7990.59
457.28	8238.69
457.46	7810.37
457.64	8023.36
457.83	7911.01
458.01	7859.52
458.19	7971.86
458.38	7983.57
458.56	8140.38
458.74	8035.06
458.93	7957.82
459.11	8114.64
459.29	8039.74
459.48	8093.57
459.66	8124.00
459.84	8313.58
460.03	8369.76
460.21	8278.47
460.39	8217.62
460.57	8226.98
460.76	8215.28
460.94	8496.14
461.12	8463.38
461.31	8461.04
461.49	8421.25
461.67	8388.48
461.85	8491.46
462.04	8559.34
462.22	8554.66
462.40	8592.11
462.59	8650.62
462.77	8688.07
462.95	8816.80
463.13	8725.52
463.32	8725.52
463.50	8950.21
463.68	8746.58
463.86	8828.50
464.05	8596.79
464.23	8889.35
464.41	8809.78
464.59	8667.00
464.78	9144.47
464.96	8769.99
465.14	9013.40
465.32	9027.45
465.50	9053.19
465.69	9118.73
465.87	8933.82
466.05	9114.05
466.23	8971.27
466.41	9116.39
466.60	9355.12
466.78	9130.43
466.96	9181.92
467.14	9263.84
467.32	9259.16
467.51	9310.65
467.69	9217.03
467.87	9238.09
468.05	9425.34
468.23	9210.01
468.41	9226.39
468.60	9420.66
468.78	9533.00
468.96	9411.29
469.14	9514.28
469.32	9277.88
469.50	9432.36
469.69	9701.52
469.87	9968.34
470.05	9628.96
470.23	9741.31
470.41	9914.51
470.59	9778.76
470.77	9664.07
470.95	10094.73
471.14	10085.37
471.32	9975.36
471.50	10157.92
471.68	9987.07
471.86	10059.62
472.04	10157.92
472.22	10443.47
472.40	10216.44
472.58	10373.25
472.77	10452.83
472.95	10366.23
473.13	10899.87
473.31	10607.31
473.49	10565.18
473.67	10476.24
473.85	10539.43
474.03	10654.12
474.21	10876.47
474.39	10918.60
474.57	10857.75
474.75	10956.05
474.93	11185.42
475.12	11131.59
475.30	11012.22
475.48	11049.67
475.66	11211.17
475.84	11421.81
476.02	11445.22
476.20	11370.32
476.38	11676.93
476.56	11740.13
476.74	11918.01
476.92	12013.97
477.10	11983.54
477.28	11936.73
477.46	12163.76
477.64	12025.67
477.82	12114.61
478.00	12402.50
478.18	12507.82
478.36	12432.93
478.54	12589.74
478.72	12671.66
478.90	12858.90
479.08	12821.45
479.26	12842.52
479.44	13247.43
479.62	13130.41
479.80	13282.54
479.98	13305.95
480.16	13666.39
480.34	13577.45
480.52	13769.37
480.70	13926.19
480.88	13764.69
481.06	13591.49
481.24	13774.05
481.41	14087.68
481.59	14366.21
481.77	14429.40
481.95	14483.24
482.13	14672.82
482.31	14513.66
482.49	14642.39
482.67	14916.23
482.85	15138.58
483.03	15403.07
483.21	15461.58
483.39	15335.19
483.57	15527.11
483.74	15735.42
483.92	15789.25
484.10	15503.71
484.28	16046.71
484.46	16381.41
484.64	16273.74
484.82	16032.67
485.00	16243.32
485.18	16774.62
485.35	17088.25
485.53	16884.62
485.71	16704.40
485.89	17455.72
486.07	17172.51
486.25	17277.83
486.43	17514.23
486.61	17535.29
486.78	17294.22
486.96	17968.29
487.14	18389.59
487.32	18422.36
487.50	18565.13
487.68	18277.24
487.85	18436.40
488.03	18766.42
488.21	18941.96
488.39	19035.58
488.57	19068.34
488.75	19255.59
488.92	19826.68
489.10	19751.78
489.28	19536.45
489.46	20030.30
489.64	20011.58
489.81	20329.89
489.99	20194.14
490.17	20362.66
490.35	20657.57
490.53	20746.51
490.70	21032.05
490.88	20886.94
491.06	21120.99
491.24	21247.38
491.41	21153.76
491.59	21631.23
491.77	21380.79
491.95	21998.70
492.13	21975.29
492.30	22045.51
492.48	22174.24
492.66	22122.74
492.84	22059.55
493.01	22450.42
493.19	22750.01
493.37	22759.37
493.54	22897.46
493.72	22803.84
493.90	23117.47
494.08	23215.77
494.25	23410.04
494.43	23653.45
494.61	24070.07
494.79	23662.82
494.96	23943.68
495.14	24196.46
495.32	24325.19
495.49	24374.34
495.67	24634.14
495.85	24809.68
496.02	24753.51
496.20	24793.29
496.38	24905.64
496.55	24828.40
496.73	25462.69
496.91	25116.29
497.09	25556.31
497.26	25706.10
497.44	25961.22
497.62	25553.97
497.79	25666.31
497.97	26256.13
498.14	26136.76
498.32	26192.94
498.50	26429.33
498.67	26813.18
498.85	26958.29
499.03	26436.35
499.20	26955.95
499.38	26661.04
499.56	27051.91
499.73	27484.91
499.91	27438.10
500.08	27143.19
500.26	27562.15
500.44	27475.55
500.61	27917.91
500.79	27864.08
500.97	27889.82
501.14	28236.22
501.32	27990.47
501.49	27838.33
501.67	28285.37
501.84	28374.31
502.02	28556.88
502.20	28610.71
502.37	28678.58
502.55	28540.49
502.72	28868.17
502.90	28856.46
503.07	28755.82
503.25	29142.01
503.43	29158.39
503.60	29455.64
503.78	29523.52
503.95	29219.25
504.13	29666.29
504.30	29879.28
504.48	29497.77
504.65	29898.00
504.83	30309.94
505.01	30466.75
505.18	30000.99
505.36	30410.58
505.53	29961.20
505.71	30197.59
505.88	30548.67
506.06	30139.08
506.23	30590.80
506.41	30691.44
506.58	31012.10
506.76	30373.13
506.93	30855.28
507.11	30876.35
507.28	31328.07
507.46	31122.10
507.63	31239.13
507.81	31772.77
507.98	31735.32
508.16	31601.91
508.33	31229.77
508.50	31924.91
508.68	31985.76
508.85	32493.66
509.03	31929.59
509.20	32233.86
509.38	32168.32
509.55	32496.00
509.73	32290.03
509.90	32175.34
510.08	32554.51
510.25	32245.56
510.42	32514.72
510.60	33277.74
510.77	33003.89
510.95	33020.28
511.12	32929.00
511.30	32720.69
511.47	32985.17
511.64	33230.93
511.82	33867.55
511.99	33357.32
512.17	33296.46
512.34	33923.72
512.51	33656.90
512.69	34071.18
512.86	33741.16
513.04	34424.60
513.21	34047.77
513.38	34291.19
513.56	34438.64
513.73	33865.21
513.90	34473.75
514.08	34422.26
514.25	34600.14
514.43	34492.47
514.60	34817.81
514.77	34630.57
514.95	34747.59
515.12	34670.36
515.29	34412.90
515.47	35278.89
515.64	35342.09
515.81	35658.06
515.99	35538.69
516.16	36046.59
516.33	35936.59
516.51	35887.43
516.68	35182.93
516.85	35765.73
517.03	36004.46
517.20	36294.69
517.37	36002.12
517.54	36240.86
517.72	35978.72
517.89	36343.84
518.06	36229.15
518.24	36275.96
518.41	36580.23
518.58	36222.13
518.75	36226.81
518.93	36959.40
519.10	36643.43
519.27	36730.03
519.45	36825.99
519.62	36886.84
519.79	36877.48
519.96	36833.01
520.14	36870.46
520.31	36940.68
520.48	36966.42
520.65	37174.73
520.83	37886.25
521.00	37663.90
521.17	37624.11
521.34	37970.51
521.52	37935.40
521.69	38099.24
521.86	38103.92
522.03	38171.80
522.20	38494.79
522.38	38160.09
522.55	37560.92
522.72	37912.00
522.89	38440.96
523.07	38513.52
523.24	38815.44
523.41	38817.78
523.58	38712.46
523.75	38787.36
523.92	38955.88
524.10	39126.74
524.27	38691.40
524.44	39145.46
524.61	39409.94
524.78	39192.27
524.96	39459.09
525.13	39089.29
525.30	39239.08
525.47	39419.30
525.64	39468.45
525.81	39639.31
525.98	39803.15
526.16	39636.97
526.33	39746.98
526.50	40067.63
526.67	39803.15
526.84	39735.27
527.01	39754.00
527.18	39943.58
527.36	40355.52
527.53	40091.04
527.70	40575.53
527.87	39924.86
528.04	40032.52
528.21	40587.23
528.38	40350.84
528.55	40650.42
528.72	40528.72
528.89	40479.57
529.07	40711.28
529.24	40762.77
529.41	40914.90
529.58	40566.16
529.75	40458.50
529.92	40814.26
530.09	40561.48
530.26	40882.14
530.43	41064.70
530.60	40985.12
530.77	41471.95
530.94	41132.57
531.11	41577.28
531.28	41226.20
531.46	41282.37
531.63	41380.67
531.80	41581.96
531.97	41827.71
532.14	41521.10
532.31	41619.41
532.48	41537.49
532.65	41841.76
532.82	41387.69
532.99	42045.38
533.16	41612.38
533.33	42342.63
533.50	42206.88
533.67	42330.93
533.84	42010.28
534.01	42150.71
534.18	42267.73
534.35	42536.90
534.52	42506.47
534.69	42387.10
534.86	42733.50
535.03	42689.03
535.20	42600.09
535.37	42941.81
535.54	42834.14
535.71	42239.65
535.88	42925.42
536.05	42604.77
536.22	43086.92
536.38	43615.88
536.55	43117.35
536.72	43346.72
536.89	43061.18
537.06	42932.45
537.23	43227.35
537.40	42796.70
537.57	43412.26
537.74	43365.45
537.91	43604.18
538.08	43688.44
538.25	43459.07
538.42	43936.54
538.59	44020.80
538.75	43105.65
538.92	43880.36
539.09	43531.62
539.26	43793.76
539.43	44041.86
539.60	43578.43
539.77	43934.20
539.94	44102.71
540.11	43927.17
540.28	44275.91
540.44	44212.72
540.61	44318.04
540.78	44182.29
540.95	44287.62
541.12	44624.65
541.29	44610.61
541.46	44222.08
541.62	44353.15
541.79	44669.12
541.96	44018.46
542.13	44708.91
542.30	44760.40
542.47	44910.20
542.63	45130.21
542.80	45265.96
542.97	45191.06
543.14	45076.38
543.31	44886.79
543.48	45401.71
543.64	45780.88
543.81	45642.79
543.98	45476.61
544.15	45584.27
544.32	45553.85
544.48	45818.33
544.65	45497.67
544.82	45755.13
544.99	45551.51
545.16	46082.81
545.32	45694.28
545.49	46614.11
545.66	46557.94
545.83	46960.51
546.00	46742.84
546.16	46328.56
546.33	45982.16
546.50	45893.22
546.67	45965.78
546.83	45731.73
547.00	45825.35
547.17	45879.18
547.34	45925.99
547.50	45989.19
547.67	46422.19
547.84	45958.76
548.00	46057.06
548.17	46742.84
548.34	46323.88
548.51	46323.88
548.67	46543.89
548.84	46487.72
549.01	46452.61
549.18	46190.47
549.34	46138.98
549.51	46513.47
549.68	45914.29
549.84	46185.79
550.01	46148.34
550.18	46344.95
550.34	46642.20
550.51	46892.63
550.68	46600.07
550.84	46461.97
551.01	46576.66
551.18	46616.45
551.34	46424.53
551.51	46883.27
551.68	46726.46
551.84	46906.68
552.01	46464.32
552.18	46836.46
552.34	46997.96
552.51	46808.37
552.68	46719.43
552.84	46658.58
553.01	46934.76
553.18	46532.19
553.34	46836.46
553.51	46866.89
553.67	47061.15
553.84	47229.67
554.01	47260.10
554.17	47030.72
554.34	47285.84
554.51	47180.52
554.67	47463.72
554.84	47309.25
555.00	47229.67
555.17	47206.26
555.33	47613.52
555.50	47545.64
555.67	47208.61
555.83	46988.60
556.00	47203.92
556.16	47760.97
556.33	47496.49
556.50	47082.22
556.66	47910.77
556.83	47889.70
556.99	47566.71
557.16	47908.43
557.32	47716.50
557.49	47922.47
557.65	47318.61
557.82	47437.98
557.98	47147.75
558.15	47578.41
558.32	47767.99
558.48	47318.61
558.65	47896.72
558.81	47845.23
558.98	47866.30
559.14	47700.12
559.31	47786.72
559.47	47819.49
559.64	47819.49
559.80	47978.64
559.97	48212.70
560.13	47646.29
560.30	48189.29
560.46	48030.13
560.63	47782.04
560.79	48025.45
560.96	48472.49
561.12	47461.38
561.29	47704.80
561.45	48030.13
561.61	48329.72
561.78	48231.42
561.94	48343.77
562.11	48533.35
562.27	47835.87
562.44	48409.30
562.60	48027.79
562.77	48175.25
562.93	47831.19
563.10	48114.39
563.26	47435.64
563.42	48430.36
563.59	48430.36
563.75	48442.07
563.92	48273.55
564.08	48133.12
564.24	47922.47
564.41	48041.84
564.57	47941.19
564.74	48233.76
564.90	48397.60
565.07	48273.55
565.23	48816.55
565.39	48252.48
565.56	48821.23
565.72	48198.65
565.88	48683.14
566.05	48147.16
566.21	48233.76
566.38	48409.30
566.54	48523.99
566.70	48736.98
566.87	48566.12
567.03	48236.10
567.19	48865.70
567.36	48313.34
567.52	48327.38
567.68	48519.31
567.85	48411.64
568.01	48734.63
568.17	48638.67
568.34	48832.94
568.50	48802.51
568.66	48362.49
568.83	48519.31
568.99	48369.51
569.15	48442.07
569.32	48233.76
569.48	48257.17
569.64	48413.98
569.81	48811.87
569.97	48378.87
570.13	48921.88
570.30	48147.16
570.46	49022.52
570.62	48608.25
570.78	48502.92
570.95	48643.35
571.11	48488.88
571.27	48285.25
571.43	48641.01
571.60	48774.42
571.76	48563.78
571.92	48334.40
572.09	48652.72
572.25	48509.94
572.41	48914.86
572.57	49006.14
572.74	48612.93
572.90	48453.77
573.06	48570.80
573.22	48369.51
573.38	49092.74
573.55	48329.72
573.71	48568.46
573.87	48964.01
574.03	48519.31
574.20	48964.01
574.36	48662.08
574.52	48715.91
574.68	48531.01
574.84	48322.70
575.01	48825.92
575.17	48800.17
575.33	48428.02
575.49	48905.49
575.65	48903.15
575.82	48411.64
575.98	48732.29
576.14	49186.36
576.30	48671.44
576.46	48802.51
576.62	48093.33
576.79	48760.38
576.95	48699.53
577.11	49074.01
577.27	48720.59
577.43	48582.50
577.59	48856.34
577.75	49034.22
577.92	48343.77
578.08	48507.60
578.24	48872.73
578.40	48474.84
578.56	48863.36
578.72	49020.18
578.88	49401.69
579.04	49265.94
579.21	48687.82
579.37	48891.45
579.53	48931.24
579.69	48481.86
579.85	48788.47
580.01	48528.67
580.17	48603.56
580.33	48861.02
580.49	48800.17
580.65	48956.99
580.82	48875.07
580.98	48802.51
581.14	48669.10
581.30	48814.21
581.46	48758.04
581.62	48669.10
581.78	48573.14
581.94	49006.14
582.10	48292.27
582.26	48956.99
582.42	48685.48
582.58	48797.83
582.74	48884.43
582.90	48900.81
583.06	48868.05
583.22	48598.88
583.38	48905.49
583.54	48999.12
583.70	48938.26
583.86	48507.60
584.02	48828.26
584.18	49151.25
584.34	48748.68
584.50	49242.53
584.66	48552.07
584.82	48664.42
584.98	48706.55
585.14	48814.21
585.30	48641.01
585.46	48774.42
585.62	48659.74
585.78	48781.45
585.94	48659.74
586.10	48964.01
586.26	48734.63
586.42	49263.60
586.58	49003.80
586.74	48971.03
586.90	48921.88
587.06	48596.54
587.22	48903.15
587.38	48825.92
587.54	49272.96
587.70	49247.21
587.86	49095.08
588.02	48879.75
588.18	49038.90
588.34	48914.86
588.49	48645.69
588.65	48758.04
588.81	48535.69
588.97	49174.66
589.13	48879.75
589.29	48484.20
589.45	48900.81
589.61	49146.57
589.77	49338.49
589.93	49151.25
590.08	49195.72
590.24	49104.44
590.40	48954.64
590.56	49027.20
590.72	49102.10
590.88	48933.58
591.04	48694.85
591.20	49254.23
591.35	49001.46
591.51	49626.38
591.67	49303.38
591.83	49254.23
591.99	49228.49
592.15	49071.67
592.31	49055.29
592.46	48999.12
592.62	48814.21
592.78	48758.04
592.94	49090.40
593.10	49081.03
593.26	49565.52
593.41	49350.20
593.57	49432.11
593.73	48875.07
593.89	49345.51
594.05	49013.16
594.20	48928.90
594.36	48858.68
594.52	49127.84
594.68	48877.41
594.84	48772.08
594.99	48975.71
595.15	48797.83
595.31	49427.43
595.47	48982.73
595.62	49326.79
595.78	49191.04
595.94	49282.32
596.10	49169.97
596.25	48917.20
596.41	48992.09
596.57	49095.08
596.73	48879.75
596.88	49022.52
597.04	49038.90
597.20	49174.66
597.36	49081.03
597.51	49237.85
597.67	48942.94
597.83	48949.96
597.99	49123.16
598.14	48746.34
598.30	49038.90
598.46	48809.53
598.61	48900.81
598.77	49074.01
598.93	49298.70
599.09	49141.89
599.24	49366.58
599.40	49329.13
599.56	49113.80
599.71	49097.42
599.87	49066.99
600.03	49357.22
600.18	49116.14
600.34	48940.60
600.50	48708.89
600.65	48989.75
600.81	49200.40
600.97	49223.81
601.12	49521.05
601.28	49296.36
601.44	49240.19
601.59	49069.33
601.75	48964.01
601.91	49088.06
602.06	48734.63
602.22	49069.33
602.37	48907.83
602.53	48765.06
602.69	49092.74
602.84	49031.88
603.00	49144.23
603.16	49181.68
603.31	49123.16
603.47	49041.24
603.62	48626.97
603.78	48851.66
603.94	48643.35
604.09	48959.33
604.25	49029.54
604.40	48823.58
604.56	49130.19
604.71	49022.52
604.87	48811.87
605.03	49368.92
605.18	48762.72
605.34	48877.41
605.49	48362.49
605.65	48982.73
605.80	48846.98
605.96	48713.57
606.12	48804.85
606.27	48940.60
606.43	48353.13
606.58	49038.90
606.74	48559.09
606.89	48605.91
607.05	48437.39
607.20	48645.69
607.36	48547.39
607.51	48832.94
607.67	48687.82
607.82	48266.53
607.98	48577.82
608.13	48318.02
608.29	48811.87
608.44	48362.49
608.60	48669.10
608.75	48956.99
608.91	48844.64
609.06	48671.44
609.22	48783.79
609.37	48299.30
609.53	48633.99
609.68	48570.80
609.84	48596.54
609.99	48760.38
610.15	48463.13
610.30	48987.41
610.46	48652.72
610.61	48947.62
610.76	48811.87
610.92	49317.43
611.07	49448.50
611.23	49020.18
611.38	48968.69
611.54	49141.89
611.69	48830.60
611.84	48734.63
612.00	48430.36
612.15	48093.33
612.31	48608.25
612.46	48512.28
612.62	48624.63
612.77	48664.42
612.92	48655.06
613.08	48360.15
613.23	48030.13
613.39	47863.96
613.54	48041.84
613.69	47983.32
613.85	47995.03
614.00	47842.89
614.15	48025.45
614.31	48240.78
614.46	48470.15
614.62	47910.77
614.77	47777.36
614.92	48385.89
615.08	48107.37
615.23	48039.50
615.38	47894.38
615.54	47569.05
615.69	47985.66
615.84	47264.78
616.00	47791.40
616.15	47767.99
616.30	47215.63
616.46	47681.39
616.61	47311.59
616.76	47880.34
616.92	47629.90
617.07	47379.46
617.22	47449.68
617.37	47400.53
617.53	47056.47
617.68	47501.17
617.83	47435.64
617.99	47100.94
618.14	47428.62
618.29	47421.59
618.45	47295.21
618.60	47384.15
618.75	47173.50
618.90	47636.92
619.06	47107.96
619.21	47150.09
619.36	46972.21
619.51	46897.31
619.67	46571.98
619.82	47042.43
619.97	46946.47
620.12	46731.14
620.28	47030.72
620.43	47302.23
620.58	47175.84
620.73	47239.03
620.89	47260.10
621.04	47349.04
621.19	47058.81
621.34	47056.47
621.49	46946.47
621.65	46138.98
621.80	46571.98
621.95	46623.47
622.10	46930.08
622.25	47098.60
622.41	47143.07
622.56	46520.49
622.71	46827.10
622.86	46810.71
623.01	46546.23
623.16	46684.33
623.32	46267.71
623.47	46204.52
623.62	46054.72
623.77	46267.71
623.92	46773.27
624.07	46574.32
624.23	46703.05
624.38	46019.61
624.53	46319.20
624.68	46756.88
624.83	46087.49
624.98	46532.19
625.13	46192.81
625.29	46389.42
625.44	46515.81
625.59	45579.59
625.74	45764.49
625.89	46239.62
626.04	45500.01
626.19	46050.04
626.34	46078.13
626.49	46066.42
626.65	46174.09
626.80	46059.40
626.95	46241.96
627.10	45654.49
627.25	45886.20
627.40	45647.47
627.55	45556.19
627.70	45408.73
627.85	45823.01
628.00	45738.75
628.15	45705.98
628.30	45385.33
628.45	45415.76
628.60	45116.17
628.76	45556.19
628.91	45350.22
629.06	45067.02
629.21	45340.86
629.36	45319.79
629.51	45034.25
629.66	45062.33
629.81	45043.61
629.96	45043.61
630.11	45148.93
630.26	45141.91
630.41	45216.81
630.56	45059.99
630.71	45212.13
630.86	44968.71
631.01	45366.60
631.16	44804.88
631.31	44814.24
631.46	44903.18
631.61	45158.30
631.76	44505.29
631.91	45088.08
632.06	45022.54
632.21	44641.04
632.36	44877.43
632.51	44392.94
632.66	44886.79
632.81	44692.53
632.96	44737.00
633.10	44694.87
633.25	44390.60
633.40	44772.11
633.55	44486.56
633.70	44509.97
633.85	44044.20
634.00	44325.07
634.15	44442.09
634.30	44327.41
634.45	44383.58
634.60	44484.22
634.75	44261.87
634.90	43990.37
635.05	44378.90
635.19	44315.70
635.34	44474.86
635.49	44421.03
635.64	43976.33
635.79	43995.05
635.94	43695.46
636.09	44093.35
636.24	43761.00
636.39	43875.68
636.53	43849.94
636.68	43482.47
636.83	43753.97
636.98	43922.49
637.13	43950.58
637.28	43810.15
637.43	44025.48
637.57	44130.80
637.72	43777.38
637.87	43723.55
638.02	43320.98
638.17	43548.01
638.32	43646.31
638.46	43550.35
638.61	43587.80
638.76	43346.72
638.91	43152.46
639.06	43643.97
639.20	43674.40
639.35	43571.41
639.50	43070.54
639.65	43571.41
639.80	43264.80
639.94	43388.85
640.09	43222.67
640.24	43372.47
640.39	42951.17
640.54	42848.19
640.68	43100.97
640.83	43049.47
640.98	43096.28
641.13	42424.55
641.27	43110.33
641.42	43285.87
641.57	42738.18
641.72	43166.50
641.86	42995.64
642.01	42660.94
642.16	43033.09
642.31	42476.04
642.45	42714.78
642.60	42529.87
642.75	42677.33
642.90	42773.29
643.04	42539.24
643.19	42560.30
643.34	42501.79
643.48	42359.02
643.63	42880.95
643.78	43063.52
643.93	43182.88
644.07	42852.87
644.22	42457.32
644.37	42476.04
644.51	42712.44
644.66	42146.03
644.81	42047.72
644.95	42457.32
645.10	42216.24
645.25	42220.92
645.39	42195.18
645.54	42394.12
645.69	42363.70
645.83	42216.24
645.98	42190.50
646.13	42590.73
646.27	42473.70
646.42	42206.88
646.57	42134.32
646.71	42272.42
646.86	42188.16
647.00	41708.35
647.15	41965.81
647.30	42089.85
647.44	42178.79
647.59	42031.34
647.74	41495.36
647.88	42073.47
648.03	41949.42
648.17	41926.02
648.32	42110.92
648.47	41642.81
648.61	41675.58
648.76	42249.01
648.90	41614.72
649.05	42136.66
649.20	41560.89
649.34	41294.07
649.49	41017.89
649.63	41287.05
649.78	41820.69
649.92	41385.35
650.07	41940.06
650.21	41287.05
650.36	41504.72
650.51	41326.84
650.65	41762.18
650.80	42031.34
650.94	41668.56
651.09	41036.61
651.23	41413.44
651.38	41144.28
651.52	40999.16
651.67	41111.51
651.81	41160.66
651.96	41186.41
652.10	40800.22
652.25	41165.34
652.39	41289.39
652.54	41518.76
652.68	41394.71
652.83	41036.61
652.97	41371.31
653.12	41041.29
653.26	41251.94
653.41	41036.61
653.55	40566.16
653.70	40706.60
653.84	40985.12
653.99	40842.35
654.13	40655.11
654.27	40271.26
654.42	41060.02
654.56	40849.37
654.71	40631.70
654.85	40685.53
655.00	40713.62
655.14	40584.89
655.29	40528.72
655.43	40652.76
655.57	40278.28
655.72	40233.81
655.86	39882.73
656.01	40060.61
656.15	39606.55
656.30	40369.56
656.44	40116.78
656.58	40027.84
656.73	39887.41
656.87	39824.22
657.01	40175.30
657.16	40414.03
657.30	40105.08
657.45	40044.23
657.59	40011.46
657.73	39533.99
657.88	39625.27
658.02	39887.41
658.16	39856.98
658.31	39414.62
658.45	39976.35
658.60	39168.87
658.74	39321.00
658.88	39566.76
659.03	39777.40
659.17	39550.37
659.31	39543.35
659.46	39587.82
659.60	39681.44
659.74	39503.56
659.89	39421.64
660.03	39599.52
660.17	38885.66
660.32	39033.11
660.46	39346.75
660.60	38962.90
660.74	38962.90
660.89	38899.70
661.03	38778.00
661.17	39115.03
661.32	38749.91
661.46	38962.90
661.60	38445.64
661.74	38719.48
661.89	38677.35
662.03	38731.18
662.17	38609.48
662.31	38150.73
662.46	38843.53
662.60	38389.47
662.74	37916.68
662.88	38422.23
663.03	38010.30
663.17	37844.12
663.31	37890.93
663.45	38134.35
663.60	38354.36
663.74	37977.53
663.88	37923.70
664.02	37951.79
664.17	38309.89
664.31	38127.33
664.45	38216.27
664.59	37984.55
664.73	37729.44
664.88	37776.25
665.02	37193.45
665.16	37284.73
665.30	37160.69
665.44	37556.24
665.59	37156.00
665.73	37118.56
665.87	36835.35
666.01	37605.39
666.15	36900.89
666.29	37219.20
666.44	37270.69
666.58	37242.60
666.72	37104.51
666.86	37050.68
667.00	36903.23
667.14	36861.10
667.28	36526.40
667.43	36847.05
667.57	36746.41
667.71	36591.94
667.85	36463.21
667.99	36500.65
668.13	36285.33
668.27	36149.57
668.41	36247.88
668.56	36261.92
668.70	36182.34
668.84	36460.87
668.98	36458.52
669.12	36430.44
669.26	36238.51
669.40	35772.75
669.54	36121.49
669.68	35934.24
669.82	35283.58
669.96	35550.40
670.10	35211.02
670.25	35849.99
670.39	35077.61
670.53	35276.55
670.67	35194.64
670.81	35159.53
670.95	35438.05
671.09	35299.96
671.23	35070.59
671.37	35604.23
671.51	35428.69
671.65	35082.29
671.79	34810.79
671.93	34773.34
672.07	35079.95
672.21	34417.58
672.35	34616.52
672.49	34436.30
672.63	34780.36
672.77	34508.86
672.91	34139.05
673.05	34443.32
673.19	34504.18
673.33	34555.67
673.47	34483.11
673.61	34335.66
673.75	34157.78
673.89	33635.84
674.03	34031.39
674.17	33656.90
674.31	33811.38
674.45	33481.36
674.59	33259.01
674.73	33759.89
674.87	33432.21
675.01	33027.30
675.15	33202.84
675.29	32678.56
675.43	33141.99
675.56	33371.36
675.70	33432.21
675.84	33326.89
675.98	32357.91
676.12	33017.94
676.26	33024.96
676.40	32849.42
676.54	32905.59
676.68	32772.18
676.82	32245.56
676.96	32385.99
677.10	31889.80
677.23	31819.58
677.37	31847.67
677.51	31405.31
677.65	31522.34
677.79	31718.94
677.93	31295.30
678.07	31246.15
678.21	31026.14
678.34	31557.44
678.48	31372.54
678.62	31026.14
678.76	31157.21
678.90	31091.68
679.04	30852.94
679.18	30677.40
679.31	30670.38
679.45	30253.76
679.59	30429.30
679.73	30260.79
679.87	29792.68
680.00	29736.51
680.14	30204.61
680.28	29989.28
680.42	30054.82
680.56	29937.79
680.70	29579.69
680.83	29682.67
680.97	30216.32
681.11	29940.13
681.25	29614.80
681.39	29446.28
681.52	29605.44
681.66	29144.35
681.80	28945.41
681.94	28978.17
682.07	29289.46
682.21	28613.05
682.35	28666.88
682.49	28828.38
682.62	28496.02
682.76	28187.07
682.90	28390.70
683.04	28355.59
683.17	28339.21
683.31	28285.37
683.45	28404.74
683.59	28360.27
683.72	28048.98
683.86	27953.02
684.00	28102.81
684.13	27611.30
684.27	27672.15
684.41	27424.06
684.55	27229.79
684.68	27159.58
684.82	27049.57
684.96	26742.96
685.09	27115.11
685.23	27136.17
685.37	27061.27
685.50	26562.74
685.64	26714.87
685.78	26799.13
685.91	26696.15
686.05	27000.42
686.19	26588.49
686.32	26494.86
686.46	25809.09
686.60	25579.71
686.73	25759.94
686.87	25996.33
687.01	25577.37
687.14	25696.74
687.28	25572.69
687.42	25556.31
687.55	25340.98
687.69	25570.35
687.82	25401.83
687.96	25369.07
688.10	25357.36
688.23	25193.53
688.37	25366.73
688.50	25195.87
688.64	25017.99
688.78	25083.52
688.91	24910.32
689.05	24540.52
689.18	24634.14
689.32	23880.49
689.46	24004.53
689.59	24479.66
689.73	24116.88
689.86	23901.55
690.00	23924.96
690.13	24072.41
690.27	23723.67
690.41	23857.08
690.54	23456.85
690.68	23325.78
690.81	23594.94
690.95	23510.68
691.08	23562.17
691.22	23391.31
691.35	23459.19
691.49	23241.52
691.62	23058.96
691.76	22820.22
691.89	22679.79
692.03	22422.33
692.16	22448.08
692.30	22305.31
692.43	22047.85
692.57	22366.16
692.70	22057.21
692.84	22520.63
692.97	21907.41
693.11	22272.54
693.24	22101.68
693.38	22050.19
693.51	21649.96
693.65	21839.54
693.78	21799.75
693.92	21413.56
694.05	21301.22
694.19	21216.96
694.32	21511.86
694.45	20996.95
694.59	21106.95
694.72	21083.55
694.86	20896.30
694.99	20751.19
695.13	20711.40
695.26	20627.14
695.39	20638.84
695.53	20533.52
695.66	20872.90
695.80	20383.73
695.93	20383.73
696.07	20084.14
696.20	20276.06
696.33	20184.78
696.47	20198.82
696.60	20215.21
696.73	19747.10
696.87	19887.53
697.00	19719.01
697.14	19227.50
697.27	19091.75
697.40	19232.18
697.54	18876.42
697.67	19023.87
697.80	19300.06
697.94	19002.81
698.07	18848.33
698.21	18920.89
698.34	18815.57
698.47	19110.47
698.61	18731.31
698.74	18726.63
698.87	18485.55
699.01	18710.24
699.14	18452.78
699.27	18237.45
699.40	18167.24
699.54	17968.29
699.67	18078.30
699.80	17984.68
699.94	17469.76
700.07	17769.35
700.20	17589.13
700.34	17310.60
700.47	17490.82
700.60	17383.16
700.73	17493.16
700.87	17163.15
701.00	17397.20
701.13	17273.15
701.26	17128.04
701.40	17076.55
701.53	17008.67
701.66	17008.67
701.79	17006.33
701.93	16704.40
702.06	16716.11
702.19	16622.48
702.32	16437.58
702.46	16519.50
702.59	16320.56
702.72	15981.18
702.85	16205.87
702.99	16208.21
703.12	16334.60
703.25	16109.91
703.38	16030.33
703.51	15964.79
703.65	16140.33
703.78	15709.68
703.91	15737.76
704.04	15697.97
704.17	15459.24
704.31	15880.53
704.44	15255.61
704.57	15606.69
704.70	15089.43
704.83	15239.23
704.96	14941.98
705.10	15068.37
705.23	15014.54
>>>>>End Processed Spectral Data<<<<<
