SpectraSuite Data File
++++++++++++++++++++++++++++++++++++
Date: Fri Oct 04 11:39:50 GMT-05:00 2013
User: price-jones
Dark Spectrum Present: No
Reference Spectrum Present: No
Number of Sampled Component Spectra: 1
Spectrometers: USB2+H05261
Integration Time (usec): 100000 (USB2+H05261)
Spectra Averaged: 1 (USB2+H05261)
Boxcar Smoothing: 0 (USB2+H05261)
Correct for Electrical Dark: No (USB2+H05261)
Strobe/Lamp Enabled: No (USB2+H05261)
Correct for Detector Non-linearity: No (USB2+H05261)
Correct for Stray Light: No (USB2+H05261)
Number of Pixels in Processed Spectrum: 2048
>>>>>Begin Processed Spectral Data<<<<<
365.73	86.60
365.92	86.60
366.12	86.60
366.32	0.00
366.52	0.00
366.72	0.00
366.91	0.00
367.11	0.00
367.31	0.00
367.51	0.00
367.70	0.00
367.90	32.77
368.10	0.00
368.30	0.00
368.49	0.00
368.69	0.00
368.89	0.00
369.09	0.00
369.28	0.00
369.48	0.00
369.68	0.00
369.87	14.04
370.07	0.00
370.27	18.72
370.47	28.09
370.66	14.04
370.86	79.58
371.06	110.01
371.25	135.75
371.45	49.15
371.65	105.32
371.84	58.51
372.04	86.60
372.24	30.43
372.44	189.58
372.63	65.54
372.83	124.05
373.03	72.56
373.22	79.58
373.42	145.11
373.62	131.07
373.81	131.07
374.01	152.13
374.21	212.99
374.40	95.96
374.60	191.92
374.79	119.37
374.99	154.48
375.19	138.09
375.38	117.03
375.58	112.35
375.78	156.82
375.97	198.95
376.17	177.88
376.37	177.88
376.56	93.62
376.76	140.43
376.95	35.11
377.15	159.16
377.35	110.01
377.54	88.94
377.74	145.11
377.93	88.94
378.13	114.69
378.33	173.20
378.52	107.66
378.72	184.90
378.91	88.94
379.11	102.98
379.31	79.58
379.50	133.41
379.70	177.88
379.89	119.37
380.09	84.26
380.28	63.19
380.48	114.69
380.68	131.07
380.87	102.98
381.07	191.92
381.26	124.05
381.46	126.39
381.65	145.11
381.85	81.92
382.04	70.22
382.24	95.96
382.43	138.09
382.63	0.00
382.83	114.69
383.02	138.09
383.22	131.07
383.41	100.64
383.61	72.56
383.80	98.30
384.00	112.35
384.19	152.13
384.39	88.94
384.58	77.24
384.78	163.84
384.97	173.20
385.17	170.86
385.36	161.50
385.56	93.62
385.75	161.50
385.95	79.58
386.14	156.82
386.34	63.19
386.53	126.39
386.72	177.88
386.92	201.29
387.11	142.77
387.31	175.54
387.50	70.22
387.70	107.66
387.89	93.62
388.09	124.05
388.28	84.26
388.48	98.30
388.67	88.94
388.86	77.24
389.06	128.73
389.25	105.32
389.45	110.01
389.64	107.66
389.84	180.22
390.03	70.22
390.22	189.58
390.42	159.16
390.61	65.54
390.81	173.20
391.00	184.90
391.19	163.84
391.39	124.05
391.58	161.50
391.78	163.84
391.97	140.43
392.16	93.62
392.36	170.86
392.55	175.54
392.75	138.09
392.94	114.69
393.13	177.88
393.33	88.94
393.52	149.79
393.71	119.37
393.91	159.16
394.10	161.50
394.29	117.03
394.49	93.62
394.68	145.11
394.88	140.43
395.07	156.82
395.26	177.88
395.46	156.82
395.65	175.54
395.84	84.26
396.04	250.44
396.23	131.07
396.42	177.88
396.62	187.24
396.81	161.50
397.00	110.01
397.19	177.88
397.39	135.75
397.58	121.71
397.77	110.01
397.97	159.16
398.16	177.88
398.35	203.63
398.55	182.56
398.74	166.18
398.93	229.37
399.12	163.84
399.32	184.90
399.51	196.60
399.70	154.48
399.90	170.86
400.09	149.79
400.28	184.90
400.47	196.60
400.67	201.29
400.86	102.98
401.05	30.43
401.24	128.73
401.44	142.77
401.63	140.43
401.82	278.52
402.01	227.03
402.21	201.29
402.40	184.90
402.59	119.37
402.78	100.64
402.97	110.01
403.17	231.71
403.36	159.16
403.55	175.54
403.74	203.63
403.93	205.97
404.13	241.08
404.32	166.18
404.51	203.63
404.70	208.31
404.89	231.71
405.09	198.95
405.28	124.05
405.47	110.01
405.66	203.63
405.85	191.92
406.05	152.13
406.24	208.31
406.43	194.26
406.62	271.50
406.81	264.48
407.00	255.12
407.20	215.33
407.39	283.20
407.58	262.14
407.77	245.76
407.96	217.67
408.15	234.05
408.34	212.99
408.54	175.54
408.73	304.27
408.92	236.39
409.11	245.76
409.30	262.14
409.49	184.90
409.68	182.56
409.87	203.63
410.07	229.37
410.26	266.82
410.45	189.58
410.64	252.78
410.83	320.65
411.02	276.18
411.21	280.86
411.40	264.48
411.59	215.33
411.78	278.52
411.98	236.39
412.17	191.92
412.36	180.22
412.55	257.46
412.74	245.76
412.93	262.14
413.12	205.97
413.31	313.63
413.50	269.16
413.69	231.71
413.88	313.63
414.07	259.80
414.26	285.55
414.45	252.78
414.64	227.03
414.83	313.63
415.02	308.95
415.22	355.76
415.41	257.46
415.60	269.16
415.79	299.59
415.98	273.84
416.17	259.80
416.36	278.52
416.55	278.52
416.74	306.61
416.93	365.12
417.12	236.39
417.31	236.39
417.50	301.93
417.69	339.38
417.88	273.84
418.07	355.76
418.26	294.91
418.45	285.55
418.64	337.04
418.83	266.82
419.02	308.95
419.21	276.18
419.39	290.23
419.58	285.55
419.77	358.10
419.96	376.83
420.15	372.15
420.34	369.80
420.53	318.31
420.72	297.25
420.91	360.44
421.10	280.86
421.29	308.95
421.48	330.02
421.67	393.21
421.86	294.91
422.05	306.61
422.24	301.93
422.43	348.74
422.61	297.25
422.80	280.86
422.99	351.08
423.18	325.33
423.37	372.15
423.56	315.97
423.75	353.42
423.94	318.31
424.13	318.31
424.32	351.08
424.50	365.12
424.69	393.21
424.88	369.80
425.07	301.93
425.26	285.55
425.45	353.42
425.64	322.99
425.83	276.18
426.01	369.80
426.20	365.12
426.39	315.97
426.58	334.70
426.77	456.40
426.96	437.68
427.15	325.33
427.33	301.93
427.52	337.04
427.71	402.57
427.90	365.12
428.09	348.74
428.28	346.40
428.46	346.40
428.65	367.46
428.84	362.78
429.03	397.89
429.22	456.40
429.40	313.63
429.59	367.46
429.78	414.27
429.97	404.91
430.16	346.40
430.34	360.44
430.53	409.59
430.72	402.57
430.91	484.49
431.10	360.44
431.28	362.78
431.47	362.78
431.66	404.91
431.85	383.85
432.03	409.59
432.22	486.83
432.41	351.08
432.60	374.49
432.79	388.53
432.97	444.70
433.16	442.36
433.35	273.84
433.54	409.59
433.72	418.96
433.91	386.19
434.10	400.23
434.28	383.85
434.47	449.38
434.66	437.68
434.85	400.23
435.03	458.74
435.22	620.24
435.41	781.74
435.59	709.18
435.78	599.18
435.97	472.79
436.16	491.51
436.34	482.15
436.53	444.70
436.72	528.96
436.90	505.56
437.09	425.98
437.28	425.98
437.46	397.89
437.65	409.59
437.84	411.93
438.02	388.53
438.21	440.02
438.40	442.36
438.58	430.66
438.77	482.15
438.96	451.72
439.14	416.62
439.33	461.09
439.52	507.90
439.70	496.19
439.89	440.02
440.08	472.79
440.26	465.77
440.45	465.77
440.63	514.92
440.82	514.92
441.01	482.15
441.19	491.51
441.38	479.81
441.57	528.96
441.75	428.32
441.94	543.00
442.12	484.49
442.31	472.79
442.50	510.24
442.68	458.74
442.87	503.22
443.05	440.02
443.24	592.16
443.43	491.51
443.61	472.79
443.80	528.96
443.98	465.77
444.17	449.38
444.35	517.26
444.54	496.19
444.73	547.69
444.91	498.53
445.10	470.45
445.28	514.92
445.47	531.30
445.65	547.69
445.84	496.19
446.02	493.85
446.21	493.85
446.39	582.79
446.58	505.56
446.77	505.56
446.95	568.75
447.14	521.94
447.32	545.34
447.51	533.64
447.69	547.69
447.88	498.53
448.06	543.00
448.25	575.77
448.43	440.02
448.62	482.15
448.80	470.45
448.99	521.94
449.17	454.06
449.36	475.13
449.54	641.31
449.73	545.34
449.91	615.56
450.10	554.71
450.28	601.52
450.46	571.09
450.65	512.58
450.83	638.97
451.02	543.00
451.20	557.05
451.39	552.37
451.57	557.05
451.76	557.05
451.94	636.63
452.13	634.29
452.31	594.50
452.49	615.56
452.68	564.07
452.86	585.13
453.05	634.29
453.23	510.24
453.42	547.69
453.60	540.66
453.78	603.86
453.97	531.30
454.15	528.96
454.34	545.34
454.52	627.26
454.70	603.86
454.89	613.22
455.07	543.00
455.26	568.75
455.44	599.18
455.62	587.47
455.81	671.73
455.99	557.05
456.17	552.37
456.36	641.31
456.54	578.11
456.73	538.32
456.91	578.11
457.09	641.31
457.28	596.84
457.46	648.33
457.64	620.24
457.83	571.09
458.01	636.63
458.19	585.13
458.38	657.69
458.56	550.03
458.74	447.04
458.93	713.86
459.11	608.54
459.29	688.12
459.48	641.31
459.66	622.58
459.84	608.54
460.03	610.88
460.21	592.16
460.39	631.94
460.57	674.07
460.76	631.94
460.94	709.18
461.12	589.82
461.31	678.76
461.49	575.77
461.67	617.90
461.85	648.33
462.04	681.10
462.22	1001.75
462.40	688.12
462.59	758.33
462.77	671.73
462.95	622.58
463.13	653.01
463.32	622.58
463.50	662.37
463.68	697.48
463.86	678.76
464.05	690.46
464.23	685.78
464.41	629.60
464.59	681.10
464.78	615.56
464.96	648.33
465.14	671.73
465.32	674.07
465.50	723.23
465.69	713.86
465.87	716.20
466.05	720.88
466.23	648.33
466.41	760.67
466.60	725.57
466.78	685.78
466.96	629.60
467.14	620.24
467.32	760.67
467.51	713.86
467.69	657.69
467.87	671.73
468.05	685.78
468.23	730.25
468.41	702.16
468.60	741.95
468.78	601.52
468.96	699.82
469.14	746.63
469.32	631.94
469.50	718.54
469.69	692.80
469.87	676.41
470.05	737.27
470.23	737.27
470.41	648.33
470.59	777.06
470.77	718.54
470.95	662.37
471.14	781.74
471.32	723.23
471.50	713.86
471.68	739.61
471.86	730.25
472.04	720.88
472.22	774.72
472.40	746.63
472.58	788.76
472.77	755.99
472.95	793.44
473.13	765.36
473.31	791.10
473.49	816.85
473.67	751.31
473.85	781.74
474.03	732.59
474.21	692.80
474.39	840.25
474.57	844.93
474.75	793.44
474.93	884.72
475.12	767.70
475.30	746.63
475.48	816.85
475.66	840.25
475.84	777.06
476.02	807.48
476.20	774.72
476.38	772.38
476.56	863.66
476.74	814.51
476.92	908.13
477.10	788.76
477.28	849.61
477.46	826.21
477.64	917.49
477.82	861.32
478.00	861.32
478.18	856.64
478.36	959.62
478.54	954.94
478.72	826.21
478.90	858.98
479.08	894.08
479.26	971.32
479.44	945.58
479.62	957.28
479.80	851.96
479.98	889.40
480.16	1006.43
480.34	917.49
480.52	978.34
480.70	1011.11
480.88	910.47
481.06	922.17
481.24	905.79
481.41	950.26
481.59	1018.13
481.77	1015.79
481.95	990.05
482.13	1004.09
482.31	1029.84
482.49	959.62
482.67	997.07
482.85	968.98
483.03	1071.97
483.21	1027.50
483.39	1050.90
483.57	1027.50
483.74	1074.31
483.92	999.41
484.10	961.96
484.28	1088.35
484.46	1179.63
484.64	1109.41
484.82	1062.60
485.00	1083.67
485.18	1139.84
485.35	1172.61
485.53	1104.73
485.71	1167.93
485.89	1123.46
486.07	1170.27
486.25	1200.69
486.43	1231.12
486.61	1238.14
486.78	1179.63
486.96	1167.93
487.14	1207.72
487.32	1186.65
487.50	1217.08
487.68	1263.89
487.85	1111.75
488.03	1306.02
488.21	1406.66
488.39	1277.93
488.57	1308.36
488.75	1219.42
488.92	1497.94
489.10	1366.87
489.28	1301.34
489.46	1263.89
489.64	1299.00
489.81	1352.83
489.99	1366.87
490.17	1306.02
490.35	1451.13
490.53	1420.71
490.70	1427.73
490.88	1303.68
491.06	1390.28
491.24	1413.68
491.41	1458.15
491.59	1453.47
491.77	1364.53
491.95	1451.13
492.13	1390.28
492.30	1409.00
492.48	1364.53
492.66	1472.20
492.84	1423.05
493.01	1446.45
493.19	1490.92
493.37	1554.12
493.54	1427.73
493.72	1453.47
493.90	1446.45
494.08	1451.13
494.25	1542.41
494.43	1441.77
494.61	1558.80
494.79	1563.48
494.96	1458.15
495.14	1605.61
495.32	1565.82
495.49	1575.18
495.67	1631.35
495.85	1558.80
496.02	1561.14
496.20	1607.95
496.38	1610.29
496.55	1540.07
496.73	1568.16
496.91	1605.61
497.09	1544.75
497.26	1600.93
497.44	1699.23
497.62	1610.29
497.79	1636.03
497.97	1701.57
498.14	1682.85
498.32	1612.63
498.50	1694.55
498.67	1647.74
498.85	1720.29
499.03	1591.56
499.20	1827.96
499.38	1804.55
499.56	1720.29
499.73	1675.82
499.91	1703.91
500.08	1776.47
500.26	1689.87
500.44	1645.40
500.61	1717.95
500.79	1675.82
500.97	1799.87
501.14	1792.85
501.32	1710.93
501.49	1739.02
501.67	1713.27
501.84	1785.83
502.02	1717.95
502.20	1860.73
502.37	1825.62
502.55	1788.17
502.72	1916.90
502.90	1832.64
503.07	1795.19
503.25	1792.85
503.43	1799.87
503.60	1823.28
503.78	1748.38
503.95	1865.41
504.13	1762.42
504.30	1825.62
504.48	1954.35
504.65	1928.60
504.83	1912.22
505.01	1830.30
505.18	1842.00
505.36	1856.04
505.53	1919.24
505.71	1853.70
505.88	1879.45
506.06	1802.21
506.23	1827.96
506.41	1872.43
506.58	1881.79
506.76	1893.49
506.93	1863.07
507.11	1940.30
507.28	1846.68
507.46	1919.24
507.63	1937.96
507.81	1856.04
507.98	1919.24
508.16	1863.07
508.33	1949.67
508.50	2017.54
508.68	1891.15
508.85	1902.86
509.03	1825.62
509.20	1968.39
509.38	1975.41
509.55	1933.28
509.73	1994.14
509.90	2172.02
510.08	2094.78
510.25	1982.43
510.42	2062.01
510.60	2111.16
510.77	2108.82
510.95	1977.75
511.12	2001.16
511.30	2038.61
511.47	1947.33
511.64	2036.27
511.82	2125.21
511.99	2031.58
512.17	2010.52
512.34	2094.78
512.51	2092.44
512.69	2057.33
512.86	2033.93
513.04	2150.95
513.21	2078.40
513.38	2059.67
513.56	2153.29
513.73	2169.68
513.90	2090.10
514.08	2129.89
514.25	2071.37
514.43	2080.74
514.60	2094.78
514.77	2052.65
514.95	2136.91
515.12	2174.36
515.29	2157.97
515.47	2186.06
515.64	2125.21
515.81	2076.06
515.99	2111.16
516.16	2265.64
516.33	2232.87
516.51	2190.74
516.68	2076.06
516.85	2118.18
517.03	2169.68
517.20	2230.53
517.37	2270.32
517.54	2186.06
517.72	2090.10
517.89	2317.13
518.06	2218.83
518.24	2232.87
518.41	2230.53
518.58	2256.28
518.75	2204.78
518.93	2221.17
519.10	2270.32
519.27	2228.19
519.45	2335.85
519.62	2200.10
519.79	2258.62
519.96	2172.02
520.14	2195.42
520.31	2282.02
520.48	2331.17
520.65	2230.53
520.83	2333.51
521.00	2204.78
521.17	2326.49
521.34	2319.47
521.52	2373.30
521.69	2310.11
521.86	2209.47
522.03	2340.54
522.20	2314.79
522.38	2429.48
522.55	2324.15
522.72	2375.64
522.89	2399.05
523.07	2415.43
523.24	2450.54
523.41	2312.45
523.58	2466.92
523.75	2291.38
523.92	2401.39
524.10	2380.32
524.27	2434.16
524.44	2401.39
524.61	2361.60
524.78	2277.34
524.96	2450.54
525.13	2466.92
525.30	2511.39
525.47	2448.20
525.64	2464.58
525.81	2361.60
525.98	2532.46
526.16	2431.82
526.33	2363.94
526.50	2396.71
526.67	2424.80
526.84	2361.60
527.01	2221.17
527.18	2459.90
527.36	2356.92
527.53	2438.84
527.70	2548.84
527.87	2436.50
528.04	2548.84
528.21	2415.43
528.38	2502.03
528.55	2572.25
528.72	2431.82
528.89	2532.46
529.07	2438.84
529.24	2558.21
529.41	2562.89
529.58	2478.63
529.75	2469.27
529.92	2469.27
530.09	2480.97
530.26	2574.59
530.43	2485.65
530.60	2532.46
530.77	2518.42
530.94	2567.57
531.11	2619.06
531.28	2427.14
531.46	2459.90
531.63	2485.65
531.80	2551.18
531.97	2497.35
532.14	2541.82
532.31	2623.74
532.48	2569.91
532.65	2633.10
532.82	2497.35
532.99	2562.89
533.16	2511.39
533.33	2640.12
533.50	2661.19
533.67	2633.10
533.84	2581.61
534.01	2588.63
534.18	2586.29
534.35	2607.36
534.52	2520.76
534.69	2682.25
534.86	2649.49
535.03	2567.57
535.20	2722.04
535.37	2602.68
535.54	2691.62
535.71	2504.37
535.88	2647.15
536.05	2691.62
536.22	2581.61
536.38	2656.51
536.55	2588.63
536.72	2630.76
536.89	2658.85
537.06	2726.72
537.23	2628.42
537.40	2752.47
537.57	2715.02
537.74	2729.06
537.91	2799.28
538.08	2773.53
538.25	2637.78
538.42	2768.85
538.59	2628.42
538.75	2612.04
538.92	2768.85
539.09	2815.66
539.26	2754.81
539.43	2801.62
539.60	2712.68
539.77	2722.04
539.94	2787.58
540.11	2862.48
540.28	2789.92
540.44	2890.56
540.61	2780.56
540.78	2815.66
540.95	2906.95
541.12	2991.20
541.29	2911.63
541.46	3077.80
541.62	3005.25
541.79	3066.10
541.96	3007.59
542.13	2918.65
542.30	3023.97
542.47	3063.76
542.63	2965.46
542.80	3019.29
542.97	2946.73
543.14	3073.12
543.31	2986.52
543.48	2892.90
543.64	2925.67
543.81	2998.23
543.98	3028.65
544.15	2986.52
544.32	2890.56
544.48	2970.14
544.65	2932.69
544.82	2895.24
544.99	3021.63
545.16	3052.06
545.32	3108.23
545.49	3281.43
545.66	3592.72
545.83	3665.28
546.00	3449.95
546.16	3274.41
546.33	3075.46
546.50	2979.50
546.67	3082.49
546.83	2995.89
547.00	2986.52
547.17	3082.49
547.34	2965.46
547.50	2892.90
547.67	2899.92
547.84	2906.95
548.00	2949.08
548.17	2972.48
548.34	3040.36
548.51	3033.33
548.67	2970.14
548.84	2960.78
549.01	2963.12
549.18	2869.50
549.34	3009.93
549.51	2895.24
549.68	2850.77
549.84	3014.61
550.01	2829.71
550.18	2864.82
550.34	3052.06
550.51	2895.24
550.68	3007.59
550.84	2883.54
551.01	2892.90
551.18	2855.45
551.34	2862.48
551.51	2825.03
551.68	2848.43
551.84	2888.22
552.01	2836.73
552.18	2796.94
552.34	2801.62
552.51	2855.45
552.68	2834.39
552.84	2818.00
553.01	2916.31
553.18	2960.78
553.34	2799.28
553.51	2822.69
553.67	2881.20
553.84	2942.05
554.01	2874.18
554.17	2904.60
554.34	2860.13
554.51	2792.26
554.67	2923.33
554.84	2909.29
555.00	2878.86
555.17	2815.66
555.33	2836.73
555.50	2850.77
555.67	2862.48
555.83	2892.90
556.00	2876.52
556.16	3035.67
556.33	2857.79
556.50	2878.86
556.66	2862.48
556.83	2888.22
556.99	2733.75
557.16	2916.31
557.32	2930.35
557.49	2822.69
557.65	2829.71
557.82	2829.71
557.98	2937.37
558.15	2942.05
558.32	2820.35
558.48	2904.60
558.65	2780.56
558.81	2958.44
558.98	2918.65
559.14	2888.22
559.31	2818.00
559.47	2869.50
559.64	2932.69
559.80	2839.07
559.97	2813.32
560.13	2881.20
560.30	2724.38
560.46	2970.14
560.63	2864.82
560.79	2916.31
560.96	2909.29
561.12	2888.22
561.29	2747.79
561.45	2902.26
561.61	2836.73
561.78	2885.88
561.94	2848.43
562.11	2911.63
562.27	2930.35
562.44	2832.05
562.60	2897.58
562.77	2885.88
562.93	2860.13
563.10	2944.39
563.26	2818.00
563.42	2902.26
563.59	2869.50
563.75	2878.86
563.92	2967.80
564.08	2703.32
564.24	2899.92
564.41	2855.45
564.57	2843.75
564.74	2913.97
564.90	2867.16
565.07	2984.18
565.23	2981.84
565.39	2881.20
565.56	2995.89
565.72	2913.97
565.88	3066.10
566.05	2911.63
566.21	2848.43
566.38	2911.63
566.54	2953.76
566.70	2993.55
566.87	2979.50
567.03	2960.78
567.19	2984.18
567.36	2939.71
567.52	2869.50
567.68	2869.50
567.85	2937.37
568.01	2916.31
568.17	2862.48
568.34	2881.20
568.50	3026.31
568.66	3026.31
568.83	2951.42
568.99	2843.75
569.15	2876.52
569.32	2867.16
569.48	2935.03
569.64	2724.38
569.81	2935.03
569.97	2972.48
570.13	2862.48
570.30	3035.67
570.46	2909.29
570.62	2855.45
570.78	2860.13
570.95	2815.66
571.11	2970.14
571.27	2902.26
571.43	2892.90
571.60	2850.77
571.76	2881.20
571.92	2836.73
572.09	2848.43
572.25	3000.57
572.41	2963.12
572.57	2888.22
572.74	2974.82
572.90	2923.33
573.06	2951.42
573.22	2970.14
573.38	3087.17
573.55	2946.73
573.71	2944.39
573.87	2965.46
574.03	2899.92
574.20	2867.16
574.36	2967.80
574.52	2897.58
574.68	2911.63
574.84	2888.22
575.01	2818.00
575.17	2818.00
575.33	2871.84
575.49	2904.60
575.65	2857.79
575.82	2923.33
575.98	3077.80
576.14	2991.20
576.30	2986.52
576.46	2918.65
576.62	3112.91
576.79	3035.67
576.95	3021.63
577.11	2878.86
577.27	2932.69
577.43	3014.61
577.59	2960.78
577.75	2956.10
577.92	2885.88
578.08	2874.18
578.24	2885.88
578.40	3019.29
578.56	3054.40
578.72	3112.91
578.88	3101.21
579.04	3063.76
579.21	3063.76
579.37	2930.35
579.53	2909.29
579.69	3009.93
579.85	2960.78
580.01	3073.12
580.17	3103.55
580.33	2979.50
580.49	2925.67
580.65	2909.29
580.82	2986.52
580.98	2972.48
581.14	2986.52
581.30	2981.84
581.46	2995.89
581.62	3019.29
581.78	2906.95
581.94	2991.20
582.10	2878.86
582.26	3030.99
582.42	2862.48
582.58	2874.18
582.74	2867.16
582.90	2974.82
583.06	3115.25
583.22	2867.16
583.38	3016.95
583.54	2930.35
583.70	2967.80
583.86	2853.11
584.02	2981.84
584.18	2998.23
584.34	3084.83
584.50	3023.97
584.66	2923.33
584.82	2928.01
584.98	2904.60
585.14	2897.58
585.30	2930.35
585.46	2895.24
585.62	2930.35
585.78	3019.29
585.94	2946.73
586.10	2998.23
586.26	3016.95
586.42	3016.95
586.58	3169.09
586.74	3040.36
586.90	3082.49
587.06	2995.89
587.22	3061.42
587.38	2904.60
587.54	2944.39
587.70	3026.31
587.86	2862.48
588.02	2876.52
588.18	2909.29
588.34	2867.16
588.49	2958.44
588.65	2972.48
588.81	2995.89
588.97	2839.07
589.13	2841.41
589.29	2942.05
589.45	3000.57
589.61	3070.78
589.77	3033.33
589.93	3089.51
590.08	2925.67
590.24	2949.08
590.40	2974.82
590.56	3056.74
590.72	2993.55
590.88	2984.18
591.04	2885.88
591.20	2906.95
591.35	2988.86
591.51	2930.35
591.67	3164.40
591.83	2965.46
591.99	3016.95
592.15	3054.40
592.31	2993.55
592.46	2881.20
592.62	2995.89
592.78	2960.78
592.94	2986.52
593.10	3136.32
593.26	2949.08
593.41	3009.93
593.57	3080.14
593.73	2970.14
593.89	2960.78
594.05	2930.35
594.20	2850.77
594.36	3028.65
594.52	2932.69
594.68	3016.95
594.84	2906.95
594.99	2925.67
595.15	2923.33
595.31	2970.14
595.47	3066.10
595.62	2892.90
595.78	2977.16
595.94	2977.16
596.10	3042.70
596.25	2881.20
596.41	2871.84
596.57	2878.86
596.73	2878.86
596.88	2951.42
597.04	3016.95
597.20	2920.99
597.36	3026.31
597.51	2897.58
597.67	2902.26
597.83	2904.60
597.99	2984.18
598.14	3035.67
598.30	2942.05
598.46	2913.97
598.61	3005.25
598.77	2925.67
598.93	3012.27
599.09	2937.37
599.24	3087.17
599.40	2970.14
599.56	3033.33
599.71	3070.78
599.87	3023.97
600.03	2832.05
600.18	2853.11
600.34	2960.78
600.50	2953.76
600.65	2965.46
600.81	3049.72
600.97	3063.76
601.12	2897.58
601.28	2909.29
601.44	3023.97
601.59	2949.08
601.75	3038.02
601.91	2841.41
602.06	2883.54
602.22	3101.21
602.37	2834.39
602.53	2963.12
602.69	2937.37
602.84	2951.42
603.00	3033.33
603.16	3049.72
603.31	3061.42
603.47	2946.73
603.62	2939.71
603.78	2883.54
603.94	2951.42
604.09	3028.65
604.25	2977.16
604.40	3009.93
604.56	2857.79
604.71	2909.29
604.87	2925.67
605.03	2916.31
605.18	2874.18
605.34	2986.52
605.49	2930.35
605.65	2928.01
605.80	2855.45
605.96	2944.39
606.12	2963.12
606.27	2958.44
606.43	3000.57
606.58	2899.92
606.74	2965.46
606.89	2871.84
607.05	2796.94
607.20	2892.90
607.36	2972.48
607.51	2808.64
607.67	2906.95
607.82	2871.84
607.98	3009.93
608.13	3129.30
608.29	2928.01
608.44	3019.29
608.60	2974.82
608.75	2993.55
608.91	2939.71
609.06	2937.37
609.22	2998.23
609.37	3070.78
609.53	2967.80
609.68	2836.73
609.84	2998.23
609.99	2967.80
610.15	3218.24
610.30	3169.09
610.46	3243.98
610.61	3449.95
610.76	3396.12
610.92	3555.27
611.07	3627.83
611.23	3676.98
611.38	3747.20
611.54	3482.72
611.69	3529.53
611.84	3304.84
612.00	3243.98
612.15	3190.15
612.31	3171.43
612.46	3164.40
612.62	3084.83
612.77	3030.99
612.92	3112.91
613.08	3038.02
613.23	2979.50
613.39	2981.84
613.54	3000.57
613.69	3026.31
613.85	2977.16
614.00	3009.93
614.15	3056.74
614.31	2977.16
614.46	3059.08
614.62	3066.10
614.77	3073.12
614.92	2946.73
615.08	2918.65
615.23	2965.46
615.38	2909.29
615.54	2942.05
615.69	2972.48
615.84	2771.19
616.00	2869.50
616.15	2855.45
616.30	2806.30
616.46	2960.78
616.61	2799.28
616.76	2869.50
616.92	2869.50
617.07	2761.83
617.22	2771.19
617.37	2799.28
617.53	2818.00
617.68	2768.85
617.83	2839.07
617.99	2789.92
618.14	2803.96
618.29	2822.69
618.45	2780.56
618.60	2780.56
618.75	2820.35
618.90	2764.17
619.06	2867.16
619.21	2881.20
619.36	2869.50
619.51	2818.00
619.67	2740.77
619.82	2782.90
619.97	2808.64
620.12	2759.49
620.28	2717.36
620.43	2818.00
620.58	2818.00
620.73	2829.71
620.89	2874.18
621.04	2803.96
621.19	2825.03
621.34	2679.91
621.49	2712.68
621.65	2644.81
621.80	2794.60
621.95	2759.49
622.10	2747.79
622.25	2677.57
622.41	2789.92
622.56	2750.13
622.71	2855.45
622.86	2785.24
623.01	2810.98
623.16	2740.77
623.32	2696.30
623.47	2693.96
623.62	2757.15
623.77	2799.28
623.92	2818.00
624.07	2738.43
624.23	2731.41
624.38	2780.56
624.53	2813.32
624.68	2825.03
624.83	2892.90
624.98	2850.77
625.13	2771.19
625.29	2705.66
625.44	2796.94
625.59	2675.23
625.74	2743.11
625.89	2862.48
626.04	2799.28
626.19	2738.43
626.34	2656.51
626.49	2691.62
626.65	2665.87
626.80	2766.51
626.95	2738.43
627.10	2808.64
627.25	2722.04
627.40	2789.92
627.55	2686.94
627.70	2619.06
627.85	2771.19
628.00	2757.15
628.15	2754.81
628.30	2731.41
628.45	2532.46
628.60	2668.21
628.76	2612.04
628.91	2691.62
629.06	2843.75
629.21	2668.21
629.36	2752.47
629.51	2628.42
629.66	2597.99
629.81	2738.43
629.96	2679.91
630.11	2686.94
630.26	2689.28
630.41	2850.77
630.56	2848.43
630.71	2771.19
630.86	2773.53
631.01	2663.53
631.16	2642.46
631.31	2696.30
631.46	2665.87
631.61	2635.44
631.76	2696.30
631.91	2581.61
632.06	2686.94
632.21	2609.70
632.36	2703.32
632.51	2574.59
632.66	2679.91
632.81	2597.99
632.96	2555.86
633.10	2560.55
633.25	2633.10
633.40	2630.76
633.55	2658.85
633.70	2637.78
633.85	2672.89
634.00	2708.00
634.15	2679.91
634.30	2553.52
634.45	2708.00
634.60	2483.31
634.75	2539.48
634.90	2485.65
635.05	2558.21
635.19	2518.42
635.34	2612.04
635.49	2562.89
635.64	2574.59
635.79	2537.14
635.94	2539.48
636.09	2548.84
636.24	2429.48
636.39	2485.65
636.53	2485.65
636.68	2675.23
636.83	2485.65
636.98	2555.86
637.13	2586.29
637.28	2658.85
637.43	2665.87
637.57	2532.46
637.72	2579.27
637.87	2506.71
638.02	2640.12
638.17	2574.59
638.32	2682.25
638.46	2537.14
638.61	2525.44
638.76	2583.95
638.91	2773.53
639.06	2485.65
639.20	2693.96
639.35	2572.25
639.50	2616.72
639.65	2614.38
639.80	2560.55
639.94	2590.97
640.09	2499.69
640.24	2642.46
640.39	2562.89
640.54	2506.71
640.68	2523.10
640.83	2499.69
640.98	2462.24
641.13	2466.92
641.27	2499.69
641.42	2595.65
641.57	2452.88
641.72	2499.69
641.86	2504.37
642.01	2539.48
642.16	2553.52
642.31	2469.27
642.45	2541.82
642.60	2495.01
642.75	2443.52
642.90	2415.43
643.04	2478.63
643.19	2359.26
643.34	2492.67
643.48	2466.92
643.63	2511.39
643.78	2558.21
643.93	2593.31
644.07	2471.61
644.22	2530.12
644.37	2368.62
644.51	2558.21
644.66	2457.56
644.81	2434.16
644.95	2462.24
645.10	2499.69
645.25	2569.91
645.39	2499.69
645.54	2518.42
645.69	2497.35
645.83	2373.30
645.98	2544.16
646.13	2565.23
646.27	2565.23
646.42	2370.96
646.57	2349.90
646.71	2415.43
646.86	2438.84
647.00	2495.01
647.15	2572.25
647.30	2499.69
647.44	2410.75
647.59	2394.37
647.74	2413.09
647.88	2469.27
648.03	2373.30
648.17	2492.67
648.32	2431.82
648.47	2473.95
648.61	2417.77
648.76	2377.98
648.90	2373.30
649.05	2574.59
649.20	2464.58
649.34	2513.74
649.49	2403.73
649.63	2415.43
649.78	2614.38
649.92	2471.61
650.07	2558.21
650.21	2506.71
650.36	2406.07
650.51	2420.11
650.65	2518.42
650.80	2593.31
650.94	2448.20
651.09	2516.08
651.23	2544.16
651.38	2464.58
651.52	2345.22
651.67	2396.71
651.81	2377.98
651.96	2324.15
652.10	2532.46
652.25	2382.67
652.39	2462.24
652.54	2361.60
652.68	2399.05
652.83	2403.73
652.97	2324.15
653.12	2438.84
653.26	2328.83
653.41	2448.20
653.55	2469.27
653.70	2492.67
653.84	2349.90
653.99	2331.17
654.13	2424.80
654.27	2333.51
654.42	2338.20
654.56	2354.58
654.71	2396.71
654.85	2338.20
655.00	2495.01
655.14	2424.80
655.29	2279.68
655.43	2345.22
655.57	2349.90
655.72	2237.55
655.86	2366.28
656.01	2469.27
656.15	2352.24
656.30	2427.14
656.44	2452.88
656.58	2293.72
656.73	2441.18
656.87	2431.82
657.01	2232.87
657.16	2314.79
657.30	2455.22
657.45	2459.90
657.59	2263.30
657.73	2480.97
657.88	2303.09
658.02	2525.44
658.16	2314.79
658.31	2303.09
658.45	2363.94
658.60	2401.39
658.74	2394.37
658.88	2352.24
659.03	2354.58
659.17	2267.98
659.31	2284.36
659.46	2291.38
659.60	2345.22
659.74	2256.28
659.89	2314.79
660.03	2333.51
660.17	2450.54
660.32	2431.82
660.46	2246.91
660.60	2324.15
660.74	2270.32
660.89	2270.32
661.03	2244.57
661.17	2361.60
661.32	2289.04
661.46	2286.70
661.60	2375.64
661.74	2282.02
661.89	2277.34
662.03	2275.00
662.17	2197.76
662.31	2298.41
662.46	2223.51
662.60	2202.44
662.74	2265.64
662.88	2225.85
663.03	2209.47
663.17	2263.30
663.31	2305.43
663.45	2267.98
663.60	2258.62
663.74	2179.04
663.88	2291.38
664.02	2237.55
664.17	2246.91
664.31	2282.02
664.45	2218.83
664.59	2221.17
664.73	2190.74
664.88	2232.87
665.02	2197.76
665.16	2253.94
665.30	2291.38
665.44	2214.15
665.59	2256.28
665.73	2230.53
665.87	2197.76
666.01	2193.08
666.15	2115.84
666.29	2225.85
666.44	2319.47
666.58	2270.32
666.72	2284.36
666.86	2202.44
667.00	2298.41
667.14	2146.27
667.28	2267.98
667.43	2064.35
667.57	2127.55
667.71	2230.53
667.85	2286.70
667.99	2069.03
668.13	2146.27
668.27	2202.44
668.41	2162.66
668.56	2062.01
668.70	2155.63
668.84	2232.87
668.98	2221.17
669.12	2200.10
669.26	2260.96
669.40	2253.94
669.54	2115.84
669.68	2076.06
669.82	2111.16
669.96	2197.76
670.10	2064.35
670.25	2069.03
670.39	2111.16
670.53	2033.93
670.67	2167.34
670.81	2108.82
670.95	2132.23
671.09	2150.95
671.23	2115.84
671.37	2172.02
671.51	2078.40
671.65	2155.63
671.79	2043.29
671.93	2104.14
672.07	2125.21
672.21	2097.12
672.35	1987.11
672.49	2111.16
672.63	2017.54
672.77	2099.46
672.91	2113.50
673.05	1975.41
673.19	2057.33
673.33	2045.63
673.47	2059.67
673.61	1961.37
673.75	1937.96
673.89	2019.88
674.03	2136.91
674.17	2106.48
674.31	2019.88
674.45	1989.46
674.59	1982.43
674.73	2003.50
674.87	1933.28
675.01	2008.18
675.15	1937.96
675.29	2071.37
675.43	2026.90
675.56	2022.22
675.70	2015.20
675.84	2036.27
675.98	2029.24
676.12	1944.99
676.26	1926.26
676.40	1959.03
676.54	1898.17
676.68	1956.69
676.82	1970.73
676.96	1846.68
677.10	1872.43
677.23	1949.67
677.37	1809.23
677.51	1914.56
677.65	2012.86
677.79	1905.20
677.93	1834.98
678.07	1865.41
678.21	1881.79
678.34	1919.24
678.48	1806.89
678.62	1935.62
678.76	1849.02
678.90	1919.24
679.04	1842.00
679.18	1888.81
679.31	1694.55
679.45	1748.38
679.59	1790.51
679.73	1902.86
679.87	1785.83
680.00	1867.75
680.14	1813.92
680.28	1842.00
680.42	1809.23
680.56	1778.81
680.70	1877.11
680.83	1727.32
680.97	1743.70
681.11	1736.68
681.25	1675.82
681.39	1811.57
681.52	1783.49
681.66	1748.38
681.80	1699.23
681.94	1734.34
682.07	1790.51
682.21	1713.27
682.35	1706.25
682.49	1764.76
682.62	1792.85
682.76	1727.32
682.90	1710.93
683.04	1771.79
683.17	1767.10
683.31	1727.32
683.45	1687.53
683.59	1657.10
683.72	1769.44
683.86	1692.21
684.00	1664.12
684.13	1710.93
684.27	1638.38
684.41	1633.69
684.55	1561.14
684.68	1643.06
684.82	1717.95
684.96	1598.59
685.09	1610.29
685.23	1645.40
685.37	1631.35
685.50	1514.33
685.64	1659.44
685.78	1596.25
685.91	1582.20
686.05	1624.33
686.19	1638.38
686.32	1486.24
686.46	1671.14
686.60	1474.54
686.73	1626.67
686.87	1469.86
687.01	1483.90
687.14	1490.92
687.28	1497.94
687.42	1479.22
687.55	1481.56
687.69	1516.67
687.82	1495.60
687.96	1542.41
688.10	1530.71
688.23	1504.96
688.37	1593.90
688.50	1554.12
688.64	1437.09
688.78	1481.56
688.91	1472.20
689.05	1493.26
689.18	1476.88
689.32	1472.20
689.46	1511.99
689.59	1561.14
689.73	1526.03
689.86	1453.47
690.00	1481.56
690.13	1432.41
690.27	1495.60
690.41	1383.26
690.54	1446.45
690.68	1341.13
690.81	1462.83
690.95	1378.58
691.08	1514.33
691.22	1460.49
691.35	1336.45
691.49	1425.39
691.62	1399.64
691.76	1364.53
691.89	1458.15
692.03	1299.00
692.16	1329.42
692.30	1380.92
692.43	1357.51
692.57	1282.61
692.70	1287.29
692.84	1315.38
692.97	1291.98
693.11	1416.02
693.24	1366.87
693.38	1261.55
693.51	1277.93
693.65	1341.13
693.78	1299.00
693.92	1322.40
694.05	1303.68
694.19	1291.98
694.32	1294.32
694.45	1191.33
694.59	1121.12
694.72	1191.33
694.86	1240.48
694.99	1287.29
695.13	1261.55
695.26	1263.89
695.39	1233.46
695.53	1301.34
695.66	1275.59
695.80	1259.21
695.93	1268.57
696.07	1245.16
696.20	1249.85
696.33	1224.10
696.47	1172.61
696.60	1242.82
696.73	1221.76
696.87	1114.10
697.00	1184.31
697.14	1139.84
697.27	1287.29
697.40	1301.34
697.54	1093.03
697.67	1221.76
697.80	1130.48
697.94	1130.48
698.07	1144.52
698.21	1062.60
698.34	1235.80
698.47	1205.38
698.61	1107.07
698.74	1132.82
698.87	1196.01
699.01	1107.07
699.14	1137.50
699.27	1135.16
699.40	1217.08
699.54	1123.46
699.67	1008.77
699.80	1083.67
699.94	1076.65
700.07	1205.38
700.20	1123.46
700.34	1100.05
700.47	1039.20
700.60	1088.35
700.73	1046.22
700.87	1116.44
701.00	1027.50
701.13	1022.81
701.26	1107.07
701.40	1116.44
701.53	999.41
701.66	1018.13
701.79	1053.24
701.93	1170.27
702.06	1128.14
702.19	987.71
702.32	1060.26
702.46	1071.97
702.59	1050.90
702.72	945.58
702.85	1041.54
702.99	978.34
703.12	994.73
703.25	1062.60
703.38	971.32
703.51	990.05
703.65	1018.13
703.78	947.92
703.91	978.34
704.04	1006.43
704.17	924.51
704.31	980.68
704.44	903.45
704.57	950.26
704.70	929.19
704.83	1057.92
704.96	985.37
705.10	908.13
705.23	954.94
>>>>>End Processed Spectral Data<<<<<
