SpectraSuite Data File
++++++++++++++++++++++++++++++++++++
Date: Tue Oct 01 18:27:27 GMT-05:00 2013
User: stostad
Dark Spectrum Present: No
Reference Spectrum Present: No
Number of Sampled Component Spectra: 1
Spectrometers: USB2+H05261
Integration Time (usec): 100000 (USB2+H05261)
Spectra Averaged: 1 (USB2+H05261)
Boxcar Smoothing: 0 (USB2+H05261)
Correct for Electrical Dark: No (USB2+H05261)
Strobe/Lamp Enabled: No (USB2+H05261)
Correct for Detector Non-linearity: No (USB2+H05261)
Correct for Stray Light: No (USB2+H05261)
Number of Pixels in Processed Spectrum: 2048
>>>>>Begin Processed Spectral Data<<<<<
365.73	74.90
365.92	74.90
366.12	74.90
366.32	0.00
366.52	0.00
366.72	18.72
366.91	84.26
367.11	0.00
367.31	0.00
367.51	0.00
367.70	18.72
367.90	44.47
368.10	0.00
368.30	0.00
368.49	0.00
368.69	0.00
368.89	0.00
369.09	0.00
369.28	67.88
369.48	7.02
369.68	67.88
369.87	79.58
370.07	110.01
370.27	56.17
370.47	102.98
370.66	217.67
370.86	262.14
371.06	327.68
371.25	365.12
371.45	325.33
371.65	381.51
371.84	348.74
372.04	308.95
372.24	390.87
372.44	299.59
372.63	383.85
372.83	386.19
373.03	404.91
373.22	409.59
373.42	337.04
373.62	414.27
373.81	442.36
374.01	472.79
374.21	465.77
374.40	388.53
374.60	496.19
374.79	463.43
374.99	461.09
375.19	465.77
375.38	498.53
375.58	477.47
375.78	507.90
375.97	435.34
376.17	510.24
376.37	454.06
376.56	463.43
376.76	552.37
376.95	550.03
377.15	521.94
377.35	484.49
377.54	538.32
377.74	503.22
377.93	543.00
378.13	475.13
378.33	514.92
378.52	484.49
378.72	463.43
378.91	421.30
379.11	557.05
379.31	503.22
379.50	456.40
379.70	528.96
379.89	578.11
380.09	521.94
380.28	437.68
380.48	571.09
380.68	489.17
380.87	472.79
381.07	585.13
381.26	599.18
381.46	610.88
381.65	557.05
381.85	566.41
382.04	545.34
382.24	566.41
382.43	688.12
382.63	575.77
382.83	615.56
383.02	624.92
383.22	592.16
383.41	566.41
383.61	594.50
383.80	634.29
384.00	657.69
384.19	575.77
384.39	723.23
384.58	657.69
384.78	674.07
384.97	638.97
385.17	629.60
385.36	573.43
385.56	688.12
385.75	587.47
385.95	582.79
386.14	634.29
386.34	648.33
386.53	655.35
386.72	627.26
386.92	741.95
387.11	664.71
387.31	739.61
387.50	702.16
387.70	697.48
387.89	662.37
388.09	772.38
388.28	685.78
388.48	669.39
388.67	720.88
388.86	690.46
389.06	688.12
389.25	786.42
389.45	720.88
389.64	779.40
389.84	781.74
390.03	807.48
390.22	732.59
390.42	807.48
390.61	711.52
390.81	830.89
391.00	851.96
391.19	821.53
391.39	765.36
391.58	840.25
391.78	781.74
391.97	842.59
392.16	901.11
392.36	891.74
392.55	854.30
392.75	896.43
392.94	840.25
393.13	912.81
393.33	896.43
393.52	910.47
393.71	896.43
393.91	947.92
394.10	915.15
394.29	915.15
394.49	903.45
394.68	919.83
394.88	959.62
395.07	924.51
395.26	1043.88
395.46	873.02
395.65	1039.20
395.84	983.02
396.04	1057.92
396.23	1039.20
396.42	1069.62
396.62	1055.58
396.81	1036.86
397.00	1011.11
397.19	1102.39
397.39	1050.90
397.58	1158.57
397.77	1064.94
397.97	1118.78
398.16	1144.52
398.35	1069.62
398.55	1046.22
398.74	1125.80
398.93	1114.10
399.12	1064.94
399.32	1139.84
399.51	1128.14
399.70	1219.42
399.90	1142.18
400.09	1245.16
400.28	1240.48
400.47	1219.42
400.67	1242.82
400.86	1210.06
401.05	1284.95
401.24	1193.67
401.44	1327.08
401.63	1296.66
401.82	1315.38
402.01	1254.53
402.21	1306.02
402.40	1420.71
402.59	1275.59
402.78	1306.02
402.97	1362.19
403.17	1423.05
403.36	1411.34
403.55	1448.79
403.74	1502.62
403.93	1416.02
404.13	1554.12
404.32	1556.46
404.51	1432.41
404.70	1568.16
404.89	1509.65
405.09	1558.80
405.28	1596.25
405.47	1600.93
405.66	1650.08
405.85	1633.69
406.05	1675.82
406.24	1600.93
406.43	1699.23
406.62	1689.87
406.81	1806.89
407.00	1743.70
407.20	1645.40
407.39	1724.97
407.58	1816.26
407.77	1806.89
407.96	1839.66
408.15	1818.60
408.34	1778.81
408.54	1937.96
408.73	1914.56
408.92	1795.19
409.11	1921.58
409.30	1900.52
409.49	1959.03
409.68	2083.08
409.87	1977.75
410.07	2071.37
410.26	1977.75
410.45	2066.69
410.64	1940.30
410.83	2115.84
411.02	2118.18
411.21	2052.65
411.40	2167.34
411.59	2197.76
411.78	2202.44
411.98	2193.08
412.17	2204.78
412.36	2246.91
412.55	2275.00
412.74	2406.07
412.93	2363.94
413.12	2366.28
413.31	2424.80
413.50	2406.07
413.69	2471.61
413.88	2462.24
414.07	2471.61
414.26	2523.10
414.45	2532.46
414.64	2450.54
414.83	2597.99
415.02	2693.96
415.22	2691.62
415.41	2656.51
415.60	2663.53
415.79	2761.83
415.98	2766.51
416.17	2850.77
416.36	2785.24
416.55	2822.69
416.74	2820.35
416.93	2918.65
417.12	3007.59
417.31	2958.44
417.50	2930.35
417.69	3073.12
417.88	3105.89
418.07	3049.72
418.26	2930.35
418.45	3021.63
418.64	3152.70
418.83	3169.09
419.02	3178.45
419.21	3295.47
419.39	3241.64
419.58	3122.27
419.77	3187.81
419.96	3283.77
420.15	3342.28
420.34	3152.70
420.53	3332.92
420.72	3386.76
420.91	3466.33
421.10	3391.44
421.29	3463.99
421.48	3414.84
421.67	3428.88
421.86	3459.31
422.05	3454.63
422.24	3468.67
422.43	3454.63
422.61	3382.07
422.80	3461.65
422.99	3606.77
423.18	3632.51
423.37	3574.00
423.56	3566.98
423.75	3506.12
423.94	3520.17
424.13	3272.07
424.32	3557.61
424.50	3442.93
424.69	3625.49
424.88	3564.64
425.07	3508.46
425.26	3676.98
425.45	3595.06
425.64	3684.00
425.83	3684.00
426.01	3599.74
426.20	3576.34
426.39	3684.00
426.58	3627.83
426.77	3616.13
426.96	3599.74
427.15	3716.77
427.33	3730.81
427.52	3604.42
427.71	3712.09
427.90	3761.24
428.09	3686.34
428.28	3918.06
428.46	3791.67
428.65	3840.82
428.84	3948.48
429.03	4114.66
429.22	3805.71
429.40	4039.76
429.59	3997.64
429.78	3763.58
429.97	3763.58
430.16	4025.72
430.34	4102.96
430.53	4032.74
430.72	4133.39
430.91	3978.91
431.10	4032.74
431.28	4093.60
431.47	4177.86
431.66	4411.91
431.85	4170.83
432.03	4299.56
432.22	4301.90
432.41	4156.79
432.60	4341.69
432.79	4285.52
432.97	4299.56
433.16	4299.56
433.35	4407.23
433.54	4428.29
433.72	4280.84
433.91	4325.31
434.10	4344.03
434.28	4465.74
434.47	4517.23
434.66	4573.41
434.85	4411.91
435.03	4561.70
435.22	4645.96
435.41	4690.43
435.59	4702.14
435.78	4676.39
435.97	4636.60
436.16	4662.35
436.34	4739.58
436.53	4723.20
436.72	4760.65
436.90	4765.33
437.09	4856.61
437.28	4798.10
437.46	4851.93
437.65	4910.44
437.84	4894.06
438.02	4877.68
438.21	5022.79
438.40	4795.76
438.58	4915.12
438.77	5181.95
438.96	5011.09
439.14	5252.16
439.33	5095.35
439.52	5359.83
439.70	5238.12
439.89	5083.64
440.08	5364.51
440.26	5448.77
440.45	5366.85
440.63	5528.35
440.82	5343.44
441.01	5406.64
441.19	5689.84
441.38	5713.25
441.57	5619.63
441.75	5720.27
441.94	5750.70
442.12	5694.52
442.31	5902.83
442.50	5764.74
442.68	5870.06
442.87	5797.51
443.05	5891.13
443.24	6012.84
443.43	5947.30
443.61	5900.49
443.80	6176.67
443.98	6026.88
444.17	5659.42
444.35	6059.65
444.54	6179.01
444.73	5909.85
444.91	6012.84
445.10	6050.28
445.28	6136.88
445.47	6019.86
445.65	6134.54
445.84	6209.44
446.02	6232.85
446.21	6036.24
446.39	6003.47
446.58	6085.39
446.77	6270.30
446.95	6125.18
447.14	6054.97
447.32	6289.02
447.51	6265.61
447.69	6270.30
447.88	6223.48
448.06	6101.78
448.25	6193.06
448.43	6204.76
448.62	6181.35
448.80	6303.06
448.99	6392.00
449.17	6293.70
449.36	6403.71
449.54	6469.24
449.73	6490.31
449.91	6551.16
450.10	6394.34
450.28	6619.04
450.46	6548.82
450.65	6502.01
450.83	6525.41
451.02	6588.61
451.20	6684.57
451.39	6712.66
451.57	6663.51
451.76	6731.38
451.94	6773.51
452.13	6825.00
452.31	6684.57
452.49	6759.47
452.68	6787.55
452.86	6693.93
453.05	6878.83
453.23	6991.18
453.42	6803.94
453.60	6822.66
453.78	6942.03
453.97	6988.84
454.15	6892.88
454.34	6853.09
454.52	7201.83
454.70	7126.93
454.89	7262.68
455.07	7211.19
455.26	7133.95
455.44	7246.30
455.62	7091.82
455.81	7157.36
455.99	7243.96
456.17	7304.81
456.36	7180.76
456.54	7360.98
456.73	7499.08
456.91	7648.87
457.09	7693.34
457.28	7882.92
457.46	7681.64
457.64	7611.42
457.83	7747.17
458.01	7602.06
458.19	7679.30
458.38	7749.51
458.56	7756.54
458.74	7889.95
458.93	7691.00
459.11	7887.61
459.29	7728.45
459.48	7920.37
459.66	7805.69
459.84	7880.58
460.03	7939.10
460.21	8119.32
460.39	7999.95
460.57	8039.74
460.76	8163.79
460.94	7981.23
461.12	7995.27
461.31	8156.77
461.49	8191.88
461.67	8231.66
461.85	8463.38
462.04	8074.85
462.22	8620.19
462.40	8355.71
462.59	8311.24
462.77	8332.31
462.95	8468.06
463.13	8425.93
463.32	8477.42
463.50	8566.36
463.68	8493.80
463.86	8568.70
464.05	8730.20
464.23	8638.92
464.41	8737.22
464.59	8507.85
464.78	8833.18
464.96	8643.60
465.14	8528.91
465.32	8692.75
465.50	8659.98
465.69	9020.42
465.87	8992.34
466.05	9025.11
466.23	8826.16
466.41	8781.69
466.60	9121.07
466.78	8931.48
466.96	8987.66
467.14	8931.48
467.32	8917.44
467.51	9062.55
467.69	9076.60
467.87	9043.83
468.05	9202.99
468.23	8922.12
468.41	8898.72
468.60	9191.28
468.78	9181.92
468.96	9198.31
469.14	9184.26
469.32	9184.26
469.50	9160.86
469.69	9488.53
469.87	9689.82
470.05	9628.96
470.23	9701.52
470.41	9640.67
470.59	9544.70
470.77	9682.80
470.95	9425.34
471.14	9720.24
471.32	9785.78
471.50	9884.08
471.68	9961.32
471.86	9944.94
472.04	10057.28
472.22	10153.24
472.40	10057.28
472.58	10139.20
472.77	10146.22
472.95	10296.02
473.13	10431.77
473.31	10480.92
473.49	10228.14
473.67	10338.15
473.85	10434.11
474.03	10721.99
474.21	10656.46
474.39	10796.89
474.57	10841.36
474.75	10710.29
474.93	10916.26
475.12	10829.66
475.30	10920.94
475.48	11197.12
475.66	11176.06
475.84	11176.06
476.02	11328.19
476.20	11321.17
476.38	11808.00
476.56	11503.73
476.74	11508.41
476.92	11494.37
477.10	11555.22
477.28	11831.41
477.46	11742.47
477.64	12004.61
477.82	12009.29
478.00	12341.64
478.18	12386.12
478.36	12545.27
478.54	12608.47
478.72	12547.61
478.90	12978.27
479.08	12774.64
479.26	12636.55
479.44	12994.65
479.62	13034.44
479.80	13247.43
479.98	13266.16
480.16	13408.93
480.34	13425.31
480.52	13422.97
480.70	13724.90
480.88	13575.11
481.06	13703.84
481.24	13886.40
481.41	13994.06
481.59	14111.09
481.77	14450.47
481.95	14108.75
482.13	14347.48
482.31	14338.12
482.49	14918.57
482.67	14754.74
482.85	14944.32
483.03	15129.22
483.21	15286.04
483.39	15587.97
483.57	15304.76
483.74	15445.20
483.92	15655.84
484.10	15885.22
484.28	15871.17
484.46	16009.26
484.64	16231.62
484.82	15983.52
485.00	16180.12
485.18	16779.30
485.35	16669.30
485.53	16769.94
485.71	16858.88
485.89	16676.32
486.07	17214.64
486.25	17579.76
486.43	17308.26
486.61	17376.14
486.78	17743.60
486.96	17774.03
487.14	18066.60
487.32	18228.09
487.50	18277.24
487.68	18293.63
487.85	18607.26
488.03	18583.85
488.21	18923.23
488.39	19164.31
488.57	18822.59
488.75	19281.33
488.92	19632.41
489.10	19604.33
489.28	19449.85
489.46	19948.39
489.64	19775.19
489.81	20259.68
489.99	20166.06
490.17	20325.21
490.35	20652.89
490.53	20580.33
490.70	20790.98
490.88	20886.94
491.06	21333.98
491.24	20875.24
491.41	21018.01
491.59	21642.93
491.77	21593.78
491.95	21589.10
492.13	21731.87
492.30	21752.94
492.48	21926.14
492.66	21996.35
492.84	22321.69
493.01	22342.75
493.19	22611.92
493.37	22387.22
493.54	22796.82
493.72	22822.56
493.90	22930.23
494.08	23370.25
494.25	23424.08
494.43	23913.25
494.61	23452.17
494.79	23735.37
494.96	23981.13
495.14	24006.87
495.32	24395.40
495.49	24130.92
495.67	24538.18
495.85	24666.91
496.02	24507.75
496.20	25057.78
496.38	25104.59
496.55	25366.73
496.73	25727.17
496.91	25200.55
497.09	25537.59
497.26	25968.24
497.44	25692.06
497.62	25853.56
497.79	26249.11
497.97	26263.15
498.14	26909.14
498.32	26466.78
498.50	26298.26
498.67	26838.92
498.85	26644.66
499.03	27246.18
499.20	27262.56
499.38	26845.94
499.56	27267.24
499.73	27515.34
499.91	27494.27
500.08	27590.24
500.26	27075.32
500.44	27707.26
500.61	27871.10
500.79	27763.43
500.97	28091.11
501.14	27838.33
501.32	28276.01
501.49	28229.20
501.67	28409.42
501.84	28786.25
502.02	28694.97
502.20	28451.55
502.37	28767.52
502.55	28730.08
502.72	29177.12
502.90	29163.08
503.07	28919.66
503.25	29191.16
503.43	29113.92
503.60	29390.11
503.78	29371.38
503.95	29675.65
504.13	29619.48
504.30	29914.39
504.48	29949.50
504.65	30033.75
504.83	30398.88
505.01	30487.82
505.18	29799.70
505.36	30293.55
505.53	30719.53
505.71	30452.71
505.88	30492.50
506.06	30703.15
506.23	30930.18
506.41	30897.41
506.58	31285.94
506.76	31150.19
506.93	31529.36
507.11	31197.00
507.28	31718.94
507.46	31592.55
507.63	31536.38
507.81	31805.54
507.98	31384.24
508.16	31707.24
508.33	32037.25
508.50	32247.90
508.68	32577.92
508.85	32610.68
509.03	32023.21
509.20	32638.77
509.38	32847.08
509.55	32737.07
509.73	33092.83
509.90	33071.77
510.08	33106.88
510.25	32994.53
510.42	33317.53
510.60	33184.12
510.77	33111.56
510.95	33570.30
511.12	33429.87
511.30	33226.24
511.47	34171.82
511.64	34007.98
511.82	34316.93
511.99	34139.05
512.17	34345.02
512.34	34274.80
512.51	34366.09
512.69	34595.46
512.86	34761.64
513.04	34967.60
513.21	34862.28
513.38	34632.91
513.56	34958.24
513.73	34660.99
513.90	34909.09
514.08	35534.01
514.25	35290.60
514.43	35524.65
514.60	35470.82
514.77	35168.89
514.95	35866.37
515.12	35655.72
515.29	35634.66
515.47	35690.83
515.64	36779.18
515.81	36229.15
515.99	36062.97
516.16	35730.62
516.33	36423.42
516.51	36627.04
516.68	36519.38
516.85	36341.50
517.03	36554.49
517.20	36917.27
517.37	36858.76
517.54	36666.83
517.72	37036.64
517.89	36835.35
518.06	37219.20
518.24	37483.68
518.41	37258.99
518.58	37191.11
518.75	37017.91
518.93	37532.83
519.10	37266.01
519.27	37516.45
519.45	37544.53
519.62	38085.20
519.79	37825.40
519.96	38260.74
520.14	38565.01
520.31	37806.67
520.48	38022.00
520.65	38183.50
520.83	38614.16
521.00	38536.92
521.17	38630.54
521.34	38574.37
521.52	38675.01
521.69	39260.15
521.86	38773.31
522.03	38892.68
522.20	38707.78
522.38	39072.90
522.55	38995.67
522.72	39653.36
522.89	39267.17
523.07	39592.50
523.24	39225.04
523.41	39660.38
523.58	39426.32
523.75	40105.08
523.92	39636.97
524.10	40245.51
524.27	40360.20
524.44	40126.14
524.61	39693.15
524.78	40397.65
524.96	40189.34
525.13	40268.92
525.30	40671.49
525.47	40671.49
525.64	40678.51
525.81	41078.74
525.98	40821.28
526.16	40493.61
526.33	40884.48
526.50	41102.15
526.67	40935.97
526.84	40753.41
527.01	40898.52
527.18	41228.54
527.36	41579.62
527.53	41291.73
527.70	41359.61
527.87	41284.71
528.04	41581.96
528.21	41640.47
528.38	41745.80
528.55	41596.00
528.72	41799.63
528.89	41860.48
529.07	41837.08
529.24	41741.11
529.41	41991.55
529.58	42066.45
529.75	41998.57
529.92	42211.56
530.09	42251.35
530.26	42628.18
530.43	42178.79
530.60	42380.08
530.77	42450.30
530.94	42447.96
531.11	42366.04
531.28	42714.78
531.46	43330.34
531.63	42937.13
531.80	42813.08
531.97	42752.23
532.14	43318.64
532.31	42770.95
532.48	42951.17
532.65	43398.21
532.82	42887.98
532.99	43590.14
533.16	43484.81
533.33	43615.88
533.50	43463.75
533.67	43356.08
533.84	43433.32
534.01	43166.50
534.18	43171.18
534.35	43725.89
534.52	43608.86
534.69	44294.64
534.86	43978.67
535.03	43838.23
535.20	43606.52
535.37	44210.38
535.54	44252.51
535.71	43981.01
535.88	43908.45
536.05	44790.83
536.22	44818.92
536.38	44233.78
536.55	44453.79
536.72	44231.44
536.89	44093.35
537.06	44463.16
537.23	45001.48
537.40	44589.55
537.57	44704.23
537.74	45074.04
537.91	44945.31
538.08	44828.28
538.25	44568.48
538.42	44989.78
538.59	45141.91
538.75	45020.20
538.92	44992.12
539.09	45523.42
539.26	45635.77
539.43	45123.19
539.60	45467.25
539.77	45085.74
539.94	45797.26
540.11	45553.85
540.28	45546.82
540.44	45780.88
540.61	45532.78
540.78	45766.84
540.95	45560.87
541.12	45900.25
541.29	45755.13
541.46	45638.11
541.62	45584.27
541.79	45893.22
541.96	45624.06
542.13	46099.19
542.30	45743.43
542.47	46452.61
542.63	45984.51
542.80	46204.52
542.97	46342.61
543.14	46855.18
543.31	46714.75
543.48	46742.84
543.64	47203.92
543.81	47035.41
543.98	46782.63
544.15	46972.21
544.32	46670.28
544.48	47536.28
544.65	46955.83
544.82	47040.09
544.99	46726.46
545.16	47129.03
545.32	47468.40
545.49	47889.70
545.66	47173.50
545.83	47290.52
546.00	47407.55
546.16	47356.06
546.33	47566.71
546.50	47363.08
546.67	47569.05
546.83	47213.29
547.00	47587.77
547.17	47536.28
547.34	47477.77
547.50	47653.31
547.67	47786.72
547.84	48156.52
548.00	48034.81
548.17	48278.23
548.34	48172.91
548.51	48252.48
548.67	48074.60
548.84	48048.86
549.01	47913.11
549.18	48053.54
549.34	48156.52
549.51	48315.68
549.68	48612.93
549.84	48175.25
550.01	48413.98
550.18	48278.23
550.34	47873.32
550.51	48325.04
550.68	48495.90
550.84	48088.65
551.01	48423.34
551.18	48514.62
551.34	48334.40
551.51	49134.87
551.68	48594.20
551.84	48444.41
552.01	48563.78
552.18	48474.84
552.34	48844.64
552.51	48755.70
552.68	48472.49
552.84	48701.87
553.01	48928.90
553.18	49284.66
553.34	49139.55
553.51	48832.94
553.67	48701.87
553.84	48985.07
554.01	49029.54
554.17	49305.73
554.34	49436.80
554.51	49008.48
554.67	49464.88
554.84	49202.74
555.00	49249.55
555.17	49223.81
555.33	49146.57
555.50	49345.51
555.67	49310.41
555.83	49434.45
556.00	49532.76
556.16	50019.59
556.33	49792.56
556.50	49762.13
556.66	49586.59
556.83	49834.69
556.99	49785.54
557.16	49949.37
557.32	49785.54
557.49	49846.39
557.65	49549.14
557.82	49879.16
557.98	49911.92
558.15	50185.77
558.32	49975.12
558.48	50007.89
558.65	49989.16
558.81	49729.36
558.98	49584.25
559.14	49619.36
559.31	49949.37
559.47	50117.89
559.64	49911.92
559.80	50136.62
559.97	50305.13
560.13	50050.02
560.30	49708.30
560.46	50061.72
560.63	49841.71
560.79	49736.38
560.96	50454.93
561.12	50426.84
561.29	50412.80
561.45	50136.62
561.61	50459.61
561.78	50085.12
561.94	50286.41
562.11	50050.02
562.27	50115.55
562.44	50365.99
562.60	50574.30
562.77	50567.27
562.93	50415.14
563.10	50721.75
563.26	50174.06
563.42	50679.62
563.59	50480.67
563.75	50473.65
563.92	50569.61
564.08	50616.43
564.24	50536.85
564.41	50845.80
564.57	50532.17
564.74	50639.83
564.90	50974.53
565.07	50174.06
565.23	50520.46
565.39	50576.64
565.56	50735.79
565.72	50499.40
565.88	50436.20
566.05	50501.74
566.21	51007.29
566.38	50918.35
566.54	50836.44
566.70	50894.95
566.87	51222.62
567.03	50560.25
567.19	50810.69
567.36	51019.00
567.52	50590.68
567.68	50768.56
567.85	50473.65
568.01	51058.79
568.17	50887.93
568.34	51011.98
568.50	51042.40
568.66	50815.37
568.83	51292.84
568.99	50504.08
569.15	51231.99
569.32	50681.96
569.48	50780.26
569.64	51246.03
569.81	50794.31
569.97	51086.87
570.13	50925.38
570.30	50745.15
570.46	50869.20
570.62	50944.10
570.78	50869.20
570.95	50946.44
571.11	50923.04
571.27	51157.09
571.43	51136.02
571.60	51058.79
571.76	51049.42
571.92	51262.41
572.09	51103.26
572.25	51295.18
572.41	50822.39
572.57	51246.03
572.74	51625.20
572.90	51262.41
573.06	51278.80
573.22	51194.54
573.38	51168.79
573.55	51124.32
573.71	51075.17
573.87	50990.91
574.03	50705.37
574.20	51082.19
574.36	51002.61
574.52	50979.21
574.68	51180.49
574.84	51159.43
575.01	51627.54
575.17	51536.26
575.33	51206.24
575.49	51175.81
575.65	51512.85
575.82	51072.83
575.98	51180.49
576.14	51309.22
576.30	51433.27
576.46	51428.59
576.62	51732.86
576.79	51585.41
576.95	51246.03
577.11	51075.17
577.27	51281.14
577.43	51341.99
577.59	50979.21
577.75	51082.19
577.92	51126.66
578.08	51072.83
578.24	51756.27
578.40	51777.33
578.56	51597.11
578.72	51391.14
578.88	51409.87
579.04	51435.61
579.21	51196.88
579.37	51452.00
579.53	51798.40
579.69	51433.27
579.85	51592.43
580.01	51725.84
580.17	51566.68
580.33	51470.72
580.49	51536.26
580.65	51641.58
580.82	51618.17
580.98	51283.48
581.14	51391.14
581.30	51573.70
581.46	51756.27
581.62	51798.40
581.78	51566.68
581.94	51901.38
582.10	51447.32
582.26	51281.14
582.42	51728.18
582.58	51358.38
582.74	51557.32
582.90	51313.90
583.06	51697.75
583.22	51517.53
583.38	51882.66
583.54	51800.74
583.70	51484.76
583.86	51657.96
584.02	51679.03
584.18	51824.14
584.34	51299.86
584.50	51571.36
584.66	51880.31
584.82	51407.53
584.98	51554.98
585.14	51639.24
585.30	51246.03
585.46	51702.43
585.62	51648.60
585.78	51360.72
585.94	51344.33
586.10	51543.28
586.26	51320.93
586.42	51306.88
586.58	51536.26
586.74	51124.32
586.90	51285.82
587.06	51433.27
587.22	51791.37
587.38	51833.50
587.54	51894.36
587.70	52006.70
587.86	51990.32
588.02	51758.61
588.18	52116.71
588.34	51744.56
588.49	51695.41
588.65	51615.83
588.81	51887.34
588.97	51910.74
589.13	51973.94
589.29	52116.71
589.45	51952.87
589.61	52105.01
589.77	51835.84
589.93	52016.07
590.08	52353.10
590.24	52224.37
590.40	51959.89
590.56	52446.72
590.72	51742.22
590.88	51929.47
591.04	52301.61
591.20	52449.06
591.35	51952.87
591.51	52289.91
591.67	52069.90
591.83	52271.18
591.99	51948.19
592.15	52299.27
592.31	51955.21
592.46	52097.98
592.62	52182.24
592.78	52299.27
592.94	52275.87
593.10	52140.11
593.26	51955.21
593.41	52030.11
593.57	52149.48
593.73	52222.03
593.89	52189.27
594.05	52369.49
594.20	52287.57
594.36	52680.78
594.52	52371.83
594.68	52523.96
594.84	52301.61
594.99	52453.75
595.15	52257.14
595.31	52430.34
595.47	51707.12
595.62	51952.87
595.78	52048.83
595.94	52128.41
596.10	52449.06
596.25	52285.23
596.41	52411.62
596.57	52512.26
596.73	52353.10
596.88	52016.07
597.04	52252.46
597.20	52107.35
597.36	51899.04
597.51	52065.22
597.67	52053.51
597.83	52329.70
597.99	52329.70
598.14	52547.37
598.30	52364.81
598.46	52250.12
598.61	52416.30
598.77	52491.19
598.93	52273.52
599.09	52402.25
599.24	52435.02
599.40	52257.14
599.56	52189.27
599.71	52514.60
599.87	52538.01
600.03	52542.69
600.18	52428.00
600.34	52500.56
600.50	52559.07
600.65	52074.58
600.81	52460.77
600.97	52458.43
601.12	52137.77
601.28	52203.31
601.44	52381.19
601.59	52523.96
601.75	52325.02
601.91	52612.90
602.06	52603.54
602.22	52516.94
602.37	52315.65
602.53	52346.08
602.69	52336.72
602.84	52495.88
603.00	52109.69
603.16	52322.68
603.31	51948.19
603.47	52076.92
603.62	52502.90
603.78	52259.48
603.94	52463.11
604.09	52610.56
604.25	52633.97
604.40	52367.15
604.56	52542.69
604.71	52676.10
604.87	52538.01
605.03	52189.27
605.18	52004.36
605.34	52299.27
605.49	52530.98
605.65	52418.64
605.80	52158.84
605.96	52243.10
606.12	52332.04
606.27	52603.54
606.43	51838.18
606.58	52186.92
606.74	52076.92
606.89	52207.99
607.05	52179.90
607.20	52406.94
607.36	52353.10
607.51	51964.57
607.67	52107.35
607.82	52514.60
607.98	52147.14
608.13	52313.31
608.29	52486.51
608.44	52182.24
608.60	52016.07
608.75	52126.07
608.91	52046.49
609.06	51814.78
609.22	51650.94
609.37	51929.47
609.53	52095.64
609.68	52147.14
609.84	52044.15
609.99	52310.97
610.15	52381.19
610.30	51964.57
610.46	51782.01
610.61	51756.27
610.76	51910.74
610.92	51529.23
611.07	51498.81
611.23	51578.39
611.38	51756.27
611.54	51779.67
611.69	51686.05
611.84	52102.67
612.00	51770.31
612.15	51941.17
612.31	51875.63
612.46	51716.48
612.62	51641.58
612.77	51765.63
612.92	51746.90
613.08	51688.39
613.23	51810.10
613.39	51817.12
613.54	51449.66
613.69	52093.30
613.85	51997.34
614.00	51952.87
614.15	51735.20
614.31	51774.99
614.46	51660.30
614.62	51803.08
614.77	51730.52
614.92	51707.12
615.08	51536.26
615.23	51526.89
615.38	51370.08
615.54	51648.60
615.69	51941.17
615.84	51269.43
616.00	51922.44
616.15	51744.56
616.30	51749.24
616.46	51461.36
616.61	51606.47
616.76	51098.58
616.92	51379.44
617.07	51363.06
617.22	51283.48
617.37	51468.38
617.53	51601.79
617.68	51482.42
617.83	51526.89
617.99	51672.01
618.14	51435.61
618.29	51484.76
618.45	51011.98
618.60	51391.14
618.75	50824.73
618.90	50986.23
619.06	51412.21
619.21	50981.55
619.36	51341.99
619.51	51208.58
619.67	50932.40
619.82	51084.53
619.97	51194.54
620.12	50731.11
620.28	50862.18
620.43	50946.44
620.58	50740.47
620.73	50630.47
620.89	50726.43
621.04	50864.52
621.19	50986.23
621.34	51168.79
621.49	50939.42
621.65	50948.78
621.80	51311.56
621.95	51105.60
622.10	51145.39
622.25	50834.10
622.41	50515.78
622.56	50972.19
622.71	51398.16
622.86	50595.36
623.01	50611.74
623.16	50787.28
623.32	50553.23
623.47	50899.63
623.62	50808.35
623.77	51131.34
623.92	50857.50
624.07	50649.19
624.23	50815.37
624.38	50838.78
624.53	50300.45
624.68	50431.52
624.83	50295.77
624.98	50571.96
625.13	50522.80
625.29	50384.71
625.44	50241.94
625.59	50199.81
625.74	50124.91
625.89	50415.14
626.04	50508.76
626.19	50667.92
626.34	50281.73
626.49	50295.77
626.65	50089.80
626.80	50534.51
626.95	49822.98
627.10	49940.01
627.25	50145.98
627.40	49808.94
627.55	50234.92
627.70	50153.00
627.85	50314.50
628.00	50078.10
628.15	50312.16
628.30	49986.82
628.45	50031.29
628.60	49705.96
628.76	49408.71
628.91	49804.26
629.06	49642.76
629.21	49790.22
629.36	49436.80
629.51	49701.28
629.66	49579.57
629.81	49858.09
629.96	49984.48
630.11	49958.73
630.26	49785.54
630.41	49345.51
630.56	49666.17
630.71	49521.05
630.86	49235.51
631.01	49144.23
631.16	49663.83
631.31	48680.80
631.46	49347.86
631.61	49282.32
631.76	49762.13
631.91	49216.78
632.06	49308.07
632.21	49303.38
632.36	49675.53
632.51	48973.37
632.66	49270.62
632.81	48940.60
632.96	49605.31
633.10	49085.72
633.25	49045.93
633.40	49275.30
633.55	49162.95
633.70	49228.49
633.85	49221.47
634.00	49092.74
634.15	49502.33
634.30	49242.53
634.45	49420.41
634.60	48980.39
634.75	49090.40
634.90	48758.04
635.05	49305.73
635.19	48720.59
635.34	49064.65
635.49	48589.52
635.64	48697.19
635.79	49158.27
635.94	48870.39
636.09	48832.94
636.24	48788.47
636.39	48804.85
636.53	49008.48
636.68	48692.50
636.83	48500.58
636.98	48802.51
637.13	48411.64
637.28	48994.43
637.43	48673.78
637.57	48809.53
637.72	48556.75
637.87	48582.50
638.02	48816.55
638.17	48603.56
638.32	48535.69
638.46	48526.33
638.61	48657.40
638.76	48301.64
638.91	48402.28
639.06	48432.71
639.20	48205.67
639.35	48325.04
639.50	47805.44
639.65	48020.77
639.80	48264.19
639.94	48229.08
640.09	48430.36
640.24	48355.47
640.39	48161.20
640.54	48116.73
640.68	48229.08
640.83	48215.04
640.98	47976.30
641.13	47590.11
641.27	48175.25
641.42	47667.35
641.57	47833.53
641.72	47632.24
641.86	47547.98
642.01	47370.10
642.16	47519.90
642.31	47140.73
642.45	47758.63
642.60	47636.92
642.75	47868.64
642.90	48109.71
643.04	47227.33
643.19	47393.51
643.34	47334.99
643.48	47414.57
643.63	47627.56
643.78	47569.05
643.93	47140.73
644.07	47440.32
644.22	47515.22
644.37	47625.22
644.51	47442.66
644.66	47302.23
644.81	47498.83
644.95	47543.30
645.10	47346.70
645.25	47061.15
645.39	47353.72
645.54	47423.93
645.69	47215.63
645.83	47416.91
645.98	47412.23
646.13	47086.90
646.27	47056.47
646.42	46829.44
646.57	46951.15
646.71	47004.98
646.86	47398.19
647.00	47337.33
647.15	47475.43
647.30	47133.71
647.44	46941.78
647.59	47456.70
647.74	47112.64
647.88	47093.92
648.03	46843.48
648.17	46927.74
648.32	46373.03
648.47	46703.05
648.61	46508.79
648.76	47114.98
648.90	46817.74
649.05	47126.69
649.20	46801.35
649.34	46609.43
649.49	46602.41
649.63	47058.81
649.78	47021.36
649.92	46600.07
650.07	46906.68
650.21	46838.80
650.36	46473.68
650.51	46033.66
650.65	46387.08
650.80	46433.89
650.94	46312.18
651.09	46244.30
651.23	46071.10
651.38	46323.88
651.52	46403.46
651.67	46436.23
651.81	46787.31
651.96	46054.72
652.10	46199.83
652.25	46181.11
652.39	46644.54
652.54	46319.20
652.68	46218.56
652.83	46190.47
652.97	46146.00
653.12	45855.78
653.26	46253.67
653.41	45956.42
653.55	46267.71
653.70	46078.13
653.84	46267.71
653.99	45841.73
654.13	46494.74
654.27	45872.16
654.42	46103.87
654.56	45900.25
654.71	45834.71
654.85	45911.95
655.00	45757.47
655.14	45448.52
655.29	45214.47
655.43	45436.82
655.57	45521.08
655.72	45397.03
655.86	45755.13
656.01	45984.51
656.15	45535.12
656.30	45652.15
656.44	45347.88
656.58	45186.38
656.73	44851.69
656.87	45319.79
657.01	45059.99
657.16	45666.19
657.30	44924.24
657.45	45280.00
657.59	45415.76
657.73	44655.08
657.88	45174.68
658.02	44659.76
658.16	44601.25
658.31	45317.45
658.45	45544.48
658.60	44835.30
658.74	45574.91
658.88	44975.73
659.03	44797.85
659.17	44692.53
659.31	44634.02
659.46	44748.70
659.60	44243.15
659.74	44411.67
659.89	44341.45
660.03	44858.71
660.17	44769.77
660.32	44320.38
660.46	45017.86
660.60	44465.50
660.74	44528.69
660.89	44952.33
661.03	44376.56
661.17	44479.54
661.32	43887.39
661.46	44058.24
661.60	43833.55
661.74	43906.11
661.89	43838.23
662.03	43555.03
662.17	43400.55
662.31	43646.31
662.46	44002.07
662.60	43730.57
662.74	43456.73
662.88	43409.92
663.03	43604.18
663.17	43793.76
663.31	43416.94
663.45	43627.59
663.60	43173.52
663.74	43161.82
663.88	42698.39
664.02	43075.22
664.17	43718.87
664.31	42660.94
664.45	43119.69
664.59	43030.75
664.73	43339.70
664.88	43262.46
665.02	42883.30
665.16	43040.11
665.30	43194.59
665.44	43161.82
665.59	42897.34
665.73	42632.86
665.87	42485.40
666.01	42740.52
666.15	42525.19
666.29	42209.22
666.44	42099.22
666.58	41766.86
666.72	42272.42
666.86	42309.86
667.00	42405.83
667.14	41921.34
667.28	42237.31
667.43	41958.78
667.57	42403.49
667.71	42483.06
667.85	42124.96
667.99	42335.61
668.13	41799.63
668.27	41628.77
668.41	41771.54
668.56	41148.96
668.70	41675.58
668.84	41214.49
668.98	41511.74
669.12	41118.53
669.26	41361.95
669.40	41237.90
669.54	40985.12
669.68	41153.64
669.82	41081.08
669.96	41064.70
670.10	40711.28
670.25	41179.39
670.39	41235.56
670.53	40849.37
670.67	40739.36
670.81	40917.25
670.95	40486.59
671.09	40362.54
671.23	40172.96
671.37	39927.20
671.51	40137.85
671.65	39969.33
671.79	40109.76
671.93	40030.18
672.07	40493.61
672.21	40114.44
672.35	39800.81
672.49	40392.97
672.63	40105.08
672.77	39866.34
672.91	39920.18
673.05	39690.80
673.19	39718.89
673.33	39402.92
673.47	39328.02
673.61	39363.13
673.75	38738.21
673.89	39084.61
674.03	38855.23
674.17	38560.33
674.31	38836.51
674.45	38597.77
674.59	38408.19
674.73	39428.66
674.87	38642.24
675.01	38579.05
675.15	38286.48
675.29	38431.60
675.43	38136.69
675.56	38408.19
675.70	38122.65
675.84	38244.35
675.98	36919.61
676.12	37769.22
676.26	37975.19
676.40	37724.75
676.54	37509.43
676.68	37502.40
676.82	36966.42
676.96	37249.63
677.10	37453.25
677.23	37441.55
677.37	37013.23
677.51	37207.50
677.65	37118.56
677.79	36795.56
677.93	36818.97
678.07	36627.04
678.21	36364.90
678.34	36521.72
678.48	35608.91
678.62	35842.96
678.76	35693.17
678.90	35814.88
679.04	35594.87
679.18	35896.80
679.31	35583.16
679.45	35459.12
679.59	35672.10
679.73	36037.23
679.87	35175.91
680.00	35758.70
680.14	35330.39
680.28	35068.25
680.42	35033.14
680.56	34799.08
680.70	34405.88
680.83	34108.63
680.97	33986.92
681.11	34422.26
681.25	33989.26
681.39	34080.54
681.52	34026.71
681.66	34085.22
681.80	33682.65
681.94	33909.68
682.07	33687.33
682.21	33876.91
682.35	33530.51
682.49	33640.52
682.62	33369.02
682.76	33347.95
682.90	32898.57
683.04	33242.63
683.17	32746.44
683.31	32598.98
683.45	32648.13
683.59	32472.59
683.72	32058.32
683.86	32563.87
684.00	32280.67
684.13	32252.58
684.27	32720.69
684.41	32222.16
684.55	32189.39
684.68	32156.62
684.82	32032.57
684.96	31768.09
685.09	31550.42
685.23	30944.22
685.37	31323.39
685.50	31154.87
685.64	30813.15
685.78	30998.06
685.91	31115.08
686.05	30389.52
686.19	30356.75
686.32	30948.90
686.46	30272.49
686.60	30534.63
686.73	30560.37
686.87	30745.28
687.01	30352.07
687.14	30157.80
687.28	30485.48
687.42	30197.59
687.55	29902.68
687.69	29942.47
687.82	30061.84
687.96	29689.70
688.10	29488.41
688.23	29324.57
688.37	29205.20
688.50	29125.63
688.64	29043.71
688.78	28849.44
688.91	28613.05
689.05	29039.03
689.18	28638.80
689.32	27964.72
689.46	28479.64
689.59	28701.99
689.73	28561.56
689.86	28048.98
690.00	28463.25
690.13	28538.15
690.27	28245.58
690.41	28123.88
690.54	27861.74
690.68	27215.75
690.81	27571.51
690.95	27267.24
691.08	27096.38
691.22	27452.14
691.35	26988.72
691.49	26871.69
691.62	26958.29
691.76	27234.47
691.89	26764.03
692.03	26551.04
692.16	26438.69
692.30	26752.32
692.43	26602.53
692.57	26438.69
692.70	26473.80
692.84	25853.56
692.97	26001.01
693.11	25788.02
693.24	25394.81
693.38	25654.61
693.51	25331.62
693.65	25844.20
693.78	25233.32
693.92	25212.25
694.05	25191.19
694.19	25322.26
694.32	24978.20
694.45	24900.96
694.59	24826.06
694.72	24812.02
694.86	24844.79
694.99	24718.40
695.13	24898.62
695.26	24482.00
695.39	24194.12
695.53	24229.23
695.66	23833.68
695.80	23948.36
695.93	23805.59
696.07	23424.08
696.20	23756.44
696.33	23297.69
696.47	23257.90
696.60	23328.12
696.73	23304.71
696.87	23190.03
697.00	23548.13
697.14	23124.49
697.27	22995.76
697.40	23030.87
697.54	22902.14
697.67	22745.33
697.80	22827.24
697.94	22593.19
698.07	22106.36
698.21	22176.58
698.34	22410.63
698.47	22052.53
698.61	21654.64
698.74	21525.91
698.87	21797.41
699.01	21694.43
699.14	21537.61
699.27	21680.38
699.40	21893.37
699.54	21254.40
699.67	21151.42
699.80	21451.01
699.94	21259.09
700.07	21041.42
700.20	21268.45
700.34	20835.45
700.47	21315.26
700.60	20559.27
700.73	20940.77
700.87	20507.77
701.00	20409.47
701.13	20140.31
701.26	20084.14
701.40	20123.93
701.53	19843.06
701.66	20107.54
701.79	19374.95
701.93	19824.34
702.06	19655.82
702.19	19995.20
702.32	19719.01
702.46	19620.71
702.59	19491.98
702.72	19283.67
702.85	19300.06
702.99	19627.73
703.12	18923.23
703.25	18913.87
703.38	18656.41
703.51	18764.07
703.65	18523.00
703.78	18366.18
703.91	18373.21
704.04	18544.06
704.17	18387.25
704.31	18120.43
704.44	18235.11
704.57	18162.56
704.70	18305.33
704.83	17944.89
704.96	17923.82
705.10	17935.53
705.23	17743.60
>>>>>End Processed Spectral Data<<<<<
