SpectraSuite Data File
++++++++++++++++++++++++++++++++++++
Date: Fri Oct 04 11:39:41 GMT-05:00 2013
User: price-jones
Dark Spectrum Present: No
Reference Spectrum Present: No
Number of Sampled Component Spectra: 1
Spectrometers: USB2+H05261
Integration Time (usec): 100000 (USB2+H05261)
Spectra Averaged: 1 (USB2+H05261)
Boxcar Smoothing: 0 (USB2+H05261)
Correct for Electrical Dark: No (USB2+H05261)
Strobe/Lamp Enabled: No (USB2+H05261)
Correct for Detector Non-linearity: No (USB2+H05261)
Correct for Stray Light: No (USB2+H05261)
Number of Pixels in Processed Spectrum: 2048
>>>>>Begin Processed Spectral Data<<<<<
365.73	53.83
365.92	53.83
366.12	53.83
366.32	21.06
366.52	2.34
366.72	11.70
366.91	0.00
367.11	0.00
367.31	0.00
367.51	0.00
367.70	0.00
367.90	0.00
368.10	0.00
368.30	0.00
368.49	0.00
368.69	0.00
368.89	0.00
369.09	35.11
369.28	0.00
369.48	0.00
369.68	0.00
369.87	0.00
370.07	0.00
370.27	2.34
370.47	93.62
370.66	231.71
370.86	271.50
371.06	304.27
371.25	409.59
371.45	379.17
371.65	360.44
371.84	313.63
372.04	409.59
372.24	428.32
372.44	442.36
372.63	433.00
372.83	484.49
373.03	468.11
373.22	428.32
373.42	449.38
373.62	402.57
373.81	472.79
374.01	505.56
374.21	510.24
374.40	416.62
374.60	463.43
374.79	346.40
374.99	430.66
375.19	519.60
375.38	552.37
375.58	463.43
375.78	538.32
375.97	477.47
376.17	557.05
376.37	554.71
376.56	564.07
376.76	510.24
376.95	519.60
377.15	573.43
377.35	624.92
377.54	484.49
377.74	484.49
377.93	486.83
378.13	587.47
378.33	503.22
378.52	561.73
378.72	582.79
378.91	641.31
379.11	512.58
379.31	589.82
379.50	547.69
379.70	582.79
379.89	650.67
380.09	592.16
380.28	585.13
380.48	535.98
380.68	535.98
380.87	575.77
381.07	608.54
381.26	580.45
381.46	650.67
381.65	629.60
381.85	543.00
382.04	608.54
382.24	695.14
382.43	559.39
382.63	580.45
382.83	564.07
383.02	627.26
383.22	688.12
383.41	587.47
383.61	631.94
383.80	685.78
384.00	683.44
384.19	657.69
384.39	681.10
384.58	685.78
384.78	758.33
384.97	695.14
385.17	692.80
385.36	671.73
385.56	664.71
385.75	734.93
385.95	725.57
386.14	690.46
386.34	718.54
386.53	755.99
386.72	767.70
386.92	781.74
387.11	669.39
387.31	819.19
387.50	758.33
387.70	713.86
387.89	748.97
388.09	774.72
388.28	751.31
388.48	767.70
388.67	734.93
388.86	800.46
389.06	840.25
389.25	905.79
389.45	884.72
389.64	741.95
389.84	856.64
390.03	847.27
390.22	854.30
390.42	795.78
390.61	812.17
390.81	828.55
391.00	894.08
391.19	861.32
391.39	837.91
391.58	917.49
391.78	812.17
391.97	880.04
392.16	858.98
392.36	971.32
392.55	908.13
392.75	938.55
392.94	931.53
393.13	875.36
393.33	929.19
393.52	971.32
393.71	1006.43
393.91	947.92
394.10	980.68
394.29	1034.52
394.49	992.39
394.68	1029.84
394.88	924.51
395.07	1001.75
395.26	1011.11
395.46	1029.84
395.65	1081.33
395.84	1135.16
396.04	1043.88
396.23	1057.92
396.42	1090.69
396.62	1100.05
396.81	1123.46
397.00	1088.35
397.19	1041.54
397.39	1064.94
397.58	1226.44
397.77	1111.75
397.97	1156.22
398.16	1102.39
398.35	1247.51
398.55	1231.12
398.74	1224.10
398.93	1334.11
399.12	1291.98
399.32	1163.25
399.51	1217.08
399.70	1263.89
399.90	1299.00
400.09	1266.23
400.28	1338.79
400.47	1364.53
400.67	1380.92
400.86	1350.49
401.05	1359.85
401.24	1273.25
401.44	1455.81
401.63	1469.86
401.82	1409.00
402.01	1409.00
402.21	1516.67
402.40	1427.73
402.59	1465.18
402.78	1444.11
402.97	1483.90
403.17	1589.22
403.36	1493.26
403.55	1509.65
403.74	1605.61
403.93	1540.07
404.13	1570.50
404.32	1631.35
404.51	1633.69
404.70	1554.12
404.89	1530.71
405.09	1694.55
405.28	1748.38
405.47	1624.33
405.66	1633.69
405.85	1645.40
406.05	1706.25
406.24	1750.72
406.43	1621.99
406.62	1797.53
406.81	1865.41
407.00	1762.42
407.20	1806.89
407.39	1790.51
407.58	1811.57
407.77	1781.15
407.96	1952.01
408.15	2066.69
408.34	1870.09
408.54	2026.90
408.73	1834.98
408.92	1975.41
409.11	1980.09
409.30	1966.05
409.49	1989.46
409.68	1961.37
409.87	2092.44
410.07	2083.08
410.26	2038.61
410.45	2106.48
410.64	2134.57
410.83	2218.83
411.02	2232.87
411.21	2214.15
411.40	2251.60
411.59	2300.75
411.78	2263.30
411.98	2326.49
412.17	2443.52
412.36	2392.03
412.55	2380.32
412.74	2415.43
412.93	2525.44
413.12	2473.95
413.31	2466.92
413.50	2499.69
413.69	2464.58
413.88	2588.63
414.07	2553.52
414.26	2553.52
414.45	2555.86
414.64	2719.70
414.83	2647.15
415.02	2665.87
415.22	2719.70
415.41	2780.56
415.60	2778.22
415.79	2909.29
415.98	2913.97
416.17	3014.61
416.36	3047.38
416.55	2963.12
416.74	2991.20
416.93	2979.50
417.12	3087.17
417.31	2958.44
417.50	3054.40
417.69	3229.94
417.88	3166.74
418.07	3192.49
418.26	3176.11
418.45	3164.40
418.64	3295.47
418.83	3293.13
419.02	3365.69
419.21	3176.11
419.39	3351.65
419.58	3365.69
419.77	3279.09
419.96	3454.63
420.15	3506.12
420.34	3400.80
420.53	3510.80
420.72	3513.14
420.91	3506.12
421.10	3466.33
421.29	3513.14
421.48	3471.01
421.67	3665.28
421.86	3632.51
422.05	3779.97
422.24	3538.89
422.43	3684.00
422.61	3602.08
422.80	3623.15
422.99	3730.81
423.18	3801.03
423.37	3611.45
423.56	3669.96
423.75	3529.53
423.94	3559.95
424.13	3433.57
424.32	3609.11
424.50	3618.47
424.69	3824.44
424.88	3824.44
425.07	3709.75
425.26	3674.64
425.45	3712.09
425.64	3744.86
425.83	3754.22
426.01	3819.75
426.20	3763.58
426.39	3763.58
426.58	3747.20
426.77	3819.75
426.96	3801.03
427.15	3801.03
427.33	3730.81
427.52	4067.85
427.71	3913.38
427.90	4007.00
428.09	3992.95
428.28	4014.02
428.46	4049.13
428.65	4065.51
428.84	4163.81
429.03	4119.34
429.22	4030.40
429.40	4147.43
429.59	4124.02
429.78	4133.39
429.97	4025.72
430.16	4266.80
430.34	4241.05
430.53	4217.65
430.72	4212.96
430.91	4262.12
431.10	4210.62
431.28	4255.09
431.47	4395.53
431.66	4395.53
431.85	4430.63
432.03	4482.13
432.22	4652.98
432.41	4458.72
432.60	4613.20
432.79	4482.13
432.97	4421.27
433.16	4528.94
433.35	4547.66
433.54	4652.98
433.72	4589.79
433.91	4692.77
434.10	4816.82
434.28	4580.43
434.47	4657.67
434.66	4823.84
434.85	4807.46
435.03	4734.90
435.22	4940.87
435.41	5184.29
435.59	5282.59
435.78	5053.22
435.97	4952.57
436.16	4863.63
436.34	4791.08
436.53	4873.00
436.72	4999.38
436.90	4835.55
437.09	5004.07
437.28	5004.07
437.46	5184.29
437.65	5041.51
437.84	5184.29
438.02	4992.36
438.21	4924.49
438.40	5008.75
438.58	5355.15
438.77	5373.87
438.96	5378.55
439.14	5277.91
439.33	5474.51
439.52	5523.66
439.70	5575.16
439.89	5596.22
440.08	5593.88
440.26	5696.86
440.45	5743.67
440.63	5668.78
440.82	5809.21
441.01	5666.44
441.19	5722.61
441.38	5776.44
441.57	5841.98
441.75	5975.39
441.94	5963.68
442.12	5844.32
442.31	6036.24
442.50	5991.77
442.68	5921.56
442.87	6099.44
443.05	6059.65
443.24	6174.33
443.43	6197.74
443.61	6148.59
443.80	6307.74
443.98	6167.31
444.17	6026.88
444.35	6108.80
444.54	6200.08
444.73	6354.55
444.91	6347.53
445.10	6392.00
445.28	6090.07
445.47	6069.01
445.65	6207.10
445.84	6303.06
446.02	6333.49
446.21	6382.64
446.39	6347.53
446.58	6600.31
446.77	6483.28
446.95	6195.40
447.14	6324.13
447.32	6368.60
447.51	6457.54
447.69	6490.31
447.88	6434.13
448.06	6354.55
448.25	6436.47
448.43	6225.82
448.62	6408.39
448.80	6347.53
448.99	6541.80
449.17	6689.25
449.36	6396.68
449.54	6537.12
449.73	6567.54
449.91	6942.03
450.10	6635.42
450.28	6871.81
450.46	6764.15
450.65	6665.85
450.83	6857.77
451.02	6761.81
451.20	7030.97
451.39	6890.54
451.57	6733.72
451.76	6691.59
451.94	6822.66
452.13	6967.77
452.31	7070.76
452.49	6836.70
452.68	6953.73
452.86	6984.16
453.05	7063.74
453.23	7131.61
453.42	7148.00
453.60	6986.50
453.78	7150.34
453.97	7023.95
454.15	7236.94
454.34	7124.59
454.52	7229.91
454.70	7363.33
454.89	7328.22
455.07	7360.98
455.26	7316.51
455.44	7456.95
455.62	7391.41
455.81	7412.48
455.99	7581.00
456.17	7557.59
456.36	7389.07
456.54	7613.76
456.73	7480.35
456.91	7634.83
457.09	7719.09
457.28	7772.92
457.46	7726.11
457.64	7892.29
457.83	7962.50
458.01	7878.24
458.19	7859.52
458.38	7957.82
458.56	7852.50
458.74	8065.49
458.93	7939.10
459.11	7906.33
459.29	8002.29
459.48	8147.40
459.66	8051.44
459.84	8051.44
460.03	8241.03
460.21	8102.93
460.39	8051.44
460.57	8248.05
460.76	8168.47
460.94	8348.69
461.12	8290.18
461.31	8545.30
461.49	8472.74
461.67	8222.30
461.85	8496.14
462.04	8229.32
462.22	8805.10
462.40	8603.81
462.59	8514.87
462.77	8615.51
462.95	8491.46
463.13	8540.61
463.32	8631.90
463.50	8624.87
463.68	8667.00
463.86	8748.92
464.05	8575.72
464.23	8657.64
464.41	8826.16
464.59	8589.77
464.78	8912.76
464.96	8908.08
465.14	8638.92
465.32	8887.01
465.50	9036.81
465.69	8957.23
465.87	8692.75
466.05	9057.87
466.23	8978.30
466.41	8744.24
466.60	9186.60
466.78	9107.02
466.96	8945.53
467.14	9032.13
467.32	9249.80
467.51	9247.46
467.69	8798.07
467.87	9214.69
468.05	9198.31
468.23	9076.60
468.41	9156.18
468.60	9415.98
468.78	9472.15
468.96	9202.99
469.14	9493.21
469.32	9493.21
469.50	9214.69
469.69	9521.30
469.87	9745.99
470.05	9884.08
470.23	9612.58
470.41	9626.62
470.59	9603.22
470.77	9528.32
470.95	9657.05
471.14	10005.79
471.32	9495.55
471.50	10003.45
471.68	9966.00
471.86	9968.34
472.04	10235.16
472.22	10115.80
472.40	9949.62
472.58	10277.29
472.77	10038.56
472.95	10382.62
473.13	10539.43
473.31	10494.96
473.49	10211.76
473.67	10429.43
473.85	10410.70
474.03	10469.22
474.21	10649.44
474.39	10836.68
474.57	10920.94
474.75	11007.54
474.93	10885.83
475.12	10937.32
475.30	10836.68
475.48	10792.21
475.66	10864.77
475.84	10993.50
476.02	11323.51
476.20	11260.32
476.38	11424.15
476.56	11541.18
476.74	11555.22
476.92	11492.03
477.10	11522.46
477.28	11613.74
477.46	11784.60
477.64	11847.79
477.82	12351.01
478.00	12278.45
478.18	12224.62
478.36	12245.68
478.54	12182.49
478.72	12358.03
478.90	12875.29
479.08	12713.79
479.26	12564.00
479.44	12786.35
479.62	12688.04
479.80	13195.94
479.98	13102.32
480.16	13488.51
480.34	13240.41
480.52	13490.85
480.70	13645.32
480.88	13671.07
481.06	13532.98
481.24	13650.00
481.41	13556.38
481.59	13958.96
481.77	13989.38
481.95	14373.23
482.13	14455.15
482.31	14274.93
482.49	14523.02
482.67	14546.43
482.85	14738.35
483.03	14944.32
483.21	15030.92
483.39	15199.44
483.57	15124.54
483.74	15332.85
483.92	15435.83
484.10	15316.47
484.28	15723.72
484.46	16123.95
484.64	16084.16
484.82	15878.19
485.00	16409.50
485.18	16383.75
485.35	16678.66
485.53	16470.35
485.71	16673.98
485.89	17174.85
486.07	16805.05
486.25	16798.02
486.43	17291.88
486.61	17294.22
486.78	17378.48
486.96	17862.97
487.14	17884.03
487.32	17724.88
487.50	17942.55
487.68	17947.23
487.85	18317.03
488.03	18310.01
488.21	18686.84
488.39	19042.60
488.57	18759.39
488.75	18925.57
488.92	19262.61
489.10	19278.99
489.28	19180.69
489.46	19812.63
489.64	19566.88
489.81	20182.44
489.99	19627.73
490.17	20170.74
490.35	19957.75
490.53	20149.67
490.70	20467.98
490.88	20329.89
491.06	20540.54
491.24	20580.33
491.41	20627.14
491.59	21022.69
491.77	21277.81
491.95	21701.45
492.13	21493.14
492.30	21432.29
492.48	21558.67
492.66	21668.68
492.84	21614.85
493.01	21977.63
493.19	22125.08
493.37	22242.11
493.54	22235.09
493.72	22412.97
493.90	23070.66
494.08	22668.09
494.25	23175.98
494.43	22958.31
494.61	23222.80
494.79	23585.58
494.96	23309.40
495.14	23594.94
495.32	23594.94
495.49	23637.07
495.67	24315.83
495.85	23939.00
496.02	24636.48
496.20	24664.57
496.38	24636.48
496.55	24151.99
496.73	24964.15
496.91	24886.92
497.09	25027.35
497.26	25003.94
497.44	25116.29
497.62	25280.13
497.79	25287.15
497.97	25483.75
498.14	25984.63
498.32	25860.58
498.50	26122.72
498.67	26363.79
498.85	26146.12
499.03	26370.82
499.20	26373.16
499.38	26417.63
499.56	26684.45
499.73	27302.35
499.91	26820.20
500.08	27367.88
500.26	26635.30
500.44	26998.08
500.61	26991.06
500.79	27075.32
500.97	27239.15
501.14	27594.92
501.32	27875.78
501.49	27868.76
501.67	27669.81
501.84	27997.49
502.02	27693.22
502.20	27868.76
502.37	28339.21
502.55	28196.43
502.72	28276.01
502.90	28240.90
503.07	27938.97
503.25	28205.80
503.43	28341.55
503.60	28680.92
503.78	28982.85
503.95	28706.67
504.13	28779.23
504.30	29134.99
504.48	28924.34
504.65	29385.43
504.83	29687.36
505.01	29872.26
505.18	29577.35
505.36	30071.20
505.53	29598.41
505.71	29722.46
505.88	29996.31
506.06	29979.92
506.23	30438.67
506.41	30162.48
506.58	30183.55
506.76	30466.75
506.93	30047.80
507.11	29893.32
507.28	30305.26
507.46	30118.01
507.63	30738.26
507.81	31480.21
507.98	31028.48
508.16	31197.00
508.33	30986.35
508.50	30946.56
508.68	31690.85
508.85	31548.08
509.03	31456.80
509.20	31508.29
509.38	31950.65
509.55	31817.24
509.73	31878.10
509.90	31934.27
510.08	31924.91
510.25	31873.42
510.42	32013.85
510.60	32198.75
510.77	32568.55
510.95	32582.60
511.12	32388.33
511.30	32645.79
511.47	32624.73
511.64	32610.68
511.82	33352.63
511.99	33008.58
512.17	33095.18
512.34	33308.16
512.51	33310.50
512.69	33151.35
512.86	33521.15
513.04	33399.44
513.21	34110.97
513.38	33926.07
513.56	33972.88
513.73	33586.69
513.90	33771.59
514.08	33441.57
514.25	34185.86
514.43	33968.19
514.60	34436.30
514.77	34415.24
514.95	34438.64
515.12	34227.99
515.29	34314.59
515.47	34558.01
515.64	35042.50
515.81	34539.29
515.99	35079.95
516.16	35250.81
516.33	34808.45
516.51	35105.70
516.68	34653.97
516.85	35318.68
517.03	35124.42
517.20	35438.05
517.37	35445.07
517.54	35704.87
517.72	35639.34
517.89	35234.42
518.06	35707.21
518.24	35702.53
518.41	35849.99
518.58	35646.36
518.75	36037.23
518.93	36182.34
519.10	35999.78
519.27	36376.61
519.45	36198.73
519.62	36299.37
519.79	36177.66
519.96	36472.57
520.14	36503.00
520.31	36062.97
520.48	36751.09
520.65	36861.10
520.83	37219.20
521.00	37038.98
521.17	36928.97
521.34	36257.24
521.52	37020.25
521.69	37036.64
521.86	37296.44
522.03	37652.20
522.20	37532.83
522.38	37237.92
522.55	37333.89
522.72	37759.86
522.89	37542.19
523.07	38209.25
523.24	38017.32
523.41	38382.45
523.58	37457.93
523.75	38447.98
523.92	38136.69
524.10	38293.50
524.27	38401.17
524.44	38508.83
524.61	38632.88
524.78	38586.07
524.96	38806.08
525.13	38394.15
525.30	38604.80
525.47	38988.64
525.64	38691.40
525.81	38965.24
525.98	38951.20
526.16	38866.94
526.33	39133.76
526.50	38827.15
526.67	38859.91
526.84	39023.75
527.01	38623.52
527.18	39433.35
527.36	39438.03
527.53	39725.91
527.70	39943.58
527.87	39901.45
528.04	39793.79
528.21	39611.23
528.38	39798.47
528.55	39908.47
528.72	39510.58
528.89	39917.84
529.07	39915.50
529.24	40259.55
529.41	40477.22
529.58	40044.23
529.75	40149.55
529.92	40376.58
530.09	40018.48
530.26	40156.57
530.43	40442.12
530.60	40222.11
530.77	40666.81
530.94	40598.93
531.11	40505.31
531.28	40385.94
531.46	40526.38
531.63	40905.54
531.80	40512.33
531.97	40982.78
532.14	41010.87
532.31	40711.28
532.48	40727.66
532.65	41471.95
532.82	41076.40
532.99	41502.38
533.16	40598.93
533.33	41539.83
533.50	41804.31
533.67	41759.84
533.84	41338.54
534.01	41350.24
534.18	41296.41
534.35	41406.42
534.52	41853.46
534.69	41790.27
534.86	41900.27
535.03	41741.11
535.20	41680.26
535.37	41649.83
535.54	42155.39
535.71	42054.75
535.88	42424.55
536.05	41670.90
536.22	42174.11
536.38	42873.93
536.55	42185.82
536.72	42808.40
536.89	42270.08
537.06	42466.68
537.23	42504.13
537.40	42333.27
537.57	42520.51
537.74	42532.22
537.91	42897.34
538.08	43178.20
538.25	42464.34
538.42	42934.79
538.59	42768.61
538.75	42691.37
538.92	42820.10
539.09	42827.12
539.26	43351.40
539.43	43105.65
539.60	43639.29
539.77	42792.01
539.94	43243.74
540.11	43157.14
540.28	43363.11
540.44	43428.64
540.61	43222.67
540.78	43302.25
540.95	43693.12
541.12	43405.23
541.29	44039.52
541.46	44133.14
541.62	43988.03
541.79	44041.86
541.96	44074.63
542.13	43744.61
542.30	43817.17
542.47	43971.64
542.63	44449.11
542.80	44334.43
542.97	44479.54
543.14	44369.54
543.31	44067.61
543.48	44154.21
543.64	44631.68
543.81	44711.25
543.98	45036.59
544.15	45455.54
544.32	44783.81
544.48	45074.04
544.65	44673.81
544.82	44542.74
544.99	44245.49
545.16	44811.90
545.32	44638.70
545.49	45858.12
545.66	46211.54
545.83	45949.40
546.00	45724.71
546.16	45652.15
546.33	44921.90
546.50	44533.37
546.67	45565.55
546.83	44617.63
547.00	45291.71
547.17	45118.51
547.34	45289.37
547.50	45146.59
547.67	45375.97
547.84	45338.52
548.00	45221.49
548.17	46005.57
548.34	45425.12
548.51	45750.45
548.67	45713.00
548.84	45811.31
549.01	45720.02
549.18	45677.90
549.34	45855.78
549.51	45347.88
549.68	45326.81
549.84	45593.64
550.01	45684.92
550.18	45420.44
550.34	45895.56
550.51	46019.61
550.68	45879.18
550.84	45263.62
551.01	45579.59
551.18	45375.97
551.34	45488.31
551.51	45785.56
551.68	46291.12
551.84	46227.92
552.01	46387.08
552.18	46295.80
552.34	45743.43
552.51	46183.45
552.68	45900.25
552.84	46085.15
553.01	46031.32
553.18	46543.89
553.34	46450.27
553.51	46770.93
553.67	46298.14
553.84	46595.38
554.01	46698.37
554.17	46499.42
554.34	46653.90
554.51	46293.46
554.67	46691.35
554.84	46459.63
555.00	46646.88
555.17	46295.80
555.33	46728.80
555.50	46756.88
555.67	46614.11
555.83	46796.67
556.00	46347.29
556.16	47007.32
556.33	46831.78
556.50	46988.60
556.66	46834.12
556.83	46553.26
556.99	47065.83
557.16	47208.61
557.32	47093.92
557.49	46796.67
557.65	46429.21
557.82	46745.18
557.98	46703.05
558.15	47145.41
558.32	47035.41
558.48	46838.80
558.65	47297.55
558.81	47236.69
558.98	46885.61
559.14	47138.39
559.31	47070.51
559.47	46756.88
559.64	46937.10
559.80	47339.68
559.97	47147.75
560.13	47028.38
560.30	47285.84
560.46	47154.77
560.63	47192.22
560.79	47447.34
560.96	47372.44
561.12	47157.11
561.29	47267.12
561.45	47618.20
561.61	47400.53
561.78	47416.91
561.94	47746.93
562.11	47285.84
562.27	47320.95
562.44	47124.35
562.60	47536.28
562.77	47452.02
562.93	47180.52
563.10	47508.19
563.26	47777.36
563.42	47430.96
563.59	47292.86
563.75	47583.09
563.92	47437.98
564.08	47599.47
564.24	47070.51
564.41	47281.16
564.57	47229.67
564.74	47089.24
564.90	47583.09
565.07	47445.00
565.23	47344.36
565.39	47372.44
565.56	47632.24
565.72	47253.08
565.88	47540.96
566.05	47311.59
566.21	47592.45
566.38	47587.77
566.54	47372.44
566.70	47716.50
566.87	47980.98
567.03	47681.39
567.19	47714.16
567.36	47791.40
567.52	47512.88
567.68	47910.77
567.85	47578.41
568.01	47512.88
568.17	47426.28
568.34	47667.35
568.50	48023.11
568.66	47646.29
568.83	47629.90
568.99	47550.32
569.15	47948.21
569.32	47749.27
569.48	47697.78
569.64	47875.66
569.81	47840.55
569.97	47550.32
570.13	47887.36
570.30	47828.85
570.46	47906.08
570.62	47793.74
570.78	47831.19
570.95	47721.18
571.11	47803.10
571.27	47737.57
571.43	47875.66
571.60	47676.71
571.76	48006.73
571.92	47674.37
572.09	47983.32
572.25	47779.70
572.41	47587.77
572.57	48224.40
572.74	48123.75
572.90	47863.96
573.06	47793.74
573.22	47798.42
573.38	47789.06
573.55	47613.52
573.71	48303.98
573.87	47962.26
574.03	47674.37
574.20	48009.07
574.36	47824.17
574.52	47894.38
574.68	47714.16
574.84	48039.50
575.01	47936.51
575.17	47938.85
575.33	47847.57
575.49	48067.58
575.65	48308.66
575.82	48154.18
575.98	47901.40
576.14	47650.97
576.30	48004.39
576.46	48296.95
576.62	47744.59
576.79	48493.56
576.95	47870.98
577.11	48095.67
577.27	47770.33
577.43	47842.89
577.59	48041.84
577.75	47800.76
577.92	47510.53
578.08	47475.43
578.24	47643.94
578.40	48203.33
578.56	47629.90
578.72	48156.52
578.88	47885.02
579.04	48107.37
579.21	47723.52
579.37	47969.28
579.53	48175.25
579.69	47700.12
579.85	47531.60
580.01	48090.99
580.17	48051.20
580.33	47842.89
580.49	48140.14
580.65	48058.22
580.82	48369.51
580.98	47533.94
581.14	47772.67
581.30	48411.64
581.46	47723.52
581.62	48055.88
581.78	47789.06
581.94	48102.69
582.10	47793.74
582.26	48004.39
582.42	48184.61
582.58	48266.53
582.74	48133.12
582.90	48362.49
583.06	48065.24
583.22	47627.56
583.38	47929.49
583.54	47641.60
583.70	47812.46
583.86	48053.54
584.02	47657.99
584.18	47887.36
584.34	47861.61
584.50	48280.57
584.66	47873.32
584.82	47856.93
584.98	48041.84
585.14	47695.44
585.30	47852.25
585.46	48219.72
585.62	47840.55
585.78	48294.61
585.94	47920.13
586.10	48254.82
586.26	48247.80
586.42	48142.48
586.58	47880.34
586.74	47810.12
586.90	47842.89
587.06	48229.08
587.22	47856.93
587.38	47875.66
587.54	48268.87
587.70	48783.79
587.86	47608.84
588.02	48065.24
588.18	47903.74
588.34	48423.34
588.49	48020.77
588.65	47767.99
588.81	48259.51
588.97	47835.87
589.13	48306.32
589.29	48231.42
589.45	48196.31
589.61	48177.59
589.77	48533.35
589.93	48332.06
590.08	48341.42
590.24	48208.01
590.40	48439.73
590.56	48343.77
590.72	48238.44
590.88	47929.49
591.04	48329.72
591.20	48502.92
591.35	48500.58
591.51	48910.17
591.67	48629.31
591.83	48460.79
591.99	48549.73
592.15	48226.74
592.31	48561.44
592.46	48224.40
592.62	48123.75
592.78	48315.68
592.94	48261.85
593.10	48109.71
593.26	48163.54
593.41	48451.43
593.57	48413.98
593.73	48327.38
593.89	48563.78
594.05	48109.71
594.20	48222.06
594.36	48210.35
594.52	48215.04
594.68	48095.67
594.84	47936.51
594.99	48318.02
595.15	48360.15
595.31	48900.81
595.47	48250.14
595.62	48453.77
595.78	48156.52
595.94	48556.75
596.10	48402.28
596.25	48107.37
596.41	48079.28
596.57	47817.14
596.73	48514.62
596.88	48236.10
597.04	48439.73
597.20	48435.05
597.36	48470.15
597.51	48582.50
597.67	48072.26
597.83	48273.55
597.99	48341.42
598.14	47906.08
598.30	48226.74
598.46	48112.05
598.61	48643.35
598.77	47995.03
598.93	48512.28
599.09	48318.02
599.24	48683.14
599.40	48278.23
599.56	48772.08
599.71	48460.79
599.87	48395.26
600.03	48034.81
600.18	48411.64
600.34	48261.85
600.50	48037.16
600.65	48383.55
600.81	48334.40
600.97	48584.84
601.12	48622.29
601.28	48486.54
601.44	48294.61
601.59	48364.83
601.75	48069.92
601.91	48273.55
602.06	47931.83
602.22	48456.11
602.37	48224.40
602.53	48381.21
602.69	48416.32
602.84	48229.08
603.00	48142.48
603.16	48409.30
603.31	48285.25
603.47	48086.31
603.62	47847.57
603.78	48158.86
603.94	47641.60
604.09	48083.97
604.25	47952.90
604.40	48191.63
604.56	47777.36
604.71	48294.61
604.87	48182.27
605.03	48428.02
605.18	48109.71
605.34	48023.11
605.49	47796.08
605.65	47470.75
605.80	47627.56
605.96	48039.50
606.12	47522.24
606.27	47959.92
606.43	47861.61
606.58	48119.07
606.74	47840.55
606.89	47887.36
607.05	48144.82
607.20	47985.66
607.36	47854.59
607.51	47990.34
607.67	47814.80
607.82	47641.60
607.98	47821.83
608.13	47650.97
608.29	47739.91
608.44	47882.68
608.60	47983.32
608.75	48193.97
608.91	47559.69
609.06	47662.67
609.22	48079.28
609.37	48004.39
609.53	47716.50
609.68	47721.18
609.84	47456.70
609.99	47992.68
610.15	47573.73
610.30	47873.32
610.46	48041.84
610.61	48210.35
610.76	48161.20
610.92	48411.64
611.07	48470.15
611.23	48500.58
611.38	48053.54
611.54	47903.74
611.69	47784.38
611.84	47538.62
612.00	47276.48
612.15	47110.30
612.31	47667.35
612.46	47536.28
612.62	47407.55
612.77	47655.65
612.92	47512.88
613.08	47482.45
613.23	47723.52
613.39	47138.39
613.54	47543.30
613.69	47313.93
613.85	47360.74
614.00	47140.73
614.15	47456.70
614.31	47246.05
614.46	47409.89
614.62	47519.90
614.77	47412.23
614.92	47435.64
615.08	47253.08
615.23	47021.36
615.38	46941.78
615.54	46911.36
615.69	46653.90
615.84	46445.59
616.00	47065.83
616.15	46677.30
616.30	47512.88
616.46	46927.74
616.61	47203.92
616.76	47295.21
616.92	46681.98
617.07	46696.03
617.22	46485.38
617.37	46473.68
617.53	46930.08
617.68	46216.22
617.83	46405.80
617.99	46649.22
618.14	46698.37
618.29	46251.33
618.45	46539.21
618.60	46810.71
618.75	46387.08
618.90	46667.94
619.06	46342.61
619.21	46248.99
619.36	46431.55
619.51	45982.16
619.67	46368.35
619.82	45949.40
619.97	46024.29
620.12	46256.01
620.28	45811.31
620.43	46237.28
620.58	46089.83
620.73	46422.19
620.89	46562.62
621.04	46295.80
621.19	46150.68
621.34	46162.39
621.49	46045.36
621.65	45542.14
621.80	45937.69
621.95	45511.72
622.10	46099.19
622.25	46110.89
622.41	45886.20
622.56	45457.88
622.71	46244.30
622.86	46153.02
623.01	45764.49
623.16	45619.38
623.32	45921.31
623.47	45387.67
623.62	45511.72
623.77	45635.77
623.92	46028.98
624.07	45195.74
624.23	45558.53
624.38	45221.49
624.53	45537.46
624.68	45457.88
624.83	45535.12
624.98	45507.04
625.13	45045.95
625.29	45523.42
625.44	45485.97
625.59	45181.70
625.74	45024.89
625.89	44921.90
626.04	45102.12
626.19	44814.24
626.34	44994.46
626.49	44828.28
626.65	45202.77
626.80	45151.27
626.95	45102.12
627.10	44751.04
627.25	44720.62
627.40	44566.14
627.55	44851.69
627.70	44832.96
627.85	44790.83
628.00	44701.89
628.15	44392.94
628.30	44549.76
628.45	44715.93
628.60	44811.90
628.76	44971.05
628.91	44959.35
629.06	44746.36
629.21	45001.48
629.36	44547.42
629.51	44299.32
629.66	44144.84
629.81	44067.61
629.96	44186.97
630.11	44093.35
630.26	44334.43
630.41	44329.75
630.56	44414.01
630.71	44671.46
630.86	44708.91
631.01	44327.41
631.16	44060.58
631.31	44292.30
631.46	44615.29
631.61	44292.30
631.76	44306.34
631.91	44076.97
632.06	43859.30
632.21	43849.94
632.36	43718.87
632.51	43449.70
632.66	43821.85
632.81	43672.06
632.96	43693.12
633.10	43475.45
633.25	43732.91
633.40	44046.54
633.55	43559.71
633.70	43578.43
633.85	43491.83
634.00	43302.25
634.15	43349.06
634.30	43381.83
634.45	43330.34
634.60	43496.52
634.75	43955.26
634.90	43552.69
635.05	43217.99
635.19	43061.18
635.34	43739.93
635.49	43641.63
635.64	43449.70
635.79	43356.08
635.94	43047.13
636.09	43306.93
636.24	43227.35
636.39	43026.07
636.53	43297.57
636.68	43124.37
636.83	42976.92
636.98	43306.93
637.13	42997.98
637.28	43545.67
637.43	43569.07
637.57	43175.86
637.72	43016.71
637.87	43105.65
638.02	42555.62
638.17	42951.17
638.32	42866.91
638.46	42562.64
638.61	42642.22
638.76	42171.77
638.91	42637.54
639.06	43035.43
639.20	42822.44
639.35	42749.88
639.50	42855.21
639.65	42394.12
639.80	42712.44
639.94	42593.07
640.09	42557.96
640.24	42714.78
640.39	42653.92
640.54	42249.01
640.68	42466.68
640.83	42625.84
640.98	41607.70
641.13	41717.71
641.27	42134.32
641.42	42139.00
641.57	42040.70
641.72	42770.95
641.86	42122.62
642.01	42258.37
642.16	42356.67
642.31	42010.28
642.45	42316.89
642.60	41464.93
642.75	42052.41
642.90	41998.57
643.04	41752.82
643.19	41476.63
643.34	41516.42
643.48	41785.58
643.63	41748.14
643.78	41972.83
643.93	41979.85
644.07	41448.55
644.22	41879.21
644.37	41633.45
644.51	41457.91
644.66	41801.97
644.81	41249.60
644.95	41743.45
645.10	41818.35
645.25	41057.68
645.39	41394.71
645.54	41572.60
645.69	41731.75
645.83	41490.68
645.98	41556.21
646.13	41581.96
646.27	41940.06
646.42	41649.83
646.57	41200.45
646.71	41256.62
646.86	41195.77
647.00	41345.56
647.15	41006.19
647.30	41488.34
647.44	41179.39
647.59	41235.56
647.74	41375.99
647.88	41123.21
648.03	41223.86
648.17	41483.66
648.32	41188.75
648.47	41010.87
648.61	40800.22
648.76	40631.70
648.90	41071.72
649.05	41165.34
649.20	40666.81
649.34	40500.63
649.49	40910.22
649.63	40418.71
649.78	40769.79
649.92	40573.19
650.07	41036.61
650.21	40399.99
650.36	40612.98
650.51	40622.34
650.65	40978.10
650.80	41027.25
650.94	40942.99
651.09	40926.61
651.23	40297.00
651.38	40217.43
651.52	40502.97
651.67	40381.26
651.81	40446.80
651.96	40261.90
652.10	40311.05
652.25	40437.44
652.39	39894.43
652.54	40325.09
652.68	40652.76
652.83	40449.14
652.97	40102.74
653.12	40430.41
653.26	40397.65
653.41	40128.48
653.55	39969.33
653.70	40051.25
653.84	39852.30
653.99	39562.08
654.13	39934.22
654.27	40051.25
654.42	39831.24
654.56	39505.90
654.71	39864.00
654.85	40004.44
655.00	40194.02
655.14	39498.88
655.29	39505.90
655.43	39711.87
655.57	39421.64
655.72	39449.73
655.86	39456.75
656.01	39775.06
656.15	38902.04
656.30	39210.99
656.44	39445.05
656.58	39239.08
656.73	39674.42
656.87	39519.95
657.01	39426.32
657.16	39971.67
657.30	39402.92
657.45	39470.79
657.59	39562.08
657.73	39206.31
657.88	38909.07
658.02	38906.73
658.16	38857.57
658.31	39072.90
658.45	38742.89
658.60	38862.26
658.74	38597.77
658.88	39028.43
659.03	38955.88
659.17	38412.87
659.31	38906.73
659.46	38333.29
659.60	38983.96
659.74	38714.80
659.89	38389.47
660.03	38525.22
660.17	38824.81
660.32	38085.20
660.46	38684.37
660.60	38436.28
660.74	37956.47
660.89	37963.49
661.03	38146.05
661.17	37682.62
661.32	38129.67
661.46	37799.65
661.60	38113.28
661.74	37968.17
661.89	37998.60
662.03	38237.33
662.17	38003.28
662.31	37577.30
662.46	37869.87
662.60	37912.00
662.74	37794.97
662.88	37663.90
663.03	37528.15
663.17	37048.34
663.31	37593.68
663.45	37338.57
663.60	37408.78
663.74	36992.17
663.88	37165.37
664.02	37046.00
664.17	37422.83
664.31	36980.46
664.45	36992.17
664.59	36741.73
664.73	37099.83
664.88	36720.66
665.02	36825.99
665.16	36725.35
665.30	36842.37
665.44	36825.99
665.59	35913.18
665.73	36306.39
665.87	36259.58
666.01	36290.01
666.15	36760.45
666.29	36453.84
666.44	37034.30
666.58	36107.44
666.72	36561.51
666.86	36297.03
667.00	36449.16
667.14	36252.56
667.28	35772.75
667.43	36301.71
667.57	36030.21
667.71	35674.45
667.85	35814.88
667.99	35592.53
668.13	35849.99
668.27	35557.42
668.41	35566.78
668.56	35496.56
668.70	35971.69
668.84	35583.16
668.98	35721.26
669.12	35548.06
669.26	35365.49
669.40	35243.79
669.54	35290.60
669.68	35475.50
669.82	35115.06
669.96	35093.99
670.10	34625.89
670.25	34567.37
670.39	34857.60
670.53	34855.26
670.67	34675.04
670.81	34457.37
670.95	34572.05
671.09	34639.93
671.23	34656.31
671.37	34714.83
671.51	34763.98
671.65	34752.27
671.79	33778.61
671.93	34103.95
672.07	33930.75
672.21	33975.22
672.35	33820.74
672.49	33762.23
672.63	33844.15
672.77	33464.98
672.91	33839.47
673.05	33532.86
673.19	33738.82
673.33	33755.21
673.47	33596.05
673.61	33776.27
673.75	33797.34
673.89	33668.61
674.03	33371.36
674.17	33039.00
674.31	33191.14
674.45	33003.89
674.59	33055.39
674.73	33226.24
674.87	32708.99
675.01	32360.25
675.15	32704.31
675.29	32407.06
675.43	32474.93
675.56	32638.77
675.70	32559.19
675.84	32718.35
675.98	31854.69
676.12	32357.91
676.26	31988.10
676.40	32624.73
676.54	31983.42
676.68	32074.70
676.82	31309.35
676.96	31695.53
677.10	31744.69
677.23	31529.36
677.37	31157.21
677.51	31136.15
677.65	31201.68
677.79	31119.76
677.93	31019.12
678.07	30813.15
678.21	30307.60
678.34	30927.84
678.48	30654.00
678.62	30738.26
678.76	30661.02
678.90	30295.89
679.04	30391.86
679.18	30108.65
679.31	30103.97
679.45	30197.59
679.59	29923.75
679.73	29790.34
679.87	29584.37
680.00	29488.41
680.14	29355.00
680.28	29429.90
680.42	29268.40
680.56	29488.41
680.70	29490.75
680.83	29170.10
680.97	29294.14
681.11	29572.67
681.25	29057.75
681.39	29102.22
681.52	29013.28
681.66	28968.81
681.80	28318.14
681.94	28664.54
682.07	28701.99
682.21	28009.19
682.35	28353.25
682.49	28290.06
682.62	28229.20
682.76	28081.75
682.90	28018.55
683.04	27812.59
683.17	27845.35
683.31	27852.38
683.45	27828.97
683.59	27433.42
683.72	27592.58
683.86	27328.10
684.00	27094.04
684.13	27075.32
684.27	27194.68
684.41	27040.21
684.55	26934.88
684.68	26909.14
684.82	26473.80
684.96	26494.86
685.09	26986.38
685.23	26164.85
685.37	26625.93
685.50	26183.57
685.64	26394.22
685.78	26153.15
685.91	26270.17
686.05	26293.58
686.19	25874.62
686.32	26005.69
686.46	25486.09
686.60	25516.52
686.73	25373.75
686.87	25429.92
687.01	25546.95
687.14	25170.12
687.28	24910.32
687.42	25032.03
687.55	25156.08
687.69	24926.71
687.82	25064.80
687.96	24924.36
688.10	24659.88
688.23	24650.52
688.37	24549.88
688.50	24580.31
688.64	24629.46
688.78	24629.46
688.91	24058.37
689.05	23913.25
689.18	24261.99
689.32	23604.30
689.46	23662.82
689.59	23655.79
689.73	23611.32
689.86	23428.76
690.00	23300.03
690.13	23435.78
690.27	23082.36
690.41	22972.36
690.54	23274.29
690.68	23159.60
690.81	23204.07
690.95	23154.92
691.08	22782.77
691.22	22869.37
691.35	22492.55
691.49	22979.38
691.62	22651.70
691.76	22539.36
691.89	22169.55
692.03	22141.47
692.16	21752.94
692.30	22169.55
692.43	22010.40
692.57	22059.55
692.70	22108.70
692.84	21596.12
692.97	21734.21
693.11	21640.59
693.24	21610.17
693.38	21764.64
693.51	21411.22
693.65	21666.34
693.78	21516.54
693.92	21528.25
694.05	21383.13
694.19	20872.90
694.32	20851.83
694.45	20730.12
694.59	20489.05
694.72	20655.23
694.86	20372.02
694.99	19932.00
695.13	20081.80
695.26	20257.34
695.39	19960.09
695.53	20350.96
695.66	20332.23
695.80	20259.68
695.93	20056.05
696.07	19829.02
696.20	19908.60
696.33	19431.13
696.47	19625.39
696.60	19721.35
696.73	19550.49
696.87	19281.33
697.00	19115.16
697.14	19157.28
697.27	19005.15
697.40	19056.64
697.54	18740.67
697.67	18588.53
697.80	18476.19
697.94	18738.33
698.07	18345.12
698.21	18286.61
698.34	18541.72
698.47	18539.38
698.61	18223.41
698.74	18258.52
698.87	18424.70
699.01	18310.01
699.14	18094.68
699.27	17935.53
699.40	17942.55
699.54	17879.35
699.67	17547.00
699.80	17446.35
699.94	17858.29
700.07	17577.42
700.20	16978.25
700.34	17032.08
700.47	17247.41
700.60	17200.60
700.73	17256.77
700.87	17205.28
701.00	16812.07
701.13	17006.33
701.26	17174.85
701.40	16917.39
701.53	16556.95
701.66	16947.82
701.79	16662.27
701.93	16636.53
702.06	16470.35
702.19	15941.39
702.32	16109.91
702.46	15969.48
702.59	16152.04
702.72	15658.18
702.85	15611.37
702.99	15932.03
703.12	15704.99
703.25	15756.49
703.38	15555.20
703.51	15492.01
703.65	15559.88
703.78	15496.69
703.91	15480.30
704.04	15559.88
704.17	15489.67
704.31	15269.66
704.44	15035.60
704.57	14925.60
704.70	15059.01
704.83	14834.32
704.96	14986.45
705.10	14888.15
705.23	14633.03
>>>>>End Processed Spectral Data<<<<<
