SpectraSuite Data File
++++++++++++++++++++++++++++++++++++
Date: Fri Oct 04 11:39:37 GMT-05:00 2013
User: price-jones
Dark Spectrum Present: No
Reference Spectrum Present: No
Number of Sampled Component Spectra: 1
Spectrometers: USB2+H05261
Integration Time (usec): 100000 (USB2+H05261)
Spectra Averaged: 1 (USB2+H05261)
Boxcar Smoothing: 0 (USB2+H05261)
Correct for Electrical Dark: No (USB2+H05261)
Strobe/Lamp Enabled: No (USB2+H05261)
Correct for Detector Non-linearity: No (USB2+H05261)
Correct for Stray Light: No (USB2+H05261)
Number of Pixels in Processed Spectrum: 2048
>>>>>Begin Processed Spectral Data<<<<<
365.73	102.98
365.92	102.98
366.12	102.98
366.32	0.00
366.52	18.72
366.72	0.00
366.91	0.00
367.11	0.00
367.31	0.00
367.51	0.00
367.70	0.00
367.90	0.00
368.10	0.00
368.30	0.00
368.49	0.00
368.69	0.00
368.89	0.00
369.09	0.00
369.28	0.00
369.48	0.00
369.68	0.00
369.87	0.00
370.07	11.70
370.27	51.49
370.47	86.60
370.66	266.82
370.86	344.06
371.06	287.89
371.25	374.49
371.45	327.68
371.65	365.12
371.84	360.44
372.04	346.40
372.24	407.25
372.44	407.25
372.63	327.68
372.83	428.32
373.03	372.15
373.22	425.98
373.42	423.64
373.62	486.83
373.81	423.64
374.01	411.93
374.21	393.21
374.40	381.51
374.60	430.66
374.79	414.27
374.99	465.77
375.19	395.55
375.38	482.15
375.58	479.81
375.78	505.56
375.97	475.13
376.17	557.05
376.37	449.38
376.56	475.13
376.76	503.22
376.95	517.26
377.15	479.81
377.35	442.36
377.54	482.15
377.74	470.45
377.93	442.36
378.13	456.40
378.33	540.66
378.52	531.30
378.72	533.64
378.91	461.09
379.11	517.26
379.31	475.13
379.50	456.40
379.70	566.41
379.89	528.96
380.09	482.15
380.28	566.41
380.48	421.30
380.68	414.27
380.87	545.34
381.07	498.53
381.26	561.73
381.46	594.50
381.65	547.69
381.85	613.22
382.04	507.90
382.24	538.32
382.43	594.50
382.63	582.79
382.83	521.94
383.02	603.86
383.22	503.22
383.41	571.09
383.61	564.07
383.80	643.65
384.00	634.29
384.19	559.39
384.39	554.71
384.58	587.47
384.78	620.24
384.97	655.35
385.17	599.18
385.36	622.58
385.56	706.84
385.75	643.65
385.95	645.99
386.14	697.48
386.34	720.88
386.53	720.88
386.72	709.18
386.92	688.12
387.11	676.41
387.31	737.27
387.50	643.65
387.70	671.73
387.89	739.61
388.09	624.92
388.28	657.69
388.48	620.24
388.67	765.36
388.86	692.80
389.06	823.87
389.25	744.29
389.45	692.80
389.64	767.70
389.84	795.78
390.03	777.06
390.22	786.42
390.42	748.97
390.61	734.93
390.81	734.93
391.00	816.85
391.19	791.10
391.39	866.00
391.58	894.08
391.78	758.33
391.97	779.40
392.16	833.23
392.36	943.24
392.55	847.27
392.75	894.08
392.94	875.36
393.13	945.58
393.33	770.04
393.52	837.91
393.71	898.77
393.91	826.21
394.10	814.51
394.29	884.72
394.49	868.34
394.68	863.66
394.88	1022.81
395.07	938.55
395.26	917.49
395.46	940.90
395.65	943.24
395.84	971.32
396.04	1043.88
396.23	997.07
396.42	1001.75
396.62	971.32
396.81	966.64
397.00	985.37
397.19	994.73
397.39	1086.01
397.58	1139.84
397.77	1104.73
397.97	1041.54
398.16	1034.52
398.35	1022.81
398.55	1027.50
398.74	1137.50
398.93	1139.84
399.12	1050.90
399.32	1114.10
399.51	1109.41
399.70	1217.08
399.90	1224.10
400.09	1219.42
400.28	1203.04
400.47	1231.12
400.67	1221.76
400.86	1238.14
401.05	1289.64
401.24	1350.49
401.44	1254.53
401.63	1259.21
401.82	1303.68
402.01	1327.08
402.21	1238.14
402.40	1263.89
402.59	1306.02
402.78	1334.11
402.97	1350.49
403.17	1416.02
403.36	1357.51
403.55	1303.68
403.74	1418.36
403.93	1504.96
404.13	1481.56
404.32	1540.07
404.51	1533.05
404.70	1547.09
404.89	1481.56
405.09	1465.18
405.28	1504.96
405.47	1556.46
405.66	1544.75
405.85	1509.65
406.05	1497.94
406.24	1575.18
406.43	1533.05
406.62	1631.35
406.81	1699.23
407.00	1687.53
407.20	1556.46
407.39	1689.87
407.58	1736.68
407.77	1816.26
407.96	1797.53
408.15	1795.19
408.34	1834.98
408.54	1767.10
408.73	1806.89
408.92	1832.64
409.11	1820.94
409.30	1928.60
409.49	1923.92
409.68	1872.43
409.87	1909.88
410.07	1973.07
410.26	1942.64
410.45	2017.54
410.64	2031.58
410.83	1989.46
411.02	2040.95
411.21	2136.91
411.40	2022.22
411.59	2040.95
411.78	2190.74
411.98	2246.91
412.17	2279.68
412.36	2183.72
412.55	2207.13
412.74	2422.45
412.93	2310.11
413.12	2298.41
413.31	2385.01
413.50	2312.45
413.69	2312.45
413.88	2462.24
414.07	2443.52
414.26	2431.82
414.45	2588.63
414.64	2506.71
414.83	2473.95
415.02	2574.59
415.22	2612.04
415.41	2654.17
415.60	2794.60
415.79	2689.28
415.98	2665.87
416.17	2677.57
416.36	2675.23
416.55	2801.62
416.74	2867.16
416.93	2778.22
417.12	2963.12
417.31	2930.35
417.50	3016.95
417.69	3033.33
417.88	3019.29
418.07	2977.16
418.26	3063.76
418.45	3075.46
418.64	3197.17
418.83	3145.68
419.02	3141.00
419.21	3197.17
419.39	3157.38
419.58	3119.93
419.77	3077.80
419.96	3208.87
420.15	3337.60
420.34	3178.45
420.53	3220.58
420.72	3440.59
420.91	3372.71
421.10	3265.05
421.29	3485.06
421.48	3262.71
421.67	3442.93
421.86	3393.78
422.05	3517.83
422.24	3426.54
422.43	3384.41
422.61	3428.88
422.80	3517.83
422.99	3405.48
423.18	3639.53
423.37	3517.83
423.56	3499.10
423.75	3632.51
423.94	3463.99
424.13	3393.78
424.32	3440.59
424.50	3602.08
424.69	3557.61
424.88	3618.47
425.07	3463.99
425.26	3433.57
425.45	3417.18
425.64	3595.06
425.83	3534.21
426.01	3606.77
426.20	3595.06
426.39	3471.01
426.58	3618.47
426.77	3604.42
426.96	3684.00
427.15	3639.53
427.33	3784.65
427.52	3728.47
427.71	3758.90
427.90	3803.37
428.09	3822.09
428.28	3882.95
428.46	3943.80
428.65	3871.25
428.84	3971.89
429.03	3997.64
429.22	3822.09
429.40	3824.44
429.59	3962.53
429.78	3719.11
429.97	3613.79
430.16	3801.03
430.34	3997.64
430.53	4112.32
430.72	4042.11
430.91	3995.29
431.10	4124.02
431.28	4177.86
431.47	4210.62
431.66	4182.54
431.85	4077.21
432.03	4182.54
432.22	4334.67
432.41	4320.63
432.60	4416.59
432.79	4269.14
432.97	4329.99
433.16	4264.46
433.35	4329.99
433.54	4493.83
433.72	4482.13
433.91	4472.76
434.10	4428.29
434.28	4402.55
434.47	4477.44
434.66	4643.62
434.85	4496.17
435.03	4753.63
435.22	4699.80
435.41	4924.49
435.59	4938.53
435.78	4887.04
435.97	4720.86
436.16	4744.27
436.34	4751.29
436.53	4681.07
436.72	4812.14
436.90	4617.88
437.09	4856.61
437.28	4713.84
437.46	4697.46
437.65	4791.08
437.84	4746.61
438.02	4908.10
438.21	4770.01
438.40	4858.95
438.58	4992.36
438.77	5022.79
438.96	5078.96
439.14	5093.01
439.33	5252.16
439.52	5210.03
439.70	5256.84
439.89	5195.99
440.08	5392.59
440.26	5434.72
440.45	5394.93
440.63	5355.15
440.82	5418.34
441.01	5420.68
441.19	5612.60
441.38	5575.16
441.57	5624.31
441.75	5535.37
441.94	5577.50
442.12	5696.86
442.31	5673.46
442.50	5706.23
442.68	5748.36
442.87	5872.40
443.05	5710.91
443.24	5818.57
443.43	5898.15
443.61	5963.68
443.80	6125.18
443.98	5907.51
444.17	5757.72
444.35	6052.63
444.54	6024.54
444.73	5951.98
444.91	5959.00
445.10	5996.45
445.28	5973.05
445.47	6024.54
445.65	6012.84
445.84	5909.85
446.02	6090.07
446.21	6078.37
446.39	5914.53
446.58	6120.50
446.77	6076.03
446.95	5884.11
447.14	6033.90
447.32	6106.46
447.51	6099.44
447.69	6036.24
447.88	6258.59
448.06	5975.39
448.25	6122.84
448.43	6104.12
448.62	6164.97
448.80	6171.99
448.99	6361.58
449.17	6324.13
449.36	6176.67
449.54	6455.20
449.73	6459.88
449.91	6626.06
450.10	6487.96
450.28	6408.39
450.46	6516.05
450.65	6614.35
450.83	6459.88
451.02	6534.78
451.20	6527.75
451.39	6321.79
451.57	6555.84
451.76	6569.88
451.94	6572.22
452.13	6642.44
452.31	6717.34
452.49	6464.56
452.68	6651.80
452.86	6832.02
453.05	6913.94
453.23	6850.75
453.42	6640.10
453.60	6647.12
453.78	6820.32
453.97	6722.02
454.15	6768.83
454.34	6801.60
454.52	6927.99
454.70	6675.21
454.89	7030.97
455.07	7035.65
455.26	6902.24
455.44	7105.87
455.62	7131.61
455.81	7052.03
455.99	7220.55
456.17	7241.62
456.36	7028.63
456.54	7164.38
456.73	7454.61
456.91	7421.84
457.09	7478.01
457.28	7503.76
457.46	7368.01
457.64	7695.68
457.83	7428.86
458.01	7438.22
458.19	7522.48
458.38	7445.24
458.56	7620.78
458.74	7662.91
458.93	7515.46
459.11	7712.07
459.29	7667.60
459.48	7714.41
459.66	7712.07
459.84	7761.22
460.03	7791.64
460.21	7887.61
460.39	7840.79
460.57	7742.49
460.76	7885.26
460.94	7871.22
461.12	7836.11
461.31	7997.61
461.49	7873.56
461.67	8114.64
461.85	8053.78
462.04	8107.62
462.22	8231.66
462.40	8238.69
462.59	8170.81
462.77	8294.86
462.95	8184.85
463.13	8285.50
463.32	8215.28
463.50	8367.42
463.68	8571.04
463.86	8339.33
464.05	8124.00
464.23	8182.51
464.41	8451.67
464.59	8409.54
464.78	8587.43
464.96	8311.24
465.14	8264.43
465.32	8514.87
465.50	8531.25
465.69	8493.80
465.87	8477.42
466.05	8491.46
466.23	8430.61
466.41	8430.61
466.60	9036.81
466.78	8587.43
466.96	8652.96
467.14	8547.64
467.32	8643.60
467.51	8891.70
467.69	8542.96
467.87	8662.32
468.05	8830.84
468.23	8849.57
468.41	8692.75
468.60	8638.92
468.78	8910.42
468.96	8872.97
469.14	8987.66
469.32	9132.77
469.50	8910.42
469.69	9132.77
469.87	9111.71
470.05	9214.69
470.23	9345.76
470.41	9170.22
470.59	9348.10
470.77	9100.00
470.95	9565.77
471.14	9493.21
471.32	9359.80
471.50	9523.64
471.68	9483.85
471.86	9490.87
472.04	9757.69
472.22	9769.40
472.40	9605.56
472.58	9877.06
472.77	9738.97
472.95	9692.16
473.13	10099.41
473.31	9720.24
473.49	9942.60
473.67	10015.15
473.85	10104.09
474.03	10017.49
474.21	10291.34
474.39	10314.74
474.57	10342.83
474.75	10396.66
474.93	10509.01
475.12	10487.94
475.30	10583.90
475.48	10391.98
475.66	10668.16
475.84	10768.80
476.02	10883.49
476.20	10789.87
476.38	10897.53
476.56	11117.54
476.74	11115.20
476.92	11091.80
477.10	11204.14
477.28	11468.62
477.46	11147.97
477.64	11473.31
477.82	11239.25
478.00	11768.21
478.18	11803.32
478.36	11871.20
478.54	11728.42
478.72	12222.28
478.90	11992.90
479.08	12194.19
479.26	12222.28
479.44	12182.49
479.62	12393.14
479.80	12318.24
479.98	12453.99
480.16	12716.13
480.34	12596.76
480.52	12980.61
480.70	13004.02
480.88	12868.27
481.06	13060.19
481.24	12996.99
481.41	13319.99
481.59	13359.78
481.77	13846.61
481.95	13631.28
482.13	13575.11
482.31	13710.86
482.49	13956.61
482.67	13954.27
482.85	14022.15
483.03	14530.05
483.21	14298.33
483.39	14349.82
483.57	14494.94
483.74	14576.86
483.92	14824.95
484.10	14906.87
484.28	15091.77
484.46	15365.62
484.64	15389.02
484.82	15243.91
485.00	15412.43
485.18	15658.18
485.35	15733.08
485.53	15847.77
485.71	15934.37
485.89	16255.02
486.07	16231.62
486.25	16437.58
486.43	16404.81
486.61	16353.32
486.78	16730.15
486.96	16847.18
487.14	16912.71
487.32	17139.74
487.50	17301.24
487.68	17202.94
487.85	17504.87
488.03	17565.72
488.21	17970.63
488.39	17638.28
488.57	18029.15
488.75	18122.77
488.92	18249.16
489.10	18405.97
489.28	18541.72
489.46	18754.71
489.64	18560.45
489.81	19037.92
489.99	19351.55
490.17	19077.71
490.35	19206.44
490.53	19475.60
490.70	19960.09
490.88	19634.75
491.06	20030.30
491.24	19936.68
491.41	19527.09
491.59	19976.47
491.77	19955.41
491.95	20498.41
492.13	20641.18
492.30	20652.89
492.48	20795.66
492.66	20779.28
492.84	20842.47
493.01	21303.56
493.19	20877.58
493.37	21509.52
493.54	21277.81
493.72	21516.54
493.90	21642.93
494.08	22010.40
494.25	22097.00
494.43	22345.09
494.61	22541.70
494.79	22075.93
494.96	22333.39
495.14	22501.91
495.32	22829.59
495.49	22895.12
495.67	22738.30
495.85	22897.46
496.02	23082.36
496.20	23220.45
496.38	23009.81
496.55	23503.66
496.73	23625.37
496.91	23644.09
497.09	23857.08
497.26	24191.78
497.44	23733.03
497.62	24273.70
497.79	24631.80
497.97	24367.32
498.14	24648.18
498.32	24725.42
498.50	25043.73
498.67	24961.81
498.85	24812.02
499.03	24973.52
499.20	24837.76
499.38	25135.01
499.56	25275.45
499.73	25427.58
499.91	25539.93
500.08	25869.94
500.26	25799.73
500.44	25656.95
500.61	25984.63
500.79	25891.01
500.97	26347.41
501.14	26380.18
501.32	26618.91
501.49	26122.72
501.67	26403.58
501.84	27035.53
502.02	26677.43
502.20	26927.86
502.37	26916.16
502.55	26871.69
502.72	27033.19
502.90	26789.77
503.07	27068.30
503.25	27094.04
503.43	27300.01
503.60	27204.05
503.78	27412.35
503.95	27693.22
504.13	27613.64
504.30	27941.32
504.48	27761.09
504.65	28067.70
504.83	28304.10
505.01	28526.45
505.18	28142.60
505.36	28400.06
505.53	28379.00
505.71	28339.21
505.88	28713.69
506.06	28409.42
506.23	28484.32
506.41	28779.23
506.58	28971.15
506.76	29256.70
506.93	29001.58
507.11	29057.75
507.28	29439.26
507.46	29338.62
507.63	29406.49
507.81	29565.65
507.98	29579.69
508.16	29273.08
508.33	29565.65
508.50	29696.72
508.68	29972.90
508.85	30235.04
509.03	30286.53
509.20	29954.18
509.38	30050.14
509.55	30621.23
509.73	30522.93
509.90	30569.74
510.08	30284.19
510.25	30838.90
510.42	30654.00
510.60	30918.48
510.77	30607.19
510.95	30972.31
511.12	30562.72
511.30	31548.08
511.47	31285.94
511.64	31440.42
511.82	31477.86
511.99	31505.95
512.17	31569.15
512.34	31894.48
512.51	31704.90
512.69	31742.35
512.86	32109.81
513.04	32275.99
513.21	32608.34
513.38	32437.48
513.56	32437.48
513.73	32189.39
513.90	32369.61
514.08	32231.52
514.25	32430.46
514.43	32594.30
514.60	32793.25
514.77	32903.25
514.95	33202.84
515.12	32872.82
515.29	32481.95
515.47	33280.08
515.64	33619.46
515.81	33378.38
515.99	33413.49
516.16	33844.15
516.33	33553.92
516.51	34022.03
516.68	33628.82
516.85	33958.83
517.03	33692.01
517.20	33841.81
517.37	34469.07
517.54	33823.08
517.72	34174.16
517.89	34054.79
518.06	34218.63
518.24	34113.31
518.41	34169.48
518.58	34672.70
518.75	34061.82
518.93	34628.23
519.10	34330.98
519.27	34803.77
519.45	34508.86
519.62	34897.39
519.79	34710.14
519.96	34895.05
520.14	35049.52
520.31	34569.71
520.48	35105.70
520.65	35227.40
520.83	35571.46
521.00	35189.95
521.17	35241.45
521.34	35332.73
521.52	35718.92
521.69	35878.07
521.86	35578.48
522.03	36004.46
522.20	36065.31
522.38	36285.33
522.55	36245.54
522.72	35634.66
522.89	36240.86
523.07	36701.94
523.24	36226.81
523.41	36713.64
523.58	35985.74
523.75	36617.68
523.92	36168.30
524.10	36566.19
524.27	36652.79
524.44	37003.87
524.61	36833.01
524.78	36683.22
524.96	36877.48
525.13	36912.59
525.30	37083.45
525.47	37261.33
525.64	37371.33
525.81	37310.48
525.98	37656.88
526.16	37500.06
526.33	37464.96
526.50	37727.10
526.67	37188.77
526.84	37251.97
527.01	37809.01
527.18	37890.93
527.36	37771.57
527.53	38220.95
527.70	38410.53
527.87	38426.92
528.04	38335.63
528.21	38162.43
528.38	37968.17
528.55	38323.93
528.72	37801.99
528.89	38761.61
529.07	38447.98
529.24	38349.68
529.41	38803.74
529.58	38476.07
529.75	38401.17
529.92	38728.84
530.09	38920.77
530.26	38375.42
530.43	38941.83
530.60	38808.42
530.77	38815.44
530.94	39330.36
531.11	38778.00
531.28	39000.35
531.46	39075.24
531.63	39409.94
531.80	39367.81
531.97	39477.82
532.14	39651.02
532.31	39522.29
532.48	39622.93
532.65	39615.91
532.82	39262.49
532.99	39466.11
533.16	39229.72
533.33	39646.33
533.50	40201.04
533.67	40252.53
533.84	39541.01
534.01	39651.02
534.18	39611.23
534.35	40156.57
534.52	39789.11
534.69	40161.25
534.86	40430.41
535.03	39873.37
535.20	40297.00
535.37	40339.13
535.54	40395.31
535.71	40142.53
535.88	40385.94
536.05	40219.77
536.22	40945.33
536.38	41116.19
536.55	40760.43
536.72	41020.23
536.89	40708.94
537.06	40573.19
537.23	40919.59
537.40	40823.62
537.57	40381.26
537.74	40994.48
537.91	41247.26
538.08	41390.03
538.25	41378.33
538.42	40774.47
538.59	41518.76
538.75	40830.65
538.92	41043.63
539.09	41160.66
539.26	41310.46
539.43	41869.84
539.60	41478.97
539.77	41397.06
539.94	41394.71
540.11	42094.53
540.28	41605.36
540.44	42054.75
540.61	41818.35
540.78	41706.01
540.95	42288.80
541.12	42188.16
541.29	41956.44
541.46	42541.58
541.62	42373.06
541.79	41954.10
541.96	41881.55
542.13	42359.02
542.30	42642.22
542.47	42462.00
542.63	42827.12
542.80	43014.37
542.97	43019.05
543.14	42822.44
543.31	42995.64
543.48	42527.53
543.64	42930.11
543.81	42969.90
543.98	43391.19
544.15	43068.20
544.32	43299.91
544.48	43452.05
544.65	42806.06
544.82	43044.79
544.99	42866.91
545.16	43386.51
545.32	43100.97
545.49	43889.73
545.66	44348.47
545.83	44491.24
546.00	44182.29
546.16	43957.60
546.33	43367.79
546.50	42955.85
546.67	43842.92
546.83	43208.63
547.00	43812.49
547.17	43587.80
547.34	43875.68
547.50	43803.13
547.67	44051.22
547.84	43817.17
548.00	43969.30
548.17	44135.48
548.34	43938.88
548.51	44198.68
548.67	44229.10
548.84	43676.74
549.01	43569.07
549.18	43643.97
549.34	44147.18
549.51	44196.34
549.68	43908.45
549.84	44421.03
550.01	44076.97
550.18	44301.66
550.34	44069.95
550.51	44271.23
550.68	44451.45
550.84	44229.10
551.01	44472.52
551.18	44313.36
551.34	44114.42
551.51	44318.04
551.68	44734.66
551.84	44797.85
552.01	44233.78
552.18	44861.05
552.34	44463.16
552.51	44463.16
552.68	44332.09
552.84	44603.59
553.01	44868.07
553.18	44582.52
553.34	44500.61
553.51	44802.53
553.67	44629.34
553.84	45254.26
554.01	44896.16
554.17	44858.71
554.34	44708.91
554.51	44744.02
554.67	45116.17
554.84	44748.70
555.00	45249.58
555.17	44870.41
555.33	45188.72
555.50	44650.40
555.67	45315.11
555.83	45174.68
556.00	44722.96
556.16	45001.48
556.33	45043.61
556.50	44872.75
556.66	45099.78
556.83	45139.57
556.99	45476.61
557.16	45518.74
557.32	45319.79
557.49	45350.22
557.65	44753.38
557.82	44858.71
557.98	45305.75
558.15	45265.96
558.32	45471.93
558.48	45340.86
558.65	45228.51
558.81	45141.91
558.98	45703.64
559.14	45242.56
559.31	45212.13
559.47	44809.56
559.64	45397.03
559.80	45595.98
559.97	45811.31
560.13	45415.76
560.30	45287.03
560.46	45804.28
560.63	45528.10
560.79	45684.92
560.96	45703.64
561.12	45476.61
561.29	45605.34
561.45	45504.70
561.61	45446.18
561.78	45497.67
561.94	45764.49
562.11	45741.09
562.27	45549.17
562.44	45701.30
562.60	45429.80
562.77	45668.53
562.93	45530.44
563.10	46225.58
563.26	45815.99
563.42	46036.00
563.59	45860.46
563.75	46092.17
563.92	45933.01
564.08	45638.11
564.24	45715.34
564.41	45804.28
564.57	45923.65
564.74	45600.66
564.90	45951.74
565.07	46099.19
565.23	46291.12
565.39	45830.03
565.56	45984.51
565.72	45572.57
565.88	45846.41
566.05	46000.89
566.21	45830.03
566.38	46019.61
566.54	45888.54
566.70	46230.26
566.87	46920.72
567.03	45776.20
567.19	46408.14
567.36	45755.13
567.52	45944.72
567.68	46209.20
567.85	45797.26
568.01	45853.44
568.17	45792.58
568.34	46005.57
568.50	46328.56
568.66	45956.42
568.83	46258.35
568.99	46028.98
569.15	45797.26
569.32	46052.38
569.48	45874.50
569.64	46323.88
569.81	46124.94
569.97	45696.62
570.13	46129.62
570.30	46438.57
570.46	46504.10
570.62	46066.42
570.78	45956.42
570.95	46127.28
571.11	46244.30
571.27	45813.65
571.43	46146.00
571.60	46040.68
571.76	45991.53
571.92	46326.22
572.09	46651.56
572.25	46344.95
572.41	45876.84
572.57	46281.75
572.74	46658.58
572.90	46192.81
573.06	45982.16
573.22	45862.80
573.38	46136.64
573.55	46476.02
573.71	46700.71
573.87	46590.70
574.03	46061.74
574.20	46534.53
574.36	46033.66
574.52	46375.37
574.68	45982.16
574.84	46232.60
575.01	46649.22
575.17	46571.98
575.33	46040.68
575.49	46429.21
575.65	46267.71
575.82	46707.73
575.98	46124.94
576.14	46211.54
576.30	46178.77
576.46	46096.85
576.62	46323.88
576.79	45766.84
576.95	46218.56
577.11	46330.90
577.27	46525.17
577.43	46597.73
577.59	46363.67
577.75	46319.20
577.92	45701.30
578.08	46052.38
578.24	46225.58
578.40	46499.42
578.56	46532.19
578.72	46672.62
578.88	46913.70
579.04	46579.00
579.21	46490.06
579.37	46752.20
579.53	46344.95
579.69	46007.91
579.85	46007.91
580.01	46534.53
580.17	46232.60
580.33	46103.87
580.49	46351.97
580.65	46492.40
580.82	46731.14
580.98	46721.77
581.14	46618.79
581.30	46747.52
581.46	46426.87
581.62	46087.49
581.78	46178.77
581.94	46244.30
582.10	46021.95
582.26	46087.49
582.42	46447.93
582.58	46391.76
582.74	46373.03
582.90	46408.14
583.06	46700.71
583.22	46391.76
583.38	46604.75
583.54	46277.07
583.70	46286.43
583.86	46335.59
584.02	46583.68
584.18	46461.97
584.34	46660.92
584.50	46557.94
584.66	46604.75
584.82	46375.37
584.98	46569.64
585.14	46586.02
585.30	45890.88
585.46	46607.09
585.62	46080.47
585.78	46356.65
585.94	46293.46
586.10	46202.18
586.26	46604.75
586.42	46951.15
586.58	46733.48
586.74	46019.61
586.90	46005.57
587.06	46122.60
587.22	46391.76
587.38	46038.34
587.54	46665.60
587.70	46869.23
587.86	46693.69
588.02	46918.38
588.18	46766.24
588.34	46735.82
588.49	46373.03
588.65	46351.97
588.81	46223.24
588.97	46845.82
589.13	46478.36
589.29	46281.75
589.45	46864.55
589.61	46838.80
589.77	46543.89
589.93	47014.34
590.08	46791.99
590.24	46754.54
590.40	46815.40
590.56	46471.34
590.72	47047.11
590.88	46466.66
591.04	46424.53
591.20	46934.76
591.35	47114.98
591.51	47215.63
591.67	46670.28
591.83	47019.02
591.99	46969.87
592.15	46536.87
592.31	46796.67
592.46	46824.76
592.62	46564.96
592.78	46579.00
592.94	46754.54
593.10	46749.86
593.26	46539.21
593.41	46941.78
593.57	46433.89
593.73	47058.81
593.89	47112.64
594.05	46782.63
594.20	46520.49
594.36	46574.32
594.52	46693.69
594.68	46536.87
594.84	46635.17
594.99	46850.50
595.15	46986.25
595.31	46717.09
595.47	46412.82
595.62	47187.54
595.78	46611.77
595.94	46983.91
596.10	46656.24
596.25	46632.83
596.41	46426.87
596.57	46447.93
596.73	47033.07
596.88	46618.79
597.04	46927.74
597.20	46930.08
597.36	46876.25
597.51	47131.37
597.67	46820.08
597.83	46602.41
597.99	46986.25
598.14	46422.19
598.30	46820.08
598.46	46726.46
598.61	46543.89
598.77	46543.89
598.93	46611.77
599.09	46880.93
599.24	47171.16
599.40	47033.07
599.56	47114.98
599.71	46899.65
599.87	47173.50
600.03	47079.88
600.18	46667.94
600.34	46724.11
600.50	46616.45
600.65	46375.37
600.81	46639.86
600.97	47213.29
601.12	47026.04
601.28	46932.42
601.44	46890.29
601.59	47327.97
601.75	46824.76
601.91	46885.61
602.06	46677.30
602.22	46852.84
602.37	46808.37
602.53	46417.50
602.69	46768.58
602.84	46803.69
603.00	46316.86
603.16	46932.42
603.31	46883.27
603.47	46967.53
603.62	46382.40
603.78	46632.83
603.94	46550.91
604.09	46286.43
604.25	46361.33
604.40	46382.40
604.56	46848.16
604.71	46969.87
604.87	46665.60
605.03	46773.27
605.18	46768.58
605.34	46553.26
605.49	46061.74
605.65	46375.37
605.80	46623.47
605.96	45862.80
606.12	46277.07
606.27	46677.30
606.43	46508.79
606.58	46469.00
606.74	46681.98
606.89	46288.77
607.05	46609.43
607.20	46436.23
607.36	46415.16
607.51	46218.56
607.67	46064.08
607.82	45954.08
607.98	46279.41
608.13	45918.97
608.29	45907.27
608.44	46122.60
608.60	46131.96
608.75	46483.04
608.91	46284.09
609.06	46094.51
609.22	46593.04
609.37	46340.27
609.53	46326.22
609.68	46007.91
609.84	46047.70
609.99	46005.57
610.15	46237.28
610.30	46686.67
610.46	46234.94
610.61	46735.82
610.76	46876.25
610.92	47175.84
611.07	46829.44
611.23	47051.79
611.38	46904.34
611.54	46354.31
611.69	46351.97
611.84	45818.33
612.00	46050.04
612.15	45324.47
612.31	46433.89
612.46	46188.13
612.62	46178.77
612.77	46356.65
612.92	46368.35
613.08	45558.53
613.23	46078.13
613.39	45787.90
613.54	45902.59
613.69	45406.39
613.85	45303.41
614.00	45603.00
614.15	46021.95
614.31	45500.01
614.46	45893.22
614.62	45755.13
614.77	45825.35
614.92	45769.18
615.08	45687.26
615.23	45930.67
615.38	45663.85
615.54	45502.35
615.69	44978.07
615.84	44996.80
616.00	45399.37
616.15	45312.77
616.30	45380.65
616.46	45378.31
616.61	45382.99
616.76	45319.79
616.92	45230.85
617.07	45415.76
617.22	45083.40
617.37	45214.47
617.53	45352.56
617.68	44783.81
617.83	45020.20
617.99	45258.94
618.14	45312.77
618.29	44781.47
618.45	45088.08
618.60	44891.48
618.75	44790.83
618.90	44776.79
619.06	44975.73
619.21	45184.04
619.36	45123.19
619.51	44531.03
619.67	44385.92
619.82	44545.08
619.97	45099.78
620.12	44631.68
620.28	44596.57
620.43	44811.90
620.58	44617.63
620.73	45069.36
620.89	44687.85
621.04	44821.26
621.19	44315.70
621.34	44406.98
621.49	43962.28
621.65	44341.45
621.80	44524.01
621.95	44095.69
622.10	44495.92
622.25	44102.71
622.41	44458.48
622.56	44409.32
622.71	44456.14
622.86	44257.19
623.01	44296.98
623.16	44271.23
623.32	43927.17
623.47	43903.77
623.62	43845.26
623.77	44128.46
623.92	44254.85
624.07	44229.10
624.23	43674.40
624.38	44039.52
624.53	43498.86
624.68	43983.35
624.83	43821.85
624.98	43929.51
625.13	43548.01
625.29	44196.34
625.44	43278.85
625.59	43683.76
625.74	43196.93
625.89	43065.86
626.04	43372.47
626.19	43391.19
626.34	43091.60
626.49	43292.89
626.65	43442.68
626.80	43430.98
626.95	43498.86
627.10	43430.98
627.25	43344.38
627.40	43058.84
627.55	43168.84
627.70	42670.31
627.85	42745.20
628.00	42920.74
628.15	42951.17
628.30	42885.64
628.45	43061.18
628.60	42742.86
628.76	43320.98
628.91	43236.72
629.06	43515.24
629.21	43000.32
629.36	43105.65
629.51	42965.21
629.66	42993.30
629.81	42749.88
629.96	42691.37
630.11	43007.34
630.26	42731.16
630.41	42682.01
630.56	43000.32
630.71	43178.20
630.86	42873.93
631.01	42850.53
631.16	42792.01
631.31	42583.71
631.46	42492.43
631.61	42714.78
631.76	42515.83
631.91	42590.73
632.06	41799.63
632.21	41989.21
632.36	42103.90
632.51	42359.02
632.66	42129.64
632.81	42340.29
632.96	41998.57
633.10	42361.36
633.25	42389.44
633.40	42478.38
633.55	42356.67
633.70	41844.10
633.85	41965.81
634.00	41993.89
634.15	42052.41
634.30	42031.34
634.45	41757.50
634.60	42115.60
634.75	42270.08
634.90	41890.91
635.05	41654.51
635.19	41273.01
635.34	42253.69
635.49	41832.39
635.64	41947.08
635.79	41649.83
635.94	41766.86
636.09	41289.39
636.24	41357.27
636.39	41443.87
636.53	41736.43
636.68	41523.44
636.83	41375.99
636.98	42089.85
637.13	41769.20
637.28	41734.09
637.43	41605.36
637.57	42040.70
637.72	40940.65
637.87	41420.46
638.02	41556.21
638.17	41841.76
638.32	41457.91
638.46	41034.27
638.61	40954.69
638.76	40783.83
638.91	41312.80
639.06	41235.56
639.20	41467.27
639.35	40940.65
639.50	41352.58
639.65	41125.55
639.80	41198.11
639.94	41350.24
640.09	40765.11
640.24	41205.13
640.39	40645.74
640.54	40711.28
640.68	40968.74
640.83	40793.20
640.98	40088.70
641.13	40163.59
641.27	40921.93
641.42	40495.95
641.57	40718.30
641.72	41102.15
641.86	40282.96
642.01	40428.07
642.16	40477.22
642.31	40156.57
642.45	40439.78
642.60	40172.96
642.75	40105.08
642.90	40233.81
643.04	40245.51
643.19	39845.28
643.34	40158.91
643.48	39903.79
643.63	40474.88
643.78	40414.03
643.93	40760.43
644.07	40236.15
644.22	40559.14
644.37	40079.33
644.51	40266.58
644.66	40142.53
644.81	40179.98
644.95	39929.54
645.10	39526.97
645.25	39770.38
645.39	40060.61
645.54	40144.87
645.69	40332.11
645.83	40126.14
645.98	39978.69
646.13	40498.29
646.27	40091.04
646.42	39873.37
646.57	39966.99
646.71	39922.52
646.86	40208.06
647.00	40128.48
647.15	39536.33
647.30	39086.95
647.44	39849.96
647.59	39948.26
647.74	39772.72
647.88	39742.30
648.03	39686.12
648.17	39880.39
648.32	39646.33
648.47	39440.37
648.61	39384.19
648.76	40046.57
648.90	39494.20
649.05	39227.38
649.20	39473.13
649.34	39700.17
649.49	39501.22
649.63	39182.91
649.78	39229.72
649.92	39517.60
650.07	39405.26
650.21	39325.68
650.36	39129.08
650.51	39255.46
650.65	39157.16
650.80	39564.42
650.94	39374.83
651.09	39005.03
651.23	38401.17
651.38	38675.01
651.52	38918.43
651.67	38770.97
651.81	38932.47
651.96	38637.56
652.10	38560.33
652.25	38888.00
652.39	39143.12
652.54	39187.59
652.68	38981.62
652.83	38609.48
652.97	38836.51
653.12	39166.52
653.26	38665.65
653.41	38724.16
653.55	38747.57
653.70	38616.50
653.84	38525.22
653.99	38176.48
654.13	38302.87
654.27	38232.65
654.42	38452.66
654.56	38712.46
654.71	38342.66
654.85	38532.24
655.00	38536.92
655.14	38864.60
655.29	38494.79
655.43	38726.50
655.57	38171.80
655.72	38019.66
655.86	38073.49
656.01	37902.64
656.15	38099.24
656.30	37635.81
656.44	37975.19
656.58	37823.06
656.73	38047.75
656.87	38136.69
657.01	37935.40
657.16	38106.26
657.30	38251.38
657.45	38120.31
657.59	37801.99
657.73	37694.33
657.88	37965.83
658.02	37638.15
658.16	37567.94
658.31	37736.46
658.45	37645.18
658.60	37132.60
658.74	37631.13
658.88	37476.66
659.03	37165.37
659.17	37549.21
659.31	37570.28
659.46	37263.67
659.60	37408.78
659.74	37846.46
659.89	37483.68
660.03	36950.04
660.17	37310.48
660.32	37067.06
660.46	36727.69
660.60	36954.72
660.74	37001.53
660.89	37490.70
661.03	36968.76
661.17	36739.39
661.32	36725.35
661.46	36685.56
661.60	36884.50
661.74	36474.91
661.89	36713.64
662.03	36601.30
662.17	36753.43
662.31	36521.72
662.46	36414.05
662.60	36189.36
662.74	36243.20
662.88	35941.27
663.03	35761.05
663.17	36311.07
663.31	36112.13
663.45	35922.54
663.60	35632.32
663.74	36545.12
663.88	35880.41
664.02	36121.49
664.17	36418.74
664.31	36175.32
664.45	35676.79
664.59	35917.86
664.73	36215.11
664.88	35548.06
665.02	35695.51
665.16	35501.25
665.30	35622.95
665.44	35608.91
665.59	34976.97
665.73	35377.20
665.87	34885.68
666.01	34864.62
666.15	35199.32
666.29	34909.09
666.44	35182.93
666.58	35171.23
666.72	35218.04
666.86	35133.78
667.00	35185.27
667.14	35105.70
667.28	34742.91
667.43	34628.23
667.57	34742.91
667.71	34881.00
667.85	34782.70
667.99	34670.36
668.13	34396.51
668.27	34686.74
668.41	34448.00
668.56	34246.72
668.70	34227.99
668.84	34464.39
668.98	34471.41
669.12	34469.07
669.26	34389.49
669.40	34291.19
669.54	34050.11
669.68	33869.89
669.82	33731.80
669.96	33853.51
670.10	33572.64
670.25	33851.17
670.39	34000.96
670.53	33418.17
670.67	33413.49
670.81	33256.67
670.95	33446.26
671.09	33776.27
671.23	33251.99
671.37	33380.72
671.51	33092.83
671.65	33247.31
671.79	33022.62
671.93	32795.59
672.07	33013.26
672.21	32683.24
672.35	32488.98
672.49	33024.96
672.63	32804.95
672.77	32732.39
672.91	32505.36
673.05	32615.37
673.19	32435.14
673.33	32683.24
673.47	32390.67
673.61	32655.15
673.75	32477.27
673.89	32512.38
674.03	32299.39
674.17	31742.35
674.31	31669.79
674.45	31796.18
674.59	31688.51
674.73	31557.44
674.87	31838.31
675.01	31491.91
675.15	30909.11
675.29	31407.65
675.43	31732.98
675.56	31608.93
675.70	31412.33
675.84	31412.33
675.98	30412.92
676.12	31239.13
676.26	31295.30
676.40	31005.08
676.54	31030.82
676.68	30838.90
676.82	30134.40
676.96	30560.37
677.10	30492.50
677.23	30064.18
677.37	30160.14
677.51	29954.18
677.65	29577.35
677.79	29790.34
677.93	29837.15
678.07	29951.84
678.21	29593.73
678.34	29617.14
678.48	29158.39
678.62	29495.43
678.76	29460.32
678.90	29244.99
679.04	29174.78
679.18	29076.48
679.31	28765.18
679.45	28650.50
679.59	28772.21
679.73	28954.77
679.87	28390.70
680.00	28664.54
680.14	28507.72
680.28	28161.33
680.42	28407.08
680.56	28992.22
680.70	28336.87
680.83	28140.26
680.97	28166.01
681.11	28112.17
681.25	28201.11
681.39	27454.48
681.52	27784.50
681.66	27995.15
681.80	27585.55
681.94	27594.92
682.07	27737.69
682.21	27178.30
682.35	27384.27
682.49	26904.46
682.62	26906.80
682.76	27056.59
682.90	26991.06
683.04	27014.46
683.17	26969.99
683.31	26717.22
683.45	26934.88
683.59	26941.91
683.72	26836.58
683.86	26431.67
684.00	26085.27
684.13	26251.45
684.27	26120.38
684.41	25729.51
684.55	25867.60
684.68	25666.31
684.82	25776.32
684.96	25521.20
685.09	25359.70
685.23	25628.87
685.37	25357.36
685.50	25469.71
685.64	25366.73
685.78	25518.86
685.91	25507.16
686.05	25422.90
686.19	24999.26
686.32	25074.16
686.46	24826.06
686.60	24547.54
686.73	24704.35
686.87	24379.02
687.01	24095.82
687.14	24432.85
687.28	24198.80
687.42	24044.32
687.55	24009.22
687.69	23880.49
687.82	23992.83
687.96	24170.71
688.10	24006.87
688.23	23454.51
688.37	23850.06
688.50	24102.84
688.64	23976.45
688.78	23601.96
688.91	23534.09
689.05	23400.68
689.18	23302.37
689.32	22682.13
689.46	22939.59
689.59	22911.50
689.73	22951.29
689.86	22574.47
690.00	22558.08
690.13	22532.34
690.27	22691.49
690.41	22595.53
690.54	22396.59
690.68	22190.62
690.81	22532.34
690.95	22279.56
691.08	22307.65
691.22	22183.60
691.35	21759.96
691.49	21647.61
691.62	21830.18
691.76	21593.78
691.89	21523.57
692.03	21394.84
692.16	21298.88
692.30	20868.22
692.43	21404.20
692.57	21050.78
692.70	21085.89
692.84	21291.85
692.97	20870.56
693.11	21003.97
693.24	21041.42
693.38	20837.79
693.51	20814.38
693.65	20849.49
693.78	20592.03
693.92	20622.46
694.05	20580.33
694.19	20140.31
694.32	20269.04
694.45	20137.97
694.59	19658.16
694.72	19716.67
694.86	19482.62
694.99	19314.10
695.13	19747.10
695.26	19557.52
695.39	19555.18
695.53	19756.46
695.66	19700.29
695.80	19367.93
695.93	19328.14
696.07	19042.60
696.20	19365.59
696.33	18951.32
696.47	18602.58
696.60	18864.72
696.73	18848.33
696.87	18530.02
697.00	18630.66
697.14	18302.99
697.27	18356.82
697.40	18389.59
697.54	18263.20
697.67	17823.18
697.80	17855.95
697.94	17998.72
698.07	17886.37
698.21	17907.44
698.34	17764.67
698.47	17692.11
698.61	17565.72
698.74	17652.32
698.87	17741.26
699.01	17673.39
699.14	17530.61
699.27	17303.58
699.40	17343.37
699.54	17027.40
699.67	17076.55
699.80	16819.09
699.94	16491.41
700.07	16690.36
700.20	17008.67
700.34	16545.25
700.47	16730.15
700.60	16615.46
700.73	16390.77
700.87	16386.09
701.00	16416.52
701.13	16365.03
701.26	16421.20
701.40	16229.27
701.53	16098.20
701.66	16276.09
701.79	16086.50
701.93	15901.60
702.06	15726.06
702.19	15566.90
702.32	15712.02
702.46	15447.54
702.59	15389.02
702.72	15250.93
702.85	15452.22
702.99	15199.44
703.12	15066.03
703.25	15115.18
703.38	15222.84
703.51	15157.31
703.65	14906.87
703.78	15112.84
703.91	14848.36
704.04	14890.49
704.17	14920.92
704.31	14867.08
704.44	14850.70
704.57	14520.68
704.70	14621.33
704.83	14422.38
704.96	14295.99
705.10	14300.67
705.23	14171.94
>>>>>End Processed Spectral Data<<<<<
