SpectraSuite Data File
++++++++++++++++++++++++++++++++++++
Date: Fri Oct 04 11:39:23 GMT-05:00 2013
User: price-jones
Dark Spectrum Present: No
Reference Spectrum Present: No
Number of Sampled Component Spectra: 1
Spectrometers: USB2+H05261
Integration Time (usec): 100000 (USB2+H05261)
Spectra Averaged: 1 (USB2+H05261)
Boxcar Smoothing: 0 (USB2+H05261)
Correct for Electrical Dark: No (USB2+H05261)
Strobe/Lamp Enabled: No (USB2+H05261)
Correct for Detector Non-linearity: No (USB2+H05261)
Correct for Stray Light: No (USB2+H05261)
Number of Pixels in Processed Spectrum: 2048
>>>>>Begin Processed Spectral Data<<<<<
365.73	25.75
365.92	25.75
366.12	25.75
366.32	0.00
366.52	0.00
366.72	2.34
366.91	0.00
367.11	28.09
367.31	0.00
367.51	0.00
367.70	0.00
367.90	0.00
368.10	0.00
368.30	0.00
368.49	0.00
368.69	0.00
368.89	11.70
369.09	0.00
369.28	0.00
369.48	51.49
369.68	14.04
369.87	16.38
370.07	0.00
370.27	51.49
370.47	135.75
370.66	257.46
370.86	159.16
371.06	271.50
371.25	334.70
371.45	290.23
371.65	264.48
371.84	264.48
372.04	311.29
372.24	327.68
372.44	301.93
372.63	334.70
372.83	308.95
373.03	257.46
373.22	374.49
373.42	266.82
373.62	404.91
373.81	341.72
374.01	346.40
374.21	358.10
374.40	334.70
374.60	454.06
374.79	374.49
374.99	395.55
375.19	416.62
375.38	320.65
375.58	367.46
375.78	390.87
375.97	400.23
376.17	451.72
376.37	386.19
376.56	526.62
376.76	388.53
376.95	433.00
377.15	451.72
377.35	381.51
377.54	468.11
377.74	433.00
377.93	454.06
378.13	451.72
378.33	468.11
378.52	358.10
378.72	447.04
378.91	428.32
379.11	465.77
379.31	416.62
379.50	484.49
379.70	458.74
379.89	514.92
380.09	454.06
380.28	430.66
380.48	430.66
380.68	388.53
380.87	463.43
381.07	458.74
381.26	557.05
381.46	484.49
381.65	437.68
381.85	433.00
382.04	552.37
382.24	493.85
382.43	512.58
382.63	458.74
382.83	433.00
383.02	531.30
383.22	603.86
383.41	514.92
383.61	561.73
383.80	507.90
384.00	552.37
384.19	505.56
384.39	477.47
384.58	489.17
384.78	496.19
384.97	585.13
385.17	631.94
385.36	486.83
385.56	526.62
385.75	519.60
385.95	430.66
386.14	545.34
386.34	442.36
386.53	587.47
386.72	454.06
386.92	596.84
387.11	550.03
387.31	578.11
387.50	613.22
387.70	608.54
387.89	627.26
388.09	528.96
388.28	510.24
388.48	547.69
388.67	671.73
388.86	589.82
389.06	512.58
389.25	657.69
389.45	676.41
389.64	610.88
389.84	688.12
390.03	678.76
390.22	636.63
390.42	566.41
390.61	732.59
390.81	674.07
391.00	678.76
391.19	725.57
391.39	669.39
391.58	566.41
391.78	683.44
391.97	676.41
392.16	704.50
392.36	690.46
392.55	660.03
392.75	741.95
392.94	636.63
393.13	739.61
393.33	695.14
393.52	758.33
393.71	840.25
393.91	753.65
394.10	851.96
394.29	800.46
394.49	800.46
394.68	753.65
394.88	788.76
395.07	847.27
395.26	798.12
395.46	751.31
395.65	805.14
395.84	800.46
396.04	884.72
396.23	887.06
396.42	835.57
396.62	828.55
396.81	917.49
397.00	861.32
397.19	849.61
397.39	875.36
397.58	1013.45
397.77	990.05
397.97	1046.22
398.16	999.41
398.35	947.92
398.55	896.43
398.74	1022.81
398.93	1062.60
399.12	987.71
399.32	919.83
399.51	1018.13
399.70	1156.22
399.90	1086.01
400.09	1048.56
400.28	1022.81
400.47	1001.75
400.67	1046.22
400.86	1102.39
401.05	1102.39
401.24	1088.35
401.44	1090.69
401.63	1125.80
401.82	1231.12
402.01	1144.52
402.21	1111.75
402.40	1130.48
402.59	1109.41
402.78	1144.52
402.97	1221.76
403.17	1193.67
403.36	1196.01
403.55	1338.79
403.74	1261.55
403.93	1252.19
404.13	1345.81
404.32	1303.68
404.51	1357.51
404.70	1233.46
404.89	1226.44
405.09	1331.76
405.28	1315.38
405.47	1301.34
405.66	1413.68
405.85	1423.05
406.05	1341.13
406.24	1423.05
406.43	1441.77
406.62	1460.49
406.81	1645.40
407.00	1465.18
407.20	1523.69
407.39	1472.20
407.58	1493.26
407.77	1411.34
407.96	1589.22
408.15	1605.61
408.34	1682.85
408.54	1561.14
408.73	1643.06
408.92	1619.65
409.11	1666.46
409.30	1685.19
409.49	1612.63
409.68	1734.34
409.87	1689.87
410.07	1750.72
410.26	1755.40
410.45	1757.74
410.64	1799.87
410.83	1830.30
411.02	1879.45
411.21	1872.43
411.40	1888.81
411.59	1867.75
411.78	1937.96
411.98	2010.52
412.17	1975.41
412.36	2005.84
412.55	2047.97
412.74	2073.71
412.93	2087.76
413.12	2127.55
413.31	2195.42
413.50	2073.71
413.69	2150.95
413.88	2267.98
414.07	2141.59
414.26	2277.34
414.45	2242.23
414.64	2291.38
414.83	2321.81
415.02	2436.50
415.22	2464.58
415.41	2457.56
415.60	2420.11
415.79	2483.31
415.98	2569.91
416.17	2525.44
416.36	2410.75
416.55	2614.38
416.74	2663.53
416.93	2607.36
417.12	2609.70
417.31	2532.46
417.50	2745.45
417.69	2717.36
417.88	2745.45
418.07	2710.34
418.26	2871.84
418.45	2745.45
418.64	2935.03
418.83	2834.39
419.02	2764.17
419.21	2902.26
419.39	3005.25
419.58	2953.76
419.77	2862.48
419.96	2899.92
420.15	3026.31
420.34	2890.56
420.53	2944.39
420.72	2977.16
420.91	3059.08
421.10	3145.68
421.29	3159.72
421.48	3056.74
421.67	3110.57
421.86	3098.87
422.05	3112.91
422.24	3077.80
422.43	3157.38
422.61	3363.35
422.80	3293.13
422.99	3283.77
423.18	3309.52
423.37	3370.37
423.56	3370.37
423.75	3143.34
423.94	3080.14
424.13	2958.44
424.32	3052.06
424.50	3349.31
424.69	3302.50
424.88	3297.81
425.07	3251.00
425.26	3215.90
425.45	3314.20
425.64	3260.37
425.83	3307.18
426.01	3396.12
426.20	3255.69
426.39	3417.18
426.58	3258.03
426.77	3332.92
426.96	3276.75
427.15	3424.20
427.33	3417.18
427.52	3442.93
427.71	3454.63
427.90	3543.57
428.09	3463.99
428.28	3555.27
428.46	3571.66
428.65	3508.46
428.84	3761.24
429.03	3599.74
429.22	3609.11
429.40	3576.34
429.59	3625.49
429.78	3538.89
429.97	3435.91
430.16	3604.42
430.34	3658.26
430.53	3789.33
430.72	3721.45
430.91	3744.86
431.10	3588.04
431.28	3822.09
431.47	3784.65
431.66	3878.27
431.85	3836.14
432.03	3948.48
432.22	3927.42
432.41	3878.27
432.60	4093.60
432.79	4095.94
432.97	3962.53
433.16	3918.06
433.35	4014.02
433.54	4058.49
433.72	4014.02
433.91	3950.82
434.10	4042.11
434.28	4093.60
434.47	4126.36
434.66	4109.98
434.85	4196.58
435.03	4332.33
435.22	4472.76
435.41	4669.37
435.59	4690.43
435.78	4594.47
435.97	4440.00
436.16	4388.50
436.34	4290.20
436.53	4358.08
436.72	4512.55
436.90	4386.16
437.09	4547.66
437.28	4313.61
437.46	4395.53
437.65	4430.63
437.84	4491.49
438.02	4386.16
438.21	4423.61
438.40	4344.03
438.58	4575.75
438.77	4571.07
438.96	4526.60
439.14	4683.41
439.33	4723.20
439.52	4943.21
439.70	4877.68
439.89	4929.17
440.08	4926.83
440.26	4933.85
440.45	4910.44
440.63	4912.78
440.82	5167.90
441.01	4868.31
441.19	5177.26
441.38	5102.37
441.57	5179.61
441.75	5235.78
441.94	5324.72
442.12	5219.39
442.31	5287.27
442.50	5305.99
442.68	5296.63
442.87	5336.42
443.05	5446.43
443.24	5458.13
443.43	5511.96
443.61	5493.24
443.80	5666.44
443.98	5591.54
444.17	5345.78
444.35	5572.82
444.54	5675.80
444.73	5593.88
444.91	5495.58
445.10	5605.58
445.28	5724.95
445.47	5600.90
445.65	5540.05
445.84	5551.75
446.02	5603.24
446.21	5584.52
446.39	5549.41
446.58	5799.85
446.77	5743.67
446.95	5647.71
447.14	5830.27
447.32	5902.83
447.51	5767.08
447.69	5853.68
447.88	5757.72
448.06	5795.17
448.25	5806.87
448.43	5673.46
448.62	5757.72
448.80	5743.67
448.99	5827.93
449.17	5834.96
449.36	5863.04
449.54	5860.70
449.73	5813.89
449.91	6005.81
450.10	6090.07
450.28	6200.08
450.46	6085.39
450.65	6164.97
450.83	6106.46
451.02	6052.63
451.20	6209.44
451.39	6253.91
451.57	5944.96
451.76	6069.01
451.94	6228.17
452.13	6265.61
452.31	6277.32
452.49	6237.53
452.68	6139.23
452.86	6225.82
453.05	6516.05
453.23	6244.55
453.42	6181.35
453.60	6305.40
453.78	6422.43
453.97	6258.59
454.15	6321.79
454.34	6312.42
454.52	6382.64
454.70	6361.58
454.89	6319.45
455.07	6513.71
455.26	6523.07
455.44	6661.16
455.62	6553.50
455.81	6707.98
455.99	6581.59
456.17	6640.10
456.36	6597.97
456.54	6995.86
456.73	6712.66
456.91	7140.97
457.09	6843.73
457.28	7059.06
457.46	7019.27
457.64	7126.93
457.83	6974.80
458.01	6855.43
458.19	7007.56
458.38	7080.12
458.56	7225.23
458.74	7325.88
458.93	7021.61
459.11	7180.76
459.29	7246.30
459.48	7295.45
459.66	6951.39
459.84	7194.81
460.03	7407.80
460.21	7377.37
460.39	7241.62
460.57	7342.26
460.76	7501.42
460.94	7562.27
461.12	7445.24
461.31	7529.50
461.49	7255.66
461.67	7728.45
461.85	7637.17
462.04	7510.78
462.22	7641.85
462.40	7660.57
462.59	7911.01
462.77	7496.74
462.95	7632.49
463.13	7801.01
463.32	7934.42
463.50	7962.50
463.68	7899.31
463.86	7896.97
464.05	7688.66
464.23	7779.94
464.41	7922.71
464.59	7903.99
464.78	8023.36
464.96	7763.56
465.14	7880.58
465.32	8063.15
465.50	8100.59
465.69	8107.62
465.87	7999.95
466.05	7992.93
466.23	8067.83
466.41	8163.79
466.60	8318.26
466.78	8088.89
466.96	7997.61
467.14	8065.49
467.32	8224.64
467.51	8482.10
467.69	8102.93
467.87	8332.31
468.05	8311.24
468.23	8257.41
468.41	8297.20
468.60	8219.96
468.78	8493.80
468.96	8264.43
469.14	8695.09
469.32	8662.32
469.50	8351.03
469.69	8795.73
469.87	8730.20
470.05	8774.67
470.23	8638.92
470.41	8629.56
470.59	8774.67
470.77	8760.63
470.95	8877.65
471.14	9064.89
471.32	8915.10
471.50	9259.16
471.68	9057.87
471.86	9055.53
472.04	9008.72
472.22	9270.86
472.40	9022.77
472.58	9270.86
472.77	9202.99
472.95	9296.61
473.13	9507.26
473.31	9369.16
473.49	9472.15
473.67	9359.80
473.85	9418.32
474.03	9748.33
474.21	9425.34
474.39	9760.03
474.57	9764.72
474.75	9853.66
474.93	9980.04
475.12	9884.08
475.30	9923.87
475.48	9984.73
475.66	10155.58
475.84	10218.78
476.02	10111.11
476.20	10207.08
476.38	10331.12
476.56	10401.34
476.74	10410.70
476.92	10443.47
477.10	10553.48
477.28	10766.46
477.46	10593.26
477.64	10771.15
477.82	10932.64
478.00	11304.79
478.18	11183.08
478.36	11290.74
478.54	11375.00
478.72	11288.40
478.90	11218.19
479.08	11358.62
479.26	11424.15
479.44	11459.26
479.62	11712.04
479.80	11878.22
479.98	11871.20
480.16	12280.79
480.34	11932.05
480.52	12114.61
480.70	12332.28
480.88	12032.69
481.06	12416.54
481.24	12430.59
481.41	12641.23
481.59	12924.44
481.77	12840.18
481.95	12769.96
482.13	12870.61
482.31	13029.76
482.49	13523.62
482.67	13153.81
482.85	13198.28
483.03	13736.60
483.21	13785.76
483.39	13642.98
483.57	13778.73
483.74	13858.31
483.92	14026.83
484.10	14090.02
484.28	14497.28
484.46	14485.58
484.64	14906.87
484.82	14394.29
485.00	14705.59
485.18	14967.73
485.35	15279.02
485.53	15211.14
485.71	14932.62
485.89	15517.75
486.07	15382.00
486.25	15592.65
486.43	15693.29
486.61	15686.27
486.78	15707.34
486.96	16023.31
487.14	16130.97
487.32	16479.71
487.50	16425.88
487.68	16304.17
487.85	16704.40
488.03	16968.88
488.21	17357.41
488.39	17343.37
488.57	17198.26
488.75	17268.47
488.92	17577.42
489.10	17612.53
489.28	17841.90
489.46	17891.06
489.64	17804.46
489.81	18377.89
489.99	18150.85
490.17	18272.56
490.35	18698.54
490.53	18623.64
490.70	18764.07
490.88	18848.33
491.06	19122.18
491.24	18813.23
491.41	18958.34
491.59	19143.24
491.77	19447.51
491.95	19571.56
492.13	19985.83
492.30	19740.08
492.48	19723.69
492.66	19793.91
492.84	19969.45
493.01	20430.54
493.19	20304.15
493.37	20559.27
493.54	20517.14
493.72	20624.80
493.90	20662.25
494.08	21158.44
494.25	21256.75
494.43	21001.63
494.61	21411.22
494.79	21568.04
494.96	21319.94
495.14	21708.47
495.32	21764.64
495.49	21624.21
495.67	22064.23
495.85	22089.98
496.02	22534.68
496.20	22522.98
496.38	22223.39
496.55	22366.16
496.73	23309.40
496.91	22902.14
497.09	23054.28
497.26	23101.09
497.44	23175.98
497.62	23101.09
497.79	23623.03
497.97	23440.47
498.14	23564.51
498.32	23847.72
498.50	23920.28
498.67	23821.97
498.85	23960.06
499.03	24086.45
499.20	24002.19
499.38	23742.39
499.56	24453.92
499.73	24613.07
499.91	24809.68
500.08	25006.28
500.26	24320.51
500.44	24671.59
500.61	25008.62
500.79	24814.36
500.97	25291.83
501.14	25781.00
501.32	25357.36
501.49	25064.80
501.67	25467.37
501.84	25610.14
502.02	25404.17
502.20	26008.03
502.37	26382.52
502.55	25958.88
502.72	25741.21
502.90	25937.82
503.07	26008.03
503.25	26272.51
503.43	26373.16
503.60	26822.54
503.78	26490.18
503.95	26869.35
504.13	26733.60
504.30	26902.12
504.48	26466.78
504.65	26890.41
504.83	27374.91
505.01	27103.40
505.18	27136.17
505.36	27786.84
505.53	27304.69
505.71	27454.48
505.88	27807.90
506.06	27225.11
506.23	27489.59
506.41	27681.52
506.58	28259.63
506.76	28027.92
506.93	27749.39
507.11	28224.52
507.28	28158.99
507.46	28381.34
507.63	28542.83
507.81	28786.25
507.98	28570.92
508.16	28748.80
508.33	28816.68
508.50	28720.71
508.68	29036.69
508.85	29097.54
509.03	29132.65
509.20	29488.41
509.38	29399.47
509.55	29633.52
509.73	29603.10
509.90	30125.04
510.08	29729.48
510.25	29778.64
510.42	29757.57
510.60	30335.68
510.77	30448.03
510.95	30073.54
511.12	29862.90
511.30	30031.41
511.47	30338.02
511.64	31014.44
511.82	30918.48
511.99	30611.87
512.17	30773.36
512.34	30740.60
512.51	31332.75
512.69	30771.02
512.86	30766.34
513.04	30967.63
513.21	31339.77
513.38	31332.75
513.56	31599.57
513.73	31150.19
513.90	31211.04
514.08	31480.21
514.25	31253.17
514.43	31751.71
514.60	31583.19
514.77	32048.96
514.95	32306.41
515.12	31599.57
515.29	32074.70
515.47	32575.58
515.64	32133.21
515.81	32325.14
515.99	33013.26
516.16	32385.99
516.33	32350.88
516.51	33006.23
516.68	32322.80
516.85	32584.94
517.03	32865.80
517.20	33406.47
517.37	32711.33
517.54	33624.14
517.72	33153.69
517.89	32680.90
518.06	33366.68
518.24	33186.46
518.41	33191.14
518.58	33425.19
518.75	33551.58
518.93	33596.05
519.10	33710.74
519.27	33666.27
519.45	33979.90
519.62	33825.42
519.79	33902.66
519.96	34192.89
520.14	34558.01
520.31	34087.56
520.48	34761.64
520.65	33991.60
520.83	34815.47
521.00	34890.37
521.17	34345.02
521.34	34536.94
521.52	34501.84
521.69	34986.33
521.86	35402.94
522.03	35147.82
522.20	35164.21
522.38	35484.86
522.55	35129.10
522.72	35311.66
522.89	35613.59
523.07	35552.74
523.24	35431.03
523.41	35608.91
523.58	35379.54
523.75	35459.12
523.92	35786.79
524.10	35976.37
524.27	36109.78
524.44	35868.71
524.61	36275.96
524.78	36306.39
524.96	36161.28
525.13	36126.17
525.30	36465.55
525.47	36458.52
525.64	36374.27
525.81	36727.69
525.98	36636.41
526.16	36629.38
526.33	36182.34
526.50	37247.29
526.67	36442.14
526.84	36823.65
527.01	36875.14
527.18	36830.67
527.36	37034.30
527.53	36973.44
527.70	37694.33
527.87	37476.66
528.04	37261.33
528.21	37481.34
528.38	37422.83
528.55	37429.85
528.72	37860.51
528.89	37357.29
529.07	37947.11
529.24	37549.21
529.41	37551.56
529.58	37874.55
529.75	37909.66
529.92	37853.48
530.09	37780.93
530.26	38206.90
530.43	37780.93
530.60	38340.32
530.77	38277.12
530.94	38476.07
531.11	38408.19
531.28	38195.20
531.46	37977.53
531.63	38686.71
531.80	38146.05
531.97	38714.80
532.14	38983.96
532.31	39042.48
532.48	39035.45
532.65	38625.86
532.82	38462.02
532.99	39349.09
533.16	38670.33
533.33	39168.87
533.50	39543.35
533.67	39496.54
533.84	39033.11
534.01	39243.76
534.18	38939.49
534.35	39395.90
534.52	39402.92
534.69	39477.82
534.86	39929.54
535.03	39435.69
535.20	39653.36
535.37	39695.49
535.54	39754.00
535.71	39737.62
535.88	39959.97
536.05	39941.24
536.22	39934.22
536.38	40367.22
536.55	40151.89
536.72	40360.20
536.89	39948.26
537.06	39859.32
537.23	39763.36
537.40	39983.37
537.57	40350.84
537.74	40540.42
537.91	40875.12
538.08	40992.14
538.25	40399.99
538.42	40697.24
538.59	40811.92
538.75	40484.25
538.92	40603.61
539.09	40882.14
539.26	40584.89
539.43	40776.81
539.60	41366.63
539.77	40910.22
539.94	41701.32
540.11	41200.45
540.28	41593.66
540.44	41041.29
540.61	41357.27
540.78	41078.74
540.95	41844.10
541.12	41731.75
541.29	41989.21
541.46	41825.37
541.62	41209.81
541.79	42403.49
541.96	41497.70
542.13	41738.77
542.30	41823.03
542.47	42092.19
542.63	42609.45
542.80	42354.33
542.97	42431.57
543.14	42359.02
543.31	42153.05
543.48	42356.67
543.64	42628.18
543.81	42663.28
543.98	43019.05
544.15	42782.65
544.32	42644.56
544.48	43124.37
544.65	42740.52
544.82	42628.18
544.99	42370.72
545.16	43180.54
545.32	42600.09
545.49	43496.52
545.66	43871.00
545.83	44135.48
546.00	44170.59
546.16	43580.78
546.33	43250.76
546.50	42740.52
546.67	43503.54
546.83	42813.08
547.00	43140.75
547.17	43243.74
547.34	43466.09
547.50	43473.11
547.67	43665.03
547.84	43679.08
548.00	43536.30
548.17	43789.08
548.34	43391.19
548.51	43435.66
548.67	43695.46
548.84	43246.08
549.01	44058.24
549.18	43833.55
549.34	43641.63
549.51	43536.30
549.68	43695.46
549.84	43707.16
550.01	43810.15
550.18	43800.79
550.34	43971.64
550.51	43950.58
550.68	43948.24
550.84	43463.75
551.01	44449.11
551.18	43744.61
551.34	44126.12
551.51	43978.67
551.68	44055.90
551.84	44404.64
552.01	44472.52
552.18	44282.94
552.34	44306.34
552.51	44233.78
552.68	44046.54
552.84	43922.49
553.01	44350.81
553.18	43704.82
553.34	44451.45
553.51	44615.29
553.67	44687.85
553.84	44720.62
554.01	44800.19
554.17	44704.23
554.34	44659.76
554.51	44706.57
554.67	44631.68
554.84	44701.89
555.00	44275.91
555.17	44369.54
555.33	44634.02
555.50	44657.42
555.67	44561.46
555.83	44870.41
556.00	44500.61
556.16	45027.23
556.33	44634.02
556.50	44952.33
556.66	44802.53
556.83	45015.52
556.99	45425.12
557.16	45167.66
557.32	45024.89
557.49	45228.51
557.65	44900.84
557.82	44772.11
557.98	45195.74
558.15	45282.34
558.32	45483.63
558.48	45052.97
558.65	45834.71
558.81	45469.59
558.98	45397.03
559.14	45097.44
559.31	44891.48
559.47	45088.08
559.64	45322.13
559.80	45193.40
559.97	45546.82
560.13	45450.86
560.30	45965.78
560.46	45612.36
560.63	45797.26
560.79	45708.32
560.96	45675.55
561.12	45455.54
561.29	45312.77
561.45	45682.58
561.61	45509.38
561.78	45656.83
561.94	45551.51
562.11	45755.13
562.27	46185.79
562.44	45855.78
562.60	45219.15
562.77	45874.50
562.93	45420.44
563.10	45900.25
563.26	45776.20
563.42	46167.07
563.59	45923.65
563.75	45731.73
563.92	46286.43
564.08	45825.35
564.24	45879.18
564.41	45659.17
564.57	46014.93
564.74	46150.68
564.90	46160.05
565.07	46174.09
565.23	46291.12
565.39	45921.31
565.56	46298.14
565.72	45703.64
565.88	45818.33
566.05	45989.19
566.21	46003.23
566.38	46064.08
566.54	46000.89
566.70	46483.04
566.87	46492.40
567.03	46050.04
567.19	46834.12
567.36	46237.28
567.52	46220.90
567.68	46440.91
567.85	46195.15
568.01	46183.45
568.17	45808.96
568.34	46993.28
568.50	46581.34
568.66	46075.79
568.83	46344.95
568.99	46293.46
569.15	46277.07
569.32	46288.77
569.48	45993.87
569.64	46064.08
569.81	46361.33
569.97	46263.03
570.13	46511.13
570.30	46174.09
570.46	46110.89
570.62	46543.89
570.78	46396.44
570.95	46272.39
571.11	46216.22
571.27	45907.27
571.43	46405.80
571.60	46340.27
571.76	46543.89
571.92	46712.41
572.09	46644.54
572.25	46445.59
572.41	46536.87
572.57	46712.41
572.74	46813.05
572.90	46239.62
573.06	46288.77
573.22	46637.51
573.38	46707.73
573.55	46382.40
573.71	46873.91
573.87	47023.70
574.03	46405.80
574.20	45975.14
574.36	46351.97
574.52	46298.14
574.68	46623.47
574.84	46541.55
575.01	46571.98
575.17	46176.43
575.33	46426.87
575.49	46279.41
575.65	46609.43
575.82	47002.64
575.98	46745.18
576.14	46630.49
576.30	46700.71
576.46	46445.59
576.62	46794.33
576.79	46822.42
576.95	46932.42
577.11	46836.46
577.27	46719.43
577.43	46532.19
577.59	46684.33
577.75	46265.37
577.92	46756.88
578.08	46438.57
578.24	46358.99
578.40	46663.26
578.56	46651.56
578.72	47306.91
578.88	47206.26
579.04	46892.63
579.21	46604.75
579.37	46824.76
579.53	46719.43
579.69	46265.37
579.85	46520.49
580.01	46579.00
580.17	46876.25
580.33	46880.93
580.49	47091.58
580.65	47288.18
580.82	47393.51
580.98	46866.89
581.14	47023.70
581.30	46916.04
581.46	46649.22
581.62	46663.26
581.78	46616.45
581.94	47196.90
582.10	46644.54
582.26	46902.00
582.42	47353.72
582.58	47232.01
582.74	47140.73
582.90	47269.46
583.06	47229.67
583.22	46384.74
583.38	46740.50
583.54	47044.77
583.70	46782.63
583.86	46855.18
584.02	46941.78
584.18	47065.83
584.34	47138.39
584.50	46735.82
584.66	47061.15
584.82	46831.78
584.98	46993.28
585.14	46827.10
585.30	46522.83
585.46	46990.94
585.62	46878.59
585.78	47030.72
585.94	46880.93
586.10	46827.10
586.26	47150.09
586.42	47302.23
586.58	47562.03
586.74	46939.44
586.90	46934.76
587.06	46937.10
587.22	47400.53
587.38	47028.38
587.54	47512.88
587.70	47384.15
587.86	47164.14
588.02	47000.30
588.18	47639.26
588.34	47419.25
588.49	47243.71
588.65	46918.38
588.81	46635.17
588.97	47386.49
589.13	47276.48
589.29	46976.89
589.45	47402.87
589.61	47201.58
589.77	47477.77
589.93	47650.97
590.08	47508.19
590.24	47351.38
590.40	47367.76
590.56	47391.17
590.72	47454.36
590.88	46806.03
591.04	47283.50
591.20	47496.49
591.35	47608.84
591.51	48062.90
591.67	47423.93
591.83	47674.37
591.99	47370.10
592.15	47445.00
592.31	47323.29
592.46	47213.29
592.62	47611.18
592.78	47587.77
592.94	47587.77
593.10	47646.29
593.26	47487.13
593.41	47243.71
593.57	47012.00
593.73	47367.76
593.89	47435.64
594.05	47388.83
594.20	47440.32
594.36	47473.09
594.52	47201.58
594.68	47709.48
594.84	47351.38
594.99	47613.52
595.15	47278.82
595.31	47983.32
595.47	47414.57
595.62	47538.62
595.78	47545.64
595.94	47627.56
596.10	47440.32
596.25	47468.40
596.41	47316.27
596.57	47093.92
596.73	47222.65
596.88	47164.14
597.04	47522.24
597.20	47590.11
597.36	47763.31
597.51	47945.87
597.67	47587.77
597.83	47449.68
597.99	47927.15
598.14	47557.35
598.30	47372.44
598.46	47412.23
598.61	47583.09
598.77	46997.96
598.93	47421.59
599.09	47798.42
599.24	47842.89
599.40	47756.29
599.56	47416.91
599.71	47484.79
599.87	47770.33
600.03	47519.90
600.18	47611.18
600.34	47901.40
600.50	47648.63
600.65	47374.78
600.81	47641.60
600.97	47966.94
601.12	48011.41
601.28	48009.07
601.44	47924.81
601.59	47456.70
601.75	47604.16
601.91	47573.73
602.06	47519.90
602.22	47807.78
602.37	47253.08
602.53	47456.70
602.69	47306.91
602.84	47629.90
603.00	47538.62
603.16	47749.27
603.31	47536.28
603.47	47367.76
603.62	47505.85
603.78	47559.69
603.94	47260.10
604.09	47618.20
604.25	47250.74
604.40	47091.58
604.56	47536.28
604.71	47786.72
604.87	47133.71
605.03	47543.30
605.18	47079.88
605.34	47276.48
605.49	46979.23
605.65	47334.99
605.80	47164.14
605.96	47253.08
606.12	47107.96
606.27	47564.37
606.43	47070.51
606.58	48055.88
606.74	47737.57
606.89	47302.23
607.05	47859.27
607.20	47367.76
607.36	46993.28
607.51	47409.89
607.67	47227.33
607.82	47084.56
607.98	47185.20
608.13	47702.46
608.29	47332.65
608.44	47203.92
608.60	46981.57
608.75	47510.53
608.91	47531.60
609.06	47440.32
609.22	47681.39
609.37	47026.04
609.53	47033.07
609.68	47217.97
609.84	47224.99
609.99	47320.95
610.15	47332.65
610.30	47466.06
610.46	47407.55
610.61	47445.00
610.76	47840.55
610.92	48184.61
611.07	48140.14
611.23	47870.98
611.38	48067.58
611.54	47665.01
611.69	47782.04
611.84	47332.65
612.00	47122.01
612.15	47105.62
612.31	47463.72
612.46	47246.05
612.62	47339.68
612.77	47175.84
612.92	47800.76
613.08	46962.85
613.23	46995.62
613.39	47049.45
613.54	47028.38
613.69	46604.75
613.85	46672.62
614.00	46965.19
614.15	46426.87
614.31	46824.76
614.46	47049.45
614.62	46670.28
614.77	47182.86
614.92	46958.17
615.08	46300.48
615.23	46801.35
615.38	47302.23
615.54	46532.19
615.69	46506.44
615.84	45839.39
616.00	46752.20
616.15	46873.91
616.30	46286.43
616.46	46775.61
616.61	46740.50
616.76	46684.33
616.92	46625.81
617.07	46157.70
617.22	46562.62
617.37	46396.44
617.53	46241.96
617.68	46160.05
617.83	45736.41
617.99	45918.97
618.14	46230.26
618.29	46330.90
618.45	46314.52
618.60	46120.26
618.75	45895.56
618.90	46328.56
619.06	45897.91
619.21	45986.85
619.36	45867.48
619.51	45748.11
619.67	45642.79
619.82	45647.47
619.97	46124.94
620.12	46005.57
620.28	45808.96
620.43	46263.03
620.58	45825.35
620.73	46298.14
620.89	46024.29
621.04	46176.43
621.19	46169.41
621.34	45886.20
621.49	45347.88
621.65	45427.46
621.80	45673.21
621.95	45270.64
622.10	45539.80
622.25	45656.83
622.41	45537.46
622.56	45181.70
622.71	45666.19
622.86	45558.53
623.01	45731.73
623.16	45865.14
623.32	45408.73
623.47	46033.66
623.62	45394.69
623.77	44968.71
623.92	45294.05
624.07	45453.20
624.23	45771.52
624.38	45893.22
624.53	45294.05
624.68	45258.94
624.83	45385.33
624.98	45556.19
625.13	45057.65
625.29	44687.85
625.44	45698.96
625.59	44973.39
625.74	44575.50
625.89	44554.44
626.04	44678.49
626.19	44947.65
626.34	44893.82
626.49	44655.08
626.65	44914.88
626.80	45799.60
626.95	44949.99
627.10	44753.38
627.25	44987.44
627.40	44320.38
627.55	44877.43
627.70	44758.06
627.85	44666.78
628.00	44261.87
628.15	44528.69
628.30	44273.57
628.45	44362.51
628.60	44804.88
628.76	44498.26
628.91	44346.13
629.06	44465.50
629.21	44467.84
629.36	44797.85
629.51	44280.60
629.66	44486.56
629.81	44285.28
629.96	43962.28
630.11	44561.46
630.26	44596.57
630.41	44472.52
630.56	44039.52
630.71	44350.81
630.86	44875.09
631.01	43999.73
631.16	44781.47
631.31	44315.70
631.46	44011.43
631.61	44126.12
631.76	44062.93
631.91	43653.33
632.06	43934.20
632.21	43770.36
632.36	43473.11
632.51	43662.69
632.66	43498.86
632.81	43686.10
632.96	44051.22
633.10	43753.97
633.25	43852.28
633.40	43494.18
633.55	44025.48
633.70	43320.98
633.85	43849.94
634.00	43342.04
634.15	43686.10
634.30	43257.78
634.45	43440.34
634.60	43962.28
634.75	43585.46
634.90	43239.06
635.05	43620.56
635.19	43622.90
635.34	43349.06
635.49	42986.28
635.64	43374.81
635.79	43203.95
635.94	43473.11
636.09	43309.27
636.24	43297.57
636.39	43040.11
636.53	43171.18
636.68	42873.93
636.83	42803.72
636.98	43292.89
637.13	42820.10
637.28	43295.23
637.43	43452.05
637.57	43365.45
637.72	42909.04
637.87	43070.54
638.02	43070.54
638.17	42728.82
638.32	42841.17
638.46	42773.29
638.61	42667.97
638.76	43147.78
638.91	42873.93
639.06	42850.53
639.20	42579.03
639.35	42600.09
639.50	42515.83
639.65	43260.12
639.80	42848.19
639.94	42590.73
640.09	42820.10
640.24	42670.31
640.39	42225.60
640.54	42396.46
640.68	42522.85
640.83	42513.49
640.98	42195.18
641.13	42274.76
641.27	42682.01
641.42	42375.40
641.57	42370.72
641.72	42497.11
641.86	42426.89
642.01	42483.06
642.16	42361.36
642.31	41897.93
642.45	42115.60
642.60	42674.99
642.75	42389.44
642.90	41991.55
643.04	41228.54
643.19	41610.04
643.34	41982.19
643.48	42096.88
643.63	41860.48
643.78	42410.51
643.93	42246.67
644.07	42127.30
644.22	41446.21
644.37	41890.91
644.51	41890.91
644.66	41904.95
644.81	41659.20
644.95	41832.39
645.10	41895.59
645.25	41977.51
645.39	42223.26
645.54	41722.39
645.69	42279.44
645.83	41930.70
645.98	41673.24
646.13	41738.77
646.27	41633.45
646.42	41853.46
646.57	41642.81
646.71	41624.09
646.86	42033.68
647.00	41249.60
647.15	41418.12
647.30	41324.50
647.44	41244.92
647.59	41361.95
647.74	41226.20
647.88	41212.15
648.03	41904.95
648.17	41617.07
648.32	41605.36
648.47	41750.48
648.61	41186.41
648.76	41823.03
648.90	41099.81
649.05	41132.57
649.20	41497.70
649.34	41397.06
649.49	40982.78
649.63	40786.18
649.78	41413.44
649.92	40987.46
650.07	41518.76
650.21	41343.22
650.36	41247.26
650.51	41287.05
650.65	41141.94
650.80	41254.28
650.94	40559.14
651.09	41092.79
651.23	40392.97
651.38	40739.36
651.52	40535.74
651.67	40641.06
651.81	40362.54
651.96	40297.00
652.10	40720.64
652.25	40896.18
652.39	40636.38
652.54	41219.17
652.68	40751.07
652.83	40692.55
652.97	41092.79
653.12	40481.91
653.26	40814.26
653.41	40713.62
653.55	40594.25
653.70	40280.62
653.84	40811.92
653.99	40552.12
654.13	40512.33
654.27	40746.39
654.42	40280.62
654.56	40554.46
654.71	40608.29
654.85	40278.28
655.00	40531.06
655.14	40203.38
655.29	40226.79
655.43	39845.28
655.57	39814.85
655.72	40191.68
655.86	39711.87
656.01	39964.65
656.15	39566.76
656.30	39974.01
656.44	39681.44
656.58	39578.46
656.73	39695.49
656.87	39882.73
657.01	39335.04
657.16	39978.69
657.30	40463.18
657.45	40020.82
657.59	40149.55
657.73	39208.65
657.88	39248.44
658.02	39730.59
658.16	39482.50
658.31	39749.32
658.45	39433.35
658.60	39445.05
658.74	39522.29
658.88	39440.37
659.03	39070.56
659.17	39374.83
659.31	39353.77
659.46	39269.51
659.60	39915.50
659.74	39292.91
659.89	39332.70
660.03	38855.23
660.17	39201.63
660.32	39000.35
660.46	38862.26
660.60	38455.00
660.74	38649.27
660.89	39005.03
661.03	38415.21
661.17	38476.07
661.32	39030.77
661.46	38586.07
661.60	38403.51
661.74	38590.75
661.89	38433.94
662.03	39166.52
662.17	38506.49
662.31	38515.86
662.46	38323.93
662.60	38242.01
662.74	38089.88
662.88	38078.18
663.03	37858.17
663.17	37914.34
663.31	37853.48
663.45	37432.19
663.60	38258.40
663.74	37862.85
663.88	38398.83
664.02	37860.51
664.17	37998.60
664.31	37921.36
664.45	37794.97
664.59	37610.07
664.73	37614.75
664.88	37794.97
665.02	37179.41
665.16	37488.36
665.30	37347.93
665.44	37385.38
665.59	37397.08
665.73	37404.10
665.87	37088.13
666.01	37289.42
666.15	37090.47
666.29	37205.16
666.44	37574.96
666.58	36865.78
666.72	36849.39
666.86	37148.98
667.00	36828.33
667.14	36568.53
667.28	36715.98
667.43	36566.19
667.57	36833.01
667.71	36542.78
667.85	36449.16
667.99	36112.13
668.13	36123.83
668.27	36355.54
668.41	36027.87
668.56	35913.18
668.70	36744.07
668.84	36559.17
668.98	36318.09
669.12	36428.10
669.26	36175.32
669.40	35512.95
669.54	35974.03
669.68	35962.33
669.82	35180.59
669.96	35501.25
670.10	35372.52
670.25	35342.09
670.39	35613.59
670.53	35419.33
670.67	35400.60
670.81	36275.96
670.95	35201.66
671.09	34998.03
671.23	35311.66
671.37	35569.12
671.51	35363.15
671.65	35646.36
671.79	35108.04
671.93	35028.46
672.07	34707.80
672.21	34520.56
672.35	34621.20
672.49	34644.61
672.63	34389.49
672.77	34045.43
672.91	34518.22
673.05	34651.63
673.19	34342.68
673.33	34520.56
673.47	34466.73
673.61	34298.21
673.75	34330.98
673.89	34623.54
674.03	34284.17
674.17	34092.24
674.31	34066.50
674.45	34094.58
674.59	33813.72
674.73	33666.27
674.87	33242.63
675.01	33228.59
675.15	33301.14
675.29	33212.20
675.43	33394.76
675.56	33153.69
675.70	33518.81
675.84	33696.69
675.98	32383.65
676.12	32641.11
676.26	33067.09
676.40	33174.75
676.54	33411.15
676.68	32730.05
676.82	32165.98
676.96	32594.30
677.10	32577.92
677.23	32238.54
677.37	31681.49
677.51	32055.98
677.65	31592.55
677.79	31452.12
677.93	31803.20
678.07	31538.72
678.21	31206.36
678.34	31522.34
678.48	31599.57
678.62	31311.69
678.76	31215.72
678.90	31178.28
679.04	30834.22
679.18	30859.96
679.31	30546.33
679.45	30721.87
679.59	30438.67
679.73	30604.84
679.87	30438.67
680.00	30047.80
680.14	30022.05
680.28	30148.44
680.42	30335.68
680.56	30045.46
680.70	30045.46
680.83	30134.40
680.97	29846.51
681.11	29811.40
681.25	29743.53
681.39	29656.93
681.52	29450.96
681.66	29481.39
681.80	29635.86
681.94	29081.16
682.07	29619.48
682.21	29205.20
682.35	28961.79
682.49	29109.24
682.62	28613.05
682.76	28430.49
682.90	28685.61
683.04	28847.10
683.17	28620.07
683.31	28184.73
683.45	28383.68
683.59	28222.18
683.72	28194.09
683.86	27962.38
684.00	27880.46
684.13	27852.38
684.27	27669.81
684.41	27730.67
684.55	27316.39
684.68	27243.84
684.82	27405.33
684.96	27452.14
685.09	27435.76
685.23	27131.49
685.37	26902.12
685.50	27035.53
685.64	26848.29
685.78	27084.68
685.91	27227.45
686.05	27225.11
686.19	26333.37
686.32	26930.20
686.46	26319.32
686.60	26047.82
686.73	26281.88
686.87	26300.60
687.01	26167.19
687.14	26129.74
687.28	26106.34
687.42	25671.00
687.55	25781.00
687.69	25453.33
687.82	25610.14
687.96	25551.63
688.10	25642.91
688.23	25139.69
688.37	25579.71
688.50	25329.28
688.64	24863.51
688.78	25305.87
688.91	24805.00
689.05	24938.41
689.18	24915.00
689.32	24046.66
689.46	24659.88
689.59	24360.30
689.73	24332.21
689.86	24269.01
690.00	23828.99
690.13	24100.50
690.27	23892.19
690.41	24184.76
690.54	23438.12
690.68	23775.16
690.81	23566.85
690.95	23800.91
691.08	23548.13
691.22	23826.65
691.35	23508.34
691.49	22991.08
691.62	23269.61
691.76	23131.51
691.89	22829.59
692.03	22721.92
692.16	22532.34
692.30	22412.97
692.43	22827.24
692.57	22625.96
692.70	22691.49
692.84	22551.06
692.97	22349.78
693.11	22361.48
693.24	22300.62
693.38	22272.54
693.51	22139.13
693.65	22382.54
693.78	21830.18
693.92	21806.77
694.05	21654.64
694.19	21645.27
694.32	21511.86
694.45	21895.71
694.59	21036.74
694.72	21216.96
694.86	21174.83
694.99	20891.62
695.13	20989.92
695.26	20968.86
695.39	20758.21
695.53	21010.99
695.66	21088.23
695.80	20940.77
695.93	20636.50
696.07	20720.76
696.20	20388.41
696.33	20521.82
696.47	20402.45
696.60	20191.80
696.73	20247.97
696.87	20091.16
697.00	19779.87
697.14	19695.61
697.27	19531.77
697.40	19417.08
697.54	19555.18
697.67	19178.35
697.80	19300.06
697.94	19456.87
698.07	19176.01
698.21	19236.86
698.34	19194.73
698.47	19204.10
698.61	18700.88
698.74	19124.52
698.87	18860.04
699.01	18359.16
699.14	18338.10
699.27	18773.44
699.40	18523.00
699.54	18387.25
699.67	18305.33
699.80	18003.40
699.94	17841.90
700.07	17895.74
700.20	17813.82
700.34	17682.75
700.47	17640.62
700.60	17785.73
700.73	17825.52
700.87	17460.40
701.00	17640.62
701.13	17507.21
701.26	17451.03
701.40	17408.90
701.53	17467.42
701.66	17444.01
701.79	17205.28
701.93	16989.95
702.06	16886.97
702.19	16849.52
702.32	16893.99
702.46	16641.21
702.59	16355.66
702.72	16346.30
702.85	16325.24
702.99	16514.82
703.12	16365.03
703.25	16545.25
703.38	16549.93
703.51	16498.44
703.65	16423.54
703.78	16177.78
703.91	16119.27
704.04	16065.44
704.17	15913.30
704.31	15786.91
704.44	15627.76
704.57	15789.25
704.70	15389.02
704.83	15295.40
704.96	15229.87
705.10	15400.72
705.23	15154.97
>>>>>End Processed Spectral Data<<<<<
