SpectraSuite Data File
++++++++++++++++++++++++++++++++++++
Date: Fri Oct 04 11:39:31 GMT-05:00 2013
User: price-jones
Dark Spectrum Present: No
Reference Spectrum Present: No
Number of Sampled Component Spectra: 1
Spectrometers: USB2+H05261
Integration Time (usec): 100000 (USB2+H05261)
Spectra Averaged: 1 (USB2+H05261)
Boxcar Smoothing: 0 (USB2+H05261)
Correct for Electrical Dark: No (USB2+H05261)
Strobe/Lamp Enabled: No (USB2+H05261)
Correct for Detector Non-linearity: No (USB2+H05261)
Correct for Stray Light: No (USB2+H05261)
Number of Pixels in Processed Spectrum: 2048
>>>>>Begin Processed Spectral Data<<<<<
365.73	53.83
365.92	53.83
366.12	53.83
366.32	0.00
366.52	0.00
366.72	0.00
366.91	0.00
367.11	0.00
367.31	0.00
367.51	0.00
367.70	0.00
367.90	14.04
368.10	0.00
368.30	0.00
368.49	0.00
368.69	0.00
368.89	56.17
369.09	56.17
369.28	39.79
369.48	0.00
369.68	0.00
369.87	28.09
370.07	11.70
370.27	16.38
370.47	112.35
370.66	257.46
370.86	220.01
371.06	292.57
371.25	287.89
371.45	224.69
371.65	341.72
371.84	252.78
372.04	259.80
372.24	290.23
372.44	187.24
372.63	337.04
372.83	360.44
373.03	330.02
373.22	383.85
373.42	348.74
373.62	374.49
373.81	395.55
374.01	433.00
374.21	397.89
374.40	308.95
374.60	374.49
374.79	346.40
374.99	287.89
375.19	428.32
375.38	393.21
375.58	367.46
375.78	383.85
375.97	397.89
376.17	358.10
376.37	411.93
376.56	390.87
376.76	451.72
376.95	425.98
377.15	526.62
377.35	428.32
377.54	454.06
377.74	386.19
377.93	367.46
378.13	395.55
378.33	402.57
378.52	421.30
378.72	418.96
378.91	454.06
379.11	425.98
379.31	400.23
379.50	423.64
379.70	512.58
379.89	465.77
380.09	479.81
380.28	449.38
380.48	397.89
380.68	449.38
380.87	421.30
381.07	514.92
381.26	547.69
381.46	524.28
381.65	486.83
381.85	449.38
382.04	552.37
382.24	547.69
382.43	500.87
382.63	449.38
382.83	477.47
383.02	538.32
383.22	475.13
383.41	421.30
383.61	458.74
383.80	547.69
384.00	566.41
384.19	557.05
384.39	533.64
384.58	594.50
384.78	491.51
384.97	517.26
385.17	571.09
385.36	571.09
385.56	554.71
385.75	559.39
385.95	543.00
386.14	557.05
386.34	613.22
386.53	627.26
386.72	566.41
386.92	571.09
387.11	606.20
387.31	608.54
387.50	543.00
387.70	566.41
387.89	645.99
388.09	641.31
388.28	592.16
388.48	587.47
388.67	662.37
388.86	578.11
389.06	601.52
389.25	631.94
389.45	627.26
389.64	617.90
389.84	594.50
390.03	674.07
390.22	638.97
390.42	641.31
390.61	617.90
390.81	629.60
391.00	683.44
391.19	713.86
391.39	702.16
391.58	699.82
391.78	650.67
391.97	734.93
392.16	669.39
392.36	739.61
392.55	772.38
392.75	695.14
392.94	746.63
393.13	716.20
393.33	851.96
393.52	779.40
393.71	798.12
393.91	847.27
394.10	840.25
394.29	788.76
394.49	746.63
394.68	755.99
394.88	798.12
395.07	866.00
395.26	856.64
395.46	823.87
395.65	919.83
395.84	880.04
396.04	922.17
396.23	828.55
396.42	901.11
396.62	786.42
396.81	887.06
397.00	840.25
397.19	877.70
397.39	877.70
397.58	896.43
397.77	940.90
397.97	891.74
398.16	896.43
398.35	1041.54
398.55	976.00
398.74	985.37
398.93	980.68
399.12	1008.77
399.32	1015.79
399.51	1027.50
399.70	1043.88
399.90	1039.20
400.09	1095.37
400.28	1032.18
400.47	1149.20
400.67	1111.75
400.86	992.39
401.05	1039.20
401.24	1149.20
401.44	1132.82
401.63	1188.99
401.82	1132.82
402.01	1193.67
402.21	1275.59
402.40	1170.27
402.59	1139.84
402.78	1158.57
402.97	1205.38
403.17	1238.14
403.36	1380.92
403.55	1245.16
403.74	1317.72
403.93	1343.47
404.13	1324.74
404.32	1336.45
404.51	1348.15
404.70	1273.25
404.89	1329.42
405.09	1497.94
405.28	1324.74
405.47	1413.68
405.66	1481.56
405.85	1441.77
406.05	1437.09
406.24	1516.67
406.43	1519.01
406.62	1514.33
406.81	1540.07
407.00	1446.45
407.20	1556.46
407.39	1549.43
407.58	1610.29
407.77	1570.50
407.96	1607.95
408.15	1687.53
408.34	1631.35
408.54	1734.34
408.73	1722.63
408.92	1689.87
409.11	1703.91
409.30	1785.83
409.49	1863.07
409.68	1776.47
409.87	1650.08
410.07	1849.02
410.26	1888.81
410.45	1898.17
410.64	1816.26
410.83	1893.49
411.02	1825.62
411.21	1991.80
411.40	1966.05
411.59	2036.27
411.78	1921.58
411.98	2062.01
412.17	2015.20
412.36	1935.62
412.55	2059.67
412.74	2122.87
412.93	2176.70
413.12	2073.71
413.31	2174.36
413.50	2136.91
413.69	2181.38
413.88	2305.43
414.07	2375.64
414.26	2413.09
414.45	2422.45
414.64	2380.32
414.83	2361.60
415.02	2466.92
415.22	2443.52
415.41	2495.01
415.60	2567.57
415.79	2497.35
415.98	2523.10
416.17	2597.99
416.36	2612.04
416.55	2607.36
416.74	2562.89
416.93	2586.29
417.12	2738.43
417.31	2754.81
417.50	2731.41
417.69	2686.94
417.88	2766.51
418.07	2768.85
418.26	2867.16
418.45	2818.00
418.64	3000.57
418.83	2930.35
419.02	2806.30
419.21	2944.39
419.39	2970.14
419.58	2951.42
419.77	2977.16
419.96	3084.83
420.15	3112.91
420.34	3052.06
420.53	3131.64
420.72	3262.71
420.91	3173.77
421.10	3269.73
421.29	3157.38
421.48	3110.57
421.67	3239.30
421.86	3169.09
422.05	3421.86
422.24	3304.84
422.43	3288.45
422.61	3248.66
422.80	3346.97
422.99	3269.73
423.18	3272.07
423.37	3396.12
423.56	3314.20
423.75	3290.79
423.94	3325.90
424.13	3115.25
424.32	3246.32
424.50	3435.91
424.69	3417.18
424.88	3356.33
425.07	3403.14
425.26	3290.79
425.45	3529.53
425.64	3344.63
425.83	3438.25
426.01	3478.04
426.20	3471.01
426.39	3428.88
426.58	3574.00
426.77	3454.63
426.96	3386.76
427.15	3461.65
427.33	3473.36
427.52	3566.98
427.71	3548.25
427.90	3447.61
428.09	3669.96
428.28	3644.21
428.46	3714.43
428.65	3637.19
428.84	3686.34
429.03	3726.13
429.22	3712.09
429.40	3826.78
429.59	3831.46
429.78	3812.73
429.97	3552.93
430.16	3716.77
430.34	3873.59
430.53	3946.14
430.72	3805.71
430.91	3829.12
431.10	3782.31
431.28	3868.91
431.47	3978.91
431.66	3976.57
431.85	3995.29
432.03	4091.26
432.22	4238.71
432.41	4060.83
432.60	4042.11
432.79	3995.29
432.97	4060.83
433.16	4212.96
433.35	4147.43
433.54	4124.02
433.72	4149.77
433.91	4266.80
434.10	4145.09
434.28	4208.28
434.47	4311.27
434.66	4365.10
434.85	4414.25
435.03	4414.25
435.22	4540.64
435.41	4753.63
435.59	4617.88
435.78	4744.27
435.97	4535.96
436.16	4603.83
436.34	4432.97
436.53	4369.78
436.72	4552.34
436.90	4358.08
437.09	4517.23
437.28	4325.31
437.46	4442.34
437.65	4608.51
437.84	4533.62
438.02	4652.98
438.21	4699.80
438.40	4624.90
438.58	4678.73
438.77	4788.74
438.96	4753.63
439.14	4887.04
439.33	5029.81
439.52	4889.38
439.70	4975.98
439.89	5097.69
440.08	4945.55
440.26	5029.81
440.45	5034.49
440.63	5153.86
440.82	5114.07
441.01	5233.44
441.19	5245.14
441.38	5327.06
441.57	5413.66
441.75	5273.23
441.94	5434.72
442.12	5366.85
442.31	5551.75
442.50	5430.04
442.68	5336.42
442.87	5490.90
443.05	5547.07
443.24	5589.20
443.43	5607.92
443.61	5502.60
443.80	5584.52
443.98	5502.60
444.17	5460.47
444.35	5717.93
444.54	5762.40
444.73	5731.97
444.91	5621.97
445.10	5689.84
445.28	5755.38
445.47	5657.07
445.65	5767.08
445.84	5668.78
446.02	5628.99
446.21	5783.46
446.39	5645.37
446.58	5722.61
446.77	5973.05
446.95	5893.47
447.14	5750.70
447.32	5944.96
447.51	5982.41
447.69	5795.17
447.88	5886.45
448.06	5750.70
448.25	5816.23
448.43	5820.91
448.62	5874.74
448.80	5767.08
448.99	5940.28
449.17	6193.06
449.36	6017.52
449.54	6129.86
449.73	6083.05
449.91	6176.67
450.10	6209.44
450.28	6078.37
450.46	6328.81
450.65	6094.76
450.83	6223.48
451.02	6090.07
451.20	6235.19
451.39	6338.17
451.57	6429.45
451.76	6090.07
451.94	6235.19
452.13	6420.09
452.31	6253.91
452.49	6317.11
452.68	6253.91
452.86	6270.30
453.05	6424.77
453.23	6537.12
453.42	6382.64
453.60	6420.09
453.78	6572.22
453.97	6401.37
454.15	6593.29
454.34	6392.00
454.52	6595.63
454.70	6560.52
454.89	6537.12
455.07	6810.96
455.26	6635.42
455.44	6923.30
455.62	6715.00
455.81	6810.96
455.99	6785.21
456.17	6731.38
456.36	6869.47
456.54	7002.88
456.73	6958.41
456.91	7070.76
457.09	6998.20
457.28	7372.69
457.46	6984.16
457.64	7337.58
457.83	7119.91
458.01	7063.74
458.19	7433.54
458.38	7176.08
458.56	7365.67
458.74	7279.07
458.93	7269.70
459.11	7360.98
459.29	7314.17
459.48	7400.77
459.66	7344.60
459.84	7473.33
460.03	7452.27
460.21	7442.90
460.39	7508.44
460.57	7351.62
460.76	7597.38
460.94	7655.89
461.12	7510.78
461.31	7534.18
461.49	7377.37
461.67	7468.65
461.85	7740.15
462.04	7700.36
462.22	7625.47
462.40	7716.75
462.59	7927.39
462.77	7861.86
462.95	7873.56
463.13	7845.48
463.32	7868.88
463.50	7997.61
463.68	8056.12
463.86	7901.65
464.05	7953.14
464.23	7976.55
464.41	7992.93
464.59	7894.63
464.78	8203.58
464.96	8124.00
465.14	8159.11
465.32	8140.38
465.50	7999.95
465.69	8311.24
465.87	8194.22
466.05	8154.43
466.23	8049.10
466.41	8264.43
466.60	8344.01
466.78	8229.32
466.96	8257.41
467.14	8018.68
467.32	8152.09
467.51	8315.92
467.69	8159.11
467.87	8451.67
468.05	8608.49
468.23	8561.68
468.41	8301.88
468.60	8629.56
468.78	8711.47
468.96	8599.13
469.14	8723.18
469.32	8685.73
469.50	8681.05
469.69	8601.47
469.87	8847.22
470.05	8868.29
470.23	8847.22
470.41	8828.50
470.59	8840.20
470.77	8870.63
470.95	9132.77
471.14	8861.27
471.32	8933.82
471.50	9198.31
471.68	9158.52
471.86	9336.40
472.04	9123.41
472.22	9214.69
472.40	9210.01
472.58	9303.63
472.77	9193.62
472.95	9596.20
473.13	9614.92
473.31	9479.17
473.49	9540.02
473.67	9525.98
473.85	9544.70
474.03	9891.10
474.21	9919.19
474.39	9956.64
474.57	9715.56
474.75	9830.25
474.93	10193.03
475.12	9839.61
475.30	10090.05
475.48	9914.51
475.66	10178.99
475.84	10239.84
476.02	10249.21
476.20	10274.95
476.38	10527.73
476.56	10834.34
476.74	10733.70
476.92	10721.99
477.10	10693.91
477.28	10834.34
477.46	10719.65
477.64	10902.22
477.82	11068.39
478.00	11342.24
478.18	11300.11
478.36	11379.68
478.54	11442.88
478.72	11442.88
478.90	11475.65
479.08	11779.92
479.26	11812.68
479.44	11847.79
479.62	12077.16
479.80	11920.35
479.98	12128.66
480.16	12386.12
480.34	12170.79
480.52	12334.62
480.70	12255.04
480.88	12245.68
481.06	12531.23
481.24	12283.13
481.41	12652.94
481.59	12901.03
481.77	12809.75
481.95	12966.57
482.13	13036.78
482.31	13214.66
482.49	13453.40
482.67	13399.57
482.85	13301.26
483.03	13652.34
483.21	13963.64
483.39	13942.57
483.57	13891.08
483.74	14078.32
483.92	14260.88
484.10	14104.07
484.28	14506.64
484.46	14738.35
484.64	14670.48
484.82	14609.62
485.00	14920.92
485.18	15143.27
485.35	15133.90
485.53	15246.25
485.71	15309.44
485.89	15473.28
486.07	15309.44
486.25	15627.76
486.43	15772.87
486.61	15756.49
486.78	16273.74
486.96	15939.05
487.14	16358.00
487.32	16465.67
487.50	16514.82
487.68	16435.24
487.85	16573.33
488.03	16975.91
488.21	16814.41
488.39	17149.11
488.57	17231.02
488.75	17434.65
488.92	17792.75
489.10	18033.83
489.28	17762.33
489.46	18104.04
489.64	17867.65
489.81	18380.23
489.99	18232.77
490.17	18363.84
490.35	18654.07
490.53	18520.66
490.70	19075.37
490.88	18876.42
491.06	19037.92
491.24	18972.38
491.41	19150.26
491.59	19367.93
491.77	19129.20
491.95	19695.61
492.13	19667.52
492.30	19875.83
492.48	19906.26
492.66	19920.30
492.84	20088.82
493.01	20198.82
493.19	20561.61
493.37	20339.26
493.54	20381.38
493.72	20643.52
493.90	20755.87
494.08	20823.75
494.25	21081.21
494.43	21221.64
494.61	21715.49
494.79	21341.00
494.96	21369.09
495.14	21865.28
495.32	21706.13
495.49	21914.44
495.67	22190.62
495.85	22141.47
496.02	22295.94
496.20	22419.99
496.38	22492.55
496.55	22527.66
496.73	22864.69
496.91	22773.41
497.09	22764.05
497.26	23063.64
497.44	23185.35
497.62	23171.30
497.79	23594.94
497.97	23426.42
498.14	23770.48
498.32	23875.80
498.50	24170.71
498.67	24006.87
498.85	24269.01
499.03	24556.90
499.20	24486.68
499.38	24517.11
499.56	24189.44
499.73	24627.12
499.91	24919.68
500.08	24683.29
500.26	24711.38
500.44	25132.67
500.61	24959.47
500.79	24863.51
500.97	24823.72
501.14	25633.55
501.32	25181.82
501.49	25500.14
501.67	25528.22
501.84	25654.61
502.02	25579.71
502.20	25865.26
502.37	26118.04
502.55	25518.86
502.72	26249.11
502.90	26111.02
503.07	25811.43
503.25	25951.86
503.43	26340.39
503.60	26398.90
503.78	26419.97
503.95	26632.96
504.13	26792.11
504.30	26668.06
504.48	26696.15
504.65	26948.93
504.83	27211.07
505.01	27370.22
505.18	26874.03
505.36	27215.75
505.53	27175.96
505.71	27143.19
505.88	27480.23
506.06	27470.87
506.23	27854.72
506.41	27578.53
506.58	28107.49
506.76	27819.61
506.93	28210.48
507.11	27936.63
507.28	27887.48
507.46	27992.81
507.63	28166.01
507.81	28435.17
507.98	28432.83
508.16	28526.45
508.33	28610.71
508.50	28266.65
508.68	28673.90
508.85	28809.65
509.03	28694.97
509.20	29256.70
509.38	29336.27
509.55	29172.44
509.73	29507.13
509.90	29788.00
510.08	29413.51
510.25	29518.84
510.42	30050.14
510.60	29783.32
510.77	30019.71
510.95	30206.95
511.12	29846.51
511.30	29958.86
511.47	30089.93
511.64	29954.18
511.82	30651.66
511.99	30513.56
512.17	30536.97
512.34	30696.13
512.51	30476.12
512.69	31049.55
512.86	30888.05
513.04	31342.11
513.21	31688.51
513.38	31344.45
513.56	31192.32
513.73	30991.03
513.90	31159.55
514.08	31178.28
514.25	31693.19
514.43	32055.98
514.60	31948.31
514.77	31665.11
514.95	31587.87
515.12	31728.30
515.29	31775.11
515.47	32053.64
515.64	32086.40
515.81	31978.74
515.99	32198.75
516.16	32638.77
516.33	32072.36
516.51	32704.31
516.68	32210.45
516.85	32133.21
517.03	32804.95
517.20	32669.20
517.37	32589.62
517.54	32847.08
517.72	32790.91
517.89	33083.47
518.06	33017.94
518.24	33312.84
518.41	33460.30
518.58	33055.39
518.75	32905.59
518.93	33759.89
519.10	33497.75
519.27	33762.23
519.45	33694.35
519.62	33900.32
519.79	33764.57
519.96	33930.75
520.14	34120.33
520.31	33233.27
520.48	34110.97
520.65	34043.09
520.83	34300.55
521.00	34235.02
521.17	34305.23
521.34	34321.62
521.52	34206.93
521.69	34497.16
521.86	35070.59
522.03	34778.02
522.20	35108.04
522.38	34785.04
522.55	34717.17
522.72	35213.36
522.89	35529.33
523.07	35253.15
523.24	35007.39
523.41	34881.00
523.58	34829.51
523.75	35681.47
523.92	35129.10
524.10	35606.57
524.27	35321.02
524.44	35288.26
524.61	35754.02
524.78	36093.40
524.96	36144.89
525.13	36154.26
525.30	36084.04
525.47	35875.73
525.64	36180.00
525.81	36701.94
525.98	36215.11
526.16	36376.61
526.33	36322.77
526.50	36711.30
526.67	35749.34
526.84	36573.21
527.01	36100.42
527.18	36587.25
527.36	36484.27
527.53	36643.43
527.70	37022.59
527.87	36851.73
528.04	37031.96
528.21	37401.76
528.38	36919.61
528.55	37202.82
528.72	36919.61
528.89	37219.20
529.07	37556.24
529.24	37212.18
529.41	37139.62
529.58	36961.74
529.75	37172.39
529.92	37347.93
530.09	37427.51
530.26	37638.15
530.43	37762.20
530.60	37614.75
530.77	37289.42
530.94	37790.29
531.11	37900.29
531.28	38096.90
531.46	37696.67
531.63	38256.06
531.80	37977.53
531.97	38101.58
532.14	38394.15
532.31	38080.52
532.48	37975.19
532.65	38712.46
532.82	38129.67
532.99	38354.36
533.16	38719.48
533.33	38522.88
533.50	38902.04
533.67	38686.71
533.84	38490.11
534.01	38567.35
534.18	38733.53
534.35	38609.48
534.52	38424.57
534.69	39023.75
534.86	39164.18
535.03	39098.65
535.20	38789.70
535.37	39007.37
535.54	39171.21
535.71	39395.90
535.88	39618.25
536.05	39243.76
536.22	39423.98
536.38	39885.07
536.55	39370.15
536.72	39931.88
536.89	39140.78
537.06	39454.41
537.23	39716.55
537.40	39697.83
537.57	39641.65
537.74	39583.14
537.91	39899.11
538.08	40318.07
538.25	39880.39
538.42	39990.39
538.59	40182.32
538.75	39838.26
538.92	40051.25
539.09	40088.70
539.26	40390.62
539.43	40156.57
539.60	40212.74
539.77	40652.76
539.94	40322.75
540.11	40367.22
540.28	40704.26
540.44	40641.06
540.61	40449.14
540.78	40669.15
540.95	41301.09
541.12	41139.60
541.29	40891.50
541.46	40926.61
541.62	41003.85
541.79	40926.61
541.96	40692.55
542.13	40928.95
542.30	41324.50
542.47	41703.67
542.63	41684.94
542.80	41757.50
542.97	41610.04
543.14	41977.51
543.31	41235.56
543.48	41326.84
543.64	41516.42
543.81	41970.49
543.98	41654.51
544.15	42249.01
544.32	42431.57
544.48	42443.27
544.65	41909.63
544.82	41640.47
544.99	41888.57
545.16	41902.61
545.32	41649.83
545.49	42567.32
545.66	43019.05
545.83	43182.88
546.00	43339.70
546.16	42576.69
546.33	41975.17
546.50	42033.68
546.67	42349.65
546.83	41787.92
547.00	41986.87
547.17	42298.16
547.34	42314.55
547.50	42752.23
547.67	42988.62
547.84	42761.59
548.00	42876.27
548.17	42476.04
548.34	42476.04
548.51	43445.02
548.67	42483.06
548.84	42887.98
549.01	42564.98
549.18	43054.15
549.34	42686.69
549.51	42871.59
549.68	42478.38
549.84	42997.98
550.01	42625.84
550.18	42483.06
550.34	43220.33
550.51	43342.04
550.68	42920.74
550.84	42885.64
551.01	43353.74
551.18	42850.53
551.34	42719.46
551.51	42649.24
551.68	43082.24
551.84	42871.59
552.01	43012.02
552.18	43377.15
552.34	43217.99
552.51	43143.09
552.68	42801.38
552.84	43487.15
553.01	43569.07
553.18	43496.52
553.34	43559.71
553.51	43381.83
553.67	43697.80
553.84	44053.56
554.01	43789.08
554.17	43700.14
554.34	43606.52
554.51	43445.02
554.67	43761.00
554.84	43793.76
555.00	43742.27
555.17	43695.46
555.33	43966.96
555.50	43536.30
555.67	43550.35
555.83	43817.17
556.00	43878.02
556.16	43653.33
556.33	43213.31
556.50	44388.26
556.66	43730.57
556.83	44275.91
556.99	44128.46
557.16	44416.35
557.32	44105.06
557.49	43985.69
557.65	43833.55
557.82	43880.36
557.98	43662.69
558.15	44219.74
558.32	44617.63
558.48	44067.61
558.65	44292.30
558.81	44102.71
558.98	44184.63
559.14	44198.68
559.31	43885.04
559.47	44259.53
559.64	43859.30
559.80	44341.45
559.97	44524.01
560.13	43952.92
560.30	44521.67
560.46	44800.19
560.63	44334.43
560.79	44582.52
560.96	44814.24
561.12	44385.92
561.29	44685.51
561.45	44446.77
561.61	45036.59
561.78	44924.24
561.94	44442.09
562.11	44481.88
562.27	44699.55
562.44	44465.50
562.60	44509.97
562.77	44598.91
562.93	44126.12
563.10	45097.44
563.26	44570.82
563.42	45404.05
563.59	44753.38
563.75	44884.45
563.92	44973.39
564.08	44285.28
564.24	44580.18
564.41	44231.44
564.57	44540.39
564.74	44619.97
564.90	44818.92
565.07	44746.36
565.23	44598.91
565.39	44732.32
565.56	44699.55
565.72	44325.07
565.88	44727.64
566.05	44893.82
566.21	44648.06
566.38	44275.91
566.54	45074.04
566.70	45256.60
566.87	45134.89
567.03	44896.16
567.19	45038.93
567.36	45109.14
567.52	44903.18
567.68	45265.96
567.85	44769.77
568.01	45099.78
568.17	45055.31
568.34	44978.07
568.50	45036.59
568.66	45008.50
568.83	45167.66
568.99	45132.55
569.15	44821.26
569.32	44980.42
569.48	45193.40
569.64	44992.12
569.81	44928.92
569.97	45481.29
570.13	45413.41
570.30	44706.57
570.46	44854.03
570.62	45029.57
570.78	44938.29
570.95	44624.65
571.11	45415.76
571.27	44935.95
571.43	44514.65
571.60	45104.46
571.76	45373.63
571.92	45151.27
572.09	45478.95
572.25	45361.92
572.41	45139.57
572.57	45160.64
572.74	45572.57
572.90	44835.30
573.06	45038.93
573.22	45006.16
573.38	45233.19
573.55	45361.92
573.71	45556.19
573.87	45614.70
574.03	45034.25
574.20	45001.48
574.36	45125.53
574.52	45221.49
574.68	45488.31
574.84	45303.41
575.01	45357.24
575.17	45242.56
575.33	44964.03
575.49	45081.06
575.65	45844.07
575.82	45305.75
575.98	45059.99
576.14	45186.38
576.30	45390.01
576.46	45235.53
576.62	45516.40
576.79	45397.03
576.95	45237.87
577.11	45528.10
577.27	45563.21
577.43	45638.11
577.59	45333.84
577.75	45551.51
577.92	45284.68
578.08	44980.42
578.24	45048.29
578.40	45139.57
578.56	45312.77
578.72	45619.38
578.88	45762.15
579.04	45560.87
579.21	45516.40
579.37	45263.62
579.53	45399.37
579.69	45373.63
579.85	44783.81
580.01	45301.07
580.17	45069.36
580.33	45324.47
580.49	45724.71
580.65	45928.33
580.82	45607.68
580.98	45195.74
581.14	44917.22
581.30	45607.68
581.46	45214.47
581.62	45530.44
581.78	45081.06
581.94	45324.47
582.10	45368.94
582.26	45652.15
582.42	45162.98
582.58	45289.37
582.74	45457.88
582.90	45368.94
583.06	45471.93
583.22	45195.74
583.38	45258.94
583.54	45102.12
583.70	45001.48
583.86	45390.01
584.02	45228.51
584.18	45532.78
584.34	45432.14
584.50	46176.43
584.66	45368.94
584.82	45233.19
584.98	45420.44
585.14	45301.07
585.30	45162.98
585.46	45162.98
585.62	45214.47
585.78	45525.76
585.94	45170.00
586.10	45481.29
586.26	45429.80
586.42	46066.42
586.58	45446.18
586.74	45207.45
586.90	45390.01
587.06	45312.77
587.22	45624.06
587.38	45076.38
587.54	45574.91
587.70	45315.11
587.86	45666.19
588.02	45610.02
588.18	45869.82
588.34	46031.32
588.49	45815.99
588.65	45085.74
588.81	45539.80
588.97	45677.90
589.13	45544.48
589.29	45743.43
589.45	45820.67
589.61	45441.50
589.77	45698.96
589.93	45308.09
590.08	45813.65
590.24	45680.24
590.40	45586.61
590.56	46134.30
590.72	45471.93
590.88	45425.12
591.04	45815.99
591.20	45874.50
591.35	46010.25
591.51	46038.34
591.67	45806.62
591.83	46370.69
591.99	45956.42
592.15	45385.33
592.31	45743.43
592.46	45474.27
592.62	45745.77
592.78	45841.73
592.94	45521.08
593.10	45354.90
593.26	45890.88
593.41	45851.09
593.57	45776.20
593.73	45858.12
593.89	45886.20
594.05	45968.12
594.20	45359.58
594.36	45794.92
594.52	45235.53
594.68	45373.63
594.84	45177.02
594.99	45928.33
595.15	45811.31
595.31	45925.99
595.47	45825.35
595.62	46146.00
595.78	45954.08
595.94	45584.27
596.10	45818.33
596.25	45820.67
596.41	45294.05
596.57	45521.08
596.73	45631.08
596.88	45275.32
597.04	45947.06
597.20	46010.25
597.36	45792.58
597.51	45865.14
597.67	45495.33
597.83	45883.86
597.99	45958.76
598.14	45591.30
598.30	45708.32
598.46	45455.54
598.61	46012.59
598.77	45380.65
598.93	45858.12
599.09	45640.45
599.24	46204.52
599.40	45998.55
599.56	45883.86
599.71	45586.61
599.87	46117.92
600.03	45888.54
600.18	45872.16
600.34	45783.22
600.50	45813.65
600.65	45928.33
600.81	45923.65
600.97	45933.01
601.12	46007.91
601.28	46096.85
601.44	45345.54
601.59	45668.53
601.75	45858.12
601.91	46068.76
602.06	45839.39
602.22	45591.30
602.37	45633.42
602.53	45528.10
602.69	45951.74
602.84	45928.33
603.00	45799.60
603.16	45811.31
603.31	46047.70
603.47	45591.30
603.62	45275.32
603.78	45373.63
603.94	45495.33
604.09	45642.79
604.25	45422.78
604.40	45301.07
604.56	45380.65
604.71	45869.82
604.87	45530.44
605.03	45745.77
605.18	45549.17
605.34	45436.82
605.49	45296.39
605.65	45642.79
605.80	45160.64
605.96	45191.06
606.12	45422.78
606.27	45050.63
606.43	44985.10
606.58	45579.59
606.74	45153.62
606.89	45790.24
607.05	45684.92
607.20	45507.04
607.36	45336.18
607.51	45003.82
607.67	45113.83
607.82	44851.69
607.98	44987.44
608.13	45565.55
608.29	45048.29
608.44	45270.64
608.60	45404.05
608.75	45366.60
608.91	45556.19
609.06	45488.31
609.22	45347.88
609.37	45123.19
609.53	45214.47
609.68	45160.64
609.84	45048.29
609.99	45422.78
610.15	45364.26
610.30	45415.76
610.46	45427.46
610.61	45509.38
610.76	46092.17
610.92	45951.74
611.07	46302.82
611.23	45759.81
611.38	46075.79
611.54	45790.24
611.69	45511.72
611.84	45170.00
612.00	44821.26
612.15	44893.82
612.31	45518.74
612.46	44919.56
612.62	44720.62
612.77	45003.82
612.92	45092.76
613.08	44949.99
613.23	45324.47
613.39	44673.81
613.54	44722.96
613.69	44694.87
613.85	44545.08
614.00	44493.58
614.15	44811.90
614.31	44877.43
614.46	44872.75
614.62	44765.09
614.77	44631.68
614.92	44734.66
615.08	44584.86
615.23	44432.73
615.38	44404.64
615.54	44233.78
615.69	44432.73
615.84	44727.64
616.00	44112.08
616.15	44186.97
616.30	44741.68
616.46	44404.64
616.61	44364.85
616.76	44348.47
616.92	44451.45
617.07	44294.64
617.22	43821.85
617.37	43430.98
617.53	44306.34
617.68	43952.92
617.83	43934.20
617.99	43957.60
618.14	43643.97
618.29	44147.18
618.45	43707.16
618.60	43814.83
618.75	43693.12
618.90	43838.23
619.06	43892.07
619.21	43793.76
619.36	44135.48
619.51	43746.95
619.67	43180.54
619.82	43632.27
619.97	43653.33
620.12	43517.58
620.28	43618.22
620.43	43580.78
620.58	43442.68
620.73	43606.52
620.89	43641.63
621.04	43920.15
621.19	43854.62
621.34	43732.91
621.49	43449.70
621.65	43117.35
621.80	43210.97
621.95	43192.25
622.10	43512.90
622.25	43274.16
622.41	43578.43
622.56	43129.05
622.71	43344.38
622.86	43524.60
623.01	43360.76
623.16	43206.29
623.32	43267.14
623.47	42944.15
623.62	43075.22
623.77	42909.04
623.92	42906.70
624.07	43014.37
624.23	43320.98
624.38	42988.62
624.53	43021.39
624.68	42824.78
624.83	43217.99
624.98	43058.84
625.13	42672.65
625.29	42997.98
625.44	42511.15
625.59	42909.04
625.74	42586.05
625.89	42150.71
626.04	42408.17
626.19	42733.50
626.34	42476.04
626.49	42382.42
626.65	42321.57
626.80	42862.23
626.95	42579.03
627.10	42511.15
627.25	42600.09
627.40	42057.09
627.55	42108.58
627.70	42703.07
627.85	42045.38
628.00	42129.64
628.15	42108.58
628.30	42117.94
628.45	42389.44
628.60	42328.59
628.76	42012.62
628.91	42403.49
629.06	42017.30
629.21	42316.89
629.36	41827.71
629.51	42476.04
629.66	41918.99
629.81	41619.41
629.96	41886.23
630.11	41486.00
630.26	41729.41
630.41	41893.25
630.56	41902.61
630.71	42281.78
630.86	42089.85
631.01	41708.35
631.16	41811.33
631.31	42036.02
631.46	41806.65
631.61	41642.81
631.76	41738.77
631.91	41385.35
632.06	41301.09
632.21	41380.67
632.36	41734.09
632.51	41383.01
632.66	41853.46
632.81	41132.57
632.96	41626.43
633.10	41375.99
633.25	41638.13
633.40	41436.84
633.55	41282.37
633.70	41071.72
633.85	41350.24
634.00	41249.60
634.15	40467.86
634.30	41439.18
634.45	40952.35
634.60	41350.24
634.75	40711.28
634.90	41134.92
635.05	41242.58
635.19	40903.20
635.34	41090.44
635.49	40921.93
635.64	40772.13
635.79	41111.51
635.94	40795.54
636.09	41371.31
636.24	40428.07
636.39	40526.38
636.53	40484.25
636.68	40825.96
636.83	40891.50
636.98	40322.75
637.13	40711.28
637.28	41132.57
637.43	40961.72
637.57	40730.00
637.72	40715.96
637.87	40292.32
638.02	40718.30
638.17	40666.81
638.32	40502.97
638.46	40037.20
638.61	40175.30
638.76	40257.21
638.91	40631.70
639.06	40072.31
639.20	39959.97
639.35	40327.43
639.50	40650.42
639.65	40531.06
639.80	40753.41
639.94	40107.42
640.09	40257.21
640.24	39761.02
640.39	40067.63
640.54	39702.51
640.68	39887.41
640.83	39889.75
640.98	39487.18
641.13	39952.94
641.27	40025.50
641.42	39688.46
641.57	39625.27
641.72	39838.26
641.86	39920.18
642.01	39754.00
642.16	39824.22
642.31	39578.46
642.45	39714.21
642.60	39082.27
642.75	39489.52
642.90	39704.85
643.04	39461.43
643.19	39220.36
643.34	39709.53
643.48	39503.56
643.63	39007.37
643.78	39793.79
643.93	39828.90
644.07	39377.17
644.22	39681.44
644.37	39309.30
644.51	39438.03
644.66	39173.55
644.81	38958.22
644.95	39288.23
645.10	39227.38
645.25	39103.33
645.39	38920.77
645.54	39414.62
645.69	39171.21
645.83	38986.30
645.98	39239.08
646.13	39372.49
646.27	39129.08
646.42	39363.13
646.57	39037.80
646.71	39030.77
646.86	39419.30
647.00	38869.28
647.15	38712.46
647.30	38419.89
647.44	38864.60
647.59	38719.48
647.74	38569.69
647.88	38644.59
648.03	39129.08
648.17	39129.08
648.32	38864.60
648.47	38785.02
648.61	38895.02
648.76	38679.69
648.90	38667.99
649.05	38616.50
649.20	38522.88
649.34	38590.75
649.49	38424.57
649.63	38431.60
649.78	38183.50
649.92	38518.20
650.07	38714.80
650.21	38361.38
650.36	38316.91
650.51	38328.61
650.65	38850.55
650.80	38850.55
650.94	38286.48
651.09	38637.56
651.23	38211.59
651.38	38073.49
651.52	37886.25
651.67	38066.47
651.81	38117.96
651.96	38085.20
652.10	38139.03
652.25	38281.80
652.39	38134.35
652.54	38345.00
652.68	38225.63
652.83	38064.13
652.97	38394.15
653.12	37766.88
653.26	38129.67
653.41	37809.01
653.55	38078.18
653.70	37928.38
653.84	37474.32
653.99	37441.55
654.13	37701.35
654.27	37750.50
654.42	37659.22
654.56	37696.67
654.71	37572.62
654.85	37776.25
655.00	37900.29
655.14	37591.34
655.29	37310.48
655.43	37479.00
655.57	37354.95
655.72	37205.16
655.86	37598.37
656.01	37530.49
656.15	37223.88
656.30	37179.41
656.44	36964.08
656.58	37137.28
656.73	37057.70
656.87	37352.61
657.01	37216.86
657.16	37893.27
657.30	37258.99
657.45	37024.93
657.59	37699.01
657.73	36741.73
657.88	37034.30
658.02	36919.61
658.16	36849.39
658.31	36683.22
658.45	36723.01
658.60	36680.88
658.74	36783.86
658.88	36308.73
659.03	36645.77
659.17	36158.94
659.31	36507.68
659.46	36755.77
659.60	37031.96
659.74	37010.89
659.89	36694.92
660.03	36690.24
660.17	36526.40
660.32	36006.80
660.46	36252.56
660.60	36130.85
660.74	36151.91
660.89	35845.30
661.03	35901.48
661.17	36034.89
661.32	36299.37
661.46	36084.04
661.60	35978.72
661.74	36233.83
661.89	35835.94
662.03	36016.16
662.17	36142.55
662.31	35669.76
662.46	36327.45
662.60	35999.78
662.74	35445.07
662.88	35412.31
663.03	35409.96
663.17	35037.82
663.31	35442.73
663.45	35283.58
663.60	35480.18
663.74	35129.10
663.88	35342.09
664.02	34967.60
664.17	35552.74
664.31	35091.65
664.45	35129.10
664.59	34965.26
664.73	35213.36
664.88	34539.29
665.02	34508.86
665.16	34586.10
665.30	34550.99
665.44	34749.93
665.59	34637.59
665.73	34550.99
665.87	34487.79
666.01	34808.45
666.15	34284.17
666.29	34923.13
666.44	34309.91
666.58	34225.65
666.72	34366.09
666.86	34405.88
667.00	34326.30
667.14	34068.84
667.28	33741.16
667.43	34003.30
667.57	33954.15
667.71	33682.65
667.85	33853.51
667.99	33497.75
668.13	33434.55
668.27	34192.89
668.41	33937.77
668.56	33670.95
668.70	33427.53
668.84	33766.91
668.98	33277.74
669.12	33553.92
669.26	33663.93
669.40	33207.52
669.54	33497.75
669.68	33570.30
669.82	33104.54
669.96	33132.62
670.10	32877.51
670.25	33085.81
670.39	32830.69
670.53	32594.30
670.67	32755.80
670.81	32905.59
670.95	32753.46
671.09	32575.58
671.23	32659.84
671.37	32851.76
671.51	32891.55
671.65	32671.54
671.79	32170.66
671.93	32339.18
672.07	32547.49
672.21	32297.05
672.35	32009.17
672.49	31786.82
672.63	32280.67
672.77	31896.82
672.91	31978.74
673.05	31927.25
673.19	31810.22
673.33	31702.56
673.47	31566.81
673.61	31676.81
673.75	31887.46
673.89	31466.16
674.03	31599.57
674.17	31278.92
674.31	31321.05
674.45	31037.84
674.59	31033.16
674.73	31276.58
674.87	30703.15
675.01	30504.20
675.15	30602.50
675.29	30663.36
675.43	30661.02
675.56	30717.19
675.70	30787.41
675.84	30960.61
675.98	29523.52
676.12	30719.53
676.26	30569.74
676.40	30429.30
676.54	30497.18
676.68	30380.15
676.82	29902.68
676.96	30040.78
677.10	29656.93
677.23	29797.36
677.37	29706.08
677.51	29357.34
677.65	29668.63
677.79	29401.81
677.93	29067.11
678.07	29237.97
678.21	29371.38
678.34	28933.70
678.48	28896.25
678.62	28879.87
678.76	28973.49
678.90	28683.27
679.04	28912.64
679.18	28479.64
679.31	28776.89
679.45	28210.48
679.59	28299.42
679.73	28168.35
679.87	27913.23
680.00	27833.65
680.14	27690.88
680.28	27634.71
680.42	27702.58
680.56	28065.36
680.70	27733.01
680.83	27604.28
680.97	27854.72
681.11	27475.55
681.25	27730.67
681.39	27477.89
681.52	27351.50
681.66	27440.44
681.80	26824.88
681.94	27192.34
682.07	27058.93
682.21	26906.80
682.35	26841.26
682.49	26576.78
682.62	26810.84
682.76	26628.27
682.90	26497.20
683.04	26204.64
683.17	26143.78
683.31	26045.48
683.45	25928.45
683.59	26288.90
683.72	26080.59
683.86	25860.58
684.00	25778.66
684.13	25418.22
684.27	25460.35
684.41	25282.47
684.55	25116.29
684.68	25289.49
684.82	25097.56
684.96	25130.33
685.09	25631.21
685.23	24790.95
685.37	25017.99
685.50	24999.26
685.64	25158.42
685.78	24982.88
685.91	24797.98
686.05	24734.78
686.19	24645.84
686.32	24584.99
686.46	24011.56
686.60	24163.69
686.73	24292.42
686.87	23969.43
687.01	24154.33
687.14	23772.82
687.28	23831.33
687.42	23981.13
687.55	23803.25
687.69	23814.95
687.82	23398.34
687.96	23447.49
688.10	23424.08
688.23	23417.06
688.37	23026.19
688.50	23126.83
688.64	23033.21
688.78	23250.88
688.91	22860.01
689.05	22979.38
689.18	22604.89
689.32	22691.49
689.46	22527.66
689.59	22338.07
689.73	22396.59
689.86	22216.36
690.00	22078.27
690.13	22324.03
690.27	22047.85
690.41	21738.90
690.54	21909.75
690.68	21692.08
690.81	21563.36
690.95	21685.06
691.08	21799.75
691.22	21448.67
691.35	21326.96
691.49	21710.81
691.62	21303.56
691.76	21205.25
691.89	20985.24
692.03	21345.69
692.16	20870.56
692.30	20900.98
692.43	20697.36
692.57	20592.03
692.70	20641.18
692.84	20505.43
692.97	20603.74
693.11	20676.29
693.24	20414.15
693.38	20783.96
693.51	20381.38
693.65	20093.50
693.78	20058.39
693.92	20161.37
694.05	20262.02
694.19	19978.81
694.32	19529.43
694.45	19882.85
694.59	19454.53
694.72	19370.27
694.86	19253.25
694.99	19302.40
695.13	19168.99
695.26	19140.90
695.39	18862.38
695.53	18881.10
695.66	19152.60
695.80	19087.07
695.93	18974.72
696.07	18803.86
696.20	18607.26
696.33	18937.27
696.47	18391.93
696.60	18684.50
696.73	18284.26
696.87	18319.37
697.00	18094.68
697.14	18017.44
697.27	17951.91
697.40	17834.88
697.54	17769.35
697.67	17680.41
697.80	17902.76
697.94	17458.06
698.07	17479.12
698.21	17614.87
698.34	17734.24
698.47	17193.58
698.61	17231.02
698.74	17493.16
698.87	17294.22
699.01	16823.77
699.14	17207.62
699.27	16996.97
699.40	17132.72
699.54	16791.00
699.67	16451.63
699.80	16615.46
699.94	16381.41
700.07	16170.76
700.20	16018.63
700.34	16353.32
700.47	16210.55
700.60	16095.86
700.73	16332.26
700.87	16006.92
701.00	15929.69
701.13	16065.44
701.26	15875.85
701.40	15927.35
701.53	15861.81
701.66	15763.51
701.79	15637.12
701.93	15536.48
702.06	15538.82
702.19	15571.58
702.32	15344.55
702.46	15194.76
702.59	15063.69
702.72	15190.08
702.85	15084.75
702.99	14951.34
703.12	14736.01
703.25	14979.43
703.38	14731.33
703.51	14904.53
703.65	14757.08
703.78	14658.78
703.91	14406.00
704.04	14799.21
704.17	14787.50
704.31	14359.19
704.44	14366.21
704.57	14216.41
704.70	14178.97
704.83	14125.13
704.96	14033.85
705.10	13884.06
705.23	14040.87
>>>>>End Processed Spectral Data<<<<<
