SpectraSuite Data File
++++++++++++++++++++++++++++++++++++
Date: Fri Oct 04 11:39:35 GMT-05:00 2013
User: price-jones
Dark Spectrum Present: No
Reference Spectrum Present: No
Number of Sampled Component Spectra: 1
Spectrometers: USB2+H05261
Integration Time (usec): 100000 (USB2+H05261)
Spectra Averaged: 1 (USB2+H05261)
Boxcar Smoothing: 0 (USB2+H05261)
Correct for Electrical Dark: No (USB2+H05261)
Strobe/Lamp Enabled: No (USB2+H05261)
Correct for Detector Non-linearity: No (USB2+H05261)
Correct for Stray Light: No (USB2+H05261)
Number of Pixels in Processed Spectrum: 2048
>>>>>Begin Processed Spectral Data<<<<<
365.73	60.85
365.92	60.85
366.12	60.85
366.32	16.38
366.52	0.00
366.72	0.00
366.91	0.00
367.11	0.00
367.31	0.00
367.51	0.00
367.70	0.00
367.90	0.00
368.10	7.02
368.30	0.00
368.49	0.00
368.69	0.00
368.89	49.15
369.09	0.00
369.28	0.00
369.48	0.00
369.68	0.00
369.87	0.00
370.07	0.00
370.27	42.13
370.47	16.38
370.66	161.50
370.86	208.31
371.06	175.54
371.25	189.58
371.45	217.67
371.65	344.06
371.84	301.93
372.04	210.65
372.24	376.83
372.44	248.10
372.63	346.40
372.83	313.63
373.03	372.15
373.22	330.02
373.42	299.59
373.62	255.12
373.81	351.08
374.01	379.17
374.21	402.57
374.40	330.02
374.60	376.83
374.79	344.06
374.99	276.18
375.19	388.53
375.38	409.59
375.58	344.06
375.78	407.25
375.97	351.08
376.17	395.55
376.37	332.36
376.56	386.19
376.76	337.04
376.95	271.50
377.15	348.74
377.35	273.84
377.54	395.55
377.74	404.91
377.93	348.74
378.13	358.10
378.33	411.93
378.52	393.21
378.72	395.55
378.91	423.64
379.11	386.19
379.31	395.55
379.50	285.55
379.70	458.74
379.89	379.17
380.09	397.89
380.28	437.68
380.48	447.04
380.68	440.02
380.87	360.44
381.07	330.02
381.26	430.66
381.46	461.09
381.65	491.51
381.85	442.36
382.04	344.06
382.24	341.72
382.43	400.23
382.63	425.98
382.83	402.57
383.02	388.53
383.22	517.26
383.41	400.23
383.61	425.98
383.80	507.90
384.00	430.66
384.19	458.74
384.39	470.45
384.58	493.85
384.78	517.26
384.97	489.17
385.17	461.09
385.36	458.74
385.56	451.72
385.75	383.85
385.95	491.51
386.14	447.04
386.34	433.00
386.53	540.66
386.72	526.62
386.92	503.22
387.11	505.56
387.31	484.49
387.50	440.02
387.70	468.11
387.89	425.98
388.09	507.90
388.28	575.77
388.48	517.26
388.67	505.56
388.86	552.37
389.06	447.04
389.25	627.26
389.45	629.60
389.64	475.13
389.84	528.96
390.03	608.54
390.22	587.47
390.42	521.94
390.61	543.00
390.81	615.56
391.00	528.96
391.19	557.05
391.39	587.47
391.58	624.92
391.78	486.83
391.97	629.60
392.16	470.45
392.36	606.20
392.55	648.33
392.75	587.47
392.94	660.03
393.13	613.22
393.33	575.77
393.52	678.76
393.71	772.38
393.91	575.77
394.10	751.31
394.29	685.78
394.49	725.57
394.68	653.01
394.88	683.44
395.07	741.95
395.26	763.01
395.46	760.67
395.65	732.59
395.84	725.57
396.04	786.42
396.23	763.01
396.42	779.40
396.62	746.63
396.81	788.76
397.00	816.85
397.19	755.99
397.39	763.01
397.58	760.67
397.77	807.48
397.97	842.59
398.16	858.98
398.35	746.63
398.55	800.46
398.74	791.10
398.93	889.40
399.12	861.32
399.32	873.02
399.51	844.93
399.70	999.41
399.90	915.15
400.09	945.58
400.28	1018.13
400.47	947.92
400.67	971.32
400.86	1034.52
401.05	926.85
401.24	978.34
401.44	954.94
401.63	1006.43
401.82	976.00
402.01	980.68
402.21	1062.60
402.40	1048.56
402.59	1067.28
402.78	1142.18
402.97	1025.15
403.17	1160.91
403.36	1095.37
403.55	1090.69
403.74	1088.35
403.93	1142.18
404.13	1219.42
404.32	1188.99
404.51	1198.35
404.70	1219.42
404.89	1306.02
405.09	1235.80
405.28	1188.99
405.47	1303.68
405.66	1235.80
405.85	1310.70
406.05	1416.02
406.24	1331.76
406.43	1352.83
406.62	1392.62
406.81	1451.13
407.00	1373.89
407.20	1329.42
407.39	1439.43
407.58	1502.62
407.77	1453.47
407.96	1476.88
408.15	1507.30
408.34	1598.59
408.54	1504.96
408.73	1521.35
408.92	1516.67
409.11	1577.52
409.30	1621.99
409.49	1542.41
409.68	1652.42
409.87	1685.19
410.07	1750.72
410.26	1699.23
410.45	1753.06
410.64	1678.16
410.83	1701.57
411.02	1757.74
411.21	1905.20
411.40	1802.21
411.59	1874.77
411.78	1844.34
411.98	1797.53
412.17	1830.30
412.36	1802.21
412.55	1893.49
412.74	2054.99
412.93	2026.90
413.12	1987.11
413.31	2073.71
413.50	2115.84
413.69	2193.08
413.88	2057.33
414.07	2221.17
414.26	2193.08
414.45	2251.60
414.64	2249.25
414.83	2267.98
415.02	2275.00
415.22	2387.35
415.41	2370.96
415.60	2424.80
415.79	2511.39
415.98	2335.85
416.17	2417.77
416.36	2483.31
416.55	2541.82
416.74	2595.65
416.93	2593.31
417.12	2506.71
417.31	2658.85
417.50	2616.72
417.69	2672.89
417.88	2796.94
418.07	2700.98
418.26	2684.59
418.45	2911.63
418.64	2857.79
418.83	2944.39
419.02	2733.75
419.21	2850.77
419.39	2834.39
419.58	2939.71
419.77	2951.42
419.96	2920.99
420.15	3023.97
420.34	2970.14
420.53	3047.38
420.72	3026.31
420.91	3035.67
421.10	2988.86
421.29	3059.08
421.48	3087.17
421.67	3155.04
421.86	3002.91
422.05	3133.98
422.24	3141.00
422.43	3094.19
422.61	3143.34
422.80	3122.27
422.99	3145.68
423.18	3152.70
423.37	3141.00
423.56	3267.39
423.75	3220.58
423.94	3115.25
424.13	2977.16
424.32	3068.44
424.50	3272.07
424.69	3386.76
424.88	3365.69
425.07	3342.28
425.26	3241.64
425.45	3108.23
425.64	3225.26
425.83	3297.81
426.01	3269.73
426.20	3400.80
426.39	3461.65
426.58	3297.81
426.77	3342.28
426.96	3426.54
427.15	3485.06
427.33	3478.04
427.52	3396.12
427.71	3435.91
427.90	3524.85
428.09	3461.65
428.28	3578.68
428.46	3552.93
428.65	3492.08
428.84	3620.81
429.03	3695.71
429.22	3583.36
429.40	3578.68
429.59	3702.73
429.78	3522.51
429.97	3431.23
430.16	3459.31
430.34	3712.09
430.53	3709.75
430.72	3604.42
430.91	3740.18
431.10	3761.24
431.28	3775.28
431.47	3847.84
431.66	4002.32
431.85	3786.99
432.03	3896.99
432.22	3967.21
432.41	3985.93
432.60	3990.61
432.79	3934.44
432.97	4009.34
433.16	3943.80
433.35	3934.44
433.54	3950.82
433.72	4107.64
433.91	4196.58
434.10	4067.85
434.28	4079.55
434.47	4081.89
434.66	4142.75
434.85	4236.37
435.03	4397.87
435.22	4365.10
435.41	4610.86
435.59	4603.83
435.78	4507.87
435.97	4393.19
436.16	4238.71
436.34	4269.14
436.53	4374.46
436.72	4430.63
436.90	4194.24
437.09	4526.60
437.28	4334.67
437.46	4489.15
437.65	4524.26
437.84	4437.66
438.02	4400.21
438.21	4477.44
438.40	4554.68
438.58	4592.13
438.77	4690.43
438.96	4772.35
439.14	4865.97
439.33	4517.23
439.52	4795.76
439.70	4786.40
439.89	4926.83
440.08	4767.67
440.26	5011.09
440.45	4830.87
440.63	4959.60
440.82	5078.96
441.01	4842.57
441.19	5130.45
441.38	5078.96
441.57	5289.61
441.75	5158.54
441.94	5352.81
442.12	5263.86
442.31	5441.75
442.50	5336.42
442.68	5355.15
442.87	5350.46
443.05	5554.09
443.24	5490.90
443.43	5235.78
443.61	5430.04
443.80	5722.61
443.98	5511.96
444.17	5308.34
444.35	5549.41
444.54	5490.90
444.73	5554.09
444.91	5558.77
445.10	5474.51
445.28	5387.91
445.47	5458.13
445.65	5547.07
445.84	5563.45
446.02	5647.71
446.21	5645.37
446.39	5631.33
446.58	5640.69
446.77	5696.86
446.95	5355.15
447.14	5689.84
447.32	5680.48
447.51	5596.22
447.69	5729.63
447.88	5701.54
448.06	5696.86
448.25	5849.00
448.43	5687.50
448.62	5738.99
448.80	5701.54
448.99	5619.63
449.17	5788.14
449.36	5706.23
449.54	5858.36
449.73	5877.09
449.91	6064.33
450.10	5944.96
450.28	6073.69
450.46	5888.79
450.65	6040.92
450.83	6033.90
451.02	5928.58
451.20	5935.60
451.39	6167.31
451.57	6015.18
451.76	6022.20
451.94	6164.97
452.13	6207.10
452.31	6190.72
452.49	6141.57
452.68	6293.70
452.86	6270.30
453.05	6497.33
453.23	6310.08
453.42	6136.88
453.60	6256.25
453.78	6221.14
453.97	6076.03
454.15	6181.35
454.34	6069.01
454.52	6469.24
454.70	6401.37
454.89	6366.26
455.07	6363.92
455.26	6635.42
455.44	6565.20
455.62	6438.81
455.81	6537.12
455.99	6682.23
456.17	6846.07
456.36	6726.70
456.54	6773.51
456.73	6869.47
456.91	6930.33
457.09	6733.72
457.28	6935.01
457.46	6841.39
457.64	7014.59
457.83	7131.61
458.01	6857.77
458.19	7049.69
458.38	7063.74
458.56	7084.80
458.74	7009.90
458.93	7059.06
459.11	6920.96
459.29	7063.74
459.48	7239.28
459.66	7101.19
459.84	7194.81
460.03	7351.62
460.21	7110.55
460.39	7342.26
460.57	7365.67
460.76	7199.49
460.94	7339.92
461.12	7302.47
461.31	7321.20
461.49	7358.64
461.67	7318.86
461.85	7398.43
462.04	7452.27
462.22	7571.63
462.40	7667.60
462.59	7461.63
462.77	7482.69
462.95	7651.21
463.13	7522.48
463.32	7742.49
463.50	7496.74
463.68	7857.18
463.86	7721.43
464.05	7559.93
464.23	7758.88
464.41	7819.73
464.59	7475.67
464.78	7971.86
464.96	7875.90
465.14	7843.14
465.32	7892.29
465.50	7892.29
465.69	8021.02
465.87	7826.75
466.05	7744.83
466.23	7730.79
466.41	8035.06
466.60	8280.82
466.78	8037.40
466.96	8124.00
467.14	7999.95
467.32	8056.12
467.51	8177.83
467.69	7850.16
467.87	8091.23
468.05	8187.19
468.23	8088.89
468.41	7999.95
468.60	8329.97
468.78	8376.78
468.96	8278.47
469.14	8280.82
469.32	8203.58
469.50	8124.00
469.69	8414.23
469.87	8603.81
470.05	8554.66
470.23	8498.49
470.41	8683.39
470.59	8554.66
470.77	8437.63
470.95	8655.30
471.14	8786.37
471.32	8781.69
471.50	8954.89
471.68	8868.29
471.86	8952.55
472.04	8922.12
472.22	8950.21
472.40	8975.95
472.58	8912.76
472.77	9029.79
472.95	9296.61
473.13	9500.23
473.31	9163.20
473.49	9022.77
473.67	9228.73
473.85	9266.18
474.03	9483.85
474.21	9317.67
474.39	9502.58
474.57	9589.17
474.75	9643.01
474.93	9696.84
475.12	9572.79
475.30	9764.72
475.48	9600.88
475.66	9881.74
475.84	9825.57
476.02	9860.68
476.20	9935.57
476.38	10335.81
476.56	10270.27
476.74	10569.86
476.92	10153.24
477.10	10289.00
477.28	10251.55
477.46	10441.13
477.64	10403.68
477.82	10726.68
478.00	10658.80
478.18	10904.56
478.36	11000.52
478.54	11068.39
478.72	11248.61
478.90	11328.19
479.08	11412.45
479.26	11229.89
479.44	11569.27
479.62	11655.87
479.80	11630.12
479.98	11719.06
480.16	11723.74
480.34	11786.94
480.52	11943.75
480.70	11833.75
480.88	11932.05
481.06	11981.20
481.24	12140.36
481.41	12297.17
481.59	12264.41
481.77	12472.71
481.95	12397.82
482.13	12774.64
482.31	12580.38
482.49	13123.38
482.67	13055.51
482.85	13233.39
483.03	13380.84
483.21	13394.89
483.39	13659.37
483.57	13486.17
483.74	13586.81
483.92	13748.31
484.10	13654.69
484.28	14031.51
484.46	14047.90
484.64	14359.19
484.82	14134.50
485.00	14431.74
485.18	14981.77
485.35	14513.66
485.53	14501.96
485.71	14754.74
485.89	15176.03
486.07	15000.49
486.25	15094.11
486.43	15351.57
486.61	15384.34
486.78	15440.51
486.96	15740.10
487.14	15875.85
487.32	16105.23
487.50	16035.01
487.68	16154.38
487.85	16074.80
488.03	16917.39
488.21	16704.40
488.39	16294.81
488.57	16912.71
488.75	16669.30
488.92	17114.00
489.10	17029.74
489.28	17128.04
489.46	17682.75
489.64	17605.51
489.81	17930.84
489.99	17830.20
490.17	17926.16
490.35	17930.84
490.53	17998.72
490.70	18031.49
490.88	18302.99
491.06	18207.03
491.24	18380.23
491.41	18537.04
491.59	18637.69
491.77	19021.53
491.95	18782.80
492.13	19271.97
492.30	19026.21
492.48	19410.06
492.66	19075.37
492.84	19688.59
493.01	19927.32
493.19	19765.82
493.37	19864.13
493.54	19948.39
493.72	20411.81
493.90	20025.62
494.08	20175.42
494.25	20496.07
494.43	20484.37
494.61	20837.79
494.79	20599.05
494.96	20535.86
495.14	20875.24
495.32	21275.47
495.49	21106.95
495.67	21158.44
495.85	21113.97
496.02	21724.85
496.20	21497.82
496.38	21582.08
496.55	22087.64
496.73	22099.34
496.91	22082.95
497.09	22192.96
497.26	22272.54
497.44	22590.85
497.62	22302.96
497.79	22860.01
497.97	22824.90
498.14	22911.50
498.32	23115.13
498.50	23220.45
498.67	23742.39
498.85	23264.92
499.03	23096.41
499.20	23358.55
499.38	23709.63
499.56	23941.34
499.73	23866.44
499.91	23674.52
500.08	23821.97
500.26	23941.34
500.44	24222.20
500.61	24215.18
500.79	24334.55
500.97	24320.51
501.14	24372.00
501.32	24561.58
501.49	24680.95
501.67	24500.73
501.84	24889.26
502.02	24795.64
502.20	25256.72
502.37	25181.82
502.55	25095.22
502.72	24978.20
502.90	25348.00
503.07	25029.69
503.25	25530.56
503.43	25729.51
503.60	25441.62
503.78	25773.98
503.95	26206.98
504.13	25682.70
504.30	25919.09
504.48	25715.47
504.65	26316.98
504.83	26504.23
505.01	26345.07
505.18	26204.64
505.36	26441.03
505.53	26398.90
505.71	26527.63
505.88	26761.69
506.06	26382.52
506.23	26911.48
506.41	26881.05
506.58	26817.86
506.76	27168.94
506.93	27019.14
507.11	27211.07
507.28	27302.35
507.46	26810.84
507.63	27571.51
507.81	27548.11
507.98	27445.12
508.16	27356.18
508.33	27669.81
508.50	28048.98
508.68	28018.55
508.85	28109.83
509.03	28226.86
509.20	28107.49
509.38	28088.77
509.55	28594.32
509.73	28348.57
509.90	28673.90
510.08	28421.13
510.25	28304.10
510.42	28641.14
510.60	28793.27
510.77	29200.52
510.95	29017.96
511.12	28989.88
511.30	29376.06
511.47	29537.56
511.64	29420.53
511.82	29535.22
511.99	29411.17
512.17	29237.97
512.34	29699.06
512.51	29610.12
512.69	29986.94
512.86	29666.29
513.04	30221.00
513.21	29778.64
513.38	30274.83
513.56	30335.68
513.73	29979.92
513.90	30328.66
514.08	30221.00
514.25	30398.88
514.43	30579.10
514.60	30316.96
514.77	30654.00
514.95	31054.23
515.12	30492.50
515.29	30520.59
515.47	30670.38
515.64	31250.83
515.81	31108.06
515.99	31578.51
516.16	31463.82
516.33	31381.90
516.51	31508.29
516.68	31297.64
516.85	31456.80
517.03	31742.35
517.20	31775.11
517.37	31791.50
517.54	31763.41
517.72	31587.87
517.89	31838.31
518.06	32034.91
518.24	32479.61
518.41	31873.42
518.58	32243.22
518.75	32180.03
518.93	32552.17
519.10	32112.15
519.27	32629.41
519.45	32446.85
519.62	32556.85
519.79	32341.52
519.96	32830.69
520.14	32900.91
520.31	32676.22
520.48	32755.80
520.65	33104.54
520.83	33301.14
521.00	33104.54
521.17	33104.54
521.34	33305.82
521.52	33654.56
521.69	33476.68
521.86	33270.72
522.03	34150.76
522.20	33802.02
522.38	34024.37
522.55	33799.68
522.72	33268.37
522.89	33820.74
523.07	34330.98
523.24	34057.14
523.41	33816.06
523.58	33919.04
523.75	34508.86
523.92	34242.04
524.10	34377.79
524.27	34731.21
524.44	34574.39
524.61	34873.98
524.78	34752.27
524.96	34909.09
525.13	34724.19
525.30	34663.33
525.47	35030.80
525.64	34653.97
525.81	34803.77
525.98	34939.52
526.16	35129.10
526.33	35405.28
526.50	35543.38
526.67	35086.97
526.84	35426.35
527.01	35302.30
527.18	35323.36
527.36	35477.84
527.53	35948.29
527.70	36020.84
527.87	35777.43
528.04	35864.03
528.21	35505.93
528.38	35728.28
528.55	36367.24
528.72	35936.59
528.89	36154.26
529.07	35730.62
529.24	35791.47
529.41	35828.92
529.58	36091.06
529.75	35971.69
529.92	36617.68
530.09	36383.63
530.26	36102.76
530.43	36594.28
530.60	36397.67
530.77	36664.49
530.94	36863.44
531.11	36507.68
531.28	36737.05
531.46	36680.88
531.63	37010.89
531.80	37394.74
531.97	37481.34
532.14	36994.51
532.31	36631.72
532.48	37368.99
532.65	37130.26
532.82	37308.14
532.99	37230.90
533.16	36999.19
533.33	37706.03
533.50	37809.01
533.67	37577.30
533.84	37457.93
534.01	37474.32
534.18	37116.22
534.35	37921.36
534.52	37612.41
534.69	38211.59
534.86	37888.59
535.03	37792.63
535.20	38022.00
535.37	37944.76
535.54	38155.41
535.71	37687.31
535.88	37881.57
536.05	38148.39
536.22	38693.74
536.38	38227.97
536.55	38323.93
536.72	38525.22
536.89	38176.48
537.06	38234.99
537.23	38588.41
537.40	38251.38
537.57	38230.31
537.74	38658.63
537.91	38857.57
538.08	38948.85
538.25	38644.59
538.42	38728.84
538.59	38754.59
538.75	38859.91
538.92	39065.88
539.09	39086.95
539.26	38684.37
539.43	38946.51
539.60	39618.25
539.77	39178.23
539.94	38792.04
540.11	39704.85
540.28	39533.99
540.44	39115.03
540.61	38749.91
540.78	39725.91
540.95	39723.57
541.12	39569.10
541.29	39491.86
541.46	39882.73
541.62	39732.93
541.79	39817.19
541.96	39522.29
542.13	39901.45
542.30	39543.35
542.47	40091.04
542.63	40006.78
542.80	40271.26
542.97	40435.10
543.14	40748.73
543.31	40547.44
543.48	40402.33
543.64	40708.94
543.81	40641.06
543.98	40659.79
544.15	40676.17
544.32	40971.08
544.48	40935.97
544.65	40884.48
544.82	40704.26
544.99	40608.29
545.16	40767.45
545.32	40863.41
545.49	41556.21
545.66	41982.19
545.83	41731.75
546.00	41890.91
546.16	41340.88
546.33	40931.29
546.50	40231.47
546.67	41141.94
546.83	40442.12
547.00	41347.90
547.17	41116.19
547.34	41031.93
547.50	41429.82
547.67	41392.37
547.84	41146.62
548.00	41045.97
548.17	41666.22
548.34	41425.14
548.51	41600.68
548.67	41645.15
548.84	41738.77
549.01	41380.67
549.18	41214.49
549.34	41720.05
549.51	41268.33
549.68	41422.80
549.84	41071.72
550.01	41209.81
550.18	41364.29
550.34	41591.32
550.51	41720.05
550.68	41603.02
550.84	41539.83
551.01	41708.35
551.18	41359.61
551.34	41832.39
551.51	41619.41
551.68	41624.09
551.84	41811.33
552.01	41909.63
552.18	41928.36
552.34	41958.78
552.51	41970.49
552.68	41862.82
552.84	42066.45
553.01	41933.04
553.18	42148.37
553.34	42363.70
553.51	42003.25
553.67	42630.52
553.84	42616.47
554.01	42642.22
554.17	42595.41
554.34	41956.44
554.51	42344.97
554.67	42443.27
554.84	42124.96
555.00	42234.97
555.17	41984.53
555.33	42703.07
555.50	42534.56
555.67	42401.14
555.83	42213.90
556.00	42361.36
556.16	42895.00
556.33	42256.03
556.50	42567.32
556.66	42719.46
556.83	42321.57
556.99	43217.99
557.16	42604.77
557.32	42930.11
557.49	42890.32
557.65	42209.22
557.82	42555.62
557.98	42873.93
558.15	43035.43
558.32	42621.16
558.48	42562.64
558.65	43065.86
558.81	43103.31
558.98	42873.93
559.14	42792.01
559.31	42679.67
559.47	42712.44
559.64	42988.62
559.80	42679.67
559.97	43318.64
560.13	43096.28
560.30	43131.39
560.46	43082.24
560.63	42794.36
560.79	42700.73
560.96	43215.65
561.12	42649.24
561.29	42972.24
561.45	42965.21
561.61	43014.37
561.78	43229.69
561.94	42721.80
562.11	43005.00
562.27	42890.32
562.44	43058.84
562.60	42609.45
562.77	43175.86
562.93	43232.04
563.10	44051.22
563.26	43063.52
563.42	43522.26
563.59	43229.69
563.75	43196.93
563.92	43564.39
564.08	43529.28
564.24	43210.97
564.41	43215.65
564.57	43363.11
564.74	43154.80
564.90	43136.07
565.07	43529.28
565.23	43421.62
565.39	43002.66
565.56	43002.66
565.72	43253.10
565.88	43414.60
566.05	43466.09
566.21	43407.58
566.38	43285.87
566.54	43498.86
566.70	43629.93
566.87	44130.80
567.03	43658.01
567.19	43648.65
567.36	43639.29
567.52	43604.18
567.68	43379.49
567.85	43353.74
568.01	43552.69
568.17	43175.86
568.34	43166.50
568.50	43739.93
568.66	43779.72
568.83	43714.19
568.99	43529.28
569.15	43274.16
569.32	43414.60
569.48	43533.96
569.64	43353.74
569.81	43489.49
569.97	43648.65
570.13	43552.69
570.30	43297.57
570.46	43700.14
570.62	43035.43
570.78	43650.99
570.95	43260.12
571.11	43775.04
571.27	43379.49
571.43	43239.06
571.60	43587.80
571.76	43309.27
571.92	43683.76
572.09	43363.11
572.25	43395.87
572.41	43721.21
572.57	43529.28
572.74	44032.50
572.90	43353.74
573.06	42916.06
573.22	43370.13
573.38	43438.00
573.55	43618.22
573.71	44245.49
573.87	43295.23
574.03	43482.47
574.20	43704.82
574.36	43522.26
574.52	44016.11
574.68	43587.80
574.84	43840.57
575.01	43938.88
575.17	43510.56
575.33	43995.05
575.49	43470.77
575.65	43749.29
575.82	43885.04
575.98	43515.24
576.14	43438.00
576.30	43746.95
576.46	43330.34
576.62	43847.60
576.79	44205.70
576.95	43732.91
577.11	43950.58
577.27	43632.27
577.43	43695.46
577.59	43709.50
577.75	43868.66
577.92	43007.34
578.08	43812.49
578.24	43709.50
578.40	43913.13
578.56	43662.69
578.72	43498.86
578.88	43885.04
579.04	43973.98
579.21	43655.67
579.37	43875.68
579.53	43552.69
579.69	43564.39
579.85	43819.51
580.01	43789.08
580.17	43480.13
580.33	43908.45
580.49	43744.61
580.65	43821.85
580.82	43693.12
580.98	43856.96
581.14	43613.54
581.30	44020.80
581.46	43395.87
581.62	43744.61
581.78	43229.69
581.94	43742.27
582.10	43746.95
582.26	43412.26
582.42	43863.98
582.58	43681.42
582.74	43868.66
582.90	43903.77
583.06	43723.55
583.22	43878.02
583.38	43868.66
583.54	43927.17
583.70	43332.68
583.86	44034.84
584.02	43583.12
584.18	44128.46
584.34	44016.11
584.50	44114.42
584.66	43880.36
584.82	43632.27
584.98	43908.45
585.14	43377.15
585.30	43707.16
585.46	44048.88
585.62	43557.37
585.78	43915.47
585.94	43772.70
586.10	43627.59
586.26	43962.28
586.42	44072.29
586.58	44355.49
586.74	44156.55
586.90	43866.32
587.06	43669.72
587.22	43959.94
587.38	43363.11
587.54	44186.97
587.70	44091.01
587.86	44088.67
588.02	43662.69
588.18	44133.14
588.34	44088.67
588.49	43576.09
588.65	43744.61
588.81	43814.83
588.97	43805.47
589.13	43583.12
589.29	43824.19
589.45	44231.44
589.61	44353.15
589.77	44020.80
589.93	44318.04
590.08	44320.38
590.24	44137.82
590.40	44208.04
590.56	44362.51
590.72	43756.32
590.88	44189.31
591.04	43845.26
591.20	44264.21
591.35	44559.12
591.51	44774.45
591.67	44383.58
591.83	44516.99
591.99	44287.62
592.15	44566.14
592.31	44350.81
592.46	44273.57
592.62	43861.64
592.78	44275.91
592.94	44353.15
593.10	44226.76
593.26	44341.45
593.41	44231.44
593.57	43948.24
593.73	44020.80
593.89	43704.82
594.05	44128.46
594.20	43976.33
594.36	44112.08
594.52	43711.84
594.68	43981.01
594.84	44039.52
594.99	43833.55
595.15	44273.57
595.31	44514.65
595.47	44339.11
595.62	44512.31
595.78	44409.32
595.94	44236.12
596.10	44500.61
596.25	44055.90
596.41	44172.93
596.57	44135.48
596.73	44343.79
596.88	44011.43
597.04	43817.17
597.20	44406.98
597.36	43878.02
597.51	44837.64
597.67	43969.30
597.83	43842.92
597.99	44554.44
598.14	43997.39
598.30	44179.95
598.46	43990.37
598.61	44105.06
598.77	44046.54
598.93	43934.20
599.09	44521.67
599.24	44767.43
599.40	43936.54
599.56	44622.31
599.71	44245.49
599.87	44437.41
600.03	44163.57
600.18	44226.76
600.34	44074.63
600.50	43966.96
600.65	44105.06
600.81	44282.94
600.97	44198.68
601.12	44669.12
601.28	44311.02
601.44	44179.95
601.59	43817.17
601.75	43845.26
601.91	44252.51
602.06	43658.01
602.22	44273.57
602.37	44296.98
602.53	44102.71
602.69	44392.94
602.84	44107.40
603.00	44727.64
603.16	44336.77
603.31	44114.42
603.47	43966.96
603.62	43852.28
603.78	43978.67
603.94	43608.86
604.09	43704.82
604.25	44128.46
604.40	43641.63
604.56	43634.61
604.71	44350.81
604.87	44205.70
605.03	44201.02
605.18	44051.22
605.34	44027.82
605.49	43234.38
605.65	44004.41
605.80	43276.51
605.96	43803.13
606.12	43662.69
606.27	43557.37
606.43	43934.20
606.58	43765.68
606.74	44163.57
606.89	43775.04
607.05	43810.15
607.20	43679.08
607.36	44025.48
607.51	43622.90
607.67	43452.05
607.82	43269.48
607.98	43587.80
608.13	43625.25
608.29	43936.54
608.44	43868.66
608.60	43601.84
608.75	43686.10
608.91	43730.57
609.06	43222.67
609.22	43849.94
609.37	43484.81
609.53	43501.20
609.68	43716.53
609.84	43344.38
609.99	43346.72
610.15	43456.73
610.30	44055.90
610.46	44055.90
610.61	43695.46
610.76	44388.26
610.92	44463.16
611.07	44699.55
611.23	44175.27
611.38	44280.60
611.54	43880.36
611.69	43798.44
611.84	43995.05
612.00	43618.22
612.15	43306.93
612.31	43299.91
612.46	43744.61
612.62	43405.23
612.77	43386.51
612.92	43955.26
613.08	43033.09
613.23	43161.82
613.39	43606.52
613.54	42740.52
613.69	43166.50
613.85	42717.12
614.00	43051.81
614.15	43325.66
614.31	43337.36
614.46	43166.50
614.62	42916.06
614.77	43388.85
614.92	43203.95
615.08	43110.33
615.23	42859.89
615.38	42553.28
615.54	42047.72
615.69	42674.99
615.84	42855.21
616.00	42815.42
616.15	42562.64
616.30	42848.19
616.46	42520.51
616.61	42586.05
616.76	42792.01
616.92	42190.50
617.07	42763.93
617.22	42377.74
617.37	41923.68
617.53	42426.89
617.68	42476.04
617.83	42277.10
617.99	42000.91
618.14	42178.79
618.29	42005.59
618.45	42066.45
618.60	42450.30
618.75	42211.56
618.90	42134.32
619.06	41996.23
619.21	42239.65
619.36	42279.44
619.51	41979.85
619.67	41949.42
619.82	42237.31
619.97	42068.79
620.12	41979.85
620.28	41881.55
620.43	42197.52
620.58	41879.21
620.73	42136.66
620.89	41993.89
621.04	42021.98
621.19	42174.11
621.34	42057.09
621.49	41949.42
621.65	41895.59
621.80	41944.74
621.95	41682.60
622.10	41914.31
622.25	41277.69
622.41	41570.25
622.56	41486.00
622.71	42003.25
622.86	41638.13
623.01	42031.34
623.16	41710.69
623.32	41666.22
623.47	40945.33
623.62	41921.34
623.77	41848.78
623.92	41647.49
624.07	41715.37
624.23	41984.53
624.38	41628.77
624.53	41453.23
624.68	41390.03
624.83	41446.21
624.98	41687.28
625.13	41186.41
625.29	41207.47
625.44	41113.85
625.59	40919.59
625.74	41060.02
625.89	41057.68
626.04	40692.55
626.19	40809.58
626.34	41106.83
626.49	40823.62
626.65	40659.79
626.80	40989.80
626.95	40683.19
627.10	41104.49
627.25	41006.19
627.40	40821.28
627.55	40840.01
627.70	40374.24
627.85	40772.13
628.00	40329.77
628.15	40730.00
628.30	40861.07
628.45	40627.02
628.60	40479.57
628.76	40713.62
628.91	40587.23
629.06	40975.76
629.21	40734.68
629.36	40671.49
629.51	39992.73
629.66	40346.15
629.81	39999.76
629.96	40119.12
630.11	40002.10
630.26	40458.50
630.41	40231.47
630.56	40041.88
630.71	40615.32
630.86	40336.79
631.01	40512.33
631.16	40795.54
631.31	40084.01
631.46	39849.96
631.61	40229.13
631.76	40018.48
631.91	39800.81
632.06	39749.32
632.21	39681.44
632.36	40088.70
632.51	39538.67
632.66	40079.33
632.81	39583.14
632.96	39910.82
633.10	40212.74
633.25	39452.07
633.40	39435.69
633.55	39611.23
633.70	39281.21
633.85	38990.98
634.00	39693.15
634.15	39431.01
634.30	39423.98
634.45	39360.79
634.60	39384.19
634.75	39309.30
634.90	39489.52
635.05	39517.60
635.19	39409.94
635.34	40048.91
635.49	39758.68
635.64	39367.81
635.79	39227.38
635.94	38958.22
636.09	38916.09
636.24	39093.97
636.39	39192.27
636.53	39445.05
636.68	38686.71
636.83	39168.87
636.98	39007.37
637.13	38981.62
637.28	39302.28
637.43	39426.32
637.57	39159.50
637.72	38583.73
637.87	39133.76
638.02	38986.30
638.17	38852.89
638.32	38527.56
638.46	38768.63
638.61	38625.86
638.76	38597.77
638.91	38560.33
639.06	38618.84
639.20	38462.02
639.35	38742.89
639.50	38260.74
639.65	38677.35
639.80	38604.80
639.94	38286.48
640.09	38541.60
640.24	38122.65
640.39	38553.30
640.54	38239.67
640.68	38403.51
640.83	38363.72
640.98	38202.22
641.13	38197.54
641.27	38635.22
641.42	38251.38
641.57	38190.52
641.72	38780.34
641.86	38148.39
642.01	38300.53
642.16	38433.94
642.31	38354.36
642.45	38052.43
642.60	38019.66
642.75	37947.11
642.90	37972.85
643.04	37998.60
643.19	37944.76
643.34	38143.71
643.48	37951.79
643.63	38120.31
643.78	37827.74
643.93	38279.46
644.07	38478.41
644.22	37846.46
644.37	38005.62
644.51	38022.00
644.66	37928.38
644.81	37610.07
644.95	37736.46
645.10	37865.19
645.25	37937.74
645.39	37745.82
645.54	37420.48
645.69	37567.94
645.83	38155.41
645.98	37680.28
646.13	37514.11
646.27	37993.92
646.42	37525.81
646.57	37982.21
646.71	37427.51
646.86	37750.50
647.00	37420.48
647.15	37219.20
647.30	37408.78
647.44	37001.53
647.59	37631.13
647.74	37319.84
647.88	37509.43
648.03	37406.44
648.17	37209.84
648.32	37345.59
648.47	37507.08
648.61	37186.43
648.76	37291.76
648.90	37401.76
649.05	37008.55
649.20	37418.14
649.34	37205.16
649.49	36987.49
649.63	36800.24
649.78	36830.67
649.92	37235.58
650.07	37015.57
650.21	37139.62
650.36	37193.45
650.51	36882.16
650.65	36898.55
650.80	37399.42
650.94	36662.15
651.09	36975.78
651.23	36444.48
651.38	36725.35
651.52	36673.85
651.67	36732.37
651.81	36622.36
651.96	36456.18
652.10	36627.04
652.25	36486.61
652.39	36275.96
652.54	36503.00
652.68	36428.10
652.83	36561.51
652.97	36928.97
653.12	36704.28
653.26	36634.06
653.41	36451.50
653.55	36605.98
653.70	36292.35
653.84	36210.43
653.99	36311.07
654.13	36095.74
654.27	36404.69
654.42	35868.71
654.56	36177.66
654.71	36198.73
654.85	36182.34
655.00	36657.47
655.14	36570.87
655.29	36062.97
655.43	36163.62
655.57	36184.68
655.72	36325.11
655.86	36098.08
656.01	35894.46
656.15	35721.26
656.30	35641.68
656.44	36266.60
656.58	35849.99
656.73	35669.76
656.87	36072.34
657.01	35927.22
657.16	36210.43
657.30	35791.47
657.45	36086.38
657.59	36011.48
657.73	35852.33
657.88	35812.54
658.02	35569.12
658.16	35182.93
658.31	35484.86
658.45	35732.96
658.60	35332.73
658.74	35253.15
658.88	35253.15
659.03	35112.72
659.17	35377.20
659.31	35189.95
659.46	35503.59
659.60	35658.06
659.74	35318.68
659.89	34965.26
660.03	35161.87
660.17	35187.61
660.32	34738.23
660.46	34841.21
660.60	34904.41
660.74	34602.48
660.89	34775.68
661.03	34829.51
661.17	34892.71
661.32	34817.81
661.46	34644.61
661.60	34817.81
661.74	34995.69
661.89	34616.52
662.03	34515.88
662.17	34380.13
662.31	34438.64
662.46	34845.90
662.60	34670.36
662.74	33977.56
662.88	34010.32
663.03	34249.06
663.17	34302.89
663.31	33879.25
663.45	34352.04
663.60	33935.43
663.74	33853.51
663.88	33940.11
664.02	33820.74
664.17	34033.73
664.31	33921.38
664.45	33944.79
664.59	33692.01
664.73	33219.22
664.88	33872.23
665.02	33532.86
665.16	33516.47
665.30	33701.37
665.44	33429.87
665.59	33270.72
665.73	33282.42
665.87	33301.14
666.01	32940.70
666.15	33493.07
666.29	33446.26
666.44	33242.63
666.58	33696.69
666.72	33275.40
666.86	33158.37
667.00	33378.38
667.14	32886.87
667.28	32823.67
667.43	32421.10
667.57	32882.19
667.71	32645.79
667.85	32568.55
667.99	32524.08
668.13	32369.61
668.27	32135.56
668.41	32521.74
668.56	32051.30
668.70	32458.55
668.84	32606.00
668.98	32360.25
669.12	32430.46
669.26	31917.89
669.40	32458.55
669.54	31847.67
669.68	32231.52
669.82	31892.14
669.96	31714.26
670.10	31758.73
670.25	31599.57
670.39	31758.73
670.53	31859.37
670.67	31463.82
670.81	31737.66
670.95	31475.52
671.09	31391.26
671.23	31569.15
671.37	31917.89
671.51	31360.84
671.65	31431.05
671.79	31328.07
671.93	31243.81
672.07	31426.37
672.21	31054.23
672.35	31159.55
672.49	30834.22
672.63	30904.43
672.77	30897.41
672.91	30719.53
673.05	30480.80
673.19	30698.47
673.33	30871.67
673.47	30775.70
673.61	30738.26
673.75	30529.95
673.89	30391.86
674.03	30433.99
674.17	30576.76
674.31	30139.08
674.45	30061.84
674.59	29832.47
674.73	29923.75
674.87	29708.42
675.01	29642.88
675.15	29638.20
675.29	29427.56
675.43	29848.85
675.56	29659.27
675.70	30075.88
675.84	29612.46
675.98	28723.05
676.12	29357.34
676.26	29558.63
676.40	29394.79
676.54	29324.57
676.68	29223.93
676.82	28577.94
676.96	28746.46
677.10	28563.90
677.23	28807.31
677.37	28329.84
677.51	28367.29
677.65	28245.58
677.79	28489.00
677.93	28252.61
678.07	28041.96
678.21	28063.02
678.34	28423.47
678.48	27625.34
678.62	27974.08
678.76	27725.99
678.90	27892.16
679.04	27562.15
679.18	28016.21
679.31	27447.46
679.45	27393.63
679.59	27435.76
679.73	27145.53
679.87	26918.50
680.00	27161.92
680.14	26803.82
680.28	26871.69
680.42	26932.54
680.56	26742.96
680.70	26782.75
680.83	26740.62
680.97	26553.38
681.11	26553.38
681.25	26541.68
681.39	26457.42
681.52	26368.48
681.66	26108.68
681.80	26167.19
681.94	26012.71
682.07	26305.28
682.21	25586.74
682.35	25558.65
682.49	25596.10
682.62	25322.26
682.76	25275.45
682.90	25731.85
683.04	25324.60
683.17	25514.18
683.31	25242.68
683.45	25233.32
683.59	24711.38
683.72	25008.62
683.86	24812.02
684.00	24549.88
684.13	24556.90
684.27	24526.47
684.41	24496.05
684.55	24453.92
684.68	24189.44
684.82	23927.30
684.96	24121.56
685.09	24144.97
685.23	23852.40
685.37	24032.62
685.50	24159.01
685.64	23747.08
685.78	24053.69
685.91	24025.60
686.05	23990.49
686.19	23578.56
686.32	23756.44
686.46	23122.15
686.60	23206.41
686.73	23384.29
686.87	23154.92
687.01	23304.71
687.14	22831.93
687.28	22860.01
687.42	23213.43
687.55	22726.60
687.69	22583.83
687.82	22581.49
687.96	22689.15
688.10	22672.77
688.23	22632.98
688.37	22471.48
688.50	22251.47
688.64	22197.64
688.78	22361.48
688.91	21902.73
689.05	22199.98
689.18	21839.54
689.32	21495.48
689.46	21656.98
689.59	21596.12
689.73	21383.13
689.86	21408.88
690.00	21418.24
690.13	21219.30
690.27	21221.64
690.41	21123.33
690.54	20957.16
690.68	21200.57
690.81	21078.86
690.95	21156.10
691.08	21074.18
691.22	20793.32
691.35	20889.28
691.49	20823.75
691.62	20489.05
691.76	20453.94
691.89	20482.03
692.03	20023.28
692.16	20404.79
692.30	19992.86
692.43	19875.83
692.57	19992.86
692.70	19868.81
692.84	20051.37
692.97	19688.59
693.11	19772.85
693.24	19686.25
693.38	19667.52
693.51	19227.50
693.65	19154.94
693.78	19180.69
693.92	19358.57
694.05	19314.10
694.19	19082.39
694.32	18808.54
694.45	18998.13
694.59	18658.75
694.72	18845.99
694.86	18579.17
694.99	18614.28
695.13	18775.78
695.26	18171.92
695.39	18373.21
695.53	18642.37
695.66	18331.08
695.80	18331.08
695.93	18087.66
696.07	18298.31
696.20	17933.18
696.33	18211.71
696.47	17678.07
696.60	17680.41
696.73	17724.88
696.87	17518.91
697.00	17511.89
697.14	17535.29
697.27	17308.26
697.40	17224.00
697.54	17233.36
697.67	16975.91
697.80	16826.11
697.94	16959.52
698.07	16568.65
698.21	16915.05
698.34	17064.85
698.47	17015.69
698.61	16774.62
698.74	16882.28
698.87	16456.31
699.01	16540.57
699.14	16444.60
699.27	16269.06
699.40	16325.24
699.54	16156.72
699.67	16032.67
699.80	16035.01
699.94	15653.50
700.07	15796.28
700.20	15454.56
700.34	15824.36
700.47	15618.39
700.60	15676.91
700.73	15653.50
700.87	15599.67
701.00	15590.31
701.13	15211.14
701.26	15428.81
701.40	15323.49
701.53	15234.55
701.66	15213.48
701.79	15094.11
701.93	15197.10
702.06	14766.44
702.19	14597.92
702.32	14946.66
702.46	14530.05
702.59	14532.39
702.72	14595.58
702.85	14363.87
702.99	14469.19
703.12	14174.28
703.25	14384.93
703.38	14427.06
703.51	14452.81
703.65	14384.93
703.78	14204.71
703.91	13914.48
704.04	14094.71
704.17	14050.24
704.31	13870.01
704.44	13645.32
704.57	13516.59
704.70	13429.99
704.83	13591.49
704.96	13273.18
705.10	13376.16
705.23	12959.55
>>>>>End Processed Spectral Data<<<<<
