SpectraSuite Data File
++++++++++++++++++++++++++++++++++++
Date: Fri Oct 04 11:39:41 GMT-05:00 2013
User: price-jones
Dark Spectrum Present: No
Reference Spectrum Present: No
Number of Sampled Component Spectra: 1
Spectrometers: USB2+H05261
Integration Time (usec): 100000 (USB2+H05261)
Spectra Averaged: 1 (USB2+H05261)
Boxcar Smoothing: 0 (USB2+H05261)
Correct for Electrical Dark: No (USB2+H05261)
Strobe/Lamp Enabled: No (USB2+H05261)
Correct for Detector Non-linearity: No (USB2+H05261)
Correct for Stray Light: No (USB2+H05261)
Number of Pixels in Processed Spectrum: 2048
>>>>>Begin Processed Spectral Data<<<<<
365.73	74.90
365.92	74.90
366.12	74.90
366.32	0.00
366.52	0.00
366.72	58.51
366.91	25.75
367.11	0.00
367.31	0.00
367.51	0.00
367.70	0.00
367.90	23.41
368.10	0.00
368.30	0.00
368.49	0.00
368.69	0.00
368.89	0.00
369.09	0.00
369.28	0.00
369.48	0.00
369.68	0.00
369.87	18.72
370.07	0.00
370.27	117.03
370.47	35.11
370.66	161.50
370.86	320.65
371.06	344.06
371.25	238.73
371.45	311.29
371.65	196.60
371.84	222.35
372.04	217.67
372.24	372.15
372.44	248.10
372.63	299.59
372.83	360.44
373.03	299.59
373.22	322.99
373.42	297.25
373.62	306.61
373.81	374.49
374.01	388.53
374.21	325.33
374.40	372.15
374.60	358.10
374.79	393.21
374.99	351.08
375.19	404.91
375.38	339.38
375.58	351.08
375.78	397.89
375.97	458.74
376.17	351.08
376.37	390.87
376.56	411.93
376.76	430.66
376.95	341.72
377.15	358.10
377.35	346.40
377.54	379.17
377.74	353.42
377.93	411.93
378.13	423.64
378.33	351.08
378.52	365.12
378.72	414.27
378.91	454.06
379.11	397.89
379.31	386.19
379.50	369.80
379.70	402.57
379.89	444.70
380.09	489.17
380.28	388.53
380.48	395.55
380.68	308.95
380.87	433.00
381.07	435.34
381.26	486.83
381.46	514.92
381.65	447.04
381.85	444.70
382.04	498.53
382.24	505.56
382.43	442.36
382.63	463.43
382.83	383.85
383.02	493.85
383.22	461.09
383.41	435.34
383.61	428.32
383.80	517.26
384.00	512.58
384.19	402.57
384.39	496.19
384.58	477.47
384.78	524.28
384.97	592.16
385.17	430.66
385.36	461.09
385.56	496.19
385.75	379.17
385.95	491.51
386.14	507.90
386.34	559.39
386.53	486.83
386.72	496.19
386.92	601.52
387.11	550.03
387.31	631.94
387.50	486.83
387.70	491.51
387.89	543.00
388.09	507.90
388.28	589.82
388.48	521.94
388.67	559.39
388.86	606.20
389.06	561.73
389.25	550.03
389.45	709.18
389.64	580.45
389.84	688.12
390.03	662.37
390.22	716.20
390.42	589.82
390.61	524.28
390.81	606.20
391.00	624.92
391.19	603.86
391.39	613.22
391.58	606.20
391.78	704.50
391.97	676.41
392.16	624.92
392.36	737.27
392.55	706.84
392.75	774.72
392.94	674.07
393.13	739.61
393.33	709.18
393.52	777.06
393.71	720.88
393.91	823.87
394.10	772.38
394.29	767.70
394.49	777.06
394.68	835.57
394.88	823.87
395.07	758.33
395.26	760.67
395.46	730.25
395.65	760.67
395.84	840.25
396.04	837.91
396.23	858.98
396.42	814.51
396.62	856.64
396.81	957.28
397.00	819.19
397.19	844.93
397.39	877.70
397.58	849.61
397.77	830.89
397.97	814.51
398.16	875.36
398.35	945.58
398.55	873.02
398.74	884.72
398.93	999.41
399.12	1011.11
399.32	950.26
399.51	992.39
399.70	964.30
399.90	1020.47
400.09	973.66
400.28	1053.24
400.47	1060.26
400.67	1069.62
400.86	1067.28
401.05	1057.92
401.24	1027.50
401.44	1039.20
401.63	1149.20
401.82	1233.46
402.01	1137.50
402.21	1130.48
402.40	1156.22
402.59	1160.91
402.78	1111.75
402.97	1212.40
403.17	1179.63
403.36	1210.06
403.55	1165.59
403.74	1158.57
403.93	1313.04
404.13	1423.05
404.32	1313.04
404.51	1254.53
404.70	1329.42
404.89	1282.61
405.09	1268.57
405.28	1289.64
405.47	1383.26
405.66	1350.49
405.85	1371.55
406.05	1467.52
406.24	1369.21
406.43	1462.83
406.62	1502.62
406.81	1617.31
407.00	1493.26
407.20	1500.28
407.39	1516.67
407.58	1596.25
407.77	1544.75
407.96	1610.29
408.15	1607.95
408.34	1575.18
408.54	1572.84
408.73	1696.89
408.92	1645.40
409.11	1610.29
409.30	1790.51
409.49	1785.83
409.68	1631.35
409.87	1717.95
410.07	1832.64
410.26	1783.49
410.45	1823.28
410.64	1842.00
410.83	1795.19
411.02	1846.68
411.21	1933.28
411.40	1806.89
411.59	1973.07
411.78	2022.22
411.98	1928.60
412.17	1991.80
412.36	2057.33
412.55	2097.12
412.74	2176.70
412.93	2157.97
413.12	2174.36
413.31	2209.47
413.50	2338.20
413.69	2216.49
413.88	2321.81
414.07	2284.36
414.26	2239.89
414.45	2389.69
414.64	2406.07
414.83	2312.45
415.02	2354.58
415.22	2359.26
415.41	2569.91
415.60	2499.69
415.79	2537.14
415.98	2520.76
416.17	2544.16
416.36	2567.57
416.55	2619.06
416.74	2642.46
416.93	2712.68
417.12	2733.75
417.31	2750.13
417.50	2799.28
417.69	2825.03
417.88	2834.39
418.07	2860.13
418.26	2981.84
418.45	2850.77
418.64	2867.16
418.83	2998.23
419.02	2965.46
419.21	2935.03
419.39	2911.63
419.58	2953.76
419.77	2979.50
419.96	2981.84
420.15	3089.51
420.34	3047.38
420.53	3119.93
420.72	3220.58
420.91	3148.02
421.10	3166.74
421.29	3197.17
421.48	3145.68
421.67	3218.24
421.86	3269.73
422.05	3428.88
422.24	3297.81
422.43	3243.98
422.61	3243.98
422.80	3300.16
422.99	3370.37
423.18	3325.90
423.37	3494.42
423.56	3445.27
423.75	3473.36
423.94	3412.50
424.13	3145.68
424.32	3353.99
424.50	3407.82
424.69	3475.70
424.88	3487.40
425.07	3456.97
425.26	3499.10
425.45	3314.20
425.64	3400.80
425.83	3398.46
426.01	3492.08
426.20	3485.06
426.39	3541.23
426.58	3506.12
426.77	3463.99
426.96	3515.48
427.15	3555.27
427.33	3684.00
427.52	3566.98
427.71	3478.04
427.90	3625.49
428.09	3555.27
428.28	3522.51
428.46	3676.98
428.65	3749.54
428.84	3805.71
429.03	3864.22
429.22	3765.92
429.40	3744.86
429.59	3805.71
429.78	3705.07
429.97	3655.92
430.16	3702.73
430.34	3868.91
430.53	3873.59
430.72	3946.14
430.91	4002.32
431.10	3868.91
431.28	4035.08
431.47	4065.51
431.66	4053.81
431.85	3950.82
432.03	4011.68
432.22	4262.12
432.41	4131.05
432.60	4095.94
432.79	4142.75
432.97	4236.37
433.16	4161.47
433.35	4191.90
433.54	4212.96
433.72	4264.46
433.91	4168.49
434.10	4287.86
434.28	4212.96
434.47	4191.90
434.66	4365.10
434.85	4355.74
435.03	4458.72
435.22	4514.89
435.41	4905.76
435.59	4865.97
435.78	4622.56
435.97	4578.09
436.16	4638.94
436.34	4353.40
436.53	4512.55
436.72	4699.80
436.90	4477.44
437.09	4685.75
437.28	4587.45
437.46	4526.60
437.65	4660.01
437.84	4655.33
438.02	4674.05
438.21	4760.65
438.40	4711.50
438.58	4692.77
438.77	4837.89
438.96	4784.06
439.14	4912.78
439.33	5132.79
439.52	5055.56
439.70	5018.11
439.89	5034.49
440.08	5247.48
440.26	5093.01
440.45	5203.01
440.63	5210.03
440.82	5280.25
441.01	5224.08
441.19	5289.61
441.38	5476.85
441.57	5469.83
441.75	5401.96
441.94	5385.57
442.12	5589.20
442.31	5554.09
442.50	5762.40
442.68	5451.11
442.87	5610.26
443.05	5572.82
443.24	5746.02
443.43	5734.31
443.61	5757.72
443.80	5837.30
443.98	5544.73
444.17	5530.69
444.35	5654.73
444.54	5909.85
444.73	5806.87
444.91	5748.36
445.10	5753.04
445.28	5879.43
445.47	5633.67
445.65	5701.54
445.84	5715.59
446.02	5928.58
446.21	5863.04
446.39	5802.19
446.58	5757.72
446.77	5944.96
446.95	5701.54
447.14	5823.25
447.32	5987.09
447.51	5764.74
447.69	5893.47
447.88	5980.07
448.06	5956.66
448.25	5837.30
448.43	6008.16
448.62	5994.11
448.80	6047.94
448.99	5944.96
449.17	6003.47
449.36	5937.94
449.54	6258.59
449.73	6094.76
449.91	6050.28
450.10	6183.70
450.28	6300.72
450.46	6244.55
450.65	6366.26
450.83	6352.21
451.02	6129.86
451.20	6406.05
451.39	6270.30
451.57	6113.48
451.76	6279.66
451.94	6469.24
452.13	6593.29
452.31	6363.92
452.49	6434.13
452.68	6530.09
452.86	6523.07
453.05	6422.43
453.23	6604.99
453.42	6462.22
453.60	6487.96
453.78	6546.48
453.97	6368.60
454.15	6541.80
454.34	6520.73
454.52	6799.26
454.70	6602.65
454.89	6686.91
455.07	6892.88
455.26	6825.00
455.44	6689.25
455.62	6857.77
455.81	6808.62
455.99	7045.01
456.17	6878.83
456.36	6993.52
456.54	7117.57
456.73	7014.59
456.91	7370.35
457.09	7138.63
457.28	7325.88
457.46	7211.19
457.64	7199.49
457.83	7178.42
458.01	7101.19
458.19	7375.03
458.38	7180.76
458.56	7260.34
458.74	7272.04
458.93	7286.09
459.11	7337.58
459.29	7527.16
459.48	7461.63
459.66	7487.37
459.84	7494.40
460.03	7559.93
460.21	7482.69
460.39	7702.70
460.57	7634.83
460.76	7698.02
460.94	7653.55
461.12	7793.98
461.31	7712.07
461.49	7669.94
461.67	7730.79
461.85	7950.80
462.04	7756.54
462.22	8173.15
462.40	7779.94
462.59	8077.19
462.77	7824.41
462.95	7969.52
463.13	7981.23
463.32	7946.12
463.50	8035.06
463.68	8002.29
463.86	8072.51
464.05	7915.69
464.23	8072.51
464.41	8070.17
464.59	7857.18
464.78	8264.43
464.96	8170.81
465.14	8013.99
465.32	8280.82
465.50	8318.26
465.69	8212.94
465.87	8194.22
466.05	8273.79
466.23	8278.47
466.41	8489.12
466.60	8683.39
466.78	8358.05
466.96	8365.07
467.14	8409.54
467.32	8496.14
467.51	8510.19
467.69	8170.81
467.87	8608.49
468.05	8498.49
468.23	8542.96
468.41	8341.67
468.60	8517.21
468.78	8561.68
468.96	8683.39
469.14	8739.56
469.32	8774.67
469.50	8571.04
469.69	8868.29
469.87	8844.88
470.05	8957.23
470.23	8854.25
470.41	8987.66
470.59	9050.85
470.77	9053.19
470.95	9128.09
471.14	9200.65
471.32	8985.32
471.50	9132.77
471.68	9261.50
471.86	9266.18
472.04	9408.95
472.22	9500.23
472.40	9308.31
472.58	9378.53
472.77	9348.10
472.95	9535.34
473.13	9781.10
473.31	9514.28
473.49	9600.88
473.67	9708.54
473.85	9586.83
474.03	9755.35
474.21	9884.08
474.39	9898.13
474.57	9879.40
474.75	10010.47
474.93	10113.45
475.12	10209.42
475.30	10195.37
475.48	10249.21
475.66	10200.05
475.84	10200.05
476.02	10281.97
476.20	10352.19
476.38	10569.86
476.56	10665.82
476.74	10647.10
476.92	10602.63
477.10	10876.47
477.28	11007.54
477.46	10977.11
477.64	11007.54
477.82	11061.37
478.00	11255.64
478.18	11513.10
478.36	11356.28
478.54	11690.98
478.72	11651.19
478.90	11651.19
479.08	11990.56
479.26	11852.47
479.44	11908.65
479.62	12208.23
479.80	11939.07
479.98	12107.59
480.16	12273.77
480.34	11988.22
480.52	12652.94
480.70	12695.07
480.88	12453.99
481.06	12500.80
481.24	12453.99
481.41	12713.79
481.59	12973.59
481.77	12980.61
481.95	13355.10
482.13	13341.05
482.31	13170.19
482.49	13554.04
482.67	13469.78
482.85	13633.62
483.03	13947.25
483.21	14122.79
483.39	14188.33
483.57	13965.98
483.74	14295.99
483.92	14143.86
484.10	14319.40
484.28	14417.70
484.46	14848.36
484.64	15023.90
484.82	14768.78
485.00	14860.06
485.18	14951.34
485.35	15412.43
485.53	15084.75
485.71	15482.64
485.89	15550.52
486.07	15644.14
486.25	15777.55
486.43	15875.85
486.61	15950.75
486.78	15927.35
486.96	16215.23
487.14	16692.70
487.32	16538.23
487.50	16671.64
487.68	16697.38
487.85	16659.93
488.03	16947.82
488.21	17294.22
488.39	17118.68
488.57	17642.96
488.75	17657.00
488.92	17961.27
489.10	17818.50
489.28	17994.04
489.46	17790.41
489.64	18195.32
489.81	18515.98
489.99	18574.49
490.17	18466.83
490.35	18780.46
490.53	18850.67
490.70	18761.73
490.88	18972.38
491.06	19337.51
491.24	18899.83
491.41	19386.66
491.59	19623.05
491.77	19840.72
491.95	19941.36
492.13	19798.59
492.30	19763.48
492.48	20009.24
492.66	20056.05
492.84	19962.43
493.01	20500.75
493.19	20355.64
493.37	20851.83
493.54	20648.21
493.72	21275.47
493.90	20819.07
494.08	21167.80
494.25	21298.88
494.43	21486.12
494.61	21647.61
494.79	21661.66
494.96	21619.53
495.14	21778.68
495.32	22001.04
495.49	21991.67
495.67	22192.96
495.85	22274.88
496.02	22391.91
496.20	22434.03
496.38	22679.79
496.55	22841.29
496.73	23073.00
496.91	22874.06
497.09	23159.60
497.26	23381.95
497.44	23009.81
497.62	23566.85
497.79	23503.66
497.97	23700.26
498.14	23836.02
498.32	23971.77
498.50	24105.18
498.67	24542.86
498.85	24084.11
499.03	24201.14
499.20	24631.80
499.38	24428.17
499.56	24926.71
499.73	24685.63
499.91	24912.66
500.08	25081.18
500.26	24718.40
500.44	25153.74
500.61	25111.61
500.79	25338.64
500.97	25284.81
501.14	25701.42
501.32	25671.00
501.49	25439.28
501.67	25518.86
501.84	25598.44
502.02	25509.50
502.20	25778.66
502.37	25958.88
502.55	26106.34
502.72	26040.80
502.90	26436.35
503.07	26075.91
503.25	26546.36
503.43	26045.48
503.60	26775.73
503.78	26436.35
503.95	26436.35
504.13	26494.86
504.30	26845.94
504.48	26794.45
504.65	27168.94
504.83	27267.24
505.01	27442.78
505.18	27372.57
505.36	27697.90
505.53	27318.73
505.71	27545.76
505.88	27838.33
506.06	27520.02
506.23	28013.87
506.41	27927.27
506.58	28247.93
506.76	28219.84
506.93	28018.55
507.11	28133.24
507.28	28023.23
507.46	28542.83
507.63	28336.87
507.81	28793.27
507.98	28467.94
508.16	28816.68
508.33	28739.44
508.50	28648.16
508.68	28914.98
508.85	29179.46
509.03	29050.73
509.20	29544.58
509.38	29722.46
509.55	29799.70
509.73	29626.50
509.90	29521.18
510.08	29607.78
510.25	29788.00
510.42	30075.88
510.60	29947.15
510.77	30040.78
510.95	30464.41
511.12	29790.34
511.30	29883.96
511.47	30171.85
511.64	30160.14
511.82	30693.79
511.99	30675.06
512.17	30976.99
512.34	30700.81
512.51	31112.74
512.69	30855.28
512.86	30909.11
513.04	31197.00
513.21	31391.26
513.38	31187.64
513.56	31730.64
513.73	31131.47
513.90	31407.65
514.08	31487.23
514.25	31555.10
514.43	31737.66
514.60	31735.32
514.77	32297.05
514.95	32224.50
515.12	31695.53
515.29	31494.25
515.47	32231.52
515.64	32673.88
515.81	32032.57
515.99	32135.56
516.16	33116.24
516.33	32402.38
516.51	32891.55
516.68	32617.71
516.85	32367.27
517.03	32713.67
517.20	32676.22
517.37	32793.25
517.54	32917.29
517.72	33099.86
517.89	32982.83
518.06	32919.63
518.24	33413.49
518.41	32966.45
518.58	33434.55
518.75	33326.89
518.93	33553.92
519.10	33467.32
519.27	33841.81
519.45	34050.11
519.62	33631.16
519.79	33961.17
519.96	33977.56
520.14	33912.02
520.31	33670.95
520.48	34117.99
520.65	34216.29
520.83	34328.64
521.00	34375.45
521.17	34101.61
521.34	34171.82
521.52	34511.20
521.69	34824.83
521.86	34808.45
522.03	35044.84
522.20	34756.96
522.38	34869.30
522.55	34759.30
522.72	35168.89
522.89	35082.29
523.07	35632.32
523.24	35323.36
523.41	35531.67
523.58	35519.97
523.75	35379.54
523.92	35887.43
524.10	35651.04
524.27	35962.33
524.44	35892.12
524.61	36367.24
524.78	36512.36
524.96	35969.35
525.13	36191.70
525.30	35819.56
525.47	36107.44
525.64	36180.00
525.81	36631.72
525.98	36266.60
526.16	36425.76
526.33	36304.05
526.50	36563.85
526.67	36062.97
526.84	36392.99
527.01	36657.47
527.18	36732.37
527.36	37022.59
527.53	37053.02
527.70	37120.90
527.87	36938.33
528.04	36987.49
528.21	36821.31
528.38	36788.54
528.55	37191.11
528.72	37617.09
528.89	37656.88
529.07	37258.99
529.24	37457.93
529.41	37516.45
529.58	37411.12
529.75	37406.44
529.92	37333.89
530.09	37357.29
530.26	37439.21
530.43	37816.04
530.60	37624.11
530.77	37771.57
530.94	38349.68
531.11	37750.50
531.28	37930.72
531.46	37790.29
531.63	38225.63
531.80	37900.29
531.97	38419.89
532.14	38588.41
532.31	37904.98
532.48	38370.74
532.65	38703.10
532.82	38569.69
532.99	38703.10
533.16	38639.90
533.33	39164.18
533.50	38541.60
533.67	38515.86
533.84	38614.16
534.01	39042.48
534.18	38572.03
534.35	39079.92
534.52	38972.26
534.69	38930.13
534.86	38934.81
535.03	38976.94
535.20	39033.11
535.37	39461.43
535.54	39569.10
535.71	39026.09
535.88	39213.34
536.05	39578.46
536.22	39498.88
536.38	39400.58
536.55	39934.22
536.72	39676.76
536.89	39707.19
537.06	39648.68
537.23	40020.82
537.40	39559.73
537.57	39522.29
537.74	39732.93
537.91	40456.16
538.08	39770.38
538.25	39351.43
538.42	39807.83
538.59	40294.66
538.75	40079.33
538.92	40105.08
539.09	40598.93
539.26	40308.71
539.43	40093.38
539.60	40362.54
539.77	40673.83
539.94	40921.93
540.11	40875.12
540.28	40414.03
540.44	40671.49
540.61	40900.86
540.78	40821.28
540.95	41179.39
541.12	40957.03
541.29	41055.34
541.46	40891.50
541.62	41539.83
541.79	40905.54
541.96	41109.17
542.13	41448.55
542.30	41434.50
542.47	41462.59
542.63	41401.74
542.80	41432.16
542.97	41509.40
543.14	41483.66
543.31	41500.04
543.48	41460.25
543.64	42141.35
543.81	41949.42
543.98	42506.47
544.15	42260.71
544.32	42059.43
544.48	42178.79
544.65	41993.89
544.82	41951.76
544.99	41649.83
545.16	41729.41
545.32	42256.03
545.49	42726.48
545.66	43012.02
545.83	43157.14
546.00	43037.77
546.16	42686.69
546.33	42003.25
546.50	42073.47
546.67	42417.53
546.83	41926.02
547.00	42359.02
547.17	42836.48
547.34	42520.51
547.50	42876.27
547.67	42953.51
547.84	42756.91
548.00	42520.51
548.17	42700.73
548.34	42974.58
548.51	42480.72
548.67	42646.90
548.84	42536.90
549.01	42815.42
549.18	42373.06
549.34	42904.36
549.51	42962.87
549.68	42611.79
549.84	42553.28
550.01	42810.74
550.18	43040.11
550.34	42742.86
550.51	42834.14
550.68	42986.28
550.84	42653.92
551.01	42972.24
551.18	42649.24
551.34	42962.87
551.51	43117.35
551.68	43049.47
551.84	43533.96
552.01	42724.14
552.18	43662.69
552.34	43555.03
552.51	43606.52
552.68	43391.19
552.84	43215.65
553.01	43365.45
553.18	43456.73
553.34	43370.13
553.51	43267.14
553.67	43636.95
553.84	43908.45
554.01	43807.81
554.17	43484.81
554.34	43721.21
554.51	43650.99
554.67	43592.48
554.84	43468.43
555.00	43281.19
555.17	43887.39
555.33	43826.53
555.50	43889.73
555.67	43777.38
555.83	43302.25
556.00	43882.70
556.16	44135.48
556.33	43737.59
556.50	43557.37
556.66	44318.04
556.83	44020.80
556.99	44016.11
557.16	44395.28
557.32	44367.20
557.49	44119.10
557.65	43861.64
557.82	43831.21
557.98	44018.46
558.15	44083.99
558.32	43887.39
558.48	44219.74
558.65	44158.89
558.81	44121.44
558.98	44378.90
559.14	44524.01
559.31	44074.63
559.47	44287.62
559.64	44198.68
559.80	44570.82
559.97	44273.57
560.13	44411.67
560.30	44098.03
560.46	44509.97
560.63	44404.64
560.79	44643.38
560.96	44568.48
561.12	44416.35
561.29	44219.74
561.45	44381.24
561.61	44299.32
561.78	44924.24
561.94	44973.39
562.11	44442.09
562.27	44247.83
562.44	44769.77
562.60	44423.37
562.77	44568.48
562.93	44767.43
563.10	44772.11
563.26	44322.72
563.42	44928.92
563.59	44570.82
563.75	44940.63
563.92	44725.30
564.08	44348.47
564.24	44402.30
564.41	44423.37
564.57	44512.31
564.74	44491.24
564.90	45179.36
565.07	44502.95
565.23	44879.77
565.39	44662.10
565.56	45097.44
565.72	44769.77
565.88	44751.04
566.05	44615.29
566.21	44334.43
566.38	44545.08
566.54	44491.24
566.70	44921.90
566.87	45088.08
567.03	44767.43
567.19	45048.29
567.36	44753.38
567.52	44877.43
567.68	45317.45
567.85	44261.87
568.01	44802.53
568.17	44741.68
568.34	44467.84
568.50	44973.39
568.66	44783.81
568.83	45067.02
568.99	44442.09
569.15	44561.46
569.32	44954.67
569.48	44706.57
569.64	45202.77
569.81	44446.77
569.97	44947.65
570.13	44615.29
570.30	44903.18
570.46	44896.16
570.62	44818.92
570.78	44996.80
570.95	44992.12
571.11	44783.81
571.27	44531.03
571.43	44608.27
571.60	45247.24
571.76	44355.49
571.92	45179.36
572.09	45116.17
572.25	45385.33
572.41	45186.38
572.57	45130.21
572.74	45205.11
572.90	44910.20
573.06	45071.70
573.22	44839.98
573.38	45052.97
573.55	44830.62
573.71	44917.22
573.87	45485.97
574.03	44816.58
574.20	45113.83
574.36	44966.37
574.52	45085.74
574.68	45045.95
574.84	44856.37
575.01	44765.09
575.17	44935.95
575.33	44917.22
575.49	44935.95
575.65	45359.58
575.82	45326.81
575.98	45345.54
576.14	45223.83
576.30	45453.20
576.46	45240.21
576.62	44914.88
576.79	45511.72
576.95	44863.39
577.11	45263.62
577.27	45146.59
577.43	45181.70
577.59	44680.83
577.75	45109.14
577.92	45118.51
578.08	45006.16
578.24	45043.61
578.40	45034.25
578.56	44935.95
578.72	45640.45
578.88	45277.66
579.04	45511.72
579.21	45141.91
579.37	45303.41
579.53	45284.68
579.69	44851.69
579.85	44594.23
580.01	45158.30
580.17	44713.59
580.33	45020.20
580.49	44975.73
580.65	45375.97
580.82	45504.70
580.98	45099.78
581.14	45074.04
581.30	45411.07
581.46	44978.07
581.62	45050.63
581.78	44877.43
581.94	45289.37
582.10	45067.02
582.26	44940.63
582.42	45322.13
582.58	45017.86
582.74	45392.35
582.90	45525.76
583.06	45265.96
583.22	44680.83
583.38	44987.44
583.54	45272.98
583.70	44737.00
583.86	44971.05
584.02	44940.63
584.18	45413.41
584.34	45556.19
584.50	45151.27
584.66	45090.42
584.82	45467.25
584.98	45500.01
585.14	45111.49
585.30	45310.43
585.46	45048.29
585.62	45055.31
585.78	44807.22
585.94	44788.49
586.10	45308.09
586.26	44790.83
586.42	45551.51
586.58	45352.56
586.74	44919.56
586.90	45017.86
587.06	44842.32
587.22	45301.07
587.38	45059.99
587.54	45457.88
587.70	45673.21
587.86	45530.44
588.02	45216.81
588.18	45542.14
588.34	45474.27
588.49	45085.74
588.65	45144.25
588.81	45020.20
588.97	45329.16
589.13	45125.53
589.29	45277.66
589.45	45659.17
589.61	45359.58
589.77	45357.24
589.93	45741.09
590.08	45476.61
590.24	45436.82
590.40	45808.96
590.56	45219.15
590.72	45179.36
590.88	45123.19
591.04	45242.56
591.20	45743.43
591.35	45586.61
591.51	46272.39
591.67	45921.31
591.83	45855.78
591.99	45464.91
592.15	45642.79
592.31	45488.31
592.46	44865.73
592.62	45254.26
592.78	45378.31
592.94	45432.14
593.10	45439.16
593.26	45820.67
593.41	45631.08
593.57	45776.20
593.73	45467.25
593.89	45790.24
594.05	45621.72
594.20	45415.76
594.36	45181.70
594.52	45457.88
594.68	45345.54
594.84	45207.45
594.99	45661.51
595.15	45563.21
595.31	45633.42
595.47	45687.26
595.62	45638.11
595.78	45434.48
595.94	45787.90
596.10	45308.09
596.25	45310.43
596.41	45450.86
596.57	45179.36
596.73	45930.67
596.88	45359.58
597.04	45317.45
597.20	45537.46
597.36	45532.78
597.51	45460.23
597.67	45247.24
597.83	45521.08
597.99	45858.12
598.14	45322.13
598.30	45455.54
598.46	45078.72
598.61	45535.12
598.77	45074.04
598.93	45691.94
599.09	45528.10
599.24	45895.56
599.40	45773.86
599.56	45855.78
599.71	45387.67
599.87	45794.92
600.03	45614.70
600.18	45736.41
600.34	45474.27
600.50	45008.50
600.65	45565.55
600.81	45691.94
600.97	45879.18
601.12	45867.48
601.28	45715.34
601.44	45830.03
601.59	45724.71
601.75	45191.06
601.91	45483.63
602.06	45258.94
602.22	45422.78
602.37	44746.36
602.53	45179.36
602.69	45581.93
602.84	45256.60
603.00	45584.27
603.16	45565.55
603.31	45666.19
603.47	45544.48
603.62	45338.52
603.78	44868.07
603.94	45111.49
604.09	45652.15
604.25	45125.53
604.40	45240.21
604.56	45387.67
604.71	45219.15
604.87	45698.96
605.03	45020.20
605.18	45621.72
605.34	45308.09
605.49	44783.81
605.65	44942.97
605.80	44928.92
605.96	44886.79
606.12	45371.28
606.27	45153.62
606.43	45010.84
606.58	45511.72
606.74	45193.40
606.89	45303.41
607.05	45247.24
607.20	45249.58
607.36	45331.50
607.51	45020.20
607.67	44814.24
607.82	45097.44
607.98	44947.65
608.13	45064.67
608.29	45059.99
608.44	45088.08
608.60	44851.69
608.75	45151.27
608.91	45322.13
609.06	45179.36
609.22	45289.37
609.37	44996.80
609.53	44912.54
609.68	44971.05
609.84	45076.38
609.99	44999.14
610.15	44830.62
610.30	45139.57
610.46	45092.76
610.61	45535.12
610.76	45741.09
610.92	45977.48
611.07	45359.58
611.23	45617.04
611.38	45415.76
611.54	45284.68
611.69	44980.42
611.84	44982.76
612.00	44800.19
612.15	44634.02
612.31	44868.07
612.46	44575.50
612.62	45139.57
612.77	44893.82
612.92	45336.18
613.08	44671.46
613.23	44741.68
613.39	44844.66
613.54	43985.69
613.69	44524.01
613.85	44369.54
614.00	44942.97
614.15	44491.24
614.31	44311.02
614.46	44926.58
614.62	44353.15
614.77	44133.14
614.92	44837.64
615.08	44271.23
615.23	43990.37
615.38	44147.18
615.54	43220.33
615.69	43814.83
615.84	43583.12
616.00	44233.78
616.15	44048.88
616.30	44278.25
616.46	44261.87
616.61	43950.58
616.76	44030.16
616.92	43639.29
617.07	43775.04
617.22	43412.26
617.37	43744.61
617.53	43777.38
617.68	43206.29
617.83	43730.57
617.99	43700.14
618.14	43578.43
618.29	44032.50
618.45	43503.54
618.60	43189.91
618.75	43367.79
618.90	43522.26
619.06	43269.48
619.21	43243.74
619.36	43779.72
619.51	43388.85
619.67	43072.88
619.82	43435.66
619.97	43182.88
620.12	43220.33
620.28	43573.75
620.43	43203.95
620.58	43164.16
620.73	43489.49
620.89	43217.99
621.04	43363.11
621.19	43281.19
621.34	43210.97
621.49	43122.03
621.65	42679.67
621.80	43112.67
621.95	42967.55
622.10	43274.16
622.25	43194.59
622.41	42887.98
622.56	42808.40
622.71	42993.30
622.86	42550.94
623.01	43206.29
623.16	42948.83
623.32	42796.70
623.47	42384.76
623.62	42672.65
623.77	42485.40
623.92	42532.22
624.07	42686.69
624.23	42679.67
624.38	42703.07
624.53	42782.65
624.68	42719.46
624.83	42700.73
624.98	43086.92
625.13	42689.03
625.29	42974.58
625.44	42770.95
625.59	42344.97
625.74	42080.49
625.89	42328.59
626.04	42010.28
626.19	42019.64
626.34	42026.66
626.49	41715.37
626.65	42157.73
626.80	42567.32
626.95	42225.60
627.10	42080.49
627.25	41918.99
627.40	42061.77
627.55	42281.78
627.70	42220.92
627.85	41961.12
628.00	41902.61
628.15	41581.96
628.30	41631.11
628.45	41872.18
628.60	41830.05
628.76	42068.79
628.91	42040.70
629.06	41703.67
629.21	42003.25
629.36	41755.16
629.51	41179.39
629.66	41427.48
629.81	41860.48
629.96	41123.21
630.11	41441.53
630.26	41212.15
630.41	41841.76
630.56	41542.17
630.71	41647.49
630.86	41429.82
631.01	41511.74
631.16	41741.11
631.31	41308.11
631.46	41422.80
631.61	41914.31
631.76	41497.70
631.91	40795.54
632.06	40737.02
632.21	40868.09
632.36	41151.30
632.51	40526.38
632.66	41361.95
632.81	41036.61
632.96	41263.64
633.10	41509.40
633.25	41097.47
633.40	41024.91
633.55	41270.67
633.70	40762.77
633.85	41240.24
634.00	40648.08
634.15	40737.02
634.30	40914.90
634.45	40622.34
634.60	40680.85
634.75	40877.46
634.90	40825.96
635.05	40797.88
635.19	40666.81
635.34	40931.29
635.49	40804.90
635.64	40367.22
635.79	40257.21
635.94	40306.37
636.09	40322.75
636.24	40491.27
636.39	40217.43
636.53	40292.32
636.68	39950.60
636.83	40196.36
636.98	40683.19
637.13	40041.88
637.28	40367.22
637.43	40715.96
637.57	40727.66
637.72	40067.63
637.87	40114.44
638.02	39875.71
638.17	40100.40
638.32	39641.65
638.46	39894.43
638.61	39536.33
638.76	39943.58
638.91	40158.91
639.06	39653.36
639.20	40187.00
639.35	40037.20
639.50	39812.51
639.65	39714.21
639.80	40163.59
639.94	39821.87
640.09	40004.44
640.24	39676.76
640.39	39679.10
640.54	39789.11
640.68	39662.72
640.83	39339.72
640.98	39405.26
641.13	38829.49
641.27	39541.01
641.42	39356.11
641.57	39775.06
641.72	39838.26
641.86	39335.04
642.01	39147.80
642.16	39487.18
642.31	38843.53
642.45	39365.47
642.60	39147.80
642.75	39218.02
642.90	39454.41
643.04	38890.34
643.19	39136.10
643.34	39086.95
643.48	39220.36
643.63	39323.34
643.78	39545.69
643.93	39409.94
644.07	39393.56
644.22	39150.14
644.37	38698.42
644.51	39218.02
644.66	38998.01
644.81	38630.54
644.95	38719.48
645.10	38579.05
645.25	38740.55
645.39	39042.48
645.54	38866.94
645.69	38710.12
645.83	38543.94
645.98	39372.49
646.13	38944.17
646.27	39185.25
646.42	38925.45
646.57	38740.55
646.71	38761.61
646.86	38990.98
647.00	38401.17
647.15	38443.30
647.30	38635.22
647.44	38916.09
647.59	38242.01
647.74	38153.07
647.88	38316.91
648.03	38237.33
648.17	38354.36
648.32	38770.97
648.47	38866.94
648.61	38174.14
648.76	38363.72
648.90	38693.74
649.05	38258.40
649.20	38422.23
649.34	38176.48
649.49	38148.39
649.63	38132.01
649.78	37916.68
649.92	38199.88
650.07	38403.51
650.21	38223.29
650.36	38239.67
650.51	38080.52
650.65	38370.74
650.80	38410.53
650.94	38335.63
651.09	38288.82
651.23	37713.05
651.38	37820.72
651.52	37853.48
651.67	38113.28
651.81	38096.90
651.96	37759.86
652.10	37851.14
652.25	37406.44
652.39	38019.66
652.54	37778.59
652.68	37797.31
652.83	37881.57
652.97	38162.43
653.12	37666.24
653.26	37699.01
653.41	37654.54
653.55	37387.72
653.70	37558.58
653.84	37546.87
653.99	37151.32
654.13	37352.61
654.27	37378.36
654.42	37345.59
654.56	37139.62
654.71	37364.31
654.85	37385.38
655.00	37312.82
655.14	37689.65
655.29	37331.54
655.43	37361.97
655.57	37301.12
655.72	36940.68
655.86	37413.46
656.01	36746.41
656.15	37221.54
656.30	36907.91
656.44	36776.84
656.58	37273.03
656.73	37022.59
656.87	37137.28
657.01	37057.70
657.16	37067.06
657.30	37060.04
657.45	37046.00
657.59	37401.76
657.73	36708.96
657.88	36772.16
658.02	36685.56
658.16	36369.58
658.31	36629.38
658.45	36528.74
658.60	36636.41
658.74	36266.60
658.88	36620.02
659.03	36339.16
659.17	36549.81
659.31	36493.63
659.46	36605.98
659.60	36346.18
659.74	36107.44
659.89	36425.76
660.03	36016.16
660.17	36180.00
660.32	35634.66
660.46	36037.23
660.60	35737.64
660.74	36271.28
660.89	35927.22
661.03	35239.11
661.17	35805.52
661.32	35674.45
661.46	35688.49
661.60	35878.07
661.74	35826.58
661.89	35758.70
662.03	35655.72
662.17	35274.21
662.31	35482.52
662.46	35512.95
662.60	35629.98
662.74	35372.52
662.88	35339.75
663.03	35218.04
663.17	34967.60
663.31	35065.91
663.45	34845.90
663.60	35002.71
663.74	34677.38
663.88	34871.64
664.02	34834.19
664.17	35119.74
664.31	34806.11
664.45	34719.51
664.59	34742.91
664.73	34799.08
664.88	34824.83
665.02	34398.85
665.16	34265.44
665.30	34703.12
665.44	34726.53
665.59	33902.66
665.73	34712.49
665.87	34171.82
666.01	34742.91
666.15	34330.98
666.29	33895.64
666.44	34408.22
666.58	34153.10
666.72	34033.73
666.86	34256.08
667.00	34251.40
667.14	34089.90
667.28	33783.29
667.43	33954.15
667.57	33839.47
667.71	33500.09
667.85	33497.75
667.99	33699.03
668.13	33635.84
668.27	33446.26
668.41	33649.88
668.56	33088.15
668.70	33406.47
668.84	33502.43
668.98	33448.60
669.12	33598.39
669.26	33546.90
669.40	33369.02
669.54	33291.78
669.68	32954.74
669.82	32723.03
669.96	33062.41
670.10	32496.00
670.25	32704.31
670.39	32673.88
670.53	32308.76
670.67	32643.45
670.81	32652.81
670.95	32790.91
671.09	32313.44
671.23	32378.97
671.37	32598.98
671.51	32954.74
671.65	32769.84
671.79	32201.09
671.93	32144.92
672.07	32208.11
672.21	32048.96
672.35	32002.14
672.49	31573.83
672.63	31793.84
672.77	31421.69
672.91	31672.13
673.05	31878.10
673.19	31419.35
673.33	31445.10
673.47	31527.02
673.61	31482.55
673.75	31688.51
673.89	31667.45
674.03	31555.10
674.17	31374.88
674.31	31166.57
674.45	30962.95
674.59	30897.41
674.73	30843.58
674.87	30780.39
675.01	30654.00
675.15	30644.63
675.29	30705.49
675.43	30438.67
675.56	30178.87
675.70	30396.54
675.84	30796.77
675.98	29816.08
676.12	30583.78
676.26	30426.96
676.40	30307.60
676.54	30087.59
676.68	30038.44
676.82	29507.13
676.96	29645.23
677.10	29944.81
677.23	29462.66
677.37	29331.59
677.51	29324.57
677.65	29174.78
677.79	29067.11
677.93	29380.74
678.07	29029.66
678.21	29132.65
678.34	29247.33
678.48	28526.45
678.62	28435.17
678.76	28709.01
678.90	28465.60
679.04	28084.09
679.18	28374.31
679.31	28098.13
679.45	27988.13
679.59	28140.26
679.73	28156.64
679.87	27594.92
680.00	27976.42
680.14	27627.68
680.28	27580.87
680.42	27786.84
680.56	27887.48
680.70	27353.84
680.83	27611.30
680.97	27718.96
681.11	27421.72
681.25	27419.38
681.39	27243.84
681.52	27321.07
681.66	26693.81
681.80	26773.39
681.94	26827.22
682.07	26651.68
682.21	26668.06
682.35	26586.15
682.49	26178.89
682.62	26209.32
682.76	26143.78
682.90	26331.03
683.04	26225.70
683.17	26267.83
683.31	25778.66
683.45	26195.28
683.59	25799.73
683.72	25750.57
683.86	25837.17
684.00	25514.18
684.13	25469.71
684.27	25326.94
684.41	25247.36
684.55	25289.49
684.68	25385.45
684.82	25340.98
684.96	24709.04
685.09	24826.06
685.23	24687.97
685.37	24563.92
685.50	24854.15
685.64	24854.15
685.78	24596.69
685.91	24484.34
686.05	24486.68
686.19	24617.75
686.32	24599.03
686.46	24210.50
686.60	23985.81
686.73	24018.58
686.87	23953.04
687.01	24086.45
687.14	23356.21
687.28	23515.36
687.42	23440.47
687.55	23379.61
687.69	23515.36
687.82	23466.21
687.96	23438.12
688.10	23227.48
688.23	23449.83
688.37	23117.47
688.50	23269.61
688.64	22977.04
688.78	22979.38
688.91	22860.01
689.05	22759.37
689.18	22305.31
689.32	22024.44
689.46	22038.48
689.59	22092.32
689.73	21965.93
689.86	21766.98
690.00	21893.37
690.13	22405.95
690.27	21921.46
690.41	21823.16
690.54	21741.24
690.68	21731.87
690.81	21830.18
690.95	21825.50
691.08	21486.12
691.22	21284.83
691.35	21589.10
691.49	21249.72
691.62	21287.17
691.76	21411.22
691.89	21008.65
692.03	20582.67
692.16	20758.21
692.30	20912.69
692.43	20870.56
692.57	20365.00
692.70	20500.75
692.84	20458.62
692.97	20475.01
693.11	20479.69
693.24	20435.22
693.38	20416.49
693.51	20044.35
693.65	20098.18
693.78	19889.87
693.92	19976.47
694.05	19859.45
694.19	19744.76
694.32	19550.49
694.45	19494.32
694.59	19234.52
694.72	19229.84
694.86	19274.31
694.99	18665.77
695.13	19054.30
695.26	19044.94
695.39	18934.93
695.53	18977.06
695.66	18824.93
695.80	18974.72
695.93	18579.17
696.07	18724.29
696.20	18794.50
696.33	18471.51
696.47	18527.68
696.60	18537.04
696.73	18019.78
696.87	18359.16
697.00	18230.43
697.14	17935.53
697.27	17809.14
697.40	17647.64
697.54	17605.51
697.67	17469.76
697.80	17460.40
697.94	17167.83
698.07	17394.86
698.21	17537.63
698.34	17338.69
698.47	17376.14
698.61	17231.02
698.74	17446.35
698.87	17483.80
699.01	16875.26
699.14	16971.22
699.27	16987.61
699.40	16837.81
699.54	16570.99
699.67	16456.31
699.80	16587.38
699.94	16409.50
700.07	16350.98
700.20	16318.22
700.34	15686.27
700.47	16123.95
700.60	15906.28
700.73	16072.46
700.87	15992.88
701.00	15852.45
701.13	15482.64
701.26	15793.94
701.40	16016.29
701.53	15770.53
701.66	15871.17
701.79	15623.08
701.93	15609.03
702.06	15407.75
702.19	15431.15
702.32	15112.84
702.46	15103.48
702.59	14839.00
702.72	15044.96
702.85	14888.15
702.99	14654.09
703.12	14871.76
703.25	14511.32
703.38	14686.86
703.51	14672.82
703.65	14457.49
703.78	14469.19
703.91	14501.96
704.04	14321.74
704.17	14317.06
704.31	14071.30
704.44	14071.30
704.57	13928.53
704.70	14064.28
704.83	13940.23
704.96	14139.18
705.10	13764.69
705.23	13760.01
>>>>>End Processed Spectral Data<<<<<
