SpectraSuite Data File
++++++++++++++++++++++++++++++++++++
Date: Tue Oct 01 18:27:28 GMT-05:00 2013
User: stostad
Dark Spectrum Present: No
Reference Spectrum Present: No
Number of Sampled Component Spectra: 1
Spectrometers: USB2+H05261
Integration Time (usec): 100000 (USB2+H05261)
Spectra Averaged: 1 (USB2+H05261)
Boxcar Smoothing: 0 (USB2+H05261)
Correct for Electrical Dark: No (USB2+H05261)
Strobe/Lamp Enabled: No (USB2+H05261)
Correct for Detector Non-linearity: No (USB2+H05261)
Correct for Stray Light: No (USB2+H05261)
Number of Pixels in Processed Spectrum: 2048
>>>>>Begin Processed Spectral Data<<<<<
365.73	35.11
365.92	35.11
366.12	35.11
366.32	28.09
366.52	0.00
366.72	0.00
366.91	0.00
367.11	0.00
367.31	0.00
367.51	0.00
367.70	0.00
367.90	0.00
368.10	0.00
368.30	0.00
368.49	0.00
368.69	0.00
368.89	0.00
369.09	0.00
369.28	0.00
369.48	0.00
369.68	0.00
369.87	30.43
370.07	30.43
370.27	30.43
370.47	74.90
370.66	201.29
370.86	203.63
371.06	285.55
371.25	327.68
371.45	297.25
371.65	311.29
371.84	311.29
372.04	332.36
372.24	294.91
372.44	374.49
372.63	458.74
372.83	360.44
373.03	344.06
373.22	334.70
373.42	423.64
373.62	491.51
373.81	418.96
374.01	409.59
374.21	376.83
374.40	386.19
374.60	444.70
374.79	428.32
374.99	468.11
375.19	428.32
375.38	407.25
375.58	404.91
375.78	465.77
375.97	477.47
376.17	505.56
376.37	514.92
376.56	437.68
376.76	451.72
376.95	458.74
377.15	442.36
377.35	444.70
377.54	444.70
377.74	498.53
377.93	475.13
378.13	428.32
378.33	421.30
378.52	458.74
378.72	538.32
378.91	533.64
379.11	442.36
379.31	498.53
379.50	477.47
379.70	528.96
379.89	470.45
380.09	425.98
380.28	510.24
380.48	470.45
380.68	519.60
380.87	454.06
381.07	486.83
381.26	566.41
381.46	580.45
381.65	463.43
381.85	545.34
382.04	519.60
382.24	573.43
382.43	517.26
382.63	477.47
382.83	528.96
383.02	561.73
383.22	585.13
383.41	578.11
383.61	543.00
383.80	641.31
384.00	592.16
384.19	559.39
384.39	662.37
384.58	603.86
384.78	613.22
384.97	603.86
385.17	662.37
385.36	606.20
385.56	641.31
385.75	657.69
385.95	650.67
386.14	620.24
386.34	629.60
386.53	571.09
386.72	641.31
386.92	603.86
387.11	613.22
387.31	681.10
387.50	720.88
387.70	706.84
387.89	781.74
388.09	732.59
388.28	660.03
388.48	638.97
388.67	643.65
388.86	610.88
389.06	678.76
389.25	699.82
389.45	744.29
389.64	676.41
389.84	755.99
390.03	706.84
390.22	730.25
390.42	730.25
390.61	753.65
390.81	767.70
391.00	751.31
391.19	840.25
391.39	851.96
391.58	800.46
391.78	805.14
391.97	786.42
392.16	805.14
392.36	901.11
392.55	802.80
392.75	837.91
392.94	819.19
393.13	823.87
393.33	833.23
393.52	805.14
393.71	919.83
393.91	873.02
394.10	823.87
394.29	858.98
394.49	837.91
394.68	816.85
394.88	894.08
395.07	877.70
395.26	931.53
395.46	983.02
395.65	1090.69
395.84	903.45
396.04	999.41
396.23	978.34
396.42	929.19
396.62	1008.77
396.81	947.92
397.00	936.21
397.19	987.71
397.39	987.71
397.58	1034.52
397.77	987.71
397.97	1109.41
398.16	1111.75
398.35	1025.15
398.55	1086.01
398.74	1132.82
398.93	1142.18
399.12	1179.63
399.32	1137.50
399.51	987.71
399.70	1151.54
399.90	1163.25
400.09	1153.88
400.28	1193.67
400.47	1219.42
400.67	1235.80
400.86	1217.08
401.05	1181.97
401.24	1149.20
401.44	1188.99
401.63	1294.32
401.82	1226.44
402.01	1249.85
402.21	1296.66
402.40	1231.12
402.59	1320.06
402.78	1306.02
402.97	1341.13
403.17	1369.21
403.36	1294.32
403.55	1376.24
403.74	1413.68
403.93	1397.30
404.13	1331.76
404.32	1345.81
404.51	1465.18
404.70	1474.54
404.89	1474.54
405.09	1437.09
405.28	1521.35
405.47	1497.94
405.66	1547.09
405.85	1544.75
406.05	1465.18
406.24	1582.20
406.43	1511.99
406.62	1607.95
406.81	1645.40
407.00	1593.90
407.20	1596.25
407.39	1675.82
407.58	1664.12
407.77	1753.06
407.96	1647.74
408.15	1743.70
408.34	1647.74
408.54	1898.17
408.73	1713.27
408.92	1778.81
409.11	1905.20
409.30	1778.81
409.49	1877.11
409.68	1921.58
409.87	1867.75
410.07	1944.99
410.26	1870.09
410.45	1877.11
410.64	1987.11
410.83	1991.80
411.02	1912.22
411.21	2097.12
411.40	1919.24
411.59	2139.25
411.78	2080.74
411.98	2106.48
412.17	2172.02
412.36	2122.87
412.55	2179.04
412.74	2253.94
412.93	2300.75
413.12	2214.15
413.31	2399.05
413.50	2310.11
413.69	2211.81
413.88	2457.56
414.07	2340.54
414.26	2359.26
414.45	2511.39
414.64	2544.16
414.83	2490.33
415.02	2476.29
415.22	2523.10
415.41	2630.76
415.60	2572.25
415.79	2579.27
415.98	2684.59
416.17	2773.53
416.36	2600.34
416.55	2684.59
416.74	2747.79
416.93	2724.38
417.12	2799.28
417.31	2920.99
417.50	2883.54
417.69	3045.04
417.88	3030.99
418.07	2881.20
418.26	2874.18
418.45	2864.82
418.64	3052.06
418.83	3049.72
419.02	2988.86
419.21	3080.14
419.39	3021.63
419.58	3035.67
419.77	3145.68
419.96	3108.23
420.15	3126.96
420.34	3136.32
420.53	3265.05
420.72	3302.50
420.91	3199.51
421.10	3199.51
421.29	3293.13
421.48	3241.64
421.67	3262.71
421.86	3267.39
422.05	3396.12
422.24	3424.20
422.43	3258.03
422.61	3337.60
422.80	3377.39
422.99	3492.08
423.18	3283.77
423.37	3440.59
423.56	3370.37
423.75	3272.07
423.94	3370.37
424.13	3194.83
424.32	3304.84
424.50	3349.31
424.69	3412.50
424.88	3527.19
425.07	3396.12
425.26	3545.91
425.45	3426.54
425.64	3489.74
425.83	3485.06
426.01	3517.83
426.20	3393.78
426.39	3468.67
426.58	3520.17
426.77	3527.19
426.96	3403.14
427.15	3536.55
427.33	3515.48
427.52	3684.00
427.71	3602.08
427.90	3574.00
428.09	3541.23
428.28	3875.93
428.46	3648.90
428.65	3908.69
428.84	3786.99
429.03	3904.01
429.22	3630.17
429.40	3812.73
429.59	3920.40
429.78	3693.37
429.97	3641.87
430.16	3866.56
430.34	3990.61
430.53	3967.21
430.72	3878.27
430.91	3941.46
431.10	3997.64
431.28	4084.23
431.47	3985.93
431.66	4014.02
431.85	3845.50
432.03	4161.47
432.22	4049.13
432.41	4117.00
432.60	4194.24
432.79	4074.87
432.97	4142.75
433.16	4234.03
433.35	4112.32
433.54	4098.28
433.72	4212.96
433.91	4215.30
434.10	4280.84
434.28	4168.49
434.47	4215.30
434.66	4381.48
434.85	4461.06
435.03	4428.29
435.22	4425.95
435.41	4610.86
435.59	4510.21
435.78	4411.91
435.97	4559.36
436.16	4559.36
436.34	4482.13
436.53	4634.26
436.72	4657.67
436.90	4482.13
437.09	4617.88
437.28	4671.71
437.46	4643.62
437.65	4734.90
437.84	4849.59
438.02	4660.01
438.21	4751.29
438.40	4706.82
438.58	4887.04
438.77	4894.06
438.96	5006.41
439.14	4858.95
439.33	4971.30
439.52	4873.00
439.70	4896.40
439.89	5137.48
440.08	5228.76
440.26	5238.12
440.45	5308.34
440.63	5240.46
440.82	5338.76
441.01	5256.84
441.19	5238.12
441.38	5373.87
441.57	5404.30
441.75	5341.10
441.94	5476.85
442.12	5514.30
442.31	5659.42
442.50	5734.31
442.68	5467.49
442.87	5547.07
443.05	5668.78
443.24	5682.82
443.43	5802.19
443.61	5731.97
443.80	5774.10
443.98	5490.90
444.17	5472.17
444.35	5675.80
444.54	5755.38
444.73	5806.87
444.91	5792.83
445.10	5856.02
445.28	5706.23
445.47	5825.59
445.65	5832.62
445.84	5795.17
446.02	5942.62
446.21	6059.65
446.39	5987.09
446.58	6047.94
446.77	6040.92
446.95	5907.51
447.14	5994.11
447.32	5865.38
447.51	5935.60
447.69	5998.79
447.88	6134.54
448.06	6003.47
448.25	5900.49
448.43	6031.56
448.62	5961.34
448.80	5919.21
448.99	6132.20
449.17	6132.20
449.36	6061.99
449.54	6167.31
449.73	6190.72
449.91	6246.89
450.10	6249.23
450.28	6389.66
450.46	6408.39
450.65	6263.27
450.83	6370.94
451.02	6485.62
451.20	6349.87
451.39	6422.43
451.57	6331.15
451.76	6307.74
451.94	6553.50
452.13	6658.82
452.31	6457.54
452.49	6434.13
452.68	6525.41
452.86	6541.80
453.05	6686.91
453.23	6408.39
453.42	6572.22
453.60	6494.99
453.78	6719.68
453.97	6509.03
454.15	6569.88
454.34	6581.59
454.52	6703.29
454.70	6789.89
454.89	6953.73
455.07	6885.86
455.26	6892.88
455.44	6888.20
455.62	6974.80
455.81	6726.70
455.99	6927.99
456.17	6979.48
456.36	7056.72
456.54	7119.91
456.73	7117.57
456.91	7386.73
457.09	7243.96
457.28	7400.77
457.46	7131.61
457.64	7428.86
457.83	7412.48
458.01	7419.50
458.19	7454.61
458.38	7379.71
458.56	7496.74
458.74	7400.77
458.93	7363.33
459.11	7426.52
459.29	7548.23
459.48	7510.78
459.66	7611.42
459.84	7754.19
460.03	7709.72
460.21	7719.09
460.39	7798.66
460.57	7662.91
460.76	7695.68
460.94	7950.80
461.12	7836.11
461.31	7801.01
461.49	7847.82
461.67	7779.94
461.85	8156.77
462.04	7798.66
462.22	8542.96
462.40	8147.40
462.59	8219.96
462.77	8114.64
462.95	7782.28
463.13	7985.91
463.32	8035.06
463.50	8283.16
463.68	8119.32
463.86	8285.50
464.05	8077.19
464.23	8344.01
464.41	8404.86
464.59	8402.52
464.78	8374.44
464.96	8313.58
465.14	8449.33
465.32	8301.88
465.50	8348.69
465.69	8491.46
465.87	8475.08
466.05	8505.51
466.23	8496.14
466.41	8601.47
466.60	8585.08
466.78	8531.25
466.96	8517.21
467.14	8641.26
467.32	8697.43
467.51	8879.99
467.69	8667.00
467.87	8723.18
468.05	8709.13
468.23	8858.93
468.41	8678.71
468.60	8739.56
468.78	8912.76
468.96	8765.31
469.14	8805.10
469.32	9160.86
469.50	8952.55
469.69	9268.52
469.87	9259.16
470.05	8966.59
470.23	9076.60
470.41	9151.49
470.59	9226.39
470.77	9217.03
470.95	9259.16
471.14	9437.04
471.32	9139.79
471.50	9535.34
471.68	9549.39
471.86	9387.89
472.04	9682.80
472.22	9724.93
472.40	9525.98
472.58	9734.29
472.77	9750.67
472.95	9853.66
473.13	10181.33
473.31	9881.74
473.49	9933.23
473.67	9900.47
473.85	9989.41
474.03	10223.46
474.21	10122.82
474.39	10410.70
474.57	10417.72
474.75	10429.43
474.93	10483.26
475.12	10359.21
475.30	10450.49
475.48	10476.24
475.66	10630.71
475.84	10532.41
476.02	10956.05
476.20	10824.98
476.38	10998.18
476.56	10960.73
476.74	10974.77
476.92	11000.52
477.10	10958.39
477.28	11239.25
477.46	11164.36
477.64	11396.07
477.82	11452.24
478.00	11686.29
478.18	11920.35
478.36	12035.03
478.54	11997.59
478.72	11974.18
478.90	12262.07
479.08	12367.39
479.26	12257.39
479.44	12315.90
479.62	12262.07
479.80	12439.95
479.98	12727.83
480.16	12931.46
480.34	12746.56
480.52	13055.51
480.70	13006.36
480.88	13181.90
481.06	12915.08
481.24	12980.61
481.41	13303.60
481.59	13640.64
481.77	13568.09
481.95	13741.29
482.13	13591.49
482.31	13626.60
482.49	14061.94
482.67	14267.91
482.85	14146.20
483.03	14471.53
483.21	14562.81
483.39	14684.52
483.57	14682.18
483.74	14771.12
483.92	14808.57
484.10	14796.87
484.28	15136.24
484.46	15351.57
484.64	15482.64
484.82	15117.52
485.00	15686.27
485.18	15840.75
485.35	16027.99
485.53	16098.20
485.71	15819.68
485.89	16236.30
486.07	16276.09
486.25	16732.49
486.43	16695.04
486.61	16727.81
486.78	16950.16
486.96	17029.74
487.14	17205.28
487.32	17048.46
487.50	17434.65
487.68	17542.32
487.85	17706.15
488.03	17832.54
488.21	18052.55
488.39	18171.92
488.57	18012.76
488.75	18300.65
488.92	18633.00
489.10	18408.31
489.28	19101.11
489.46	18941.96
489.64	18902.17
489.81	19433.47
489.99	19417.08
490.17	19491.98
490.35	19730.72
490.53	19791.57
490.70	19807.95
490.88	19639.44
491.06	20219.89
491.24	20283.08
491.41	20423.51
491.59	20650.55
491.77	20486.71
491.95	20753.53
492.13	20870.56
492.30	20776.94
492.48	21025.03
492.66	21097.59
492.84	21291.85
493.01	21661.66
493.19	21420.58
493.37	21535.27
493.54	21855.92
493.72	21837.20
493.90	21933.16
494.08	22518.29
494.25	22551.06
494.43	22466.80
494.61	22492.55
494.79	22640.00
494.96	22501.91
495.14	22883.42
495.32	23152.58
495.49	23346.84
495.67	23562.17
495.85	23463.87
496.02	23590.26
496.20	23655.79
496.38	23784.52
496.55	24250.29
496.73	24484.34
496.91	24201.14
497.09	24446.90
497.26	24697.33
497.44	24517.11
497.62	24870.53
497.79	25076.50
497.97	24926.71
498.14	25394.81
498.32	25282.47
498.50	25312.89
498.67	25633.55
498.85	25387.79
499.03	26099.31
499.20	25879.30
499.38	25666.31
499.56	26267.83
499.73	26291.24
499.91	26408.26
500.08	26487.84
500.26	25965.90
500.44	26347.41
500.61	26843.60
500.79	26565.08
500.97	26696.15
501.14	27164.26
501.32	27040.21
501.49	26932.54
501.67	27225.11
501.84	27370.22
502.02	27218.09
502.20	27461.51
502.37	27751.73
502.55	27655.77
502.72	27974.08
502.90	27908.55
503.07	27765.78
503.25	28067.70
503.43	28325.16
503.60	28290.06
503.78	28093.45
503.95	28264.31
504.13	28432.83
504.30	28744.12
504.48	28959.45
504.65	29071.79
504.83	29170.10
505.01	29259.04
505.18	28893.91
505.36	29263.72
505.53	29488.41
505.71	29331.59
505.88	29411.17
506.06	29490.75
506.23	29818.42
506.41	29869.92
506.58	29933.11
506.76	29797.36
506.93	30080.56
507.11	29722.46
507.28	30054.82
507.46	30513.56
507.63	30132.06
507.81	30223.34
507.98	30572.08
508.16	30361.43
508.33	30855.28
508.50	30890.39
508.68	30773.36
508.85	31372.54
509.03	30803.79
509.20	31105.72
509.38	31264.88
509.55	31524.68
509.73	31601.91
509.90	31283.60
510.08	31466.16
510.25	32044.27
510.42	31555.10
510.60	31887.46
510.77	31920.23
510.95	32053.64
511.12	31999.80
511.30	32114.49
511.47	32364.93
511.64	32868.14
511.82	33034.32
511.99	32273.65
512.17	32786.22
512.34	32800.27
512.51	33104.54
512.69	33467.32
512.86	32828.35
513.04	33277.74
513.21	33113.90
513.38	33055.39
513.56	33542.22
513.73	33310.50
513.90	33624.14
514.08	33507.11
514.25	33888.62
514.43	33907.34
514.60	33979.90
514.77	33923.72
514.95	33940.11
515.12	33827.76
515.29	34010.32
515.47	34249.06
515.64	34703.12
515.81	34595.46
515.99	34672.70
516.16	34747.59
516.33	34595.46
516.51	35091.65
516.68	34485.45
516.85	34803.77
517.03	35204.00
517.20	35391.24
517.37	35061.22
517.54	35613.59
517.72	35218.04
517.89	35629.98
518.06	35147.82
518.24	35531.67
518.41	35292.94
518.58	36016.16
518.75	35831.26
518.93	35889.77
519.10	35606.57
519.27	36058.29
519.45	35562.10
519.62	36570.87
519.79	36472.57
519.96	36086.38
520.14	36514.70
520.31	36566.19
520.48	36524.06
520.65	36566.19
520.83	37186.43
521.00	36788.54
521.17	36996.85
521.34	36952.38
521.52	37223.88
521.69	37043.66
521.86	37303.46
522.03	37071.75
522.20	37109.19
522.38	37528.15
522.55	37455.59
522.72	37560.92
522.89	37916.68
523.07	37563.26
523.24	37546.87
523.41	37684.97
523.58	37483.68
523.75	38298.19
523.92	37993.92
524.10	38581.39
524.27	38309.89
524.44	38677.35
524.61	38857.57
524.78	38745.23
524.96	38473.73
525.13	38607.14
525.30	38841.19
525.47	39344.41
525.64	39328.02
525.81	39070.56
525.98	39030.77
526.16	38792.04
526.33	38920.77
526.50	39058.86
526.67	39173.55
526.84	39271.85
527.01	39548.03
527.18	39342.06
527.36	39885.07
527.53	39725.91
527.70	39395.90
527.87	39351.43
528.04	39651.02
528.21	40034.86
528.38	39988.05
528.55	40163.59
528.72	40140.19
528.89	40201.04
529.07	39859.32
529.24	39749.32
529.41	40105.08
529.58	39955.29
529.75	40257.21
529.92	40332.11
530.09	40685.53
530.26	40498.29
530.43	40369.56
530.60	40018.48
530.77	40140.19
530.94	40669.15
531.11	40863.41
531.28	40807.24
531.46	41233.22
531.63	41029.59
531.80	41202.79
531.97	40959.38
532.14	41165.34
532.31	40985.12
532.48	41715.37
532.65	41193.43
532.82	41684.94
532.99	41226.20
533.16	41500.04
533.33	41387.69
533.50	41715.37
533.67	41401.74
533.84	41729.41
534.01	41804.31
534.18	41848.78
534.35	41886.23
534.52	42045.38
534.69	41972.83
534.86	42319.23
535.03	41717.71
535.20	42061.77
535.37	42361.36
535.54	42642.22
535.71	42153.05
535.88	42377.74
536.05	42724.14
536.22	42284.12
536.38	42644.56
536.55	42146.03
536.72	42457.32
536.89	42251.35
537.06	42534.56
537.23	43124.37
537.40	42990.96
537.57	42665.63
537.74	42941.81
537.91	43484.81
538.08	42899.68
538.25	42607.11
538.42	42972.24
538.59	43267.14
538.75	43250.76
538.92	43803.13
539.09	43531.62
539.26	43487.15
539.43	43339.70
539.60	43737.59
539.77	43344.38
539.94	43452.05
540.11	43922.49
540.28	43915.47
540.44	43831.21
540.61	43856.96
540.78	43791.42
540.95	43782.06
541.12	44020.80
541.29	43725.89
541.46	43697.80
541.62	44037.18
541.79	44329.75
541.96	44116.76
542.13	44102.71
542.30	44313.36
542.47	44271.23
542.63	44687.85
542.80	44219.74
542.97	44432.73
543.14	45102.12
543.31	44598.91
543.48	44924.24
543.64	45368.94
543.81	45233.19
543.98	45235.53
544.15	45186.38
544.32	45205.11
544.48	45481.29
544.65	44832.96
544.82	45186.38
544.99	45352.56
545.16	45109.14
545.32	45720.02
545.49	46014.93
545.66	45937.69
545.83	45333.84
546.00	45546.82
546.16	45762.15
546.33	45715.34
546.50	45806.62
546.67	45963.44
546.83	45188.72
547.00	45460.23
547.17	45659.17
547.34	45116.17
547.50	45663.85
547.67	45951.74
547.84	45790.24
548.00	46117.92
548.17	46438.57
548.34	46209.20
548.51	46024.29
548.67	46052.38
548.84	46218.56
549.01	46073.45
549.18	46176.43
549.34	46265.37
549.51	46057.06
549.68	46602.41
549.84	46752.20
550.01	46501.76
550.18	46115.58
550.34	46511.13
550.51	46321.54
550.68	46660.92
550.84	46082.81
551.01	46700.71
551.18	46784.97
551.34	46394.10
551.51	46799.01
551.68	47035.41
551.84	46768.58
552.01	46447.93
552.18	46794.33
552.34	46651.56
552.51	46740.50
552.68	46686.67
552.84	47367.76
553.01	47423.93
553.18	47402.87
553.34	47351.38
553.51	47161.79
553.67	46974.55
553.84	46932.42
554.01	47262.44
554.17	47555.00
554.34	47562.03
554.51	47330.31
554.67	48121.41
554.84	47613.52
555.00	47494.15
555.17	47393.51
555.33	47325.63
555.50	47171.16
555.67	47089.24
555.83	47419.25
556.00	47540.96
556.16	48147.16
556.33	47964.60
556.50	47751.61
556.66	47964.60
556.83	47547.98
556.99	48081.63
557.16	47856.93
557.32	47842.89
557.49	48329.72
557.65	47903.74
557.82	48053.54
557.98	47983.32
558.15	48491.22
558.32	48301.64
558.48	47988.00
558.65	47765.65
558.81	47913.11
558.98	48289.93
559.14	48060.56
559.31	48088.65
559.47	48233.76
559.64	48540.37
559.80	48261.85
559.97	48608.25
560.13	47985.66
560.30	47929.49
560.46	48413.98
560.63	48229.08
560.79	48289.93
560.96	48416.32
561.12	48608.25
561.29	48760.38
561.45	48701.87
561.61	48774.42
561.78	48961.67
561.94	48474.84
562.11	48545.05
562.27	48638.67
562.44	48816.55
562.60	48294.61
562.77	48605.91
562.93	48973.37
563.10	48701.87
563.26	48704.21
563.42	48945.28
563.59	48460.79
563.75	48722.93
563.92	49219.13
564.08	48662.08
564.24	49174.66
564.41	48835.28
564.57	48919.54
564.74	48580.16
564.90	48769.74
565.07	49015.50
565.23	48884.43
565.39	48531.01
565.56	48811.87
565.72	49169.97
565.88	48964.01
566.05	49041.24
566.21	49134.87
566.38	49090.40
566.54	49069.33
566.70	49303.38
566.87	48900.81
567.03	48692.50
567.19	49064.65
567.36	48926.56
567.52	48961.67
567.68	49338.49
567.85	49125.50
568.01	49600.63
568.17	49427.43
568.34	48928.90
568.50	48952.30
568.66	49181.68
568.83	49113.80
568.99	48889.11
569.15	49106.78
569.32	49200.40
569.48	49340.83
569.64	49312.75
569.81	49242.53
569.97	49359.56
570.13	49418.07
570.30	48643.35
570.46	49476.58
570.62	48985.07
570.78	49308.07
570.95	49172.31
571.11	49715.32
571.27	49308.07
571.43	49773.83
571.60	49560.84
571.76	49153.59
571.92	49429.77
572.09	49069.33
572.25	49284.66
572.41	49188.70
572.57	49357.22
572.74	49790.22
572.90	49385.30
573.06	49528.08
573.22	49624.04
573.38	49710.64
573.55	49638.08
573.71	49516.37
573.87	49212.10
574.03	49425.09
574.20	49406.37
574.36	49605.31
574.52	49397.01
574.68	49595.95
574.84	49439.14
575.01	49350.20
575.17	49755.11
575.33	49514.03
575.49	49174.66
575.65	49694.25
575.82	49965.76
575.98	49565.52
576.14	49815.96
576.30	49834.69
576.46	49654.47
576.62	49670.85
576.79	49584.25
576.95	49647.44
577.11	49958.73
577.27	49705.96
577.43	49432.11
577.59	49401.69
577.75	49654.47
577.92	49443.82
578.08	49806.60
578.24	49731.70
578.40	49942.35
578.56	50080.44
578.72	49551.48
578.88	49858.09
579.04	49968.10
579.21	49701.28
579.37	49752.77
579.53	49635.74
579.69	49464.88
579.85	49972.78
580.01	49811.28
580.17	49792.56
580.33	49574.89
580.49	49457.86
580.65	49729.36
580.82	49682.55
580.98	49801.92
581.14	49499.99
581.30	50120.23
581.46	49708.30
581.62	50190.45
581.78	50078.10
581.94	50019.59
582.10	49764.47
582.26	49818.30
582.42	49563.18
582.58	49720.00
582.74	49808.94
582.90	49591.27
583.06	49862.77
583.22	49855.75
583.38	50234.92
583.54	50003.20
583.70	49942.35
583.86	50389.39
584.02	49820.64
584.18	49741.06
584.34	50373.01
584.50	50031.29
584.66	49778.51
584.82	49780.85
584.98	49759.79
585.14	50094.49
585.30	49837.03
585.46	50178.75
585.62	49841.71
585.78	49851.07
585.94	49832.35
586.10	49544.46
586.26	49822.98
586.42	49972.78
586.58	50005.55
586.74	49804.26
586.90	49736.38
587.06	50057.04
587.22	50164.70
587.38	50204.49
587.54	50307.47
587.70	50185.77
587.86	49954.05
588.02	49940.01
588.18	50007.89
588.34	49834.69
588.49	50216.19
588.65	50033.63
588.81	50145.98
588.97	50227.90
589.13	50094.49
589.29	50616.43
589.45	50358.97
589.61	50319.18
589.77	50115.55
589.93	50356.63
590.08	50185.77
590.24	50646.85
590.40	50188.11
590.56	50600.04
590.72	50398.76
590.88	50232.58
591.04	50239.60
591.20	50672.60
591.35	50424.50
591.51	50440.89
591.67	50227.90
591.83	50288.75
591.99	50272.37
592.15	50499.40
592.31	50457.27
592.46	50548.55
592.62	50450.25
592.78	50452.59
592.94	50625.79
593.10	50403.44
593.26	50616.43
593.41	50534.51
593.57	50255.98
593.73	50373.01
593.89	50426.84
594.05	50553.23
594.20	50546.21
594.36	50534.51
594.52	50349.60
594.68	50710.05
594.84	50564.93
594.99	50611.74
595.15	50513.44
595.31	50674.94
595.47	50656.21
595.62	50239.60
595.78	50328.54
595.94	50192.79
596.10	50220.87
596.25	50749.84
596.41	50696.00
596.57	51096.24
596.73	50913.67
596.88	50574.30
597.04	50571.96
597.20	50298.11
597.36	50417.48
597.51	50628.13
597.67	50358.97
597.83	50239.60
597.99	50616.43
598.14	50550.89
598.30	50759.20
598.46	50925.38
598.61	50803.67
598.77	50506.42
598.93	50759.20
599.09	50536.85
599.24	50653.87
599.40	50445.57
599.56	50649.19
599.71	50960.48
599.87	50986.23
600.03	50756.86
600.18	50721.75
600.34	50897.29
600.50	50747.50
600.65	50721.75
600.81	50749.84
600.97	50735.79
601.12	50546.21
601.28	50384.71
601.44	50670.26
601.59	50756.86
601.75	50782.60
601.91	50784.94
602.06	50611.74
602.22	51147.73
602.37	50974.53
602.53	50726.43
602.69	51023.68
602.84	50382.37
603.00	50480.67
603.16	50714.73
603.31	50412.80
603.47	50564.93
603.62	50461.95
603.78	51056.45
603.94	50866.86
604.09	50806.01
604.25	50733.45
604.40	50466.63
604.56	50506.42
604.71	50857.50
604.87	50192.79
605.03	50401.10
605.18	50806.01
605.34	50335.56
605.49	50747.50
605.65	50801.33
605.80	50747.50
605.96	50759.20
606.12	50871.54
606.27	50703.03
606.43	50497.06
606.58	50536.85
606.74	50578.98
606.89	50351.94
607.05	50445.57
607.20	50415.14
607.36	50288.75
607.51	50684.30
607.67	50686.64
607.82	50094.49
607.98	50749.84
608.13	50213.85
608.29	50658.56
608.44	50607.06
608.60	50358.97
608.75	50424.50
608.91	50281.73
609.06	49851.07
609.22	50295.77
609.37	50150.66
609.53	50445.57
609.68	50515.78
609.84	50216.19
609.99	50403.44
610.15	50134.28
610.30	49902.56
610.46	50225.56
610.61	50171.72
610.76	50040.65
610.92	49521.05
611.07	50134.28
611.23	50101.51
611.38	49956.39
611.54	50157.68
611.69	50466.63
611.84	50394.07
612.00	50237.26
612.15	50218.53
612.31	50417.48
612.46	49925.97
612.62	49888.52
612.77	50010.23
612.92	49951.71
613.08	50080.44
613.23	50267.69
613.39	49834.69
613.54	49750.43
613.69	49890.86
613.85	50000.86
614.00	50398.76
614.15	50106.19
614.31	50003.20
614.46	50277.05
614.62	49888.52
614.77	50089.80
614.92	50096.83
615.08	49954.05
615.23	49916.61
615.38	50361.31
615.54	49886.18
615.69	49860.43
615.84	49923.63
616.00	50089.80
616.15	49598.29
616.30	49874.48
616.46	49633.40
616.61	49680.21
616.76	49401.69
616.92	49167.63
617.07	49523.40
617.22	49116.14
617.37	49242.53
617.53	49654.47
617.68	49595.95
617.83	49951.71
617.99	49855.75
618.14	49406.37
618.29	49876.82
618.45	49305.73
618.60	49593.61
618.75	48935.92
618.90	48933.58
619.06	49099.76
619.21	49244.87
619.36	49411.05
619.51	49052.95
619.67	49287.00
619.82	49322.11
619.97	49144.23
620.12	48947.62
620.28	48905.49
620.43	48992.09
620.58	49031.88
620.73	49137.21
620.89	48673.78
621.04	49230.83
621.19	49064.65
621.34	49249.55
621.49	49015.50
621.65	49184.02
621.80	49394.67
621.95	48978.05
622.10	49111.46
622.25	48882.09
622.41	48825.92
622.56	48828.26
622.71	48736.98
622.86	48725.27
623.01	48774.42
623.16	49055.29
623.32	48945.28
623.47	48746.34
623.62	48996.77
623.77	48790.81
623.92	49083.37
624.07	48994.43
624.23	48790.81
624.38	48439.73
624.53	48690.16
624.68	49055.29
624.83	48711.23
624.98	48605.91
625.13	48360.15
625.29	48559.09
625.44	48552.07
625.59	48439.73
625.74	48526.33
625.89	48409.30
626.04	48561.44
626.19	48320.36
626.34	48444.41
626.49	47938.85
626.65	48268.87
626.80	48278.23
626.95	48376.53
627.10	47819.49
627.25	48680.80
627.40	48105.03
627.55	48189.29
627.70	47868.64
627.85	48573.14
628.00	48172.91
628.15	48006.73
628.30	47988.00
628.45	47997.37
628.60	47922.47
628.76	48112.05
628.91	47934.17
629.06	48198.65
629.21	48147.16
629.36	47784.38
629.51	47655.65
629.66	47936.51
629.81	48034.81
629.96	47779.70
630.11	47810.12
630.26	47643.94
630.41	47999.71
630.56	47770.33
630.71	47887.36
630.86	47737.57
631.01	47124.35
631.16	47445.00
631.31	47063.49
631.46	47157.11
631.61	47592.45
631.76	47435.64
631.91	47763.31
632.06	47414.57
632.21	47189.88
632.36	47714.16
632.51	47103.28
632.66	47040.09
632.81	46445.59
632.96	47194.56
633.10	47365.42
633.25	47334.99
633.40	47129.03
633.55	47356.06
633.70	47164.14
633.85	47248.39
634.00	46913.70
634.15	47143.07
634.30	47374.78
634.45	47391.17
634.60	47056.47
634.75	47168.82
634.90	47159.45
635.05	47044.77
635.19	47381.80
635.34	47054.13
635.49	47093.92
635.64	46927.74
635.79	46955.83
635.94	46887.95
636.09	46953.49
636.24	46930.08
636.39	47033.07
636.53	47026.04
636.68	46925.40
636.83	46471.34
636.98	46714.75
637.13	46604.75
637.28	46567.30
637.43	46536.87
637.57	46850.50
637.72	46396.44
637.87	46667.94
638.02	46597.73
638.17	46754.54
638.32	46611.77
638.46	46637.51
638.61	46504.10
638.76	46703.05
638.91	45996.21
639.06	46174.09
639.20	46157.70
639.35	46260.69
639.50	45652.15
639.65	45720.02
639.80	46665.60
639.94	46225.58
640.09	46197.49
640.24	46232.60
640.39	46461.97
640.54	46347.29
640.68	46209.20
640.83	46344.95
640.98	46043.02
641.13	45633.42
641.27	46171.75
641.42	45661.51
641.57	45560.87
641.72	45317.45
641.86	45595.98
642.01	45553.85
642.16	45855.78
642.31	46075.79
642.45	46059.40
642.60	45689.60
642.75	45666.19
642.90	45270.64
643.04	45535.12
643.19	45553.85
643.34	45256.60
643.48	45134.89
643.63	45207.45
643.78	45448.52
643.93	45764.49
644.07	45698.96
644.22	45148.93
644.37	45408.73
644.51	45057.65
644.66	45207.45
644.81	45532.78
644.95	45687.26
645.10	45385.33
645.25	45275.32
645.39	45104.46
645.54	45565.55
645.69	45415.76
645.83	45577.25
645.98	45120.85
646.13	44980.42
646.27	45366.60
646.42	44978.07
646.57	44949.99
646.71	44905.52
646.86	45364.26
647.00	45296.39
647.15	45345.54
647.30	44992.12
647.44	45181.70
647.59	45422.78
647.74	45282.34
647.88	45188.72
648.03	44926.58
648.17	44837.64
648.32	44809.56
648.47	45034.25
648.61	44444.43
648.76	45036.59
648.90	44744.02
649.05	44940.63
649.20	45076.38
649.34	45111.49
649.49	44896.16
649.63	44746.36
649.78	44926.58
649.92	44416.35
650.07	44839.98
650.21	44641.04
650.36	44376.56
650.51	44428.05
650.65	44521.67
650.80	44332.09
650.94	44428.05
651.09	44041.86
651.23	44282.94
651.38	44060.58
651.52	44091.01
651.67	44388.26
651.81	44329.75
651.96	44570.82
652.10	44224.42
652.25	44369.54
652.39	44346.13
652.54	44439.75
652.68	44289.96
652.83	44044.20
652.97	43941.22
653.12	44023.14
653.26	43590.14
653.41	43873.34
653.55	44051.22
653.70	44428.05
653.84	44804.88
653.99	44428.05
654.13	44053.56
654.27	44299.32
654.42	44140.16
654.56	43643.97
654.71	43482.47
654.85	43285.87
655.00	43419.28
655.14	43955.26
655.29	43395.87
655.43	44098.03
655.57	43597.16
655.72	43768.02
655.86	43934.20
656.01	43976.33
656.15	43449.70
656.30	43655.67
656.44	43295.23
656.58	43358.42
656.73	43306.93
656.87	42918.40
657.01	43430.98
657.16	43445.02
657.30	42817.76
657.45	42644.56
657.59	42663.28
657.73	42974.58
657.88	42815.42
658.02	43208.63
658.16	43131.39
658.31	43161.82
658.45	43049.47
658.60	43082.24
658.74	42937.13
658.88	42918.40
659.03	43400.55
659.17	42721.80
659.31	42792.01
659.46	42438.59
659.60	42625.84
659.74	42260.71
659.89	42906.70
660.03	42677.33
660.17	42862.23
660.32	42326.25
660.46	42775.63
660.60	42370.72
660.74	42555.62
660.89	42462.00
661.03	42066.45
661.17	42263.05
661.32	41603.02
661.46	41862.82
661.60	41713.03
661.74	41586.64
661.89	42040.70
662.03	41495.36
662.17	41827.71
662.31	41401.74
662.46	41935.38
662.60	41722.39
662.74	41748.14
662.88	41422.80
663.03	41895.59
663.17	41923.68
663.31	41698.98
663.45	41703.67
663.60	40914.90
663.74	41167.68
663.88	40730.00
664.02	40610.64
664.17	41123.21
664.31	41326.84
664.45	40755.75
664.59	41186.41
664.73	41085.76
664.88	41102.15
665.02	40409.35
665.16	41055.34
665.30	40954.69
665.44	41097.47
665.59	40563.82
665.73	40842.35
665.87	40573.19
666.01	40575.53
666.15	40322.75
666.29	40336.79
666.44	40620.00
666.58	40037.20
666.72	39833.58
666.86	40147.21
667.00	39927.20
667.14	39749.32
667.28	40041.88
667.43	39983.37
667.57	40531.06
667.71	40168.27
667.85	40395.31
667.99	39969.33
668.13	39765.70
668.27	39742.30
668.41	40376.58
668.56	39159.50
668.70	39384.19
668.84	39124.40
668.98	39440.37
669.12	39136.10
669.26	39208.65
669.40	39115.03
669.54	39166.52
669.68	39304.62
669.82	39154.82
669.96	39192.27
670.10	39112.69
670.25	39215.68
670.39	39168.87
670.53	38576.71
670.67	38675.01
670.81	39051.84
670.95	38508.83
671.09	38401.17
671.23	38342.66
671.37	37979.87
671.51	38017.32
671.65	37989.24
671.79	37766.88
671.93	38059.45
672.07	38515.86
672.21	38047.75
672.35	37755.18
672.49	38132.01
672.63	37904.98
672.77	37816.04
672.91	37874.55
673.05	37502.40
673.19	37720.07
673.33	37631.13
673.47	37851.14
673.61	37237.92
673.75	37167.71
673.89	37336.23
674.03	36912.59
674.17	36954.72
674.31	36966.42
674.45	36999.19
674.59	36814.29
674.73	37088.13
674.87	37067.06
675.01	36575.55
675.15	36751.09
675.29	36325.11
675.43	36652.79
675.56	36411.71
675.70	36432.78
675.84	36219.79
675.98	34848.24
676.12	35798.49
676.26	35978.72
676.40	35924.88
676.54	35690.83
676.68	35185.27
676.82	34888.03
676.96	35292.94
677.10	35290.60
677.23	35517.63
677.37	35278.89
677.51	35386.56
677.65	35016.75
677.79	34707.80
677.93	34960.58
678.07	34864.62
678.21	34199.91
678.34	34258.42
678.48	34396.51
678.62	34029.05
678.76	33802.02
678.90	33848.83
679.04	33799.68
679.18	33837.12
679.31	34162.46
679.45	33926.07
679.59	33834.78
679.73	33841.81
679.87	33888.62
680.00	33612.43
680.14	33336.25
680.28	33198.16
680.42	32863.46
680.56	32957.08
680.70	32718.35
680.83	32889.21
680.97	32182.37
681.11	32320.46
681.25	32238.54
681.39	32400.04
681.52	32430.46
681.66	32060.66
681.80	32107.47
681.94	32311.10
682.07	32348.54
682.21	32114.49
682.35	31803.20
682.49	31711.92
682.62	31255.51
682.76	31412.33
682.90	31140.83
683.04	31557.44
683.17	31388.92
683.31	30778.04
683.45	31356.16
683.59	31019.12
683.72	30204.61
683.86	30501.86
684.00	30298.23
684.13	30375.47
684.27	30513.56
684.41	30471.43
684.55	30576.76
684.68	30277.17
684.82	30225.68
684.96	30389.52
685.09	29706.08
685.23	29642.88
685.37	29818.42
685.50	29294.14
685.64	28929.02
685.78	29209.89
685.91	29184.14
686.05	29123.29
686.19	28584.96
686.32	28802.63
686.46	28793.27
686.60	28966.47
686.73	28886.89
686.87	28599.01
687.01	28587.30
687.14	28811.99
687.28	28807.31
687.42	28587.30
687.55	28505.38
687.69	28238.56
687.82	28140.26
687.96	28215.16
688.10	28158.99
688.23	27527.04
688.37	27903.87
688.50	27740.03
688.64	27522.36
688.78	27264.90
688.91	27295.33
689.05	27374.91
689.18	26822.54
689.32	26361.45
689.46	26628.27
689.59	26993.40
689.73	26974.67
689.86	26852.97
690.00	26618.91
690.13	26544.02
690.27	26342.73
690.41	26288.90
690.54	26436.35
690.68	26120.38
690.81	25813.77
690.95	25839.51
691.08	25579.71
691.22	25799.73
691.35	25692.06
691.49	25680.36
691.62	25568.01
691.76	25404.17
691.89	25221.61
692.03	25205.23
692.16	25263.74
692.30	25242.68
692.43	25383.11
692.57	25085.86
692.70	24510.09
692.84	24830.74
692.97	24833.08
693.11	24521.79
693.24	24187.10
693.38	24240.93
693.51	24196.46
693.65	24128.58
693.78	23833.68
693.92	24414.13
694.05	24013.90
694.19	24079.43
694.32	23601.96
694.45	23601.96
694.59	23957.72
694.72	23374.93
694.86	23524.72
694.99	23035.55
695.13	23239.18
695.26	23267.27
695.39	22984.06
695.53	23084.70
695.66	22735.96
695.80	22466.80
695.93	22377.86
696.07	22597.87
696.20	22373.18
696.33	22174.24
696.47	22106.36
696.60	22031.46
696.73	21862.94
696.87	21795.07
697.00	21970.61
697.14	21912.10
697.27	21488.46
697.40	21830.18
697.54	21736.56
697.67	21603.14
697.80	21493.14
697.94	21331.64
698.07	20922.05
698.21	20627.14
698.34	20987.58
698.47	20737.15
698.61	20210.53
698.74	20210.53
698.87	20821.41
699.01	20465.64
699.14	20425.86
699.27	20606.08
699.40	20144.99
699.54	20189.46
699.67	20175.42
699.80	20144.99
699.94	19985.83
700.07	19864.13
700.20	19826.68
700.34	19562.20
700.47	19903.92
700.60	19480.28
700.73	19866.47
700.87	19323.46
701.00	19208.78
701.13	19026.21
701.26	19058.98
701.40	18775.78
701.53	18700.88
701.66	18382.57
701.79	18466.83
701.93	18960.68
702.06	18483.21
702.19	18803.86
702.32	18862.38
702.46	18843.65
702.59	18455.12
702.72	18368.52
702.85	18370.86
702.99	18209.37
703.12	17860.63
703.25	17921.48
703.38	17570.40
703.51	17678.07
703.65	17357.41
703.78	17436.99
703.91	17369.12
704.04	17516.57
704.17	17224.00
704.31	17245.07
704.44	17158.47
704.57	17291.88
704.70	17128.04
704.83	16896.33
704.96	17158.47
705.10	16814.41
705.23	16849.52
>>>>>End Processed Spectral Data<<<<<
