SpectraSuite Data File
++++++++++++++++++++++++++++++++++++
Date: Fri Oct 04 11:39:59 GMT-05:00 2013
User: price-jones
Dark Spectrum Present: No
Reference Spectrum Present: No
Number of Sampled Component Spectra: 1
Spectrometers: USB2+H05261
Integration Time (usec): 100000 (USB2+H05261)
Spectra Averaged: 1 (USB2+H05261)
Boxcar Smoothing: 0 (USB2+H05261)
Correct for Electrical Dark: No (USB2+H05261)
Strobe/Lamp Enabled: No (USB2+H05261)
Correct for Detector Non-linearity: No (USB2+H05261)
Correct for Stray Light: No (USB2+H05261)
Number of Pixels in Processed Spectrum: 2048
>>>>>Begin Processed Spectral Data<<<<<
365.73	0.00
365.92	0.00
366.12	0.00
366.32	0.00
366.52	0.00
366.72	0.00
366.91	0.00
367.11	0.00
367.31	0.00
367.51	0.00
367.70	0.00
367.90	14.04
368.10	0.00
368.30	0.00
368.49	0.00
368.69	0.00
368.89	0.00
369.09	0.00
369.28	4.68
369.48	0.00
369.68	0.00
369.87	0.00
370.07	0.00
370.27	63.19
370.47	0.00
370.66	0.00
370.86	4.68
371.06	35.11
371.25	102.98
371.45	145.11
371.65	102.98
371.84	60.85
372.04	93.62
372.24	77.24
372.44	91.28
372.63	121.71
372.83	152.13
373.03	81.92
373.22	180.22
373.42	110.01
373.62	112.35
373.81	161.50
374.01	205.97
374.21	74.90
374.40	112.35
374.60	98.30
374.79	112.35
374.99	93.62
375.19	105.32
375.38	149.79
375.58	112.35
375.78	98.30
375.97	72.56
376.17	198.95
376.37	147.45
376.56	229.37
376.76	60.85
376.95	74.90
377.15	105.32
377.35	145.11
377.54	210.65
377.74	93.62
377.93	154.48
378.13	114.69
378.33	114.69
378.52	138.09
378.72	173.20
378.91	126.39
379.11	93.62
379.31	72.56
379.50	121.71
379.70	79.58
379.89	95.96
380.09	114.69
380.28	112.35
380.48	105.32
380.68	88.94
380.87	72.56
381.07	105.32
381.26	100.64
381.46	124.05
381.65	117.03
381.85	107.66
382.04	124.05
382.24	173.20
382.43	114.69
382.63	102.98
382.83	107.66
383.02	149.79
383.22	187.24
383.41	107.66
383.61	147.45
383.80	161.50
384.00	72.56
384.19	142.77
384.39	140.43
384.58	187.24
384.78	182.56
384.97	93.62
385.17	100.64
385.36	114.69
385.56	187.24
385.75	121.71
385.95	46.81
386.14	124.05
386.34	117.03
386.53	180.22
386.72	81.92
386.92	133.41
387.11	77.24
387.31	81.92
387.50	84.26
387.70	49.15
387.89	126.39
388.09	44.47
388.28	145.11
388.48	126.39
388.67	117.03
388.86	110.01
389.06	140.43
389.25	168.52
389.45	149.79
389.64	154.48
389.84	166.18
390.03	74.90
390.22	182.56
390.42	102.98
390.61	140.43
390.81	42.13
391.00	135.75
391.19	135.75
391.39	163.84
391.58	117.03
391.78	114.69
391.97	159.16
392.16	72.56
392.36	156.82
392.55	140.43
392.75	117.03
392.94	72.56
393.13	145.11
393.33	93.62
393.52	159.16
393.71	175.54
393.91	156.82
394.10	152.13
394.29	112.35
394.49	93.62
394.68	107.66
394.88	117.03
395.07	107.66
395.26	156.82
395.46	142.77
395.65	72.56
395.84	163.84
396.04	194.26
396.23	131.07
396.42	100.64
396.62	128.73
396.81	88.94
397.00	81.92
397.19	65.54
397.39	100.64
397.58	194.26
397.77	128.73
397.97	128.73
398.16	100.64
398.35	175.54
398.55	152.13
398.74	159.16
398.93	173.20
399.12	161.50
399.32	138.09
399.51	126.39
399.70	105.32
399.90	67.88
400.09	67.88
400.28	102.98
400.47	107.66
400.67	159.16
400.86	140.43
401.05	105.32
401.24	191.92
401.44	175.54
401.63	191.92
401.82	114.69
402.01	133.41
402.21	88.94
402.40	147.45
402.59	163.84
402.78	133.41
402.97	173.20
403.17	79.58
403.36	133.41
403.55	124.05
403.74	159.16
403.93	170.86
404.13	238.73
404.32	222.35
404.51	196.60
404.70	149.79
404.89	156.82
405.09	131.07
405.28	177.88
405.47	107.66
405.66	126.39
405.85	184.90
406.05	133.41
406.24	117.03
406.43	110.01
406.62	147.45
406.81	159.16
407.00	135.75
407.20	184.90
407.39	161.50
407.58	95.96
407.77	124.05
407.96	149.79
408.15	133.41
408.34	184.90
408.54	86.60
408.73	177.88
408.92	140.43
409.11	128.73
409.30	184.90
409.49	147.45
409.68	205.97
409.87	114.69
410.07	105.32
410.26	163.84
410.45	81.92
410.64	114.69
410.83	152.13
411.02	250.44
411.21	154.48
411.40	191.92
411.59	110.01
411.78	145.11
411.98	159.16
412.17	152.13
412.36	217.67
412.55	107.66
412.74	163.84
412.93	135.75
413.12	180.22
413.31	163.84
413.50	198.95
413.69	170.86
413.88	147.45
414.07	128.73
414.26	140.43
414.45	119.37
414.64	182.56
414.83	140.43
415.02	138.09
415.22	93.62
415.41	173.20
415.60	149.79
415.79	210.65
415.98	149.79
416.17	180.22
416.36	224.69
416.55	163.84
416.74	163.84
416.93	229.37
417.12	161.50
417.31	154.48
417.50	131.07
417.69	224.69
417.88	102.98
418.07	100.64
418.26	86.60
418.45	184.90
418.64	182.56
418.83	128.73
419.02	166.18
419.21	229.37
419.39	184.90
419.58	121.71
419.77	152.13
419.96	234.05
420.15	229.37
420.34	135.75
420.53	191.92
420.72	229.37
420.91	152.13
421.10	147.45
421.29	194.26
421.48	168.52
421.67	215.33
421.86	212.99
422.05	163.84
422.24	98.30
422.43	135.75
422.61	177.88
422.80	110.01
422.99	168.52
423.18	152.13
423.37	163.84
423.56	112.35
423.75	112.35
423.94	145.11
424.13	166.18
424.32	147.45
424.50	147.45
424.69	133.41
424.88	112.35
425.07	163.84
425.26	205.97
425.45	170.86
425.64	238.73
425.83	166.18
426.01	201.29
426.20	229.37
426.39	187.24
426.58	102.98
426.77	177.88
426.96	236.39
427.15	159.16
427.33	180.22
427.52	159.16
427.71	156.82
427.90	217.67
428.09	234.05
428.28	138.09
428.46	152.13
428.65	142.77
428.84	156.82
429.03	191.92
429.22	128.73
429.40	194.26
429.59	187.24
429.78	222.35
429.97	166.18
430.16	177.88
430.34	147.45
430.53	210.65
430.72	142.77
430.91	191.92
431.10	140.43
431.28	236.39
431.47	177.88
431.66	138.09
431.85	163.84
432.03	119.37
432.22	236.39
432.41	145.11
432.60	203.63
432.79	168.52
432.97	91.28
433.16	191.92
433.35	168.52
433.54	166.18
433.72	152.13
433.91	224.69
434.10	170.86
434.28	189.58
434.47	154.48
434.66	166.18
434.85	189.58
435.03	252.78
435.22	554.71
435.41	882.38
435.59	880.04
435.78	713.86
435.97	346.40
436.16	257.46
436.34	250.44
436.53	194.26
436.72	189.58
436.90	203.63
437.09	205.97
437.28	184.90
437.46	145.11
437.65	205.97
437.84	154.48
438.02	194.26
438.21	236.39
438.40	203.63
438.58	156.82
438.77	182.56
438.96	159.16
439.14	140.43
439.33	215.33
439.52	215.33
439.70	170.86
439.89	173.20
440.08	252.78
440.26	168.52
440.45	304.27
440.63	264.48
440.82	140.43
441.01	191.92
441.19	191.92
441.38	196.60
441.57	215.33
441.75	222.35
441.94	191.92
442.12	187.24
442.31	182.56
442.50	156.82
442.68	243.42
442.87	238.73
443.05	208.31
443.24	194.26
443.43	234.05
443.61	220.01
443.80	142.77
443.98	170.86
444.17	217.67
444.35	215.33
444.54	252.78
444.73	203.63
444.91	159.16
445.10	156.82
445.28	241.08
445.47	217.67
445.65	194.26
445.84	182.56
446.02	168.52
446.21	212.99
446.39	152.13
446.58	212.99
446.77	170.86
446.95	238.73
447.14	142.77
447.32	236.39
447.51	180.22
447.69	234.05
447.88	203.63
448.06	224.69
448.25	184.90
448.43	205.97
448.62	252.78
448.80	241.08
448.99	170.86
449.17	222.35
449.36	264.48
449.54	241.08
449.73	168.52
449.91	229.37
450.10	198.95
450.28	299.59
450.46	234.05
450.65	170.86
450.83	201.29
451.02	241.08
451.20	283.20
451.39	238.73
451.57	163.84
451.76	236.39
451.94	227.03
452.13	189.58
452.31	311.29
452.49	276.18
452.68	133.41
452.86	220.01
453.05	245.76
453.23	292.57
453.42	229.37
453.60	250.44
453.78	220.01
453.97	177.88
454.15	173.20
454.34	182.56
454.52	189.58
454.70	259.80
454.89	198.95
455.07	201.29
455.26	290.23
455.44	152.13
455.62	203.63
455.81	271.50
455.99	243.42
456.17	224.69
456.36	196.60
456.54	208.31
456.73	241.08
456.91	210.65
457.09	208.31
457.28	196.60
457.46	273.84
457.64	248.10
457.83	220.01
458.01	250.44
458.19	205.97
458.38	201.29
458.56	220.01
458.74	203.63
458.93	243.42
459.11	194.26
459.29	145.11
459.48	194.26
459.66	304.27
459.84	264.48
460.03	304.27
460.21	229.37
460.39	220.01
460.57	241.08
460.76	227.03
460.94	245.76
461.12	308.95
461.31	203.63
461.49	227.03
461.67	234.05
461.85	236.39
462.04	269.16
462.22	634.29
462.40	189.58
462.59	163.84
462.77	187.24
462.95	138.09
463.13	124.05
463.32	252.78
463.50	264.48
463.68	194.26
463.86	100.64
464.05	215.33
464.23	201.29
464.41	215.33
464.59	217.67
464.78	271.50
464.96	292.57
465.14	236.39
465.32	236.39
465.50	278.52
465.69	280.86
465.87	252.78
466.05	245.76
466.23	203.63
466.41	201.29
466.60	234.05
466.78	191.92
466.96	325.33
467.14	222.35
467.32	215.33
467.51	187.24
467.69	271.50
467.87	269.16
468.05	236.39
468.23	255.12
468.41	236.39
468.60	257.46
468.78	245.76
468.96	212.99
469.14	257.46
469.32	191.92
469.50	212.99
469.69	252.78
469.87	245.76
470.05	252.78
470.23	227.03
470.41	210.65
470.59	271.50
470.77	168.52
470.95	245.76
471.14	234.05
471.32	212.99
471.50	280.86
471.68	245.76
471.86	170.86
472.04	238.73
472.22	250.44
472.40	269.16
472.58	238.73
472.77	203.63
472.95	276.18
473.13	297.25
473.31	320.65
473.49	283.20
473.67	271.50
473.85	252.78
474.03	301.93
474.21	241.08
474.39	311.29
474.57	215.33
474.75	238.73
474.93	220.01
475.12	238.73
475.30	203.63
475.48	241.08
475.66	231.71
475.84	194.26
476.02	177.88
476.20	308.95
476.38	259.80
476.56	367.46
476.74	276.18
476.92	215.33
477.10	262.14
477.28	182.56
477.46	224.69
477.64	290.23
477.82	269.16
478.00	243.42
478.18	243.42
478.36	255.12
478.54	191.92
478.72	259.80
478.90	283.20
479.08	245.76
479.26	215.33
479.44	327.68
479.62	262.14
479.80	292.57
479.98	257.46
480.16	278.52
480.34	220.01
480.52	257.46
480.70	273.84
480.88	229.37
481.06	315.97
481.24	264.48
481.41	372.15
481.59	337.04
481.77	285.55
481.95	313.63
482.13	313.63
482.31	250.44
482.49	285.55
482.67	318.31
482.85	337.04
483.03	301.93
483.21	341.72
483.39	348.74
483.57	276.18
483.74	383.85
483.92	299.59
484.10	306.61
484.28	341.72
484.46	383.85
484.64	320.65
484.82	369.80
485.00	372.15
485.18	365.12
485.35	376.83
485.53	367.46
485.71	372.15
485.89	339.38
486.07	355.76
486.25	425.98
486.43	402.57
486.61	379.17
486.78	421.30
486.96	313.63
487.14	330.02
487.32	409.59
487.50	322.99
487.68	418.96
487.85	337.04
488.03	440.02
488.21	407.25
488.39	372.15
488.57	400.23
488.75	360.44
488.92	664.71
489.10	463.43
489.28	416.62
489.46	397.89
489.64	353.42
489.81	425.98
489.99	470.45
490.17	430.66
490.35	456.40
490.53	437.68
490.70	404.91
490.88	430.66
491.06	355.76
491.24	440.02
491.41	444.70
491.59	341.72
491.77	381.51
491.95	369.80
492.13	397.89
492.30	365.12
492.48	456.40
492.66	409.59
492.84	320.65
493.01	395.55
493.19	411.93
493.37	414.27
493.54	337.04
493.72	355.76
493.90	454.06
494.08	379.17
494.25	369.80
494.43	360.44
494.61	456.40
494.79	365.12
494.96	416.62
495.14	519.60
495.32	386.19
495.49	418.96
495.67	433.00
495.85	416.62
496.02	355.76
496.20	421.30
496.38	442.36
496.55	367.46
496.73	362.78
496.91	383.85
497.09	456.40
497.26	388.53
497.44	334.70
497.62	428.32
497.79	372.15
497.97	428.32
498.14	454.06
498.32	337.04
498.50	395.55
498.67	407.25
498.85	416.62
499.03	458.74
499.20	458.74
499.38	292.57
499.56	458.74
499.73	395.55
499.91	402.57
500.08	400.23
500.26	442.36
500.44	376.83
500.61	388.53
500.79	423.64
500.97	414.27
501.14	428.32
501.32	395.55
501.49	477.47
501.67	379.17
501.84	374.49
502.02	297.25
502.20	437.68
502.37	360.44
502.55	367.46
502.72	402.57
502.90	425.98
503.07	416.62
503.25	425.98
503.43	339.38
503.60	423.64
503.78	369.80
503.95	367.46
504.13	369.80
504.30	416.62
504.48	367.46
504.65	449.38
504.83	451.72
505.01	411.93
505.18	388.53
505.36	395.55
505.53	411.93
505.71	393.21
505.88	470.45
506.06	404.91
506.23	379.17
506.41	395.55
506.58	381.51
506.76	402.57
506.93	372.15
507.11	379.17
507.28	362.78
507.46	339.38
507.63	339.38
507.81	421.30
507.98	442.36
508.16	386.19
508.33	514.92
508.50	468.11
508.68	421.30
508.85	400.23
509.03	337.04
509.20	421.30
509.38	454.06
509.55	442.36
509.73	512.58
509.90	491.51
510.08	301.93
510.25	386.19
510.42	491.51
510.60	362.78
510.77	442.36
510.95	418.96
511.12	402.57
511.30	491.51
511.47	447.04
511.64	400.23
511.82	416.62
511.99	397.89
512.17	456.40
512.34	409.59
512.51	372.15
512.69	465.77
512.86	404.91
513.04	414.27
513.21	416.62
513.38	456.40
513.56	461.09
513.73	447.04
513.90	372.15
514.08	386.19
514.25	430.66
514.43	390.87
514.60	308.95
514.77	388.53
514.95	407.25
515.12	411.93
515.29	428.32
515.47	407.25
515.64	423.64
515.81	428.32
515.99	571.09
516.16	407.25
516.33	397.89
516.51	442.36
516.68	430.66
516.85	465.77
517.03	442.36
517.20	496.19
517.37	491.51
517.54	514.92
517.72	430.66
517.89	402.57
518.06	458.74
518.24	512.58
518.41	386.19
518.58	477.47
518.75	463.43
518.93	475.13
519.10	454.06
519.27	454.06
519.45	449.38
519.62	456.40
519.79	407.25
519.96	376.83
520.14	484.49
520.31	463.43
520.48	468.11
520.65	451.72
520.83	407.25
521.00	376.83
521.17	444.70
521.34	465.77
521.52	409.59
521.69	468.11
521.86	393.21
522.03	491.51
522.20	470.45
522.38	498.53
522.55	414.27
522.72	435.34
522.89	472.79
523.07	533.64
523.24	418.96
523.41	472.79
523.58	435.34
523.75	414.27
523.92	484.49
524.10	337.04
524.27	500.87
524.44	418.96
524.61	454.06
524.78	503.22
524.96	498.53
525.13	407.25
525.30	547.69
525.47	470.45
525.64	440.02
525.81	470.45
525.98	421.30
526.16	489.17
526.33	395.55
526.50	491.51
526.67	423.64
526.84	512.58
527.01	437.68
527.18	475.13
527.36	421.30
527.53	468.11
527.70	477.47
527.87	472.79
528.04	531.30
528.21	510.24
528.38	435.34
528.55	444.70
528.72	484.49
528.89	477.47
529.07	545.34
529.24	507.90
529.41	458.74
529.58	512.58
529.75	484.49
529.92	463.43
530.09	475.13
530.26	493.85
530.43	489.17
530.60	533.64
530.77	491.51
530.94	524.28
531.11	461.09
531.28	454.06
531.46	428.32
531.63	512.58
531.80	430.66
531.97	468.11
532.14	552.37
532.31	543.00
532.48	482.15
532.65	599.18
532.82	538.32
532.99	528.96
533.16	475.13
533.33	528.96
533.50	440.02
533.67	477.47
533.84	554.71
534.01	498.53
534.18	468.11
534.35	517.26
534.52	503.22
534.69	491.51
534.86	521.94
535.03	500.87
535.20	400.23
535.37	566.41
535.54	521.94
535.71	545.34
535.88	552.37
536.05	447.04
536.22	524.28
536.38	472.79
536.55	543.00
536.72	568.75
536.89	514.92
537.06	564.07
537.23	580.45
537.40	573.43
537.57	540.66
537.74	648.33
537.91	578.11
538.08	468.11
538.25	587.47
538.42	585.13
538.59	601.52
538.75	571.09
538.92	573.43
539.09	643.65
539.26	685.78
539.43	699.82
539.60	702.16
539.77	718.54
539.94	676.41
540.11	692.80
540.28	739.61
540.44	805.14
540.61	915.15
540.78	929.19
540.95	1029.84
541.12	1104.73
541.29	1055.58
541.46	1200.69
541.62	1184.31
541.79	1146.86
541.96	1090.69
542.13	1095.37
542.30	1132.82
542.47	1118.78
542.63	1104.73
542.80	1074.31
542.97	1116.44
543.14	1086.01
543.31	1069.62
543.48	1193.67
543.64	1184.31
543.81	1064.94
543.98	1188.99
544.15	1093.03
544.32	1062.60
544.48	1029.84
544.65	1015.79
544.82	999.41
544.99	1039.20
545.16	1029.84
545.32	1146.86
545.49	1544.75
545.66	2099.46
545.83	2251.60
546.00	2155.63
546.16	1638.38
546.33	1263.89
546.50	1093.03
546.67	1001.75
546.83	828.55
547.00	905.79
547.17	842.59
547.34	774.72
547.50	802.80
547.67	819.19
547.84	800.46
548.00	847.27
548.17	800.46
548.34	828.55
548.51	786.42
548.67	746.63
548.84	748.97
549.01	772.38
549.18	800.46
549.34	791.10
549.51	723.23
549.68	674.07
549.84	723.23
550.01	695.14
550.18	744.29
550.34	758.33
550.51	704.50
550.68	653.01
550.84	650.67
551.01	641.31
551.18	645.99
551.34	653.01
551.51	653.01
551.68	617.90
551.84	643.65
552.01	550.03
552.18	594.50
552.34	592.16
552.51	594.50
552.68	554.71
552.84	571.09
553.01	608.54
553.18	660.03
553.34	641.31
553.51	603.86
553.67	578.11
553.84	592.16
554.01	592.16
554.17	568.75
554.34	491.51
554.51	575.77
554.67	550.03
554.84	552.37
555.00	475.13
555.17	472.79
555.33	500.87
555.50	496.19
555.67	641.31
555.83	475.13
556.00	491.51
556.16	655.35
556.33	578.11
556.50	526.62
556.66	447.04
556.83	543.00
556.99	559.39
557.16	559.39
557.32	493.85
557.49	463.43
557.65	479.81
557.82	482.15
557.98	477.47
558.15	449.38
558.32	503.22
558.48	482.15
558.65	528.96
558.81	496.19
558.98	475.13
559.14	571.09
559.31	486.83
559.47	578.11
559.64	498.53
559.80	510.24
559.97	512.58
560.13	505.56
560.30	479.81
560.46	496.19
560.63	477.47
560.79	517.26
560.96	468.11
561.12	528.96
561.29	447.04
561.45	423.64
561.61	489.17
561.78	524.28
561.94	540.66
562.11	491.51
562.27	498.53
562.44	482.15
562.60	566.41
562.77	402.57
562.93	606.20
563.10	505.56
563.26	447.04
563.42	568.75
563.59	477.47
563.75	475.13
563.92	491.51
564.08	521.94
564.24	545.34
564.41	608.54
564.57	543.00
564.74	454.06
564.90	458.74
565.07	507.90
565.23	500.87
565.39	477.47
565.56	517.26
565.72	461.09
565.88	477.47
566.05	554.71
566.21	496.19
566.38	397.89
566.54	510.24
566.70	528.96
566.87	400.23
567.03	461.09
567.19	475.13
567.36	472.79
567.52	505.56
567.68	477.47
567.85	533.64
568.01	500.87
568.17	489.17
568.34	444.70
568.50	594.50
568.66	454.06
568.83	620.24
568.99	451.72
569.15	465.77
569.32	442.36
569.48	472.79
569.64	535.98
569.81	430.66
569.97	486.83
570.13	552.37
570.30	440.02
570.46	498.53
570.62	449.38
570.78	440.02
570.95	477.47
571.11	437.68
571.27	519.60
571.43	388.53
571.60	491.51
571.76	447.04
571.92	418.96
572.09	465.77
572.25	526.62
572.41	461.09
572.57	447.04
572.74	477.47
572.90	451.72
573.06	479.81
573.22	489.17
573.38	519.60
573.55	514.92
573.71	557.05
573.87	484.49
574.03	514.92
574.20	512.58
574.36	620.24
574.52	465.77
574.68	500.87
574.84	550.03
575.01	444.70
575.17	491.51
575.33	505.56
575.49	463.43
575.65	510.24
575.82	507.90
575.98	540.66
576.14	514.92
576.30	482.15
576.46	706.84
576.62	777.06
576.79	863.66
576.95	791.10
577.11	629.60
577.27	638.97
577.43	538.32
577.59	531.30
577.75	589.82
577.92	512.58
578.08	496.19
578.24	526.62
578.40	531.30
578.56	662.37
578.72	706.84
578.88	812.17
579.04	823.87
579.21	575.77
579.37	547.69
579.53	538.32
579.69	599.18
579.85	498.53
580.01	660.03
580.17	575.77
580.33	585.13
580.49	589.82
580.65	648.33
580.82	561.73
580.98	491.51
581.14	472.79
581.30	620.24
581.46	585.13
581.62	601.52
581.78	535.98
581.94	571.09
582.10	594.50
582.26	608.54
582.42	580.45
582.58	578.11
582.74	634.29
582.90	631.94
583.06	645.99
583.22	624.92
583.38	568.75
583.54	634.29
583.70	582.79
583.86	587.47
584.02	592.16
584.18	634.29
584.34	554.71
584.50	650.67
584.66	634.29
584.82	571.09
584.98	594.50
585.14	561.73
585.30	629.60
585.46	568.75
585.62	543.00
585.78	561.73
585.94	620.24
586.10	669.39
586.26	514.92
586.42	571.09
586.58	671.73
586.74	594.50
586.90	704.50
587.06	681.10
587.22	730.25
587.38	704.50
587.54	613.22
587.70	592.16
587.86	629.60
588.02	594.50
588.18	592.16
588.34	547.69
588.49	498.53
588.65	505.56
588.81	500.87
588.97	514.92
589.13	540.66
589.29	477.47
589.45	617.90
589.61	540.66
589.77	571.09
589.93	552.37
590.08	578.11
590.24	545.34
590.40	589.82
590.56	535.98
590.72	631.94
590.88	500.87
591.04	608.54
591.20	627.26
591.35	507.90
591.51	582.79
591.67	596.84
591.83	545.34
591.99	540.66
592.15	566.41
592.31	582.79
592.46	585.13
592.62	603.86
592.78	650.67
592.94	704.50
593.10	638.97
593.26	685.78
593.41	596.84
593.57	531.30
593.73	566.41
593.89	554.71
594.05	571.09
594.20	503.22
594.36	543.00
594.52	505.56
594.68	489.17
594.84	519.60
594.99	528.96
595.15	496.19
595.31	543.00
595.47	580.45
595.62	507.90
595.78	543.00
595.94	568.75
596.10	486.83
596.25	617.90
596.41	554.71
596.57	433.00
596.73	512.58
596.88	535.98
597.04	472.79
597.20	540.66
597.36	440.02
597.51	493.85
597.67	491.51
597.83	524.28
597.99	526.62
598.14	543.00
598.30	582.79
598.46	547.69
598.61	601.52
598.77	592.16
598.93	585.13
599.09	585.13
599.24	564.07
599.40	578.11
599.56	615.56
599.71	582.79
599.87	538.32
600.03	514.92
600.18	475.13
600.34	514.92
600.50	543.00
600.65	493.85
600.81	575.77
600.97	479.81
601.12	507.90
601.28	526.62
601.44	451.72
601.59	440.02
601.75	526.62
601.91	564.07
602.06	435.34
602.22	496.19
602.37	482.15
602.53	435.34
602.69	540.66
602.84	400.23
603.00	470.45
603.16	575.77
603.31	503.22
603.47	393.21
603.62	458.74
603.78	477.47
603.94	507.90
604.09	470.45
604.25	559.39
604.40	608.54
604.56	468.11
604.71	409.59
604.87	491.51
605.03	479.81
605.18	482.15
605.34	573.43
605.49	461.09
605.65	496.19
605.80	510.24
605.96	510.24
606.12	507.90
606.27	477.47
606.43	442.36
606.58	503.22
606.74	484.49
606.89	503.22
607.05	564.07
607.20	470.45
607.36	601.52
607.51	472.79
607.67	531.30
607.82	526.62
607.98	521.94
608.13	594.50
608.29	627.26
608.44	620.24
608.60	622.58
608.75	603.86
608.91	531.30
609.06	622.58
609.22	648.33
609.37	741.95
609.53	695.14
609.68	819.19
609.84	779.40
609.99	842.59
610.15	961.96
610.30	1123.46
610.46	1221.76
610.61	1453.47
610.76	1783.49
610.92	1952.01
611.07	2221.17
611.23	2363.94
611.38	2113.50
611.54	1806.89
611.69	1605.61
611.84	1479.22
612.00	1254.53
612.15	1158.57
612.31	1090.69
612.46	971.32
612.62	964.30
612.77	952.60
612.92	992.39
613.08	898.77
613.23	875.36
613.39	844.93
613.54	805.14
613.69	812.17
613.85	791.10
614.00	858.98
614.15	781.74
614.31	842.59
614.46	884.72
614.62	798.12
614.77	828.55
614.92	699.82
615.08	720.88
615.23	683.44
615.38	660.03
615.54	713.86
615.69	564.07
615.84	543.00
616.00	580.45
616.15	496.19
616.30	585.13
616.46	531.30
616.61	407.25
616.76	596.84
616.92	519.60
617.07	535.98
617.22	571.09
617.37	535.98
617.53	533.64
617.68	388.53
617.83	493.85
617.99	594.50
618.14	496.19
618.29	582.79
618.45	521.94
618.60	500.87
618.75	507.90
618.90	489.17
619.06	505.56
619.21	552.37
619.36	655.35
619.51	564.07
619.67	587.47
619.82	500.87
619.97	557.05
620.12	594.50
620.28	543.00
620.43	564.07
620.58	566.41
620.73	559.39
620.89	535.98
621.04	451.72
621.19	531.30
621.34	594.50
621.49	465.77
621.65	482.15
621.80	489.17
621.95	552.37
622.10	592.16
622.25	540.66
622.41	486.83
622.56	505.56
622.71	510.24
622.86	587.47
623.01	559.39
623.16	526.62
623.32	496.19
623.47	554.71
623.62	610.88
623.77	601.52
623.92	470.45
624.07	519.60
624.23	507.90
624.38	505.56
624.53	521.94
624.68	519.60
624.83	524.28
624.98	535.98
625.13	552.37
625.29	451.72
625.44	435.34
625.59	493.85
625.74	486.83
625.89	540.66
626.04	437.68
626.19	503.22
626.34	512.58
626.49	496.19
626.65	514.92
626.80	517.26
626.95	545.34
627.10	533.64
627.25	447.04
627.40	470.45
627.55	486.83
627.70	531.30
627.85	531.30
628.00	500.87
628.15	442.36
628.30	524.28
628.45	435.34
628.60	472.79
628.76	435.34
628.91	475.13
629.06	465.77
629.21	510.24
629.36	533.64
629.51	482.15
629.66	540.66
629.81	538.32
629.96	505.56
630.11	564.07
630.26	524.28
630.41	575.77
630.56	566.41
630.71	566.41
630.86	596.84
631.01	585.13
631.16	610.88
631.31	585.13
631.46	594.50
631.61	517.26
631.76	442.36
631.91	383.85
632.06	489.17
632.21	425.98
632.36	430.66
632.51	449.38
632.66	510.24
632.81	430.66
632.96	395.55
633.10	418.96
633.25	484.49
633.40	421.30
633.55	451.72
633.70	416.62
633.85	428.32
634.00	353.42
634.15	470.45
634.30	479.81
634.45	437.68
634.60	383.85
634.75	407.25
634.90	351.08
635.05	411.93
635.19	374.49
635.34	397.89
635.49	430.66
635.64	381.51
635.79	337.04
635.94	402.57
636.09	409.59
636.24	451.72
636.39	390.87
636.53	362.78
636.68	421.30
636.83	435.34
636.98	475.13
637.13	437.68
637.28	369.80
637.43	468.11
637.57	367.46
637.72	308.95
637.87	437.68
638.02	400.23
638.17	332.36
638.32	407.25
638.46	418.96
638.61	395.55
638.76	421.30
638.91	285.55
639.06	346.40
639.20	369.80
639.35	351.08
639.50	451.72
639.65	400.23
639.80	341.72
639.94	423.64
640.09	409.59
640.24	433.00
640.39	451.72
640.54	421.30
640.68	379.17
640.83	437.68
640.98	479.81
641.13	341.72
641.27	376.83
641.42	402.57
641.57	437.68
641.72	393.21
641.86	346.40
642.01	353.42
642.16	416.62
642.31	339.38
642.45	407.25
642.60	454.06
642.75	416.62
642.90	390.87
643.04	353.42
643.19	351.08
643.34	318.31
643.48	400.23
643.63	409.59
643.78	334.70
643.93	369.80
644.07	461.09
644.22	390.87
644.37	409.59
644.51	379.17
644.66	388.53
644.81	313.63
644.95	421.30
645.10	437.68
645.25	482.15
645.39	390.87
645.54	346.40
645.69	463.43
645.83	365.12
645.98	454.06
646.13	397.89
646.27	381.51
646.42	308.95
646.57	397.89
646.71	416.62
646.86	372.15
647.00	383.85
647.15	379.17
647.30	379.17
647.44	311.29
647.59	365.12
647.74	381.51
647.88	360.44
648.03	278.52
648.17	348.74
648.32	360.44
648.47	362.78
648.61	355.76
648.76	388.53
648.90	362.78
649.05	383.85
649.20	348.74
649.34	374.49
649.49	435.34
649.63	372.15
649.78	367.46
649.92	411.93
650.07	381.51
650.21	397.89
650.36	409.59
650.51	306.61
650.65	475.13
650.80	416.62
650.94	379.17
651.09	360.44
651.23	367.46
651.38	379.17
651.52	367.46
651.67	397.89
651.81	388.53
651.96	514.92
652.10	475.13
652.25	442.36
652.39	379.17
652.54	332.36
652.68	327.68
652.83	416.62
652.97	418.96
653.12	383.85
653.26	409.59
653.41	383.85
653.55	433.00
653.70	287.89
653.84	339.38
653.99	393.21
654.13	437.68
654.27	425.98
654.42	409.59
654.56	355.76
654.71	351.08
654.85	397.89
655.00	315.97
655.14	313.63
655.29	388.53
655.43	362.78
655.57	320.65
655.72	341.72
655.86	379.17
656.01	428.32
656.15	318.31
656.30	416.62
656.44	337.04
656.58	320.65
656.73	374.49
656.87	390.87
657.01	383.85
657.16	393.21
657.30	393.21
657.45	461.09
657.59	271.50
657.73	348.74
657.88	362.78
658.02	386.19
658.16	297.25
658.31	315.97
658.45	393.21
658.60	294.91
658.74	332.36
658.88	259.80
659.03	374.49
659.17	311.29
659.31	334.70
659.46	341.72
659.60	358.10
659.74	325.33
659.89	421.30
660.03	351.08
660.17	383.85
660.32	308.95
660.46	353.42
660.60	339.38
660.74	304.27
660.89	344.06
661.03	318.31
661.17	348.74
661.32	285.55
661.46	294.91
661.60	348.74
661.74	320.65
661.89	341.72
662.03	402.57
662.17	360.44
662.31	369.80
662.46	311.29
662.60	348.74
662.74	367.46
662.88	477.47
663.03	374.49
663.17	369.80
663.31	367.46
663.45	339.38
663.60	327.68
663.74	294.91
663.88	327.68
664.02	367.46
664.17	348.74
664.31	355.76
664.45	351.08
664.59	299.59
664.73	381.51
664.88	383.85
665.02	367.46
665.16	311.29
665.30	313.63
665.44	243.42
665.59	276.18
665.73	372.15
665.87	318.31
666.01	313.63
666.15	308.95
666.29	318.31
666.44	383.85
666.58	372.15
666.72	341.72
666.86	353.42
667.00	346.40
667.14	381.51
667.28	297.25
667.43	322.99
667.57	301.93
667.71	376.83
667.85	308.95
667.99	379.17
668.13	372.15
668.27	315.97
668.41	334.70
668.56	292.57
668.70	332.36
668.84	376.83
668.98	351.08
669.12	278.52
669.26	273.84
669.40	285.55
669.54	318.31
669.68	334.70
669.82	259.80
669.96	311.29
670.10	325.33
670.25	381.51
670.39	341.72
670.53	327.68
670.67	280.86
670.81	311.29
670.95	273.84
671.09	290.23
671.23	313.63
671.37	320.65
671.51	320.65
671.65	362.78
671.79	334.70
671.93	290.23
672.07	418.96
672.21	330.02
672.35	280.86
672.49	297.25
672.63	339.38
672.77	400.23
672.91	341.72
673.05	355.76
673.19	369.80
673.33	379.17
673.47	374.49
673.61	372.15
673.75	341.72
673.89	327.68
674.03	360.44
674.17	297.25
674.31	334.70
674.45	325.33
674.59	332.36
674.73	311.29
674.87	301.93
675.01	402.57
675.15	229.37
675.29	285.55
675.43	376.83
675.56	386.19
675.70	313.63
675.84	304.27
675.98	327.68
676.12	243.42
676.26	280.86
676.40	271.50
676.54	330.02
676.68	318.31
676.82	294.91
676.96	266.82
677.10	297.25
677.23	283.20
677.37	243.42
677.51	308.95
677.65	313.63
677.79	290.23
677.93	330.02
678.07	257.46
678.21	283.20
678.34	241.08
678.48	266.82
678.62	320.65
678.76	283.20
678.90	327.68
679.04	229.37
679.18	210.65
679.31	259.80
679.45	262.14
679.59	238.73
679.73	397.89
679.87	278.52
680.00	315.97
680.14	304.27
680.28	325.33
680.42	325.33
680.56	372.15
680.70	238.73
680.83	353.42
680.97	287.89
681.11	325.33
681.25	344.06
681.39	234.05
681.52	280.86
681.66	355.76
681.80	248.10
681.94	287.89
682.07	290.23
682.21	210.65
682.35	259.80
682.49	276.18
682.62	308.95
682.76	245.76
682.90	271.50
683.04	250.44
683.17	234.05
683.31	255.12
683.45	332.36
683.59	341.72
683.72	243.42
683.86	271.50
684.00	283.20
684.13	334.70
684.27	283.20
684.41	262.14
684.55	264.48
684.68	287.89
684.82	266.82
684.96	255.12
685.09	285.55
685.23	273.84
685.37	327.68
685.50	315.97
685.64	273.84
685.78	208.31
685.91	271.50
686.05	238.73
686.19	259.80
686.32	365.12
686.46	278.52
686.60	259.80
686.73	308.95
686.87	243.42
687.01	182.56
687.14	353.42
687.28	224.69
687.42	269.16
687.55	278.52
687.69	365.12
687.82	252.78
687.96	212.99
688.10	341.72
688.23	168.52
688.37	243.42
688.50	259.80
688.64	315.97
688.78	306.61
688.91	276.18
689.05	290.23
689.18	248.10
689.32	278.52
689.46	212.99
689.59	271.50
689.73	259.80
689.86	236.39
690.00	224.69
690.13	262.14
690.27	175.54
690.41	278.52
690.54	236.39
690.68	184.90
690.81	166.18
690.95	241.08
691.08	215.33
691.22	189.58
691.35	229.37
691.49	229.37
691.62	236.39
691.76	222.35
691.89	255.12
692.03	189.58
692.16	217.67
692.30	217.67
692.43	241.08
692.57	191.92
692.70	208.31
692.84	208.31
692.97	243.42
693.11	191.92
693.24	220.01
693.38	234.05
693.51	201.29
693.65	276.18
693.78	231.71
693.92	212.99
694.05	248.10
694.19	196.60
694.32	205.97
694.45	166.18
694.59	177.88
694.72	250.44
694.86	250.44
694.99	208.31
695.13	215.33
695.26	203.63
695.39	124.05
695.53	266.82
695.66	262.14
695.80	280.86
695.93	241.08
696.07	189.58
696.20	210.65
696.33	173.20
696.47	194.26
696.60	227.03
696.73	194.26
696.87	170.86
697.00	257.46
697.14	241.08
697.27	255.12
697.40	262.14
697.54	252.78
697.67	180.22
697.80	149.79
697.94	250.44
698.07	196.60
698.21	269.16
698.34	238.73
698.47	285.55
698.61	163.84
698.74	243.42
698.87	248.10
699.01	224.69
699.14	182.56
699.27	220.01
699.40	306.61
699.54	187.24
699.67	175.54
699.80	191.92
699.94	255.12
700.07	191.92
700.20	196.60
700.34	290.23
700.47	180.22
700.60	224.69
700.73	124.05
700.87	287.89
701.00	257.46
701.13	208.31
701.26	173.20
701.40	259.80
701.53	229.37
701.66	135.75
701.79	257.46
701.93	238.73
702.06	269.16
702.19	198.95
702.32	201.29
702.46	194.26
702.59	210.65
702.72	234.05
702.85	224.69
702.99	180.22
703.12	182.56
703.25	156.82
703.38	184.90
703.51	266.82
703.65	201.29
703.78	173.20
703.91	292.57
704.04	238.73
704.17	180.22
704.31	234.05
704.44	154.48
704.57	170.86
704.70	257.46
704.83	170.86
704.96	215.33
705.10	180.22
705.23	248.10
>>>>>End Processed Spectral Data<<<<<
