SpectraSuite Data File
++++++++++++++++++++++++++++++++++++
Date: Fri Oct 04 11:39:37 GMT-05:00 2013
User: price-jones
Dark Spectrum Present: No
Reference Spectrum Present: No
Number of Sampled Component Spectra: 1
Spectrometers: USB2+H05261
Integration Time (usec): 100000 (USB2+H05261)
Spectra Averaged: 1 (USB2+H05261)
Boxcar Smoothing: 0 (USB2+H05261)
Correct for Electrical Dark: No (USB2+H05261)
Strobe/Lamp Enabled: No (USB2+H05261)
Correct for Detector Non-linearity: No (USB2+H05261)
Correct for Stray Light: No (USB2+H05261)
Number of Pixels in Processed Spectrum: 2048
>>>>>Begin Processed Spectral Data<<<<<
365.73	0.00
365.92	0.00
366.12	0.00
366.32	0.00
366.52	0.00
366.72	25.75
366.91	0.00
367.11	11.70
367.31	0.00
367.51	0.00
367.70	0.00
367.90	0.00
368.10	0.00
368.30	0.00
368.49	0.00
368.69	0.00
368.89	0.00
369.09	0.00
369.28	0.00
369.48	0.00
369.68	0.00
369.87	30.43
370.07	2.34
370.27	30.43
370.47	74.90
370.66	229.37
370.86	297.25
371.06	304.27
371.25	409.59
371.45	346.40
371.65	346.40
371.84	339.38
372.04	297.25
372.24	353.42
372.44	395.55
372.63	337.04
372.83	524.28
373.03	404.91
373.22	381.51
373.42	447.04
373.62	491.51
373.81	390.87
374.01	451.72
374.21	489.17
374.40	454.06
374.60	510.24
374.79	449.38
374.99	456.40
375.19	416.62
375.38	456.40
375.58	372.15
375.78	468.11
375.97	463.43
376.17	519.60
376.37	461.09
376.56	465.77
376.76	503.22
376.95	477.47
377.15	531.30
377.35	500.87
377.54	414.27
377.74	463.43
377.93	477.47
378.13	514.92
378.33	596.84
378.52	421.30
378.72	547.69
378.91	479.81
379.11	498.53
379.31	566.41
379.50	386.19
379.70	479.81
379.89	566.41
380.09	521.94
380.28	543.00
380.48	547.69
380.68	540.66
380.87	505.56
381.07	550.03
381.26	613.22
381.46	589.82
381.65	610.88
381.85	550.03
382.04	601.52
382.24	561.73
382.43	554.71
382.63	540.66
382.83	624.92
383.02	641.31
383.22	620.24
383.41	545.34
383.61	627.26
383.80	601.52
384.00	582.79
384.19	655.35
384.39	606.20
384.58	615.56
384.78	561.73
384.97	596.84
385.17	667.05
385.36	634.29
385.56	702.16
385.75	610.88
385.95	664.71
386.14	662.37
386.34	669.39
386.53	608.54
386.72	716.20
386.92	674.07
387.11	608.54
387.31	681.10
387.50	695.14
387.70	662.37
387.89	706.84
388.09	653.01
388.28	711.52
388.48	720.88
388.67	657.69
388.86	833.23
389.06	608.54
389.25	732.59
389.45	709.18
389.64	737.27
389.84	802.80
390.03	758.33
390.22	741.95
390.42	774.72
390.61	748.97
390.81	737.27
391.00	751.31
391.19	861.32
391.39	868.34
391.58	905.79
391.78	788.76
391.97	875.36
392.16	821.53
392.36	842.59
392.55	833.23
392.75	866.00
392.94	866.00
393.13	992.39
393.33	849.61
393.52	924.51
393.71	908.13
393.91	863.66
394.10	858.98
394.29	858.98
394.49	922.17
394.68	917.49
394.88	903.45
395.07	924.51
395.26	926.85
395.46	947.92
395.65	1043.88
395.84	971.32
396.04	1022.81
396.23	983.02
396.42	976.00
396.62	1032.18
396.81	1034.52
397.00	1095.37
397.19	1071.97
397.39	1046.22
397.58	1064.94
397.77	966.64
397.97	1041.54
398.16	1076.65
398.35	1128.14
398.55	1011.11
398.74	1020.47
398.93	1196.01
399.12	1107.07
399.32	1160.91
399.51	1163.25
399.70	1219.42
399.90	1172.61
400.09	1252.19
400.28	1357.51
400.47	1172.61
400.67	1268.57
400.86	1270.91
401.05	1322.40
401.24	1259.21
401.44	1362.19
401.63	1270.91
401.82	1280.27
402.01	1320.06
402.21	1331.76
402.40	1296.66
402.59	1390.28
402.78	1399.64
402.97	1350.49
403.17	1329.42
403.36	1416.02
403.55	1348.15
403.74	1462.83
403.93	1390.28
404.13	1530.71
404.32	1479.22
404.51	1519.01
404.70	1418.36
404.89	1533.05
405.09	1507.30
405.28	1514.33
405.47	1584.54
405.66	1584.54
405.85	1668.80
406.05	1643.06
406.24	1680.50
406.43	1643.06
406.62	1636.03
406.81	1734.34
407.00	1736.68
407.20	1671.14
407.39	1696.89
407.58	1823.28
407.77	1736.68
407.96	1764.76
408.15	1879.45
408.34	1825.62
408.54	1870.09
408.73	1757.74
408.92	1834.98
409.11	1872.43
409.30	1853.70
409.49	1764.76
409.68	1888.81
409.87	1884.13
410.07	1996.48
410.26	2005.84
410.45	2015.20
410.64	2160.31
410.83	1998.82
411.02	2024.56
411.21	2085.42
411.40	2099.46
411.59	2179.04
411.78	2251.60
411.98	2136.91
412.17	2326.49
412.36	2190.74
412.55	2328.83
412.74	2310.11
412.93	2375.64
413.12	2221.17
413.31	2492.67
413.50	2361.60
413.69	2431.82
413.88	2537.14
414.07	2546.50
414.26	2661.19
414.45	2569.91
414.64	2600.34
414.83	2708.00
415.02	2621.40
415.22	2738.43
415.41	2740.77
415.60	2693.96
415.79	2771.19
415.98	2712.68
416.17	2829.71
416.36	2675.23
416.55	2860.13
416.74	2869.50
416.93	2979.50
417.12	2892.90
417.31	2928.01
417.50	2860.13
417.69	3082.49
417.88	3152.70
418.07	3108.23
418.26	3084.83
418.45	2930.35
418.64	3157.38
418.83	3124.62
419.02	3096.53
419.21	3225.26
419.39	3255.69
419.58	3295.47
419.77	3332.92
419.96	3269.73
420.15	3419.52
420.34	3251.00
420.53	3272.07
420.72	3478.04
420.91	3251.00
421.10	3419.52
421.29	3583.36
421.48	3386.76
421.67	3503.78
421.86	3417.18
422.05	3595.06
422.24	3574.00
422.43	3562.30
422.61	3449.95
422.80	3534.21
422.99	3543.57
423.18	3566.98
423.37	3595.06
423.56	3487.40
423.75	3632.51
423.94	3571.66
424.13	3293.13
424.32	3274.41
424.50	3648.90
424.69	3719.11
424.88	3777.62
425.07	3632.51
425.26	3517.83
425.45	3637.19
425.64	3555.27
425.83	3672.30
426.01	3765.92
426.20	3770.60
426.39	3655.92
426.58	3672.30
426.77	3691.02
426.96	3611.45
427.15	3761.24
427.33	3850.18
427.52	3878.27
427.71	3875.93
427.90	3840.82
428.09	3791.67
428.28	3885.29
428.46	3925.08
428.65	4011.68
428.84	4023.38
429.03	4081.89
429.22	3990.61
429.40	3978.91
429.59	3932.10
429.78	3859.54
429.97	3742.52
430.16	3932.10
430.34	4039.76
430.53	4311.27
430.72	4184.88
430.91	4119.34
431.10	4205.94
431.28	4245.73
431.47	4287.86
431.66	4212.96
431.85	4285.52
432.03	4236.37
432.22	4222.33
432.41	4273.82
432.60	4491.49
432.79	4283.18
432.97	4498.51
433.16	4395.53
433.35	4266.80
433.54	4547.66
433.72	4648.30
433.91	4531.28
434.10	4648.30
434.28	4484.47
434.47	4440.00
434.66	4676.39
434.85	4486.81
435.03	4669.37
435.22	4870.65
435.41	5097.69
435.59	4924.49
435.78	4903.42
435.97	4809.80
436.16	4746.61
436.34	4765.33
436.53	4830.87
436.72	4905.76
436.90	4770.01
437.09	4894.06
437.28	4699.80
437.46	4781.71
437.65	5041.51
437.84	5158.54
438.02	4975.98
438.21	4999.38
438.40	4945.55
438.58	5153.86
438.77	5102.37
438.96	5153.86
439.14	5090.67
439.33	5069.60
439.52	5378.55
439.70	5582.18
439.89	5252.16
440.08	5338.76
440.26	5245.14
440.45	5413.66
440.63	5668.78
440.82	5678.14
441.01	5413.66
441.19	5696.86
441.38	5764.74
441.57	5708.57
441.75	5762.40
441.94	5809.21
442.12	5839.64
442.31	5804.53
442.50	5893.47
442.68	5771.76
442.87	5921.56
443.05	6010.50
443.24	5970.71
443.43	6052.63
443.61	6071.35
443.80	6232.85
443.98	5891.13
444.17	5832.62
444.35	6066.67
444.54	6197.74
444.73	6190.72
444.91	6223.48
445.10	6148.59
445.28	6090.07
445.47	5996.45
445.65	6314.77
445.84	6265.61
446.02	6338.17
446.21	6359.24
446.39	6071.35
446.58	6209.44
446.77	6092.41
446.95	6164.97
447.14	6225.82
447.32	6186.04
447.51	6251.57
447.69	6263.27
447.88	6384.98
448.06	6333.49
448.25	6282.00
448.43	6382.64
448.62	6270.30
448.80	6347.53
448.99	6394.34
449.17	6375.62
449.36	6176.67
449.54	6530.09
449.73	6413.07
449.91	6565.20
450.10	6600.31
450.28	6600.31
450.46	6619.04
450.65	6740.74
450.83	6553.50
451.02	6483.28
451.20	6698.61
451.39	6642.44
451.57	6864.79
451.76	6736.06
451.94	6825.00
452.13	6890.54
452.31	6829.68
452.49	6590.95
452.68	6733.72
452.86	6981.82
453.05	6958.41
453.23	6874.15
453.42	6820.32
453.60	6930.33
453.78	6963.09
453.97	7002.88
454.15	6965.43
454.34	7012.24
454.52	7190.13
454.70	7068.42
454.89	7138.63
455.07	7005.22
455.26	7112.89
455.44	7325.88
455.62	7258.00
455.81	7213.53
455.99	7269.70
456.17	7283.75
456.36	7405.46
456.54	7428.86
456.73	7426.52
456.91	7480.35
457.09	7524.82
457.28	7683.98
457.46	7581.00
457.64	7793.98
457.83	7784.62
458.01	7494.40
458.19	7538.87
458.38	7463.97
458.56	7742.49
458.74	7613.76
458.93	7782.28
459.11	7859.52
459.29	7700.36
459.48	7798.66
459.66	7922.71
459.84	7943.78
460.03	8058.46
460.21	8044.42
460.39	7901.65
460.57	7819.73
460.76	8042.08
460.94	8135.70
461.12	8205.92
461.31	8145.06
461.49	8124.00
461.67	8320.60
461.85	8477.42
462.04	8313.58
462.22	8294.86
462.40	8336.99
462.59	8407.20
462.77	8430.61
462.95	8383.80
463.13	8512.53
463.32	8393.16
463.50	8542.96
463.68	8659.98
463.86	8444.65
464.05	8482.10
464.23	8491.46
464.41	8809.78
464.59	8334.65
464.78	8676.37
464.96	8629.56
465.14	8425.93
465.32	8643.60
465.50	8683.39
465.69	8777.01
465.87	8662.32
466.05	8681.05
466.23	8795.73
466.41	8940.85
466.60	8945.53
466.78	8823.82
466.96	8713.81
467.14	8704.45
467.32	8908.08
467.51	9135.11
467.69	8805.10
467.87	8861.27
468.05	9060.21
468.23	8826.16
468.41	9092.98
468.60	9064.89
468.78	9125.75
468.96	9029.79
469.14	9100.00
469.32	9256.82
469.50	9022.77
469.69	9355.12
469.87	9200.65
470.05	9263.84
470.23	9195.96
470.41	9493.21
470.59	9549.39
470.77	9453.42
470.95	9722.59
471.14	9692.16
471.32	9645.35
471.50	9877.06
471.68	9898.13
471.86	9902.81
472.04	9846.63
472.22	9982.38
472.40	9689.82
472.58	9942.60
472.77	9619.60
472.95	10183.67
473.13	10363.89
473.31	10113.45
473.49	9991.75
473.67	10207.08
473.85	10195.37
474.03	10373.25
474.21	10228.14
474.39	10487.94
474.57	10504.32
474.75	10546.45
474.93	10583.90
475.12	10537.09
475.30	10768.80
475.48	10703.27
475.66	10927.96
475.84	10927.96
476.02	10963.07
476.20	11091.80
476.38	11126.91
476.56	11428.84
476.74	11246.27
476.92	11351.60
477.10	11260.32
477.28	11398.41
477.46	11543.52
477.64	11480.33
477.82	11726.08
478.00	12196.53
478.18	12049.08
478.36	12201.21
478.54	11950.78
478.72	12063.12
478.90	12559.31
479.08	12507.82
479.26	12468.03
479.44	12507.82
479.62	12678.68
479.80	12587.40
479.98	12849.54
480.16	13144.45
480.34	12973.59
480.52	13207.64
480.70	13280.20
480.88	13137.43
481.06	13357.44
481.24	13369.14
481.41	13549.36
481.59	13734.26
481.77	13715.54
481.95	13734.26
482.13	14050.24
482.31	14122.79
482.49	14001.08
482.67	14064.28
482.85	14398.98
483.03	14684.52
483.21	14775.80
483.39	14827.29
483.57	14963.04
483.74	14719.63
483.92	15272.00
484.10	15117.52
484.28	15573.92
484.46	15459.24
484.64	15950.75
484.82	15686.27
485.00	15840.75
485.18	15997.56
485.35	16320.56
485.53	16086.50
485.71	16226.93
485.89	16692.70
486.07	16664.61
486.25	16807.39
486.43	16922.07
486.61	16805.05
486.78	16940.80
486.96	17069.53
487.14	17338.69
487.32	17504.87
487.50	17429.97
487.68	17516.57
487.85	17928.50
488.03	18104.04
488.21	18420.02
488.39	18448.10
488.57	18368.52
488.75	18394.27
488.92	18913.87
489.10	19075.37
489.28	18937.27
489.46	18998.13
489.64	19325.80
489.81	19943.70
489.99	19449.85
490.17	19513.05
490.35	19838.38
490.53	19878.17
490.70	20107.54
490.88	20114.56
491.06	20634.16
491.24	20374.36
491.41	20442.24
491.59	20610.76
491.77	20577.99
491.95	21137.38
492.13	21036.74
492.30	21179.51
492.48	21106.95
492.66	21518.89
492.84	21298.88
493.01	21621.87
493.19	21968.27
493.37	21673.36
493.54	21947.20
493.72	22125.08
493.90	21853.58
494.08	22087.64
494.25	22579.15
494.43	22277.22
494.61	22803.84
494.79	22637.66
494.96	22665.75
495.14	23218.11
495.32	23325.78
495.49	23377.27
495.67	23496.64
495.85	23573.88
496.02	23756.44
496.20	23747.08
496.38	23826.65
496.55	23861.76
496.73	24519.45
496.91	24538.18
497.09	24631.80
497.26	24575.62
497.44	24360.30
497.62	24676.27
497.79	24861.17
497.97	24821.38
498.14	25355.02
498.32	25460.35
498.50	25610.14
498.67	25692.06
498.85	25682.70
499.03	25710.78
499.20	25895.69
499.38	26015.05
499.56	26178.89
499.73	26078.25
499.91	26171.87
500.08	26593.17
500.26	26286.56
500.44	26338.05
500.61	26497.20
500.79	26796.79
500.97	26923.18
501.14	26930.20
501.32	26984.04
501.49	27187.66
501.67	27211.07
501.84	27372.57
502.02	27220.43
502.20	27161.92
502.37	27740.03
502.55	27410.01
502.72	27206.39
502.90	27922.59
503.07	27498.95
503.25	27894.50
503.43	27718.96
503.60	28166.01
503.78	28149.62
503.95	28250.27
504.13	28325.16
504.30	28596.67
504.48	28041.96
504.65	28664.54
504.83	28910.30
505.01	28774.55
505.18	28662.20
505.36	29333.93
505.53	28723.05
505.71	29008.60
505.88	29174.78
506.06	29008.60
506.23	29467.34
506.41	29429.90
506.58	29769.27
506.76	29514.16
506.93	29617.14
507.11	29806.72
507.28	29731.83
507.46	30380.15
507.63	30171.85
507.81	30464.41
507.98	30052.48
508.16	30263.13
508.33	30382.49
508.50	30632.93
508.68	30672.72
508.85	30756.98
509.03	31016.78
509.20	30925.50
509.38	31428.71
509.55	31126.78
509.73	31255.51
509.90	31519.99
510.08	31421.69
510.25	31597.23
510.42	31185.30
510.60	31662.77
510.77	31988.10
510.95	31831.29
511.12	31358.50
511.30	31744.69
511.47	31807.88
511.64	32182.37
511.82	32257.26
511.99	32081.72
512.17	32603.66
512.34	32189.39
512.51	32477.27
512.69	32425.78
512.86	32711.33
513.04	32713.67
513.21	33109.22
513.38	32980.49
513.56	32943.04
513.73	32891.55
513.90	33242.63
514.08	33202.84
514.25	33457.96
514.43	33457.96
514.60	33380.72
514.77	33619.46
514.95	33874.57
515.12	33404.13
515.29	33642.86
515.47	33818.40
515.64	33940.11
515.81	33907.34
515.99	34195.23
516.16	34380.13
516.33	34295.87
516.51	34227.99
516.68	34251.40
516.85	34361.40
517.03	34466.73
517.20	34628.23
517.37	34785.04
517.54	34525.24
517.72	34644.61
517.89	35110.38
518.06	34749.93
518.24	35089.31
518.41	34979.31
518.58	35234.42
518.75	34881.00
518.93	35281.24
519.10	35578.48
519.27	35271.87
519.45	35622.95
519.62	35644.02
519.79	35456.78
519.96	35948.29
520.14	36016.16
520.31	35637.00
520.48	36109.78
520.65	36121.49
520.83	35976.37
521.00	35835.94
521.17	36421.08
521.34	36212.77
521.52	36713.64
521.69	36435.12
521.86	36634.06
522.03	36818.97
522.20	36795.56
522.38	36914.93
522.55	36685.56
522.72	36849.39
522.89	36725.35
523.07	37226.22
523.24	37247.29
523.41	37263.67
523.58	36961.74
523.75	37792.63
523.92	37200.47
524.10	37017.91
524.27	37483.68
524.44	37734.12
524.61	37738.80
524.78	37979.87
524.96	37647.52
525.13	37680.28
525.30	38218.61
525.47	37998.60
525.64	38059.45
525.81	38239.67
525.98	38649.27
526.16	38314.57
526.33	37816.04
526.50	38459.68
526.67	38005.62
526.84	38085.20
527.01	38433.94
527.18	38593.09
527.36	38632.88
527.53	38696.08
527.70	38604.80
527.87	39164.18
528.04	38834.17
528.21	39222.70
528.38	38724.16
528.55	38808.42
528.72	39068.22
528.89	39232.06
529.07	39274.19
529.24	39096.31
529.41	39299.94
529.58	39370.15
529.75	39267.17
529.92	39440.37
530.09	39564.42
530.26	39416.96
530.43	39950.60
530.60	39871.03
530.77	39782.09
530.94	39892.09
531.11	39880.39
531.28	39608.89
531.46	39817.19
531.63	39962.31
531.80	39910.82
531.97	40423.39
532.14	40194.02
532.31	40493.61
532.48	40135.51
532.65	40002.10
532.82	39934.22
532.99	40402.33
533.16	40659.79
533.33	40676.17
533.50	40818.94
533.67	41045.97
533.84	40744.05
534.01	40559.14
534.18	40566.16
534.35	40685.53
534.52	40772.13
534.69	41331.52
534.86	41450.89
535.03	41092.79
535.20	41064.70
535.37	41198.11
535.54	40863.41
535.71	41109.17
535.88	41619.41
536.05	41647.49
536.22	41483.66
536.38	41801.97
536.55	41560.89
536.72	41509.40
536.89	41603.02
537.06	41446.21
537.23	41900.27
537.40	41841.76
537.57	41383.01
537.74	41677.92
537.91	42398.80
538.08	42092.19
538.25	41633.45
538.42	42092.19
538.59	41867.50
538.75	41729.41
538.92	41867.50
539.09	42330.93
539.26	42354.33
539.43	42281.78
539.60	42246.67
539.77	42253.69
539.94	42869.25
540.11	42960.53
540.28	42787.33
540.44	42398.80
540.61	42450.30
540.78	42459.66
540.95	43068.20
541.12	42742.86
541.29	43407.58
541.46	43440.34
541.62	42948.83
541.79	43370.13
541.96	42564.98
542.13	43075.22
542.30	43213.31
542.47	43789.08
542.63	43482.47
542.80	43690.78
542.97	44081.65
543.14	43922.49
543.31	43487.15
543.48	43646.31
543.64	44053.56
543.81	44201.02
543.98	44259.53
544.15	43737.59
544.32	44748.70
544.48	44039.52
544.65	43908.45
544.82	44100.37
544.99	43805.47
545.16	44486.56
545.32	43814.83
545.49	44577.84
545.66	44992.12
545.83	45359.58
546.00	44900.84
546.16	45041.27
546.33	44296.98
546.50	43833.55
546.67	44423.37
546.83	43718.87
547.00	44341.45
547.17	44320.38
547.34	44664.44
547.50	44945.31
547.67	44575.50
547.84	44692.53
548.00	44577.84
548.17	44816.58
548.34	44313.36
548.51	44538.05
548.67	44605.93
548.84	45048.29
549.01	44917.22
549.18	44559.12
549.34	44793.17
549.51	44772.11
549.68	44978.07
549.84	44465.50
550.01	45155.96
550.18	45055.31
550.34	45193.40
550.51	45193.40
550.68	45359.58
550.84	44760.40
551.01	44711.25
551.18	44776.79
551.34	45144.25
551.51	45188.72
551.68	45258.94
551.84	45504.70
552.01	45507.04
552.18	44907.86
552.34	45141.91
552.51	45214.47
552.68	44985.10
552.84	45317.45
553.01	45223.83
553.18	45270.64
553.34	45944.72
553.51	45291.71
553.67	45478.95
553.84	46085.15
554.01	45745.77
554.17	45181.70
554.34	45097.44
554.51	45567.89
554.67	45860.46
554.84	45724.71
555.00	45916.63
555.17	45698.96
555.33	45783.22
555.50	45741.09
555.67	45865.14
555.83	45460.23
556.00	45818.33
556.16	46192.81
556.33	45790.24
556.50	45890.88
556.66	46131.96
556.83	45673.21
556.99	46237.28
557.16	46061.74
557.32	46115.58
557.49	46492.40
557.65	45701.30
557.82	45893.22
557.98	45839.39
558.15	45684.92
558.32	46040.68
558.48	45954.08
558.65	46305.16
558.81	46164.73
558.98	46192.81
559.14	46054.72
559.31	45830.03
559.47	46256.01
559.64	46651.56
559.80	46412.82
559.97	46192.81
560.13	46204.52
560.30	46590.70
560.46	46054.72
560.63	46588.36
560.79	46471.34
560.96	46583.68
561.12	46574.32
561.29	46202.18
561.45	46485.38
561.61	46794.33
561.78	46759.22
561.94	46450.27
562.11	46504.10
562.27	46635.17
562.44	46593.04
562.60	46267.71
562.77	46555.60
562.93	46438.57
563.10	46632.83
563.26	46469.00
563.42	47370.10
563.59	46749.86
563.75	46820.08
563.92	46913.70
564.08	46653.90
564.24	46693.69
564.41	46337.93
564.57	46314.52
564.74	46494.74
564.90	46845.82
565.07	46925.40
565.23	46691.35
565.39	46667.94
565.56	46658.58
565.72	46478.36
565.88	46571.98
566.05	46401.12
566.21	46557.94
566.38	46890.29
566.54	46920.72
566.70	47267.12
566.87	47288.18
567.03	46937.10
567.19	46972.21
567.36	46504.10
567.52	46852.84
567.68	46876.25
567.85	46728.80
568.01	47147.75
568.17	46880.93
568.34	46770.93
568.50	46852.84
568.66	46836.46
568.83	47044.77
568.99	46684.33
569.15	46866.89
569.32	46995.62
569.48	46609.43
569.64	46850.50
569.81	46894.97
569.97	46747.52
570.13	47084.56
570.30	46705.39
570.46	46965.19
570.62	46862.21
570.78	46604.75
570.95	47098.60
571.11	46791.99
571.27	46815.40
571.43	46616.45
571.60	47004.98
571.76	47058.81
571.92	47147.75
572.09	46988.60
572.25	47164.14
572.41	46993.28
572.57	47145.41
572.74	47262.44
572.90	46733.48
573.06	47016.68
573.22	46571.98
573.38	47346.70
573.55	47269.46
573.71	47407.55
573.87	47412.23
574.03	47124.35
574.20	47028.38
574.36	47086.90
574.52	46883.27
574.68	47370.10
574.84	47072.85
575.01	47229.67
575.17	46902.00
575.33	47161.79
575.49	46815.40
575.65	46976.89
575.82	47014.34
575.98	46646.88
576.14	47271.80
576.30	47330.31
576.46	47180.52
576.62	46562.62
576.79	47157.11
576.95	47143.07
577.11	47445.00
577.27	47257.76
577.43	47288.18
577.59	47051.79
577.75	47112.64
577.92	46866.89
578.08	46586.02
578.24	47306.91
578.40	47196.90
578.56	47161.79
578.72	47290.52
578.88	47646.29
579.04	47365.42
579.21	47206.26
579.37	47012.00
579.53	47037.75
579.69	46834.12
579.85	47110.30
580.01	46988.60
580.17	47100.94
580.33	47014.34
580.49	46876.25
580.65	47508.19
580.82	47557.35
580.98	47290.52
581.14	47398.19
581.30	47449.68
581.46	46827.10
581.62	46838.80
581.78	47049.45
581.94	47210.95
582.10	46899.65
582.26	47192.22
582.42	47351.38
582.58	47339.68
582.74	47075.19
582.90	47618.20
583.06	47374.78
583.22	47075.19
583.38	46941.78
583.54	47030.72
583.70	46923.06
583.86	47236.69
584.02	47227.33
584.18	47224.99
584.34	47196.90
584.50	47559.69
584.66	47351.38
584.82	46927.74
584.98	47494.15
585.14	47140.73
585.30	47119.66
585.46	47145.41
585.62	46911.36
585.78	47213.29
585.94	46836.46
586.10	47447.34
586.26	47573.73
586.42	47367.76
586.58	47150.09
586.74	47164.14
586.90	47360.74
587.06	46691.35
587.22	47119.66
587.38	47267.12
587.54	47852.25
587.70	47297.55
587.86	47585.43
588.02	47274.14
588.18	47208.61
588.34	47234.35
588.49	47150.09
588.65	46642.20
588.81	47234.35
588.97	47323.29
589.13	47175.84
589.29	46899.65
589.45	47295.21
589.61	47646.29
589.77	48149.50
589.93	47770.33
590.08	47547.98
590.24	47800.76
590.40	47477.77
590.56	47501.17
590.72	47430.96
590.88	47267.12
591.04	47019.02
591.20	47828.85
591.35	47765.65
591.51	47875.66
591.67	47793.74
591.83	47601.82
591.99	47679.05
592.15	47466.06
592.31	47737.57
592.46	47166.48
592.62	47089.24
592.78	47084.56
592.94	47578.41
593.10	47241.37
593.26	47959.92
593.41	47646.29
593.57	47721.18
593.73	47672.03
593.89	48002.05
594.05	47571.39
594.20	47393.51
594.36	47103.28
594.52	47552.66
594.68	47253.08
594.84	47388.83
594.99	47482.45
595.15	47632.24
595.31	47786.72
595.47	47557.35
595.62	47117.32
595.78	47288.18
595.94	47594.79
596.10	47517.56
596.25	47646.29
596.41	47302.23
596.57	47440.32
596.73	47414.57
596.88	47569.05
597.04	47526.92
597.20	48034.81
597.36	47885.02
597.51	47597.13
597.67	47573.73
597.83	47496.49
597.99	47402.87
598.14	47454.36
598.30	47428.62
598.46	47086.90
598.61	47510.53
598.77	47016.68
598.93	47676.71
599.09	47508.19
599.24	48013.75
599.40	47487.13
599.56	47435.64
599.71	47505.85
599.87	47234.35
600.03	47377.12
600.18	47196.90
600.34	47648.63
600.50	47800.76
600.65	47262.44
600.81	47927.15
600.97	47672.03
601.12	47543.30
601.28	47814.80
601.44	47402.87
601.59	47636.92
601.75	47407.55
601.91	47681.39
602.06	47306.91
602.22	47260.10
602.37	47395.85
602.53	47229.67
602.69	47845.23
602.84	47948.21
603.00	47583.09
603.16	47248.39
603.31	47840.55
603.47	47267.12
603.62	47505.85
603.78	47236.69
603.94	47309.25
604.09	47040.09
604.25	47023.70
604.40	47437.98
604.56	47150.09
604.71	47374.78
604.87	47154.77
605.03	47566.71
605.18	47524.58
605.34	47442.66
605.49	47061.15
605.65	47342.02
605.80	46693.69
605.96	46974.55
606.12	47402.87
606.27	47269.46
606.43	46618.79
606.58	47316.27
606.74	47313.93
606.89	47224.99
607.05	47122.01
607.20	47105.62
607.36	47051.79
607.51	47082.22
607.67	46611.77
607.82	46986.25
607.98	46897.31
608.13	46866.89
608.29	47220.31
608.44	46902.00
608.60	46974.55
608.75	46937.10
608.91	47049.45
609.06	46887.95
609.22	47292.86
609.37	46768.58
609.53	46990.94
609.68	46850.50
609.84	46576.66
609.99	46745.18
610.15	46747.52
610.30	47075.19
610.46	47044.77
610.61	47351.38
610.76	47407.55
610.92	47332.65
611.07	47887.36
611.23	47608.84
611.38	47440.32
611.54	47311.59
611.69	47098.60
611.84	46660.92
612.00	47126.69
612.15	46562.62
612.31	47072.85
612.46	46773.27
612.62	46995.62
612.77	46263.03
612.92	46883.27
613.08	46288.77
613.23	46946.47
613.39	46373.03
613.54	46494.74
613.69	46679.64
613.85	46424.53
614.00	46239.62
614.15	46473.68
614.31	46230.26
614.46	46490.06
614.62	46815.40
614.77	46394.10
614.92	46497.08
615.08	46415.16
615.23	46190.47
615.38	46286.43
615.54	45652.15
615.69	46057.06
615.84	46000.89
616.00	46036.00
616.15	45823.01
616.30	46096.85
616.46	45989.19
616.61	45921.31
616.76	46195.15
616.92	45710.66
617.07	45916.63
617.22	45539.80
617.37	45668.53
617.53	45509.38
617.68	45553.85
617.83	45507.04
617.99	45563.21
618.14	45766.84
618.29	45808.96
618.45	45776.20
618.60	45677.90
618.75	45434.48
618.90	46099.19
619.06	45251.92
619.21	45214.47
619.36	45544.48
619.51	45057.65
619.67	44924.24
619.82	45116.17
619.97	45380.65
620.12	45251.92
620.28	45059.99
620.43	45525.76
620.58	45345.54
620.73	45340.86
620.89	45382.99
621.04	45509.38
621.19	45308.09
621.34	45366.60
621.49	45134.89
621.65	45083.40
621.80	45291.71
621.95	44905.52
622.10	45382.99
622.25	44872.75
622.41	44856.37
622.56	45069.36
622.71	44598.91
622.86	45017.86
623.01	44737.00
623.16	44994.46
623.32	44446.77
623.47	44893.82
623.62	45006.16
623.77	44818.92
623.92	44872.75
624.07	44474.86
624.23	44882.11
624.38	44634.02
624.53	44765.09
624.68	44617.63
624.83	44619.97
624.98	44524.01
625.13	44449.11
625.29	44753.38
625.44	44645.72
625.59	44102.71
625.74	44240.81
625.89	44100.37
626.04	43826.53
626.19	44306.34
626.34	44119.10
626.49	44325.07
626.65	44088.67
626.80	44168.25
626.95	44582.52
627.10	44142.50
627.25	44493.58
627.40	44425.71
627.55	43957.60
627.70	43901.43
627.85	44224.42
628.00	43388.85
628.15	43882.70
628.30	43674.40
628.45	43728.23
628.60	43632.27
628.76	43995.05
628.91	43742.27
629.06	43742.27
629.21	43826.53
629.36	43739.93
629.51	43529.28
629.66	43023.73
629.81	43461.41
629.96	43274.16
630.11	43704.82
630.26	43426.30
630.41	43828.87
630.56	43393.53
630.71	43503.54
630.86	43707.16
631.01	43217.99
631.16	43625.25
631.31	43407.58
631.46	43173.52
631.61	43653.33
631.76	43402.89
631.91	42988.62
632.06	43353.74
632.21	42941.81
632.36	42976.92
632.51	42703.07
632.66	43145.44
632.81	42735.84
632.96	43196.93
633.10	42801.38
633.25	42696.05
633.40	42981.60
633.55	42735.84
633.70	42539.24
633.85	42611.79
634.00	42784.99
634.15	43187.56
634.30	42642.22
634.45	42775.63
634.60	42660.94
634.75	42354.33
634.90	42515.83
635.05	42754.57
635.19	42777.97
635.34	42834.14
635.49	42864.57
635.64	42689.03
635.79	42541.58
635.94	42412.85
636.09	42686.69
636.24	42160.07
636.39	42122.62
636.53	42164.75
636.68	42361.36
636.83	42256.03
636.98	42211.56
637.13	41977.51
637.28	42459.66
637.43	42775.63
637.57	42906.70
637.72	42370.72
637.87	42209.22
638.02	42073.47
638.17	41846.44
638.32	41808.99
638.46	42155.39
638.61	41347.90
638.76	41352.58
638.91	41654.51
639.06	41642.81
639.20	41617.07
639.35	41926.02
639.50	42124.96
639.65	41911.97
639.80	41993.89
639.94	41226.20
640.09	41242.58
640.24	41450.89
640.39	41408.76
640.54	41450.89
640.68	41364.29
640.83	41184.07
640.98	41544.51
641.13	41366.63
641.27	40914.90
641.42	41003.85
641.57	41722.39
641.72	41701.32
641.86	41422.80
642.01	41102.15
642.16	41170.02
642.31	40636.38
642.45	41481.31
642.60	40933.63
642.75	40708.94
642.90	41214.49
643.04	40935.97
643.19	40795.54
643.34	40924.27
643.48	41127.89
643.63	40582.55
643.78	41045.97
643.93	41024.91
644.07	40844.69
644.22	41371.31
644.37	40477.22
644.51	40725.32
644.66	40973.42
644.81	40474.88
644.95	40900.86
645.10	40446.80
645.25	40308.71
645.39	40697.24
645.54	41024.91
645.69	40687.87
645.83	40643.40
645.98	40605.95
646.13	40793.20
646.27	40767.45
646.42	40910.22
646.57	40460.84
646.71	40182.32
646.86	40425.73
647.00	40734.68
647.15	40357.86
647.30	40252.53
647.44	39885.07
647.59	40100.40
647.74	40421.05
647.88	40285.30
648.03	40158.91
648.17	40561.48
648.32	40472.54
648.47	40439.78
648.61	40282.96
648.76	40428.07
648.90	39924.86
649.05	39971.67
649.20	40133.17
649.34	40018.48
649.49	39789.11
649.63	39962.31
649.78	39800.81
649.92	40254.87
650.07	40086.36
650.21	40147.21
650.36	40041.88
650.51	40114.44
650.65	40020.82
650.80	39875.71
650.94	39749.32
651.09	40011.46
651.23	39646.33
651.38	39672.08
651.52	39402.92
651.67	39283.55
651.81	39426.32
651.96	39810.17
652.10	39431.01
652.25	39693.15
652.39	39452.07
652.54	39796.13
652.68	39548.03
652.83	39344.41
652.97	39533.99
653.12	39634.63
653.26	39426.32
653.41	39538.67
653.55	39679.10
653.70	39112.69
653.84	39168.87
653.99	39086.95
654.13	39000.35
654.27	38660.97
654.42	39206.31
654.56	39496.54
654.71	38902.04
654.85	39021.41
655.00	39536.33
655.14	39370.15
655.29	38782.68
655.43	38799.06
655.57	38590.75
655.72	38597.77
655.86	38770.97
656.01	38447.98
656.15	38300.53
656.30	38939.49
656.44	38815.44
656.58	38691.40
656.73	38256.06
656.87	38810.76
657.01	38728.84
657.16	38649.27
657.30	38618.84
657.45	38925.45
657.59	38857.57
657.73	38520.54
657.88	38667.99
658.02	38396.49
658.16	38014.98
658.31	38059.45
658.45	38239.67
658.60	38202.22
658.74	38040.73
658.88	38078.18
659.03	37656.88
659.17	38272.44
659.31	38106.26
659.46	38014.98
659.60	38017.32
659.74	37827.74
659.89	37457.93
660.03	37446.23
660.17	37832.42
660.32	37682.62
660.46	37951.79
660.60	37464.96
660.74	37233.24
660.89	37387.72
661.03	37467.30
661.17	37174.73
661.32	37294.10
661.46	37617.09
661.60	36966.42
661.74	37249.63
661.89	37570.28
662.03	36811.95
662.17	37291.76
662.31	37172.39
662.46	37305.80
662.60	36947.70
662.74	36823.65
662.88	36830.67
663.03	36498.31
663.17	36800.24
663.31	36252.56
663.45	36414.05
663.60	36381.29
663.74	36388.31
663.88	36505.34
664.02	36683.22
664.17	36907.91
664.31	36746.41
664.45	36446.82
664.59	35857.01
664.73	36641.09
664.88	36107.44
665.02	35725.94
665.16	36077.02
665.30	36215.11
665.44	36112.13
665.59	35826.58
665.73	35978.72
665.87	35618.27
666.01	36081.70
666.15	35501.25
666.29	35878.07
666.44	35941.27
666.58	35864.03
666.72	35276.55
666.86	35730.62
667.00	35431.03
667.14	35419.33
667.28	35304.64
667.43	35304.64
667.57	35152.51
667.71	35180.59
667.85	35271.87
667.99	34845.90
668.13	34747.59
668.27	35044.84
668.41	35236.77
668.56	34824.83
668.70	35101.01
668.84	35150.17
668.98	34888.03
669.12	35332.73
669.26	34457.37
669.40	34689.08
669.54	34642.27
669.68	34515.88
669.82	34155.44
669.96	34464.39
670.10	34373.11
670.25	34356.72
670.39	34094.58
670.53	34040.75
670.67	33900.32
670.81	34377.79
670.95	34410.56
671.09	34031.39
671.23	33764.57
671.37	33806.70
671.51	33923.72
671.65	33418.17
671.79	33806.70
671.93	33706.05
672.07	33481.36
672.21	33118.58
672.35	33326.89
672.49	33141.99
672.63	33432.21
672.77	33003.89
672.91	33268.37
673.05	32844.74
673.19	33619.46
673.33	33333.91
673.47	32968.79
673.61	33043.68
673.75	33120.92
673.89	32795.59
674.03	33067.09
674.17	33006.23
674.31	32606.00
674.45	32432.80
674.59	32591.96
674.73	32470.25
674.87	31878.10
675.01	31871.07
675.15	31981.08
675.29	31651.06
675.43	32079.38
675.56	32128.53
675.70	32112.15
675.84	31903.84
675.98	31129.12
676.12	32107.47
676.26	31885.12
676.40	31522.34
676.54	31409.99
676.68	31332.75
676.82	30340.36
676.96	31213.38
677.10	31009.76
677.23	30890.39
677.37	30649.32
677.51	30710.17
677.65	30579.10
677.79	30579.10
677.93	30258.45
678.07	30398.88
678.21	30342.70
678.34	30235.04
678.48	29998.65
678.62	30005.67
678.76	29998.65
678.90	29556.28
679.04	29563.31
679.18	29575.01
679.31	29289.46
679.45	29355.00
679.59	29308.19
679.73	29252.02
679.87	28830.72
680.00	29252.02
680.14	28933.70
680.28	29109.24
680.42	28896.25
680.56	28786.25
680.70	28706.67
680.83	28919.66
680.97	28737.10
681.11	28711.35
681.25	28648.16
681.39	28280.69
681.52	28367.29
681.66	28240.90
681.80	28030.26
681.94	27901.53
682.07	27981.10
682.21	27894.50
682.35	27730.67
682.49	27534.06
682.62	27527.04
682.76	27264.90
682.90	27307.03
683.04	27285.97
683.17	27435.76
683.31	27456.82
683.45	27447.46
683.59	26698.49
683.72	27035.53
683.86	26899.78
684.00	26979.36
684.13	26536.99
684.27	26597.85
684.41	26251.45
684.55	26171.87
684.68	26340.39
684.82	26223.36
684.96	25694.40
685.09	25874.62
685.23	25862.92
685.37	25898.03
685.50	26185.91
685.64	25898.03
685.78	25986.97
685.91	25621.84
686.05	25813.77
686.19	25518.86
686.32	25362.04
686.46	25102.25
686.60	24968.84
686.73	25057.78
686.87	24865.85
687.01	24570.94
687.14	24596.69
687.28	24484.34
687.42	24533.50
687.55	24683.29
687.69	24339.23
687.82	24336.89
687.96	24465.62
688.10	24343.91
688.23	24327.53
688.37	23946.02
688.50	24182.42
688.64	24100.50
688.78	24086.45
688.91	23653.45
689.05	23751.76
689.18	23461.53
689.32	22981.72
689.46	23246.20
689.59	23316.42
689.73	23363.23
689.86	23159.60
690.00	22909.16
690.13	22984.06
690.27	22796.82
690.41	22904.48
690.54	22593.19
690.68	22478.50
690.81	22623.62
690.95	22696.17
691.08	22661.07
691.22	22675.11
691.35	21928.48
691.49	22443.40
691.62	22214.02
691.76	22118.06
691.89	22052.53
692.03	21664.00
692.16	21708.47
692.30	21516.54
692.43	21184.19
692.57	21195.89
692.70	21144.40
692.84	21469.73
692.97	21436.97
693.11	21343.35
693.24	20952.48
693.38	21184.19
693.51	21067.16
693.65	21064.82
693.78	20685.65
693.92	20992.26
694.05	20648.21
694.19	20561.61
694.32	20610.76
694.45	20320.53
694.59	20142.65
694.72	20177.76
694.86	20013.92
694.99	19590.28
695.13	19922.64
695.26	19878.17
695.39	19616.03
695.53	19742.42
695.66	19941.36
695.80	20016.26
695.93	19728.38
696.07	19506.02
696.20	19293.04
696.33	19185.37
696.47	19435.81
696.60	18956.00
696.73	19143.24
696.87	19508.37
697.00	18815.57
697.14	18792.16
697.27	18651.73
697.40	18377.89
697.54	18480.87
697.67	18417.68
697.80	18345.12
697.94	18078.30
698.07	18047.87
698.21	17893.40
698.34	18483.21
698.47	17961.27
698.61	18026.81
698.74	18125.11
698.87	18148.51
699.01	17930.84
699.14	17628.92
699.27	17685.09
699.40	17336.35
699.54	17476.78
699.67	17111.66
699.80	17163.15
699.94	17109.32
700.07	16915.05
700.20	16638.87
700.34	16741.85
700.47	16802.71
700.60	17092.93
700.73	17074.21
700.87	16678.66
701.00	16570.99
701.13	16538.23
701.26	16538.23
701.40	16699.72
701.53	16475.03
701.66	16327.58
701.79	16145.02
701.93	16257.36
702.06	16093.52
702.19	15899.26
702.32	15740.10
702.46	15896.92
702.59	15765.85
702.72	15480.30
702.85	15484.98
702.99	15360.94
703.12	15634.78
703.25	15391.36
703.38	15180.71
703.51	15332.85
703.65	15269.66
703.78	15136.24
703.91	15215.82
704.04	14824.95
704.17	15066.03
704.31	14949.00
704.44	14941.98
704.57	14963.04
704.70	14738.35
704.83	14539.41
704.96	14335.78
705.10	14373.23
705.23	14574.52
>>>>>End Processed Spectral Data<<<<<
