SpectraSuite Data File
++++++++++++++++++++++++++++++++++++
Date: Fri Oct 04 11:39:36 GMT-05:00 2013
User: price-jones
Dark Spectrum Present: No
Reference Spectrum Present: No
Number of Sampled Component Spectra: 1
Spectrometers: USB2+H05261
Integration Time (usec): 100000 (USB2+H05261)
Spectra Averaged: 1 (USB2+H05261)
Boxcar Smoothing: 0 (USB2+H05261)
Correct for Electrical Dark: No (USB2+H05261)
Strobe/Lamp Enabled: No (USB2+H05261)
Correct for Detector Non-linearity: No (USB2+H05261)
Correct for Stray Light: No (USB2+H05261)
Number of Pixels in Processed Spectrum: 2048
>>>>>Begin Processed Spectral Data<<<<<
365.73	0.00
365.92	0.00
366.12	0.00
366.32	0.00
366.52	0.00
366.72	0.00
366.91	0.00
367.11	0.00
367.31	0.00
367.51	0.00
367.70	0.00
367.90	0.00
368.10	0.00
368.30	0.00
368.49	0.00
368.69	46.81
368.89	16.38
369.09	0.00
369.28	0.00
369.48	0.00
369.68	0.00
369.87	35.11
370.07	44.47
370.27	25.75
370.47	196.60
370.66	280.86
370.86	353.42
371.06	332.36
371.25	262.14
371.45	327.68
371.65	358.10
371.84	322.99
372.04	259.80
372.24	372.15
372.44	397.89
372.63	358.10
372.83	381.51
373.03	362.78
373.22	421.30
373.42	458.74
373.62	395.55
373.81	505.56
374.01	451.72
374.21	517.26
374.40	482.15
374.60	468.11
374.79	449.38
374.99	442.36
375.19	423.64
375.38	498.53
375.58	461.09
375.78	447.04
375.97	514.92
376.17	575.77
376.37	468.11
376.56	486.83
376.76	463.43
376.95	477.47
377.15	519.60
377.35	503.22
377.54	526.62
377.74	505.56
377.93	500.87
378.13	519.60
378.33	535.98
378.52	489.17
378.72	491.51
378.91	564.07
379.11	409.59
379.31	559.39
379.50	585.13
379.70	578.11
379.89	538.32
380.09	458.74
380.28	451.72
380.48	603.86
380.68	578.11
380.87	533.64
381.07	561.73
381.26	653.01
381.46	524.28
381.65	557.05
381.85	538.32
382.04	528.96
382.24	608.54
382.43	662.37
382.63	638.97
382.83	678.76
383.02	601.52
383.22	690.46
383.41	636.63
383.61	634.29
383.80	617.90
384.00	566.41
384.19	650.67
384.39	695.14
384.58	678.76
384.78	657.69
384.97	692.80
385.17	608.54
385.36	678.76
385.56	741.95
385.75	669.39
385.95	671.73
386.14	674.07
386.34	683.44
386.53	660.03
386.72	638.97
386.92	805.14
387.11	713.86
387.31	772.38
387.50	718.54
387.70	772.38
387.89	713.86
388.09	737.27
388.28	688.12
388.48	814.51
388.67	765.36
388.86	739.61
389.06	793.44
389.25	784.08
389.45	807.48
389.64	800.46
389.84	926.85
390.03	805.14
390.22	800.46
390.42	760.67
390.61	763.01
390.81	912.81
391.00	765.36
391.19	807.48
391.39	821.53
391.58	800.46
391.78	816.85
391.97	830.89
392.16	903.45
392.36	978.34
392.55	940.90
392.75	912.81
392.94	873.02
393.13	887.06
393.33	980.68
393.52	971.32
393.71	1043.88
393.91	992.39
394.10	919.83
394.29	1039.20
394.49	976.00
394.68	954.94
394.88	924.51
395.07	938.55
395.26	1006.43
395.46	945.58
395.65	992.39
395.84	978.34
396.04	1088.35
396.23	1060.26
396.42	1071.97
396.62	1034.52
396.81	1076.65
397.00	1118.78
397.19	1160.91
397.39	1071.97
397.58	1090.69
397.77	1095.37
397.97	1193.67
398.16	1146.86
398.35	1186.65
398.55	1069.62
398.74	1163.25
398.93	1193.67
399.12	1118.78
399.32	1158.57
399.51	1198.35
399.70	1214.74
399.90	1160.91
400.09	1256.87
400.28	1315.38
400.47	1203.04
400.67	1359.85
400.86	1287.29
401.05	1301.34
401.24	1397.30
401.44	1238.14
401.63	1263.89
401.82	1437.09
402.01	1350.49
402.21	1453.47
402.40	1383.26
402.59	1362.19
402.78	1430.07
402.97	1439.43
403.17	1465.18
403.36	1500.28
403.55	1500.28
403.74	1472.20
403.93	1577.52
404.13	1675.82
404.32	1575.18
404.51	1514.33
404.70	1640.72
404.89	1537.73
405.09	1722.63
405.28	1551.78
405.47	1610.29
405.66	1605.61
405.85	1675.82
406.05	1598.59
406.24	1652.42
406.43	1675.82
406.62	1736.68
406.81	1750.72
407.00	1743.70
407.20	1802.21
407.39	1621.99
407.58	1720.29
407.77	1795.19
407.96	1863.07
408.15	1823.28
408.34	1860.73
408.54	1914.56
408.73	1870.09
408.92	1914.56
409.11	1872.43
409.30	1942.64
409.49	1956.69
409.68	1954.35
409.87	1916.90
410.07	2010.52
410.26	2078.40
410.45	2026.90
410.64	2015.20
410.83	2104.14
411.02	1954.35
411.21	2104.14
411.40	2200.10
411.59	2200.10
411.78	2221.17
411.98	2204.78
412.17	2249.25
412.36	2195.42
412.55	2260.96
412.74	2370.96
412.93	2317.13
413.12	2312.45
413.31	2305.43
413.50	2502.03
413.69	2483.31
413.88	2525.44
414.07	2506.71
414.26	2551.18
414.45	2553.52
414.64	2478.63
414.83	2647.15
415.02	2607.36
415.22	2602.68
415.41	2715.02
415.60	2806.30
415.79	2768.85
415.98	2848.43
416.17	2913.97
416.36	2888.22
416.55	2932.69
416.74	2855.45
416.93	2949.08
417.12	2834.39
417.31	2881.20
417.50	2967.80
417.69	3063.76
417.88	3112.91
418.07	3054.40
418.26	3047.38
418.45	3021.63
418.64	3265.05
418.83	3131.64
419.02	3080.14
419.21	3248.66
419.39	3293.13
419.58	3328.24
419.77	3180.79
419.96	3176.11
420.15	3288.45
420.34	3178.45
420.53	3358.67
420.72	3478.04
420.91	3604.42
421.10	3342.28
421.29	3487.40
421.48	3330.58
421.67	3400.80
421.86	3440.59
422.05	3449.95
422.24	3349.31
422.43	3410.16
422.61	3492.08
422.80	3496.76
422.99	3515.48
423.18	3655.92
423.37	3625.49
423.56	3625.49
423.75	3576.34
423.94	3520.17
424.13	3316.54
424.32	3447.61
424.50	3583.36
424.69	3691.02
424.88	3698.05
425.07	3616.13
425.26	3660.60
425.45	3595.06
425.64	3667.62
425.83	3681.66
426.01	3726.13
426.20	3772.94
426.39	3695.71
426.58	3641.87
426.77	3651.24
426.96	3779.97
427.15	3581.02
427.33	3819.75
427.52	3829.12
427.71	3857.20
427.90	3854.86
428.09	3920.40
428.28	3889.97
428.46	3833.80
428.65	4018.70
428.84	3983.59
429.03	4046.79
429.22	3913.38
429.40	3831.46
429.59	4119.34
429.78	3873.59
429.97	3920.40
430.16	3948.48
430.34	4091.26
430.53	4053.81
430.72	4070.19
430.91	4166.15
431.10	3885.29
431.28	4079.55
431.47	4280.84
431.66	4266.80
431.85	4210.62
432.03	4297.22
432.22	4346.37
432.41	4222.33
432.60	4294.88
432.79	4353.40
432.97	4414.25
433.16	4416.59
433.35	4259.78
433.54	4301.90
433.72	4514.89
433.91	4395.53
434.10	4458.72
434.28	4421.27
434.47	4517.23
434.66	4496.17
434.85	4692.77
435.03	4589.79
435.22	4772.35
435.41	5043.85
435.59	5053.22
435.78	5001.72
435.97	4844.91
436.16	4720.86
436.34	4652.98
436.53	4709.16
436.72	4809.80
436.90	4727.88
437.09	4791.08
437.28	4702.14
437.46	4898.74
437.65	4751.29
437.84	4936.19
438.02	4894.06
438.21	5022.79
438.40	4896.40
438.58	5057.90
438.77	5149.18
438.96	5034.49
439.14	5128.11
439.33	5186.63
439.52	5139.82
439.70	5198.33
439.89	5341.10
440.08	5416.00
440.26	5420.68
440.45	5305.99
440.63	5621.97
440.82	5589.20
441.01	5577.50
441.19	5556.43
441.38	5563.45
441.57	5680.48
441.75	5750.70
441.94	5715.59
442.12	5717.93
442.31	5755.38
442.50	5703.89
442.68	5724.95
442.87	5886.45
443.05	5846.66
443.24	5996.45
443.43	5844.32
443.61	5991.77
443.80	6174.33
443.98	5951.98
444.17	5792.83
444.35	5874.74
444.54	6078.37
444.73	5937.94
444.91	6083.05
445.10	6097.10
445.28	6216.46
445.47	6099.44
445.65	6019.86
445.84	6216.46
446.02	6108.80
446.21	5980.07
446.39	6076.03
446.58	6160.29
446.77	6326.47
446.95	6054.97
447.14	6169.65
447.32	6317.11
447.51	6099.44
447.69	6218.80
447.88	6216.46
448.06	6069.01
448.25	6057.31
448.43	6244.55
448.62	6132.20
448.80	6291.36
448.99	6193.06
449.17	6356.90
449.36	6415.41
449.54	6572.22
449.73	6590.95
449.91	6612.01
450.10	6469.24
450.28	6665.85
450.46	6516.05
450.65	6544.14
450.83	6583.93
451.02	6572.22
451.20	6630.74
451.39	6750.10
451.57	6560.52
451.76	6628.40
451.94	6614.35
452.13	6637.76
452.31	6682.23
452.49	6647.12
452.68	6675.21
452.86	6715.00
453.05	6670.53
453.23	6958.41
453.42	6757.13
453.60	6923.30
453.78	6888.20
453.97	6668.19
454.15	6916.28
454.34	6892.88
454.52	7103.53
454.70	7096.50
454.89	6970.12
455.07	6939.69
455.26	6890.54
455.44	7302.47
455.62	7155.02
455.81	6988.84
455.99	7045.01
456.17	7211.19
456.36	7342.26
456.54	7400.77
456.73	7449.93
456.91	7382.05
457.09	7527.16
457.28	7611.42
457.46	7351.62
457.64	7606.74
457.83	7688.66
458.01	7302.47
458.19	7793.98
458.38	7508.44
458.56	7674.62
458.74	7691.00
458.93	7688.66
459.11	7698.02
459.29	7742.49
459.48	7896.97
459.66	7611.42
459.84	7911.01
460.03	7915.69
460.21	7885.26
460.39	7763.56
460.57	7957.82
460.76	7920.37
460.94	7997.61
461.12	8105.28
461.31	8131.02
461.49	8016.33
461.67	8173.15
461.85	8198.90
462.04	7976.55
462.22	8236.35
462.40	8332.31
462.59	8196.56
462.77	8336.99
462.95	8290.18
463.13	8308.90
463.32	8430.61
463.50	8222.30
463.68	8271.45
463.86	8423.59
464.05	8248.05
464.23	8149.75
464.41	8496.14
464.59	8287.84
464.78	8645.94
464.96	8442.31
465.14	8524.23
465.32	8568.70
465.50	8734.88
465.69	8667.00
465.87	8706.79
466.05	8772.33
466.23	8594.45
466.41	8723.18
466.60	8760.63
466.78	8580.40
466.96	8762.97
467.14	8688.07
467.32	8791.05
467.51	8903.40
467.69	8671.68
467.87	9078.94
468.05	8964.25
468.23	8814.46
468.41	8964.25
468.60	8950.21
468.78	9055.53
468.96	8943.19
469.14	9111.71
469.32	9118.73
469.50	8968.93
469.69	9184.26
469.87	9554.07
470.05	9383.21
470.23	9383.21
470.41	9357.46
470.59	9366.82
470.77	9460.45
470.95	9369.16
471.14	9659.39
471.32	9584.49
471.50	9717.90
471.68	9694.50
471.86	9713.22
472.04	9745.99
472.22	9795.14
472.40	9708.54
472.58	9839.61
472.77	10129.84
472.95	10230.48
473.13	10326.44
473.31	9933.23
473.49	9713.22
473.67	10293.68
473.85	10251.55
474.03	10420.06
474.21	10111.11
474.39	10246.87
474.57	10609.65
474.75	10698.59
474.93	10637.73
475.12	10607.31
475.30	10752.42
475.48	10654.12
475.66	10827.32
475.84	10876.47
476.02	11084.78
476.20	10822.64
476.38	11021.58
476.56	11379.68
476.74	11143.29
476.92	11328.19
477.10	11063.71
477.28	11459.26
477.46	11618.42
477.64	11442.88
477.82	11665.23
478.00	11894.60
478.18	11770.55
478.36	11974.18
478.54	12077.16
478.72	12365.05
478.90	12351.01
479.08	12325.26
479.26	12362.71
479.44	12486.76
479.62	12578.04
479.80	12734.85
479.98	12624.85
480.16	12837.84
480.34	12823.80
480.52	13116.36
480.70	12957.21
480.88	13041.46
481.06	13170.19
481.24	13139.77
481.41	13481.49
481.59	13666.39
481.77	13731.92
481.95	14071.30
482.13	13944.91
482.31	13535.32
482.49	13965.98
482.67	14146.20
482.85	14169.60
483.03	14572.18
483.21	14827.29
483.39	14775.80
483.57	14721.97
483.74	14871.76
483.92	14960.70
484.10	14850.70
484.28	15403.07
484.46	15389.02
484.64	15770.53
484.82	15449.88
485.00	15536.48
485.18	15927.35
485.35	15922.66
485.53	16191.83
485.71	16194.17
485.89	16372.05
486.07	16123.95
486.25	16311.19
486.43	16601.42
486.61	16716.11
486.78	17135.06
486.96	17048.46
487.14	17249.75
487.32	17282.52
487.50	17472.10
487.68	17469.76
487.85	17696.79
488.03	18045.53
488.21	18190.64
488.39	18321.71
488.57	18260.86
488.75	18345.12
488.92	18412.99
489.10	18902.17
489.28	19012.17
489.46	19005.15
489.64	19281.33
489.81	19482.62
489.99	19531.77
490.17	19372.61
490.35	19786.89
490.53	19351.55
490.70	19803.27
490.88	19625.39
491.06	20063.07
491.24	19894.55
491.41	20365.00
491.59	20444.58
491.77	20301.81
491.95	21097.59
492.13	21029.71
492.30	20908.01
492.48	21149.08
492.66	20954.82
492.84	21191.21
493.01	21113.97
493.19	21149.08
493.37	21750.60
493.54	21720.17
493.72	21724.85
493.90	21806.77
494.08	22188.28
494.25	22169.55
494.43	22504.25
494.61	22485.53
494.79	22733.62
494.96	22377.86
495.14	22672.77
495.32	22941.93
495.49	22719.58
495.67	23213.43
495.85	23206.41
496.02	23229.82
496.20	23253.22
496.38	23985.81
496.55	23784.52
496.73	24563.92
496.91	24360.30
497.09	23896.87
497.26	24224.54
497.44	24194.12
497.62	24449.24
497.79	24837.76
497.97	24573.28
498.14	24943.09
498.32	25287.15
498.50	25380.77
498.67	25385.45
498.85	25170.12
499.03	25638.23
499.20	25809.09
499.38	25605.46
499.56	25689.72
499.73	25731.85
499.91	25790.36
500.08	25869.94
500.26	26045.48
500.44	26153.15
500.61	26445.71
500.79	25996.33
500.97	26403.58
501.14	26897.44
501.32	26639.98
501.49	26960.63
501.67	26771.05
501.84	27037.87
502.02	26918.50
502.20	27077.66
502.37	27520.02
502.55	27274.26
502.72	27487.25
502.90	27318.73
503.07	27421.72
503.25	28297.08
503.43	27625.34
503.60	27938.97
503.78	27892.16
503.95	28116.86
504.13	28154.30
504.30	28400.06
504.48	28261.97
504.65	28268.99
504.83	28683.27
505.01	29235.63
505.18	28699.65
505.36	29151.37
505.53	28877.53
505.71	28809.65
505.88	29193.50
506.06	28765.18
506.23	29383.09
506.41	28896.25
506.58	29116.26
506.76	29537.56
506.93	29387.77
507.11	29319.89
507.28	29226.27
507.46	29544.58
507.63	29820.77
507.81	30237.38
507.98	29610.12
508.16	30328.66
508.33	29790.34
508.50	30333.34
508.68	30359.09
508.85	30525.27
509.03	30338.02
509.20	30787.41
509.38	30712.51
509.55	31068.27
509.73	30728.89
509.90	30899.75
510.08	30927.84
510.25	31101.04
510.42	31054.23
510.60	30976.99
510.77	31838.31
510.95	31669.79
511.12	31395.95
511.30	31700.22
511.47	31929.59
511.64	32027.89
511.82	31840.65
511.99	31924.91
512.17	32287.69
512.34	31758.73
512.51	32603.66
512.69	32484.30
512.86	32065.34
513.04	32959.42
513.21	32418.76
513.38	32716.01
513.56	33034.32
513.73	32678.56
513.90	33017.94
514.08	32748.78
514.25	33277.74
514.43	33284.76
514.60	33347.95
514.77	33221.56
514.95	33766.91
515.12	33394.76
515.29	32910.27
515.47	33584.35
515.64	33558.60
515.81	34054.79
515.99	33902.66
516.16	33982.24
516.33	34080.54
516.51	34345.02
516.68	33301.14
516.85	34015.01
517.03	34110.97
517.20	34206.93
517.37	34483.11
517.54	34455.03
517.72	34696.10
517.89	34663.33
518.06	34682.06
518.24	34543.97
518.41	35014.41
518.58	34691.42
518.75	34885.68
518.93	35484.86
519.10	35019.10
519.27	35309.32
519.45	35129.10
519.62	35367.84
519.79	35168.89
519.96	35255.49
520.14	35358.47
520.31	35648.70
520.48	35824.24
520.65	35756.36
520.83	35948.29
521.00	35854.67
521.17	35819.56
521.34	35992.76
521.52	36444.48
521.69	36201.07
521.86	36149.57
522.03	36608.32
522.20	36364.90
522.38	36467.89
522.55	36458.52
522.72	36479.59
522.89	36692.58
523.07	36893.86
523.24	36849.39
523.41	36776.84
523.58	36547.47
523.75	37177.07
523.92	37156.00
524.10	36788.54
524.27	37069.40
524.44	37675.60
524.61	37495.38
524.78	37385.38
524.96	37717.73
525.13	37741.14
525.30	37476.66
525.47	37715.39
525.64	37720.07
525.81	37523.47
525.98	38270.10
526.16	37680.28
526.33	37897.95
526.50	38485.43
526.67	37703.69
526.84	38101.58
527.01	37794.97
527.18	37865.19
527.36	38368.40
527.53	38927.79
527.70	38696.08
527.87	38473.73
528.04	38822.47
528.21	38450.32
528.38	38754.59
528.55	38845.87
528.72	38593.09
528.89	38639.90
529.07	38885.66
529.24	39215.68
529.41	39440.37
529.58	38721.82
529.75	38841.19
529.92	39239.08
530.09	39103.33
530.26	38871.62
530.43	39454.41
530.60	39278.87
530.77	39285.89
530.94	39199.29
531.11	39044.82
531.28	39098.65
531.46	39723.57
531.63	39557.39
531.80	39522.29
531.97	40470.20
532.14	40041.88
532.31	39990.39
532.48	39756.34
532.65	40385.94
532.82	39683.78
532.99	39845.28
533.16	40088.70
533.33	39985.71
533.50	40472.54
533.67	40058.27
533.84	40135.51
534.01	40292.32
534.18	40041.88
534.35	40921.93
534.52	40622.34
534.69	40762.77
534.86	41315.14
535.03	40627.02
535.20	41076.40
535.37	40711.28
535.54	40570.85
535.71	40699.58
535.88	40615.32
536.05	41027.25
536.22	41364.29
536.38	41368.97
536.55	41392.37
536.72	41680.26
536.89	40715.96
537.06	41359.61
537.23	41258.96
537.40	41380.67
537.57	41478.97
537.74	41511.74
537.91	42010.28
538.08	41855.80
538.25	41469.61
538.42	41900.27
538.59	41776.22
538.75	41542.17
538.92	41689.62
539.09	41757.50
539.26	41652.17
539.43	42021.98
539.60	42349.65
539.77	42014.96
539.94	42497.11
540.11	42597.75
540.28	42560.30
540.44	42581.37
540.61	42522.85
540.78	42501.79
540.95	42417.53
541.12	42246.67
541.29	42834.14
541.46	42454.98
541.62	42380.08
541.79	42553.28
541.96	43021.39
542.13	42288.80
542.30	43119.69
542.47	43597.16
542.63	43470.77
542.80	43648.65
542.97	43442.68
543.14	43716.53
543.31	43557.37
543.48	43559.71
543.64	43817.17
543.81	43590.14
543.98	43519.92
544.15	43805.47
544.32	44161.23
544.48	44205.70
544.65	43742.27
544.82	43620.56
544.99	43768.02
545.16	43772.70
545.32	43650.99
545.49	44666.78
545.66	44779.13
545.83	44816.58
546.00	44964.03
546.16	44076.97
546.33	43885.04
546.50	43606.52
546.67	43901.43
546.83	44091.01
547.00	44151.87
547.17	44294.64
547.34	43840.57
547.50	43910.79
547.67	44669.12
547.84	44367.20
548.00	44329.75
548.17	44189.31
548.34	44158.89
548.51	44748.70
548.67	44563.80
548.84	44865.73
549.01	44158.89
549.18	44243.15
549.34	44425.71
549.51	44463.16
549.68	44708.91
549.84	44442.09
550.01	44729.98
550.18	44865.73
550.34	44612.95
550.51	44645.72
550.68	45015.52
550.84	44886.79
551.01	44861.05
551.18	44509.97
551.34	44603.59
551.51	44931.26
551.68	44865.73
551.84	44935.95
552.01	44516.99
552.18	44910.20
552.34	44741.68
552.51	45237.87
552.68	45148.93
552.84	45425.12
553.01	44975.73
553.18	45230.85
553.34	45343.20
553.51	45109.14
553.67	45368.94
553.84	45851.09
554.01	45294.05
554.17	45481.29
554.34	45270.64
554.51	45338.52
554.67	45661.51
554.84	45364.26
555.00	45352.56
555.17	45677.90
555.33	45574.91
555.50	45750.45
555.67	45441.50
555.83	45619.38
556.00	45860.46
556.16	45869.82
556.33	45364.26
556.50	45249.58
556.66	45853.44
556.83	45876.84
556.99	45617.04
557.16	45911.95
557.32	45923.65
557.49	45820.67
557.65	45715.34
557.82	45509.38
557.98	45724.71
558.15	46209.20
558.32	46136.64
558.48	46099.19
558.65	46307.50
558.81	46265.37
558.98	45897.91
559.14	45799.60
559.31	45874.50
559.47	46138.98
559.64	46134.30
559.80	45872.16
559.97	46302.82
560.13	45890.88
560.30	45991.53
560.46	46410.48
560.63	46305.16
560.79	46403.46
560.96	46270.05
561.12	46014.93
561.29	46307.50
561.45	45993.87
561.61	46623.47
561.78	46733.48
561.94	46330.90
562.11	46358.99
562.27	45956.42
562.44	46225.58
562.60	46630.49
562.77	46309.84
562.93	46316.86
563.10	46639.86
563.26	46183.45
563.42	46857.52
563.59	46256.01
563.75	46321.54
563.92	46604.75
564.08	46129.62
564.24	46485.38
564.41	46471.34
564.57	46391.76
564.74	46335.59
564.90	46438.57
565.07	47100.94
565.23	46522.83
565.39	46138.98
565.56	46759.22
565.72	46380.06
565.88	46295.80
566.05	46337.93
566.21	46239.62
566.38	46653.90
566.54	46183.45
566.70	46525.17
566.87	47114.98
567.03	46520.49
567.19	46653.90
567.36	46944.12
567.52	46588.36
567.68	46841.14
567.85	46281.75
568.01	46766.24
568.17	46857.52
568.34	46838.80
568.50	46712.41
568.66	46543.89
568.83	47152.43
568.99	46426.87
569.15	46494.74
569.32	47079.88
569.48	46197.49
569.64	46581.34
569.81	46787.31
569.97	47042.43
570.13	46735.82
570.30	46761.56
570.46	46878.59
570.62	46873.91
570.78	46520.49
570.95	46248.99
571.11	46845.82
571.27	46663.26
571.43	46747.52
571.60	46927.74
571.76	46806.03
571.92	47000.30
572.09	47054.13
572.25	46859.87
572.41	47077.54
572.57	46703.05
572.74	46965.19
572.90	46878.59
573.06	46504.10
573.22	47028.38
573.38	46836.46
573.55	46485.38
573.71	46892.63
573.87	47222.65
574.03	46927.74
574.20	46759.22
574.36	47019.02
574.52	46740.50
574.68	47145.41
574.84	46864.55
575.01	47288.18
575.17	46958.17
575.33	46920.72
575.49	46972.21
575.65	46862.21
575.82	47217.97
575.98	46838.80
576.14	47168.82
576.30	46803.69
576.46	47028.38
576.62	46873.91
576.79	46738.16
576.95	47054.13
577.11	46906.68
577.27	47026.04
577.43	47232.01
577.59	47185.20
577.75	46953.49
577.92	46670.28
578.08	46417.50
578.24	46852.84
578.40	47098.60
578.56	46887.95
578.72	46969.87
578.88	47461.38
579.04	47309.25
579.21	46990.94
579.37	47122.01
579.53	47112.64
579.69	46689.01
579.85	47248.39
580.01	46876.25
580.17	46656.24
580.33	47117.32
580.49	47114.98
580.65	47356.06
580.82	47096.26
580.98	46621.13
581.14	46927.74
581.30	46740.50
581.46	46747.52
581.62	47363.08
581.78	46653.90
581.94	46747.52
582.10	46993.28
582.26	47119.66
582.42	46899.65
582.58	47374.78
582.74	47227.33
582.90	46944.12
583.06	47154.77
583.22	46471.34
583.38	46976.89
583.54	47199.24
583.70	47412.23
583.86	46965.19
584.02	46684.33
584.18	47028.38
584.34	47487.13
584.50	47093.92
584.66	47044.77
584.82	47033.07
584.98	46759.22
585.14	46897.31
585.30	47042.43
585.46	46948.81
585.62	47201.58
585.78	46918.38
585.94	46747.52
586.10	46754.54
586.26	47454.36
586.42	47409.89
586.58	47564.37
586.74	47477.77
586.90	46651.56
587.06	46576.66
587.22	47023.70
587.38	47217.97
587.54	47805.44
587.70	47437.98
587.86	47157.11
588.02	47454.36
588.18	47381.80
588.34	47255.42
588.49	47374.78
588.65	46817.74
588.81	46686.67
588.97	47068.17
589.13	47002.64
589.29	46897.31
589.45	46883.27
589.61	47278.82
589.77	47646.29
589.93	47372.44
590.08	47023.70
590.24	47452.02
590.40	47386.49
590.56	47552.66
590.72	47201.58
590.88	47110.30
591.04	47306.91
591.20	47456.70
591.35	47566.71
591.51	47859.27
591.67	47533.94
591.83	47346.70
591.99	47236.69
592.15	47290.52
592.31	47648.63
592.46	47323.29
592.62	46941.78
592.78	47440.32
592.94	47140.73
593.10	47449.68
593.26	47814.80
593.41	47206.26
593.57	47470.75
593.73	47487.13
593.89	47945.87
594.05	47508.19
594.20	47164.14
594.36	47164.14
594.52	47107.96
594.68	47171.16
594.84	47281.16
594.99	47391.17
595.15	47260.10
595.31	47508.19
595.47	47473.09
595.62	47496.49
595.78	47423.93
595.94	47484.79
596.10	47629.90
596.25	47283.50
596.41	47501.17
596.57	47428.62
596.73	47412.23
596.88	47229.67
597.04	47112.64
597.20	47749.27
597.36	47562.03
597.51	47604.16
597.67	47114.98
597.83	47517.56
597.99	47599.47
598.14	47098.60
598.30	47313.93
598.46	47569.05
598.61	47327.97
598.77	47281.16
598.93	47372.44
599.09	47419.25
599.24	47917.79
599.40	47739.91
599.56	47679.05
599.71	47590.11
599.87	47239.03
600.03	47576.07
600.18	47461.38
600.34	47229.67
600.50	47243.71
600.65	47260.10
600.81	47847.57
600.97	47576.07
601.12	47665.01
601.28	47421.59
601.44	46976.89
601.59	47316.27
601.75	47295.21
601.91	47423.93
602.06	47337.33
602.22	47075.19
602.37	47213.29
602.53	47407.55
602.69	47777.36
602.84	47686.07
603.00	47070.51
603.16	47639.26
603.31	47241.37
603.47	47091.58
603.62	47145.41
603.78	47363.08
603.94	46972.21
604.09	47402.87
604.25	47114.98
604.40	47255.42
604.56	47342.02
604.71	47131.37
604.87	47398.19
605.03	47498.83
605.18	47208.61
605.34	46803.69
605.49	46829.44
605.65	46972.21
605.80	46883.27
605.96	46979.23
606.12	47288.18
606.27	46878.59
606.43	47173.50
606.58	47313.93
606.74	47339.68
606.89	46976.89
607.05	46939.44
607.20	47299.89
607.36	46684.33
607.51	46885.61
607.67	47082.22
607.82	46494.74
607.98	46717.09
608.13	47054.13
608.29	46789.65
608.44	46689.01
608.60	47178.18
608.75	47440.32
608.91	47070.51
609.06	47243.71
609.22	47278.82
609.37	46986.25
609.53	46492.40
609.68	46663.26
609.84	46653.90
609.99	47009.66
610.15	46728.80
610.30	47224.99
610.46	47161.79
610.61	47267.12
610.76	47852.25
610.92	47641.60
611.07	47498.83
611.23	47332.65
611.38	47075.19
611.54	47110.30
611.69	47253.08
611.84	46780.29
612.00	45921.31
612.15	46852.84
612.31	46684.33
612.46	46843.48
612.62	46628.15
612.77	46653.90
612.92	46644.54
613.08	46724.11
613.23	46623.47
613.39	46541.55
613.54	46323.88
613.69	46171.75
613.85	46347.29
614.00	46298.14
614.15	46110.89
614.31	46382.40
614.46	46628.15
614.62	46422.19
614.77	46178.77
614.92	46445.59
615.08	46146.00
615.23	46164.73
615.38	46225.58
615.54	45776.20
615.69	46206.86
615.84	45600.66
616.00	45970.46
616.15	46038.34
616.30	46356.65
616.46	46066.42
616.61	46021.95
616.76	46204.52
616.92	46043.02
617.07	45806.62
617.22	45401.71
617.37	45488.31
617.53	45841.73
617.68	45656.83
617.83	45518.74
617.99	45598.32
618.14	45940.04
618.29	45631.08
618.45	45642.79
618.60	45614.70
618.75	45612.36
618.90	45504.70
619.06	45130.21
619.21	45530.44
619.36	45329.16
619.51	45170.00
619.67	44947.65
619.82	44680.83
619.97	45240.21
620.12	45069.36
620.28	45268.30
620.43	44966.37
620.58	45610.02
620.73	45228.51
620.89	44889.13
621.04	45385.33
621.19	45052.97
621.34	45043.61
621.49	45041.27
621.65	45059.99
621.80	45017.86
621.95	44896.16
622.10	45017.86
622.25	44996.80
622.41	44713.59
622.56	45064.67
622.71	45240.21
622.86	45008.50
623.01	44980.42
623.16	44975.73
623.32	44917.22
623.47	44971.05
623.62	45263.62
623.77	44673.81
623.92	44823.60
624.07	44648.06
624.23	44479.54
624.38	44519.33
624.53	44582.52
624.68	45071.70
624.83	44947.65
624.98	44500.61
625.13	44439.75
625.29	44584.86
625.44	44425.71
625.59	44467.84
625.74	44392.94
625.89	44140.16
626.04	43887.39
626.19	44135.48
626.34	44430.39
626.49	44109.74
626.65	44130.80
626.80	44348.47
626.95	44091.01
627.10	44231.44
627.25	43868.66
627.40	44156.55
627.55	43854.62
627.70	44006.75
627.85	43779.72
628.00	44011.43
628.15	43871.00
628.30	43714.19
628.45	43959.94
628.60	43538.65
628.76	44112.08
628.91	43789.08
629.06	43833.55
629.21	43468.43
629.36	43367.79
629.51	43164.16
629.66	43592.48
629.81	43185.22
629.96	43267.14
630.11	43435.66
630.26	43454.39
630.41	43138.41
630.56	43438.00
630.71	43812.49
630.86	43402.89
631.01	43620.56
631.16	43894.41
631.31	43288.21
631.46	43306.93
631.61	43365.45
631.76	43107.99
631.91	43016.71
632.06	42899.68
632.21	43328.00
632.36	43276.51
632.51	42864.57
632.66	43070.54
632.81	42827.12
632.96	43416.94
633.10	43037.77
633.25	43351.40
633.40	42988.62
633.55	42960.53
633.70	42899.68
633.85	42466.68
634.00	42539.24
634.15	42361.36
634.30	42323.91
634.45	42380.08
634.60	42513.49
634.75	42677.33
634.90	42799.04
635.05	42787.33
635.19	42466.68
635.34	42586.05
635.49	42710.10
635.64	42665.63
635.79	42464.34
635.94	42213.90
636.09	42391.78
636.24	41937.72
636.39	42244.33
636.53	42335.61
636.68	42059.43
636.83	42134.32
636.98	42284.12
637.13	42164.75
637.28	42354.33
637.43	42263.05
637.57	42389.44
637.72	42124.96
637.87	42195.18
638.02	42394.12
638.17	42471.36
638.32	41944.74
638.46	41818.35
638.61	41715.37
638.76	41497.70
638.91	41542.17
639.06	41404.08
639.20	41706.01
639.35	41883.89
639.50	41680.26
639.65	41900.27
639.80	42115.60
639.94	41401.74
640.09	41373.65
640.24	41757.50
640.39	41500.04
640.54	41202.79
640.68	41518.76
640.83	41614.72
640.98	41029.59
641.13	41181.73
641.27	41572.60
641.42	41003.85
641.57	41710.69
641.72	41343.22
641.86	41336.20
642.01	41078.74
642.16	41390.03
642.31	41078.74
642.45	40987.46
642.60	40935.97
642.75	40498.29
642.90	41254.28
643.04	40900.86
643.19	40851.71
643.34	41188.75
643.48	41055.34
643.63	41177.04
643.78	41118.53
643.93	41127.89
644.07	40966.40
644.22	41013.21
644.37	41001.50
644.51	40680.85
644.66	40835.33
644.81	40554.46
644.95	40451.48
645.10	41038.95
645.25	40554.46
645.39	40500.63
645.54	40779.15
645.69	40697.24
645.83	40624.68
645.98	41045.97
646.13	41067.04
646.27	40996.82
646.42	40694.89
646.57	40884.48
646.71	40308.71
646.86	40495.95
647.00	40432.75
647.15	39988.05
647.30	40580.21
647.44	40399.99
647.59	40137.85
647.74	40212.74
647.88	40060.61
648.03	40533.40
648.17	40212.74
648.32	40259.55
648.47	41010.87
648.61	40311.05
648.76	40208.06
648.90	40297.00
649.05	39990.39
649.20	39962.31
649.34	40205.72
649.49	39943.58
649.63	40079.33
649.78	40044.23
649.92	39840.60
650.07	40336.79
650.21	39880.39
650.36	40072.31
650.51	39976.35
650.65	39992.73
650.80	40074.65
650.94	39512.92
651.09	39590.16
651.23	39587.82
651.38	39541.01
651.52	39124.40
651.67	39693.15
651.81	39735.27
651.96	39321.00
652.10	39784.43
652.25	39608.89
652.39	39550.37
652.54	39709.53
652.68	39533.99
652.83	39232.06
652.97	40060.61
653.12	39438.03
653.26	39283.55
653.41	39533.99
653.55	39206.31
653.70	39138.44
653.84	39021.41
653.99	38735.87
654.13	39110.35
654.27	39234.40
654.42	38763.95
654.56	39054.18
654.71	39012.05
654.85	39218.02
655.00	38972.26
655.14	38684.37
655.29	38440.96
655.43	39215.68
655.57	38677.35
655.72	38693.74
655.86	38185.84
656.01	38717.14
656.15	38789.70
656.30	38653.95
656.44	38855.23
656.58	38447.98
656.73	39206.31
656.87	38436.28
657.01	38888.00
657.16	38677.35
657.30	38649.27
657.45	38506.49
657.59	38593.09
657.73	38330.95
657.88	38242.01
658.02	38354.36
658.16	37897.95
658.31	38426.92
658.45	37904.98
658.60	37902.64
658.74	38110.94
658.88	38120.31
659.03	37886.25
659.17	38164.78
659.31	38258.40
659.46	38258.40
659.60	38656.29
659.74	38150.73
659.89	37691.99
660.03	37708.37
660.17	37823.06
660.32	37640.50
660.46	37724.75
660.60	37607.73
660.74	37422.83
660.89	37525.81
661.03	37104.51
661.17	37401.76
661.32	37099.83
661.46	37205.16
661.60	37186.43
661.74	37523.47
661.89	37612.41
662.03	37378.36
662.17	36921.95
662.31	37160.69
662.46	37514.11
662.60	37076.43
662.74	36896.20
662.88	36643.43
663.03	36575.55
663.17	36856.42
663.31	36425.76
663.45	36720.66
663.60	36591.94
663.74	36301.71
663.88	36786.20
664.02	36460.87
664.17	36842.37
664.31	36521.72
664.45	36208.09
664.59	36156.60
664.73	36168.30
664.88	36449.16
665.02	36147.23
665.16	35615.93
665.30	36023.19
665.44	36385.97
665.59	35739.98
665.73	35756.36
665.87	35545.72
666.01	35363.15
666.15	35676.79
666.29	35861.69
666.44	35683.81
666.58	35618.27
666.72	35803.17
666.86	35681.47
667.00	35969.35
667.14	35281.24
667.28	35314.00
667.43	35447.41
667.57	34991.01
667.71	34932.50
667.85	35187.61
667.99	34927.81
668.13	34586.10
668.27	35093.99
668.41	34806.11
668.56	34820.15
668.70	35304.64
668.84	35388.90
668.98	34529.92
669.12	34862.28
669.26	34520.56
669.40	34328.64
669.54	34466.73
669.68	34672.70
669.82	34462.05
669.96	34206.93
670.10	34253.74
670.25	34171.82
670.39	34363.75
670.53	33759.89
670.67	33900.32
670.81	34279.49
670.95	34117.99
671.09	34094.58
671.23	33841.81
671.37	34068.84
671.51	34096.92
671.65	33741.16
671.79	33502.43
671.93	33593.71
672.07	33455.62
672.21	33006.23
672.35	32943.04
672.49	33254.33
672.63	33193.48
672.77	33113.90
672.91	33022.62
673.05	32971.13
673.19	33163.05
673.33	33275.40
673.47	33149.01
673.61	32596.64
673.75	32732.39
673.89	32620.05
674.03	32528.77
674.17	32655.15
674.31	32505.36
674.45	32287.69
674.59	32355.57
674.73	32173.00
674.87	32329.82
675.01	31943.63
675.15	32065.34
675.29	32023.21
675.43	32226.84
675.56	31936.61
675.70	31896.82
675.84	32177.68
675.98	31047.21
676.12	31688.51
676.26	31892.14
676.40	31782.13
676.54	31487.23
676.68	31278.92
676.82	30740.60
676.96	30976.99
677.10	30958.27
677.23	30962.95
677.37	30485.48
677.51	30192.91
677.65	30569.74
677.79	30185.89
677.93	30600.16
678.07	30438.67
678.21	30260.79
678.34	30630.59
678.48	30108.65
678.62	30125.04
678.76	29837.15
678.90	29778.64
679.04	29951.84
679.18	29565.65
679.31	29277.76
679.45	29324.57
679.59	29275.42
679.73	29408.83
679.87	29064.77
680.00	29102.22
680.14	28994.56
680.28	28692.63
680.42	28631.77
680.56	28467.94
680.70	28840.08
680.83	28730.08
680.97	28765.18
681.11	28678.58
681.25	28479.64
681.39	28301.76
681.52	28514.75
681.66	28046.64
681.80	27847.69
681.94	27789.18
682.07	28271.33
682.21	27845.35
682.35	27388.95
682.49	27585.55
682.62	27529.38
682.76	27618.32
682.90	27410.01
683.04	27342.14
683.17	27311.71
683.31	27496.61
683.45	27019.14
683.59	26867.01
683.72	27250.86
683.86	26841.26
684.00	26850.63
684.13	26544.02
684.27	26607.21
684.41	26457.42
684.55	26139.10
684.68	26412.95
684.82	26139.10
684.96	26096.97
685.09	25830.15
685.23	25979.95
685.37	26057.18
685.50	26225.70
685.64	25579.71
685.78	25575.03
685.91	25685.04
686.05	25881.64
686.19	25572.69
686.32	25659.29
686.46	24879.89
686.60	24603.71
686.73	24814.36
686.87	24683.29
687.01	25003.94
687.14	24856.49
687.28	24741.80
687.42	24734.78
687.55	24065.39
687.69	24542.86
687.82	24283.06
687.96	24795.64
688.10	24264.33
688.23	24168.37
688.37	24063.05
688.50	24135.60
688.64	24084.11
688.78	24065.39
688.91	23714.31
689.05	23695.58
689.18	23494.30
689.32	23187.69
689.46	23414.72
689.59	23122.15
689.73	23250.88
689.86	23075.34
690.00	22967.68
690.13	23204.07
690.27	22824.90
690.41	22787.46
690.54	22504.25
690.68	22806.18
690.81	22621.28
690.95	23021.51
691.08	22541.70
691.22	22464.46
691.35	22286.58
691.49	22232.75
691.62	22319.35
691.76	21963.59
691.89	21722.51
692.03	21432.29
692.16	21635.91
692.30	21575.06
692.43	21420.58
692.57	21680.38
692.70	21221.64
692.84	21532.93
692.97	21617.19
693.11	21025.03
693.24	21413.56
693.38	20802.68
693.51	20961.84
693.65	21083.55
693.78	20849.49
693.92	20922.05
694.05	20617.78
694.19	20226.91
694.32	20496.07
694.45	20381.38
694.59	20299.47
694.72	20170.74
694.86	20065.41
694.99	19599.65
695.13	19655.82
695.26	19770.51
695.39	19733.06
695.53	19948.39
695.66	19609.01
695.80	19932.00
695.93	19819.66
696.07	19594.96
696.20	19676.88
696.33	19491.98
696.47	19510.71
696.60	19213.46
696.73	18892.80
696.87	19218.14
697.00	18478.53
697.14	18733.65
697.27	18581.51
697.40	18476.19
697.54	18452.78
697.67	18267.88
697.80	18370.86
697.94	18258.52
698.07	17949.57
698.21	18134.47
698.34	18155.54
698.47	17982.34
698.61	17933.18
698.74	17771.69
698.87	18019.78
699.01	17593.81
699.14	17626.57
699.27	17806.80
699.40	17385.50
699.54	17486.14
699.67	17282.52
699.80	16912.71
699.94	17013.35
700.07	16805.05
700.20	16996.97
700.34	16666.95
700.47	16645.89
700.60	16748.87
700.73	17092.93
700.87	16685.68
701.00	16910.37
701.13	16552.27
701.26	16741.85
701.40	16491.41
701.53	16173.10
701.66	16545.25
701.79	16269.06
701.93	16505.46
702.06	15960.11
702.19	16004.58
702.32	15733.08
702.46	15508.39
702.59	15873.51
702.72	15524.77
702.85	15604.35
702.99	15712.02
703.12	15358.60
703.25	15328.17
703.38	15524.77
703.51	15328.17
703.65	15119.86
703.78	15157.31
703.91	15222.84
704.04	15152.63
704.17	15185.40
704.31	15012.20
704.44	14944.32
704.57	14829.63
704.70	14548.77
704.83	14473.87
704.96	14305.35
705.10	14431.74
705.23	14501.96
>>>>>End Processed Spectral Data<<<<<
