SpectraSuite Data File
++++++++++++++++++++++++++++++++++++
Date: Fri Oct 04 11:39:36 GMT-05:00 2013
User: price-jones
Dark Spectrum Present: No
Reference Spectrum Present: No
Number of Sampled Component Spectra: 1
Spectrometers: USB2+H05261
Integration Time (usec): 100000 (USB2+H05261)
Spectra Averaged: 1 (USB2+H05261)
Boxcar Smoothing: 0 (USB2+H05261)
Correct for Electrical Dark: No (USB2+H05261)
Strobe/Lamp Enabled: No (USB2+H05261)
Correct for Detector Non-linearity: No (USB2+H05261)
Correct for Stray Light: No (USB2+H05261)
Number of Pixels in Processed Spectrum: 2048
>>>>>Begin Processed Spectral Data<<<<<
365.73	77.24
365.92	77.24
366.12	77.24
366.32	0.00
366.52	0.00
366.72	0.00
366.91	0.00
367.11	0.00
367.31	0.00
367.51	0.00
367.70	0.00
367.90	0.00
368.10	0.00
368.30	0.00
368.49	0.00
368.69	0.00
368.89	0.00
369.09	0.00
369.28	0.00
369.48	14.04
369.68	25.75
369.87	0.00
370.07	0.00
370.27	58.51
370.47	46.81
370.66	241.08
370.86	229.37
371.06	238.73
371.25	313.63
371.45	245.76
371.65	339.38
371.84	320.65
372.04	278.52
372.24	325.33
372.44	365.12
372.63	301.93
372.83	311.29
373.03	369.80
373.22	369.80
373.42	320.65
373.62	341.72
373.81	400.23
374.01	374.49
374.21	353.42
374.40	325.33
374.60	423.64
374.79	404.91
374.99	386.19
375.19	449.38
375.38	437.68
375.58	388.53
375.78	482.15
375.97	379.17
376.17	421.30
376.37	353.42
376.56	397.89
376.76	456.40
376.95	416.62
377.15	433.00
377.35	407.25
377.54	407.25
377.74	475.13
377.93	416.62
378.13	411.93
378.33	437.68
378.52	409.59
378.72	440.02
378.91	395.55
379.11	388.53
379.31	381.51
379.50	386.19
379.70	479.81
379.89	472.79
380.09	416.62
380.28	472.79
380.48	458.74
380.68	437.68
380.87	454.06
381.07	440.02
381.26	578.11
381.46	461.09
381.65	557.05
381.85	554.71
382.04	463.43
382.24	545.34
382.43	510.24
382.63	512.58
382.83	468.11
383.02	540.66
383.22	552.37
383.41	559.39
383.61	414.27
383.80	512.58
384.00	479.81
384.19	568.75
384.39	531.30
384.58	533.64
384.78	535.98
384.97	526.62
385.17	503.22
385.36	482.15
385.56	608.54
385.75	510.24
385.95	578.11
386.14	655.35
386.34	571.09
386.53	519.60
386.72	582.79
386.92	695.14
387.11	620.24
387.31	578.11
387.50	594.50
387.70	552.37
387.89	620.24
388.09	678.76
388.28	594.50
388.48	552.37
388.67	671.73
388.86	720.88
389.06	695.14
389.25	566.41
389.45	657.69
389.64	662.37
389.84	669.39
390.03	755.99
390.22	664.71
390.42	685.78
390.61	669.39
390.81	655.35
391.00	732.59
391.19	664.71
391.39	702.16
391.58	667.05
391.78	709.18
391.97	713.86
392.16	725.57
392.36	779.40
392.55	716.20
392.75	720.88
392.94	793.44
393.13	657.69
393.33	716.20
393.52	690.46
393.71	807.48
393.91	758.33
394.10	837.91
394.29	760.67
394.49	840.25
394.68	814.51
394.88	849.61
395.07	884.72
395.26	858.98
395.46	905.79
395.65	809.83
395.84	840.25
396.04	929.19
396.23	851.96
396.42	861.32
396.62	894.08
396.81	882.38
397.00	882.38
397.19	898.77
397.39	894.08
397.58	978.34
397.77	938.55
397.97	880.04
398.16	926.85
398.35	887.06
398.55	961.96
398.74	1029.84
398.93	968.98
399.12	1083.67
399.32	1027.50
399.51	1022.81
399.70	1104.73
399.90	1062.60
400.09	1039.20
400.28	1130.48
400.47	1048.56
400.67	1128.14
400.86	1214.74
401.05	1123.46
401.24	1083.67
401.44	1149.20
401.63	1142.18
401.82	1128.14
402.01	1200.69
402.21	1078.99
402.40	1090.69
402.59	1100.05
402.78	1095.37
402.97	1217.08
403.17	1228.78
403.36	1193.67
403.55	1268.57
403.74	1294.32
403.93	1376.24
404.13	1380.92
404.32	1418.36
404.51	1301.34
404.70	1448.79
404.89	1371.55
405.09	1397.30
405.28	1390.28
405.47	1409.00
405.66	1401.98
405.85	1483.90
406.05	1397.30
406.24	1497.94
406.43	1540.07
406.62	1579.86
406.81	1612.63
407.00	1537.73
407.20	1467.52
407.39	1565.82
407.58	1563.48
407.77	1713.27
407.96	1715.61
408.15	1699.23
408.34	1591.56
408.54	1717.95
408.73	1605.61
408.92	1666.46
409.11	1680.50
409.30	1856.04
409.49	1760.08
409.68	1767.10
409.87	1755.40
410.07	1767.10
410.26	1804.55
410.45	1736.68
410.64	1860.73
410.83	1874.77
411.02	1937.96
411.21	1963.71
411.40	2040.95
411.59	2008.18
411.78	1942.64
411.98	2076.06
412.17	1980.09
412.36	1982.43
412.55	2139.25
412.74	2153.29
412.93	2211.81
413.12	2139.25
413.31	2216.49
413.50	2202.44
413.69	2146.27
413.88	2389.69
414.07	2300.75
414.26	2319.47
414.45	2399.05
414.64	2347.56
414.83	2401.39
415.02	2282.02
415.22	2436.50
415.41	2553.52
415.60	2541.82
415.79	2499.69
415.98	2623.74
416.17	2668.21
416.36	2663.53
416.55	2722.04
416.74	2717.36
416.93	2605.02
417.12	2764.17
417.31	2719.70
417.50	2785.24
417.69	2928.01
417.88	2885.88
418.07	2890.56
418.26	2881.20
418.45	2909.29
418.64	2944.39
418.83	2958.44
419.02	2899.92
419.21	3138.66
419.39	3110.57
419.58	2974.82
419.77	2958.44
419.96	3159.72
420.15	3101.21
420.34	3148.02
420.53	3091.85
420.72	3218.24
420.91	3155.04
421.10	3267.39
421.29	3307.18
421.48	3208.87
421.67	3183.13
421.86	3227.60
422.05	3265.05
422.24	3243.98
422.43	3199.51
422.61	3403.14
422.80	3384.41
422.99	3300.16
423.18	3375.05
423.37	3358.67
423.56	3384.41
423.75	3321.22
423.94	3353.99
424.13	3258.03
424.32	3243.98
424.50	3351.65
424.69	3508.46
424.88	3485.06
425.07	3335.26
425.26	3274.41
425.45	3466.33
425.64	3501.44
425.83	3363.35
426.01	3508.46
426.20	3438.25
426.39	3396.12
426.58	3562.30
426.77	3431.23
426.96	3569.32
427.15	3559.95
427.33	3445.27
427.52	3641.87
427.71	3499.10
427.90	3686.34
428.09	3693.37
428.28	3676.98
428.46	3784.65
428.65	3754.22
428.84	3768.26
429.03	3786.99
429.22	3702.73
429.40	3667.62
429.59	3808.05
429.78	3606.77
429.97	3639.53
430.16	3632.51
430.34	3843.16
430.53	3915.72
430.72	3920.40
430.91	3925.08
431.10	3929.76
431.28	3857.20
431.47	4102.96
431.66	4182.54
431.85	3922.74
432.03	4105.30
432.22	4182.54
432.41	4102.96
432.60	4077.21
432.79	4212.96
432.97	4102.96
433.16	4159.13
433.35	4091.26
433.54	4313.61
433.72	4376.80
433.91	4280.84
434.10	4222.33
434.28	4219.99
434.47	4241.05
434.66	4264.46
434.85	4297.22
435.03	4533.62
435.22	4608.51
435.41	4926.83
435.59	4807.46
435.78	4760.65
435.97	4524.26
436.16	4482.13
436.34	4423.61
436.53	4482.13
436.72	4622.56
436.90	4582.77
437.09	4774.69
437.28	4496.17
437.46	4631.92
437.65	4573.41
437.84	4706.82
438.02	4620.22
438.21	4720.86
438.40	4589.79
438.58	4823.84
438.77	4915.12
438.96	4779.37
439.14	5095.35
439.33	5041.51
439.52	5074.28
439.70	4959.60
439.89	5172.58
440.08	5036.83
440.26	5188.97
440.45	5097.69
440.63	5085.98
440.82	5212.37
441.01	5291.95
441.19	5329.40
441.38	5282.59
441.57	5345.78
441.75	5434.72
441.94	5523.66
442.12	5563.45
442.31	5710.91
442.50	5596.22
442.68	5558.77
442.87	5504.94
443.05	5551.75
443.24	5781.12
443.43	5771.76
443.61	5692.18
443.80	5694.52
443.98	5617.29
444.17	5605.58
444.35	5802.19
444.54	5806.87
444.73	5750.70
444.91	5933.26
445.10	5799.85
445.28	5891.13
445.47	5886.45
445.65	5823.25
445.84	5771.76
446.02	5919.21
446.21	5769.42
446.39	5760.06
446.58	5701.54
446.77	5923.90
446.95	5668.78
447.14	5888.79
447.32	5820.91
447.51	6015.18
447.69	5898.15
447.88	5921.56
448.06	5998.79
448.25	5942.62
448.43	5933.26
448.62	5900.49
448.80	5804.53
448.99	6052.63
449.17	6061.99
449.36	6122.84
449.54	6097.10
449.73	6204.76
449.91	6092.41
450.10	6092.41
450.28	6155.61
450.46	6153.27
450.65	6399.02
450.83	6377.96
451.02	6209.44
451.20	6497.33
451.39	6363.92
451.57	6242.21
451.76	5989.43
451.94	6291.36
452.13	6377.96
452.31	6420.09
452.49	6113.48
452.68	6644.78
452.86	6689.25
453.05	6595.63
453.23	6576.91
453.42	6401.37
453.60	6427.11
453.78	6586.27
453.97	6331.15
454.15	6614.35
454.34	6401.37
454.52	6768.83
454.70	6691.59
454.89	6738.40
455.07	6710.32
455.26	6832.02
455.44	6925.65
455.62	6782.87
455.81	6745.42
455.99	6785.21
456.17	7082.46
456.36	6888.20
456.54	7061.40
456.73	7110.55
456.91	7157.36
457.09	7201.83
457.28	7178.42
457.46	7126.93
457.64	7229.91
457.83	7351.62
458.01	7176.08
458.19	7456.95
458.38	7185.44
458.56	7351.62
458.74	7335.24
458.93	7328.22
459.11	7363.33
459.29	7295.45
459.48	7241.62
459.66	7382.05
459.84	7590.36
460.03	7648.87
460.21	7695.68
460.39	7578.65
460.57	7541.21
460.76	7494.40
460.94	7726.11
461.12	7784.62
461.31	7744.83
461.49	7770.58
461.67	7508.44
461.85	7859.52
462.04	7597.38
462.22	8049.10
462.40	7810.37
462.59	7953.14
462.77	7920.37
462.95	7812.71
463.13	7847.82
463.32	7908.67
463.50	7943.78
463.68	7925.05
463.86	7911.01
464.05	7932.08
464.23	8131.02
464.41	8229.32
464.59	7943.78
464.78	8170.81
464.96	8072.51
465.14	8121.66
465.32	8386.14
465.50	8154.43
465.69	8126.34
465.87	8257.41
466.05	8128.68
466.23	8276.13
466.41	8489.12
466.60	8318.26
466.78	8266.77
466.96	8128.68
467.14	8217.62
467.32	8540.61
467.51	8521.89
467.69	8285.50
467.87	8472.74
468.05	8580.40
468.23	8425.93
468.41	8468.06
468.60	8627.21
468.78	8676.37
468.96	8564.02
469.14	8540.61
469.32	8875.31
469.50	8617.85
469.69	8887.01
469.87	8795.73
470.05	9081.28
470.23	8671.68
470.41	8905.74
470.59	9006.38
470.77	8837.86
470.95	9032.13
471.14	9174.90
471.32	9011.06
471.50	9254.48
471.68	9245.12
471.86	9242.78
472.04	9221.71
472.22	9556.41
472.40	9411.29
472.58	9387.89
472.77	9446.40
472.95	9455.76
473.13	9832.59
473.31	9446.40
473.49	9341.08
473.67	9635.99
473.85	9666.41
474.03	9727.27
474.21	9848.97
474.39	9909.83
474.57	9863.02
474.75	10169.63
474.93	10235.16
475.12	10160.27
475.30	10319.42
475.48	10356.87
475.66	10113.45
475.84	10167.29
476.02	10415.38
476.20	10471.56
476.38	10485.60
476.56	10925.62
476.74	10717.31
476.92	10815.62
477.10	10839.02
477.28	10995.84
477.46	11162.01
477.64	11026.26
477.82	11286.06
478.00	11309.47
478.18	11379.68
478.36	11400.75
478.54	11698.00
478.72	11702.68
478.90	11740.13
479.08	11831.41
479.26	11751.83
479.44	11749.49
479.62	12060.78
479.80	12177.81
479.98	12233.98
480.16	12224.62
480.34	12362.71
480.52	12622.51
480.70	12411.86
480.88	12273.77
481.06	12688.04
481.24	12423.56
481.41	12711.45
481.59	13046.15
481.77	13088.28
481.95	13273.18
482.13	13177.22
482.31	13118.70
482.49	13465.10
482.67	13341.05
482.85	13558.72
483.03	13877.04
483.21	14059.60
483.39	14015.13
483.57	14019.81
483.74	14398.98
483.92	14424.72
484.10	14167.26
484.28	14745.38
484.46	14778.14
484.64	15220.50
484.82	14721.97
485.00	15033.26
485.18	15236.89
485.35	15396.04
485.53	15484.98
485.71	15346.89
485.89	15651.16
486.07	15793.94
486.25	15627.76
486.43	15967.13
486.61	15903.94
486.78	16248.00
486.96	16367.37
487.14	16709.08
487.32	16341.62
487.50	16397.79
487.68	16685.68
487.85	16823.77
488.03	16966.54
488.21	17397.20
488.39	17200.60
488.57	17472.10
488.75	17324.65
488.92	17626.57
489.10	17633.60
489.28	18281.92
489.46	18136.81
489.64	18054.89
489.81	18480.87
489.99	18361.50
490.17	18324.05
490.35	18916.21
490.53	18944.30
490.70	18986.43
490.88	18867.06
491.06	19129.20
491.24	19269.63
491.41	19688.59
491.59	19733.06
491.77	19536.45
491.95	20004.56
492.13	19768.16
492.30	19789.23
492.48	20222.23
492.66	20177.76
492.84	20243.29
493.01	20472.67
493.19	20449.26
493.37	20608.42
493.54	20933.75
493.72	21177.17
493.90	20938.43
494.08	21029.71
494.25	21390.16
494.43	21673.36
494.61	21790.39
494.79	21837.20
494.96	21642.93
495.14	21774.00
495.32	22221.05
495.49	22068.91
495.67	22401.27
495.85	22298.28
496.02	22754.69
496.20	22511.27
496.38	22670.43
496.55	22778.09
496.73	23232.16
496.91	22948.95
497.09	23220.45
497.26	23084.70
497.44	23412.38
497.62	23871.12
497.79	23714.31
497.97	23356.21
498.14	24077.09
498.32	23819.63
498.50	24304.12
498.67	24416.47
498.85	24484.34
499.03	24039.64
499.20	24261.99
499.38	24451.58
499.56	24755.85
499.73	24931.39
499.91	24751.17
500.08	25109.27
500.26	24753.51
500.44	25064.80
500.61	25064.80
500.79	25380.77
500.97	25476.73
501.14	25940.16
501.32	25612.48
501.49	25795.04
501.67	25603.12
501.84	25858.24
502.02	25935.48
502.20	26045.48
502.37	26361.45
502.55	26609.55
502.72	26129.74
502.90	26305.28
503.07	25865.26
503.25	26560.40
503.43	26501.89
503.60	27070.64
503.78	26689.13
503.95	26429.33
504.13	26600.19
504.30	27070.64
504.48	26682.11
504.65	27005.10
504.83	27190.00
505.01	27948.34
505.18	27473.21
505.36	27751.73
505.53	27824.29
505.71	27723.65
505.88	27733.01
506.06	27632.36
506.23	27971.74
506.41	28114.52
506.58	28121.54
506.76	28362.61
506.93	27903.87
507.11	28173.03
507.28	27735.35
507.46	28535.81
507.63	28479.64
507.81	28982.85
507.98	28498.36
508.16	28383.68
508.33	28847.10
508.50	29174.78
508.68	29336.27
508.85	29366.70
509.03	29331.59
509.20	29303.51
509.38	29497.77
509.55	29846.51
509.73	29523.52
509.90	29762.25
510.08	29982.26
510.25	30113.33
510.42	29984.60
510.60	30089.93
510.77	30298.23
510.95	30188.23
511.12	30424.62
511.30	29928.43
511.47	30611.87
511.64	30391.86
511.82	30937.20
511.99	30782.73
512.17	30866.98
512.34	30398.88
512.51	30876.35
512.69	30998.06
512.86	31047.21
513.04	30916.14
513.21	31435.74
513.38	31400.63
513.56	31070.61
513.73	31770.43
513.90	31360.84
514.08	30897.41
514.25	31903.84
514.43	31358.50
514.60	31976.40
514.77	31587.87
514.95	32158.96
515.12	31887.46
515.29	31548.08
515.47	32093.43
515.64	32224.50
515.81	31999.80
515.99	32222.16
516.16	32643.45
516.33	32746.44
516.51	32912.61
516.68	32411.74
516.85	32582.60
517.03	32900.91
517.20	32931.34
517.37	32996.87
517.54	33275.40
517.72	33029.64
517.89	33394.76
518.06	33099.86
518.24	33132.62
518.41	33624.14
518.58	33448.60
518.75	33406.47
518.93	33631.16
519.10	33380.72
519.27	34087.56
519.45	33687.33
519.62	33490.73
519.79	33731.80
519.96	33677.97
520.14	34127.35
520.31	34160.12
520.48	33923.72
520.65	34419.92
520.83	34691.42
521.00	34089.90
521.17	34363.75
521.34	34520.56
521.52	34890.37
521.69	34864.62
521.86	34710.14
522.03	35112.72
522.20	35068.25
522.38	34752.27
522.55	34731.21
522.72	35173.57
522.89	35419.33
523.07	35569.12
523.24	35157.19
523.41	35683.81
523.58	35388.90
523.75	35477.84
523.92	35452.09
524.10	35592.53
524.27	35985.74
524.44	35789.13
524.61	36128.51
524.78	35681.47
524.96	35941.27
525.13	36027.87
525.30	36257.24
525.47	36416.40
525.64	36020.84
525.81	36418.74
525.98	36720.66
526.16	36442.14
526.33	36315.75
526.50	36451.50
526.67	36121.49
526.84	36645.77
527.01	36547.47
527.18	36676.19
527.36	36711.30
527.53	37453.25
527.70	37385.38
527.87	37195.79
528.04	37097.49
528.21	36947.70
528.38	36933.65
528.55	37006.21
528.72	37333.89
528.89	37216.86
529.07	37371.33
529.24	37390.06
529.41	37457.93
529.58	37188.77
529.75	37331.54
529.92	37347.93
530.09	37776.25
530.26	37743.48
530.43	37963.49
530.60	37345.59
530.77	37762.20
530.94	37926.04
531.11	37464.96
531.28	37668.58
531.46	37968.17
531.63	37745.82
531.80	38326.27
531.97	38476.07
532.14	38440.96
532.31	37926.04
532.48	38295.85
532.65	38319.25
532.82	38087.54
532.99	38403.51
533.16	38354.36
533.33	38745.23
533.50	39585.48
533.67	39051.84
533.84	39201.63
534.01	38824.81
534.18	38487.77
534.35	38937.15
534.52	38902.04
534.69	39311.64
534.86	39770.38
535.03	39112.69
535.20	39267.17
535.37	39313.98
535.54	38930.13
535.71	38937.15
535.88	38930.13
536.05	39407.60
536.22	39250.78
536.38	39583.14
536.55	39885.07
536.72	39821.87
536.89	39749.32
537.06	39538.67
537.23	40051.25
537.40	39875.71
537.57	40086.36
537.74	40032.52
537.91	40285.30
538.08	39971.67
538.25	40046.57
538.42	40147.21
538.59	40362.54
538.75	39625.27
538.92	40123.80
539.09	40245.51
539.26	40577.87
539.43	40301.68
539.60	40570.85
539.77	40402.33
539.94	40725.32
540.11	40374.24
540.28	40715.96
540.44	41067.04
540.61	40814.26
540.78	40662.13
540.95	40744.05
541.12	41296.41
541.29	40919.59
541.46	41060.02
541.62	41322.16
541.79	41071.72
541.96	40985.12
542.13	40865.75
542.30	41476.63
542.47	41628.77
542.63	41546.85
542.80	41680.26
542.97	41752.82
543.14	42052.41
543.31	42033.68
543.48	41785.58
543.64	42103.90
543.81	42094.53
543.98	42174.11
544.15	41928.36
544.32	42117.94
544.48	42415.19
544.65	42316.89
544.82	42129.64
544.99	42101.56
545.16	41818.35
545.32	41949.42
545.49	42909.04
545.66	43143.09
545.83	43335.02
546.00	43419.28
546.16	42773.29
546.33	42295.82
546.50	42061.77
546.67	42445.62
546.83	41687.28
547.00	42291.14
547.17	42424.55
547.34	42480.72
547.50	42635.20
547.67	42595.41
547.84	42803.72
548.00	42529.87
548.17	42691.37
548.34	43007.34
548.51	42906.70
548.67	42937.13
548.84	42920.74
549.01	42817.76
549.18	42953.51
549.34	42686.69
549.51	42876.27
549.68	43030.75
549.84	42869.25
550.01	43028.41
550.18	42878.61
550.34	43346.72
550.51	42887.98
550.68	43377.15
550.84	43133.73
551.01	43152.46
551.18	42958.19
551.34	42700.73
551.51	43175.86
551.68	43201.61
551.84	43306.93
552.01	43290.55
552.18	43278.85
552.34	43019.05
552.51	43342.04
552.68	43246.08
552.84	43187.56
553.01	43763.34
553.18	43388.85
553.34	43999.73
553.51	43255.44
553.67	43416.94
553.84	43915.47
554.01	43969.30
554.17	43910.79
554.34	43707.16
554.51	43559.71
554.67	43938.88
554.84	43770.36
555.00	44053.56
555.17	43672.06
555.33	43856.96
555.50	44130.80
555.67	43889.73
555.83	43601.84
556.00	43688.44
556.16	44112.08
556.33	43819.51
556.50	43854.62
556.66	43997.39
556.83	43913.13
556.99	44142.50
557.16	44170.59
557.32	44133.14
557.49	44126.12
557.65	44048.88
557.82	43714.19
557.98	43929.51
558.15	44208.04
558.32	44184.63
558.48	44102.71
558.65	44449.11
558.81	44137.82
558.98	44027.82
559.14	44395.28
559.31	43880.36
559.47	44076.97
559.64	44215.06
559.80	44360.17
559.97	44697.21
560.13	44409.32
560.30	44329.75
560.46	44053.56
560.63	44650.40
560.79	44734.66
560.96	44715.93
561.12	44404.64
561.29	44355.49
561.45	44699.55
561.61	44912.54
561.78	44605.93
561.94	44605.93
562.11	44261.87
562.27	44566.14
562.44	44615.29
562.60	44605.93
562.77	44666.78
562.93	44729.98
563.10	44987.44
563.26	44683.17
563.42	45151.27
563.59	44662.10
563.75	44776.79
563.92	44713.59
564.08	44584.86
564.24	44751.04
564.41	44701.89
564.57	44903.18
564.74	44903.18
564.90	44758.06
565.07	44753.38
565.23	44680.83
565.39	44832.96
565.56	44626.99
565.72	44912.54
565.88	45155.96
566.05	44533.37
566.21	44603.59
566.38	44769.77
566.54	44793.17
566.70	44666.78
566.87	45263.62
567.03	44844.66
567.19	44907.86
567.36	45144.25
567.52	44402.30
567.68	45118.51
567.85	44659.76
568.01	44893.82
568.17	44664.44
568.34	45071.70
568.50	44643.38
568.66	45214.47
568.83	44814.24
568.99	44924.24
569.15	45048.29
569.32	45045.95
569.48	44900.84
569.64	45106.80
569.81	45003.82
569.97	44921.90
570.13	45249.58
570.30	44928.92
570.46	44912.54
570.62	45083.40
570.78	44893.82
570.95	44760.40
571.11	45303.41
571.27	44839.98
571.43	45158.30
571.60	45361.92
571.76	45315.11
571.92	45085.74
572.09	45020.20
572.25	45354.90
572.41	45277.66
572.57	45127.87
572.74	44973.39
572.90	45331.50
573.06	44994.46
573.22	45003.82
573.38	45717.68
573.55	45130.21
573.71	45392.35
573.87	45343.20
574.03	45198.09
574.20	44882.11
574.36	44797.85
574.52	44715.93
574.68	44868.07
574.84	45406.39
575.01	45244.90
575.17	45155.96
575.33	45179.36
575.49	45179.36
575.65	45525.76
575.82	45160.64
575.98	45315.11
576.14	45155.96
576.30	45263.62
576.46	45448.52
576.62	44980.42
576.79	45413.41
576.95	45106.80
577.11	45184.04
577.27	45069.36
577.43	44982.76
577.59	45045.95
577.75	45453.20
577.92	45177.02
578.08	44971.05
578.24	44811.90
578.40	45212.13
578.56	44898.50
578.72	45375.97
578.88	45797.26
579.04	45509.38
579.21	45450.86
579.37	45397.03
579.53	45570.23
579.69	45031.91
579.85	45322.13
580.01	44924.24
580.17	44748.70
580.33	45205.11
580.49	45193.40
580.65	45399.37
580.82	45418.10
580.98	45415.76
581.14	45298.73
581.30	45095.10
581.46	45111.49
581.62	45542.14
581.78	44645.72
581.94	45221.49
582.10	44896.16
582.26	45205.11
582.42	45785.56
582.58	45626.40
582.74	45127.87
582.90	45216.81
583.06	45764.49
583.22	45059.99
583.38	45476.61
583.54	45485.97
583.70	45071.70
583.86	45177.02
584.02	45375.97
584.18	45467.25
584.34	45612.36
584.50	45331.50
584.66	45523.42
584.82	45198.09
584.98	45315.11
585.14	45635.77
585.30	45284.68
585.46	45212.13
585.62	45322.13
585.78	45319.79
585.94	44919.56
586.10	45359.58
586.26	45471.93
586.42	45888.54
586.58	45640.45
586.74	45287.03
586.90	45326.81
587.06	45333.84
587.22	45249.58
587.38	45492.99
587.54	45315.11
587.70	45624.06
587.86	45638.11
588.02	45560.87
588.18	45481.29
588.34	45228.51
588.49	45797.26
588.65	45277.66
588.81	45443.84
588.97	45406.39
589.13	45373.63
589.29	45212.13
589.45	45694.28
589.61	45764.49
589.77	45933.01
589.93	45563.21
590.08	45600.66
590.24	45808.96
590.40	45549.17
590.56	45507.04
590.72	45701.30
590.88	45188.72
591.04	45270.64
591.20	45874.50
591.35	45806.62
591.51	46071.10
591.67	45846.41
591.83	45823.01
591.99	45883.86
592.15	45652.15
592.31	45474.27
592.46	45715.34
592.62	45331.50
592.78	45280.00
592.94	45184.04
593.10	45308.09
593.26	45612.36
593.41	45993.87
593.57	45902.59
593.73	45713.00
593.89	45757.47
594.05	45640.45
594.20	45535.12
594.36	45481.29
594.52	45404.05
594.68	45240.21
594.84	45610.02
594.99	45823.01
595.15	45811.31
595.31	45673.21
595.47	45603.00
595.62	45624.06
595.78	45404.05
595.94	45301.07
596.10	45631.08
596.25	45429.80
596.41	45471.93
596.57	45680.24
596.73	45647.47
596.88	45628.74
597.04	45284.68
597.20	45736.41
597.36	45497.67
597.51	45944.72
597.67	45411.07
597.83	45558.53
597.99	45790.24
598.14	45411.07
598.30	45312.77
598.46	45766.84
598.61	45827.69
598.77	45254.26
598.93	45825.35
599.09	45879.18
599.24	46124.94
599.40	45766.84
599.56	45865.14
599.71	45771.52
599.87	45638.11
600.03	46068.76
600.18	45453.20
600.34	45720.02
600.50	45455.54
600.65	45361.92
600.81	45935.35
600.97	45577.25
601.12	45790.24
601.28	45949.40
601.44	45516.40
601.59	45698.96
601.75	45450.86
601.91	45677.90
602.06	45890.88
602.22	45778.54
602.37	45392.35
602.53	45815.99
602.69	46232.60
602.84	45382.99
603.00	45380.65
603.16	45675.55
603.31	45640.45
603.47	45415.76
603.62	45457.88
603.78	45647.47
603.94	45223.83
604.09	45518.74
604.25	45036.59
604.40	45102.12
604.56	45020.20
604.71	45446.18
604.87	45455.54
605.03	45654.49
605.18	45099.78
605.34	45361.92
605.49	45155.96
605.65	45361.92
605.80	45205.11
605.96	45532.78
606.12	45485.97
606.27	45329.16
606.43	45048.29
606.58	45593.64
606.74	45481.29
606.89	45462.57
607.05	45457.88
607.20	45546.82
607.36	44994.46
607.51	44776.79
607.67	45020.20
607.82	44882.11
607.98	45258.94
608.13	44893.82
608.29	45153.62
608.44	45464.91
608.60	44814.24
608.75	45324.47
608.91	45652.15
609.06	45099.78
609.22	45174.68
609.37	44980.42
609.53	45001.48
609.68	44968.71
609.84	45092.76
609.99	45027.23
610.15	45050.63
610.30	45240.21
610.46	45207.45
610.61	45347.88
610.76	45598.32
610.92	45851.09
611.07	45982.16
611.23	45923.65
611.38	45715.34
611.54	45532.78
611.69	45558.53
611.84	45235.53
612.00	45172.34
612.15	44842.32
612.31	45474.27
612.46	44896.16
612.62	45170.00
612.77	44844.66
612.92	45338.52
613.08	44870.41
613.23	44622.31
613.39	44797.85
613.54	44825.94
613.69	44790.83
613.85	44596.57
614.00	44842.32
614.15	44678.49
614.31	44079.31
614.46	45118.51
614.62	44753.38
614.77	44652.74
614.92	44715.93
615.08	44650.40
615.23	44325.07
615.38	44308.68
615.54	44072.29
615.69	44332.09
615.84	43915.47
616.00	44350.81
616.15	44006.75
616.30	44839.98
616.46	44304.00
616.61	43716.53
616.76	44137.82
616.92	43955.26
617.07	44069.95
617.22	43952.92
617.37	43496.52
617.53	44388.26
617.68	43489.49
617.83	43601.84
617.99	43597.16
618.14	44130.80
618.29	44067.61
618.45	43831.21
618.60	43763.34
618.75	43442.68
618.90	43817.17
619.06	43772.70
619.21	43555.03
619.36	43466.09
619.51	43005.00
619.67	43653.33
619.82	42909.04
619.97	43576.09
620.12	43098.62
620.28	43187.56
620.43	43540.99
620.58	42965.21
620.73	43510.56
620.89	43557.37
621.04	43971.64
621.19	43213.31
621.34	43084.58
621.49	43225.01
621.65	43021.39
621.80	43262.46
621.95	42983.94
622.10	43196.93
622.25	43178.20
622.41	43243.74
622.56	42997.98
622.71	43285.87
622.86	43182.88
623.01	43194.59
623.16	42700.73
623.32	43049.47
623.47	42780.31
623.62	43349.06
623.77	43182.88
623.92	42707.76
624.07	42726.48
624.23	42768.61
624.38	42990.96
624.53	42499.45
624.68	43185.22
624.83	42972.24
624.98	42663.28
625.13	42525.19
625.29	42518.17
625.44	42476.04
625.59	42543.92
625.74	42630.52
625.89	42380.08
626.04	42249.01
626.19	41996.23
626.34	41986.87
626.49	42288.80
626.65	42192.84
626.80	42777.97
626.95	42564.98
627.10	42433.91
627.25	42190.50
627.40	42157.73
627.55	42148.37
627.70	41851.12
627.85	41916.65
628.00	41823.03
628.15	41858.14
628.30	41844.10
628.45	42059.43
628.60	41755.16
628.76	41715.37
628.91	42291.14
629.06	42075.81
629.21	41804.31
629.36	42054.75
629.51	41888.57
629.66	41825.37
629.81	41270.67
629.96	41687.28
630.11	41874.52
630.26	41736.43
630.41	42249.01
630.56	41666.22
630.71	41706.01
630.86	41991.55
631.01	42068.79
631.16	41820.69
631.31	41713.03
631.46	41233.22
631.61	41724.73
631.76	41661.54
631.91	40966.40
632.06	41263.64
632.21	40882.14
632.36	41263.64
632.51	41006.19
632.66	41219.17
632.81	41144.28
632.96	40872.78
633.10	40968.74
633.25	41347.90
633.40	41453.23
633.55	40954.69
633.70	41155.98
633.85	40622.34
634.00	40402.33
634.15	40755.75
634.30	40341.47
634.45	40587.23
634.60	40652.76
634.75	40861.07
634.90	40514.67
635.05	41148.96
635.19	40987.46
635.34	41003.85
635.49	40594.25
635.64	41219.17
635.79	40985.12
635.94	40636.38
636.09	40830.65
636.24	40631.70
636.39	40713.62
636.53	40732.34
636.68	40060.61
636.83	40474.88
636.98	40608.29
637.13	40945.33
637.28	40371.90
637.43	40751.07
637.57	40746.39
637.72	40339.13
637.87	40561.48
638.02	40055.93
638.17	40357.86
638.32	39955.29
638.46	39842.94
638.61	39929.54
638.76	39847.62
638.91	39978.69
639.06	39704.85
639.20	40231.47
639.35	40322.75
639.50	39824.22
639.65	40025.50
639.80	40318.07
639.94	39838.26
640.09	40041.88
640.24	39873.37
640.39	39903.79
640.54	39892.09
640.68	39695.49
640.83	39754.00
640.98	39524.63
641.13	39629.95
641.27	39695.49
641.42	39679.10
641.57	39578.46
641.72	39613.57
641.86	39171.21
642.01	39751.66
642.16	39435.69
642.31	39140.78
642.45	39285.89
642.60	39269.51
642.75	39150.14
642.90	39311.64
643.04	39086.95
643.19	39218.02
643.34	39105.67
643.48	39218.02
643.63	39351.43
643.78	39311.64
643.93	39569.10
644.07	38822.47
644.22	39037.80
644.37	39187.59
644.51	39236.74
644.66	38988.64
644.81	39288.23
644.95	38749.91
645.10	38864.60
645.25	39044.82
645.39	38766.29
645.54	38953.54
645.69	39012.05
645.83	38852.89
645.98	38794.38
646.13	39089.29
646.27	39091.63
646.42	38721.82
646.57	39000.35
646.71	38735.87
646.86	38742.89
647.00	38548.62
647.15	38646.93
647.30	38569.69
647.44	38581.39
647.59	38242.01
647.74	38614.16
647.88	38635.22
648.03	38689.06
648.17	39129.08
648.32	38675.01
648.47	38436.28
648.61	38557.99
648.76	38707.78
648.90	38302.87
649.05	38377.76
649.20	38155.41
649.34	38220.95
649.49	38038.39
649.63	38012.64
649.78	38520.54
649.92	38068.81
650.07	38038.39
650.21	38265.42
650.36	38218.61
650.51	38232.65
650.65	38396.49
650.80	38253.72
650.94	38363.72
651.09	38139.03
651.23	37991.58
651.38	38124.99
651.52	37579.64
651.67	37806.67
651.81	38003.28
651.96	37816.04
652.10	38092.22
652.25	38007.96
652.39	37916.68
652.54	37820.72
652.68	37933.06
652.83	37701.35
652.97	38075.84
653.12	37750.50
653.26	37916.68
653.41	37535.17
653.55	37811.35
653.70	37268.35
653.84	37797.31
653.99	37270.69
654.13	37221.54
654.27	37261.33
654.42	37392.40
654.56	37696.67
654.71	37670.92
654.85	37851.14
655.00	37823.06
655.14	37621.77
655.29	37235.58
655.43	37266.01
655.57	37357.29
655.72	37177.07
655.86	37055.36
656.01	37083.45
656.15	36500.65
656.30	36823.65
656.44	36772.16
656.58	37092.81
656.73	37022.59
656.87	37289.42
657.01	36975.78
657.16	37282.39
657.30	36935.99
657.45	36833.01
657.59	37359.63
657.73	36622.36
657.88	36940.68
658.02	37118.56
658.16	36435.12
658.31	36662.15
658.45	36793.22
658.60	36973.44
658.74	36577.89
658.88	36769.82
659.03	36369.58
659.17	36156.60
659.31	36596.62
659.46	36442.14
659.60	36320.43
659.74	36425.76
659.89	36290.01
660.03	35985.74
660.17	35995.10
660.32	36128.51
660.46	35945.95
660.60	36032.55
660.74	35899.14
660.89	35943.61
661.03	35686.15
661.17	35981.06
661.32	35424.01
661.46	35688.49
661.60	36208.09
661.74	35803.17
661.89	36046.59
662.03	35910.84
662.17	35747.00
662.31	35536.35
662.46	35789.13
662.60	35824.24
662.74	35531.67
662.88	35192.30
663.03	34925.47
663.17	35014.41
663.31	35108.04
663.45	35309.32
663.60	35012.07
663.74	35035.48
663.88	35232.08
664.02	35049.52
664.17	35248.47
664.31	34932.50
664.45	35309.32
664.59	34850.58
664.73	34841.21
664.88	35063.57
665.02	34560.35
665.16	34731.21
665.30	34359.06
665.44	34623.54
665.59	34408.22
665.73	34300.55
665.87	34330.98
666.01	34148.42
666.15	34316.93
666.29	34174.16
666.44	34691.42
666.58	34052.45
666.72	34321.62
666.86	34630.57
667.00	34443.32
667.14	33790.31
667.28	33982.24
667.43	33954.15
667.57	33670.95
667.71	33617.11
667.85	33469.66
667.99	33701.37
668.13	34029.05
668.27	33347.95
668.41	33525.83
668.56	33209.86
668.70	33460.30
668.84	33467.32
668.98	33228.59
669.12	33553.92
669.26	33408.81
669.40	33366.68
669.54	33074.11
669.68	33125.60
669.82	33055.39
669.96	32772.18
670.10	32933.68
670.25	32823.67
670.39	32795.59
670.53	32339.18
670.67	32657.49
670.81	32807.29
670.95	32753.46
671.09	32540.47
671.23	32474.93
671.37	32732.39
671.51	32493.66
671.65	32662.18
671.79	32257.26
671.93	32002.14
672.07	32116.83
672.21	32184.71
672.35	31723.62
672.49	31927.25
672.63	31747.03
672.77	31861.71
672.91	31936.61
673.05	31529.36
673.19	31693.19
673.33	31910.86
673.47	31608.93
673.61	31665.11
673.75	31667.45
673.89	31695.53
674.03	31814.90
674.17	31094.02
674.31	31262.54
674.45	30988.69
674.59	31440.42
674.73	30806.13
674.87	30480.80
675.01	30408.24
675.15	30796.77
675.29	30651.66
675.43	30658.68
675.56	30705.49
675.70	30995.71
675.84	30668.04
675.98	29788.00
676.12	30284.19
676.26	30597.82
676.40	30373.13
676.54	30143.76
676.68	29935.45
676.82	29572.67
676.96	29921.41
677.10	29647.57
677.23	29586.71
677.37	29495.43
677.51	29280.10
677.65	29270.74
677.79	28945.41
677.93	29064.77
678.07	29362.02
678.21	28943.06
678.34	28992.22
678.48	28863.49
678.62	28725.39
678.76	28563.90
678.90	28360.27
679.04	28336.87
679.18	28395.38
679.31	28247.93
679.45	28247.93
679.59	27964.72
679.73	28238.56
679.87	27948.34
680.00	27826.63
680.14	27857.06
680.28	27735.35
680.42	27555.13
680.56	27747.05
680.70	27840.67
680.83	27718.96
680.97	27672.15
681.11	27161.92
681.25	27318.73
681.39	27065.96
681.52	27365.54
681.66	27304.69
681.80	27023.83
681.94	26632.96
682.07	26654.02
682.21	26532.31
682.35	26405.92
682.49	26623.59
682.62	26286.56
682.76	26328.69
682.90	26099.31
683.04	26286.56
683.17	26274.85
683.31	26162.51
683.45	26331.03
683.59	25928.45
683.72	25893.35
683.86	25972.92
684.00	25598.44
684.13	25443.96
684.27	25493.12
684.41	25329.28
684.55	25088.20
684.68	25516.52
684.82	24950.11
684.96	24847.13
685.09	24910.32
685.23	24910.32
685.37	24978.20
685.50	24587.33
685.64	24992.24
685.78	24608.39
685.91	24687.97
686.05	24645.84
686.19	24463.28
686.32	24341.57
686.46	24355.61
686.60	23803.25
686.73	23929.64
686.87	23892.19
687.01	23728.35
687.14	23737.71
687.28	23538.77
687.42	23634.73
687.55	23283.65
687.69	23950.70
687.82	23417.06
687.96	23637.07
688.10	23087.04
688.23	23384.29
688.37	23536.43
688.50	23175.98
688.64	23094.07
688.78	23103.43
688.91	22757.03
689.05	22579.15
689.18	22717.24
689.32	22239.77
689.46	22466.80
689.59	22167.21
689.73	22314.67
689.86	22284.24
690.00	21907.41
690.13	22113.38
690.27	21635.91
690.41	21956.57
690.54	21804.43
690.68	22019.76
690.81	21652.30
690.95	21830.18
691.08	21502.50
691.22	21467.39
691.35	21273.13
691.49	21497.82
691.62	21123.33
691.76	21067.16
691.89	20915.03
692.03	20475.01
692.16	20776.94
692.30	20762.89
692.43	20577.99
692.57	20652.89
692.70	20395.43
692.84	20751.19
692.97	20226.91
693.11	20514.80
693.24	20329.89
693.38	20229.25
693.51	20163.72
693.65	20489.05
693.78	20088.82
693.92	20098.18
694.05	19742.42
694.19	19971.79
694.32	19620.71
694.45	19484.96
694.59	19363.25
694.72	19360.91
694.86	19281.33
694.99	18897.49
695.13	19110.47
695.26	18965.36
695.39	19140.90
695.53	18909.19
695.66	18970.04
695.80	18630.66
695.93	18970.04
696.07	18684.50
696.20	18347.46
696.33	18525.34
696.47	18609.60
696.60	18370.86
696.73	18207.03
696.87	18417.68
697.00	18221.07
697.14	18054.89
697.27	17706.15
697.40	17991.70
697.54	17474.44
697.67	17420.61
697.80	17771.69
697.94	17549.34
698.07	17432.31
698.21	17275.49
698.34	17434.65
698.47	17469.76
698.61	17170.17
698.74	17228.68
698.87	17057.82
699.01	16945.48
699.14	17067.19
699.27	16760.58
699.40	17170.17
699.54	16697.38
699.67	16636.53
699.80	16596.74
699.94	16269.06
700.07	16290.13
700.20	16198.85
700.34	15997.56
700.47	16142.67
700.60	16322.90
700.73	16325.24
700.87	16142.67
701.00	15941.39
701.13	15819.68
701.26	16009.26
701.40	15922.66
701.53	15707.34
701.66	15868.83
701.79	15735.42
701.93	15552.86
702.06	15611.37
702.19	15112.84
702.32	15169.01
702.46	15159.65
702.59	15140.93
702.72	14981.77
702.85	14750.06
702.99	14855.38
703.12	14988.79
703.25	14553.45
703.38	14822.61
703.51	14841.34
703.65	14768.78
703.78	14761.76
703.91	14626.01
704.04	14712.61
704.17	14436.42
704.31	14597.92
704.44	14115.77
704.57	14274.93
704.70	14104.07
704.83	13816.18
704.96	13820.86
705.10	13708.52
705.23	13561.06
>>>>>End Processed Spectral Data<<<<<
