SpectraSuite Data File
++++++++++++++++++++++++++++++++++++
Date: Fri Oct 04 11:39:39 GMT-05:00 2013
User: price-jones
Dark Spectrum Present: No
Reference Spectrum Present: No
Number of Sampled Component Spectra: 1
Spectrometers: USB2+H05261
Integration Time (usec): 100000 (USB2+H05261)
Spectra Averaged: 1 (USB2+H05261)
Boxcar Smoothing: 0 (USB2+H05261)
Correct for Electrical Dark: No (USB2+H05261)
Strobe/Lamp Enabled: No (USB2+H05261)
Correct for Detector Non-linearity: No (USB2+H05261)
Correct for Stray Light: No (USB2+H05261)
Number of Pixels in Processed Spectrum: 2048
>>>>>Begin Processed Spectral Data<<<<<
365.73	100.64
365.92	100.64
366.12	100.64
366.32	0.00
366.52	0.00
366.72	0.00
366.91	0.00
367.11	0.00
367.31	0.00
367.51	0.00
367.70	0.00
367.90	0.00
368.10	0.00
368.30	0.00
368.49	2.34
368.69	42.13
368.89	0.00
369.09	0.00
369.28	0.00
369.48	0.00
369.68	0.00
369.87	0.00
370.07	0.00
370.27	56.17
370.47	25.75
370.66	196.60
370.86	184.90
371.06	238.73
371.25	222.35
371.45	220.01
371.65	372.15
371.84	149.79
372.04	292.57
372.24	283.20
372.44	243.42
372.63	196.60
372.83	243.42
373.03	248.10
373.22	292.57
373.42	285.55
373.62	252.78
373.81	320.65
374.01	318.31
374.21	320.65
374.40	255.12
374.60	360.44
374.79	257.46
374.99	332.36
375.19	248.10
375.38	278.52
375.58	334.70
375.78	362.78
375.97	388.53
376.17	337.04
376.37	301.93
376.56	388.53
376.76	269.16
376.95	322.99
377.15	304.27
377.35	360.44
377.54	383.85
377.74	315.97
377.93	294.91
378.13	440.02
378.33	290.23
378.52	344.06
378.72	330.02
378.91	259.80
379.11	285.55
379.31	383.85
379.50	334.70
379.70	330.02
379.89	320.65
380.09	318.31
380.28	313.63
380.48	259.80
380.68	404.91
380.87	355.76
381.07	376.83
381.26	374.49
381.46	304.27
381.65	365.12
381.85	306.61
382.04	390.87
382.24	330.02
382.43	397.89
382.63	404.91
382.83	400.23
383.02	407.25
383.22	404.91
383.41	325.33
383.61	297.25
383.80	311.29
384.00	339.38
384.19	421.30
384.39	341.72
384.58	390.87
384.78	430.66
384.97	428.32
385.17	379.17
385.36	468.11
385.56	456.40
385.75	390.87
385.95	451.72
386.14	395.55
386.34	472.79
386.53	397.89
386.72	454.06
386.92	475.13
387.11	510.24
387.31	454.06
387.50	428.32
387.70	451.72
387.89	404.91
388.09	430.66
388.28	465.77
388.48	404.91
388.67	447.04
388.86	524.28
389.06	477.47
389.25	503.22
389.45	475.13
389.64	430.66
389.84	514.92
390.03	521.94
390.22	449.38
390.42	477.47
390.61	433.00
390.81	482.15
391.00	528.96
391.19	449.38
391.39	592.16
391.58	552.37
391.78	552.37
391.97	482.15
392.16	599.18
392.36	617.90
392.55	540.66
392.75	543.00
392.94	557.05
393.13	592.16
393.33	561.73
393.52	589.82
393.71	641.31
393.91	566.41
394.10	627.26
394.29	552.37
394.49	543.00
394.68	638.97
394.88	667.05
395.07	568.75
395.26	603.86
395.46	610.88
395.65	681.10
395.84	692.80
396.04	671.73
396.23	657.69
396.42	711.52
396.62	718.54
396.81	671.73
397.00	770.04
397.19	660.03
397.39	706.84
397.58	655.35
397.77	671.73
397.97	732.59
398.16	730.25
398.35	770.04
398.55	781.74
398.74	713.86
398.93	760.67
399.12	784.08
399.32	821.53
399.51	784.08
399.70	858.98
399.90	758.33
400.09	774.72
400.28	823.87
400.47	973.66
400.67	842.59
400.86	833.23
401.05	936.21
401.24	973.66
401.44	964.30
401.63	884.72
401.82	912.81
402.01	964.30
402.21	973.66
402.40	877.70
402.59	987.71
402.78	1018.13
402.97	957.28
403.17	894.08
403.36	1111.75
403.55	1004.09
403.74	1046.22
403.93	1100.05
404.13	1139.84
404.32	1137.50
404.51	1137.50
404.70	1174.95
404.89	1076.65
405.09	1142.18
405.28	1116.44
405.47	1184.31
405.66	1156.22
405.85	1184.31
406.05	1160.91
406.24	1179.63
406.43	1231.12
406.62	1329.42
406.81	1329.42
407.00	1277.93
407.20	1273.25
407.39	1296.66
407.58	1425.39
407.77	1387.94
407.96	1336.45
408.15	1380.92
408.34	1425.39
408.54	1404.32
408.73	1444.11
408.92	1481.56
409.11	1521.35
409.30	1591.56
409.49	1519.01
409.68	1570.50
409.87	1598.59
410.07	1502.62
410.26	1603.27
410.45	1657.10
410.64	1762.42
410.83	1544.75
411.02	1666.46
411.21	1671.14
411.40	1673.48
411.59	1783.49
411.78	1778.81
411.98	1781.15
412.17	1825.62
412.36	1823.28
412.55	1898.17
412.74	1900.52
412.93	1952.01
413.12	1832.64
413.31	2087.76
413.50	1996.48
413.69	2026.90
413.88	2097.12
414.07	2090.10
414.26	2050.31
414.45	2069.03
414.64	2167.34
414.83	2169.68
415.02	2221.17
415.22	2228.19
415.41	2366.28
415.60	2253.94
415.79	2389.69
415.98	2352.24
416.17	2363.94
416.36	2420.11
416.55	2417.77
416.74	2457.56
416.93	2441.18
417.12	2415.43
417.31	2478.63
417.50	2492.67
417.69	2635.44
417.88	2686.94
418.07	2553.52
418.26	2621.40
418.45	2637.78
418.64	2801.62
418.83	2766.51
419.02	2708.00
419.21	2768.85
419.39	2867.16
419.58	2743.11
419.77	2801.62
419.96	2803.96
420.15	2951.42
420.34	2712.68
420.53	2846.09
420.72	2963.12
420.91	2885.88
421.10	2965.46
421.29	3080.14
421.48	2860.13
421.67	2998.23
421.86	3166.74
422.05	3009.93
422.24	3016.95
422.43	3063.76
422.61	3096.53
422.80	3084.83
422.99	3108.23
423.18	3157.38
423.37	3164.40
423.56	3082.49
423.75	3194.83
423.94	3021.63
424.13	3019.29
424.32	3045.04
424.50	3124.62
424.69	3251.00
424.88	3358.67
425.07	3131.64
425.26	3056.74
425.45	3208.87
425.64	3122.27
425.83	3253.34
426.01	3229.94
426.20	3199.51
426.39	3171.43
426.58	3197.17
426.77	3183.13
426.96	3382.07
427.15	3325.90
427.33	3344.63
427.52	3391.44
427.71	3377.39
427.90	3351.65
428.09	3445.27
428.28	3463.99
428.46	3468.67
428.65	3529.53
428.84	3524.85
429.03	3506.12
429.22	3377.39
429.40	3548.25
429.59	3684.00
429.78	3386.76
429.97	3506.12
430.16	3531.87
430.34	3627.83
430.53	3660.60
430.72	3602.08
430.91	3709.75
431.10	3878.27
431.28	3513.14
431.47	3815.07
431.66	3981.25
431.85	3721.45
432.03	3824.44
432.22	3843.16
432.41	3714.43
432.60	3840.82
432.79	3744.86
432.97	3796.35
433.16	3880.61
433.35	3730.81
433.54	3894.65
433.72	4032.74
433.91	3936.78
434.10	3901.67
434.28	4063.17
434.47	3971.89
434.66	4098.28
434.85	4145.09
435.03	4138.07
435.22	4152.11
435.41	4608.51
435.59	4496.17
435.78	4505.53
435.97	4395.53
436.16	4121.68
436.34	4250.41
436.53	4208.28
436.72	4255.09
436.90	4318.29
437.09	4428.29
437.28	4177.86
437.46	4395.53
437.65	4421.27
437.84	4533.62
438.02	4388.50
438.21	4411.91
438.40	4395.53
438.58	4397.87
438.77	4594.47
438.96	4528.94
439.14	4554.68
439.33	4592.13
439.52	4697.46
439.70	4765.33
439.89	4702.14
440.08	4786.40
440.26	4917.47
440.45	4767.67
440.63	4865.97
440.82	4985.34
441.01	4924.49
441.19	4875.34
441.38	5048.54
441.57	5125.77
441.75	4983.00
441.94	5275.57
442.12	5142.16
442.31	5233.44
442.50	5137.48
442.68	5217.05
442.87	5224.08
443.05	5275.57
443.24	5254.50
443.43	5277.91
443.61	5425.36
443.80	5589.20
443.98	5362.17
444.17	5266.21
444.35	5369.19
444.54	5565.79
444.73	5420.68
444.91	5500.26
445.10	5603.24
445.28	5273.23
445.47	5224.08
445.65	5448.77
445.84	5385.57
446.02	5535.37
446.21	5434.72
446.39	5301.31
446.58	5511.96
446.77	5371.53
446.95	5437.06
447.14	5371.53
447.32	5652.39
447.51	5626.65
447.69	5572.82
447.88	5483.88
448.06	5521.32
448.25	5547.07
448.43	5493.24
448.62	5533.03
448.80	5481.53
448.99	5687.50
449.17	5729.63
449.36	5593.88
449.54	5593.88
449.73	5682.82
449.91	5940.28
450.10	5888.79
450.28	6136.88
450.46	5905.17
450.65	5947.30
450.83	6047.94
451.02	5937.94
451.20	5865.38
451.39	5919.21
451.57	6038.58
451.76	6069.01
451.94	6008.16
452.13	6157.95
452.31	6195.40
452.49	5970.71
452.68	6232.85
452.86	6099.44
453.05	6260.93
453.23	6204.76
453.42	6047.94
453.60	6139.23
453.78	6179.01
453.97	6108.80
454.15	6015.18
454.34	6169.65
454.52	6401.37
454.70	6167.31
454.89	6333.49
455.07	6349.87
455.26	6431.79
455.44	6396.68
455.62	6455.20
455.81	6525.41
455.99	6506.69
456.17	6338.17
456.36	6600.31
456.54	6661.16
456.73	6499.67
456.91	6682.23
457.09	6843.73
457.28	6810.96
457.46	6698.61
457.64	6911.60
457.83	6801.60
458.01	6787.55
458.19	6890.54
458.38	6932.67
458.56	7087.14
458.74	6813.30
458.93	7002.88
459.11	7028.63
459.29	6874.15
459.48	6965.43
459.66	6909.26
459.84	7009.90
460.03	7162.04
460.21	7148.00
460.39	7014.59
460.57	6927.99
460.76	7183.10
460.94	7349.28
461.12	7054.37
461.31	7241.62
461.49	7316.51
461.67	7190.13
461.85	7527.16
462.04	7262.68
462.22	7700.36
462.40	7391.41
462.59	7379.71
462.77	7517.80
462.95	7382.05
463.13	7456.95
463.32	7508.44
463.50	7562.27
463.68	7531.84
463.86	7761.22
464.05	7564.61
464.23	7686.32
464.41	7646.53
464.59	7428.86
464.78	7681.64
464.96	7922.71
465.14	7569.29
465.32	7805.69
465.50	7906.33
465.69	7810.37
465.87	7747.17
466.05	7887.61
466.23	7824.41
466.41	7943.78
466.60	7969.52
466.78	7763.56
466.96	7810.37
467.14	7868.88
467.32	7992.93
467.51	8067.83
467.69	7698.02
467.87	8126.34
468.05	8037.40
468.23	7962.50
468.41	8046.76
468.60	8173.15
468.78	8044.42
468.96	7981.23
469.14	8222.30
469.32	8287.84
469.50	7992.93
469.69	8201.24
469.87	8376.78
470.05	8358.05
470.23	8414.23
470.41	8353.37
470.59	8428.27
470.77	8432.95
470.95	8655.30
471.14	8521.89
471.32	8484.44
471.50	8760.63
471.68	8716.16
471.86	8788.71
472.04	8868.29
472.22	9057.87
472.40	8879.99
472.58	8746.58
472.77	8777.01
472.95	9062.55
473.13	9191.28
473.31	9107.02
473.49	9025.11
473.67	9156.18
473.85	9048.51
474.03	9177.24
474.21	9305.97
474.39	9481.51
474.57	9507.26
474.75	9528.32
474.93	9671.09
475.12	9481.51
475.30	9467.47
475.48	9692.16
475.66	9687.48
475.84	9593.86
476.02	9619.60
476.20	9797.48
476.38	9900.47
476.56	10076.01
476.74	10097.07
476.92	10010.47
477.10	10277.29
477.28	10188.35
477.46	10274.95
477.64	10429.43
477.82	10349.85
478.00	10787.53
478.18	10565.18
478.36	10839.02
478.54	10904.56
478.72	10923.28
478.90	10881.15
479.08	10911.58
479.26	11248.61
479.44	11262.66
479.62	11522.46
479.80	11386.71
479.98	11260.32
480.16	11580.97
480.34	11522.46
480.52	11962.48
480.70	11910.99
480.88	11779.92
481.06	11829.07
481.24	11847.79
481.41	11950.78
481.59	12053.76
481.77	12365.05
481.95	12367.39
482.13	12446.97
482.31	12351.01
482.49	12751.24
482.67	12585.06
482.85	12877.63
483.03	13139.77
483.21	13043.81
483.39	13198.28
483.57	13287.22
483.74	13439.36
483.92	13565.74
484.10	13387.86
484.28	13783.41
484.46	13961.30
484.64	13888.74
484.82	13895.76
485.00	14075.98
485.18	14258.54
485.35	14588.56
485.53	14394.29
485.71	14597.92
485.89	14618.99
486.07	14761.76
486.25	14984.11
486.43	14803.89
486.61	15185.40
486.78	15201.78
486.96	15405.41
487.14	15339.87
487.32	15716.70
487.50	15510.73
487.68	15786.91
487.85	15688.61
488.03	16308.85
488.21	16404.81
488.39	16287.79
488.57	16369.71
488.75	16348.64
488.92	16741.85
489.10	16854.20
489.28	16980.59
489.46	17111.66
489.64	16992.29
489.81	16950.16
489.99	17483.80
490.17	17497.84
490.35	17708.49
490.53	17568.06
490.70	17652.32
490.88	17769.35
491.06	18214.05
491.24	18284.26
491.41	18307.67
491.59	18494.91
491.77	18333.42
491.95	18834.29
492.13	18759.39
492.30	18953.66
492.48	19037.92
492.66	18651.73
492.84	19124.52
493.01	19431.13
493.19	19447.51
493.37	19391.34
493.54	19379.64
493.72	19845.40
493.90	19850.08
494.08	20264.36
494.25	20306.49
494.43	20435.22
494.61	20538.20
494.79	20301.81
494.96	20386.07
495.14	20285.42
495.32	20463.30
495.49	21029.71
495.67	20985.24
495.85	21226.32
496.02	21078.86
496.20	21238.02
496.38	21493.14
496.55	21448.67
496.73	21830.18
496.91	21734.21
497.09	21898.05
497.26	22026.78
497.44	22015.08
497.62	22555.74
497.79	21802.09
497.97	21975.29
498.14	23037.89
498.32	22438.72
498.50	22848.31
498.67	22766.39
498.85	22766.39
499.03	22899.80
499.20	23220.45
499.38	23084.70
499.56	22934.91
499.73	23119.81
499.91	23456.85
500.08	23751.76
500.26	23506.00
500.44	23433.44
500.61	23618.35
500.79	23910.91
500.97	23873.46
501.14	24039.64
501.32	24245.61
501.49	24350.93
501.67	23887.51
501.84	24025.60
502.02	24580.31
502.20	24624.78
502.37	24673.93
502.55	24830.74
502.72	24568.60
502.90	25046.07
503.07	24489.03
503.25	25137.35
503.43	24882.24
503.60	25216.93
503.78	25127.99
503.95	25362.04
504.13	25383.11
504.30	24919.68
504.48	25483.75
504.65	25558.65
504.83	25745.89
505.01	25696.74
505.18	25769.30
505.36	26019.74
505.53	26003.35
505.71	25965.90
505.88	26230.38
506.06	26223.36
506.23	26309.96
506.41	26604.87
506.58	26714.87
506.76	26426.99
506.93	26740.62
507.11	26373.16
507.28	26979.36
507.46	26639.98
507.63	27129.15
507.81	27098.72
507.98	27262.56
508.16	26991.06
508.33	27220.43
508.50	27218.09
508.68	27072.98
508.85	27632.36
509.03	27552.79
509.20	27765.78
509.38	27950.68
509.55	28226.86
509.73	27770.46
509.90	28191.75
510.08	27899.19
510.25	27988.13
510.42	28449.21
510.60	28723.05
510.77	28430.49
510.95	29015.62
511.12	28067.70
511.30	28409.42
511.47	29366.70
511.64	28844.76
511.82	28875.19
511.99	28781.57
512.17	29308.19
512.34	29111.58
512.51	29266.06
512.69	29256.70
512.86	29483.73
513.04	29343.30
513.21	29500.11
513.38	29769.27
513.56	29890.98
513.73	29638.20
513.90	30022.05
514.08	29617.14
514.25	29647.57
514.43	29935.45
514.60	29923.75
514.77	30380.15
514.95	30494.84
515.12	30394.20
515.29	30129.72
515.47	30426.96
515.64	30689.10
515.81	30600.16
515.99	30841.24
516.16	31035.50
516.33	30820.17
516.51	30974.65
516.68	30700.81
516.85	30850.60
517.03	31124.44
517.20	31070.61
517.37	31330.41
517.54	31447.44
517.72	31782.13
517.89	31065.93
518.06	31049.55
518.24	31744.69
518.41	31529.36
518.58	31651.06
518.75	31824.26
518.93	31826.60
519.10	31672.13
519.27	31833.63
519.45	31328.07
519.62	31749.37
519.79	32252.58
519.96	32261.94
520.14	32526.42
520.31	32184.71
520.48	32634.09
520.65	32430.46
520.83	32713.67
521.00	32594.30
521.17	32882.19
521.34	32510.04
521.52	32659.84
521.69	32898.57
521.86	32994.53
522.03	33397.10
522.20	33200.50
522.38	33406.47
522.55	33390.08
522.72	33532.86
522.89	33090.49
523.07	33668.61
523.24	33551.58
523.41	33518.81
523.58	33500.09
523.75	33954.15
523.92	33380.72
524.10	33823.08
524.27	33802.02
524.44	33993.94
524.61	34185.86
524.78	34335.66
524.96	34110.97
525.13	34211.61
525.30	34333.32
525.47	34260.76
525.64	34223.31
525.81	34359.06
525.98	34672.70
526.16	34167.14
526.33	34555.67
526.50	35295.28
526.67	34548.65
526.84	34579.07
527.01	34754.61
527.18	34731.21
527.36	35021.44
527.53	35065.91
527.70	35541.03
527.87	35058.88
528.04	34932.50
528.21	35606.57
528.38	35229.74
528.55	35475.50
528.72	35063.57
528.89	35426.35
529.07	35250.81
529.24	35288.26
529.41	35796.15
529.58	35314.00
529.75	35585.50
529.92	35873.39
530.09	35428.69
530.26	35627.63
530.43	36175.32
530.60	35688.49
530.77	36002.12
530.94	36292.35
531.11	35885.09
531.28	36531.08
531.46	36123.83
531.63	36247.88
531.80	35824.24
531.97	36676.19
532.14	36477.25
532.31	36488.95
532.48	36470.23
532.65	36624.70
532.82	36430.44
532.99	36549.81
533.16	36507.68
533.33	37024.93
533.50	37160.69
533.67	36933.65
533.84	36769.82
534.01	36613.00
534.18	36786.20
534.35	37301.12
534.52	36973.44
534.69	37284.73
534.86	37638.15
535.03	36924.29
535.20	37200.47
535.37	37443.89
535.54	37085.79
535.71	37057.70
535.88	37816.04
536.05	37097.49
536.22	37647.52
536.38	37570.28
536.55	37841.78
536.72	37488.36
536.89	37752.84
537.06	37581.98
537.23	37846.46
537.40	37783.27
537.57	37776.25
537.74	37876.89
537.91	38045.41
538.08	38403.51
538.25	38017.32
538.42	38080.52
538.59	38197.54
538.75	37745.82
538.92	38389.47
539.09	38366.06
539.26	38614.16
539.43	38197.54
539.60	38501.81
539.77	38623.52
539.94	39061.20
540.11	38621.18
540.28	38504.15
540.44	38536.92
540.61	38721.82
540.78	38555.64
540.95	38789.70
541.12	39182.91
541.29	38892.68
541.46	39157.16
541.62	39220.36
541.79	39058.86
541.96	39042.48
542.13	38960.56
542.30	39438.03
542.47	39583.14
542.63	39517.60
542.80	39585.48
542.97	39924.86
543.14	40051.25
543.31	39393.56
543.48	39702.51
543.64	40076.99
543.81	40093.38
543.98	40081.67
544.15	39784.43
544.32	40168.27
544.48	40421.05
544.65	39887.41
544.82	40133.17
544.99	39807.83
545.16	40004.44
545.32	40280.62
545.49	41038.95
545.66	40992.14
545.83	41476.63
546.00	41361.95
546.16	40870.43
546.33	40306.37
546.50	40046.57
546.67	40229.13
546.83	39643.99
547.00	40184.66
547.17	40376.58
547.34	40418.71
547.50	40582.55
547.67	40589.57
547.84	40320.41
548.00	40935.97
548.17	40704.26
548.34	40825.96
548.51	40650.42
548.67	40924.27
548.84	41102.15
549.01	40732.34
549.18	40882.14
549.34	40952.35
549.51	40898.52
549.68	40919.59
549.84	40655.11
550.01	40954.69
550.18	40790.86
550.34	41020.23
550.51	41385.35
550.68	41078.74
550.84	41045.97
551.01	40835.33
551.18	41268.33
551.34	41013.21
551.51	40374.24
551.68	41153.64
551.84	40786.18
552.01	40886.82
552.18	41282.37
552.34	41167.68
552.51	41556.21
552.68	41497.70
552.84	41345.56
553.01	41783.24
553.18	41535.15
553.34	41722.39
553.51	41350.24
553.67	41741.11
553.84	41509.40
554.01	41556.21
554.17	41289.39
554.34	41375.99
554.51	41509.40
554.67	41401.74
554.84	41415.78
555.00	41691.96
555.17	41581.96
555.33	41687.28
555.50	41607.70
555.67	41808.99
555.83	41560.89
556.00	41476.63
556.16	42101.56
556.33	41888.57
556.50	41670.90
556.66	42031.34
556.83	41799.63
556.99	42553.28
557.16	42052.41
557.32	42440.93
557.49	42176.45
557.65	41832.39
557.82	41787.92
557.98	41972.83
558.15	41853.46
558.32	42227.95
558.48	42101.56
558.65	42415.19
558.81	41923.68
558.98	42066.45
559.14	42153.05
559.31	41804.31
559.47	41947.08
559.64	41968.15
559.80	42588.39
559.97	42632.86
560.13	42258.37
560.30	42384.76
560.46	42321.57
560.63	42349.65
560.79	42710.10
560.96	42344.97
561.12	42295.82
561.29	42237.31
561.45	42476.04
561.61	42595.41
561.78	42316.89
561.94	42841.17
562.11	42433.91
562.27	42326.25
562.44	42291.14
562.60	42302.84
562.77	42256.03
562.93	42628.18
563.10	42810.74
563.26	42574.34
563.42	42555.62
563.59	42897.34
563.75	42555.62
563.92	42845.85
564.08	42564.98
564.24	42794.36
564.41	42389.44
564.57	42572.00
564.74	42550.94
564.90	42632.86
565.07	42429.23
565.23	42962.87
565.39	42499.45
565.56	42714.78
565.72	42382.42
565.88	42658.60
566.05	42408.17
566.21	42822.44
566.38	42572.00
566.54	42824.78
566.70	42782.65
566.87	43412.26
567.03	42651.58
567.19	43056.50
567.36	43159.48
567.52	42564.98
567.68	43016.71
567.85	42387.10
568.01	42794.36
568.17	42897.34
568.34	43306.93
568.50	42927.77
568.66	43063.52
568.83	43019.05
568.99	42754.57
569.15	42431.57
569.32	42651.58
569.48	42728.82
569.64	42911.38
569.81	42621.16
569.97	42621.16
570.13	42588.39
570.30	43021.39
570.46	43107.99
570.62	43056.50
570.78	42237.31
570.95	42515.83
571.11	42930.11
571.27	42803.72
571.43	42628.18
571.60	42632.86
571.76	42845.85
571.92	43194.59
572.09	42859.89
572.25	42707.76
572.41	43154.80
572.57	42895.00
572.74	43023.73
572.90	42780.31
573.06	42639.88
573.22	42445.62
573.38	42925.42
573.55	43063.52
573.71	43601.84
573.87	43512.90
574.03	42569.66
574.20	42974.58
574.36	42522.85
574.52	42586.05
574.68	43000.32
574.84	42745.20
575.01	43445.02
575.17	43234.38
575.33	42752.23
575.49	43243.74
575.65	43477.79
575.82	43262.46
575.98	42630.52
576.14	43349.06
576.30	43192.25
576.46	43107.99
576.62	43112.67
576.79	43203.95
576.95	43093.94
577.11	43110.33
577.27	42712.44
577.43	42951.17
577.59	43082.24
577.75	43014.37
577.92	42801.38
578.08	42979.26
578.24	42567.32
578.40	43079.90
578.56	43508.22
578.72	42873.93
578.88	43332.68
579.04	43416.94
579.21	43386.51
579.37	42997.98
579.53	43260.12
579.69	42630.52
579.85	43054.15
580.01	43093.94
580.17	42913.72
580.33	42843.51
580.49	42621.16
580.65	43374.81
580.82	43461.41
580.98	43250.76
581.14	43131.39
581.30	43615.88
581.46	43058.84
581.62	43173.52
581.78	42934.79
581.94	43412.26
582.10	43257.78
582.26	43330.34
582.42	43236.72
582.58	43398.21
582.74	43269.48
582.90	43210.97
583.06	43229.69
583.22	43026.07
583.38	42880.95
583.54	42981.60
583.70	42625.84
583.86	43391.19
584.02	43093.94
584.18	43070.54
584.34	43494.18
584.50	43398.21
584.66	42899.68
584.82	42887.98
584.98	43304.59
585.14	43445.02
585.30	43147.78
585.46	43232.04
585.62	42869.25
585.78	43468.43
585.94	43213.31
586.10	43540.99
586.26	43487.15
586.42	43573.75
586.58	43416.94
586.74	43236.72
586.90	43103.31
587.06	43449.70
587.22	43299.91
587.38	43288.21
587.54	43789.08
587.70	43697.80
587.86	43629.93
588.02	42918.40
588.18	43786.74
588.34	43222.67
588.49	43210.97
588.65	42834.14
588.81	42993.30
588.97	42873.93
589.13	43246.08
589.29	43065.86
589.45	43552.69
589.61	43501.20
589.77	43648.65
589.93	43318.64
590.08	43779.72
590.24	43739.93
590.40	43782.06
590.56	43377.15
590.72	43662.69
590.88	43456.73
591.04	43131.39
591.20	43470.77
591.35	43966.96
591.51	43908.45
591.67	43922.49
591.83	43892.07
591.99	44215.06
592.15	43646.31
592.31	43735.25
592.46	43232.04
592.62	43339.70
592.78	43360.76
592.94	43468.43
593.10	43033.09
593.26	43887.39
593.41	43814.83
593.57	43491.83
593.73	43449.70
593.89	43833.55
594.05	43435.66
594.20	43498.86
594.36	43365.45
594.52	43510.56
594.68	43168.84
594.84	43222.67
594.99	43339.70
595.15	43606.52
595.31	43571.41
595.47	43674.40
595.62	43831.21
595.78	43562.05
595.94	43510.56
596.10	43040.11
596.25	43480.13
596.41	43491.83
596.57	43606.52
596.73	43442.68
596.88	43531.62
597.04	43470.77
597.20	43402.89
597.36	43971.64
597.51	43882.70
597.67	43255.44
597.83	42995.64
597.99	43360.76
598.14	43522.26
598.30	43634.61
598.46	43423.96
598.61	43662.69
598.77	43269.48
598.93	43421.62
599.09	43524.60
599.24	43711.84
599.40	43772.70
599.56	43718.87
599.71	43379.49
599.87	43901.43
600.03	43068.20
600.18	43768.02
600.34	43178.20
600.50	43117.35
600.65	43487.15
600.81	43526.94
600.97	43686.10
601.12	44020.80
601.28	43498.86
601.44	43222.67
601.59	43470.77
601.75	43145.44
601.91	43576.09
602.06	43599.50
602.22	43213.31
602.37	43447.36
602.53	43662.69
602.69	43711.84
602.84	43449.70
603.00	43398.21
603.16	43400.55
603.31	43658.01
603.47	43658.01
603.62	42981.60
603.78	43110.33
603.94	43267.14
604.09	43421.62
604.25	43096.28
604.40	43386.51
604.56	43040.11
604.71	43580.78
604.87	42937.13
605.03	43435.66
605.18	43227.35
605.34	43227.35
605.49	43112.67
605.65	43281.19
605.80	43182.88
605.96	42913.72
606.12	43145.44
606.27	43187.56
606.43	43159.48
606.58	43426.30
606.74	42787.33
606.89	43402.89
607.05	42817.76
607.20	42990.96
607.36	42934.79
607.51	43098.62
607.67	42883.30
607.82	42897.34
607.98	43014.37
608.13	43367.79
608.29	43269.48
608.44	42632.86
608.60	43171.18
608.75	43234.38
608.91	42852.87
609.06	42611.79
609.22	43428.64
609.37	42359.02
609.53	43037.77
609.68	42714.78
609.84	42745.20
609.99	42639.88
610.15	42834.14
610.30	42960.53
610.46	43037.77
610.61	43278.85
610.76	43351.40
610.92	43463.75
611.07	43419.28
611.23	43606.52
611.38	43569.07
611.54	42990.96
611.69	42932.45
611.84	42763.93
612.00	42674.99
612.15	42799.04
612.31	42710.10
612.46	42429.23
612.62	42735.84
612.77	43161.82
612.92	43292.89
613.08	42195.18
613.23	42286.46
613.39	42249.01
613.54	41935.38
613.69	43051.81
613.85	42277.10
614.00	42330.93
614.15	42628.18
614.31	42438.59
614.46	42747.54
614.62	42213.90
614.77	42651.58
614.92	42424.55
615.08	42265.39
615.23	42373.06
615.38	42040.70
615.54	41581.96
615.69	42146.03
615.84	42237.31
616.00	42232.63
616.15	42057.09
616.30	42192.84
616.46	42295.82
616.61	42082.83
616.76	42562.64
616.92	41804.31
617.07	41916.65
617.22	41923.68
617.37	41860.48
617.53	41656.85
617.68	41610.04
617.83	41696.64
617.99	41460.25
618.14	41635.79
618.29	42026.66
618.45	41808.99
618.60	41741.11
618.75	41766.86
618.90	41502.38
619.06	41455.57
619.21	41113.85
619.36	41415.78
619.51	41163.00
619.67	41092.79
619.82	41188.75
619.97	41378.33
620.12	41432.16
620.28	41251.94
620.43	41797.29
620.58	41748.14
620.73	41469.61
620.89	41450.89
621.04	41399.40
621.19	41631.11
621.34	41181.73
621.49	41151.30
621.65	40971.08
621.80	41478.97
621.95	40844.69
622.10	41338.54
622.25	41118.53
622.41	41020.23
622.56	40842.35
622.71	41177.04
622.86	41013.21
623.01	41132.57
623.16	40697.24
623.32	40507.65
623.47	41078.74
623.62	40608.29
623.77	40694.89
623.92	40809.58
624.07	40744.05
624.23	40720.64
624.38	40959.38
624.53	40533.40
624.68	40793.20
624.83	40980.44
624.98	41177.04
625.13	40727.66
625.29	40711.28
625.44	40526.38
625.59	40435.10
625.74	40229.13
625.89	40364.88
626.04	40205.72
626.19	39847.62
626.34	40491.27
626.49	40612.98
626.65	39784.43
626.80	40432.75
626.95	40194.02
627.10	40285.30
627.25	40016.14
627.40	40018.48
627.55	40098.06
627.70	39978.69
627.85	40149.55
628.00	39917.84
628.15	39927.20
628.30	40079.33
628.45	39990.39
628.60	39966.99
628.76	39983.37
628.91	39969.33
629.06	39892.09
629.21	39681.44
629.36	39819.53
629.51	39826.56
629.66	39398.24
629.81	39445.05
629.96	39821.87
630.11	39718.89
630.26	39849.96
630.41	39697.83
630.56	39655.70
630.71	39920.18
630.86	39487.18
631.01	39882.73
631.16	39601.86
631.31	39866.34
631.46	39089.29
631.61	39248.44
631.76	39356.11
631.91	39213.34
632.06	39175.89
632.21	39253.12
632.36	39370.15
632.51	38923.11
632.66	39550.37
632.81	39196.95
632.96	39131.42
633.10	39117.37
633.25	39281.21
633.40	39189.93
633.55	39328.02
633.70	38696.08
633.85	38808.42
634.00	38845.87
634.15	38986.30
634.30	39065.88
634.45	38834.17
634.60	39103.33
634.75	38679.69
634.90	39047.16
635.05	39023.75
635.19	39023.75
635.34	38639.90
635.49	38775.66
635.64	38792.04
635.79	38827.15
635.94	38335.63
636.09	38630.54
636.24	38724.16
636.39	38230.31
636.53	38565.01
636.68	38487.77
636.83	38553.30
636.98	38822.47
637.13	38600.12
637.28	38321.59
637.43	38628.20
637.57	38972.26
637.72	38260.74
637.87	38450.32
638.02	38361.38
638.17	38520.54
638.32	38312.23
638.46	38281.80
638.61	38239.67
638.76	37769.22
638.91	38171.80
639.06	38017.32
639.20	38127.33
639.35	37961.15
639.50	38309.89
639.65	38452.66
639.80	38270.10
639.94	37766.88
640.09	37827.74
640.24	38087.54
640.39	37661.56
640.54	37734.12
640.68	38073.49
640.83	37869.87
640.98	37890.93
641.13	37394.74
641.27	38249.03
641.42	37874.55
641.57	37713.05
641.72	37813.70
641.86	37965.83
642.01	37771.57
642.16	37741.14
642.31	37261.33
642.45	37553.90
642.60	37635.81
642.75	37474.32
642.90	37502.40
643.04	37167.71
643.19	36978.12
643.34	37446.23
643.48	37354.95
643.63	37479.00
643.78	37474.32
643.93	37652.20
644.07	37563.26
644.22	37928.38
644.37	37266.01
644.51	37347.93
644.66	37574.96
644.81	37200.47
644.95	37350.27
645.10	37074.09
645.25	36870.46
645.39	37280.05
645.54	37067.06
645.69	36973.44
645.83	37221.54
645.98	37436.87
646.13	37394.74
646.27	37261.33
646.42	37022.59
646.57	37191.11
646.71	37296.44
646.86	37067.06
647.00	36868.12
647.15	37097.49
647.30	37195.79
647.44	36423.42
647.59	37116.22
647.74	36711.30
647.88	37247.29
648.03	37006.21
648.17	37134.94
648.32	37085.79
648.47	37081.11
648.61	36566.19
648.76	37226.22
648.90	36662.15
649.05	36526.40
649.20	36795.56
649.34	36481.93
649.49	36392.99
649.63	36692.58
649.78	36503.00
649.92	36505.34
650.07	36760.45
650.21	36421.08
650.36	36547.47
650.51	36673.85
650.65	36407.03
650.80	36495.97
650.94	36362.56
651.09	36507.68
651.23	36360.22
651.38	36308.73
651.52	36268.94
651.67	36196.38
651.81	35992.76
651.96	36105.10
652.10	36123.83
652.25	35927.22
652.39	36484.27
652.54	36299.37
652.68	36004.46
652.83	36144.89
652.97	36463.21
653.12	35637.00
653.26	35875.73
653.41	36507.68
653.55	35875.73
653.70	35484.86
653.84	36095.74
653.99	35978.72
654.13	35793.81
654.27	35442.73
654.42	35978.72
654.56	35704.87
654.71	36091.06
654.85	35756.36
655.00	35997.44
655.14	35658.06
655.29	35669.76
655.43	35402.94
655.57	35763.39
655.72	35407.62
655.86	35475.50
656.01	35213.36
656.15	35274.21
656.30	35515.29
656.44	35042.50
656.58	35295.28
656.73	35442.73
656.87	34920.79
657.01	35330.39
657.16	35360.81
657.30	35026.12
657.45	35409.96
657.59	35814.88
657.73	34838.87
657.88	35166.55
658.02	35161.87
658.16	34724.19
658.31	35098.67
658.45	35178.25
658.60	34682.06
658.74	35042.50
658.88	35243.79
659.03	34632.91
659.17	34810.79
659.31	35014.41
659.46	35119.74
659.60	35030.80
659.74	34572.05
659.89	35044.84
660.03	34560.35
660.17	34735.89
660.32	34632.91
660.46	34712.49
660.60	34213.95
660.74	34522.90
660.89	34501.84
661.03	33975.22
661.17	34291.19
661.32	34204.59
661.46	34026.71
661.60	34155.44
661.74	34267.78
661.89	34235.02
662.03	34323.96
662.17	33933.09
662.31	34206.93
662.46	34305.23
662.60	33984.58
662.74	33542.22
662.88	33888.62
663.03	33673.29
663.17	33514.13
663.31	33427.53
663.45	33926.07
663.60	33600.73
663.74	33713.08
663.88	33582.01
664.02	33212.20
664.17	33530.51
664.31	33317.53
664.45	33256.67
664.59	33537.54
664.73	33443.91
664.88	33301.14
665.02	33317.53
665.16	32847.08
665.30	33149.01
665.44	32884.53
665.59	32893.89
665.73	32453.87
665.87	32460.89
666.01	32517.06
666.15	32950.06
666.29	33158.37
666.44	32680.90
666.58	33069.43
666.72	32943.04
666.86	32360.25
667.00	32779.20
667.14	32727.71
667.28	32393.01
667.43	32650.47
667.57	32554.51
667.71	31751.71
667.85	32531.11
667.99	31943.63
668.13	32283.01
668.27	32187.05
668.41	32009.17
668.56	31681.49
668.70	32484.30
668.84	32191.73
668.98	32023.21
669.12	31810.22
669.26	32055.98
669.40	32002.14
669.54	31508.29
669.68	31714.26
669.82	31328.07
669.96	30930.18
670.10	30955.93
670.25	31489.57
670.39	30955.93
670.53	31714.26
670.67	31063.59
670.81	31639.36
670.95	31311.69
671.09	31049.55
671.23	30976.99
671.37	31328.07
671.51	31576.17
671.65	31049.55
671.79	30698.47
671.93	30656.34
672.07	30850.60
672.21	30405.90
672.35	30532.29
672.49	30249.08
672.63	30810.81
672.77	30342.70
672.91	30258.45
673.05	30080.56
673.19	30183.55
673.33	30323.98
673.47	30377.81
673.61	30312.28
673.75	30279.51
673.89	30017.37
674.03	30136.74
674.17	29823.11
674.31	29745.87
674.45	29560.97
674.59	29528.20
674.73	29474.37
674.87	29425.22
675.01	29228.61
675.15	29406.49
675.29	29518.84
675.43	29659.27
675.56	29364.36
675.70	29469.69
675.84	29820.77
675.98	28517.09
676.12	29205.20
676.26	29294.14
676.40	28673.90
676.54	29050.73
676.68	28971.15
676.82	28526.45
676.96	28463.25
677.10	28301.76
677.23	28327.50
677.37	28168.35
677.51	28479.64
677.65	27843.01
677.79	28025.57
677.93	28074.73
678.07	27880.46
678.21	27660.45
678.34	27754.07
678.48	27718.96
678.62	27988.13
678.76	27470.87
678.90	27835.99
679.04	27412.35
679.18	27417.04
679.31	27136.17
679.45	26927.86
679.59	26712.53
679.73	26581.46
679.87	26703.17
680.00	26759.34
680.14	26462.10
680.28	26780.41
680.42	26625.93
680.56	26342.73
680.70	26579.12
680.83	25993.99
680.97	26658.70
681.11	26300.60
681.25	26277.19
681.39	26331.03
681.52	25769.30
681.66	25769.30
681.80	25696.74
681.94	25483.75
682.07	25486.09
682.21	25415.88
682.35	25324.60
682.49	25340.98
682.62	24989.90
682.76	25137.35
682.90	25312.89
683.04	25390.13
683.17	25191.19
683.31	24758.19
683.45	24987.56
683.59	24678.61
683.72	24865.85
683.86	24673.93
684.00	24404.77
684.13	24278.38
684.27	24418.81
684.41	24297.10
684.55	24004.53
684.68	24081.77
684.82	23948.36
684.96	24409.45
685.09	23758.78
685.23	23782.18
685.37	24034.96
685.50	23882.83
685.64	23805.59
685.78	23487.28
685.91	23730.69
686.05	23587.92
686.19	23267.27
686.32	23278.97
686.46	22808.52
686.60	22977.04
686.73	23112.79
686.87	23061.30
687.01	22909.16
687.14	22616.60
687.28	22640.00
687.42	22710.22
687.55	22735.96
687.69	22522.98
687.82	22298.28
687.96	22485.53
688.10	21797.41
688.23	22436.38
688.37	22188.28
688.50	22464.46
688.64	22176.58
688.78	21886.35
688.91	21488.46
689.05	21631.23
689.18	21745.92
689.32	21135.04
689.46	21553.99
689.59	21252.06
689.73	21158.44
689.86	21331.64
690.00	21310.58
690.13	21483.78
690.27	21027.37
690.41	21359.73
690.54	20760.55
690.68	20964.18
690.81	20996.95
690.95	20741.83
691.08	20664.59
691.22	20718.42
691.35	20606.08
691.49	20542.88
691.62	20306.49
691.76	20056.05
691.89	20226.91
692.03	19770.51
692.16	20086.48
692.30	19798.59
692.43	19824.34
692.57	19873.49
692.70	19740.08
692.84	19578.58
692.97	19697.95
693.11	19585.60
693.24	19585.60
693.38	19648.80
693.51	19246.23
693.65	19211.12
693.78	19215.80
693.92	18871.74
694.05	18951.32
694.19	18937.27
694.32	18728.97
694.45	18668.11
694.59	18520.66
694.72	18593.22
694.86	18333.42
694.99	17902.76
695.13	18333.42
695.26	18384.91
695.39	17954.25
695.53	18253.84
695.66	18281.92
695.80	18256.18
695.93	17975.31
696.07	17771.69
696.20	18008.08
696.33	17767.01
696.47	17788.07
696.60	17745.94
696.73	17708.49
696.87	17399.54
697.00	17376.14
697.14	17020.38
697.27	17116.34
697.40	16999.31
697.54	16898.67
697.67	16978.25
697.80	16807.39
697.94	16702.06
698.07	16727.81
698.21	16849.52
698.34	16786.32
698.47	16585.04
698.61	16240.98
698.74	16475.03
698.87	16184.80
699.01	16341.62
699.14	16278.43
699.27	16119.27
699.40	16315.87
699.54	15995.22
699.67	15566.90
699.80	15704.99
699.94	15845.43
700.07	15770.53
700.20	15426.47
700.34	15353.91
700.47	15431.15
700.60	15377.32
700.73	15463.92
700.87	15489.67
701.00	15143.27
701.13	15302.42
701.26	15164.33
701.40	15183.06
701.53	14820.27
701.66	15211.14
701.79	14930.28
701.93	14923.26
702.06	14553.45
702.19	14516.00
702.32	14497.28
702.46	14312.38
702.59	14373.23
702.72	14251.52
702.85	14394.29
702.99	14312.38
703.12	14324.08
703.25	13956.61
703.38	14244.50
703.51	13998.74
703.65	14050.24
703.78	14188.33
703.91	14094.71
704.04	13776.39
704.17	14040.87
704.31	13642.98
704.44	13589.15
704.57	13589.15
704.70	13392.55
704.83	13221.69
704.96	13158.49
705.10	13142.11
705.23	13174.88
>>>>>End Processed Spectral Data<<<<<
