SpectraSuite Data File
++++++++++++++++++++++++++++++++++++
Date: Tue Oct 01 18:27:26 GMT-05:00 2013
User: stostad
Dark Spectrum Present: No
Reference Spectrum Present: No
Number of Sampled Component Spectra: 1
Spectrometers: USB2+H05261
Integration Time (usec): 100000 (USB2+H05261)
Spectra Averaged: 1 (USB2+H05261)
Boxcar Smoothing: 0 (USB2+H05261)
Correct for Electrical Dark: No (USB2+H05261)
Strobe/Lamp Enabled: No (USB2+H05261)
Correct for Detector Non-linearity: No (USB2+H05261)
Correct for Stray Light: No (USB2+H05261)
Number of Pixels in Processed Spectrum: 2048
>>>>>Begin Processed Spectral Data<<<<<
365.73	72.56
365.92	72.56
366.12	72.56
366.32	0.00
366.52	0.00
366.72	23.41
366.91	0.00
367.11	0.00
367.31	0.00
367.51	32.77
367.70	0.00
367.90	0.00
368.10	0.00
368.30	7.02
368.49	0.00
368.69	0.00
368.89	0.00
369.09	0.00
369.28	0.00
369.48	4.68
369.68	2.34
369.87	0.00
370.07	44.47
370.27	53.83
370.47	110.01
370.66	308.95
370.86	311.29
371.06	313.63
371.25	348.74
371.45	283.20
371.65	311.29
371.84	355.76
372.04	306.61
372.24	341.72
372.44	369.80
372.63	374.49
372.83	388.53
373.03	465.77
373.22	355.76
373.42	290.23
373.62	360.44
373.81	386.19
374.01	397.89
374.21	465.77
374.40	383.85
374.60	498.53
374.79	381.51
374.99	421.30
375.19	416.62
375.38	390.87
375.58	461.09
375.78	458.74
375.97	479.81
376.17	500.87
376.37	477.47
376.56	444.70
376.76	498.53
376.95	465.77
377.15	449.38
377.35	589.82
377.54	521.94
377.74	416.62
377.93	381.51
378.13	521.94
378.33	505.56
378.52	442.36
378.72	463.43
378.91	489.17
379.11	545.34
379.31	486.83
379.50	503.22
379.70	631.94
379.89	575.77
380.09	526.62
380.28	554.71
380.48	524.28
380.68	571.09
380.87	528.96
381.07	524.28
381.26	538.32
381.46	519.60
381.65	496.19
381.85	564.07
382.04	533.64
382.24	550.03
382.43	585.13
382.63	589.82
382.83	477.47
383.02	613.22
383.22	613.22
383.41	538.32
383.61	634.29
383.80	613.22
384.00	650.67
384.19	610.88
384.39	578.11
384.58	606.20
384.78	571.09
384.97	643.65
385.17	610.88
385.36	662.37
385.56	655.35
385.75	645.99
385.95	669.39
386.14	582.79
386.34	624.92
386.53	634.29
386.72	622.58
386.92	627.26
387.11	634.29
387.31	692.80
387.50	704.50
387.70	739.61
387.89	713.86
388.09	716.20
388.28	692.80
388.48	758.33
388.67	667.05
388.86	685.78
389.06	660.03
389.25	662.37
389.45	753.65
389.64	777.06
389.84	800.46
390.03	802.80
390.22	765.36
390.42	723.23
390.61	709.18
390.81	791.10
391.00	798.12
391.19	802.80
391.39	800.46
391.58	837.91
391.78	851.96
391.97	842.59
392.16	767.70
392.36	870.68
392.55	882.38
392.75	912.81
392.94	849.61
393.13	858.98
393.33	835.57
393.52	884.72
393.71	891.74
393.91	826.21
394.10	849.61
394.29	884.72
394.49	919.83
394.68	950.26
394.88	908.13
395.07	940.90
395.26	997.07
395.46	966.64
395.65	999.41
395.84	1004.09
396.04	1153.88
396.23	990.05
396.42	1018.13
396.62	957.28
396.81	1086.01
397.00	1032.18
397.19	1050.90
397.39	973.66
397.58	1067.28
397.77	1146.86
397.97	1064.94
398.16	1067.28
398.35	1060.26
398.55	1048.56
398.74	1184.31
398.93	1160.91
399.12	1177.29
399.32	1212.40
399.51	1294.32
399.70	1245.16
399.90	1144.52
400.09	1263.89
400.28	1221.76
400.47	1287.29
400.67	1174.95
400.86	1245.16
401.05	1280.27
401.24	1231.12
401.44	1256.87
401.63	1315.38
401.82	1329.42
402.01	1324.74
402.21	1446.45
402.40	1373.89
402.59	1299.00
402.78	1320.06
402.97	1310.70
403.17	1394.96
403.36	1373.89
403.55	1306.02
403.74	1486.24
403.93	1448.79
404.13	1535.39
404.32	1486.24
404.51	1511.99
404.70	1528.37
404.89	1526.03
405.09	1521.35
405.28	1614.97
405.47	1554.12
405.66	1561.14
405.85	1547.09
406.05	1551.78
406.24	1582.20
406.43	1717.95
406.62	1600.93
406.81	1664.12
407.00	1732.00
407.20	1710.93
407.39	1813.92
407.58	1736.68
407.77	1717.95
407.96	1760.08
408.15	1858.39
408.34	1748.38
408.54	1870.09
408.73	1874.77
408.92	1926.26
409.11	1949.67
409.30	2024.56
409.49	1954.35
409.68	1912.22
409.87	1952.01
410.07	2010.52
410.26	2022.22
410.45	2029.24
410.64	2076.06
410.83	2057.33
411.02	2062.01
411.21	2111.16
411.40	2104.14
411.59	2183.72
411.78	2200.10
411.98	2188.40
412.17	2232.87
412.36	2289.04
412.55	2169.68
412.74	2296.07
412.93	2279.68
413.12	2368.62
413.31	2434.16
413.50	2377.98
413.69	2534.80
413.88	2483.31
414.07	2541.82
414.26	2492.67
414.45	2569.91
414.64	2546.50
414.83	2661.19
415.02	2637.78
415.22	2724.38
415.41	2815.66
415.60	2764.17
415.79	2733.75
415.98	2785.24
416.17	2750.13
416.36	2672.89
416.55	2782.90
416.74	2789.92
416.93	2899.92
417.12	2876.52
417.31	2923.33
417.50	2991.20
417.69	3014.61
417.88	3016.95
418.07	3073.12
418.26	2874.18
418.45	3026.31
418.64	3084.83
418.83	3164.40
419.02	3068.44
419.21	3290.79
419.39	3087.17
419.58	3227.60
419.77	3040.36
419.96	3328.24
420.15	3274.41
420.34	3267.39
420.53	3309.52
420.72	3335.26
420.91	3246.32
421.10	3417.18
421.29	3382.07
421.48	3288.45
421.67	3536.55
421.86	3435.91
422.05	3475.70
422.24	3386.76
422.43	3449.95
422.61	3456.97
422.80	3506.12
422.99	3419.52
423.18	3480.38
423.37	3494.42
423.56	3552.93
423.75	3496.76
423.94	3487.40
424.13	3393.78
424.32	3445.27
424.50	3604.42
424.69	3588.04
424.88	3637.19
425.07	3585.70
425.26	3562.30
425.45	3578.68
425.64	3693.37
425.83	3529.53
426.01	3660.60
426.20	3531.87
426.39	3606.77
426.58	3634.85
426.77	3723.79
426.96	3726.13
427.15	3662.94
427.33	3695.71
427.52	3604.42
427.71	3695.71
427.90	3716.77
428.09	3840.82
428.28	3871.25
428.46	3801.03
428.65	3864.22
428.84	3875.93
429.03	4072.53
429.22	3908.69
429.40	3997.64
429.59	3922.74
429.78	3761.24
429.97	3906.35
430.16	3995.29
430.34	4095.94
430.53	4093.60
430.72	4023.38
430.91	4044.45
431.10	4037.42
431.28	4170.83
431.47	4119.34
431.66	4093.60
431.85	4072.53
432.03	4269.14
432.22	4301.90
432.41	4219.99
432.60	4318.29
432.79	4219.99
432.97	4355.74
433.16	4355.74
433.35	4348.72
433.54	4470.42
433.72	4411.91
433.91	4402.55
434.10	4416.59
434.28	4498.51
434.47	4559.36
434.66	4667.03
434.85	4465.74
435.03	4641.28
435.22	4444.68
435.41	4564.04
435.59	4587.45
435.78	4559.36
435.97	4692.77
436.16	4627.24
436.34	4596.81
436.53	4627.24
436.72	4788.74
436.90	4589.79
437.09	4784.06
437.28	4854.27
437.46	4816.82
437.65	4791.08
437.84	4727.88
438.02	4774.69
438.21	4943.21
438.40	4739.58
438.58	5022.79
438.77	5121.09
438.96	5100.03
439.14	4894.06
439.33	5188.97
439.52	5301.31
439.70	5071.94
439.89	5493.24
440.08	5184.29
440.26	5533.03
440.45	5460.47
440.63	5446.43
440.82	5614.95
441.01	5217.05
441.19	5411.32
441.38	5570.48
441.57	5549.41
441.75	5715.59
441.94	5778.78
442.12	5781.12
442.31	5968.37
442.50	5790.49
442.68	5886.45
442.87	5930.92
443.05	5781.12
443.24	5844.32
443.43	5982.41
443.61	5792.83
443.80	6195.40
443.98	5785.80
444.17	5792.83
444.35	5984.75
444.54	6080.71
444.73	5998.79
444.91	5909.85
445.10	5832.62
445.28	5977.73
445.47	6040.92
445.65	5994.11
445.84	6078.37
446.02	6071.35
446.21	5944.96
446.39	6005.81
446.58	6157.95
446.77	6307.74
446.95	6073.69
447.14	6230.51
447.32	6118.16
447.51	6150.93
447.69	6097.10
447.88	6120.50
448.06	6230.51
448.25	6214.12
448.43	6181.35
448.62	6279.66
448.80	6244.55
448.99	6321.79
449.17	6464.56
449.36	6207.10
449.54	6696.27
449.73	6377.96
449.91	6377.96
450.10	6504.35
450.28	6684.57
450.46	6380.30
450.65	6689.25
450.83	6640.10
451.02	6513.71
451.20	6483.28
451.39	6736.06
451.57	6473.92
451.76	6719.68
451.94	6450.52
452.13	6808.62
452.31	6857.77
452.49	6759.47
452.68	6789.89
452.86	6843.73
453.05	6949.05
453.23	6963.09
453.42	6792.23
453.60	6794.58
453.78	6911.60
453.97	6757.13
454.15	6792.23
454.34	6911.60
454.52	7148.00
454.70	7012.24
454.89	7136.29
455.07	7040.33
455.26	7112.89
455.44	7173.74
455.62	7201.83
455.81	7314.17
455.99	7279.07
456.17	7337.58
456.36	7365.67
456.54	7520.14
456.73	7293.11
456.91	7564.61
457.09	7864.20
457.28	7602.06
457.46	7492.05
457.64	7728.45
457.83	7616.10
458.01	7470.99
458.19	7826.75
458.38	7700.36
458.56	7854.84
458.74	7859.52
458.93	7576.31
459.11	7861.86
459.29	7716.75
459.48	7843.14
459.66	7880.58
459.84	7922.71
460.03	8060.80
460.21	7906.33
460.39	7997.61
460.57	7857.18
460.76	8222.30
460.94	8121.66
461.12	7913.35
461.31	8308.90
461.49	8098.25
461.67	8149.75
461.85	8386.14
462.04	8226.98
462.22	8744.24
462.40	8334.65
462.59	8402.52
462.77	8346.35
462.95	8376.78
463.13	8437.63
463.32	8517.21
463.50	8505.51
463.68	8477.42
463.86	8571.04
464.05	8503.17
464.23	8416.57
464.41	8587.43
464.59	8365.07
464.78	8718.50
464.96	8720.84
465.14	8571.04
465.32	8786.37
465.50	8779.35
465.69	8903.40
465.87	8540.61
466.05	8734.88
466.23	8910.42
466.41	8985.32
466.60	9004.04
466.78	8894.04
466.96	8887.01
467.14	8786.37
467.32	8915.10
467.51	9027.45
467.69	8781.69
467.87	8999.36
468.05	9184.26
468.23	8929.14
468.41	8987.66
468.60	9053.19
468.78	9273.20
468.96	9165.54
469.14	9074.26
469.32	9310.65
469.50	9046.17
469.69	9434.70
469.87	9411.29
470.05	9640.67
470.23	9556.41
470.41	9448.74
470.59	9785.78
470.77	9633.64
470.95	9856.00
471.14	9664.07
471.32	9465.13
471.50	10059.62
471.68	9809.19
471.86	9947.28
472.04	10090.05
472.22	10092.39
472.40	9827.91
472.58	10141.54
472.77	10008.13
472.95	10331.12
473.13	10551.14
473.31	10251.55
473.49	10291.34
473.67	10396.66
473.85	10312.40
474.03	10450.49
474.21	10661.14
474.39	10698.59
474.57	10719.65
474.75	10614.33
474.93	10890.51
475.12	10759.44
475.30	10855.40
475.48	10911.58
475.66	11049.67
475.84	11222.87
476.02	11314.15
476.20	11098.82
476.38	11276.70
476.56	11487.35
476.74	11536.50
476.92	11372.66
477.10	11562.25
477.28	11602.04
477.46	11761.19
477.64	11859.49
477.82	11983.54
478.00	12404.84
478.18	12112.27
478.36	12149.72
478.54	12400.16
478.72	12341.64
478.90	12767.62
479.08	12596.76
479.26	12791.03
479.44	13053.17
479.62	12933.80
479.80	13074.23
479.98	12959.55
480.16	13373.82
480.34	13261.48
480.52	13476.80
480.70	13444.04
480.88	13439.36
481.06	13528.30
481.24	13729.58
481.41	13834.91
481.59	14050.24
481.77	14501.96
481.95	14455.15
482.13	14314.72
482.31	14181.31
482.49	14424.72
482.67	14600.26
482.85	14780.48
483.03	15026.24
483.21	15073.05
483.39	15279.02
483.57	15353.91
483.74	15302.42
483.92	15461.58
484.10	15627.76
484.28	15578.61
484.46	16023.31
484.64	16259.70
484.82	15971.82
485.00	16418.86
485.18	16582.70
485.35	16774.62
485.53	16369.71
485.71	16659.93
485.89	16936.12
486.07	16877.60
486.25	17106.98
486.43	17390.18
486.61	17570.40
486.78	17504.87
486.96	17570.40
487.14	17998.72
487.32	18132.13
487.50	18005.74
487.68	18298.31
487.85	18581.51
488.03	18677.48
488.21	18757.05
488.39	18644.71
488.57	18799.18
488.75	19007.49
488.92	19180.69
489.10	19487.30
489.28	19639.44
489.46	19639.44
489.64	19274.31
489.81	20123.93
489.99	20107.54
490.17	20381.38
490.35	20613.10
490.53	20360.32
490.70	20760.55
490.88	20603.74
491.06	20664.59
491.24	20790.98
491.41	21088.23
491.59	21245.04
491.77	21167.80
491.95	21593.78
492.13	21523.57
492.30	21872.31
492.48	22209.34
492.66	22010.40
492.84	22075.93
493.01	22347.44
493.19	22438.72
493.37	22600.21
493.54	22515.95
493.72	22457.44
493.90	22834.27
494.08	23227.48
494.25	23665.16
494.43	23220.45
494.61	23351.52
494.79	23828.99
494.96	23864.10
495.14	23866.44
495.32	24109.86
495.49	24327.53
495.67	24369.66
495.85	24109.86
496.02	24322.85
496.20	24746.48
496.38	24690.31
496.55	24702.01
496.73	25153.74
496.91	25156.08
497.09	25008.62
497.26	25322.26
497.44	25481.41
497.62	25418.22
497.79	25802.07
497.97	26338.05
498.14	26267.83
498.32	26600.19
498.50	26373.16
498.67	26368.48
498.85	26583.80
499.03	26394.22
499.20	26703.17
499.38	27150.21
499.56	27000.42
499.73	27475.55
499.91	27246.18
500.08	27520.02
500.26	27484.91
500.44	27655.77
500.61	27323.41
500.79	27613.64
500.97	28126.22
501.14	28402.40
501.32	28114.52
501.49	27929.61
501.67	28610.71
501.84	28582.62
502.02	28542.83
502.20	28788.59
502.37	28479.64
502.55	28671.56
502.72	28411.76
502.90	28961.79
503.07	29097.54
503.25	29443.94
503.43	29097.54
503.60	29214.57
503.78	29088.18
503.95	29277.76
504.13	29647.57
504.30	29635.86
504.48	29315.21
504.65	30015.03
504.83	30396.54
505.01	30211.64
505.18	30361.43
505.36	30321.64
505.53	30277.17
505.71	30785.07
505.88	30466.75
506.06	30291.21
506.23	30944.22
506.41	30752.30
506.58	30829.54
506.76	31304.67
506.93	30801.45
507.11	31112.74
507.28	31386.58
507.46	31353.82
507.63	31964.70
507.81	31374.88
507.98	31463.82
508.16	32208.11
508.33	31974.06
508.50	32032.57
508.68	32357.91
508.85	32383.65
509.03	32418.76
509.20	32250.24
509.38	32437.48
509.55	32613.02
509.73	32835.38
509.90	32903.25
510.08	32680.90
510.25	32568.55
510.42	33198.16
510.60	32563.87
510.77	33294.12
510.95	33188.80
511.12	33432.21
511.30	33635.84
511.47	34075.86
511.64	33453.28
511.82	33905.00
511.99	33467.32
512.17	34052.45
512.34	34038.41
512.51	34117.99
512.69	34181.18
512.86	34628.23
513.04	34656.31
513.21	34506.52
513.38	34698.44
513.56	34628.23
513.73	34518.22
513.90	35211.02
514.08	35063.57
514.25	35424.01
514.43	34955.90
514.60	35290.60
514.77	35421.67
514.95	35264.85
515.12	35576.14
515.29	35337.41
515.47	36062.97
515.64	36013.82
515.81	35747.00
515.99	35927.22
516.16	35847.64
516.33	36114.47
516.51	36357.88
516.68	36348.52
516.85	36463.21
517.03	36730.03
517.20	36779.18
517.37	36720.66
517.54	36517.04
517.72	36669.17
517.89	36741.73
518.06	37003.87
518.24	36575.55
518.41	36959.40
518.58	37511.77
518.75	36957.06
518.93	37280.05
519.10	36774.50
519.27	37731.78
519.45	37312.82
519.62	37720.07
519.79	37570.28
519.96	37378.36
520.14	38244.35
520.31	37687.31
520.48	37783.27
520.65	38120.31
520.83	38199.88
521.00	38029.02
521.17	38209.25
521.34	38469.04
521.52	38337.98
521.69	38522.88
521.86	38799.06
522.03	38447.98
522.20	38653.95
522.38	38892.68
522.55	38890.34
522.72	38967.58
522.89	39363.13
523.07	39091.63
523.24	39239.08
523.41	39431.01
523.58	38866.94
523.75	39615.91
523.92	39552.71
524.10	39629.95
524.27	40158.91
524.44	39812.51
524.61	39658.04
524.78	40058.27
524.96	40498.29
525.13	40194.02
525.30	40364.88
525.47	40563.82
525.64	40531.06
525.81	41265.99
525.98	40673.83
526.16	40704.26
526.33	40364.88
526.50	40950.01
526.67	40765.11
526.84	40741.71
527.01	40425.73
527.18	41027.25
527.36	41605.36
527.53	40938.31
527.70	41303.43
527.87	41715.37
528.04	41486.00
528.21	41427.48
528.38	41315.14
528.55	41624.09
528.72	41191.09
528.89	41839.42
529.07	41610.04
529.24	41539.83
529.41	41610.04
529.58	41778.56
529.75	42059.43
529.92	42319.23
530.09	42157.73
530.26	42153.05
530.43	41769.20
530.60	41476.63
530.77	42316.89
530.94	42478.38
531.11	42316.89
531.28	42703.07
531.46	42536.90
531.63	42653.92
531.80	42335.61
531.97	42653.92
532.14	42529.87
532.31	42976.92
532.48	42719.46
532.65	42806.06
532.82	42782.65
532.99	43196.93
533.16	43072.88
533.33	43480.13
533.50	43257.78
533.67	43058.84
533.84	43208.63
534.01	43344.38
534.18	43091.60
534.35	44175.27
534.52	43861.64
534.69	43861.64
534.86	43765.68
535.03	43255.44
535.20	43337.36
535.37	43674.40
535.54	44133.14
535.71	43819.51
535.88	44222.08
536.05	43871.00
536.22	44123.78
536.38	43756.32
536.55	44472.52
536.72	43765.68
536.89	44053.56
537.06	44147.18
537.23	44364.85
537.40	44418.69
537.57	44460.82
537.74	44603.59
537.91	44729.98
538.08	44540.39
538.25	44545.08
538.42	44924.24
538.59	44863.39
538.75	44886.79
538.92	44985.10
539.09	45069.36
539.26	45036.59
539.43	45191.06
539.60	45507.04
539.77	45139.57
539.94	45277.66
540.11	45591.30
540.28	45872.16
540.44	45500.01
540.61	45256.60
540.78	45710.66
540.95	45619.38
541.12	45497.67
541.29	45155.96
541.46	45387.67
541.62	45567.89
541.79	45544.48
541.96	45237.87
542.13	45249.58
542.30	46085.15
542.47	46258.35
542.63	45727.05
542.80	45748.11
542.97	46541.55
543.14	46571.98
543.31	46471.34
543.48	46342.61
543.64	46906.68
543.81	47210.95
543.98	47023.70
544.15	47019.02
544.32	46799.01
544.48	47040.09
544.65	47133.71
544.82	46663.26
544.99	46382.40
545.16	46864.55
545.32	47299.89
545.49	47531.60
545.66	47316.27
545.83	47147.75
546.00	47360.74
546.16	47075.19
546.33	47004.98
546.50	46703.05
546.67	47138.39
546.83	46749.86
547.00	47281.16
547.17	46862.21
547.34	47264.78
547.50	47117.32
547.67	47835.87
547.84	47512.88
548.00	47550.32
548.17	47969.28
548.34	47885.02
548.51	47859.27
548.67	47906.08
548.84	47735.23
549.01	47648.63
549.18	47875.66
549.34	47948.21
549.51	48025.45
549.68	47789.06
549.84	48559.09
550.01	48303.98
550.18	48065.24
550.34	47959.92
550.51	48266.53
550.68	48250.14
550.84	48058.22
551.01	48076.94
551.18	48318.02
551.34	48198.65
551.51	48348.45
551.68	48367.17
551.84	48493.56
552.01	48126.10
552.18	48308.66
552.34	48090.99
552.51	48526.33
552.68	48126.10
552.84	48502.92
553.01	48692.50
553.18	48938.26
553.34	48973.37
553.51	48549.73
553.67	48594.20
553.84	48744.00
554.01	48608.25
554.17	49284.66
554.34	49095.08
554.51	49263.60
554.67	49158.27
554.84	49221.47
555.00	49221.47
555.17	49066.99
555.33	49062.31
555.50	48940.60
555.67	48849.32
555.83	49059.97
556.00	49317.43
556.16	49422.75
556.33	49151.25
556.50	49441.48
556.66	49502.33
556.83	49057.63
556.99	49602.97
557.16	49378.28
557.32	49394.67
557.49	49631.06
557.65	49610.00
557.82	49418.07
557.98	49703.62
558.15	49804.26
558.32	49998.52
558.48	49375.94
558.65	49502.33
558.81	49670.85
558.98	49441.48
559.14	49570.21
559.31	49635.74
559.47	49764.47
559.64	49879.16
559.80	49759.79
559.97	50157.68
560.13	49200.40
560.30	49780.85
560.46	49780.85
560.63	49745.75
560.79	49785.54
560.96	50089.80
561.12	50274.71
561.29	50148.32
561.45	49963.42
561.61	50162.36
561.78	50031.29
561.94	50131.93
562.11	49968.10
562.27	50279.39
562.44	49940.01
562.60	50061.72
562.77	50291.09
562.93	50358.97
563.10	50586.00
563.26	50253.64
563.42	50506.42
563.59	50141.30
563.75	49984.48
563.92	50440.89
564.08	50178.75
564.24	50532.17
564.41	50490.04
564.57	50450.25
564.74	50358.97
564.90	50185.77
565.07	50447.91
565.23	50302.79
565.39	50052.36
565.56	50307.47
565.72	50543.87
565.88	50602.38
566.05	50483.01
566.21	50405.78
566.38	50354.29
566.54	50513.44
566.70	50494.72
566.87	50834.10
567.03	50426.84
567.19	50480.67
567.36	50501.74
567.52	50220.87
567.68	50684.30
567.85	50710.05
568.01	50611.74
568.17	50576.64
568.34	50787.28
568.50	50780.26
568.66	50475.99
568.83	50642.17
568.99	50473.65
569.15	50866.86
569.32	50564.93
569.48	50330.88
569.64	51150.07
569.81	50798.99
569.97	50972.19
570.13	50855.16
570.30	50777.92
570.46	50576.64
570.62	51121.98
570.78	50806.01
570.95	50717.07
571.11	50801.33
571.27	50887.93
571.43	50859.84
571.60	50955.80
571.76	50855.16
571.92	50745.15
572.09	50976.87
572.25	51363.06
572.41	50913.67
572.57	51021.34
572.74	51004.95
572.90	50939.42
573.06	50759.20
573.22	51011.98
573.38	50923.04
573.55	51213.26
573.71	51250.71
573.87	50831.75
574.03	50674.94
574.20	50454.93
574.36	50761.54
574.52	50916.01
574.68	50918.35
574.84	51152.41
575.01	51449.66
575.17	51091.55
575.33	51171.13
575.49	50990.91
575.65	51449.66
575.82	51070.49
575.98	51264.75
576.14	51157.09
576.30	51086.87
576.46	51267.09
576.62	51267.09
576.79	51157.09
576.95	50806.01
577.11	51030.70
577.27	51290.50
577.43	51056.45
577.59	51072.83
577.75	51192.20
577.92	50995.59
578.08	50742.81
578.24	50979.21
578.40	51393.48
578.56	51290.50
578.72	51019.00
578.88	51206.24
579.04	51234.33
579.21	51325.61
579.37	51384.12
579.53	51262.41
579.69	51035.38
579.85	51260.07
580.01	51510.51
580.17	51468.38
580.33	51288.16
580.49	51416.89
580.65	51594.77
580.82	51243.69
580.98	50946.44
581.14	51206.24
581.30	51173.47
581.46	51077.51
581.62	51292.84
581.78	51213.26
581.94	51440.29
582.10	51103.26
582.26	51033.04
582.42	51295.18
582.58	50983.89
582.74	51234.33
582.90	51339.65
583.06	51569.02
583.22	51271.78
583.38	51494.13
583.54	51737.54
583.70	51543.28
583.86	51215.60
584.02	51334.97
584.18	51330.29
584.34	51180.49
584.50	51421.57
584.66	51618.17
584.82	51133.68
584.98	51454.34
585.14	51562.00
585.30	51323.27
585.46	51428.59
585.62	51187.52
585.78	51508.17
585.94	51100.92
586.10	51281.14
586.26	51180.49
586.42	51494.13
586.58	51693.07
586.74	51126.66
586.90	51285.82
587.06	51292.84
587.22	51480.08
587.38	51625.20
587.54	51653.28
587.70	51599.45
587.86	51423.91
588.02	51482.42
588.18	51199.22
588.34	51540.94
588.49	51648.60
588.65	51414.55
588.81	51714.14
588.97	52062.88
589.13	51648.60
589.29	52072.24
589.45	51545.62
589.61	51522.21
589.77	51789.03
589.93	51395.82
590.08	51929.47
590.24	52186.92
590.40	51763.29
590.56	52301.61
590.72	51861.59
590.88	51643.92
591.04	51800.74
591.20	52060.54
591.35	51756.27
591.51	52406.94
591.67	51662.64
591.83	51873.29
591.99	51522.21
592.15	52044.15
592.31	51814.78
592.46	51515.19
592.62	51927.13
592.78	52226.71
592.94	51948.19
593.10	52306.29
593.26	52203.31
593.41	51929.47
593.57	51915.42
593.73	51765.63
593.89	51826.48
594.05	51964.57
594.20	51955.21
594.36	52128.41
594.52	52191.61
594.68	51980.96
594.84	52144.80
594.99	52025.43
595.15	52151.82
595.31	52090.96
595.47	52032.45
595.62	51952.87
595.78	51571.36
595.94	52231.40
596.10	52023.09
596.25	52207.99
596.41	52226.71
596.57	52231.40
596.73	52161.18
596.88	52065.22
597.04	51845.21
597.20	51877.97
597.36	51835.84
597.51	52128.41
597.67	51742.22
597.83	51957.55
597.99	52261.82
598.14	51894.36
598.30	52406.94
598.46	52112.03
598.61	52119.05
598.77	52060.54
598.93	52041.81
599.09	51929.47
599.24	52299.27
599.40	51938.83
599.56	51983.30
599.71	52186.92
599.87	52383.53
600.03	52076.92
600.18	52299.27
600.34	52189.27
600.50	52371.83
600.65	52219.69
600.81	52348.42
600.97	52341.40
601.12	51889.68
601.28	51723.50
601.44	51854.57
601.59	52360.12
601.75	52060.54
601.91	52488.85
602.06	52512.26
602.22	52236.08
602.37	52245.44
602.53	52317.99
602.69	52287.57
602.84	51887.34
603.00	52095.64
603.16	52062.88
603.31	51980.96
603.47	52203.31
603.62	52165.86
603.78	52226.71
603.94	52053.51
604.09	52317.99
604.25	52315.65
604.40	52079.26
604.56	52100.32
604.71	52193.95
604.87	52053.51
605.03	51789.03
605.18	51999.68
605.34	52210.33
605.49	52236.08
605.65	52268.84
605.80	52196.29
605.96	52114.37
606.12	52217.35
606.27	52465.45
606.43	52329.70
606.58	51948.19
606.74	52046.49
606.89	51880.31
607.05	51765.63
607.20	51992.66
607.36	51873.29
607.51	52170.54
607.67	52069.90
607.82	52222.03
607.98	52163.52
608.13	52002.02
608.29	51569.02
608.44	51812.44
608.60	52079.26
608.75	51945.85
608.91	51601.79
609.06	51803.08
609.22	51913.08
609.37	51510.51
609.53	51906.06
609.68	51903.72
609.84	52100.32
609.99	52013.73
610.15	51899.04
610.30	51826.48
610.46	51613.49
610.61	51564.34
610.76	51276.46
610.92	51437.95
611.07	51737.54
611.23	51742.22
611.38	51992.66
611.54	51866.27
611.69	51442.63
611.84	51924.78
612.00	51763.29
612.15	51489.45
612.31	51936.49
612.46	51557.32
612.62	51679.03
612.77	51096.24
612.92	51524.55
613.08	51482.42
613.23	51407.53
613.39	51332.63
613.54	51302.20
613.69	51782.01
613.85	51529.23
614.00	51653.28
614.15	51283.48
614.31	51449.66
614.46	51459.02
614.62	51505.83
614.77	51407.53
614.92	51856.91
615.08	51583.07
615.23	51569.02
615.38	51672.01
615.54	51363.06
615.69	51480.08
615.84	50967.51
616.00	51353.69
616.15	51597.11
616.30	51461.36
616.46	51538.60
616.61	51302.20
616.76	51316.25
616.92	50717.07
617.07	50951.12
617.22	51194.54
617.37	51000.27
617.53	51239.01
617.68	50899.63
617.83	51192.20
617.99	51203.90
618.14	51147.73
618.29	51075.17
618.45	51047.08
618.60	51000.27
618.75	50873.88
618.90	50787.28
619.06	50681.96
619.21	50691.32
619.36	51028.36
619.51	51054.11
619.67	50773.24
619.82	50894.95
619.97	51084.53
620.12	50578.98
620.28	50602.38
620.43	50595.36
620.58	50646.85
620.73	50672.60
620.89	50550.89
621.04	50621.11
621.19	50611.74
621.34	50616.43
621.49	50487.70
621.65	50731.11
621.80	51084.53
621.95	50827.07
622.10	50939.42
622.25	50529.83
622.41	50539.19
622.56	50532.17
622.71	50672.60
622.86	50571.96
623.01	50520.46
623.16	50307.47
623.32	50272.37
623.47	50548.55
623.62	50679.62
623.77	50696.00
623.92	50925.38
624.07	50733.45
624.23	50670.26
624.38	50625.79
624.53	50529.83
624.68	50014.91
624.83	50468.97
624.98	50028.95
625.13	49895.54
625.29	50270.03
625.44	50134.28
625.59	50281.73
625.74	49961.08
625.89	50328.54
626.04	49942.35
626.19	50021.93
626.34	50213.85
626.49	49825.32
626.65	50073.42
626.80	50141.30
626.95	49617.02
627.10	49532.76
627.25	49773.83
627.40	49872.14
627.55	49502.33
627.70	49932.99
627.85	50045.33
628.00	49820.64
628.15	49776.17
628.30	49954.05
628.45	49883.84
628.60	49343.17
628.76	49464.88
628.91	49743.41
629.06	49563.18
629.21	49155.93
629.36	49188.70
629.51	49464.88
629.66	49624.04
629.81	49298.70
629.96	49710.64
630.11	49797.24
630.26	49610.00
630.41	49673.19
630.56	49244.87
630.71	49392.33
630.86	49298.70
631.01	49024.86
631.16	49132.53
631.31	49123.16
631.46	48825.92
631.61	49392.33
631.76	49104.44
631.91	49083.37
632.06	49144.23
632.21	49048.27
632.36	49378.28
632.51	48851.66
632.66	48891.45
632.81	48818.89
632.96	48907.83
633.10	48554.41
633.25	48708.89
633.40	48971.03
633.55	49097.42
633.70	48802.51
633.85	49284.66
634.00	49066.99
634.15	49153.59
634.30	48961.67
634.45	49022.52
634.60	48783.79
634.75	48758.04
634.90	48374.19
635.05	48643.35
635.19	48657.40
635.34	48851.66
635.49	48528.67
635.64	48348.45
635.79	48877.41
635.94	48828.26
636.09	48762.72
636.24	48512.28
636.39	48636.33
636.53	49104.44
636.68	48636.33
636.83	48919.54
636.98	48348.45
637.13	48067.58
637.28	48512.28
637.43	48416.32
637.57	48837.62
637.72	48533.35
637.87	48507.60
638.02	48247.80
638.17	48069.92
638.32	48378.87
638.46	48362.49
638.61	48531.01
638.76	48624.63
638.91	48137.80
639.06	47948.21
639.20	48343.77
639.35	48009.07
639.50	47407.55
639.65	47861.61
639.80	47901.40
639.94	47662.67
640.09	48076.94
640.24	48011.41
640.39	48053.54
640.54	48062.90
640.68	47995.03
640.83	48023.11
640.98	47608.84
641.13	47522.24
641.27	48076.94
641.42	47665.01
641.57	47253.08
641.72	47440.32
641.86	47224.99
642.01	47608.84
642.16	47510.53
642.31	47372.44
642.45	47679.05
642.60	47267.12
642.75	47360.74
642.90	47856.93
643.04	47709.48
643.19	47077.54
643.34	47175.84
643.48	46983.91
643.63	47166.48
643.78	47182.86
643.93	47302.23
644.07	47065.83
644.22	47171.16
644.37	47316.27
644.51	47224.99
644.66	47178.18
644.81	47344.36
644.95	47068.17
645.10	46841.14
645.25	47110.30
645.39	47164.14
645.54	46974.55
645.69	47133.71
645.83	47398.19
645.98	47229.67
646.13	46913.70
646.27	46887.95
646.42	46920.72
646.57	47199.24
646.71	46834.12
646.86	46522.83
647.00	46791.99
647.15	46965.19
647.30	46705.39
647.44	47187.54
647.59	47068.17
647.74	46939.44
647.88	47012.00
648.03	46649.22
648.17	46412.82
648.32	46696.03
648.47	46707.73
648.61	46401.12
648.76	46522.83
648.90	46693.69
649.05	46841.14
649.20	46766.24
649.34	46813.05
649.49	46667.94
649.63	46616.45
649.78	46490.06
649.92	46258.35
650.07	46579.00
650.21	46534.53
650.36	46433.89
650.51	46209.20
650.65	46265.37
650.80	46162.39
650.94	45813.65
651.09	45776.20
651.23	45647.47
651.38	45977.48
651.52	45813.65
651.67	46401.12
651.81	46429.21
651.96	46220.90
652.10	46312.18
652.25	45921.31
652.39	45811.31
652.54	45462.57
652.68	45872.16
652.83	45652.15
652.97	46300.48
653.12	45785.56
653.26	46033.66
653.41	46014.93
653.55	46005.57
653.70	46110.89
653.84	46227.92
653.99	46520.49
654.13	45897.91
654.27	45911.95
654.42	45607.68
654.56	46061.74
654.71	45755.13
654.85	45879.18
655.00	45298.73
655.14	45130.21
655.29	45038.93
655.43	45549.17
655.57	45315.11
655.72	45392.35
655.86	45242.56
656.01	45188.72
656.15	45357.24
656.30	45312.77
656.44	45708.32
656.58	44856.37
656.73	45057.65
656.87	44940.63
657.01	45418.10
657.16	45109.14
657.30	45120.85
657.45	44435.07
657.59	44711.25
657.73	44509.97
657.88	44720.62
658.02	44697.21
658.16	45010.84
658.31	44762.75
658.45	44729.98
658.60	44847.00
658.74	44973.39
658.88	44905.52
659.03	44917.22
659.17	44720.62
659.31	44971.05
659.46	44383.58
659.60	44329.75
659.74	44332.09
659.89	44140.16
660.03	44318.04
660.17	44610.61
660.32	44041.86
660.46	44355.49
660.60	43835.89
660.74	44222.08
660.89	44172.93
661.03	43871.00
661.17	44409.32
661.32	43482.47
661.46	44081.65
661.60	43613.54
661.74	43749.29
661.89	43615.88
662.03	43304.59
662.17	43311.61
662.31	42742.86
662.46	43964.62
662.60	43402.89
662.74	43384.17
662.88	43302.25
663.03	43349.06
663.17	43679.08
663.31	43283.53
663.45	43229.69
663.60	43700.14
663.74	42958.19
663.88	42593.07
664.02	42707.76
664.17	42845.85
664.31	43047.13
664.45	42700.73
664.59	42543.92
664.73	42838.83
664.88	42768.61
665.02	42829.46
665.16	42522.85
665.30	42335.61
665.44	42895.00
665.59	42113.26
665.73	42199.86
665.87	42286.46
666.01	42270.08
666.15	41902.61
666.29	41729.41
666.44	42279.44
666.58	42007.94
666.72	41441.53
666.86	41876.86
667.00	41986.87
667.14	42115.60
667.28	41874.52
667.43	41228.54
667.57	42176.45
667.71	42241.99
667.85	42120.28
667.99	41874.52
668.13	41371.31
668.27	41354.93
668.41	41596.00
668.56	41006.19
668.70	41202.79
668.84	41132.57
668.98	40643.40
669.12	41214.49
669.26	41130.23
669.40	40802.56
669.54	40652.76
669.68	40898.52
669.82	40987.46
669.96	40840.01
670.10	40985.12
670.25	40975.76
670.39	40591.91
670.53	40273.60
670.67	40680.85
670.81	40645.74
670.95	40210.40
671.09	39667.40
671.23	39681.44
671.37	39576.12
671.51	39452.07
671.65	39583.14
671.79	39260.15
671.93	39880.39
672.07	40062.95
672.21	39686.12
672.35	39728.25
672.49	39882.73
672.63	39730.59
672.77	39721.23
672.91	39321.00
673.05	38857.57
673.19	38927.79
673.33	39157.16
673.47	38763.95
673.61	39297.59
673.75	39269.51
673.89	39023.75
674.03	38597.77
674.17	38745.23
674.31	39040.14
674.45	38583.73
674.59	38459.68
674.73	38597.77
674.87	38124.99
675.01	38230.31
675.15	37846.46
675.29	38213.93
675.43	38480.75
675.56	37989.24
675.70	37809.01
675.84	37628.79
675.98	36793.22
676.12	37787.95
676.26	37553.90
676.40	37130.26
676.54	37127.92
676.68	37383.04
676.82	36456.18
676.96	36889.18
677.10	37399.42
677.23	36765.14
677.37	37338.57
677.51	37069.40
677.65	36486.61
677.79	36615.34
677.93	36444.48
678.07	35882.75
678.21	36184.68
678.34	35721.26
678.48	35524.65
678.62	35552.74
678.76	35510.61
678.90	35271.87
679.04	34834.19
679.18	35534.01
679.31	35388.90
679.45	35526.99
679.59	35522.31
679.73	35543.38
679.87	35168.89
680.00	35112.72
680.14	35222.72
680.28	34953.56
680.42	34888.03
680.56	34366.09
680.70	34260.76
680.83	34274.80
680.97	33951.81
681.11	34160.12
681.25	33780.95
681.39	33827.76
681.52	34036.07
681.66	33933.09
681.80	33446.26
681.94	33818.40
682.07	33509.45
682.21	33680.31
682.35	33266.03
682.49	32945.38
682.62	33275.40
682.76	33020.28
682.90	32959.42
683.04	32699.62
683.17	32587.28
683.31	32435.14
683.45	32439.82
683.59	32561.53
683.72	32037.25
683.86	31871.07
684.00	31964.70
684.13	31960.02
684.27	32077.04
684.41	31885.12
684.55	31920.23
684.68	31681.49
684.82	31576.17
684.96	31637.02
685.09	31133.81
685.23	31098.70
685.37	31330.41
685.50	31000.40
685.64	30841.24
685.78	30527.61
685.91	30677.40
686.05	30787.41
686.19	30389.52
686.32	30272.49
686.46	30160.14
686.60	29996.31
686.73	30246.74
686.87	30286.53
687.01	30162.48
687.14	30075.88
687.28	29890.98
687.42	29930.77
687.55	29743.53
687.69	29958.86
687.82	29638.20
687.96	29668.63
688.10	29266.06
688.23	28922.00
688.37	28823.70
688.50	28847.10
688.64	28713.69
688.78	28659.86
688.91	28580.28
689.05	28737.10
689.18	28584.96
689.32	27704.92
689.46	27992.81
689.59	28336.87
689.73	28084.09
689.86	28519.43
690.00	28278.35
690.13	28238.56
690.27	28123.88
690.41	28009.19
690.54	27475.55
690.68	27917.91
690.81	27330.44
690.95	27456.82
691.08	26953.61
691.22	26820.20
691.35	26572.10
691.49	27197.02
691.62	26597.85
691.76	26710.19
691.89	26808.50
692.03	26850.63
692.16	26511.25
692.30	26670.40
692.43	26639.98
692.57	26288.90
692.70	26429.33
692.84	26225.70
692.97	26059.52
693.11	25539.93
693.24	25474.39
693.38	25553.97
693.51	25575.03
693.65	25401.83
693.78	25301.19
693.92	25467.37
694.05	25202.89
694.19	25032.03
694.32	24694.99
694.45	24596.69
694.59	24545.20
694.72	24435.19
694.86	24723.08
694.99	24554.56
695.13	24671.59
695.26	24013.90
695.39	24032.62
695.53	24421.15
695.66	23522.38
695.80	23206.41
695.93	23557.49
696.07	23442.81
696.20	23555.15
696.33	23580.90
696.47	23206.41
696.60	23112.79
696.73	23262.58
696.87	23026.19
697.00	23225.14
697.14	23140.88
697.27	22960.66
697.40	23007.47
697.54	22607.23
697.67	22724.26
697.80	22733.62
697.94	22539.36
698.07	22043.17
698.21	21776.34
698.34	21788.05
698.47	21912.10
698.61	21596.12
698.74	21514.20
698.87	21930.82
699.01	21343.35
699.14	21118.65
699.27	21415.90
699.40	21465.05
699.54	20823.75
699.67	21120.99
699.80	21284.83
699.94	21062.48
700.07	20844.81
700.20	20893.96
700.34	20631.82
700.47	20425.86
700.60	20606.08
700.73	20418.83
700.87	20283.08
701.00	20208.19
701.13	20034.99
701.26	20044.35
701.40	19733.06
701.53	19857.10
701.66	19721.35
701.79	19831.36
701.93	19609.01
702.06	19316.44
702.19	19325.80
702.32	19454.53
702.46	19751.78
702.59	19309.42
702.72	19477.94
702.85	19487.30
702.99	19047.28
703.12	19138.56
703.25	19091.75
703.38	18675.13
703.51	18515.98
703.65	18546.40
703.78	18284.26
703.91	18153.20
704.04	18012.76
704.17	18284.26
704.31	18183.62
704.44	17914.46
704.57	18279.58
704.70	18370.86
704.83	17970.63
704.96	17769.35
705.10	17783.39
705.23	17589.13
>>>>>End Processed Spectral Data<<<<<
