SpectraSuite Data File
++++++++++++++++++++++++++++++++++++
Date: Tue Oct 01 18:27:28 GMT-05:00 2013
User: stostad
Dark Spectrum Present: No
Reference Spectrum Present: No
Number of Sampled Component Spectra: 1
Spectrometers: USB2+H05261
Integration Time (usec): 100000 (USB2+H05261)
Spectra Averaged: 1 (USB2+H05261)
Boxcar Smoothing: 0 (USB2+H05261)
Correct for Electrical Dark: No (USB2+H05261)
Strobe/Lamp Enabled: No (USB2+H05261)
Correct for Detector Non-linearity: No (USB2+H05261)
Correct for Stray Light: No (USB2+H05261)
Number of Pixels in Processed Spectrum: 2048
>>>>>Begin Processed Spectral Data<<<<<
365.73	16.38
365.92	16.38
366.12	16.38
366.32	0.00
366.52	46.81
366.72	0.00
366.91	4.68
367.11	0.00
367.31	0.00
367.51	0.00
367.70	0.00
367.90	32.77
368.10	0.00
368.30	0.00
368.49	0.00
368.69	0.00
368.89	2.34
369.09	2.34
369.28	18.72
369.48	18.72
369.68	11.70
369.87	0.00
370.07	0.00
370.27	58.51
370.47	100.64
370.66	271.50
370.86	280.86
371.06	297.25
371.25	390.87
371.45	292.57
371.65	339.38
371.84	325.33
372.04	320.65
372.24	418.96
372.44	287.89
372.63	369.80
372.83	386.19
373.03	374.49
373.22	402.57
373.42	400.23
373.62	407.25
373.81	428.32
374.01	447.04
374.21	390.87
374.40	421.30
374.60	472.79
374.79	454.06
374.99	397.89
375.19	440.02
375.38	472.79
375.58	433.00
375.78	510.24
375.97	456.40
376.17	578.11
376.37	451.72
376.56	528.96
376.76	456.40
376.95	379.17
377.15	465.77
377.35	461.09
377.54	482.15
377.74	477.47
377.93	470.45
378.13	550.03
378.33	496.19
378.52	507.90
378.72	559.39
378.91	552.37
379.11	517.26
379.31	482.15
379.50	470.45
379.70	479.81
379.89	554.71
380.09	550.03
380.28	514.92
380.48	603.86
380.68	561.73
380.87	470.45
381.07	507.90
381.26	482.15
381.46	514.92
381.65	486.83
381.85	550.03
382.04	468.11
382.24	568.75
382.43	550.03
382.63	634.29
382.83	552.37
383.02	606.20
383.22	552.37
383.41	603.86
383.61	627.26
383.80	624.92
384.00	624.92
384.19	587.47
384.39	608.54
384.58	524.28
384.78	601.52
384.97	636.63
385.17	557.05
385.36	566.41
385.56	587.47
385.75	594.50
385.95	507.90
386.14	681.10
386.34	599.18
386.53	723.23
386.72	550.03
386.92	681.10
387.11	660.03
387.31	564.07
387.50	653.01
387.70	657.69
387.89	685.78
388.09	596.84
388.28	748.97
388.48	709.18
388.67	660.03
388.86	702.16
389.06	671.73
389.25	732.59
389.45	741.95
389.64	690.46
389.84	805.14
390.03	720.88
390.22	763.01
390.42	702.16
390.61	788.76
390.81	657.69
391.00	767.70
391.19	784.08
391.39	793.44
391.58	713.86
391.78	772.38
391.97	889.40
392.16	751.31
392.36	830.89
392.55	760.67
392.75	732.59
392.94	819.19
393.13	856.64
393.33	830.89
393.52	807.48
393.71	926.85
393.91	844.93
394.10	816.85
394.29	856.64
394.49	858.98
394.68	891.74
394.88	936.21
395.07	931.53
395.26	866.00
395.46	903.45
395.65	957.28
395.84	931.53
396.04	1041.54
396.23	1006.43
396.42	880.04
396.62	1011.11
396.81	1055.58
397.00	976.00
397.19	950.26
397.39	964.30
397.58	1034.52
397.77	1022.81
397.97	1064.94
398.16	1128.14
398.35	1020.47
398.55	1139.84
398.74	1071.97
398.93	1142.18
399.12	1125.80
399.32	1125.80
399.51	1135.16
399.70	1198.35
399.90	1107.07
400.09	1207.72
400.28	1181.97
400.47	1160.91
400.67	1186.65
400.86	1210.06
401.05	1219.42
401.24	1233.46
401.44	1252.19
401.63	1242.82
401.82	1254.53
402.01	1179.63
402.21	1266.23
402.40	1273.25
402.59	1254.53
402.78	1291.98
402.97	1322.40
403.17	1254.53
403.36	1376.24
403.55	1451.13
403.74	1394.96
403.93	1460.49
404.13	1331.76
404.32	1446.45
404.51	1359.85
404.70	1467.52
404.89	1406.66
405.09	1540.07
405.28	1472.20
405.47	1474.54
405.66	1619.65
405.85	1570.50
406.05	1591.56
406.24	1521.35
406.43	1551.78
406.62	1600.93
406.81	1694.55
407.00	1659.44
407.20	1631.35
407.39	1657.10
407.58	1753.06
407.77	1799.87
407.96	1767.10
408.15	1818.60
408.34	1870.09
408.54	1809.23
408.73	1923.92
408.92	1837.32
409.11	1921.58
409.30	1837.32
409.49	1849.02
409.68	1844.34
409.87	1863.07
410.07	1987.11
410.26	1977.75
410.45	1900.52
410.64	1973.07
410.83	2010.52
411.02	2043.29
411.21	2172.02
411.40	2108.82
411.59	2111.16
411.78	2174.36
411.98	2101.80
412.17	2134.57
412.36	2169.68
412.55	2228.19
412.74	2340.54
412.93	2366.28
413.12	2307.77
413.31	2452.88
413.50	2321.81
413.69	2373.30
413.88	2370.96
414.07	2466.92
414.26	2450.54
414.45	2415.43
414.64	2579.27
414.83	2530.12
415.02	2450.54
415.22	2583.95
415.41	2745.45
415.60	2633.10
415.79	2724.38
415.98	2654.17
416.17	2722.04
416.36	2731.41
416.55	2825.03
416.74	2747.79
416.93	2787.58
417.12	2965.46
417.31	2843.75
417.50	2895.24
417.69	2974.82
417.88	2843.75
418.07	2869.50
418.26	3047.38
418.45	3016.95
418.64	3038.02
418.83	3012.27
419.02	3040.36
419.21	3084.83
419.39	3094.19
419.58	3082.49
419.77	3080.14
419.96	3194.83
420.15	3290.79
420.34	3063.76
420.53	3269.73
420.72	3335.26
420.91	3225.26
421.10	3286.11
421.29	3353.99
421.48	3304.84
421.67	3346.97
421.86	3337.60
422.05	3405.48
422.24	3454.63
422.43	3435.91
422.61	3300.16
422.80	3438.25
422.99	3475.70
423.18	3325.90
423.37	3431.23
423.56	3524.85
423.75	3433.57
423.94	3393.78
424.13	3194.83
424.32	3246.32
424.50	3557.61
424.69	3508.46
424.88	3417.18
425.07	3478.04
425.26	3494.42
425.45	3445.27
425.64	3449.95
425.83	3417.18
426.01	3597.40
426.20	3499.10
426.39	3618.47
426.58	3557.61
426.77	3536.55
426.96	3496.76
427.15	3522.51
427.33	3702.73
427.52	3583.36
427.71	3634.85
427.90	3794.01
428.09	3669.96
428.28	3644.21
428.46	3721.45
428.65	3737.84
428.84	3971.89
429.03	3981.25
429.22	3737.84
429.40	3829.12
429.59	3808.05
429.78	3728.47
429.97	3707.41
430.16	3843.16
430.34	3908.69
430.53	3957.85
430.72	4004.66
430.91	3943.80
431.10	3861.88
431.28	3985.93
431.47	4035.08
431.66	4135.73
431.85	3925.08
432.03	4121.68
432.22	4292.54
432.41	4109.98
432.60	4187.22
432.79	4145.09
432.97	4180.20
433.16	4166.15
433.35	4219.99
433.54	4337.01
433.72	4236.37
433.91	4269.14
434.10	4337.01
434.28	4245.73
434.47	4372.12
434.66	4367.44
434.85	4475.10
435.03	4435.32
435.22	4432.97
435.41	4451.70
435.59	4393.19
435.78	4397.87
435.97	4699.80
436.16	4442.34
436.34	4475.10
436.53	4660.01
436.72	4802.78
436.90	4613.20
437.09	4765.33
437.28	4587.45
437.46	4592.13
437.65	4690.43
437.84	4755.97
438.02	4685.75
438.21	4786.40
438.40	4671.71
438.58	4901.08
438.77	5090.67
438.96	4835.55
439.14	4933.85
439.33	5006.41
439.52	5121.09
439.70	4994.70
439.89	5132.79
440.08	5240.46
440.26	5167.90
440.45	5163.22
440.63	5240.46
440.82	5378.55
441.01	5266.21
441.19	5439.40
441.38	5497.92
441.57	5605.58
441.75	5359.83
441.94	5547.07
442.12	5355.15
442.31	5626.65
442.50	5624.31
442.68	5526.00
442.87	5647.71
443.05	5526.00
443.24	5954.32
443.43	5743.67
443.61	5717.93
443.80	5870.06
443.98	5813.89
444.17	5586.86
444.35	5776.44
444.54	5872.40
444.73	5851.34
444.91	5872.40
445.10	5891.13
445.28	5717.93
445.47	5771.76
445.65	5834.96
445.84	5865.38
446.02	5905.17
446.21	5863.04
446.39	5860.70
446.58	5912.19
446.77	6073.69
446.95	5802.19
447.14	5998.79
447.32	5928.58
447.51	6129.86
447.69	6155.61
447.88	5886.45
448.06	5959.00
448.25	5860.70
448.43	5954.32
448.62	6085.39
448.80	6209.44
448.99	6155.61
449.17	6150.93
449.36	6099.44
449.54	6279.66
449.73	6368.60
449.91	6368.60
450.10	6356.90
450.28	6356.90
450.46	6420.09
450.65	6389.66
450.83	6384.98
451.02	6406.05
451.20	6480.94
451.39	6506.69
451.57	6604.99
451.76	6541.80
451.94	6476.26
452.13	6668.19
452.31	6581.59
452.49	6427.11
452.68	6679.89
452.86	6604.99
453.05	6686.91
453.23	6612.01
453.42	6516.05
453.60	6569.88
453.78	6801.60
453.97	6665.85
454.15	6743.08
454.34	6677.55
454.52	6703.29
454.70	6846.07
454.89	6888.20
455.07	6927.99
455.26	6949.05
455.44	7101.19
455.62	6885.86
455.81	7002.88
455.99	7023.95
456.17	7077.78
456.36	7103.53
456.54	7190.13
456.73	7218.21
456.91	7365.67
457.09	7337.58
457.28	7618.44
457.46	7180.76
457.64	7524.82
457.83	7356.30
458.01	7328.22
458.19	7578.65
458.38	7585.68
458.56	7630.15
458.74	7648.87
458.93	7613.76
459.11	7651.21
459.29	7475.67
459.48	7744.83
459.66	7812.71
459.84	7581.00
460.03	7829.09
460.21	7740.15
460.39	7786.96
460.57	7637.17
460.76	7985.91
460.94	7861.86
461.12	8042.08
461.31	7903.99
461.49	7969.52
461.67	7894.63
461.85	8072.51
462.04	7889.95
462.22	8643.60
462.40	8215.28
462.59	8248.05
462.77	8205.92
462.95	8285.50
463.13	8294.86
463.32	8271.45
463.50	8231.66
463.68	8168.47
463.86	8379.12
464.05	8163.79
464.23	8339.33
464.41	8493.80
464.59	8226.98
464.78	8505.51
464.96	8322.94
465.14	8243.37
465.32	8393.16
465.50	8390.82
465.69	8496.14
465.87	8131.02
466.05	8617.85
466.23	8477.42
466.41	8549.98
466.60	8652.96
466.78	8549.98
466.96	8571.04
467.14	8610.83
467.32	8851.91
467.51	8844.88
467.69	8477.42
467.87	8840.20
468.05	8861.27
468.23	8793.39
468.41	8765.31
468.60	8940.85
468.78	8915.10
468.96	9008.72
469.14	9142.13
469.32	9011.06
469.50	8762.97
469.69	9137.45
469.87	9085.96
470.05	9240.44
470.23	9205.33
470.41	9315.33
470.59	9341.08
470.77	9261.50
470.95	9479.17
471.14	9514.28
471.32	9270.86
471.50	9650.03
471.68	9633.64
471.86	9533.00
472.04	9521.30
472.22	9942.60
472.40	9556.41
472.58	9689.82
472.77	9799.82
472.95	9919.19
473.13	10260.91
473.31	10038.56
473.49	9834.93
473.67	10036.22
473.85	9942.60
474.03	10003.45
474.21	10434.11
474.39	10300.70
474.57	10368.57
474.75	10733.70
474.93	10637.73
475.12	10476.24
475.30	10670.50
475.48	10597.95
475.66	10803.91
475.84	10382.62
476.02	10843.70
476.20	10736.04
476.38	10913.92
476.56	11157.33
476.74	11309.47
476.92	11372.66
477.10	11480.33
477.28	11393.73
477.46	11194.78
477.64	11555.22
477.82	11503.73
478.00	11962.48
478.18	11971.84
478.36	11749.49
478.54	12262.07
478.72	11983.54
478.90	12402.50
479.08	12311.22
479.26	12475.06
479.44	12423.56
479.62	12549.95
479.80	12568.68
479.98	12648.26
480.16	12865.92
480.34	13116.36
480.52	13085.94
480.70	13092.96
480.88	12760.60
481.06	13165.51
481.24	13074.23
481.41	13593.83
481.59	13572.77
481.77	13830.23
481.95	13720.22
482.13	13855.97
482.31	13996.40
482.49	14064.28
482.67	14183.65
482.85	14338.12
483.03	14665.80
483.21	14654.09
483.39	14693.88
483.57	14780.48
483.74	14803.89
483.92	14768.78
484.10	15140.93
484.28	15583.29
484.46	15641.80
484.64	15662.86
484.82	15501.37
485.00	15728.40
485.18	16180.12
485.35	16299.49
485.53	16161.40
485.71	16095.86
485.89	16374.39
486.07	16311.19
486.25	16613.12
486.43	16606.10
486.61	16791.00
486.78	16788.66
486.96	17109.32
487.14	17282.52
487.32	17577.42
487.50	17678.07
487.68	17792.75
487.85	17809.14
488.03	17898.08
488.21	18443.42
488.39	18195.32
488.57	18333.42
488.75	18513.64
488.92	18558.11
489.10	18948.98
489.28	18724.29
489.46	19239.20
489.64	18890.46
489.81	19424.11
489.99	19534.11
490.17	19646.46
490.35	19960.09
490.53	19913.28
490.70	20006.90
490.88	19936.68
491.06	20215.21
491.24	20231.59
491.41	20505.43
491.59	20704.38
491.77	20503.09
491.95	20912.69
492.13	21270.79
492.30	20945.45
492.48	21373.77
492.66	21125.68
492.84	21404.20
493.01	21968.27
493.19	21500.16
493.37	22104.02
493.54	21926.14
493.72	21979.97
493.90	22176.58
494.08	22478.50
494.25	22525.32
494.43	22759.37
494.61	22759.37
494.79	22731.28
494.96	22862.35
495.14	23063.64
495.32	23435.78
495.49	23112.79
495.67	23491.96
495.85	23463.87
496.02	23885.17
496.20	24074.75
496.38	24119.22
496.55	24273.70
496.73	24477.32
496.91	24341.57
497.09	24790.95
497.26	24706.70
497.44	24702.01
497.62	25074.16
497.79	25205.23
497.97	25181.82
498.14	25420.56
498.32	25755.26
498.50	25596.10
498.67	25975.27
498.85	25364.39
499.03	26008.03
499.20	26267.83
499.38	26033.78
499.56	26363.79
499.73	26148.46
499.91	26422.31
500.08	26464.44
500.26	26232.72
500.44	26773.39
500.61	26923.18
500.79	26834.24
500.97	27119.79
501.14	27566.83
501.32	27197.02
501.49	27487.25
501.67	27475.55
501.84	27597.26
502.02	27594.92
502.20	27866.42
502.37	28018.55
502.55	27672.15
502.72	27931.95
502.90	28294.74
503.07	28271.33
503.25	28292.40
503.43	28477.30
503.60	28364.95
503.78	28582.62
503.95	28587.30
504.13	28940.72
504.30	29188.82
504.48	28762.84
504.65	29322.23
504.83	29626.50
505.01	29277.76
505.18	29186.48
505.36	29500.11
505.53	29495.43
505.71	29558.63
505.88	29713.10
506.06	29546.92
506.23	29907.37
506.41	29855.87
506.58	30061.84
506.76	30223.34
506.93	30185.89
507.11	30328.66
507.28	30417.60
507.46	30501.86
507.63	30684.42
507.81	30588.46
507.98	30698.47
508.16	30506.54
508.33	30878.69
508.50	31262.54
508.68	31084.65
508.85	31367.86
509.03	30974.65
509.20	31550.42
509.38	31482.55
509.55	31630.00
509.73	31503.61
509.90	32371.95
510.08	32182.37
510.25	32175.34
510.42	31653.40
510.60	32156.62
510.77	32245.56
510.95	32444.51
511.12	32215.13
511.30	32442.17
511.47	32921.98
511.64	32402.38
511.82	33090.49
511.99	32741.75
512.17	33127.94
512.34	33266.03
512.51	33141.99
512.69	33228.59
512.86	33305.82
513.04	33961.17
513.21	33518.81
513.38	33745.84
513.56	33425.19
513.73	33425.19
513.90	33565.62
514.08	33956.49
514.25	34066.50
514.43	34314.59
514.60	34176.50
514.77	34143.74
514.95	34342.68
515.12	34670.36
515.29	34352.04
515.47	34747.59
515.64	34993.35
515.81	35122.08
515.99	34738.23
516.16	35124.42
516.33	35192.30
516.51	35735.30
516.68	35332.73
516.85	35194.64
517.03	35672.10
517.20	36074.68
517.37	35536.35
517.54	35646.36
517.72	35646.36
517.89	35637.00
518.06	35772.75
518.24	35765.73
518.41	35857.01
518.58	35646.36
518.75	35995.10
518.93	35922.54
519.10	36165.96
519.27	36182.34
519.45	36573.21
519.62	36465.55
519.79	37092.81
519.96	36479.59
520.14	36924.29
520.31	36278.30
520.48	36711.30
520.65	37120.90
520.83	36935.99
521.00	37380.70
521.17	37141.96
521.34	37399.42
521.52	37303.46
521.69	37195.79
521.86	37628.79
522.03	37628.79
522.20	37490.70
522.38	37998.60
522.55	37764.54
522.72	37357.29
522.89	38153.07
523.07	38178.82
523.24	37563.26
523.41	38272.44
523.58	38007.96
523.75	38291.16
523.92	38361.38
524.10	38588.41
524.27	38719.48
524.44	38778.00
524.61	38995.67
524.78	38857.57
524.96	38569.69
525.13	38857.57
525.30	39222.70
525.47	39461.43
525.64	39503.56
525.81	39260.15
525.98	39295.25
526.16	39271.85
526.33	38848.21
526.50	39431.01
526.67	39124.40
526.84	39758.68
527.01	39749.32
527.18	39934.22
527.36	40081.67
527.53	39866.34
527.70	39999.76
527.87	39896.77
528.04	40013.80
528.21	40250.19
528.38	39966.99
528.55	40421.05
528.72	40575.53
528.89	40524.04
529.07	40456.16
529.24	40055.93
529.41	40498.29
529.58	40547.44
529.75	40882.14
529.92	40751.07
530.09	40872.78
530.26	41240.24
530.43	40989.80
530.60	40011.46
530.77	40900.86
530.94	41317.48
531.11	40746.39
531.28	41457.91
531.46	41460.25
531.63	41619.41
531.80	41420.46
531.97	41422.80
532.14	41642.81
532.31	41392.37
532.48	41860.48
532.65	42124.96
532.82	41546.85
532.99	42017.30
533.16	41914.31
533.33	41668.56
533.50	42026.66
533.67	42054.75
533.84	41848.78
534.01	42305.18
534.18	42389.44
534.35	42614.13
534.52	42241.99
534.69	42700.73
534.86	42848.19
535.03	42085.17
535.20	42183.48
535.37	42389.44
535.54	42768.61
535.71	42635.20
535.88	42728.82
536.05	42660.94
536.22	42923.08
536.38	42773.29
536.55	43042.45
536.72	42738.18
536.89	42738.18
537.06	43056.50
537.23	43257.78
537.40	43615.88
537.57	43445.02
537.74	43063.52
537.91	43555.03
538.08	43391.19
538.25	42916.06
538.42	43442.68
538.59	43938.88
538.75	43440.34
538.92	44051.22
539.09	43636.95
539.26	43847.60
539.43	43997.39
539.60	43929.51
539.77	43779.72
539.94	43753.97
540.11	44196.34
540.28	44369.54
540.44	43835.89
540.61	44421.03
540.78	44076.97
540.95	44645.72
541.12	44512.31
541.29	44275.91
541.46	44360.17
541.62	44083.99
541.79	44371.88
541.96	44112.08
542.13	44376.56
542.30	44994.46
542.47	44416.35
542.63	44811.90
542.80	44652.74
542.97	45130.21
543.14	45198.09
543.31	45289.37
543.48	45261.28
543.64	45291.71
543.81	45558.53
543.98	45624.06
544.15	45457.88
544.32	45537.46
544.48	45418.10
544.65	45558.53
544.82	45544.48
544.99	45588.95
545.16	45539.80
545.32	45694.28
545.49	46066.42
545.66	46241.96
545.83	45457.88
546.00	46129.62
546.16	45984.51
546.33	45766.84
546.50	45645.13
546.67	46052.38
546.83	45361.92
547.00	45914.29
547.17	45876.84
547.34	46010.25
547.50	46033.66
547.67	46286.43
547.84	46054.72
548.00	46579.00
548.17	46707.73
548.34	46773.27
548.51	46604.75
548.67	46408.14
548.84	46747.52
549.01	46305.16
549.18	46440.91
549.34	46625.81
549.51	46817.74
549.68	46925.40
549.84	46717.09
550.01	47079.88
550.18	46827.10
550.34	46696.03
550.51	46632.83
550.68	46885.61
550.84	46518.15
551.01	46925.40
551.18	46953.49
551.34	46897.31
551.51	47346.70
551.68	47164.14
551.84	47648.63
552.01	46869.23
552.18	47157.11
552.34	46850.50
552.51	47224.99
552.68	47353.72
552.84	47770.33
553.01	47449.68
553.18	47604.16
553.34	47311.59
553.51	47051.79
553.67	47093.92
553.84	47618.20
554.01	47681.39
554.17	47749.27
554.34	47646.29
554.51	47721.18
554.67	48161.20
554.84	47665.01
555.00	47892.04
555.17	48114.39
555.33	47393.51
555.50	47365.42
555.67	47445.00
555.83	47770.33
556.00	47508.19
556.16	48229.08
556.33	48128.44
556.50	48231.42
556.66	48287.59
556.83	48135.46
556.99	48465.47
557.16	47973.96
557.32	48158.86
557.49	48390.58
557.65	48364.83
557.82	48320.36
557.98	48385.89
558.15	48624.63
558.32	48926.56
558.48	48311.00
558.65	48303.98
558.81	48474.84
558.98	48329.72
559.14	48477.18
559.31	48561.44
559.47	48631.65
559.64	48732.29
559.80	48348.45
559.97	48781.45
560.13	48533.35
560.30	48495.90
560.46	48722.93
560.63	48828.26
560.79	48907.83
560.96	49008.48
561.12	48900.81
561.29	48952.30
561.45	48832.94
561.61	48559.09
561.78	48641.01
561.94	48746.34
562.11	48575.48
562.27	48666.76
562.44	48971.03
562.60	48596.54
562.77	48931.24
562.93	48828.26
563.10	49212.10
563.26	48875.07
563.42	49617.02
563.59	48645.69
563.75	49263.60
563.92	48985.07
564.08	48921.88
564.24	48889.11
564.41	49420.41
564.57	49237.85
564.74	49261.26
564.90	49258.91
565.07	49088.06
565.23	49471.90
565.39	48968.69
565.56	49324.45
565.72	48940.60
565.88	49340.83
566.05	49172.31
566.21	48910.17
566.38	49364.24
566.54	49406.37
566.70	49223.81
566.87	49378.28
567.03	49272.96
567.19	49146.57
567.36	49453.18
567.52	49055.29
567.68	49624.04
567.85	49499.99
568.01	49822.98
568.17	49521.05
568.34	49478.92
568.50	49469.56
568.66	49333.81
568.83	49401.69
568.99	49001.46
569.15	49432.11
569.32	49762.13
569.48	49095.08
569.64	49769.15
569.81	49792.56
569.97	49198.06
570.13	49570.21
570.30	49687.23
570.46	49401.69
570.62	49504.67
570.78	49469.56
570.95	49490.63
571.11	49727.02
571.27	49588.93
571.43	50150.66
571.60	49893.20
571.76	49556.16
571.92	49305.73
572.09	49649.78
572.25	49848.73
572.41	49724.68
572.57	49691.91
572.74	50035.97
572.90	49776.17
573.06	49684.89
573.22	50223.22
573.38	49897.88
573.55	49619.36
573.71	49572.55
573.87	49794.90
574.03	49687.23
574.20	49787.88
574.36	49963.42
574.52	49914.26
574.68	49610.00
574.84	49996.18
575.01	50181.09
575.17	50234.92
575.33	50082.78
575.49	49935.33
575.65	49895.54
575.82	49778.51
575.98	49932.99
576.14	50253.64
576.30	49951.71
576.46	50288.75
576.62	50174.06
576.79	49897.88
576.95	49801.92
577.11	49872.14
577.27	49647.44
577.43	50206.83
577.59	49858.09
577.75	49928.31
577.92	49748.09
578.08	50000.86
578.24	50059.38
578.40	50431.52
578.56	49998.52
578.72	50223.22
578.88	50281.73
579.04	50160.02
579.21	49815.96
579.37	50237.26
579.53	49825.32
579.69	50216.19
579.85	50237.26
580.01	50124.91
580.17	50246.62
580.33	50468.97
580.49	50223.22
580.65	49904.90
580.82	50061.72
580.98	49668.51
581.14	49579.57
581.30	50190.45
581.46	49977.46
581.62	50078.10
581.78	49764.47
581.94	50328.54
582.10	49956.39
582.26	50174.06
582.42	49907.24
582.58	49970.44
582.74	50223.22
582.90	49879.16
583.06	50120.23
583.22	50286.41
583.38	49963.42
583.54	50375.35
583.70	50316.84
583.86	50202.15
584.02	50270.03
584.18	50330.88
584.34	50314.50
584.50	50150.66
584.66	50253.64
584.82	49846.39
584.98	50134.28
585.14	50323.86
585.30	50134.28
585.46	50246.62
585.62	50108.53
585.78	50218.53
585.94	50045.33
586.10	50042.99
586.26	49935.33
586.42	50134.28
586.58	50356.63
586.74	49525.74
586.90	49975.12
587.06	50344.92
587.22	50745.15
587.38	50300.45
587.54	50590.68
587.70	50426.84
587.86	50382.37
588.02	50679.62
588.18	50398.76
588.34	50220.87
588.49	50438.54
588.65	50255.98
588.81	50064.06
588.97	50824.73
589.13	50773.24
589.29	50759.20
589.45	51009.64
589.61	50337.90
589.77	50735.79
589.93	50541.53
590.08	50335.56
590.24	50658.56
590.40	51042.40
590.56	50721.75
590.72	50911.33
590.88	50576.64
591.04	50600.04
591.20	50808.35
591.35	50499.40
591.51	50789.62
591.67	50993.25
591.83	50857.50
591.99	50721.75
592.15	50719.41
592.31	50883.25
592.46	50588.34
592.62	50700.68
592.78	50763.88
592.94	51110.28
593.10	50611.74
593.26	51021.34
593.41	50939.42
593.57	50621.11
593.73	50578.98
593.89	50506.42
594.05	50850.48
594.20	50616.43
594.36	50946.44
594.52	50628.13
594.68	50967.51
594.84	50927.72
594.99	51147.73
595.15	50677.28
595.31	51239.01
595.47	51166.45
595.62	50941.76
595.78	50894.95
595.94	50485.36
596.10	51049.42
596.25	51098.58
596.41	50862.18
596.57	50813.03
596.73	51028.36
596.88	50962.82
597.04	50897.29
597.20	50993.25
597.36	50932.40
597.51	51091.55
597.67	50916.01
597.83	50806.01
597.99	50965.17
598.14	50745.15
598.30	51243.69
598.46	51194.54
598.61	51341.99
598.77	50918.35
598.93	50965.17
599.09	51079.85
599.24	51374.76
599.40	50688.98
599.56	50850.48
599.71	51037.72
599.87	51070.49
600.03	51526.89
600.18	50827.07
600.34	50911.33
600.50	50850.48
600.65	50527.48
600.81	51187.52
600.97	51030.70
601.12	50843.46
601.28	50756.86
601.44	50988.57
601.59	51051.76
601.75	50937.08
601.91	51220.28
602.06	51171.13
602.22	51168.79
602.37	51009.64
602.53	50749.84
602.69	51049.42
602.84	50597.70
603.00	50747.50
603.16	50803.67
603.31	50733.45
603.47	51086.87
603.62	51000.27
603.78	51253.05
603.94	51327.95
604.09	51316.25
604.25	50831.75
604.40	51304.54
604.56	50897.29
604.71	51082.19
604.87	50897.29
605.03	51290.50
605.18	50590.68
605.34	51117.30
605.49	50614.08
605.65	50845.80
605.80	51143.05
605.96	50897.29
606.12	50962.82
606.27	51309.22
606.43	50866.86
606.58	51267.09
606.74	50618.77
606.89	50445.57
607.05	50609.40
607.20	50862.18
607.36	50831.75
607.51	51304.54
607.67	50686.64
607.82	51009.64
607.98	50995.59
608.13	50616.43
608.29	50777.92
608.44	50578.98
608.60	50712.39
608.75	50752.18
608.91	50277.05
609.06	50223.22
609.22	50831.75
609.37	50564.93
609.53	50529.83
609.68	50677.28
609.84	50700.68
609.99	50630.47
610.15	50719.41
610.30	50747.50
610.46	50450.25
610.61	50546.21
610.76	50206.83
610.92	50209.17
611.07	50309.82
611.23	50038.31
611.38	50436.20
611.54	50721.75
611.69	50681.96
611.84	50298.11
612.00	50443.23
612.15	50480.67
612.31	50497.06
612.46	50178.75
612.62	50377.69
612.77	50241.94
612.92	50288.75
613.08	50042.99
613.23	50298.11
613.39	50394.07
613.54	50141.30
613.69	50192.79
613.85	50623.45
614.00	50426.84
614.15	50501.74
614.31	50475.99
614.46	50258.32
614.62	50281.73
614.77	50035.97
614.92	50351.94
615.08	50134.28
615.23	50363.65
615.38	50623.45
615.54	50169.38
615.69	50117.89
615.84	49914.26
616.00	50588.34
616.15	49951.71
616.30	50375.35
616.46	49907.24
616.61	49883.84
616.76	49808.94
616.92	49771.49
617.07	49588.93
617.22	49717.66
617.37	49429.77
617.53	50122.57
617.68	49909.58
617.83	50174.06
617.99	50255.98
618.14	49806.60
618.29	49797.24
618.45	49654.47
618.60	49879.16
618.75	49514.03
618.90	49710.64
619.06	49804.26
619.21	49338.49
619.36	50045.33
619.51	49507.01
619.67	49392.33
619.82	49727.02
619.97	49792.56
620.12	49263.60
620.28	48804.85
620.43	49722.34
620.58	49397.01
620.73	49169.97
620.89	49155.93
621.04	49528.08
621.19	49235.51
621.34	49607.65
621.49	49319.77
621.65	49425.09
621.80	49879.16
621.95	49399.35
622.10	49450.84
622.25	49528.08
622.41	49415.73
622.56	49291.68
622.71	49455.52
622.86	49326.79
623.01	49216.78
623.16	49172.31
623.32	49059.97
623.47	49413.39
623.62	49027.20
623.77	49453.18
623.92	49511.69
624.07	49158.27
624.23	49223.81
624.38	49118.48
624.53	49085.72
624.68	48814.21
624.83	48751.02
624.98	49092.74
625.13	48507.60
625.29	49055.29
625.44	48641.01
625.59	48736.98
625.74	48868.05
625.89	48732.29
626.04	48697.19
626.19	48968.69
626.34	48617.61
626.49	48673.78
626.65	48437.39
626.80	48636.33
626.95	48435.05
627.10	48252.48
627.25	48147.16
627.40	48172.91
627.55	48516.96
627.70	48184.61
627.85	48741.66
628.00	48720.59
628.15	48751.02
628.30	48243.12
628.45	48299.30
628.60	48364.83
628.76	48484.20
628.91	48425.68
629.06	48109.71
629.21	48158.86
629.36	48177.59
629.51	48011.41
629.66	48229.08
629.81	47789.06
629.96	48053.54
630.11	48179.93
630.26	48299.30
630.41	47840.55
630.56	48034.81
630.71	48306.32
630.86	47826.51
631.01	48053.54
631.16	47756.29
631.31	47407.55
631.46	47625.22
631.61	48170.57
631.76	47957.58
631.91	47913.11
632.06	47931.83
632.21	47849.91
632.36	48030.13
632.51	47552.66
632.66	47622.88
632.81	47000.30
632.96	47295.21
633.10	47487.13
633.25	47641.60
633.40	47480.11
633.55	47330.31
633.70	47103.28
633.85	47384.15
634.00	47503.51
634.15	47793.74
634.30	47941.19
634.45	47487.13
634.60	47604.16
634.75	47632.24
634.90	47482.45
635.05	47372.44
635.19	47316.27
635.34	47704.80
635.49	47501.17
635.64	47154.77
635.79	47262.44
635.94	47187.54
636.09	47629.90
636.24	47313.93
636.39	47461.38
636.53	47292.86
636.68	47346.70
636.83	47388.83
636.98	47187.54
637.13	46674.96
637.28	46916.04
637.43	46724.11
637.57	47007.32
637.72	47030.72
637.87	47161.79
638.02	46983.91
638.17	47292.86
638.32	46728.80
638.46	47227.33
638.61	46710.07
638.76	47262.44
638.91	46843.48
639.06	46724.11
639.20	46541.55
639.35	46656.24
639.50	46349.63
639.65	46513.47
639.80	46838.80
639.94	46270.05
640.09	46422.19
640.24	46473.68
640.39	46550.91
640.54	46244.30
640.68	46660.92
640.83	46309.84
640.98	46579.00
641.13	46005.57
641.27	46852.84
641.42	46171.75
641.57	46099.19
641.72	45947.06
641.86	46099.19
642.01	45811.31
642.16	46094.51
642.31	45862.80
642.45	46492.40
642.60	45764.49
642.75	45752.79
642.90	46354.31
643.04	45972.80
643.19	45745.77
643.34	45907.27
643.48	45738.75
643.63	45624.06
643.78	45951.74
643.93	45823.01
644.07	45270.64
644.22	45998.55
644.37	45394.69
644.51	45556.19
644.66	45612.36
644.81	45544.48
644.95	45815.99
645.10	45827.69
645.25	45574.91
645.39	45680.24
645.54	45872.16
645.69	45825.35
645.83	45867.48
645.98	45680.24
646.13	45612.36
646.27	45455.54
646.42	45500.01
646.57	45174.68
646.71	45748.11
646.86	45603.00
647.00	45918.97
647.15	45492.99
647.30	45432.14
647.44	45464.91
647.59	45748.11
647.74	45357.24
647.88	45366.60
648.03	44814.24
648.17	45181.70
648.32	45127.87
648.47	45401.71
648.61	45120.85
648.76	45291.71
648.90	45151.27
649.05	45340.86
649.20	45422.78
649.34	45535.12
649.49	44905.52
649.63	45139.57
649.78	45031.91
649.92	45162.98
650.07	45172.34
650.21	44800.19
650.36	44814.24
650.51	44949.99
650.65	44737.00
650.80	44570.82
650.94	44830.62
651.09	44744.02
651.23	44170.59
651.38	44694.87
651.52	44928.92
651.67	44652.74
651.81	45003.82
651.96	44559.12
652.10	44886.79
652.25	44516.99
652.39	44690.19
652.54	44229.10
652.68	44823.60
652.83	44531.03
652.97	44540.39
653.12	44552.10
653.26	44584.86
653.41	44935.95
653.55	44664.44
653.70	44591.89
653.84	45097.44
653.99	44626.99
654.13	44374.22
654.27	44659.76
654.42	44079.31
654.56	44215.06
654.71	44322.72
654.85	44053.56
655.00	44039.52
655.14	43650.99
655.29	44147.18
655.43	43957.60
655.57	44041.86
655.72	44076.97
655.86	44362.51
656.01	44257.19
656.15	43803.13
656.30	43929.51
656.44	43854.62
656.58	43737.59
656.73	43562.05
656.87	43604.18
657.01	43220.33
657.16	43775.04
657.30	43746.95
657.45	43395.87
657.59	43679.08
657.73	43194.59
657.88	43456.73
658.02	43859.30
658.16	43402.89
658.31	43290.55
658.45	43927.17
658.60	43358.42
658.74	43049.47
658.88	42848.19
659.03	43093.94
659.17	43012.02
659.31	43147.78
659.46	42806.06
659.60	42665.63
659.74	42682.01
659.89	42476.04
660.03	42543.92
660.17	43309.27
660.32	42918.40
660.46	42993.30
660.60	42848.19
660.74	42703.07
660.89	42939.47
661.03	42230.29
661.17	42696.05
661.32	42270.08
661.46	42059.43
661.60	41942.40
661.74	42525.19
661.89	41734.09
662.03	42103.90
662.17	41954.10
662.31	41902.61
662.46	42155.39
662.60	41811.33
662.74	42167.09
662.88	42078.15
663.03	42148.37
663.17	42340.29
663.31	41642.81
663.45	41743.45
663.60	41944.74
663.74	41565.57
663.88	41085.76
664.02	41551.53
664.17	41535.15
664.31	41401.74
664.45	41167.68
664.59	41371.31
664.73	41226.20
664.88	41453.23
665.02	41249.60
665.16	41055.34
665.30	41261.30
665.44	41350.24
665.59	40725.32
665.73	41308.11
665.87	40622.34
666.01	40851.71
666.15	40774.47
666.29	40486.59
666.44	40898.52
666.58	40652.76
666.72	40149.55
666.86	40315.73
667.00	40701.92
667.14	40275.94
667.28	39983.37
667.43	40409.35
667.57	40250.19
667.71	40245.51
667.85	40722.98
667.99	40495.95
668.13	40130.83
668.27	40055.93
668.41	39992.73
668.56	39599.52
668.70	39962.31
668.84	39761.02
668.98	39653.36
669.12	39419.30
669.26	39407.60
669.40	39498.88
669.54	39477.82
669.68	39679.10
669.82	39353.77
669.96	39091.63
670.10	39023.75
670.25	39374.83
670.39	39732.93
670.53	39229.72
670.67	39166.52
670.81	39112.69
670.95	39030.77
671.09	38625.86
671.23	38415.21
671.37	38651.61
671.51	38438.62
671.65	38052.43
671.79	38520.54
671.93	38300.53
672.07	38728.84
672.21	38328.61
672.35	38014.98
672.49	38202.22
672.63	38258.40
672.77	38513.52
672.91	37677.94
673.05	38260.74
673.19	38190.52
673.33	38054.77
673.47	37975.19
673.61	37736.46
673.75	37670.92
673.89	37717.73
674.03	37146.64
674.17	37467.30
674.31	37394.74
674.45	37460.27
674.59	37170.05
674.73	37134.94
674.87	37240.26
675.01	37069.40
675.15	36943.02
675.29	36575.55
675.43	37050.68
675.56	36547.47
675.70	37008.55
675.84	36699.60
675.98	35222.72
676.12	36627.04
676.26	36723.01
676.40	36084.04
676.54	36025.53
676.68	35969.35
676.82	35318.68
676.96	35728.28
677.10	35931.90
677.23	35868.71
677.37	35419.33
677.51	36048.93
677.65	35765.73
677.79	35213.36
677.93	35288.26
678.07	34838.87
678.21	34536.94
678.34	34632.91
678.48	34132.03
678.62	34403.53
678.76	34220.97
678.90	33965.85
679.04	34141.39
679.18	34426.94
679.31	33888.62
679.45	34082.88
679.59	34438.64
679.73	33982.24
679.87	33804.36
680.00	33303.48
680.14	33380.72
680.28	33766.91
680.42	33240.29
680.56	33031.98
680.70	32975.81
680.83	32751.12
680.97	32613.02
681.11	32519.40
681.25	32847.08
681.39	32748.78
681.52	32624.73
681.66	32528.77
681.80	32608.34
681.94	32708.99
682.07	32575.58
682.21	32395.35
682.35	31606.59
682.49	31728.30
682.62	32011.51
682.76	31917.89
682.90	31538.72
683.04	31328.07
683.17	31428.71
683.31	31189.98
683.45	31489.57
683.59	30951.24
683.72	30738.26
683.86	30375.47
684.00	30974.65
684.13	30888.05
684.27	30904.43
684.41	30745.28
684.55	30878.69
684.68	30431.65
684.82	30583.78
684.96	30686.76
685.09	29860.55
685.23	29687.36
685.37	29802.04
685.50	30008.01
685.64	29392.45
685.78	29542.24
685.91	29591.39
686.05	29214.57
686.19	28905.62
686.32	29193.50
686.46	28758.16
686.60	29076.48
686.73	29319.89
686.87	29142.01
687.01	29244.99
687.14	29242.65
687.28	28503.04
687.42	29053.07
687.55	29043.71
687.69	28620.07
687.82	28194.09
687.96	28510.07
688.10	27974.08
688.23	27735.35
688.37	27957.70
688.50	27473.21
688.64	27522.36
688.78	27786.84
688.91	27604.28
689.05	27688.54
689.18	27515.34
689.32	26595.51
689.46	27381.93
689.59	27122.13
689.73	27033.19
689.86	27047.23
690.00	26883.39
690.13	27253.20
690.27	26771.05
690.41	26593.17
690.54	26394.22
690.68	26597.85
690.81	26551.04
690.95	25942.50
691.08	26136.76
691.22	26036.12
691.35	25888.67
691.49	25621.84
691.62	25949.52
691.76	25755.26
691.89	25734.19
692.03	25357.36
692.16	25631.21
692.30	25163.10
692.43	25055.43
692.57	25193.53
692.70	24968.84
692.84	24816.70
692.97	24786.27
693.11	24776.91
693.24	23957.72
693.38	24692.65
693.51	24151.99
693.65	24301.78
693.78	24187.10
693.92	24215.18
694.05	24444.56
694.19	23791.55
694.32	23674.52
694.45	23836.02
694.59	23669.84
694.72	23775.16
694.86	23899.21
694.99	23875.80
695.13	23541.11
695.26	23285.99
695.39	23077.68
695.53	23161.94
695.66	23061.30
695.80	22827.24
695.93	22817.88
696.07	22621.28
696.20	22614.26
696.33	22309.99
696.47	21965.93
696.60	22391.91
696.73	22188.28
696.87	22174.24
697.00	22057.21
697.14	21942.52
697.27	22309.99
697.40	21841.88
697.54	22183.60
697.67	21729.53
697.80	21685.06
697.94	21671.02
698.07	21055.46
698.21	20659.91
698.34	21366.75
698.47	21153.76
698.61	20819.07
698.74	20776.94
698.87	20877.58
699.01	20599.05
699.14	20851.83
699.27	21097.59
699.40	20643.52
699.54	20470.33
699.67	20238.61
699.80	20538.20
699.94	19866.47
700.07	20196.48
700.20	20271.38
700.34	20006.90
700.47	19826.68
700.60	19747.10
700.73	19592.62
700.87	19550.49
701.00	19391.34
701.13	19197.07
701.26	19569.22
701.40	19194.73
701.53	18750.03
701.66	19124.52
701.79	18923.23
701.93	18787.48
702.06	18869.40
702.19	18700.88
702.32	18766.42
702.46	18541.72
702.59	18539.38
702.72	18478.53
702.85	18239.79
702.99	18223.41
703.12	18310.01
703.25	18174.26
703.38	17902.76
703.51	17912.12
703.65	18059.57
703.78	17706.15
703.91	17390.18
704.04	17376.14
704.17	17624.23
704.31	17343.37
704.44	17331.67
704.57	17329.33
704.70	17209.96
704.83	17359.75
704.96	17280.18
705.10	17331.67
705.23	16863.56
>>>>>End Processed Spectral Data<<<<<
