SpectraSuite Data File
++++++++++++++++++++++++++++++++++++
Date: Fri Oct 04 11:39:53 GMT-05:00 2013
User: price-jones
Dark Spectrum Present: No
Reference Spectrum Present: No
Number of Sampled Component Spectra: 1
Spectrometers: USB2+H05261
Integration Time (usec): 100000 (USB2+H05261)
Spectra Averaged: 1 (USB2+H05261)
Boxcar Smoothing: 0 (USB2+H05261)
Correct for Electrical Dark: No (USB2+H05261)
Strobe/Lamp Enabled: No (USB2+H05261)
Correct for Detector Non-linearity: No (USB2+H05261)
Correct for Stray Light: No (USB2+H05261)
Number of Pixels in Processed Spectrum: 2048
>>>>>Begin Processed Spectral Data<<<<<
365.73	58.51
365.92	58.51
366.12	58.51
366.32	0.00
366.52	0.00
366.72	0.00
366.91	0.00
367.11	0.00
367.31	30.43
367.51	0.00
367.70	0.00
367.90	42.13
368.10	0.00
368.30	0.00
368.49	0.00
368.69	9.36
368.89	0.00
369.09	0.00
369.28	0.00
369.48	0.00
369.68	0.00
369.87	35.11
370.07	11.70
370.27	74.90
370.47	79.58
370.66	145.11
370.86	180.22
371.06	187.24
371.25	234.05
371.45	154.48
371.65	229.37
371.84	173.20
372.04	156.82
372.24	191.92
372.44	210.65
372.63	163.84
372.83	262.14
373.03	152.13
373.22	196.60
373.42	212.99
373.62	227.03
373.81	294.91
374.01	325.33
374.21	280.86
374.40	257.46
374.60	306.61
374.79	304.27
374.99	266.82
375.19	330.02
375.38	322.99
375.58	301.93
375.78	245.76
375.97	224.69
376.17	344.06
376.37	198.95
376.56	280.86
376.76	304.27
376.95	248.10
377.15	325.33
377.35	266.82
377.54	245.76
377.74	255.12
377.93	231.71
378.13	222.35
378.33	297.25
378.52	227.03
378.72	273.84
378.91	344.06
379.11	234.05
379.31	266.82
379.50	337.04
379.70	297.25
379.89	332.36
380.09	283.20
380.28	299.59
380.48	297.25
380.68	290.23
380.87	332.36
381.07	341.72
381.26	264.48
381.46	339.38
381.65	337.04
381.85	252.78
382.04	297.25
382.24	294.91
382.43	264.48
382.63	262.14
382.83	222.35
383.02	311.29
383.22	358.10
383.41	287.89
383.61	339.38
383.80	337.04
384.00	327.68
384.19	322.99
384.39	344.06
384.58	318.31
384.78	433.00
384.97	346.40
385.17	320.65
385.36	301.93
385.56	287.89
385.75	386.19
385.95	341.72
386.14	411.93
386.34	313.63
386.53	353.42
386.72	390.87
386.92	367.46
387.11	355.76
387.31	409.59
387.50	325.33
387.70	334.70
387.89	404.91
388.09	379.17
388.28	393.21
388.48	442.36
388.67	449.38
388.86	393.21
389.06	376.83
389.25	360.44
389.45	327.68
389.64	442.36
389.84	397.89
390.03	454.06
390.22	362.78
390.42	393.21
390.61	355.76
390.81	418.96
391.00	428.32
391.19	454.06
391.39	416.62
391.58	454.06
391.78	430.66
391.97	409.59
392.16	449.38
392.36	477.47
392.55	444.70
392.75	489.17
392.94	451.72
393.13	472.79
393.33	540.66
393.52	489.17
393.71	524.28
393.91	498.53
394.10	421.30
394.29	472.79
394.49	505.56
394.68	472.79
394.88	489.17
395.07	566.41
395.26	533.64
395.46	510.24
395.65	500.87
395.84	470.45
396.04	559.39
396.23	543.00
396.42	484.49
396.62	547.69
396.81	533.64
397.00	538.32
397.19	613.22
397.39	543.00
397.58	535.98
397.77	571.09
397.97	528.96
398.16	550.03
398.35	636.63
398.55	543.00
398.74	552.37
398.93	571.09
399.12	669.39
399.32	564.07
399.51	657.69
399.70	695.14
399.90	697.48
400.09	667.05
400.28	732.59
400.47	620.24
400.67	603.86
400.86	706.84
401.05	653.01
401.24	648.33
401.44	660.03
401.63	699.82
401.82	727.91
402.01	730.25
402.21	779.40
402.40	748.97
402.59	709.18
402.78	723.23
402.97	753.65
403.17	795.78
403.36	704.50
403.55	807.48
403.74	795.78
403.93	849.61
404.13	814.51
404.32	898.77
404.51	823.87
404.70	847.27
404.89	903.45
405.09	901.11
405.28	821.53
405.47	870.68
405.66	875.36
405.85	861.32
406.05	959.62
406.24	819.19
406.43	901.11
406.62	968.98
406.81	912.81
407.00	938.55
407.20	933.87
407.39	924.51
407.58	1055.58
407.77	1034.52
407.96	976.00
408.15	1025.15
408.34	1001.75
408.54	1069.62
408.73	1041.54
408.92	1146.86
409.11	1090.69
409.30	1053.24
409.49	1128.14
409.68	1163.25
409.87	1071.97
410.07	1146.86
410.26	1158.57
410.45	1177.29
410.64	1139.84
410.83	1163.25
411.02	1317.72
411.21	1282.61
411.40	1188.99
411.59	1252.19
411.78	1336.45
411.98	1254.53
412.17	1308.36
412.36	1291.98
412.55	1313.04
412.74	1467.52
412.93	1338.79
413.12	1334.11
413.31	1462.83
413.50	1427.73
413.69	1455.81
413.88	1486.24
414.07	1519.01
414.26	1547.09
414.45	1514.33
414.64	1483.90
414.83	1593.90
415.02	1619.65
415.22	1650.08
415.41	1631.35
415.60	1544.75
415.79	1666.46
415.98	1795.19
416.17	1636.03
416.36	1610.29
416.55	1638.38
416.74	1694.55
416.93	1806.89
417.12	1727.32
417.31	1813.92
417.50	1776.47
417.69	1877.11
417.88	1769.44
418.07	1839.66
418.26	1867.75
418.45	1804.55
418.64	1797.53
418.83	1898.17
419.02	1870.09
419.21	1949.67
419.39	1919.24
419.58	1928.60
419.77	1980.09
419.96	1923.92
420.15	2022.22
420.34	1980.09
420.53	2050.31
420.72	1991.80
420.91	1991.80
421.10	2155.63
421.29	2097.12
421.48	1963.71
421.67	2024.56
421.86	2059.67
422.05	2062.01
422.24	2143.93
422.43	2036.27
422.61	2111.16
422.80	2057.33
422.99	2298.41
423.18	1975.41
423.37	2239.89
423.56	2146.27
423.75	2071.37
423.94	2249.25
424.13	2024.56
424.32	2146.27
424.50	2193.08
424.69	2195.42
424.88	2282.02
425.07	2134.57
425.26	2141.59
425.45	2148.61
425.64	2216.49
425.83	2232.87
426.01	2389.69
426.20	2246.91
426.39	2197.76
426.58	2207.13
426.77	2216.49
426.96	2275.00
427.15	2380.32
427.33	2300.75
427.52	2270.32
427.71	2237.55
427.90	2312.45
428.09	2373.30
428.28	2370.96
428.46	2223.51
428.65	2375.64
428.84	2410.75
429.03	2541.82
429.22	2296.07
429.40	2448.20
429.59	2480.97
429.78	2487.99
429.97	2417.77
430.16	2480.97
430.34	2476.29
430.53	2523.10
430.72	2504.37
430.91	2473.95
431.10	2382.67
431.28	2619.06
431.47	2693.96
431.66	2675.23
431.85	2548.84
432.03	2581.61
432.22	2682.25
432.41	2672.89
432.60	2499.69
432.79	2654.17
432.97	2843.75
433.16	2738.43
433.35	2644.81
433.54	2712.68
433.72	2675.23
433.91	2635.44
434.10	2747.79
434.28	2794.60
434.47	2885.88
434.66	2792.26
434.85	2874.18
435.03	2855.45
435.22	3019.29
435.41	3262.71
435.59	3255.69
435.78	3126.96
435.97	2874.18
436.16	2965.46
436.34	2853.11
436.53	2888.22
436.72	2923.33
436.90	2991.20
437.09	2895.24
437.28	2829.71
437.46	2946.73
437.65	2970.14
437.84	2956.10
438.02	2974.82
438.21	3105.89
438.40	2944.39
438.58	3122.27
438.77	2986.52
438.96	3183.13
439.14	3150.36
439.33	3171.43
439.52	3316.54
439.70	3180.79
439.89	3274.41
440.08	3251.00
440.26	3356.33
440.45	3424.20
440.63	3300.16
440.82	3302.50
441.01	3368.03
441.19	3358.67
441.38	3492.08
441.57	3499.10
441.75	3559.95
441.94	3510.80
442.12	3620.81
442.31	3698.05
442.50	3529.53
442.68	3566.98
442.87	3489.74
443.05	3637.19
443.24	3698.05
443.43	3667.62
443.61	3686.34
443.80	3761.24
443.98	3709.75
444.17	3688.68
444.35	3728.47
444.54	3712.09
444.73	3716.77
444.91	3794.01
445.10	3744.86
445.28	3742.52
445.47	3620.81
445.65	3782.31
445.84	3763.58
446.02	3754.22
446.21	3735.50
446.39	3822.09
446.58	3831.46
446.77	3864.22
446.95	3684.00
447.14	3775.28
447.32	3904.01
447.51	3693.37
447.69	3866.56
447.88	3794.01
448.06	3728.47
448.25	3833.80
448.43	3815.07
448.62	3815.07
448.80	3786.99
448.99	3817.41
449.17	3791.67
449.36	3864.22
449.54	4117.00
449.73	3957.85
449.91	4009.34
450.10	4133.39
450.28	4222.33
450.46	4184.88
450.65	4060.83
450.83	4081.89
451.02	4028.06
451.20	4079.55
451.39	4119.34
451.57	4088.92
451.76	4159.13
451.94	3988.27
452.13	4236.37
452.31	4241.05
452.49	4255.09
452.68	4163.81
452.86	4269.14
453.05	4243.39
453.23	4252.75
453.42	4170.83
453.60	4269.14
453.78	4224.67
453.97	4255.09
454.15	4360.42
454.34	4224.67
454.52	4421.27
454.70	4351.06
454.89	4409.57
455.07	4353.40
455.26	4472.76
455.44	4411.91
455.62	4325.31
455.81	4404.89
455.99	4507.87
456.17	4512.55
456.36	4514.89
456.54	4601.49
456.73	4645.96
456.91	4741.93
457.09	4587.45
457.28	4770.01
457.46	4503.19
457.64	4699.80
457.83	4753.63
458.01	4683.41
458.19	4660.01
458.38	4638.94
458.56	4812.14
458.74	4868.31
458.93	4561.70
459.11	4732.56
459.29	4931.51
459.48	4985.34
459.66	4865.97
459.84	4828.53
460.03	5107.05
460.21	4791.08
460.39	4856.61
460.57	4980.66
460.76	5050.88
460.94	5128.11
461.12	4926.83
461.31	5107.05
461.49	4952.57
461.67	5018.11
461.85	5013.43
462.04	4973.64
462.22	5458.13
462.40	5111.73
462.59	5121.09
462.77	5118.75
462.95	5280.25
463.13	5170.24
463.32	5214.71
463.50	5238.12
463.68	5226.42
463.86	5352.81
464.05	5116.41
464.23	5191.31
464.41	5291.95
464.59	5399.62
464.78	5376.21
464.96	5280.25
465.14	5284.93
465.32	5287.27
465.50	5385.57
465.69	5493.24
465.87	5446.43
466.05	5481.53
466.23	5331.74
466.41	5504.94
466.60	5486.22
466.78	5394.93
466.96	5668.78
467.14	5383.23
467.32	5547.07
467.51	5530.69
467.69	5687.50
467.87	5621.97
468.05	5612.60
468.23	5479.19
468.41	5516.64
468.60	5724.95
468.78	5713.25
468.96	5593.88
469.14	5788.14
469.32	5738.99
469.50	5666.44
469.69	5820.91
469.87	5743.67
470.05	5839.64
470.23	5909.85
470.41	5846.66
470.59	5980.07
470.77	5818.57
470.95	6029.22
471.14	6008.16
471.32	5951.98
471.50	6059.65
471.68	6143.91
471.86	6153.27
472.04	6239.87
472.22	6118.16
472.40	6106.46
472.58	6251.57
472.77	6101.78
472.95	6263.27
473.13	6497.33
473.31	6214.12
473.49	6321.79
473.67	6317.11
473.85	6478.60
474.03	6497.33
474.21	6403.71
474.39	6583.93
474.57	6665.85
474.75	6544.14
474.93	6773.51
475.12	6581.59
475.30	6874.15
475.48	6682.23
475.66	6661.16
475.84	6853.09
476.02	6869.47
476.20	6761.81
476.38	6965.43
476.56	7007.56
476.74	7243.96
476.92	6960.75
477.10	7178.42
477.28	7225.23
477.46	7204.17
477.64	7403.11
477.82	7550.57
478.00	7674.62
478.18	7529.50
478.36	7609.08
478.54	7576.31
478.72	7583.34
478.90	7627.81
479.08	7817.39
479.26	7789.30
479.44	7786.96
479.62	7957.82
479.80	7871.22
479.98	8011.65
480.16	8049.10
480.34	8280.82
480.52	8140.38
480.70	8306.56
480.88	8285.50
481.06	8374.44
481.24	8287.84
481.41	8552.32
481.59	8622.53
481.77	8608.49
481.95	8613.17
482.13	8697.43
482.31	8786.37
482.49	8828.50
482.67	8800.41
482.85	8912.76
483.03	9050.85
483.21	9069.58
483.39	9266.18
483.57	9310.65
483.74	9366.82
483.92	9575.13
484.10	9364.48
484.28	9589.17
484.46	9738.97
484.64	9888.76
484.82	9549.39
485.00	9713.22
485.18	10068.98
485.35	9928.55
485.53	10197.71
485.71	10300.70
485.89	10459.85
486.07	10122.82
486.25	10298.36
486.43	10387.30
486.61	10501.98
486.78	10810.93
486.96	10672.84
487.14	10960.73
487.32	11019.24
487.50	10883.49
487.68	10885.83
487.85	11087.12
488.03	11431.18
488.21	11513.10
488.39	11442.88
488.57	11573.95
488.75	11634.80
488.92	11777.58
489.10	11829.07
489.28	11838.43
489.46	11997.59
489.64	11843.11
489.81	12311.22
489.99	12400.16
490.17	12409.52
490.35	12617.83
490.53	12610.81
490.70	12451.65
490.88	12683.36
491.06	12571.02
491.24	12657.62
491.41	12938.48
491.59	12996.99
491.77	12999.34
491.95	13156.15
492.13	13111.68
492.30	13177.22
492.48	13205.30
492.66	13128.06
492.84	13200.62
493.01	13540.00
493.19	13881.72
493.37	13687.45
493.54	13731.92
493.72	13724.90
493.90	13977.68
494.08	14155.56
494.25	14022.15
494.43	14277.27
494.61	14293.65
494.79	14413.02
494.96	14384.93
495.14	14429.40
495.32	14684.52
495.49	14731.33
495.67	14633.03
495.85	14920.92
496.02	14839.00
496.20	15087.09
496.38	14927.94
496.55	15073.05
496.73	15215.82
496.91	15103.48
497.09	15431.15
497.26	15552.86
497.44	15585.63
497.62	15559.88
497.79	15786.91
497.97	15882.88
498.14	16203.53
498.32	15901.60
498.50	15726.06
498.67	16091.18
498.85	16278.43
499.03	16210.55
499.20	16264.38
499.38	16112.25
499.56	16379.07
499.73	16449.28
499.91	16301.83
500.08	16697.38
500.26	16374.39
500.44	16933.78
500.61	16861.22
500.79	16573.33
500.97	16570.99
501.14	17137.40
501.32	17076.55
501.49	17104.64
501.67	17209.96
501.84	16987.61
502.02	16996.97
502.20	17547.00
502.37	17387.84
502.55	17649.98
502.72	17266.13
502.90	17469.76
503.07	17495.50
503.25	17607.85
503.43	17551.68
503.60	17963.61
503.78	17767.01
503.95	17514.23
504.13	17886.37
504.30	18167.24
504.48	18012.76
504.65	18118.09
504.83	18136.81
505.01	18565.13
505.18	18298.31
505.36	18387.25
505.53	18050.21
505.71	18249.16
505.88	18717.26
506.06	18494.91
506.23	18733.65
506.41	18614.28
506.58	18670.45
506.76	19019.19
506.93	18803.86
507.11	18902.17
507.28	18792.16
507.46	19098.77
507.63	19124.52
507.81	19023.87
507.98	19110.47
508.16	19288.35
508.33	19197.07
508.50	19508.37
508.68	19227.50
508.85	19625.39
509.03	19697.95
509.20	19639.44
509.38	19946.05
509.55	19789.23
509.73	19955.41
509.90	20077.12
510.08	19995.20
510.25	20030.30
510.42	19826.68
510.60	20201.16
510.77	20357.98
510.95	20308.83
511.12	20044.35
511.30	20423.51
511.47	20732.47
511.64	20540.54
511.82	20601.40
511.99	20608.42
512.17	20638.84
512.34	20638.84
512.51	20952.48
512.69	20617.78
512.86	20875.24
513.04	21083.55
513.21	20982.90
513.38	21137.38
513.56	21046.10
513.73	21029.71
513.90	21144.40
514.08	20957.16
514.25	21366.75
514.43	21507.18
514.60	21645.27
514.77	21212.28
514.95	21799.75
515.12	21666.34
515.29	21338.66
515.47	21692.08
515.64	21930.82
515.81	21792.73
515.99	22024.44
516.16	22249.13
516.33	21986.99
516.51	21968.27
516.68	22209.34
516.85	21951.88
517.03	22532.34
517.20	22377.86
517.37	22223.39
517.54	22546.38
517.72	22328.71
517.89	22679.79
518.06	22410.63
518.24	22490.21
518.41	22356.80
518.58	22630.64
518.75	22714.90
518.93	23145.56
519.10	22946.61
519.27	23157.26
519.45	22590.85
519.62	22672.77
519.79	22670.43
519.96	22871.72
520.14	23124.49
520.31	22913.84
520.48	23178.33
520.65	23360.89
520.83	23466.21
521.00	23192.37
521.17	23431.10
521.34	23225.14
521.52	23482.59
521.69	23534.09
521.86	23747.08
522.03	23700.26
522.20	23711.97
522.38	23786.86
522.55	23531.75
522.72	23775.16
522.89	24065.39
523.07	24229.23
523.24	23723.67
523.41	24290.08
523.58	23578.56
523.75	24105.18
523.92	24098.16
524.10	24231.57
524.27	24362.64
524.44	24065.39
524.61	24666.91
524.78	24648.18
524.96	24472.64
525.13	24383.70
525.30	24592.01
525.47	24826.06
525.64	24624.78
525.81	25041.39
525.98	24837.76
526.16	24931.39
526.33	24699.67
526.50	24767.55
526.67	24957.13
526.84	25074.16
527.01	25017.99
527.18	25233.32
527.36	25170.12
527.53	25261.40
527.70	25181.82
527.87	25699.08
528.04	25280.13
528.21	25537.59
528.38	25364.39
528.55	25724.83
528.72	25219.27
528.89	25586.74
529.07	25401.83
529.24	25617.16
529.41	25593.76
529.58	25486.09
529.75	25448.64
529.92	25832.49
530.09	25766.96
530.26	25610.14
530.43	26108.68
530.60	25867.60
530.77	25752.91
530.94	26228.04
531.11	25771.64
531.28	25935.48
531.46	25799.73
531.63	26150.81
531.80	26031.44
531.97	26361.45
532.14	26532.31
532.31	25937.82
532.48	26267.83
532.65	26101.65
532.82	26462.10
532.99	26340.39
533.16	26253.79
533.33	26588.49
533.50	26691.47
533.67	26747.64
533.84	26263.15
534.01	26696.15
534.18	26728.92
534.35	26775.73
534.52	26700.83
534.69	26686.79
534.86	26710.19
535.03	27058.93
535.20	27072.98
535.37	27129.15
535.54	26934.88
535.71	26913.82
535.88	27157.24
536.05	27089.36
536.22	27288.31
536.38	27522.36
536.55	27028.51
536.72	27653.43
536.89	27173.62
537.06	27332.78
537.23	27461.51
537.40	27475.55
537.57	27505.98
537.74	27431.08
537.91	27672.15
538.08	27676.83
538.25	27667.47
538.42	27796.20
538.59	27496.61
538.75	27683.86
538.92	27192.34
539.09	27922.59
539.26	28135.58
539.43	27943.66
539.60	28390.70
539.77	28229.20
539.94	28280.69
540.11	28037.28
540.28	28257.29
540.44	28154.30
540.61	28498.36
540.78	27978.76
540.95	28219.84
541.12	28489.00
541.29	28439.85
541.46	28863.49
541.62	28449.21
541.79	28765.18
541.96	28353.25
542.13	28428.15
542.30	28425.81
542.47	28842.42
542.63	29020.30
542.80	28821.36
542.97	29310.53
543.14	29027.32
543.31	28823.70
543.48	28854.12
543.64	29116.26
543.81	29591.39
543.98	29387.77
544.15	29359.68
544.32	29645.23
544.48	29427.56
544.65	29280.10
544.82	29397.13
544.99	29032.00
545.16	29539.90
545.32	29317.55
545.49	30026.73
545.66	30387.18
545.83	30728.89
546.00	30321.64
546.16	29830.13
546.33	29614.80
546.50	29631.18
546.67	29551.60
546.83	29205.20
547.00	29415.85
547.17	29439.26
547.34	29413.51
547.50	29837.15
547.67	30110.99
547.84	29535.22
548.00	29860.55
548.17	29706.08
548.34	29762.25
548.51	29706.08
548.67	29975.24
548.84	30026.73
549.01	29902.68
549.18	30321.64
549.34	30073.54
549.51	30235.04
549.68	30118.01
549.84	29919.07
550.01	30251.42
550.18	29902.68
550.34	30038.44
550.51	29951.84
550.68	30085.25
550.84	29682.67
551.01	29839.49
551.18	30092.27
551.34	29986.94
551.51	30000.99
551.68	30532.29
551.84	30160.14
552.01	30256.11
552.18	30445.69
552.34	30298.23
552.51	30441.01
552.68	29991.62
552.84	30246.74
553.01	30871.67
553.18	30689.10
553.34	30595.48
553.51	29736.51
553.67	30661.02
553.84	30780.39
554.01	30700.81
554.17	30295.89
554.34	30384.83
554.51	30356.75
554.67	30412.92
554.84	30766.34
555.00	30644.63
555.17	30506.54
555.33	30682.08
555.50	30831.88
555.67	30766.34
555.83	30841.24
556.00	31058.91
556.16	31236.79
556.33	30586.12
556.50	30955.93
556.66	31115.08
556.83	30939.54
556.99	30789.75
557.16	31215.72
557.32	31243.81
557.49	31218.07
557.65	30820.17
557.82	30494.84
557.98	30602.50
558.15	31049.55
558.32	30960.61
558.48	31079.97
558.65	31264.88
558.81	31445.10
558.98	31047.21
559.14	31386.58
559.31	31161.89
559.47	31175.94
559.64	31159.55
559.80	31527.02
559.97	31042.53
560.13	31070.61
560.30	31335.09
560.46	31522.34
560.63	31557.44
560.79	31318.71
560.96	31468.50
561.12	31147.85
561.29	31433.39
561.45	31288.28
561.61	31037.84
561.78	31206.36
561.94	31316.37
562.11	31571.49
562.27	31377.22
562.44	31299.98
562.60	31477.86
562.77	31536.38
562.93	31112.74
563.10	32123.85
563.26	31161.89
563.42	32252.58
563.59	31365.52
563.75	31833.63
563.92	31901.50
564.08	31859.37
564.24	31613.62
564.41	31365.52
564.57	31515.31
564.74	31686.17
564.90	32063.00
565.07	32018.53
565.23	31440.42
565.39	31723.62
565.56	31714.26
565.72	31644.04
565.88	31601.91
566.05	31232.11
566.21	31412.33
566.38	31674.47
566.54	31718.94
566.70	32135.56
566.87	32074.70
567.03	31620.64
567.19	32210.45
567.36	31557.44
567.52	32175.34
567.68	32158.96
567.85	31969.38
568.01	32088.74
568.17	31351.48
568.34	31868.73
568.50	32287.69
568.66	31814.90
568.83	32308.76
568.99	31955.33
569.15	32149.60
569.32	31669.79
569.48	31477.86
569.64	31728.30
569.81	32107.47
569.97	31758.73
570.13	32023.21
570.30	31709.58
570.46	32348.54
570.62	32013.85
570.78	32112.15
570.95	31644.04
571.11	32081.72
571.27	32037.25
571.43	31704.90
571.60	31679.15
571.76	32203.43
571.92	31899.16
572.09	32144.92
572.25	32484.30
572.41	32318.12
572.57	32055.98
572.74	32030.23
572.90	31981.08
573.06	32348.54
573.22	32142.58
573.38	31981.08
573.55	32336.84
573.71	32568.55
573.87	32353.23
574.03	31962.36
574.20	32568.55
574.36	32182.37
574.52	31929.59
574.68	32077.04
574.84	32074.70
575.01	32170.66
575.17	32547.49
575.33	32432.80
575.49	32247.90
575.65	32299.39
575.82	32299.39
575.98	32109.81
576.14	32701.96
576.30	32638.77
576.46	32238.54
576.62	32421.10
576.79	32481.95
576.95	32297.05
577.11	32491.32
577.27	32254.92
577.43	32210.45
577.59	32666.86
577.75	32402.38
577.92	31826.60
578.08	32161.30
578.24	32521.74
578.40	32538.13
578.56	32215.13
578.72	32456.21
578.88	32701.96
579.04	32769.84
579.21	32357.91
579.37	32507.70
579.53	32481.95
579.69	32336.84
579.85	32198.75
580.01	32563.87
580.17	32385.99
580.33	32723.03
580.49	32528.77
580.65	32610.68
580.82	32601.32
580.98	32496.00
581.14	32666.86
581.30	32938.36
581.46	32528.77
581.62	32385.99
581.78	32257.26
581.94	32664.52
582.10	32123.85
582.26	32818.99
582.42	32697.28
582.58	32814.31
582.74	32627.07
582.90	32849.42
583.06	32397.70
583.22	32517.06
583.38	32418.76
583.54	32355.57
583.70	32510.04
583.86	32432.80
584.02	32280.67
584.18	32671.54
584.34	32498.34
584.50	33268.37
584.66	32547.49
584.82	32809.63
584.98	32287.69
585.14	32519.40
585.30	32575.58
585.46	32671.54
585.62	32779.20
585.78	32760.48
585.94	32535.79
586.10	32758.14
586.26	32341.52
586.42	33043.68
586.58	32629.41
586.74	32877.51
586.90	32687.92
587.06	32353.23
587.22	32603.66
587.38	32364.93
587.54	32875.16
587.70	33156.03
587.86	32828.35
588.02	32870.48
588.18	32900.91
588.34	32912.61
588.49	32374.29
588.65	32889.21
588.81	32545.15
588.97	32687.92
589.13	32507.70
589.29	32769.84
589.45	32512.38
589.61	33240.29
589.77	32957.08
589.93	33097.52
590.08	33055.39
590.24	33015.60
590.40	33160.71
590.56	33034.32
590.72	32863.46
590.88	32701.96
591.04	33102.20
591.20	32650.47
591.35	32975.81
591.51	33385.40
591.67	32975.81
591.83	33170.07
591.99	32921.98
592.15	33106.88
592.31	32730.05
592.46	32870.48
592.62	33085.81
592.78	32821.33
592.94	33261.35
593.10	33071.77
593.26	33099.86
593.41	32980.49
593.57	32849.42
593.73	33340.93
593.89	32933.68
594.05	33036.66
594.20	32971.13
594.36	33118.58
594.52	32844.74
594.68	33067.09
594.84	32900.91
594.99	33209.86
595.15	32765.16
595.31	33474.34
595.47	33109.22
595.62	33467.32
595.78	33003.89
595.94	33280.08
596.10	33064.75
596.25	33251.99
596.41	32776.86
596.57	33200.50
596.73	33436.89
596.88	32790.91
597.04	33109.22
597.20	32994.53
597.36	33310.50
597.51	33031.98
597.67	33383.06
597.83	32994.53
597.99	33448.60
598.14	33251.99
598.30	33237.95
598.46	33244.97
598.61	33008.58
598.77	32966.45
598.93	33003.89
599.09	33141.99
599.24	33687.33
599.40	33376.04
599.56	33593.71
599.71	33179.43
599.87	33251.99
600.03	33577.33
600.18	32910.27
600.34	32655.15
600.50	33083.47
600.65	33095.18
600.81	33460.30
600.97	33373.70
601.12	33600.73
601.28	33425.19
601.44	33031.98
601.59	33118.58
601.75	33057.73
601.91	33310.50
602.06	33141.99
602.22	33441.57
602.37	32954.74
602.53	32947.72
602.69	33324.55
602.84	32758.14
603.00	33301.14
603.16	33610.09
603.31	32872.82
603.47	33350.29
603.62	33123.26
603.78	33083.47
603.94	33031.98
604.09	32933.68
604.25	32697.28
604.40	32795.59
604.56	33378.38
604.71	33504.77
604.87	32910.27
605.03	33432.21
605.18	33071.77
605.34	33462.64
605.49	32687.92
605.65	33212.20
605.80	32690.26
605.96	32992.19
606.12	33099.86
606.27	33179.43
606.43	33181.77
606.58	33029.64
606.74	33123.26
606.89	33298.80
607.05	32924.32
607.20	32952.40
607.36	32758.14
607.51	33170.07
607.67	32924.32
607.82	32837.72
607.98	32898.57
608.13	33160.71
608.29	33039.00
608.44	32760.48
608.60	32774.52
608.75	33172.41
608.91	33172.41
609.06	33048.36
609.22	32994.53
609.37	32716.01
609.53	32800.27
609.68	32751.12
609.84	32800.27
609.99	33109.22
610.15	33074.11
610.30	32957.08
610.46	33104.54
610.61	33546.90
610.76	33472.00
610.92	33818.40
611.07	33965.85
611.23	33579.67
611.38	33991.60
611.54	33570.30
611.69	33387.74
611.84	33329.23
612.00	33380.72
612.15	32882.19
612.31	32950.06
612.46	32697.28
612.62	32772.18
612.77	32772.18
612.92	32996.87
613.08	32655.15
613.23	33141.99
613.39	32472.59
613.54	32692.60
613.69	32734.73
613.85	32912.61
614.00	32917.29
614.15	32706.65
614.31	32657.49
614.46	32606.00
614.62	32952.40
614.77	32821.33
614.92	32741.75
615.08	32884.53
615.23	32385.99
615.38	32554.51
615.54	32093.43
615.69	32348.54
615.84	32390.67
616.00	32357.91
616.15	32397.70
616.30	32596.64
616.46	32393.01
616.61	32254.92
616.76	32514.72
616.92	31915.54
617.07	32224.50
617.22	31817.24
617.37	31957.67
617.53	32325.14
617.68	32116.83
617.83	32364.93
617.99	32086.40
618.14	32018.53
618.29	32156.62
618.45	32229.18
618.60	31924.91
618.75	32063.00
618.90	32261.94
619.06	32142.58
619.21	31824.26
619.36	31637.02
619.51	32053.64
619.67	31630.00
619.82	31761.07
619.97	31983.42
620.12	31576.17
620.28	31807.88
620.43	32098.11
620.58	31943.63
620.73	32196.41
620.89	31709.58
621.04	32077.04
621.19	32278.33
621.34	31662.77
621.49	31723.62
621.65	31215.72
621.80	32236.20
621.95	31573.83
622.10	31747.03
622.25	31548.08
622.41	31562.12
622.56	31597.23
622.71	31639.36
622.86	31512.97
623.01	31740.00
623.16	31957.67
623.32	31747.03
623.47	31660.43
623.62	31679.15
623.77	31278.92
623.92	31751.71
624.07	31271.90
624.23	31302.32
624.38	31262.54
624.53	31405.31
624.68	31384.24
624.83	31529.36
624.98	31358.50
625.13	31339.77
625.29	31550.42
625.44	31510.63
625.59	31379.56
625.74	31138.49
625.89	31058.91
626.04	30848.26
626.19	30775.70
626.34	31339.77
626.49	30967.63
626.65	31087.00
626.80	31325.73
626.95	31023.80
627.10	31250.83
627.25	31213.38
627.40	30565.06
627.55	31119.76
627.70	30707.83
627.85	30663.36
628.00	30946.56
628.15	31014.44
628.30	30888.05
628.45	30808.47
628.60	30721.87
628.76	30895.07
628.91	31136.15
629.06	30965.29
629.21	30689.10
629.36	30939.54
629.51	30824.86
629.66	30412.92
629.81	30375.47
629.96	31056.57
630.11	30871.67
630.26	30511.22
630.41	30476.12
630.56	30155.46
630.71	30759.32
630.86	30632.93
631.01	30918.48
631.16	30962.95
631.31	30663.36
631.46	30586.12
631.61	31126.78
631.76	30642.29
631.91	30419.94
632.06	30654.00
632.21	30462.07
632.36	30010.35
632.51	29792.68
632.66	30525.27
632.81	30300.58
632.96	30548.67
633.10	30492.50
633.25	30459.73
633.40	30370.79
633.55	30373.13
633.70	30183.55
633.85	29762.25
634.00	30017.37
634.15	30136.74
634.30	29804.38
634.45	29986.94
634.60	30321.64
634.75	30206.95
634.90	29949.50
635.05	30110.99
635.19	30277.17
635.34	30118.01
635.49	30033.75
635.64	30052.48
635.79	29736.51
635.94	30239.72
636.09	29876.94
636.24	30146.10
636.39	30008.01
636.53	29965.88
636.68	29769.27
636.83	30010.35
636.98	30190.57
637.13	29823.11
637.28	30202.27
637.43	30228.02
637.57	30092.27
637.72	29785.66
637.87	29869.92
638.02	29762.25
638.17	29507.13
638.32	29551.60
638.46	29516.50
638.61	29677.99
638.76	29357.34
638.91	29317.55
639.06	29692.04
639.20	29874.60
639.35	29633.52
639.50	29605.44
639.65	29771.61
639.80	30033.75
639.94	29572.67
640.09	29893.32
640.24	29811.40
640.39	29415.85
640.54	29560.97
640.68	29202.86
640.83	29399.47
640.98	29046.05
641.13	29181.80
641.27	29565.65
641.42	29167.76
641.57	29745.87
641.72	29689.70
641.86	29890.98
642.01	29301.17
642.16	29432.24
642.31	29244.99
642.45	29200.52
642.60	29116.26
642.75	29139.67
642.90	29113.92
643.04	28938.38
643.19	28840.08
643.34	29205.20
643.48	29237.97
643.63	29205.20
643.78	29184.14
643.93	29282.44
644.07	29170.10
644.22	28966.47
644.37	28816.68
644.51	28936.04
644.66	28912.64
644.81	29036.69
644.95	29015.62
645.10	29111.58
645.25	28776.89
645.39	29127.97
645.54	28914.98
645.69	28828.38
645.83	29380.74
645.98	29015.62
646.13	29043.71
646.27	29193.50
646.42	28725.39
646.57	29046.05
646.71	28828.38
646.86	28505.38
647.00	29053.07
647.15	28828.38
647.30	28760.50
647.44	28720.71
647.59	28458.57
647.74	28727.74
647.88	28189.41
648.03	28577.94
648.17	28671.56
648.32	28753.48
648.47	28673.90
648.61	28514.75
648.76	28652.84
648.90	28481.98
649.05	28367.29
649.20	28610.71
649.34	28512.41
649.49	28386.02
649.63	28474.96
649.78	28631.77
649.92	28526.45
650.07	28484.32
650.21	28718.37
650.36	28151.96
650.51	28458.57
650.65	28531.13
650.80	28596.67
650.94	28594.32
651.09	28121.54
651.23	28266.65
651.38	27871.10
651.52	28182.39
651.67	28306.44
651.81	28311.12
651.96	28079.41
652.10	28474.96
652.25	28472.62
652.39	27880.46
652.54	28456.23
652.68	27831.31
652.83	28479.64
652.97	28477.30
653.12	28477.30
653.26	28023.23
653.41	28166.01
653.55	28077.07
653.70	27922.59
653.84	28100.47
653.99	27875.78
654.13	27936.63
654.27	28030.26
654.42	28201.11
654.56	28011.53
654.71	27929.61
654.85	27782.16
655.00	28278.35
655.14	27866.42
655.29	27749.39
655.43	27718.96
655.57	27946.00
655.72	27889.82
655.86	27445.12
656.01	27791.52
656.15	27393.63
656.30	27843.01
656.44	27367.88
656.58	27756.41
656.73	27606.62
656.87	27679.18
657.01	27700.24
657.16	28215.16
657.30	27384.27
657.45	27723.65
657.59	27564.49
657.73	27292.99
657.88	27461.51
658.02	27072.98
658.16	27461.51
658.31	27171.28
658.45	27257.88
658.60	26939.57
658.74	27377.25
658.88	27292.99
659.03	27559.81
659.17	27274.26
659.31	27105.74
659.46	27199.37
659.60	27199.37
659.74	27201.71
659.89	27356.18
660.03	27129.15
660.17	27300.01
660.32	26841.26
660.46	27005.10
660.60	27152.55
660.74	27002.76
660.89	27019.14
661.03	26462.10
661.17	27058.93
661.32	26754.66
661.46	26878.71
661.60	26675.09
661.74	27103.40
661.89	26677.43
662.03	26555.72
662.17	26625.93
662.31	26436.35
662.46	26771.05
662.60	26139.10
662.74	26515.93
662.88	26405.92
663.03	26125.06
663.17	26188.25
663.31	25984.63
663.45	26375.50
663.60	26153.15
663.74	26206.98
663.88	26185.91
664.02	26328.69
664.17	26588.49
664.31	26363.79
664.45	26096.97
664.59	26214.00
664.73	26169.53
664.88	26122.72
665.02	26012.71
665.16	25621.84
665.30	25867.60
665.44	25855.90
665.59	25685.04
665.73	25797.38
665.87	25699.08
666.01	25752.91
666.15	25769.30
666.29	25811.43
666.44	25883.98
666.58	25614.82
666.72	25528.22
666.86	25694.40
667.00	25687.38
667.14	25240.34
667.28	25675.68
667.43	25139.69
667.57	25479.07
667.71	25303.53
667.85	25539.93
667.99	25130.33
668.13	25263.74
668.27	25120.97
668.41	24886.92
668.56	25013.31
668.70	25230.98
668.84	24854.15
668.98	24891.60
669.12	25125.65
669.26	25010.96
669.40	25003.94
669.54	24933.73
669.68	24547.54
669.82	24563.92
669.96	24765.21
670.10	24680.95
670.25	24491.37
670.39	24538.18
670.53	24521.79
670.67	24367.32
670.81	24659.88
670.95	24458.60
671.09	24582.65
671.23	24755.85
671.37	24788.61
671.51	24540.52
671.65	24725.42
671.79	24423.49
671.93	24151.99
672.07	24135.60
672.21	24166.03
672.35	23943.68
672.49	23747.08
672.63	24168.37
672.77	23578.56
672.91	23988.15
673.05	23644.09
673.19	23807.93
673.33	23747.08
673.47	23688.56
673.61	23545.79
673.75	23637.07
673.89	23777.50
674.03	23475.57
674.17	23426.42
674.31	23311.74
674.45	23442.81
674.59	23269.61
674.73	23339.82
674.87	23232.16
675.01	22939.59
675.15	23091.73
675.29	22953.63
675.43	23080.02
675.56	23321.10
675.70	23367.91
675.84	23143.22
675.98	22455.10
676.12	22630.64
676.26	23211.09
676.40	23049.60
676.54	22885.76
676.68	22771.07
676.82	22108.70
676.96	22419.99
677.10	22263.18
677.23	22403.61
677.37	22085.30
677.51	21994.01
677.65	21994.01
677.79	21986.99
677.93	21872.31
678.07	22195.30
678.21	21785.71
678.34	21766.98
678.48	21759.96
678.62	21694.43
678.76	21659.32
678.90	21528.25
679.04	21572.72
679.18	21626.55
679.31	20985.24
679.45	21149.08
679.59	21043.76
679.73	21015.67
679.87	21158.44
680.00	20929.07
680.14	21036.74
680.28	20769.91
680.42	20774.60
680.56	20982.90
680.70	20889.28
680.83	20936.09
680.97	20826.09
681.11	21048.44
681.25	20638.84
681.39	20636.50
681.52	20599.05
681.66	20414.15
681.80	20301.81
681.94	20262.02
682.07	20280.74
682.21	20341.60
682.35	20060.73
682.49	19978.81
682.62	20056.05
682.76	20159.03
682.90	20067.75
683.04	19899.23
683.17	19747.10
683.31	19861.79
683.45	19866.47
683.59	19693.27
683.72	19667.52
683.86	19616.03
684.00	19510.71
684.13	19360.91
684.27	19255.59
684.41	19183.03
684.55	19035.58
684.68	19070.68
684.82	18838.97
684.96	19190.05
685.09	18871.74
685.23	18724.29
685.37	18843.65
685.50	19051.96
685.64	18600.24
685.78	18581.51
685.91	18719.60
686.05	18892.80
686.19	18607.26
686.32	18761.73
686.46	18347.46
686.60	18251.50
686.73	18150.85
686.87	17987.02
687.01	18277.24
687.14	18005.74
687.28	17891.06
687.42	17774.03
687.55	17877.01
687.69	18104.04
687.82	17844.24
687.96	17696.79
688.10	17589.13
688.23	17991.70
688.37	17619.55
688.50	17582.10
688.64	17561.04
688.78	17572.74
688.91	17387.84
689.05	17263.79
689.18	17341.03
689.32	16798.02
689.46	17130.38
689.59	16854.20
689.73	16992.29
689.86	16570.99
690.00	16776.96
690.13	16898.67
690.27	16500.78
690.41	16861.22
690.54	16397.79
690.68	16746.53
690.81	16540.57
690.95	16704.40
691.08	16437.58
691.22	16627.17
691.35	16402.47
691.49	16243.32
691.62	16189.49
691.76	15962.45
691.89	15962.45
692.03	15800.96
692.16	15892.24
692.30	15761.17
692.43	15616.05
692.57	15386.68
692.70	15791.59
692.84	15571.58
692.97	15669.89
693.11	15578.61
693.24	15578.61
693.38	15489.67
693.51	15503.71
693.65	15641.80
693.78	15529.45
693.92	15154.97
694.05	15293.06
694.19	15136.24
694.32	14904.53
694.45	14918.57
694.59	14768.78
694.72	14501.96
694.86	14743.03
694.99	14934.96
695.13	14698.56
695.26	14537.07
695.39	14417.70
695.53	14644.73
695.66	14621.33
695.80	14684.52
695.93	14607.28
696.07	14455.15
696.20	14244.50
696.33	14347.48
696.47	14162.58
696.60	14071.30
696.73	13958.96
696.87	13970.66
697.00	13862.99
697.14	13900.44
697.27	13692.13
697.40	13392.55
697.54	13572.77
697.67	13437.02
697.80	13366.80
697.94	13252.11
698.07	13502.55
698.21	13544.68
698.34	13650.00
698.47	13221.69
698.61	13153.81
698.74	13359.78
698.87	13158.49
699.01	12807.41
699.14	13156.15
699.27	12973.59
699.40	12926.78
699.54	13032.10
699.67	12472.71
699.80	12556.97
699.94	12627.19
700.07	12489.10
700.20	12603.78
700.34	12374.41
700.47	12156.74
700.60	12517.18
700.73	12442.29
700.87	12461.01
701.00	12287.81
701.13	12308.88
701.26	12369.73
701.40	12109.93
701.53	12245.68
701.66	12119.29
701.79	12011.63
701.93	12023.33
702.06	11779.92
702.19	11597.35
702.32	11576.29
702.46	11545.86
702.59	11557.57
702.72	11489.69
702.85	11548.20
702.99	11531.82
703.12	11435.86
703.25	11316.49
703.38	11604.38
703.51	11339.90
703.65	11269.68
703.78	11396.07
703.91	11414.79
704.04	11360.96
704.17	11049.67
704.31	11178.40
704.44	11002.86
704.57	11215.85
704.70	10874.13
704.83	10721.99
704.96	10628.37
705.10	10759.44
705.23	10714.97
>>>>>End Processed Spectral Data<<<<<
