SpectraSuite Data File
++++++++++++++++++++++++++++++++++++
Date: Fri Oct 04 11:39:53 GMT-05:00 2013
User: price-jones
Dark Spectrum Present: No
Reference Spectrum Present: No
Number of Sampled Component Spectra: 1
Spectrometers: USB2+H05261
Integration Time (usec): 100000 (USB2+H05261)
Spectra Averaged: 1 (USB2+H05261)
Boxcar Smoothing: 0 (USB2+H05261)
Correct for Electrical Dark: No (USB2+H05261)
Strobe/Lamp Enabled: No (USB2+H05261)
Correct for Detector Non-linearity: No (USB2+H05261)
Correct for Stray Light: No (USB2+H05261)
Number of Pixels in Processed Spectrum: 2048
>>>>>Begin Processed Spectral Data<<<<<
365.73	25.75
365.92	25.75
366.12	25.75
366.32	25.75
366.52	0.00
366.72	84.26
366.91	0.00
367.11	0.00
367.31	0.00
367.51	0.00
367.70	0.00
367.90	0.00
368.10	0.00
368.30	0.00
368.49	0.00
368.69	23.41
368.89	0.00
369.09	0.00
369.28	0.00
369.48	0.00
369.68	9.36
369.87	28.09
370.07	14.04
370.27	7.02
370.47	95.96
370.66	114.69
370.86	140.43
371.06	191.92
371.25	201.29
371.45	196.60
371.65	196.60
371.84	191.92
372.04	166.18
372.24	234.05
372.44	180.22
372.63	175.54
372.83	266.82
373.03	280.86
373.22	217.67
373.42	245.76
373.62	322.99
373.81	287.89
374.01	250.44
374.21	241.08
374.40	177.88
374.60	212.99
374.79	182.56
374.99	217.67
375.19	245.76
375.38	217.67
375.58	227.03
375.78	313.63
375.97	259.80
376.17	273.84
376.37	276.18
376.56	278.52
376.76	252.78
376.95	304.27
377.15	320.65
377.35	259.80
377.54	259.80
377.74	168.52
377.93	315.97
378.13	276.18
378.33	236.39
378.52	194.26
378.72	245.76
378.91	290.23
379.11	308.95
379.31	252.78
379.50	255.12
379.70	250.44
379.89	318.31
380.09	259.80
380.28	175.54
380.48	301.93
380.68	273.84
380.87	269.16
381.07	259.80
381.26	313.63
381.46	243.42
381.65	313.63
381.85	299.59
382.04	325.33
382.24	262.14
382.43	266.82
382.63	297.25
382.83	325.33
383.02	341.72
383.22	271.50
383.41	339.38
383.61	337.04
383.80	236.39
384.00	322.99
384.19	297.25
384.39	362.78
384.58	421.30
384.78	355.76
384.97	330.02
385.17	280.86
385.36	341.72
385.56	351.08
385.75	304.27
385.95	313.63
386.14	402.57
386.34	348.74
386.53	442.36
386.72	285.55
386.92	315.97
387.11	374.49
387.31	344.06
387.50	332.36
387.70	271.50
387.89	353.42
388.09	351.08
388.28	292.57
388.48	388.53
388.67	355.76
388.86	337.04
389.06	440.02
389.25	418.96
389.45	423.64
389.64	339.38
389.84	425.98
390.03	465.77
390.22	374.49
390.42	325.33
390.61	395.55
390.81	318.31
391.00	444.70
391.19	414.27
391.39	458.74
391.58	486.83
391.78	451.72
391.97	465.77
392.16	421.30
392.36	456.40
392.55	470.45
392.75	437.68
392.94	482.15
393.13	510.24
393.33	428.32
393.52	496.19
393.71	463.43
393.91	493.85
394.10	423.64
394.29	470.45
394.49	458.74
394.68	528.96
394.88	505.56
395.07	550.03
395.26	479.81
395.46	507.90
395.65	535.98
395.84	496.19
396.04	634.29
396.23	528.96
396.42	507.90
396.62	470.45
396.81	540.66
397.00	547.69
397.19	566.41
397.39	550.03
397.58	582.79
397.77	489.17
397.97	631.94
398.16	559.39
398.35	613.22
398.55	603.86
398.74	620.24
398.93	737.27
399.12	585.13
399.32	634.29
399.51	559.39
399.70	709.18
399.90	620.24
400.09	645.99
400.28	716.20
400.47	634.29
400.67	725.57
400.86	617.90
401.05	692.80
401.24	723.23
401.44	704.50
401.63	695.14
401.82	725.57
402.01	711.52
402.21	697.48
402.40	692.80
402.59	755.99
402.78	706.84
402.97	697.48
403.17	737.27
403.36	777.06
403.55	770.04
403.74	842.59
403.93	816.85
404.13	840.25
404.32	837.91
404.51	819.19
404.70	800.46
404.89	837.91
405.09	915.15
405.28	877.70
405.47	833.23
405.66	936.21
405.85	903.45
406.05	889.40
406.24	894.08
406.43	926.85
406.62	875.36
406.81	1025.15
407.00	959.62
407.20	889.40
407.39	1041.54
407.58	1057.92
407.77	987.71
407.96	1025.15
408.15	1018.13
408.34	1093.03
408.54	978.34
408.73	976.00
408.92	1020.47
409.11	1076.65
409.30	1191.33
409.49	1139.84
409.68	1081.33
409.87	1205.38
410.07	1174.95
410.26	1142.18
410.45	1142.18
410.64	1196.01
410.83	1226.44
411.02	1231.12
411.21	1196.01
411.40	1294.32
411.59	1296.66
411.78	1301.34
411.98	1317.72
412.17	1217.08
412.36	1352.83
412.55	1397.30
412.74	1355.17
412.93	1338.79
413.12	1317.72
413.31	1406.66
413.50	1355.17
413.69	1519.01
413.88	1556.46
414.07	1509.65
414.26	1511.99
414.45	1549.43
414.64	1488.58
414.83	1533.05
415.02	1598.59
415.22	1544.75
415.41	1661.78
415.60	1565.82
415.79	1694.55
415.98	1671.14
416.17	1682.85
416.36	1762.42
416.55	1724.97
416.74	1788.17
416.93	1748.38
417.12	1760.08
417.31	1753.06
417.50	1792.85
417.69	1886.47
417.88	1769.44
418.07	1806.89
418.26	1806.89
418.45	1781.15
418.64	1820.94
418.83	1907.54
419.02	1905.20
419.21	1914.56
419.39	1963.71
419.58	1895.83
419.77	1970.73
419.96	2113.50
420.15	2019.88
420.34	2064.35
420.53	2019.88
420.72	1980.09
420.91	2052.65
421.10	2047.97
421.29	2106.48
421.48	2108.82
421.67	2045.63
421.86	2214.15
422.05	2120.53
422.24	2155.63
422.43	2181.38
422.61	2153.29
422.80	2099.46
422.99	2328.83
423.18	2085.42
423.37	2232.87
423.56	2228.19
423.75	2186.06
423.94	2157.97
424.13	2099.46
424.32	2136.91
424.50	2197.76
424.69	2143.93
424.88	2317.13
425.07	2235.21
425.26	2165.00
425.45	2190.74
425.64	2305.43
425.83	2209.47
426.01	2277.34
426.20	2165.00
426.39	2157.97
426.58	2172.02
426.77	2141.59
426.96	2413.09
427.15	2223.51
427.33	2303.09
427.52	2279.68
427.71	2312.45
427.90	2342.88
428.09	2204.78
428.28	2246.91
428.46	2277.34
428.65	2415.43
428.84	2399.05
429.03	2469.27
429.22	2373.30
429.40	2438.84
429.59	2490.33
429.78	2270.32
429.97	2373.30
430.16	2448.20
430.34	2525.44
430.53	2539.48
430.72	2459.90
430.91	2473.95
431.10	2513.74
431.28	2544.16
431.47	2572.25
431.66	2452.88
431.85	2516.08
432.03	2593.31
432.22	2740.77
432.41	2773.53
432.60	2745.45
432.79	2696.30
432.97	2729.06
433.16	2621.40
433.35	2661.19
433.54	2766.51
433.72	2815.66
433.91	2778.22
434.10	2820.35
434.28	2668.21
434.47	2696.30
434.66	2729.06
434.85	2796.94
435.03	2869.50
435.22	2960.78
435.41	3162.06
435.59	3220.58
435.78	3082.49
435.97	2988.86
436.16	3009.93
436.34	2825.03
436.53	2958.44
436.72	2923.33
436.90	2953.76
437.09	2970.14
437.28	2995.89
437.46	3033.33
437.65	2935.03
437.84	2998.23
438.02	2963.12
438.21	2925.67
438.40	2937.37
438.58	3084.83
438.77	3176.11
438.96	3077.80
439.14	3222.92
439.33	3108.23
439.52	3169.09
439.70	3215.90
439.89	3328.24
440.08	3337.60
440.26	3201.85
440.45	3358.67
440.63	3353.99
440.82	3466.33
441.01	3297.81
441.19	3524.85
441.38	3548.25
441.57	3403.14
441.75	3428.88
441.94	3468.67
442.12	3449.95
442.31	3609.11
442.50	3494.42
442.68	3695.71
442.87	3562.30
443.05	3672.30
443.24	3599.74
443.43	3534.21
443.61	3714.43
443.80	3831.46
443.98	3562.30
444.17	3489.74
444.35	3763.58
444.54	3637.19
444.73	3735.50
444.91	3798.69
445.10	3705.07
445.28	3859.54
445.47	3723.79
445.65	3805.71
445.84	3709.75
446.02	3763.58
446.21	3660.60
446.39	3822.09
446.58	3901.67
446.77	3681.66
446.95	3777.62
447.14	3756.56
447.32	3852.52
447.51	3927.42
447.69	3817.41
447.88	3777.62
448.06	3719.11
448.25	3817.41
448.43	3726.13
448.62	3772.94
448.80	3824.44
448.99	3913.38
449.17	3847.84
449.36	3843.16
449.54	4044.45
449.73	4037.42
449.91	3997.64
450.10	4081.89
450.28	4245.73
450.46	4168.49
450.65	4128.70
450.83	4170.83
451.02	4175.52
451.20	4208.28
451.39	4159.13
451.57	4140.41
451.76	4042.11
451.94	4243.39
452.13	4184.88
452.31	4304.25
452.49	4109.98
452.68	4196.58
452.86	4180.20
453.05	4311.27
453.23	4191.90
453.42	4128.70
453.60	4215.30
453.78	4297.22
453.97	4411.91
454.15	4344.03
454.34	4142.75
454.52	4369.78
454.70	4372.12
454.89	4444.68
455.07	4425.95
455.26	4414.25
455.44	4526.60
455.62	4465.74
455.81	4437.66
455.99	4372.12
456.17	4547.66
456.36	4599.15
456.54	4655.33
456.73	4657.67
456.91	4655.33
457.09	4643.62
457.28	4931.51
457.46	4683.41
457.64	4706.82
457.83	4685.75
458.01	4706.82
458.19	4692.77
458.38	4760.65
458.56	4840.23
458.74	4858.95
458.93	4713.84
459.11	4774.69
459.29	4732.56
459.48	4837.89
459.66	4926.83
459.84	4882.36
460.03	5032.15
460.21	4957.25
460.39	4912.78
460.57	4905.76
460.76	4933.85
460.94	4940.87
461.12	5027.47
461.31	5102.37
461.49	5004.07
461.67	4997.04
461.85	5219.39
462.04	5081.30
462.22	5596.22
462.40	5081.30
462.59	5224.08
462.77	5130.45
462.95	5146.84
463.13	5167.90
463.32	5259.18
463.50	5291.95
463.68	5294.29
463.86	5158.54
464.05	5179.61
464.23	5210.03
464.41	5186.63
464.59	5207.69
464.78	5565.79
464.96	5476.85
465.14	5284.93
465.32	5334.08
465.50	5502.60
465.69	5533.03
465.87	5327.06
466.05	5284.93
466.23	5467.49
466.41	5451.11
466.60	5834.96
466.78	5430.04
466.96	5488.56
467.14	5502.60
467.32	5589.20
467.51	5607.92
467.69	5418.34
467.87	5650.05
468.05	5706.23
468.23	5598.56
468.41	5542.39
468.60	5516.64
468.78	5724.95
468.96	5703.89
469.14	5734.31
469.32	5900.49
469.50	5664.10
469.69	5715.59
469.87	5809.21
470.05	5989.43
470.23	5879.43
470.41	5940.28
470.59	5905.17
470.77	5830.27
470.95	5832.62
471.14	6050.28
471.32	5949.64
471.50	6073.69
471.68	6010.50
471.86	6157.95
472.04	6267.95
472.22	6328.81
472.40	6064.33
472.58	6251.57
472.77	6207.10
472.95	6291.36
473.13	6399.02
473.31	6333.49
473.49	6345.19
473.67	6504.35
473.85	6569.88
474.03	6502.01
474.21	6349.87
474.39	6705.63
474.57	6595.63
474.75	6612.01
474.93	6855.43
475.12	6623.72
475.30	6743.08
475.48	6675.21
475.66	6803.94
475.84	6895.22
476.02	6885.86
476.20	6906.92
476.38	6937.35
476.56	7033.31
476.74	7042.67
476.92	6927.99
477.10	7222.89
477.28	7199.49
477.46	7316.51
477.64	7204.17
477.82	7272.04
478.00	7396.09
478.18	7501.42
478.36	7566.95
478.54	7665.25
478.72	7758.88
478.90	7705.04
479.08	7702.70
479.26	7899.31
479.44	7728.45
479.62	8018.68
479.80	8042.08
479.98	8173.15
480.16	8297.20
480.34	8060.80
480.52	8397.84
480.70	8325.29
480.88	8198.90
481.06	8325.29
481.24	8332.31
481.41	8573.38
481.59	8624.87
481.77	8688.07
481.95	8690.41
482.13	8671.68
482.31	8884.67
482.49	8938.51
482.67	8973.61
482.85	9046.17
483.03	9263.84
483.21	9252.14
483.39	9371.50
483.57	9261.50
483.74	9413.63
483.92	9490.87
484.10	9467.47
484.28	9687.48
484.46	9713.22
484.64	10038.56
484.82	9942.60
485.00	9928.55
485.18	9966.00
485.35	10078.35
485.53	10040.90
485.71	10272.61
485.89	10457.51
486.07	10223.46
486.25	10497.30
486.43	10373.25
486.61	10478.58
486.78	10693.91
486.96	10747.74
487.14	10822.64
487.32	10986.47
487.50	10902.22
487.68	11199.46
487.85	11084.78
488.03	11311.81
488.21	11510.75
488.39	11585.65
488.57	11716.72
488.75	11524.80
488.92	11815.02
489.10	11922.69
489.28	11936.73
489.46	12093.55
489.64	12112.27
489.81	12175.47
489.99	12189.51
490.17	12407.18
490.35	12587.40
490.53	12475.06
490.70	12636.55
490.88	12601.44
491.06	12807.41
491.24	12622.51
491.41	13067.21
491.59	12758.26
491.77	12929.12
491.95	13240.41
492.13	13247.43
492.30	13296.58
492.48	13172.54
492.66	13331.69
492.84	13352.76
493.01	13689.79
493.19	13481.49
493.37	13968.32
493.54	13902.78
493.72	14068.96
493.90	14064.28
494.08	14122.79
494.25	14211.73
494.43	14408.34
494.61	14319.40
494.79	14370.89
494.96	14326.42
495.14	14560.47
495.32	14827.29
495.49	14710.27
495.67	14993.47
495.85	15033.26
496.02	14963.04
496.20	14850.70
496.38	14998.15
496.55	15147.95
496.73	15421.79
496.91	15220.50
497.09	15559.88
497.26	15597.33
497.44	15639.46
497.62	15578.61
497.79	15716.70
497.97	15676.91
498.14	16009.26
498.32	16042.03
498.50	16095.86
498.67	16365.03
498.85	16290.13
499.03	16049.05
499.20	16346.30
499.38	16208.21
499.56	16404.81
499.73	16596.74
499.91	16692.70
500.08	16491.41
500.26	16592.06
500.44	16964.20
500.61	16606.10
500.79	16650.57
500.97	16945.48
501.14	17280.18
501.32	16999.31
501.49	16889.31
501.67	17411.25
501.84	17252.09
502.02	17336.35
502.20	17479.12
502.37	17752.96
502.55	17422.95
502.72	17687.43
502.90	17537.63
503.07	17600.83
503.25	17432.31
503.43	17888.71
503.60	17877.01
503.78	17951.91
503.95	17972.97
504.13	18073.62
504.30	17980.00
504.48	17919.14
504.65	18082.98
504.83	18197.67
505.01	18813.23
505.18	18370.86
505.36	18614.28
505.53	18354.48
505.71	18375.55
505.88	18698.54
506.06	18764.07
506.23	18654.07
506.41	18759.39
506.58	19019.19
506.76	18883.44
506.93	18757.05
507.11	19056.64
507.28	18754.71
507.46	18967.70
507.63	19192.39
507.81	19300.06
507.98	19119.84
508.16	19447.51
508.33	19014.51
508.50	19353.89
508.68	19632.41
508.85	19672.20
509.03	19969.45
509.20	19548.15
509.38	19648.80
509.55	19803.27
509.73	19683.91
509.90	20067.75
510.08	19967.11
510.25	19889.87
510.42	20329.89
510.60	20210.53
510.77	20669.27
510.95	20524.16
511.12	20046.69
511.30	20577.99
511.47	20917.37
511.64	20634.16
511.82	20828.43
511.99	20554.58
512.17	21036.74
512.34	20755.87
512.51	20996.95
512.69	20561.61
512.86	21090.57
513.04	21069.50
513.21	21184.19
513.38	21521.23
513.56	21249.72
513.73	21296.53
513.90	21282.49
514.08	21116.31
514.25	21420.58
514.43	21516.54
514.60	21465.05
514.77	21518.89
514.95	21673.36
515.12	21687.40
515.29	21696.77
515.47	21937.84
515.64	21771.66
515.81	22087.64
515.99	21834.86
516.16	22136.79
516.33	22108.70
516.51	22335.73
516.68	22204.66
516.85	22113.38
517.03	22298.28
517.20	22391.91
517.37	22466.80
517.54	22462.12
517.72	22286.58
517.89	22698.52
518.06	22352.12
518.24	22333.39
518.41	22820.22
518.58	22731.28
518.75	22808.52
518.93	22941.93
519.10	22750.01
519.27	23129.17
519.45	22991.08
519.62	23056.62
519.79	23157.26
519.96	23131.51
520.14	23180.67
520.31	23328.12
520.48	23344.50
520.65	23164.28
520.83	23215.77
521.00	23653.45
521.17	23550.47
521.34	23356.21
521.52	23812.61
521.69	23644.09
521.86	23868.78
522.03	23737.71
522.20	23953.04
522.38	23927.30
522.55	23964.75
522.72	24095.82
522.89	24072.41
523.07	24547.54
523.24	24107.52
523.41	24416.47
523.58	24128.58
523.75	24135.60
523.92	24128.58
524.10	24486.68
524.27	24194.12
524.44	24498.39
524.61	24987.56
524.78	24458.60
524.96	24617.75
525.13	24840.11
525.30	24809.68
525.47	24907.98
525.64	24570.94
525.81	24833.08
525.98	25298.85
526.16	25350.34
526.33	24788.61
526.50	25263.74
526.67	24947.77
526.84	25034.37
527.01	24610.73
527.18	25158.42
527.36	25221.61
527.53	25427.58
527.70	25699.08
527.87	25553.97
528.04	25528.22
528.21	25422.90
528.38	25329.28
528.55	25626.53
528.72	25551.63
528.89	25694.40
529.07	25558.65
529.24	25858.24
529.41	25891.01
529.58	25706.10
529.75	25493.12
529.92	25785.68
530.09	25951.86
530.26	26356.77
530.43	26103.99
530.60	25839.51
530.77	26031.44
530.94	26192.94
531.11	25954.20
531.28	26235.06
531.46	26192.94
531.63	26403.58
531.80	26361.45
531.97	26338.05
532.14	26284.22
532.31	26024.42
532.48	26333.37
532.65	26572.10
532.82	26508.91
532.99	26799.13
533.16	26625.93
533.33	26965.31
533.50	26979.36
533.67	26742.96
533.84	26586.15
534.01	26876.37
534.18	26195.28
534.35	27040.21
534.52	27105.74
534.69	27115.11
534.86	27342.14
535.03	26981.70
535.20	26979.36
535.37	27367.88
535.54	27049.57
535.71	27026.17
535.88	26881.05
536.05	27402.99
536.22	27681.52
536.38	27353.84
536.55	27424.06
536.72	27302.35
536.89	27445.12
537.06	27393.63
537.23	27601.94
537.40	27262.56
537.57	27835.99
537.74	27938.97
537.91	27936.63
538.08	27854.72
538.25	27903.87
538.42	27871.10
538.59	27695.56
538.75	27604.28
538.92	27814.93
539.09	28123.88
539.26	28285.37
539.43	28299.42
539.60	28079.41
539.77	28039.62
539.94	28402.40
540.11	28589.64
540.28	28507.72
540.44	28659.86
540.61	28400.06
540.78	28217.50
540.95	28669.22
541.12	28409.42
541.29	28533.47
541.46	28858.81
541.62	28980.51
541.79	28730.08
541.96	28395.38
542.13	28446.87
542.30	28648.16
542.47	28868.17
542.63	28926.68
542.80	29085.84
542.97	28903.28
543.14	29406.49
543.31	29233.29
543.48	28996.90
543.64	29633.52
543.81	29401.81
543.98	29575.01
544.15	29500.11
544.32	29483.73
544.48	29633.52
544.65	29504.79
544.82	29291.80
544.99	29450.96
545.16	29177.12
545.32	29329.25
545.49	30548.67
545.66	30242.06
545.83	30632.93
546.00	30595.48
546.16	30567.40
546.33	29818.42
546.50	29453.30
546.67	29769.27
546.83	29472.03
547.00	29294.14
547.17	29509.47
547.34	29762.25
547.50	29895.66
547.67	30192.91
547.84	29818.42
548.00	30204.61
548.17	30068.86
548.34	30057.16
548.51	30436.33
548.67	30206.95
548.84	30237.38
549.01	29855.87
549.18	30141.42
549.34	30382.49
549.51	30050.14
549.68	29996.31
549.84	29788.00
550.01	30024.39
550.18	30279.51
550.34	30604.84
550.51	30525.27
550.68	30749.96
550.84	30054.82
551.01	30157.80
551.18	30553.35
551.34	29965.88
551.51	30462.07
551.68	30349.73
551.84	30665.70
552.01	30066.52
552.18	30541.65
552.34	30321.64
552.51	30286.53
552.68	30712.51
552.84	30099.29
553.01	31033.16
553.18	30518.25
553.34	30387.18
553.51	30976.99
553.67	30909.11
553.84	31367.86
554.01	31084.65
554.17	31012.10
554.34	30462.07
554.51	30785.07
554.67	31131.47
554.84	30876.35
555.00	31002.74
555.17	30768.68
555.33	30960.61
555.50	30965.29
555.67	30735.92
555.83	30976.99
556.00	31372.54
556.16	31512.97
556.33	30480.80
556.50	31136.15
556.66	31101.04
556.83	31021.46
556.99	31372.54
557.16	31197.00
557.32	31278.92
557.49	31204.02
557.65	30773.36
557.82	31199.34
557.98	31126.78
558.15	31157.21
558.32	31234.45
558.48	31040.18
558.65	31442.76
558.81	31718.94
558.98	31552.76
559.14	31391.26
559.31	31426.37
559.47	31332.75
559.64	31353.82
559.80	31655.75
559.97	31388.92
560.13	31728.30
560.30	31227.43
560.46	31660.43
560.63	31569.15
560.79	31580.85
560.96	31630.00
561.12	31630.00
561.29	31211.04
561.45	31393.61
561.61	31510.63
561.78	31498.93
561.94	31740.00
562.11	31831.29
562.27	31599.57
562.44	31527.02
562.60	31693.19
562.77	31735.32
562.93	31842.99
563.10	31658.09
563.26	32098.11
563.42	31964.70
563.59	31782.13
563.75	31627.66
563.92	32095.77
564.08	31782.13
564.24	31952.99
564.41	31412.33
564.57	31510.63
564.74	31431.05
564.90	31992.78
565.07	31793.84
565.23	32109.81
565.39	31978.74
565.56	31850.01
565.72	31990.44
565.88	31512.97
566.05	31842.99
566.21	31585.53
566.38	32135.56
566.54	32039.59
566.70	32175.34
566.87	31948.31
567.03	31707.24
567.19	32701.96
567.36	32156.62
567.52	32070.02
567.68	31967.04
567.85	31700.22
568.01	31681.49
568.17	31501.27
568.34	32135.56
568.50	32079.38
568.66	32229.18
568.83	32212.79
568.99	32350.88
569.15	31632.34
569.32	32203.43
569.48	31971.72
569.64	32084.06
569.81	32208.11
569.97	32407.06
570.13	32212.79
570.30	32105.13
570.46	32222.16
570.62	32224.50
570.78	31957.67
570.95	32247.90
571.11	32371.95
571.27	32404.72
571.43	31571.49
571.60	32521.74
571.76	32016.19
571.92	32587.28
572.09	32275.99
572.25	32233.86
572.41	32013.85
572.57	32311.10
572.74	31978.74
572.90	32175.34
573.06	31974.06
573.22	32339.18
573.38	32198.75
573.55	32610.68
573.71	32526.42
573.87	32868.14
574.03	31873.42
574.20	32308.76
574.36	32102.79
574.52	32521.74
574.68	32168.32
574.84	32556.85
575.01	32252.58
575.17	32882.19
575.33	32500.68
575.49	32416.42
575.65	32959.42
575.82	32596.64
575.98	32568.55
576.14	32472.59
576.30	32477.27
576.46	32779.20
576.62	32577.92
576.79	32421.10
576.95	32723.03
577.11	32535.79
577.27	32720.69
577.43	32306.41
577.59	32636.43
577.75	32650.47
577.92	32479.61
578.08	32437.48
578.24	32294.71
578.40	32528.77
578.56	32570.90
578.72	32505.36
578.88	32723.03
579.04	32985.17
579.21	32751.12
579.37	32613.02
579.53	32393.01
579.69	32641.11
579.85	32472.59
580.01	32360.25
580.17	32659.84
580.33	32414.08
580.49	32723.03
580.65	32987.51
580.82	33024.96
580.98	32926.66
581.14	32320.46
581.30	33132.62
581.46	32512.38
581.62	32603.66
581.78	32627.07
581.94	32512.38
582.10	32400.04
582.26	32940.70
582.42	32704.31
582.58	32680.90
582.74	33256.67
582.90	33067.09
583.06	32458.55
583.22	33050.70
583.38	32634.09
583.54	32769.84
583.70	32278.33
583.86	32718.35
584.02	32692.60
584.18	32898.57
584.34	33202.84
584.50	33048.36
584.66	32910.27
584.82	32861.12
584.98	32498.34
585.14	32872.82
585.30	32657.49
585.46	32755.80
585.62	32751.12
585.78	32713.67
585.94	32762.82
586.10	33053.05
586.26	32769.84
586.42	32978.15
586.58	33071.77
586.74	33081.13
586.90	32760.48
587.06	32697.28
587.22	33039.00
587.38	33060.07
587.54	33184.12
587.70	33226.24
587.86	32996.87
588.02	33251.99
588.18	32573.24
588.34	32975.81
588.49	32634.09
588.65	32959.42
588.81	32985.17
588.97	32959.42
589.13	33043.68
589.29	33174.75
589.45	32978.15
589.61	33050.70
589.77	33163.05
589.93	33266.03
590.08	33528.17
590.24	33111.56
590.40	33418.17
590.56	33310.50
590.72	33172.41
590.88	32708.99
591.04	33296.46
591.20	32950.06
591.35	33666.27
591.51	33441.57
591.67	33514.13
591.83	33663.93
591.99	33380.72
592.15	33020.28
592.31	33558.60
592.46	33029.64
592.62	33017.94
592.78	33090.49
592.94	33144.33
593.10	33371.36
593.26	33434.55
593.41	33301.14
593.57	33479.02
593.73	33682.65
593.89	33579.67
594.05	33259.01
594.20	33376.04
594.36	33240.29
594.52	33228.59
594.68	32727.71
594.84	33170.07
594.99	33296.46
595.15	33546.90
595.31	33799.68
595.47	33399.44
595.62	33127.94
595.78	33074.11
595.94	32921.98
596.10	32973.47
596.25	33233.27
596.41	33280.08
596.57	33268.37
596.73	33453.28
596.88	33352.63
597.04	33350.29
597.20	33556.26
597.36	33472.00
597.51	33195.82
597.67	33247.31
597.83	33212.20
597.99	33731.80
598.14	33137.30
598.30	33560.94
598.46	33343.27
598.61	33362.00
598.77	33329.23
598.93	33394.76
599.09	33841.81
599.24	33507.11
599.40	33474.34
599.56	33354.97
599.71	33706.05
599.87	33633.50
600.03	33720.10
600.18	33453.28
600.34	33074.11
600.50	33579.67
600.65	33156.03
600.81	33429.87
600.97	33724.78
601.12	33645.20
601.28	33457.96
601.44	33530.51
601.59	33766.91
601.75	33125.60
601.91	33359.66
602.06	33303.48
602.22	33476.68
602.37	33373.70
602.53	33179.43
602.69	33221.56
602.84	33567.96
603.00	33591.37
603.16	33806.70
603.31	33593.71
603.47	33500.09
603.62	33177.09
603.78	33474.34
603.94	33399.44
604.09	33226.24
604.25	33362.00
604.40	32982.83
604.56	33429.87
604.71	33301.14
604.87	33696.69
605.03	33371.36
605.18	33401.79
605.34	33425.19
605.49	33130.28
605.65	33259.01
605.80	33516.47
605.96	33139.65
606.12	33500.09
606.27	33216.88
606.43	33404.13
606.58	33394.76
606.74	33174.75
606.89	33263.69
607.05	33263.69
607.20	33427.53
607.36	33170.07
607.51	33186.46
607.67	32781.54
607.82	33378.38
607.98	33069.43
608.13	33200.50
608.29	32741.75
608.44	33603.07
608.60	33001.55
608.75	33214.54
608.91	33022.62
609.06	32929.00
609.22	33500.09
609.37	32804.95
609.53	33425.19
609.68	33509.45
609.84	33455.62
609.99	33345.61
610.15	33090.49
610.30	33401.79
610.46	33785.63
610.61	34246.72
610.76	33954.15
610.92	34225.65
611.07	34293.53
611.23	33989.26
611.38	34136.71
611.54	33500.09
611.69	33673.29
611.84	33556.26
612.00	33078.79
612.15	33046.02
612.31	33235.61
612.46	33376.04
612.62	33408.81
612.77	33076.45
612.92	33170.07
613.08	33366.68
613.23	32842.40
613.39	33146.67
613.54	32863.46
613.69	32982.83
613.85	33184.12
614.00	33113.90
614.15	33280.08
614.31	32896.23
614.46	33060.07
614.62	32992.19
614.77	32898.57
614.92	33085.81
615.08	32919.63
615.23	32690.26
615.38	32561.53
615.54	32762.82
615.69	32573.24
615.84	32180.03
616.00	32322.80
616.15	32308.76
616.30	32732.39
616.46	32271.31
616.61	32460.89
616.76	32886.87
616.92	32580.26
617.07	32620.05
617.22	32163.64
617.37	32364.93
617.53	32341.52
617.68	32650.47
617.83	31747.03
617.99	32648.13
618.14	32100.45
618.29	32458.55
618.45	32521.74
618.60	32142.58
618.75	32346.20
618.90	32236.20
619.06	32133.21
619.21	32306.41
619.36	32023.21
619.51	31793.84
619.67	31784.48
619.82	31751.71
619.97	32053.64
620.12	31885.12
620.28	32032.57
620.43	32360.25
620.58	32222.16
620.73	32376.63
620.89	32285.35
621.04	32343.86
621.19	32416.42
621.34	32283.01
621.49	31828.95
621.65	31936.61
621.80	32006.83
621.95	31807.88
622.10	31971.72
622.25	31936.61
622.41	31697.88
622.56	32009.17
622.71	32151.94
622.86	31786.82
623.01	31782.13
623.16	31742.35
623.32	31241.47
623.47	31782.13
623.62	31658.09
623.77	31578.51
623.92	31889.80
624.07	31772.77
624.23	31447.44
624.38	31934.27
624.53	31426.37
624.68	31885.12
624.83	31730.64
624.98	31611.28
625.13	31686.17
625.29	32088.74
625.44	31065.93
625.59	31220.41
625.74	31543.40
625.89	31082.31
626.04	30986.35
626.19	31239.13
626.34	31260.20
626.49	31449.78
626.65	31328.07
626.80	31337.43
626.95	31178.28
627.10	31234.45
627.25	31278.92
627.40	31318.71
627.55	31318.71
627.70	31023.80
627.85	30857.62
628.00	31178.28
628.15	31363.18
628.30	30747.62
628.45	30845.92
628.60	31112.74
628.76	31082.31
628.91	31304.67
629.06	31157.21
629.21	31344.45
629.36	30658.68
629.51	30916.14
629.66	30925.50
629.81	30803.79
629.96	30305.26
630.11	30602.50
630.26	30726.55
630.41	31213.38
630.56	30749.96
630.71	30705.49
630.86	30953.58
631.01	30895.07
631.16	30878.69
631.31	30808.47
631.46	30862.30
631.61	30939.54
631.76	30689.10
631.91	30827.20
632.06	30682.08
632.21	30822.51
632.36	30735.92
632.51	30218.66
632.66	30485.48
632.81	30331.00
632.96	30962.95
633.10	30644.63
633.25	30457.39
633.40	30726.55
633.55	30579.10
633.70	30394.20
633.85	30244.40
634.00	30373.13
634.15	30171.85
634.30	30197.59
634.45	30190.57
634.60	30476.12
634.75	30562.72
634.90	30431.65
635.05	30211.64
635.19	30089.93
635.34	30338.02
635.49	30267.81
635.64	30267.81
635.79	30572.08
635.94	29734.17
636.09	30242.06
636.24	29890.98
636.39	30143.76
636.53	30277.17
636.68	29902.68
636.83	30270.15
636.98	30267.81
637.13	29729.48
637.28	30373.13
637.43	30089.93
637.57	30075.88
637.72	29820.77
637.87	30015.03
638.02	29944.81
638.17	29809.06
638.32	29710.76
638.46	29820.77
638.61	29790.34
638.76	29675.65
638.91	29970.56
639.06	30008.01
639.20	29844.17
639.35	29769.27
639.50	30029.07
639.65	30089.93
639.80	29916.73
639.94	29741.19
640.09	30073.54
640.24	29680.33
640.39	29369.04
640.54	29757.57
640.68	29584.37
640.83	29263.72
640.98	29212.23
641.13	29139.67
641.27	29764.59
641.42	29465.00
641.57	29455.64
641.72	29663.95
641.86	29598.41
642.01	29612.46
642.16	29357.34
642.31	29415.85
642.45	29502.45
642.60	29125.63
642.75	29067.11
642.90	29315.21
643.04	29198.18
643.19	29502.45
643.34	29619.48
643.48	29106.90
643.63	28926.68
643.78	29647.57
643.93	29570.33
644.07	29144.35
644.22	28903.28
644.37	28828.38
644.51	29212.23
644.66	29310.53
644.81	28868.17
644.95	28816.68
645.10	29067.11
645.25	29287.12
645.39	29387.77
645.54	28959.45
645.69	28891.57
645.83	29163.08
645.98	29167.76
646.13	29172.44
646.27	29022.64
646.42	28917.32
646.57	29032.00
646.71	29076.48
646.86	28893.91
647.00	28847.10
647.15	28631.77
647.30	28601.35
647.44	29027.32
647.59	28687.95
647.74	28601.35
647.88	28772.21
648.03	28751.14
648.17	28919.66
648.32	28723.05
648.47	28774.55
648.61	28666.88
648.76	28788.59
648.90	28629.43
649.05	28861.15
649.20	28929.02
649.34	28538.15
649.49	28428.15
649.63	28467.94
649.78	28582.62
649.92	28470.28
650.07	28486.66
650.21	28648.16
650.36	28500.70
650.51	28945.41
650.65	28947.75
650.80	28872.85
650.94	28863.49
651.09	28533.47
651.23	28123.88
651.38	28374.31
651.52	28236.22
651.67	28325.16
651.81	28397.72
651.96	28322.82
652.10	28449.21
652.25	28325.16
652.39	28416.44
652.54	28341.55
652.68	28362.61
652.83	28322.82
652.97	28659.86
653.12	28226.86
653.26	28428.15
653.41	28238.56
653.55	28341.55
653.70	28320.48
653.84	27707.26
653.99	28037.28
654.13	28357.93
654.27	28102.81
654.42	27821.95
654.56	27899.19
654.71	28126.22
654.85	27859.40
655.00	28189.41
655.14	28067.70
655.29	28063.02
655.43	27999.83
655.57	27882.80
655.72	27978.76
655.86	27744.71
656.01	27740.03
656.15	27826.63
656.30	27775.14
656.44	27604.28
656.58	28240.90
656.73	28004.51
656.87	28004.51
657.01	27828.97
657.16	28297.08
657.30	27833.65
657.45	27749.39
657.59	27517.68
657.73	27665.13
657.88	27676.83
658.02	27637.05
658.16	27218.09
658.31	27321.07
658.45	27049.57
658.60	27234.47
658.74	27405.33
658.88	27562.15
659.03	27358.52
659.17	27101.06
659.31	27381.93
659.46	27452.14
659.60	27641.73
659.74	27835.99
659.89	27412.35
660.03	27798.54
660.17	27473.21
660.32	27246.18
660.46	27157.24
660.60	26803.82
660.74	27470.87
660.89	27220.43
661.03	27112.77
661.17	27065.96
661.32	26766.37
661.46	26984.04
661.60	26965.31
661.74	26927.86
661.89	26876.37
662.03	26934.88
662.17	26780.41
662.31	27042.55
662.46	27042.55
662.60	26799.13
662.74	26822.54
662.88	26735.94
663.03	26665.72
663.17	26061.87
663.31	26412.95
663.45	26630.62
663.60	26326.35
663.74	26623.59
663.88	26429.33
664.02	26579.12
664.17	26738.28
664.31	26455.08
664.45	26312.30
664.59	26298.26
664.73	26164.85
664.88	26293.58
665.02	26132.08
665.16	26005.69
665.30	26122.72
665.44	25928.45
665.59	25703.76
665.73	26108.68
665.87	25804.41
666.01	26012.71
666.15	26319.32
666.29	25986.97
666.44	25727.17
666.58	25788.02
666.72	25905.05
666.86	25860.58
667.00	25764.62
667.14	25525.88
667.28	25715.47
667.43	25135.01
667.57	25703.76
667.71	25352.68
667.85	25441.62
667.99	25537.59
668.13	25553.97
668.27	25558.65
668.41	25504.82
668.56	25106.93
668.70	25663.97
668.84	25268.42
668.98	24919.68
669.12	25401.83
669.26	25413.54
669.40	25294.17
669.54	25015.65
669.68	25046.07
669.82	24940.75
669.96	24559.24
670.10	24367.32
670.25	24856.49
670.39	24393.06
670.53	24652.86
670.67	24580.31
670.81	24805.00
670.95	24720.74
671.09	24484.34
671.23	24680.95
671.37	24638.82
671.51	24435.19
671.65	24713.72
671.79	24533.50
671.93	24304.12
672.07	24533.50
672.21	24538.18
672.35	24194.12
672.49	24041.98
672.63	24112.20
672.77	24273.70
672.91	24168.37
673.05	23733.03
673.19	23782.18
673.33	23770.48
673.47	23917.93
673.61	23924.96
673.75	24187.10
673.89	23910.91
674.03	23899.21
674.17	23517.70
674.31	23800.91
674.45	23503.66
674.59	23468.55
674.73	23143.22
674.87	23761.12
675.01	22991.08
675.15	23330.46
675.29	23152.58
675.43	23096.41
675.56	22883.42
675.70	23183.01
675.84	23489.62
675.98	22501.91
676.12	23328.12
676.26	23187.69
676.40	22878.74
676.54	23138.54
676.68	22796.82
676.82	22228.07
676.96	22485.53
677.10	22733.62
677.23	22410.63
677.37	22398.93
677.51	22230.41
677.65	21818.47
677.79	22064.23
677.93	22118.06
678.07	22253.81
678.21	21862.94
678.34	22164.87
678.48	21575.06
678.62	21902.73
678.76	21879.33
678.90	21738.90
679.04	21715.49
679.18	21802.09
679.31	21298.88
679.45	21366.75
679.59	21146.74
679.73	21434.63
679.87	21371.43
680.00	21509.52
680.14	21247.38
680.28	21076.52
680.42	21027.37
680.56	20816.72
680.70	20896.30
680.83	20996.95
680.97	20863.54
681.11	21032.05
681.25	20727.78
681.39	20872.90
681.52	20297.13
681.66	20491.39
681.80	20580.33
681.94	20547.56
682.07	20432.88
682.21	20489.05
682.35	19950.73
682.49	20372.02
682.62	20175.42
682.76	19906.26
682.90	20004.56
683.04	20058.39
683.17	19765.82
683.31	20060.73
683.45	20044.35
683.59	19709.65
683.72	19800.93
683.86	19496.66
684.00	19714.33
684.13	19924.98
684.27	19248.57
684.41	19208.78
684.55	19187.71
684.68	19330.48
684.82	18979.40
684.96	18897.49
685.09	19009.83
685.23	19124.52
685.37	18963.02
685.50	19014.51
685.64	19082.39
685.78	19276.65
685.91	18974.72
686.05	18977.06
686.19	18443.42
686.32	18906.85
686.46	18483.21
686.60	18162.56
686.73	18693.86
686.87	18408.31
687.01	18080.64
687.14	18115.75
687.28	17902.76
687.42	18207.03
687.55	17984.68
687.69	17919.14
687.82	18012.76
687.96	17891.06
688.10	17804.46
688.23	18003.40
688.37	18015.10
688.50	17607.85
688.64	17551.68
688.78	17687.43
688.91	17270.81
689.05	17495.50
689.18	17427.63
689.32	16973.56
689.46	17032.08
689.59	17205.28
689.73	17291.88
689.86	17020.38
690.00	16767.60
690.13	16908.03
690.27	16844.84
690.41	16821.43
690.54	16893.99
690.68	16669.30
690.81	16737.17
690.95	16615.46
691.08	16781.64
691.22	16329.92
691.35	16184.80
691.49	16098.20
691.62	16629.51
691.76	16191.83
691.89	16091.18
692.03	15590.31
692.16	15894.58
692.30	15964.79
692.43	15817.34
692.57	15817.34
692.70	16086.50
692.84	15843.09
692.97	15606.69
693.11	15798.62
693.24	15644.14
693.38	15578.61
693.51	15428.81
693.65	15484.98
693.78	15300.08
693.92	15669.89
694.05	15211.14
694.19	15124.54
694.32	15077.73
694.45	14986.45
694.59	14984.11
694.72	14965.39
694.86	14890.49
694.99	14604.94
695.13	14743.03
695.26	14787.50
695.39	14221.10
695.53	14597.92
695.66	14977.09
695.80	14595.58
695.93	14473.87
696.07	14260.88
696.20	14572.18
696.33	14415.36
696.47	14200.03
696.60	14146.20
696.73	14249.18
696.87	14008.11
697.00	13919.17
697.14	13816.18
697.27	13652.34
697.40	13680.43
697.54	13947.25
697.67	13547.02
697.80	13664.05
697.94	13633.62
698.07	13469.78
698.21	13336.37
698.34	13675.75
698.47	13474.46
698.61	13151.47
698.74	13298.92
698.87	13214.66
699.01	13137.43
699.14	13158.49
699.27	12961.89
699.40	12898.69
699.54	12835.50
699.67	12842.52
699.80	12559.31
699.94	12533.57
700.07	12400.16
700.20	12470.37
700.34	12439.95
700.47	12601.44
700.60	12545.27
700.73	12566.34
700.87	12425.90
701.00	12224.62
701.13	12313.56
701.26	12250.36
701.40	12355.69
701.53	11981.20
701.66	12334.62
701.79	12168.45
701.93	12098.23
702.06	12042.06
702.19	11918.01
702.32	11927.37
702.46	11843.11
702.59	11587.99
702.72	11672.25
702.85	11487.35
702.99	11602.04
703.12	11407.77
703.25	11304.79
703.38	11449.90
703.51	11461.60
703.65	11447.56
703.78	11260.32
703.91	11396.07
704.04	11274.36
704.17	11386.71
704.31	11166.70
704.44	11096.48
704.57	10899.87
704.70	10949.03
704.83	10937.32
704.96	10876.47
705.10	10888.17
705.23	10780.51
>>>>>End Processed Spectral Data<<<<<
