SpectraSuite Data File
++++++++++++++++++++++++++++++++++++
Date: Fri Oct 04 11:39:51 GMT-05:00 2013
User: price-jones
Dark Spectrum Present: No
Reference Spectrum Present: No
Number of Sampled Component Spectra: 1
Spectrometers: USB2+H05261
Integration Time (usec): 100000 (USB2+H05261)
Spectra Averaged: 1 (USB2+H05261)
Boxcar Smoothing: 0 (USB2+H05261)
Correct for Electrical Dark: No (USB2+H05261)
Strobe/Lamp Enabled: No (USB2+H05261)
Correct for Detector Non-linearity: No (USB2+H05261)
Correct for Stray Light: No (USB2+H05261)
Number of Pixels in Processed Spectrum: 2048
>>>>>Begin Processed Spectral Data<<<<<
365.73	44.47
365.92	44.47
366.12	44.47
366.32	0.00
366.52	0.00
366.72	0.00
366.91	0.00
367.11	0.00
367.31	0.00
367.51	0.00
367.70	0.00
367.90	0.00
368.10	0.00
368.30	0.00
368.49	0.00
368.69	0.00
368.89	0.00
369.09	0.00
369.28	0.00
369.48	0.00
369.68	4.68
369.87	0.00
370.07	0.00
370.27	39.79
370.47	11.70
370.66	28.09
370.86	23.41
371.06	46.81
371.25	100.64
371.45	84.26
371.65	107.66
371.84	60.85
372.04	14.04
372.24	81.92
372.44	91.28
372.63	159.16
372.83	121.71
373.03	88.94
373.22	126.39
373.42	65.54
373.62	121.71
373.81	124.05
374.01	126.39
374.21	121.71
374.40	152.13
374.60	110.01
374.79	110.01
374.99	30.43
375.19	142.77
375.38	203.63
375.58	112.35
375.78	74.90
375.97	201.29
376.17	173.20
376.37	131.07
376.56	119.37
376.76	138.09
376.95	95.96
377.15	191.92
377.35	152.13
377.54	131.07
377.74	156.82
377.93	114.69
378.13	159.16
378.33	159.16
378.52	166.18
378.72	44.47
378.91	56.17
379.11	135.75
379.31	98.30
379.50	84.26
379.70	131.07
379.89	135.75
380.09	105.32
380.28	95.96
380.48	121.71
380.68	100.64
380.87	114.69
381.07	98.30
381.26	180.22
381.46	236.39
381.65	98.30
381.85	95.96
382.04	95.96
382.24	131.07
382.43	126.39
382.63	100.64
382.83	95.96
383.02	107.66
383.22	205.97
383.41	128.73
383.61	86.60
383.80	161.50
384.00	105.32
384.19	117.03
384.39	126.39
384.58	112.35
384.78	110.01
384.97	95.96
385.17	98.30
385.36	114.69
385.56	84.26
385.75	182.56
385.95	23.41
386.14	126.39
386.34	98.30
386.53	138.09
386.72	135.75
386.92	138.09
387.11	72.56
387.31	86.60
387.50	133.41
387.70	105.32
387.89	93.62
388.09	100.64
388.28	102.98
388.48	105.32
388.67	140.43
388.86	126.39
389.06	88.94
389.25	152.13
389.45	112.35
389.64	114.69
389.84	114.69
390.03	140.43
390.22	173.20
390.42	112.35
390.61	135.75
390.81	168.52
391.00	119.37
391.19	156.82
391.39	79.58
391.58	124.05
391.78	70.22
391.97	88.94
392.16	95.96
392.36	117.03
392.55	161.50
392.75	135.75
392.94	112.35
393.13	182.56
393.33	126.39
393.52	110.01
393.71	124.05
393.91	135.75
394.10	105.32
394.29	58.51
394.49	63.19
394.68	121.71
394.88	161.50
395.07	131.07
395.26	98.30
395.46	117.03
395.65	208.31
395.84	264.48
396.04	241.08
396.23	168.52
396.42	58.51
396.62	184.90
396.81	86.60
397.00	91.28
397.19	168.52
397.39	126.39
397.58	142.77
397.77	86.60
397.97	93.62
398.16	191.92
398.35	135.75
398.55	88.94
398.74	91.28
398.93	119.37
399.12	81.92
399.32	126.39
399.51	91.28
399.70	159.16
399.90	112.35
400.09	117.03
400.28	170.86
400.47	100.64
400.67	112.35
400.86	147.45
401.05	177.88
401.24	156.82
401.44	159.16
401.63	175.54
401.82	140.43
402.01	126.39
402.21	135.75
402.40	140.43
402.59	112.35
402.78	107.66
402.97	145.11
403.17	145.11
403.36	102.98
403.55	95.96
403.74	145.11
403.93	177.88
404.13	285.55
404.32	220.01
404.51	215.33
404.70	166.18
404.89	135.75
405.09	163.84
405.28	140.43
405.47	86.60
405.66	138.09
405.85	149.79
406.05	156.82
406.24	147.45
406.43	194.26
406.62	184.90
406.81	140.43
407.00	163.84
407.20	124.05
407.39	91.28
407.58	126.39
407.77	145.11
407.96	180.22
408.15	121.71
408.34	102.98
408.54	131.07
408.73	102.98
408.92	145.11
409.11	133.41
409.30	142.77
409.49	124.05
409.68	184.90
409.87	128.73
410.07	105.32
410.26	161.50
410.45	77.24
410.64	93.62
410.83	128.73
411.02	110.01
411.21	222.35
411.40	124.05
411.59	131.07
411.78	121.71
411.98	212.99
412.17	88.94
412.36	86.60
412.55	124.05
412.74	177.88
412.93	203.63
413.12	114.69
413.31	203.63
413.50	163.84
413.69	145.11
413.88	131.07
414.07	79.58
414.26	128.73
414.45	156.82
414.64	114.69
414.83	77.24
415.02	177.88
415.22	205.97
415.41	201.29
415.60	140.43
415.79	138.09
415.98	126.39
416.17	154.48
416.36	140.43
416.55	65.54
416.74	201.29
416.93	163.84
417.12	180.22
417.31	95.96
417.50	175.54
417.69	238.73
417.88	98.30
418.07	126.39
418.26	175.54
418.45	135.75
418.64	88.94
418.83	135.75
419.02	259.80
419.21	145.11
419.39	163.84
419.58	107.66
419.77	140.43
419.96	147.45
420.15	170.86
420.34	112.35
420.53	133.41
420.72	198.95
420.91	133.41
421.10	154.48
421.29	159.16
421.48	149.79
421.67	210.65
421.86	205.97
422.05	117.03
422.24	142.77
422.43	156.82
422.61	152.13
422.80	180.22
422.99	107.66
423.18	135.75
423.37	250.44
423.56	140.43
423.75	154.48
423.94	117.03
424.13	131.07
424.32	149.79
424.50	175.54
424.69	187.24
424.88	142.77
425.07	149.79
425.26	154.48
425.45	170.86
425.64	152.13
425.83	149.79
426.01	119.37
426.20	212.99
426.39	105.32
426.58	163.84
426.77	107.66
426.96	152.13
427.15	98.30
427.33	271.50
427.52	201.29
427.71	152.13
427.90	184.90
428.09	135.75
428.28	110.01
428.46	107.66
428.65	177.88
428.84	159.16
429.03	182.56
429.22	93.62
429.40	128.73
429.59	112.35
429.78	159.16
429.97	138.09
430.16	114.69
430.34	121.71
430.53	135.75
430.72	210.65
430.91	149.79
431.10	152.13
431.28	184.90
431.47	191.92
431.66	198.95
431.85	117.03
432.03	119.37
432.22	180.22
432.41	147.45
432.60	131.07
432.79	170.86
432.97	161.50
433.16	161.50
433.35	210.65
433.54	84.26
433.72	154.48
433.91	198.95
434.10	135.75
434.28	210.65
434.47	220.01
434.66	227.03
434.85	177.88
435.03	320.65
435.22	664.71
435.41	1156.22
435.59	1174.95
435.78	901.11
435.97	456.40
436.16	337.04
436.34	191.92
436.53	138.09
436.72	191.92
436.90	224.69
437.09	208.31
437.28	142.77
437.46	147.45
437.65	142.77
437.84	222.35
438.02	238.73
438.21	131.07
438.40	154.48
438.58	170.86
438.77	170.86
438.96	168.52
439.14	177.88
439.33	184.90
439.52	126.39
439.70	212.99
439.89	95.96
440.08	187.24
440.26	210.65
440.45	264.48
440.63	259.80
440.82	142.77
441.01	180.22
441.19	147.45
441.38	262.14
441.57	163.84
441.75	189.58
441.94	234.05
442.12	205.97
442.31	203.63
442.50	114.69
442.68	152.13
442.87	217.67
443.05	217.67
443.24	189.58
443.43	196.60
443.61	227.03
443.80	102.98
443.98	180.22
444.17	180.22
444.35	184.90
444.54	168.52
444.73	205.97
444.91	255.12
445.10	163.84
445.28	133.41
445.47	227.03
445.65	86.60
445.84	112.35
446.02	182.56
446.21	180.22
446.39	168.52
446.58	222.35
446.77	152.13
446.95	135.75
447.14	156.82
447.32	180.22
447.51	198.95
447.69	194.26
447.88	259.80
448.06	245.76
448.25	203.63
448.43	149.79
448.62	229.37
448.80	212.99
448.99	105.32
449.17	133.41
449.36	138.09
449.54	220.01
449.73	119.37
449.91	217.67
450.10	217.67
450.28	280.86
450.46	149.79
450.65	217.67
450.83	210.65
451.02	154.48
451.20	215.33
451.39	154.48
451.57	182.56
451.76	159.16
451.94	194.26
452.13	145.11
452.31	194.26
452.49	173.20
452.68	140.43
452.86	234.05
453.05	287.89
453.23	231.71
453.42	201.29
453.60	159.16
453.78	117.03
453.97	140.43
454.15	114.69
454.34	243.42
454.52	184.90
454.70	203.63
454.89	159.16
455.07	128.73
455.26	203.63
455.44	234.05
455.62	198.95
455.81	182.56
455.99	198.95
456.17	203.63
456.36	163.84
456.54	250.44
456.73	161.50
456.91	145.11
457.09	135.75
457.28	257.46
457.46	187.24
457.64	217.67
457.83	217.67
458.01	138.09
458.19	177.88
458.38	117.03
458.56	201.29
458.74	107.66
458.93	168.52
459.11	163.84
459.29	135.75
459.48	210.65
459.66	278.52
459.84	212.99
460.03	313.63
460.21	205.97
460.39	128.73
460.57	161.50
460.76	124.05
460.94	292.57
461.12	173.20
461.31	187.24
461.49	168.52
461.67	98.30
461.85	140.43
462.04	142.77
462.22	571.09
462.40	215.33
462.59	217.67
462.77	273.84
462.95	220.01
463.13	196.60
463.32	222.35
463.50	224.69
463.68	227.03
463.86	184.90
464.05	184.90
464.23	229.37
464.41	299.59
464.59	149.79
464.78	194.26
464.96	81.92
465.14	191.92
465.32	140.43
465.50	191.92
465.69	145.11
465.87	149.79
466.05	112.35
466.23	187.24
466.41	217.67
466.60	191.92
466.78	231.71
466.96	196.60
467.14	245.76
467.32	229.37
467.51	189.58
467.69	215.33
467.87	191.92
468.05	222.35
468.23	243.42
468.41	156.82
468.60	133.41
468.78	264.48
468.96	245.76
469.14	231.71
469.32	105.32
469.50	177.88
469.69	220.01
469.87	259.80
470.05	241.08
470.23	227.03
470.41	98.30
470.59	177.88
470.77	175.54
470.95	145.11
471.14	220.01
471.32	271.50
471.50	182.56
471.68	168.52
471.86	255.12
472.04	117.03
472.22	234.05
472.40	128.73
472.58	182.56
472.77	161.50
472.95	180.22
473.13	266.82
473.31	205.97
473.49	217.67
473.67	166.18
473.85	238.73
474.03	198.95
474.21	238.73
474.39	224.69
474.57	231.71
474.75	152.13
474.93	161.50
475.12	114.69
475.30	175.54
475.48	182.56
475.66	220.01
475.84	217.67
476.02	205.97
476.20	168.52
476.38	201.29
476.56	290.23
476.74	177.88
476.92	145.11
477.10	154.48
477.28	255.12
477.46	234.05
477.64	220.01
477.82	250.44
478.00	154.48
478.18	236.39
478.36	231.71
478.54	175.54
478.72	227.03
478.90	266.82
479.08	208.31
479.26	231.71
479.44	180.22
479.62	114.69
479.80	135.75
479.98	262.14
480.16	196.60
480.34	245.76
480.52	201.29
480.70	273.84
480.88	208.31
481.06	187.24
481.24	215.33
481.41	250.44
481.59	269.16
481.77	278.52
481.95	168.52
482.13	327.68
482.31	292.57
482.49	227.03
482.67	208.31
482.85	285.55
483.03	252.78
483.21	320.65
483.39	250.44
483.57	156.82
483.74	301.93
483.92	278.52
484.10	327.68
484.28	273.84
484.46	362.78
484.64	311.29
484.82	287.89
485.00	283.20
485.18	325.33
485.35	315.97
485.53	365.12
485.71	337.04
485.89	266.82
486.07	320.65
486.25	369.80
486.43	411.93
486.61	365.12
486.78	276.18
486.96	400.23
487.14	344.06
487.32	311.29
487.50	379.17
487.68	397.89
487.85	299.59
488.03	383.85
488.21	400.23
488.39	327.68
488.57	311.29
488.75	308.95
488.92	582.79
489.10	304.27
489.28	465.77
489.46	297.25
489.64	339.38
489.81	353.42
489.99	318.31
490.17	393.21
490.35	320.65
490.53	330.02
490.70	299.59
490.88	346.40
491.06	315.97
491.24	330.02
491.41	341.72
491.59	365.12
491.77	287.89
491.95	322.99
492.13	330.02
492.30	330.02
492.48	341.72
492.66	383.85
492.84	360.44
493.01	259.80
493.19	306.61
493.37	344.06
493.54	358.10
493.72	344.06
493.90	308.95
494.08	271.50
494.25	287.89
494.43	308.95
494.61	266.82
494.79	257.46
494.96	320.65
495.14	327.68
495.32	325.33
495.49	365.12
495.67	259.80
495.85	334.70
496.02	334.70
496.20	344.06
496.38	273.84
496.55	236.39
496.73	346.40
496.91	325.33
497.09	348.74
497.26	257.46
497.44	339.38
497.62	325.33
497.79	313.63
497.97	322.99
498.14	320.65
498.32	346.40
498.50	273.84
498.67	234.05
498.85	292.57
499.03	243.42
499.20	327.68
499.38	327.68
499.56	262.14
499.73	320.65
499.91	283.20
500.08	318.31
500.26	311.29
500.44	290.23
500.61	278.52
500.79	332.36
500.97	278.52
501.14	341.72
501.32	339.38
501.49	390.87
501.67	337.04
501.84	201.29
502.02	222.35
502.20	330.02
502.37	320.65
502.55	311.29
502.72	252.78
502.90	290.23
503.07	339.38
503.25	280.86
503.43	266.82
503.60	215.33
503.78	248.10
503.95	299.59
504.13	283.20
504.30	313.63
504.48	294.91
504.65	332.36
504.83	353.42
505.01	301.93
505.18	259.80
505.36	278.52
505.53	224.69
505.71	325.33
505.88	367.46
506.06	266.82
506.23	203.63
506.41	203.63
506.58	234.05
506.76	301.93
506.93	245.76
507.11	299.59
507.28	278.52
507.46	299.59
507.63	259.80
507.81	208.31
507.98	337.04
508.16	339.38
508.33	308.95
508.50	318.31
508.68	250.44
508.85	301.93
509.03	287.89
509.20	315.97
509.38	280.86
509.55	292.57
509.73	306.61
509.90	311.29
510.08	283.20
510.25	252.78
510.42	306.61
510.60	248.10
510.77	257.46
510.95	280.86
511.12	308.95
511.30	360.44
511.47	280.86
511.64	360.44
511.82	191.92
511.99	315.97
512.17	290.23
512.34	276.18
512.51	243.42
512.69	290.23
512.86	365.12
513.04	351.08
513.21	227.03
513.38	170.86
513.56	297.25
513.73	248.10
513.90	313.63
514.08	341.72
514.25	334.70
514.43	351.08
514.60	278.52
514.77	248.10
514.95	231.71
515.12	231.71
515.29	250.44
515.47	287.89
515.64	353.42
515.81	266.82
515.99	322.99
516.16	306.61
516.33	304.27
516.51	234.05
516.68	227.03
516.85	276.18
517.03	299.59
517.20	292.57
517.37	287.89
517.54	395.55
517.72	306.61
517.89	252.78
518.06	271.50
518.24	264.48
518.41	383.85
518.58	245.76
518.75	320.65
518.93	231.71
519.10	327.68
519.27	238.73
519.45	285.55
519.62	311.29
519.79	283.20
519.96	266.82
520.14	210.65
520.31	367.46
520.48	262.14
520.65	234.05
520.83	292.57
521.00	351.08
521.17	269.16
521.34	259.80
521.52	290.23
521.69	400.23
521.86	257.46
522.03	287.89
522.20	355.76
522.38	266.82
522.55	351.08
522.72	236.39
522.89	262.14
523.07	369.80
523.24	304.27
523.41	294.91
523.58	276.18
523.75	262.14
523.92	287.89
524.10	243.42
524.27	257.46
524.44	299.59
524.61	297.25
524.78	283.20
524.96	238.73
525.13	191.92
525.30	304.27
525.47	379.17
525.64	327.68
525.81	311.29
525.98	287.89
526.16	252.78
526.33	266.82
526.50	290.23
526.67	234.05
526.84	294.91
527.01	360.44
527.18	245.76
527.36	308.95
527.53	257.46
527.70	287.89
527.87	330.02
528.04	313.63
528.21	250.44
528.38	339.38
528.55	327.68
528.72	351.08
528.89	367.46
529.07	372.15
529.24	313.63
529.41	276.18
529.58	297.25
529.75	278.52
529.92	304.27
530.09	280.86
530.26	315.97
530.43	304.27
530.60	358.10
530.77	322.99
530.94	351.08
531.11	348.74
531.28	283.20
531.46	322.99
531.63	332.36
531.80	299.59
531.97	243.42
532.14	362.78
532.31	334.70
532.48	322.99
532.65	320.65
532.82	320.65
532.99	409.59
533.16	353.42
533.33	367.46
533.50	365.12
533.67	285.55
533.84	383.85
534.01	390.87
534.18	395.55
534.35	311.29
534.52	327.68
534.69	381.51
534.86	325.33
535.03	402.57
535.20	362.78
535.37	337.04
535.54	322.99
535.71	404.91
535.88	348.74
536.05	318.31
536.22	362.78
536.38	304.27
536.55	402.57
536.72	430.66
536.89	400.23
537.06	433.00
537.23	386.19
537.40	444.70
537.57	447.04
537.74	517.26
537.91	486.83
538.08	526.62
538.25	500.87
538.42	442.36
538.59	514.92
538.75	519.60
538.92	552.37
539.09	517.26
539.26	435.34
539.43	601.52
539.60	603.86
539.77	599.18
539.94	685.78
540.11	709.18
540.28	819.19
540.44	809.83
540.61	814.51
540.78	905.79
540.95	1018.13
541.12	1156.22
541.29	1207.72
541.46	1336.45
541.62	1329.42
541.79	1357.51
541.96	1273.25
542.13	1289.64
542.30	1252.19
542.47	1329.42
542.63	1224.10
542.80	1221.76
542.97	1240.48
543.14	1078.99
543.31	1289.64
543.48	1174.95
543.64	1263.89
543.81	1177.29
543.98	1188.99
544.15	1153.88
544.32	1093.03
544.48	1165.59
544.65	1165.59
544.82	1104.73
544.99	1114.10
545.16	1226.44
545.32	1184.31
545.49	1739.02
545.66	2569.91
545.83	3192.49
546.00	2794.60
546.16	1893.49
546.33	1474.54
546.50	1184.31
546.67	1057.92
546.83	924.51
547.00	866.00
547.17	866.00
547.34	847.27
547.50	847.27
547.67	793.44
547.84	774.72
548.00	763.01
548.17	779.40
548.34	725.57
548.51	716.20
548.67	732.59
548.84	716.20
549.01	683.44
549.18	753.65
549.34	603.86
549.51	641.31
549.68	676.41
549.84	641.31
550.01	582.79
550.18	655.35
550.34	627.26
550.51	592.16
550.68	634.29
550.84	463.43
551.01	510.24
551.18	564.07
551.34	545.34
551.51	496.19
551.68	526.62
551.84	524.28
552.01	512.58
552.18	484.49
552.34	540.66
552.51	425.98
552.68	571.09
552.84	470.45
553.01	496.19
553.18	484.49
553.34	395.55
553.51	418.96
553.67	449.38
553.84	503.22
554.01	414.27
554.17	430.66
554.34	369.80
554.51	374.49
554.67	475.13
554.84	388.53
555.00	327.68
555.17	360.44
555.33	423.64
555.50	294.91
555.67	339.38
555.83	355.76
556.00	351.08
556.16	519.60
556.33	341.72
556.50	304.27
556.66	330.02
556.83	372.15
556.99	344.06
557.16	337.04
557.32	379.17
557.49	311.29
557.65	311.29
557.82	346.40
557.98	325.33
558.15	409.59
558.32	318.31
558.48	327.68
558.65	334.70
558.81	283.20
558.98	393.21
559.14	407.25
559.31	369.80
559.47	327.68
559.64	315.97
559.80	308.95
559.97	290.23
560.13	322.99
560.30	313.63
560.46	339.38
560.63	290.23
560.79	341.72
560.96	294.91
561.12	353.42
561.29	294.91
561.45	301.93
561.61	341.72
561.78	421.30
561.94	330.02
562.11	294.91
562.27	320.65
562.44	287.89
562.60	322.99
562.77	339.38
562.93	383.85
563.10	308.95
563.26	341.72
563.42	374.49
563.59	376.83
563.75	280.86
563.92	416.62
564.08	379.17
564.24	327.68
564.41	404.91
564.57	308.95
564.74	341.72
564.90	327.68
565.07	255.12
565.23	369.80
565.39	313.63
565.56	341.72
565.72	308.95
565.88	353.42
566.05	334.70
566.21	348.74
566.38	334.70
566.54	369.80
566.70	320.65
566.87	292.57
567.03	334.70
567.19	351.08
567.36	255.12
567.52	334.70
567.68	287.89
567.85	416.62
568.01	320.65
568.17	330.02
568.34	308.95
568.50	367.46
568.66	224.69
568.83	346.40
568.99	271.50
569.15	325.33
569.32	297.25
569.48	339.38
569.64	358.10
569.81	318.31
569.97	276.18
570.13	287.89
570.30	332.36
570.46	330.02
570.62	334.70
570.78	332.36
570.95	280.86
571.11	360.44
571.27	313.63
571.43	360.44
571.60	297.25
571.76	320.65
571.92	322.99
572.09	285.55
572.25	280.86
572.41	360.44
572.57	306.61
572.74	294.91
572.90	360.44
573.06	259.80
573.22	360.44
573.38	351.08
573.55	348.74
573.71	351.08
573.87	297.25
574.03	322.99
574.20	365.12
574.36	360.44
574.52	278.52
574.68	287.89
574.84	353.42
575.01	315.97
575.17	360.44
575.33	297.25
575.49	341.72
575.65	299.59
575.82	337.04
575.98	400.23
576.14	374.49
576.30	414.27
576.46	585.13
576.62	755.99
576.79	814.51
576.95	711.52
577.11	587.47
577.27	496.19
577.43	397.89
577.59	383.85
577.75	367.46
577.92	325.33
578.08	411.93
578.24	362.78
578.40	428.32
578.56	489.17
578.72	734.93
578.88	730.25
579.04	748.97
579.21	561.73
579.37	425.98
579.53	566.41
579.69	440.02
579.85	524.28
580.01	557.05
580.17	477.47
580.33	449.38
580.49	528.96
580.65	456.40
580.82	360.44
580.98	383.85
581.14	491.51
581.30	479.81
581.46	461.09
581.62	484.49
581.78	444.70
581.94	484.49
582.10	437.68
582.26	479.81
582.42	447.04
582.58	627.26
582.74	461.09
582.90	528.96
583.06	554.71
583.22	458.74
583.38	519.60
583.54	538.32
583.70	601.52
583.86	519.60
584.02	468.11
584.18	505.56
584.34	510.24
584.50	503.22
584.66	475.13
584.82	524.28
584.98	519.60
585.14	463.43
585.30	489.17
585.46	517.26
585.62	477.47
585.78	512.58
585.94	500.87
586.10	435.34
586.26	465.77
586.42	472.79
586.58	561.73
586.74	608.54
586.90	592.16
587.06	713.86
587.22	683.44
587.38	681.10
587.54	599.18
587.70	690.46
587.86	550.03
588.02	491.51
588.18	416.62
588.34	475.13
588.49	430.66
588.65	440.02
588.81	409.59
588.97	390.87
589.13	383.85
589.29	374.49
589.45	402.57
589.61	411.93
589.77	454.06
589.93	489.17
590.08	367.46
590.24	383.85
590.40	404.91
590.56	409.59
590.72	444.70
590.88	351.08
591.04	383.85
591.20	388.53
591.35	416.62
591.51	477.47
591.67	444.70
591.83	449.38
591.99	468.11
592.15	524.28
592.31	493.85
592.46	510.24
592.62	482.15
592.78	535.98
592.94	596.84
593.10	596.84
593.26	507.90
593.41	528.96
593.57	568.75
593.73	470.45
593.89	437.68
594.05	425.98
594.20	386.19
594.36	421.30
594.52	456.40
594.68	395.55
594.84	489.17
594.99	463.43
595.15	428.32
595.31	435.34
595.47	423.64
595.62	407.25
595.78	423.64
595.94	297.25
596.10	411.93
596.25	367.46
596.41	400.23
596.57	353.42
596.73	390.87
596.88	456.40
597.04	411.93
597.20	318.31
597.36	472.79
597.51	365.12
597.67	376.83
597.83	486.83
597.99	458.74
598.14	423.64
598.30	496.19
598.46	386.19
598.61	465.77
598.77	404.91
598.93	440.02
599.09	442.36
599.24	444.70
599.40	388.53
599.56	500.87
599.71	369.80
599.87	414.27
600.03	449.38
600.18	428.32
600.34	404.91
600.50	463.43
600.65	369.80
600.81	461.09
600.97	379.17
601.12	341.72
601.28	383.85
601.44	416.62
601.59	397.89
601.75	383.85
601.91	358.10
602.06	376.83
602.22	437.68
602.37	374.49
602.53	320.65
602.69	388.53
602.84	287.89
603.00	313.63
603.16	313.63
603.31	395.55
603.47	397.89
603.62	379.17
603.78	376.83
603.94	351.08
604.09	351.08
604.25	414.27
604.40	344.06
604.56	383.85
604.71	360.44
604.87	381.51
605.03	348.74
605.18	337.04
605.34	404.91
605.49	330.02
605.65	341.72
605.80	397.89
605.96	372.15
606.12	348.74
606.27	388.53
606.43	409.59
606.58	404.91
606.74	376.83
606.89	402.57
607.05	468.11
607.20	388.53
607.36	379.17
607.51	379.17
607.67	435.34
607.82	447.04
607.98	505.56
608.13	493.85
608.29	517.26
608.44	526.62
608.60	533.64
608.75	608.54
608.91	582.79
609.06	629.60
609.22	552.37
609.37	681.10
609.53	683.44
609.68	671.73
609.84	889.40
609.99	931.53
610.15	1060.26
610.30	1165.59
610.46	1472.20
610.61	1851.36
610.76	2195.42
610.92	2658.85
611.07	2832.05
611.23	3094.19
611.38	2888.22
611.54	2541.82
611.69	2286.70
611.84	1865.41
612.00	1547.09
612.15	1329.42
612.31	1275.59
612.46	1121.12
612.62	1067.28
612.77	1111.75
612.92	1048.56
613.08	978.34
613.23	1034.52
613.39	929.19
613.54	943.24
613.69	919.83
613.85	861.32
614.00	819.19
614.15	889.40
614.31	877.70
614.46	861.32
614.62	798.12
614.77	826.21
614.92	746.63
615.08	711.52
615.23	734.93
615.38	683.44
615.54	629.60
615.69	627.26
615.84	561.73
616.00	550.03
616.15	491.51
616.30	454.06
616.46	498.53
616.61	484.49
616.76	498.53
616.92	409.59
617.07	425.98
617.22	433.00
617.37	463.43
617.53	440.02
617.68	475.13
617.83	475.13
617.99	458.74
618.14	503.22
618.29	421.30
618.45	435.34
618.60	425.98
618.75	433.00
618.90	325.33
619.06	393.21
619.21	454.06
619.36	428.32
619.51	365.12
619.67	430.66
619.82	440.02
619.97	411.93
620.12	465.77
620.28	456.40
620.43	451.72
620.58	458.74
620.73	428.32
620.89	418.96
621.04	388.53
621.19	477.47
621.34	519.60
621.49	447.04
621.65	442.36
621.80	362.78
621.95	372.15
622.10	559.39
622.25	418.96
622.41	395.55
622.56	411.93
622.71	435.34
622.86	428.32
623.01	414.27
623.16	468.11
623.32	482.15
623.47	411.93
623.62	423.64
623.77	425.98
623.92	376.83
624.07	442.36
624.23	337.04
624.38	404.91
624.53	430.66
624.68	404.91
624.83	479.81
624.98	414.27
625.13	337.04
625.29	414.27
625.44	285.55
625.59	393.21
625.74	386.19
625.89	407.25
626.04	437.68
626.19	498.53
626.34	447.04
626.49	402.57
626.65	348.74
626.80	372.15
626.95	411.93
627.10	346.40
627.25	428.32
627.40	315.97
627.55	407.25
627.70	358.10
627.85	421.30
628.00	372.15
628.15	397.89
628.30	409.59
628.45	418.96
628.60	332.36
628.76	463.43
628.91	386.19
629.06	411.93
629.21	393.21
629.36	482.15
629.51	365.12
629.66	411.93
629.81	400.23
629.96	512.58
630.11	510.24
630.26	458.74
630.41	496.19
630.56	535.98
630.71	519.60
630.86	524.28
631.01	461.09
631.16	538.32
631.31	500.87
631.46	498.53
631.61	365.12
631.76	437.68
631.91	407.25
632.06	327.68
632.21	376.83
632.36	479.81
632.51	311.29
632.66	276.18
632.81	348.74
632.96	337.04
633.10	238.73
633.25	346.40
633.40	269.16
633.55	276.18
633.70	332.36
633.85	346.40
634.00	297.25
634.15	280.86
634.30	280.86
634.45	327.68
634.60	320.65
634.75	208.31
634.90	315.97
635.05	271.50
635.19	234.05
635.34	313.63
635.49	166.18
635.64	297.25
635.79	308.95
635.94	327.68
636.09	355.76
636.24	320.65
636.39	262.14
636.53	271.50
636.68	304.27
636.83	278.52
636.98	290.23
637.13	276.18
637.28	278.52
637.43	273.84
637.57	287.89
637.72	313.63
637.87	308.95
638.02	252.78
638.17	308.95
638.32	292.57
638.46	208.31
638.61	332.36
638.76	266.82
638.91	313.63
639.06	243.42
639.20	351.08
639.35	304.27
639.50	269.16
639.65	447.04
639.80	245.76
639.94	287.89
640.09	348.74
640.24	287.89
640.39	264.48
640.54	283.20
640.68	212.99
640.83	337.04
640.98	315.97
641.13	250.44
641.27	276.18
641.42	294.91
641.57	351.08
641.72	269.16
641.86	390.87
642.01	332.36
642.16	273.84
642.31	259.80
642.45	355.76
642.60	276.18
642.75	285.55
642.90	292.57
643.04	241.08
643.19	241.08
643.34	208.31
643.48	320.65
643.63	180.22
643.78	297.25
643.93	367.46
644.07	271.50
644.22	208.31
644.37	215.33
644.51	217.67
644.66	215.33
644.81	327.68
644.95	264.48
645.10	351.08
645.25	276.18
645.39	311.29
645.54	198.95
645.69	318.31
645.83	229.37
645.98	301.93
646.13	287.89
646.27	250.44
646.42	259.80
646.57	287.89
646.71	264.48
646.86	285.55
647.00	334.70
647.15	259.80
647.30	337.04
647.44	332.36
647.59	238.73
647.74	196.60
647.88	257.46
648.03	269.16
648.17	238.73
648.32	243.42
648.47	318.31
648.61	245.76
648.76	168.52
648.90	205.97
649.05	294.91
649.20	271.50
649.34	294.91
649.49	292.57
649.63	287.89
649.78	346.40
649.92	337.04
650.07	299.59
650.21	297.25
650.36	327.68
650.51	276.18
650.65	285.55
650.80	292.57
650.94	285.55
651.09	315.97
651.23	271.50
651.38	287.89
651.52	306.61
651.67	297.25
651.81	266.82
651.96	266.82
652.10	297.25
652.25	287.89
652.39	252.78
652.54	306.61
652.68	308.95
652.83	194.26
652.97	250.44
653.12	304.27
653.26	290.23
653.41	259.80
653.55	304.27
653.70	297.25
653.84	241.08
653.99	273.84
654.13	313.63
654.27	297.25
654.42	236.39
654.56	320.65
654.71	285.55
654.85	290.23
655.00	264.48
655.14	269.16
655.29	203.63
655.43	313.63
655.57	283.20
655.72	236.39
655.86	198.95
656.01	234.05
656.15	203.63
656.30	283.20
656.44	208.31
656.58	187.24
656.73	231.71
656.87	292.57
657.01	236.39
657.16	262.14
657.30	269.16
657.45	287.89
657.59	201.29
657.73	203.63
657.88	273.84
658.02	299.59
658.16	278.52
658.31	227.03
658.45	294.91
658.60	313.63
658.74	315.97
658.88	243.42
659.03	283.20
659.17	259.80
659.31	250.44
659.46	252.78
659.60	315.97
659.74	348.74
659.89	245.76
660.03	201.29
660.17	257.46
660.32	238.73
660.46	255.12
660.60	271.50
660.74	292.57
660.89	210.65
661.03	220.01
661.17	250.44
661.32	234.05
661.46	304.27
661.60	292.57
661.74	276.18
661.89	287.89
662.03	304.27
662.17	266.82
662.31	234.05
662.46	252.78
662.60	299.59
662.74	252.78
662.88	292.57
663.03	353.42
663.17	259.80
663.31	222.35
663.45	294.91
663.60	217.67
663.74	262.14
663.88	248.10
664.02	229.37
664.17	245.76
664.31	236.39
664.45	273.84
664.59	252.78
664.73	194.26
664.88	278.52
665.02	241.08
665.16	252.78
665.30	297.25
665.44	257.46
665.59	212.99
665.73	245.76
665.87	273.84
666.01	194.26
666.15	234.05
666.29	266.82
666.44	304.27
666.58	259.80
666.72	308.95
666.86	278.52
667.00	234.05
667.14	224.69
667.28	205.97
667.43	196.60
667.57	205.97
667.71	269.16
667.85	276.18
667.99	271.50
668.13	264.48
668.27	313.63
668.41	180.22
668.56	315.97
668.70	241.08
668.84	287.89
668.98	243.42
669.12	224.69
669.26	262.14
669.40	292.57
669.54	287.89
669.68	339.38
669.82	241.08
669.96	255.12
670.10	220.01
670.25	205.97
670.39	191.92
670.53	163.84
670.67	248.10
670.81	224.69
670.95	290.23
671.09	238.73
671.23	313.63
671.37	315.97
671.51	241.08
671.65	196.60
671.79	248.10
671.93	196.60
672.07	294.91
672.21	292.57
672.35	166.18
672.49	224.69
672.63	259.80
672.77	257.46
672.91	208.31
673.05	177.88
673.19	252.78
673.33	184.90
673.47	315.97
673.61	191.92
673.75	182.56
673.89	245.76
674.03	208.31
674.17	245.76
674.31	231.71
674.45	203.63
674.59	184.90
674.73	224.69
674.87	166.18
675.01	224.69
675.15	201.29
675.29	252.78
675.43	285.55
675.56	322.99
675.70	168.52
675.84	149.79
675.98	287.89
676.12	212.99
676.26	210.65
676.40	280.86
676.54	285.55
676.68	154.48
676.82	299.59
676.96	142.77
677.10	191.92
677.23	182.56
677.37	180.22
677.51	220.01
677.65	337.04
677.79	241.08
677.93	159.16
678.07	159.16
678.21	163.84
678.34	201.29
678.48	105.32
678.62	245.76
678.76	245.76
678.90	217.67
679.04	184.90
679.18	201.29
679.31	128.73
679.45	163.84
679.59	227.03
679.73	203.63
679.87	180.22
680.00	255.12
680.14	177.88
680.28	262.14
680.42	217.67
680.56	210.65
680.70	170.86
680.83	238.73
680.97	217.67
681.11	154.48
681.25	248.10
681.39	257.46
681.52	234.05
681.66	182.56
681.80	259.80
681.94	227.03
682.07	208.31
682.21	184.90
682.35	168.52
682.49	255.12
682.62	259.80
682.76	175.54
682.90	173.20
683.04	259.80
683.17	145.11
683.31	170.86
683.45	154.48
683.59	210.65
683.72	266.82
683.86	227.03
684.00	208.31
684.13	255.12
684.27	231.71
684.41	140.43
684.55	208.31
684.68	203.63
684.82	163.84
684.96	224.69
685.09	194.26
685.23	222.35
685.37	173.20
685.50	196.60
685.64	250.44
685.78	257.46
685.91	290.23
686.05	294.91
686.19	166.18
686.32	145.11
686.46	241.08
686.60	191.92
686.73	245.76
686.87	210.65
687.01	196.60
687.14	222.35
687.28	159.16
687.42	212.99
687.55	210.65
687.69	308.95
687.82	264.48
687.96	297.25
688.10	170.86
688.23	227.03
688.37	198.95
688.50	203.63
688.64	177.88
688.78	112.35
688.91	161.50
689.05	140.43
689.18	194.26
689.32	126.39
689.46	194.26
689.59	121.71
689.73	201.29
689.86	147.45
690.00	189.58
690.13	210.65
690.27	182.56
690.41	170.86
690.54	205.97
690.68	201.29
690.81	168.52
690.95	145.11
691.08	217.67
691.22	184.90
691.35	131.07
691.49	159.16
691.62	194.26
691.76	217.67
691.89	184.90
692.03	180.22
692.16	245.76
692.30	201.29
692.43	154.48
692.57	210.65
692.70	156.82
692.84	224.69
692.97	163.84
693.11	145.11
693.24	175.54
693.38	191.92
693.51	215.33
693.65	205.97
693.78	166.18
693.92	166.18
694.05	227.03
694.19	149.79
694.32	217.67
694.45	117.03
694.59	121.71
694.72	245.76
694.86	149.79
694.99	205.97
695.13	149.79
695.26	182.56
695.39	208.31
695.53	191.92
695.66	138.09
695.80	170.86
695.93	173.20
696.07	196.60
696.20	154.48
696.33	205.97
696.47	196.60
696.60	269.16
696.73	156.82
696.87	187.24
697.00	217.67
697.14	170.86
697.27	177.88
697.40	147.45
697.54	203.63
697.67	124.05
697.80	173.20
697.94	168.52
698.07	175.54
698.21	201.29
698.34	177.88
698.47	203.63
698.61	128.73
698.74	166.18
698.87	166.18
699.01	152.13
699.14	201.29
699.27	182.56
699.40	301.93
699.54	163.84
699.67	184.90
699.80	208.31
699.94	95.96
700.07	191.92
700.20	156.82
700.34	107.66
700.47	154.48
700.60	131.07
700.73	107.66
700.87	182.56
701.00	121.71
701.13	138.09
701.26	173.20
701.40	131.07
701.53	166.18
701.66	119.37
701.79	107.66
701.93	191.92
702.06	147.45
702.19	175.54
702.32	121.71
702.46	203.63
702.59	149.79
702.72	147.45
702.85	152.13
702.99	208.31
703.12	201.29
703.25	229.37
703.38	79.58
703.51	248.10
703.65	138.09
703.78	198.95
703.91	163.84
704.04	215.33
704.17	205.97
704.31	140.43
704.44	102.98
704.57	91.28
704.70	161.50
704.83	140.43
704.96	177.88
705.10	198.95
705.23	173.20
>>>>>End Processed Spectral Data<<<<<
