SpectraSuite Data File
++++++++++++++++++++++++++++++++++++
Date: Fri Oct 04 11:39:20 GMT-05:00 2013
User: price-jones
Dark Spectrum Present: No
Reference Spectrum Present: No
Number of Sampled Component Spectra: 1
Spectrometers: USB2+H05261
Integration Time (usec): 100000 (USB2+H05261)
Spectra Averaged: 1 (USB2+H05261)
Boxcar Smoothing: 0 (USB2+H05261)
Correct for Electrical Dark: No (USB2+H05261)
Strobe/Lamp Enabled: No (USB2+H05261)
Correct for Detector Non-linearity: No (USB2+H05261)
Correct for Stray Light: No (USB2+H05261)
Number of Pixels in Processed Spectrum: 2048
>>>>>Begin Processed Spectral Data<<<<<
365.73	79.58
365.92	79.58
366.12	79.58
366.32	7.02
366.52	0.00
366.72	0.00
366.91	0.00
367.11	0.00
367.31	0.00
367.51	14.04
367.70	0.00
367.90	0.00
368.10	23.41
368.30	0.00
368.49	0.00
368.69	0.00
368.89	0.00
369.09	0.00
369.28	0.00
369.48	0.00
369.68	30.43
369.87	9.36
370.07	0.00
370.27	93.62
370.47	95.96
370.66	210.65
370.86	273.84
371.06	287.89
371.25	337.04
371.45	250.44
371.65	301.93
371.84	269.16
372.04	287.89
372.24	325.33
372.44	243.42
372.63	351.08
372.83	365.12
373.03	358.10
373.22	325.33
373.42	337.04
373.62	304.27
373.81	353.42
374.01	374.49
374.21	442.36
374.40	346.40
374.60	425.98
374.79	292.57
374.99	369.80
375.19	362.78
375.38	454.06
375.58	358.10
375.78	505.56
375.97	418.96
376.17	430.66
376.37	444.70
376.56	395.55
376.76	454.06
376.95	468.11
377.15	505.56
377.35	381.51
377.54	540.66
377.74	388.53
377.93	388.53
378.13	358.10
378.33	456.40
378.52	491.51
378.72	496.19
378.91	463.43
379.11	519.60
379.31	496.19
379.50	442.36
379.70	510.24
379.89	458.74
380.09	447.04
380.28	428.32
380.48	435.34
380.68	463.43
380.87	491.51
381.07	514.92
381.26	472.79
381.46	512.58
381.65	531.30
381.85	428.32
382.04	557.05
382.24	486.83
382.43	524.28
382.63	528.96
382.83	521.94
383.02	587.47
383.22	564.07
383.41	554.71
383.61	568.75
383.80	500.87
384.00	559.39
384.19	580.45
384.39	531.30
384.58	554.71
384.78	559.39
384.97	559.39
385.17	524.28
385.36	550.03
385.56	660.03
385.75	589.82
385.95	521.94
386.14	524.28
386.34	596.84
386.53	645.99
386.72	620.24
386.92	699.82
387.11	634.29
387.31	662.37
387.50	601.52
387.70	624.92
387.89	603.86
388.09	580.45
388.28	622.58
388.48	746.63
388.67	685.78
388.86	718.54
389.06	660.03
389.25	617.90
389.45	711.52
389.64	706.84
389.84	760.67
390.03	704.50
390.22	674.07
390.42	688.12
390.61	699.82
390.81	683.44
391.00	676.41
391.19	662.37
391.39	706.84
391.58	805.14
391.78	788.76
391.97	765.36
392.16	748.97
392.36	779.40
392.55	774.72
392.75	767.70
392.94	873.02
393.13	755.99
393.33	791.10
393.52	760.67
393.71	798.12
393.91	744.29
394.10	814.51
394.29	851.96
394.49	772.38
394.68	858.98
394.88	798.12
395.07	844.93
395.26	926.85
395.46	788.76
395.65	877.70
395.84	861.32
396.04	1011.11
396.23	894.08
396.42	809.83
396.62	936.21
396.81	990.05
397.00	896.43
397.19	940.90
397.39	873.02
397.58	1006.43
397.77	978.34
397.97	971.32
398.16	924.51
398.35	1097.71
398.55	1076.65
398.74	1025.15
398.93	1048.56
399.12	1102.39
399.32	1074.31
399.51	1102.39
399.70	1062.60
399.90	1074.31
400.09	1027.50
400.28	1123.46
400.47	1093.03
400.67	1109.41
400.86	1050.90
401.05	1067.28
401.24	1184.31
401.44	1151.54
401.63	1074.31
401.82	1144.52
402.01	1158.57
402.21	1172.61
402.40	1177.29
402.59	1135.16
402.78	1235.80
402.97	1299.00
403.17	1289.64
403.36	1277.93
403.55	1275.59
403.74	1284.95
403.93	1373.89
404.13	1376.24
404.32	1404.32
404.51	1427.73
404.70	1338.79
404.89	1310.70
405.09	1390.28
405.28	1523.69
405.47	1301.34
405.66	1448.79
405.85	1404.32
406.05	1404.32
406.24	1441.77
406.43	1497.94
406.62	1366.87
406.81	1586.88
407.00	1500.28
407.20	1439.43
407.39	1535.39
407.58	1530.71
407.77	1659.44
407.96	1619.65
408.15	1624.33
408.34	1605.61
408.54	1619.65
408.73	1717.95
408.92	1617.31
409.11	1722.63
409.30	1703.91
409.49	1732.00
409.68	1715.61
409.87	1769.44
410.07	1750.72
410.26	1825.62
410.45	1823.28
410.64	1792.85
410.83	1764.76
411.02	1837.32
411.21	1872.43
411.40	1898.17
411.59	1940.30
411.78	1963.71
411.98	2005.84
412.17	1975.41
412.36	1923.92
412.55	1989.46
412.74	2101.80
412.93	2183.72
413.12	2040.95
413.31	2225.85
413.50	2090.10
413.69	2099.46
413.88	2207.13
414.07	2267.98
414.26	2207.13
414.45	2225.85
414.64	2260.96
414.83	2392.03
415.02	2326.49
415.22	2424.80
415.41	2492.67
415.60	2429.48
415.79	2551.18
415.98	2457.56
416.17	2492.67
416.36	2471.61
416.55	2527.78
416.74	2497.35
416.93	2427.14
417.12	2560.55
417.31	2640.12
417.50	2698.64
417.69	2689.28
417.88	2663.53
418.07	2586.29
418.26	2719.70
418.45	2785.24
418.64	2862.48
418.83	2832.05
419.02	2820.35
419.21	2876.52
419.39	2841.41
419.58	2904.60
419.77	2853.11
419.96	2822.69
420.15	2967.80
420.34	2890.56
420.53	3042.70
420.72	3087.17
420.91	3052.06
421.10	3110.57
421.29	3145.68
421.48	3009.93
421.67	3061.42
421.86	3098.87
422.05	3066.10
422.24	3068.44
422.43	3166.74
422.61	3131.64
422.80	3187.81
422.99	3119.93
423.18	3157.38
423.37	3267.39
423.56	3133.98
423.75	3239.30
423.94	3148.02
424.13	3007.59
424.32	3047.38
424.50	3133.98
424.69	3311.86
424.88	3248.66
425.07	3105.89
425.26	3049.72
425.45	3262.71
425.64	3276.75
425.83	3323.56
426.01	3129.30
426.20	3201.85
426.39	3311.86
426.58	3162.06
426.77	3337.60
426.96	3293.13
427.15	3183.13
427.33	3328.24
427.52	3372.71
427.71	3407.82
427.90	3410.16
428.09	3419.52
428.28	3407.82
428.46	3602.08
428.65	3463.99
428.84	3616.13
429.03	3602.08
429.22	3489.74
429.40	3522.51
429.59	3559.95
429.78	3368.03
429.97	3445.27
430.16	3592.72
430.34	3590.38
430.53	3744.86
430.72	3609.11
430.91	3632.51
431.10	3740.18
431.28	3719.11
431.47	3733.15
431.66	3737.84
431.85	3709.75
432.03	3939.12
432.22	3911.04
432.41	3882.95
432.60	3904.01
432.79	3866.56
432.97	3854.86
433.16	3896.99
433.35	3920.40
433.54	4004.66
433.72	3992.95
433.91	4023.38
434.10	3999.98
434.28	3920.40
434.47	4145.09
434.66	4042.11
434.85	4222.33
435.03	4212.96
435.22	4322.97
435.41	4582.77
435.59	4557.02
435.78	4369.78
435.97	4245.73
436.16	4322.97
436.34	4217.65
436.53	4292.54
436.72	4234.03
436.90	4259.78
437.09	4315.95
437.28	4212.96
437.46	4287.86
437.65	4416.59
437.84	4257.43
438.02	4449.36
438.21	4430.63
438.40	4355.74
438.58	4482.13
438.77	4524.26
438.96	4500.85
439.14	4688.09
439.33	4580.43
439.52	4667.03
439.70	4758.31
439.89	4840.23
440.08	4915.12
440.26	4882.36
440.45	4840.23
440.63	4905.76
440.82	4947.89
441.01	4898.74
441.19	4870.65
441.38	5060.24
441.57	5224.08
441.75	5067.26
441.94	5013.43
442.12	5116.41
442.31	5231.10
442.50	5174.92
442.68	5221.74
442.87	5261.52
443.05	5193.65
443.24	5343.44
443.43	5453.45
443.61	5427.70
443.80	5561.11
443.98	5458.13
444.17	5261.52
444.35	5493.24
444.54	5514.30
444.73	5535.37
444.91	5514.30
445.10	5352.81
445.28	5511.96
445.47	5399.62
445.65	5483.88
445.84	5507.28
446.02	5570.48
446.21	5458.13
446.39	5654.73
446.58	5678.14
446.77	5628.99
446.95	5476.85
447.14	5617.29
447.32	5790.49
447.51	5694.52
447.69	5533.03
447.88	5575.16
448.06	5596.22
448.25	5516.64
448.43	5526.00
448.62	5509.62
448.80	5586.86
448.99	5703.89
449.17	5650.05
449.36	5631.33
449.54	5849.00
449.73	5823.25
449.91	5841.98
450.10	5827.93
450.28	6127.52
450.46	5870.06
450.65	5884.11
450.83	5853.68
451.02	5912.19
451.20	5975.39
451.39	6108.80
451.57	6022.20
451.76	6012.84
451.94	6019.86
452.13	6057.31
452.31	6017.52
452.49	5973.05
452.68	6188.38
452.86	6099.44
453.05	6218.80
453.23	6129.86
453.42	6054.97
453.60	6071.35
453.78	6188.38
453.97	6312.42
454.15	6176.67
454.34	6197.74
454.52	6296.04
454.70	6310.08
454.89	6504.35
455.07	6448.18
455.26	6513.71
455.44	6483.28
455.62	6373.28
455.81	6633.08
455.99	6518.39
456.17	6621.38
456.36	6436.47
456.54	6658.82
456.73	6740.74
456.91	6906.92
457.09	6883.52
457.28	7009.90
457.46	6839.05
457.64	6850.75
457.83	6918.62
458.01	6782.87
458.19	6951.39
458.38	6984.16
458.56	7164.38
458.74	6909.26
458.93	7012.24
459.11	6909.26
459.29	6935.01
459.48	7119.91
459.66	7148.00
459.84	7157.36
460.03	7368.01
460.21	7229.91
460.39	7187.79
460.57	7173.74
460.76	7314.17
460.94	7297.79
461.12	7272.04
461.31	7222.89
461.49	7344.60
461.67	7468.65
461.85	7431.20
462.04	7602.06
462.22	7859.52
462.40	7571.63
462.59	7466.31
462.77	7447.58
462.95	7747.17
463.13	7545.89
463.32	7756.54
463.50	7548.23
463.68	7669.94
463.86	7723.77
464.05	7768.24
464.23	7644.19
464.41	7885.26
464.59	7702.70
464.78	7761.22
464.96	7803.35
465.14	7695.68
465.32	7882.92
465.50	7976.55
465.69	7911.01
465.87	7969.52
466.05	7957.82
466.23	7880.58
466.41	8070.17
466.60	8367.42
466.78	7971.86
466.96	8065.49
467.14	7857.18
467.32	8145.06
467.51	8109.96
467.69	7861.86
467.87	8299.54
468.05	8079.53
468.23	8161.45
468.41	8266.77
468.60	8166.13
468.78	8329.97
468.96	8124.00
469.14	8215.28
469.32	8355.71
469.50	8248.05
469.69	8659.98
469.87	8587.43
470.05	8730.20
470.23	8669.34
470.41	8287.84
470.59	8631.90
470.77	8734.88
470.95	8676.37
471.14	8751.26
471.32	8566.36
471.50	8879.99
471.68	8863.61
471.86	8861.27
472.04	8915.10
472.22	9069.58
472.40	8954.89
472.58	9109.36
472.77	9050.85
472.95	9156.18
473.13	9371.50
473.31	9245.12
473.49	9142.13
473.67	9315.33
473.85	9423.00
474.03	9542.36
474.21	9568.11
474.39	9537.68
474.57	9738.97
474.75	9865.36
474.93	9853.66
475.12	9612.58
475.30	9717.90
475.48	9621.94
475.66	9970.68
475.84	9834.93
476.02	9832.59
476.20	9921.53
476.38	10033.88
476.56	10359.21
476.74	10307.72
476.92	10380.28
477.10	10326.44
477.28	10684.55
477.46	10611.99
477.64	10317.08
477.82	10607.31
478.00	11117.54
478.18	10960.73
478.36	11119.89
478.54	11265.00
478.72	11112.86
478.90	11288.40
479.08	11604.38
479.26	11662.89
479.44	11658.21
479.62	11421.81
479.80	11723.74
479.98	11948.43
480.16	11679.27
480.34	12023.33
480.52	12091.21
480.70	12273.77
480.88	12170.79
481.06	12231.64
481.24	12011.63
481.41	12493.78
481.59	12407.18
481.77	12571.02
481.95	12793.37
482.13	12678.68
482.31	12870.61
482.49	12919.76
482.67	13149.13
482.85	13385.52
483.03	13350.42
483.21	13558.72
483.39	13554.04
483.57	13518.93
483.74	13795.12
483.92	13788.10
484.10	13930.87
484.28	14281.95
484.46	14111.09
484.64	14647.07
484.82	14263.22
485.00	14408.34
485.18	14724.31
485.35	14579.20
485.53	14883.47
485.71	15157.31
485.89	15414.77
486.07	15084.75
486.25	15232.21
486.43	15236.89
486.61	15351.57
486.78	15496.69
486.96	15861.81
487.14	16079.48
487.32	15817.34
487.50	16191.83
487.68	16173.10
487.85	16175.44
488.03	16837.81
488.21	16870.58
488.39	16837.81
488.57	16987.61
488.75	17319.96
488.92	17401.88
489.10	17284.86
489.28	17532.95
489.46	17642.96
489.64	17659.34
489.81	18185.96
489.99	18061.91
490.17	18270.22
490.35	18347.46
490.53	18239.79
490.70	18253.84
490.88	18672.79
491.06	18504.28
491.24	18448.10
491.41	18705.56
491.59	18984.09
491.77	19257.93
491.95	19166.65
492.13	19751.78
492.30	19569.22
492.48	19484.96
492.66	19536.45
492.84	19854.76
493.01	19990.52
493.19	20329.89
493.37	20250.32
493.54	20400.11
493.72	20311.17
493.90	20540.54
494.08	20622.46
494.25	20636.50
494.43	21097.59
494.61	21097.59
494.79	21048.44
494.96	21406.54
495.14	21270.79
495.32	21362.07
495.49	21493.14
495.67	21715.49
495.85	21994.01
496.02	22052.53
496.20	21942.52
496.38	22324.03
496.55	22279.56
496.73	22555.74
496.91	22417.65
497.09	22607.23
497.26	23271.95
497.44	22590.85
497.62	23058.96
497.79	23215.77
497.97	23047.26
498.14	23583.24
498.32	23185.35
498.50	23529.41
498.67	23892.19
498.85	23520.04
499.03	23487.28
499.20	23599.62
499.38	23948.36
499.56	23896.87
499.73	24563.92
499.91	24121.56
500.08	24484.34
500.26	24299.44
500.44	24444.56
500.61	24467.96
500.79	24552.22
500.97	24926.71
501.14	24793.29
501.32	24912.66
501.49	24694.99
501.67	25127.99
501.84	25385.45
502.02	25493.12
502.20	25802.07
502.37	25617.16
502.55	25930.80
502.72	25598.44
502.90	25830.15
503.07	25668.66
503.25	26059.52
503.43	25879.30
503.60	26345.07
503.78	26279.54
503.95	26391.88
504.13	26384.86
504.30	26382.52
504.48	26649.34
504.65	26682.11
504.83	26806.16
505.01	27103.40
505.18	27117.45
505.36	27035.53
505.53	26808.50
505.71	27300.01
505.88	27225.11
506.06	27271.92
506.23	27789.18
506.41	27541.08
506.58	27470.87
506.76	27173.62
506.93	27557.47
507.11	27562.15
507.28	27969.40
507.46	27700.24
507.63	27843.01
507.81	28428.15
507.98	27988.13
508.16	28198.77
508.33	28173.03
508.50	28683.27
508.68	28610.71
508.85	28884.55
509.03	28570.92
509.20	28568.58
509.38	28987.53
509.55	29448.62
509.73	29032.00
509.90	29050.73
510.08	29036.69
510.25	29071.79
510.42	29415.85
510.60	29596.07
510.77	29619.48
510.95	29972.90
511.12	29436.92
511.30	29469.69
511.47	30068.86
511.64	29926.09
511.82	30169.51
511.99	30141.42
512.17	30347.39
512.34	30366.11
512.51	30424.62
512.69	30642.29
512.86	30501.86
513.04	30588.46
513.21	30405.90
513.38	30953.58
513.56	31077.63
513.73	30897.41
513.90	30955.93
514.08	30792.09
514.25	31604.25
514.43	31442.76
514.60	31349.14
514.77	31594.89
514.95	31873.42
515.12	31578.51
515.29	31372.54
515.47	31723.62
515.64	31445.10
515.81	31857.03
515.99	32322.80
516.16	32458.55
516.33	31948.31
516.51	32470.25
516.68	31751.71
516.85	32367.27
517.03	32596.64
517.20	32374.29
517.37	32561.53
517.54	32545.15
517.72	32474.93
517.89	32680.90
518.06	32470.25
518.24	32676.22
518.41	32898.57
518.58	32779.20
518.75	32905.59
518.93	33464.98
519.10	32767.50
519.27	33261.35
519.45	33113.90
519.62	32980.49
519.79	33270.72
519.96	33640.52
520.14	34113.31
520.31	33326.89
520.48	33453.28
520.65	33582.01
520.83	33593.71
521.00	34293.53
521.17	33530.51
521.34	34291.19
521.52	34368.43
521.69	33977.56
521.86	34513.54
522.03	34220.97
522.20	34518.22
522.38	34824.83
522.55	34574.39
522.72	34644.61
522.89	34614.18
523.07	35168.89
523.24	35049.52
523.41	35054.20
523.58	35110.38
523.75	35349.11
523.92	35618.27
524.10	35070.59
524.27	35562.10
524.44	35550.40
524.61	35838.28
524.78	35400.60
524.96	35679.13
525.13	35758.70
525.30	35835.94
525.47	35758.70
525.64	35922.54
525.81	36282.98
525.98	36013.82
526.16	36187.02
526.33	36388.31
526.50	36889.18
526.67	35959.99
526.84	36062.97
527.01	36175.32
527.18	36697.26
527.36	36620.02
527.53	36631.72
527.70	37689.65
527.87	36739.39
528.04	36833.01
528.21	37242.60
528.38	36870.46
528.55	37380.70
528.72	36870.46
528.89	36933.65
529.07	37111.53
529.24	36905.57
529.41	37439.21
529.58	37247.29
529.75	37067.06
529.92	37361.97
530.09	37659.22
530.26	37493.04
530.43	37654.54
530.60	37530.49
530.77	37509.43
530.94	37794.97
531.11	37888.59
531.28	37869.87
531.46	37853.48
531.63	37919.02
531.80	38174.14
531.97	38031.36
532.14	38171.80
532.31	38162.43
532.48	38361.38
532.65	38440.96
532.82	37975.19
532.99	38106.26
533.16	38305.21
533.33	38749.91
533.50	39049.50
533.67	38813.10
533.84	38527.56
534.01	38314.57
534.18	38356.70
534.35	39220.36
534.52	38169.46
534.69	39136.10
534.86	38866.94
535.03	38920.77
535.20	39269.51
535.37	39126.74
535.54	39292.91
535.71	39068.22
535.88	38913.75
536.05	39288.23
536.22	39517.60
536.38	39679.10
536.55	39707.19
536.72	39882.73
536.89	39541.01
537.06	39632.29
537.23	39585.48
537.40	39555.05
537.57	39648.68
537.74	40100.40
537.91	40217.43
538.08	40179.98
538.25	39569.10
538.42	40261.90
538.59	40247.85
538.75	40257.21
538.92	40048.91
539.09	40048.91
539.26	40086.36
539.43	40364.88
539.60	40123.80
539.77	40744.05
539.94	40610.64
540.11	40470.20
540.28	40884.48
540.44	40924.27
540.61	40378.92
540.78	40481.91
540.95	40912.56
541.12	41237.90
541.29	40858.73
541.46	41223.86
541.62	41062.36
541.79	41132.57
541.96	41001.50
542.13	40790.86
542.30	41579.62
542.47	41607.70
542.63	41914.31
542.80	41820.69
542.97	41581.96
543.14	42354.33
543.31	42068.79
543.48	41556.21
543.64	42188.16
543.81	42171.77
543.98	41951.76
544.15	42234.97
544.32	42078.15
544.48	42740.52
544.65	42281.78
544.82	42026.66
544.99	41977.51
545.16	41790.27
545.32	42188.16
545.49	42902.02
545.66	43517.58
545.83	43459.07
546.00	43323.32
546.16	42934.79
546.33	42469.02
546.50	42171.77
546.67	42689.03
546.83	42122.62
547.00	42464.34
547.17	42684.35
547.34	42838.83
547.50	42705.41
547.67	42944.15
547.84	42831.80
548.00	42689.03
548.17	42955.85
548.34	42857.55
548.51	43185.22
548.67	43222.67
548.84	43489.49
549.01	43117.35
549.18	42698.39
549.34	43138.41
549.51	42923.08
549.68	43328.00
549.84	43098.62
550.01	43304.59
550.18	43274.16
550.34	43157.14
550.51	43545.67
550.68	43676.74
550.84	42976.92
551.01	44079.31
551.18	43365.45
551.34	43419.28
551.51	43459.07
551.68	43880.36
551.84	43669.72
552.01	43643.97
552.18	43601.84
552.34	43686.10
552.51	43515.24
552.68	43845.26
552.84	43927.17
553.01	44423.37
553.18	43913.13
553.34	44072.29
553.51	44060.58
553.67	43978.67
553.84	44233.78
554.01	44421.03
554.17	43992.71
554.34	44039.52
554.51	44098.03
554.67	44037.18
554.84	44086.33
555.00	44027.82
555.17	44516.99
555.33	44662.10
555.50	44215.06
555.67	44194.00
555.83	44079.31
556.00	44027.82
556.16	44814.24
556.33	44421.03
556.50	44353.15
556.66	44657.42
556.83	44699.55
556.99	44952.33
557.16	45151.27
557.32	44744.02
557.49	45193.40
557.65	44304.00
557.82	44460.82
557.98	44418.69
558.15	44807.22
558.32	44528.69
558.48	44624.65
558.65	44608.27
558.81	45160.64
558.98	45118.51
559.14	44683.17
559.31	44896.16
559.47	44765.09
559.64	45186.38
559.80	44903.18
559.97	45633.42
560.13	45043.61
560.30	45354.90
560.46	45268.30
560.63	45436.82
560.79	44891.48
560.96	45303.41
561.12	45031.91
561.29	44947.65
561.45	45104.46
561.61	45165.32
561.78	45331.50
561.94	45518.74
562.11	45404.05
562.27	45287.03
562.44	45167.66
562.60	45675.55
562.77	45237.87
562.93	45553.85
563.10	45394.69
563.26	45436.82
563.42	45642.79
563.59	45530.44
563.75	45904.93
563.92	45663.85
564.08	44980.42
564.24	45425.12
564.41	45694.28
564.57	45373.63
564.74	45397.03
564.90	46108.55
565.07	45525.76
565.23	45497.67
565.39	45605.34
565.56	46190.47
565.72	45333.84
565.88	45610.02
566.05	45256.60
566.21	46014.93
566.38	45467.25
566.54	45888.54
566.70	46073.45
566.87	46188.13
567.03	46260.69
567.19	45984.51
567.36	45900.25
567.52	45474.27
567.68	45855.78
567.85	45595.98
568.01	45776.20
568.17	45481.29
568.34	46127.28
568.50	45865.14
568.66	46073.45
568.83	46314.52
568.99	46136.64
569.15	45797.26
569.32	45656.83
569.48	45387.67
569.64	45808.96
569.81	46068.76
569.97	46267.71
570.13	46078.13
570.30	45979.82
570.46	46146.00
570.62	46101.53
570.78	45717.68
570.95	46281.75
571.11	46754.54
571.27	45902.59
571.43	45610.02
571.60	45820.67
571.76	46045.36
571.92	46408.14
572.09	46548.57
572.25	45989.19
572.41	46532.19
572.57	46136.64
572.74	46328.56
572.90	46057.06
573.06	46064.08
573.22	46127.28
573.38	46354.31
573.55	46213.88
573.71	46953.49
573.87	46717.09
574.03	46099.19
574.20	46466.66
574.36	46143.66
574.52	45984.51
574.68	45918.97
574.84	46274.73
575.01	46300.48
575.17	46220.90
575.33	46286.43
575.49	45996.21
575.65	46443.25
575.82	46525.17
575.98	46548.57
576.14	46646.88
576.30	46536.87
576.46	46143.66
576.62	46096.85
576.79	46443.25
576.95	46181.11
577.11	46167.07
577.27	46452.61
577.43	46284.09
577.59	46241.96
577.75	46679.64
577.92	46454.95
578.08	46490.06
578.24	45984.51
578.40	46403.46
578.56	46319.20
578.72	46602.41
578.88	46813.05
579.04	46857.52
579.21	46934.76
579.37	46667.94
579.53	47093.92
579.69	46225.58
579.85	46616.45
580.01	46621.13
580.17	46354.31
580.33	46703.05
580.49	46457.29
580.65	46492.40
580.82	46541.55
580.98	46658.58
581.14	46527.51
581.30	46375.37
581.46	46719.43
581.62	46281.75
581.78	46010.25
581.94	46637.51
582.10	46515.81
582.26	46630.49
582.42	46241.96
582.58	46220.90
582.74	47033.07
582.90	46801.35
583.06	46806.03
583.22	46361.33
583.38	46660.92
583.54	47000.30
583.70	46773.27
583.86	46642.20
584.02	46527.51
584.18	46681.98
584.34	46621.13
584.50	47145.41
584.66	46899.65
584.82	46232.60
584.98	46548.57
585.14	46466.66
585.30	46349.63
585.46	46515.81
585.62	46466.66
585.78	46653.90
585.94	46780.29
586.10	46838.80
586.26	46513.47
586.42	47133.71
586.58	46925.40
586.74	46827.10
586.90	46731.14
587.06	46532.19
587.22	47217.97
587.38	46665.60
587.54	47262.44
587.70	47372.44
587.86	47224.99
588.02	46934.76
588.18	47126.69
588.34	47004.98
588.49	46784.97
588.65	46747.52
588.81	46405.80
588.97	46703.05
589.13	46618.79
589.29	47047.11
589.45	46745.18
589.61	46820.08
589.77	47297.55
589.93	47157.11
590.08	47344.36
590.24	47201.58
590.40	46883.27
590.56	47161.79
590.72	46841.14
590.88	46473.68
591.04	47164.14
591.20	47327.97
591.35	47285.84
591.51	47445.00
591.67	47257.76
591.83	47119.66
591.99	47093.92
592.15	46843.48
592.31	47126.69
592.46	46993.28
592.62	46930.08
592.78	46916.04
592.94	47391.17
593.10	47206.26
593.26	47210.95
593.41	47243.71
593.57	47374.78
593.73	47299.89
593.89	47854.59
594.05	47276.48
594.20	46887.95
594.36	46871.57
594.52	47138.39
594.68	46862.21
594.84	46944.12
594.99	47468.40
595.15	47255.42
595.31	47632.24
595.47	47246.05
595.62	47718.84
595.78	47100.94
595.94	47194.56
596.10	47271.80
596.25	47260.10
596.41	47175.84
596.57	47257.76
596.73	47281.16
596.88	47012.00
597.04	47332.65
597.20	47206.26
597.36	47306.91
597.51	47992.68
597.67	47557.35
597.83	47171.16
597.99	47604.16
598.14	47096.26
598.30	47150.09
598.46	47398.19
598.61	47236.69
598.77	47103.28
598.93	47580.75
599.09	47360.74
599.24	47697.78
599.40	47447.34
599.56	47281.16
599.71	47075.19
599.87	48053.54
600.03	47653.31
600.18	47629.90
600.34	47381.80
600.50	47239.03
600.65	47377.12
600.81	47592.45
600.97	47964.60
601.12	47735.23
601.28	47576.07
601.44	47494.15
601.59	47363.08
601.75	47222.65
601.91	47510.53
602.06	47210.95
602.22	47313.93
602.37	47409.89
602.53	47349.04
602.69	47585.43
602.84	47580.75
603.00	47547.98
603.16	47349.04
603.31	47590.11
603.47	47655.65
603.62	47421.59
603.78	47330.31
603.94	47241.37
604.09	47400.53
604.25	47072.85
604.40	47339.68
604.56	47517.56
604.71	47437.98
604.87	47454.36
605.03	47175.84
605.18	47718.84
605.34	47239.03
605.49	47133.71
605.65	47000.30
605.80	47002.64
605.96	47239.03
606.12	47133.71
606.27	47487.13
606.43	47384.15
606.58	47564.37
606.74	47042.43
606.89	47311.59
607.05	47447.34
607.20	47119.66
607.36	47157.11
607.51	47634.58
607.67	47185.20
607.82	47021.36
607.98	46913.70
608.13	46902.00
608.29	47365.42
608.44	47072.85
608.60	46815.40
608.75	47185.20
608.91	47079.88
609.06	46843.48
609.22	47248.39
609.37	46550.91
609.53	47009.66
609.68	47241.37
609.84	46644.54
609.99	47133.71
610.15	47224.99
610.30	47365.42
610.46	47571.39
610.61	47910.77
610.76	47641.60
610.92	48135.46
611.07	47707.14
611.23	47414.57
611.38	47878.00
611.54	47255.42
611.69	47358.40
611.84	47063.49
612.00	46691.35
612.15	47213.29
612.31	46951.15
612.46	47103.28
612.62	47421.59
612.77	47531.60
612.92	47594.79
613.08	47491.81
613.23	46986.25
613.39	47047.11
613.54	46979.23
613.69	46789.65
613.85	46323.88
614.00	46309.84
614.15	46974.55
614.31	46501.76
614.46	46848.16
614.62	46876.25
614.77	46602.41
614.92	46824.76
615.08	46698.37
615.23	46471.34
615.38	46436.23
615.54	46522.83
615.69	46382.40
615.84	46368.35
616.00	46932.42
616.15	46696.03
616.30	46520.49
616.46	46251.33
616.61	46230.26
616.76	46784.97
616.92	46017.27
617.07	46337.93
617.22	46335.59
617.37	46190.47
617.53	46167.07
617.68	46422.19
617.83	46150.68
617.99	45949.40
618.14	46094.51
618.29	45869.82
618.45	46003.23
618.60	46045.36
618.75	46043.02
618.90	46328.56
619.06	46387.08
619.21	46206.86
619.36	46075.79
619.51	45705.98
619.67	45579.59
619.82	45516.40
619.97	46157.70
620.12	45654.49
620.28	45593.64
620.43	45900.25
620.58	45895.56
620.73	46103.87
620.89	46094.51
621.04	45844.07
621.19	45659.17
621.34	45780.88
621.49	45361.92
621.65	45640.45
621.80	45567.89
621.95	45422.78
622.10	45535.12
622.25	45687.26
622.41	45361.92
622.56	45825.35
622.71	45305.75
622.86	45521.08
623.01	45640.45
623.16	45352.56
623.32	45748.11
623.47	45221.49
623.62	45226.17
623.77	45294.05
623.92	45106.80
624.07	44872.75
624.23	45050.63
624.38	45436.82
624.53	45270.64
624.68	45256.60
624.83	45474.27
624.98	45450.86
625.13	45219.15
625.29	45443.84
625.44	45359.58
625.59	45071.70
625.74	45071.70
625.89	45055.31
626.04	44966.37
626.19	44966.37
626.34	45258.94
626.49	44245.49
626.65	44914.88
626.80	44680.83
626.95	44596.57
627.10	44999.14
627.25	44861.05
627.40	44437.41
627.55	44978.07
627.70	44886.79
627.85	44957.01
628.00	44257.19
628.15	44619.97
628.30	44563.80
628.45	44334.43
628.60	44540.39
628.76	44306.34
628.91	44964.03
629.06	44266.55
629.21	44762.75
629.36	44521.67
629.51	43990.37
629.66	44100.37
629.81	44491.24
629.96	43889.73
630.11	43875.68
630.26	44306.34
630.41	44474.86
630.56	44505.29
630.71	44327.41
630.86	44254.85
631.01	44327.41
631.16	44610.61
631.31	44402.30
631.46	44287.62
631.61	43985.69
631.76	44116.76
631.91	43683.76
632.06	44051.22
632.21	44353.15
632.36	44245.49
632.51	43590.14
632.66	43936.54
632.81	43824.19
632.96	43821.85
633.10	43770.36
633.25	43936.54
633.40	43817.17
633.55	43749.29
633.70	43943.56
633.85	43831.21
634.00	43545.67
634.15	43519.92
634.30	43480.13
634.45	43243.74
634.60	43531.62
634.75	43711.84
634.90	43423.96
635.05	43463.75
635.19	43587.80
635.34	43887.39
635.49	43585.46
635.64	43178.20
635.79	43349.06
635.94	43641.63
636.09	43430.98
636.24	43201.61
636.39	42948.83
636.53	43386.51
636.68	42895.00
636.83	42871.59
636.98	43349.06
637.13	43225.01
637.28	43103.31
637.43	43744.61
637.57	43255.44
637.72	42754.57
637.87	42740.52
638.02	42635.20
638.17	42464.34
638.32	42810.74
638.46	42782.65
638.61	42443.27
638.76	42646.90
638.91	42529.87
639.06	42808.40
639.20	43290.55
639.35	43168.84
639.50	42806.06
639.65	43173.52
639.80	42419.87
639.94	42415.19
640.09	42447.96
640.24	42731.16
640.39	42614.13
640.54	42574.34
640.68	42834.14
640.83	42223.26
640.98	42036.02
641.13	42043.04
641.27	42873.93
641.42	42691.37
641.57	42873.93
641.72	43079.90
641.86	42607.11
642.01	42415.19
642.16	42569.66
642.31	42188.16
642.45	42183.48
642.60	41546.85
642.75	42174.11
642.90	41935.38
643.04	42113.26
643.19	42057.09
643.34	41757.50
643.48	41951.76
643.63	42316.89
643.78	42110.92
643.93	42398.80
644.07	42543.92
644.22	41954.10
644.37	41703.67
644.51	42124.96
644.66	41570.25
644.81	41155.98
644.95	41347.90
645.10	41993.89
645.25	41771.54
645.39	41247.26
645.54	41303.43
645.69	41432.16
645.83	41598.34
645.98	41827.71
646.13	41879.21
646.27	41493.02
646.42	41448.55
646.57	41706.01
646.71	41748.14
646.86	41474.29
647.00	41612.38
647.15	40996.82
647.30	41361.95
647.44	41542.17
647.59	41375.99
647.74	41383.01
647.88	41556.21
648.03	41715.37
648.17	41537.49
648.32	41078.74
648.47	41558.55
648.61	41811.33
648.76	41668.56
648.90	41504.72
649.05	41088.10
649.20	41003.85
649.34	41095.13
649.49	41053.00
649.63	40938.31
649.78	41088.10
649.92	40524.04
650.07	41308.11
650.21	41095.13
650.36	41200.45
650.51	41109.17
650.65	41186.41
650.80	41308.11
650.94	41027.25
651.09	40807.24
651.23	40971.08
651.38	40528.72
651.52	40505.31
651.67	40659.79
651.81	40648.08
651.96	40533.40
652.10	40545.10
652.25	40655.11
652.39	41020.23
652.54	40912.56
652.68	40910.22
652.83	40924.27
652.97	40704.26
653.12	40030.18
653.26	40961.72
653.41	40786.18
653.55	40126.14
653.70	40680.85
653.84	40072.31
653.99	40297.00
654.13	40524.04
654.27	40542.76
654.42	40350.84
654.56	40350.84
654.71	40795.54
654.85	40664.47
655.00	40500.63
655.14	40409.35
655.29	40142.53
655.43	40786.18
655.57	40027.84
655.72	40313.39
655.86	40130.83
656.01	40025.50
656.15	39536.33
656.30	39674.42
656.44	39917.84
656.58	39763.36
656.73	39693.15
656.87	39915.50
657.01	40107.42
657.16	40224.45
657.30	40414.03
657.45	39695.49
657.59	39768.04
657.73	39321.00
657.88	39503.56
658.02	39246.10
658.16	39519.95
658.31	39805.49
658.45	39559.73
658.60	39814.85
658.74	39255.46
658.88	39330.36
659.03	39311.64
659.17	39353.77
659.31	39332.70
659.46	38955.88
659.60	39594.84
659.74	39494.20
659.89	38998.01
660.03	39196.95
660.17	39070.56
660.32	38869.28
660.46	38572.03
660.60	38445.64
660.74	38569.69
660.89	38232.65
661.03	38686.71
661.17	38618.84
661.32	38682.03
661.46	38836.51
661.60	38651.61
661.74	38557.99
661.89	38841.19
662.03	38635.22
662.17	38501.81
662.31	38426.92
662.46	38799.06
662.60	38581.39
662.74	38113.28
662.88	38216.27
663.03	37879.23
663.17	38651.61
663.31	38007.96
663.45	38553.30
663.60	38014.98
663.74	37661.56
663.88	38225.63
664.02	37703.69
664.17	37823.06
664.31	37631.13
664.45	38094.56
664.59	37696.67
664.73	38045.41
664.88	37539.85
665.02	37593.68
665.16	37479.00
665.30	37228.56
665.44	36804.92
665.59	37263.67
665.73	37038.98
665.87	37181.75
666.01	36814.29
666.15	37282.39
666.29	37216.86
666.44	37404.10
666.58	37153.66
666.72	36725.35
666.86	36884.50
667.00	36769.82
667.14	36617.68
667.28	36982.80
667.43	36701.94
667.57	36737.05
667.71	36821.31
667.85	36510.02
667.99	36638.75
668.13	36126.17
668.27	36627.04
668.41	37001.53
668.56	36147.23
668.70	36505.34
668.84	36673.85
668.98	36292.35
669.12	36299.37
669.26	36077.02
669.40	35730.62
669.54	36233.83
669.68	36254.90
669.82	35344.43
669.96	35789.13
670.10	35454.44
670.25	35599.55
670.39	35637.00
670.53	35400.60
670.67	35175.91
670.81	35648.70
670.95	35786.79
671.09	35421.67
671.23	35051.86
671.37	35468.48
671.51	35487.20
671.65	35297.62
671.79	35292.94
671.93	34902.07
672.07	35065.91
672.21	35103.35
672.35	34864.62
672.49	34220.97
672.63	34663.33
672.77	34735.89
672.91	34368.43
673.05	34897.39
673.19	34560.35
673.33	34349.70
673.47	35030.80
673.61	34852.92
673.75	34345.02
673.89	34485.45
674.03	34134.37
674.17	33930.75
674.31	33855.85
674.45	33734.14
674.59	33729.46
674.73	33383.06
674.87	33584.35
675.01	33507.11
675.15	33408.81
675.29	33916.70
675.43	33443.91
675.56	33633.50
675.70	33783.29
675.84	33757.55
675.98	32271.31
676.12	33633.50
676.26	33710.74
676.40	32914.95
676.54	33394.76
676.68	32500.68
676.82	32048.96
676.96	32648.13
677.10	32259.60
677.23	32493.66
677.37	32421.10
677.51	32292.37
677.65	31793.84
677.79	31889.80
677.93	31847.67
678.07	31810.22
678.21	31915.54
678.34	31578.51
678.48	31573.83
678.62	31536.38
678.76	31789.16
678.90	31709.58
679.04	30995.71
679.18	31271.90
679.31	30801.45
679.45	30473.78
679.59	30677.40
679.73	31044.87
679.87	30724.21
680.00	30546.33
680.14	30338.02
680.28	30223.34
680.42	30536.97
680.56	30567.40
680.70	30134.40
680.83	30249.08
680.97	30125.04
681.11	30345.05
681.25	30260.79
681.39	29844.17
681.52	29907.37
681.66	29837.15
681.80	29567.99
681.94	29289.46
682.07	29600.76
682.21	29134.99
682.35	29401.81
682.49	28999.24
682.62	28744.12
682.76	28854.12
682.90	29343.30
683.04	28889.23
683.17	28804.97
683.31	28821.36
683.45	28657.52
683.59	28821.36
683.72	28313.46
683.86	28500.70
684.00	28390.70
684.13	28320.48
684.27	28393.04
684.41	28095.79
684.55	27833.65
684.68	27646.41
684.82	27702.58
684.96	27690.88
685.09	27424.06
685.23	27433.42
685.37	27246.18
685.50	27501.29
685.64	27590.24
685.78	27967.06
685.91	27466.19
686.05	27733.01
686.19	27173.62
686.32	26803.82
686.46	26789.77
686.60	26586.15
686.73	26677.43
686.87	26609.55
687.01	26462.10
687.14	26188.25
687.28	26651.68
687.42	26181.23
687.55	26047.82
687.69	26108.68
687.82	25867.60
687.96	25759.94
688.10	25813.77
688.23	25993.99
688.37	25839.51
688.50	25727.17
688.64	25656.95
688.78	25963.56
688.91	25319.92
689.05	25333.96
689.18	24947.77
689.32	24989.90
689.46	24800.32
689.59	24737.12
689.73	24566.26
689.86	24517.11
690.00	24404.77
690.13	24465.62
690.27	24376.68
690.41	24414.13
690.54	24098.16
690.68	24201.14
690.81	24395.40
690.95	24320.51
691.08	24271.36
691.22	23873.46
691.35	24011.56
691.49	23639.41
691.62	23161.94
691.76	23269.61
691.89	23309.40
692.03	23157.26
692.16	23054.28
692.30	23047.26
692.43	23091.73
692.57	22836.61
692.70	22801.50
692.84	23030.87
692.97	23091.73
693.11	22972.36
693.24	23026.19
693.38	22499.57
693.51	22588.51
693.65	22665.75
693.78	22445.74
693.92	22272.54
694.05	22188.28
694.19	22047.85
694.32	21949.54
694.45	21762.30
694.59	21778.68
694.72	21685.06
694.86	21586.76
694.99	21455.69
695.13	21563.36
695.26	21303.56
695.39	21249.72
695.53	21226.32
695.66	21425.26
695.80	21104.61
695.93	20938.43
696.07	20652.89
696.20	21039.08
696.33	20695.02
696.47	20601.40
696.60	20762.89
696.73	20821.41
696.87	20587.35
697.00	20577.99
697.14	20402.45
697.27	20149.67
697.40	19946.05
697.54	19929.66
697.67	19868.81
697.80	19501.34
697.94	19786.89
698.07	19735.40
698.21	19552.84
698.34	19667.52
698.47	19255.59
698.61	18892.80
698.74	19225.16
698.87	19681.56
699.01	19314.10
699.14	19283.67
699.27	18808.54
699.40	18817.91
699.54	18607.26
699.67	18845.99
699.80	18431.72
699.94	18335.76
700.07	18558.11
700.20	18478.53
700.34	18125.11
700.47	18160.22
700.60	18242.14
700.73	18328.74
700.87	18284.26
701.00	17823.18
701.13	17813.82
701.26	17785.73
701.40	17977.65
701.53	17703.81
701.66	17811.48
701.79	17568.06
701.93	17832.54
702.06	17481.46
702.19	17516.57
702.32	17542.32
702.46	16882.28
702.59	16709.08
702.72	16746.53
702.85	16851.86
702.99	16720.79
703.12	16533.54
703.25	16872.92
703.38	16893.99
703.51	16798.02
703.65	16496.10
703.78	16671.64
703.91	16325.24
704.04	16484.39
704.17	16608.44
704.31	16273.74
704.44	16215.23
704.57	16119.27
704.70	15976.50
704.83	15962.45
704.96	15829.04
705.10	15845.43
705.23	15655.84
>>>>>End Processed Spectral Data<<<<<
