SpectraSuite Data File
++++++++++++++++++++++++++++++++++++
Date: Tue Oct 01 18:27:26 GMT-05:00 2013
User: stostad
Dark Spectrum Present: No
Reference Spectrum Present: No
Number of Sampled Component Spectra: 1
Spectrometers: USB2+H05261
Integration Time (usec): 100000 (USB2+H05261)
Spectra Averaged: 1 (USB2+H05261)
Boxcar Smoothing: 0 (USB2+H05261)
Correct for Electrical Dark: No (USB2+H05261)
Strobe/Lamp Enabled: No (USB2+H05261)
Correct for Detector Non-linearity: No (USB2+H05261)
Correct for Stray Light: No (USB2+H05261)
Number of Pixels in Processed Spectrum: 2048
>>>>>Begin Processed Spectral Data<<<<<
365.73	107.66
365.92	107.66
366.12	107.66
366.32	42.13
366.52	0.00
366.72	0.00
366.91	0.00
367.11	16.38
367.31	0.00
367.51	0.00
367.70	0.00
367.90	0.00
368.10	0.00
368.30	0.00
368.49	0.00
368.69	0.00
368.89	0.00
369.09	0.00
369.28	0.00
369.48	18.72
369.68	107.66
369.87	70.22
370.07	0.00
370.27	98.30
370.47	49.15
370.66	222.35
370.86	220.01
371.06	379.17
371.25	358.10
371.45	304.27
371.65	430.66
371.84	304.27
372.04	407.25
372.24	313.63
372.44	332.36
372.63	388.53
372.83	355.76
373.03	358.10
373.22	454.06
373.42	360.44
373.62	341.72
373.81	423.64
374.01	337.04
374.21	395.55
374.40	440.02
374.60	458.74
374.79	379.17
374.99	489.17
375.19	425.98
375.38	465.77
375.58	482.15
375.78	458.74
375.97	393.21
376.17	531.30
376.37	397.89
376.56	507.90
376.76	477.47
376.95	440.02
377.15	496.19
377.35	561.73
377.54	418.96
377.74	477.47
377.93	428.32
378.13	512.58
378.33	500.87
378.52	519.60
378.72	526.62
378.91	564.07
379.11	507.90
379.31	524.28
379.50	496.19
379.70	500.87
379.89	475.13
380.09	491.51
380.28	475.13
380.48	545.34
380.68	573.43
380.87	514.92
381.07	489.17
381.26	519.60
381.46	601.52
381.65	514.92
381.85	624.92
382.04	498.53
382.24	568.75
382.43	613.22
382.63	531.30
382.83	589.82
383.02	655.35
383.22	587.47
383.41	650.67
383.61	573.43
383.80	596.84
384.00	566.41
384.19	554.71
384.39	624.92
384.58	589.82
384.78	645.99
384.97	631.94
385.17	662.37
385.36	638.97
385.56	634.29
385.75	624.92
385.95	610.88
386.14	657.69
386.34	678.76
386.53	645.99
386.72	629.60
386.92	648.33
387.11	739.61
387.31	662.37
387.50	657.69
387.70	653.01
387.89	660.03
388.09	748.97
388.28	671.73
388.48	641.31
388.67	755.99
388.86	716.20
389.06	704.50
389.25	723.23
389.45	791.10
389.64	671.73
389.84	723.23
390.03	688.12
390.22	744.29
390.42	812.17
390.61	774.72
390.81	821.53
391.00	746.63
391.19	809.83
391.39	884.72
391.58	798.12
391.78	863.66
391.97	802.80
392.16	828.55
392.36	910.47
392.55	910.47
392.75	856.64
392.94	849.61
393.13	875.36
393.33	854.30
393.52	858.98
393.71	938.55
393.91	1043.88
394.10	882.38
394.29	887.06
394.49	901.11
394.68	952.60
394.88	936.21
395.07	987.71
395.26	793.44
395.46	936.21
395.65	987.71
395.84	952.60
396.04	1062.60
396.23	959.62
396.42	952.60
396.62	990.05
396.81	1041.54
397.00	983.02
397.19	1057.92
397.39	1004.09
397.58	1039.20
397.77	1062.60
397.97	1015.79
398.16	1132.82
398.35	1088.35
398.55	1146.86
398.74	1146.86
398.93	1196.01
399.12	1163.25
399.32	1132.82
399.51	1196.01
399.70	1219.42
399.90	1263.89
400.09	1153.88
400.28	1193.67
400.47	1179.63
400.67	1188.99
400.86	1270.91
401.05	1212.40
401.24	1247.51
401.44	1287.29
401.63	1364.53
401.82	1376.24
402.01	1254.53
402.21	1324.74
402.40	1366.87
402.59	1336.45
402.78	1306.02
402.97	1385.60
403.17	1420.71
403.36	1455.81
403.55	1493.26
403.74	1373.89
403.93	1455.81
404.13	1526.03
404.32	1448.79
404.51	1432.41
404.70	1568.16
404.89	1516.67
405.09	1476.88
405.28	1495.60
405.47	1507.30
405.66	1511.99
405.85	1586.88
406.05	1551.78
406.24	1603.27
406.43	1603.27
406.62	1678.16
406.81	1689.87
407.00	1734.34
407.20	1668.80
407.39	1647.74
407.58	1743.70
407.77	1776.47
407.96	1776.47
408.15	1816.26
408.34	1802.21
408.54	1689.87
408.73	1877.11
408.92	1905.20
409.11	1839.66
409.30	1977.75
409.49	1921.58
409.68	1902.86
409.87	2001.16
410.07	1970.73
410.26	1907.54
410.45	1952.01
410.64	1968.39
410.83	2099.46
411.02	2087.76
411.21	2108.82
411.40	2071.37
411.59	2181.38
411.78	2172.02
411.98	2113.50
412.17	2148.61
412.36	2251.60
412.55	2345.22
412.74	2382.67
412.93	2321.81
413.12	2307.77
413.31	2310.11
413.50	2303.09
413.69	2300.75
413.88	2469.27
414.07	2389.69
414.26	2626.08
414.45	2495.01
414.64	2511.39
414.83	2546.50
415.02	2647.15
415.22	2623.74
415.41	2656.51
415.60	2668.21
415.79	2717.36
415.98	2813.32
416.17	2757.15
416.36	2768.85
416.55	2813.32
416.74	2981.84
416.93	2944.39
417.12	2848.43
417.31	2920.99
417.50	3075.46
417.69	3112.91
417.88	2995.89
418.07	3040.36
418.26	2979.50
418.45	3129.30
418.64	3192.49
418.83	3103.55
419.02	3117.59
419.21	3159.72
419.39	3126.96
419.58	3075.46
419.77	3124.62
419.96	3260.37
420.15	3185.47
420.34	3220.58
420.53	3279.09
420.72	3215.90
420.91	3325.90
421.10	3258.03
421.29	3489.74
421.48	3239.30
421.67	3344.63
421.86	3403.14
422.05	3368.03
422.24	3368.03
422.43	3342.28
422.61	3487.40
422.80	3461.65
422.99	3407.82
423.18	3531.87
423.37	3590.38
423.56	3545.91
423.75	3510.80
423.94	3571.66
424.13	3258.03
424.32	3368.03
424.50	3510.80
424.69	3431.23
424.88	3627.83
425.07	3574.00
425.26	3548.25
425.45	3506.12
425.64	3485.06
425.83	3461.65
426.01	3485.06
426.20	3522.51
426.39	3478.04
426.58	3489.74
426.77	3618.47
426.96	3644.21
427.15	3623.15
427.33	3637.19
427.52	3749.54
427.71	3747.20
427.90	3716.77
428.09	3695.71
428.28	3712.09
428.46	3735.50
428.65	3812.73
428.84	3908.69
429.03	3894.65
429.22	3695.71
429.40	3684.00
429.59	3978.91
429.78	3936.78
429.97	3805.71
430.16	3873.59
430.34	3997.64
430.53	3997.64
430.72	4025.72
430.91	4056.15
431.10	3772.94
431.28	4140.41
431.47	4088.92
431.66	4212.96
431.85	4046.79
432.03	4156.79
432.22	4318.29
432.41	4205.94
432.60	4170.83
432.79	4147.43
432.97	4217.65
433.16	4292.54
433.35	4301.90
433.54	4313.61
433.72	4358.08
433.91	4329.99
434.10	4318.29
434.28	4138.07
434.47	4351.06
434.66	4587.45
434.85	4465.74
435.03	4383.82
435.22	4505.53
435.41	4685.75
435.59	4652.98
435.78	4430.63
435.97	4507.87
436.16	4674.05
436.34	4535.96
436.53	4557.02
436.72	4627.24
436.90	4678.73
437.09	4634.26
437.28	4512.55
437.46	4744.27
437.65	4858.95
437.84	4807.46
438.02	4861.29
438.21	4765.33
438.40	4720.86
438.58	4863.63
438.77	4994.70
438.96	4922.15
439.14	5027.47
439.33	4966.62
439.52	5137.48
439.70	5111.73
439.89	5205.35
440.08	5266.21
440.26	5210.03
440.45	5268.55
440.63	5369.19
440.82	5282.59
441.01	5423.02
441.19	5495.58
441.38	5397.28
441.57	5631.33
441.75	5551.75
441.94	5696.86
442.12	5572.82
442.31	5830.27
442.50	5526.00
442.68	5600.90
442.87	5659.42
443.05	5804.53
443.24	5874.74
443.43	5900.49
443.61	5748.36
443.80	5989.43
443.98	5738.99
444.17	5643.03
444.35	5973.05
444.54	6078.37
444.73	5776.44
444.91	5827.93
445.10	6029.22
445.28	5937.94
445.47	5891.13
445.65	5947.30
445.84	5949.64
446.02	6064.33
446.21	6043.26
446.39	5998.79
446.58	6106.46
446.77	6157.95
446.95	5921.56
447.14	6097.10
447.32	6019.86
447.51	6085.39
447.69	6033.90
447.88	6183.70
448.06	6164.97
448.25	5930.92
448.43	5989.43
448.62	6094.76
448.80	6314.77
448.99	6298.38
449.17	6319.45
449.36	6267.95
449.54	6347.53
449.73	6497.33
449.91	6197.74
450.10	6307.74
450.28	6621.38
450.46	6588.61
450.65	6368.60
450.83	6551.16
451.02	6530.09
451.20	6546.48
451.39	6567.54
451.57	6651.80
451.76	6380.30
451.94	6553.50
452.13	6705.63
452.31	6691.59
452.49	6717.34
452.68	6593.29
452.86	6684.57
453.05	6717.34
453.23	6792.23
453.42	6677.55
453.60	6726.70
453.78	6935.01
453.97	6839.05
454.15	7026.29
454.34	6892.88
454.52	7075.44
454.70	6867.13
454.89	6939.69
455.07	6927.99
455.26	7021.61
455.44	7052.03
455.62	7049.69
455.81	7157.36
455.99	7222.89
456.17	7234.60
456.36	6963.09
456.54	7424.18
456.73	7482.69
456.91	7445.24
457.09	7510.78
457.28	7728.45
457.46	7529.50
457.64	7435.88
457.83	7513.12
458.01	7513.12
458.19	7728.45
458.38	7487.37
458.56	7616.10
458.74	7669.94
458.93	7716.75
459.11	7737.81
459.29	7524.82
459.48	7899.31
459.66	7824.41
459.84	7775.26
460.03	7726.11
460.21	7758.88
460.39	7971.86
460.57	7925.05
460.76	7843.14
460.94	7880.58
461.12	8032.72
461.31	8203.58
461.49	7955.48
461.67	8095.91
461.85	8138.04
462.04	8100.59
462.22	8622.53
462.40	8369.76
462.59	8374.44
462.77	8301.88
462.95	8226.98
463.13	8156.77
463.32	8318.26
463.50	8278.47
463.68	8432.95
463.86	8430.61
464.05	8510.19
464.23	8409.54
464.41	8498.49
464.59	8409.54
464.78	8496.14
464.96	8503.17
465.14	8578.06
465.32	8622.53
465.50	8688.07
465.69	8695.09
465.87	8713.81
466.05	8603.81
466.23	8798.07
466.41	8788.71
466.60	9181.92
466.78	8603.81
466.96	8798.07
467.14	8812.12
467.32	8894.04
467.51	8833.18
467.69	8959.57
467.87	8922.12
468.05	8933.82
468.23	8807.44
468.41	9008.72
468.60	9090.64
468.78	9043.83
468.96	8844.88
469.14	9217.03
469.32	9142.13
469.50	8966.59
469.69	9467.47
469.87	9320.01
470.05	9394.91
470.23	9362.14
470.41	9401.93
470.59	9579.81
470.77	9404.27
470.95	9544.70
471.14	9525.98
471.32	9490.87
471.50	9898.13
471.68	9877.06
471.86	9774.08
472.04	9907.49
472.22	9872.38
472.40	9701.52
472.58	9867.70
472.77	9867.70
472.95	10204.74
473.13	10263.25
473.31	9991.75
473.49	10090.05
473.67	10099.41
473.85	10134.52
474.03	10298.36
474.21	10345.17
474.39	10478.58
474.57	10457.51
474.75	10806.25
474.93	10782.85
475.12	10525.39
475.30	10803.91
475.48	11007.54
475.66	11002.86
475.84	10773.49
476.02	10920.94
476.20	10934.98
476.38	11325.85
476.56	11311.81
476.74	11433.52
476.92	11283.72
477.10	11243.93
477.28	11557.57
477.46	11489.69
477.64	11737.79
477.82	11934.39
478.00	12046.74
478.18	12058.44
478.36	11990.56
478.54	12472.71
478.72	12402.50
478.90	12301.86
479.08	12624.85
479.26	12393.14
479.44	12720.81
479.62	12765.28
479.80	12615.49
479.98	12908.05
480.16	13334.03
480.34	13256.79
480.52	13404.25
480.70	13462.76
480.88	13125.72
481.06	13490.85
481.24	13586.81
481.41	13668.73
481.59	13900.44
481.77	13961.30
481.95	13951.93
482.13	14087.68
482.31	14209.39
482.49	14354.51
482.67	14504.30
482.85	14457.49
483.03	14857.72
483.21	14991.13
483.39	14881.13
483.57	14728.99
483.74	15321.15
483.92	15508.39
484.10	15136.24
484.28	15405.41
484.46	15822.02
484.64	16079.48
484.82	15822.02
485.00	16020.97
485.18	16308.85
485.35	16446.94
485.53	16442.26
485.71	16423.54
485.89	16898.67
486.07	16940.80
486.25	16783.98
486.43	17109.32
486.61	17425.29
486.78	17369.12
486.96	17380.82
487.14	17724.88
487.32	17600.83
487.50	17888.71
487.68	17991.70
487.85	18246.82
488.03	18347.46
488.21	18733.65
488.39	18153.20
488.57	18361.50
488.75	18780.46
488.92	18909.19
489.10	19314.10
489.28	19459.21
489.46	19665.18
489.64	19477.94
489.81	19763.48
489.99	19908.60
490.17	20105.20
490.35	20538.20
490.53	20053.71
490.70	20341.60
490.88	20222.23
491.06	20414.15
491.24	20442.24
491.41	20879.92
491.59	21170.15
491.77	21078.86
491.95	21170.15
492.13	21500.16
492.30	21720.17
492.48	21593.78
492.66	21591.44
492.84	21820.81
493.01	22216.36
493.19	22127.42
493.37	22141.47
493.54	22204.66
493.72	22752.35
493.90	23028.53
494.08	22967.68
494.25	23335.14
494.43	22932.57
494.61	23243.86
494.79	23386.63
494.96	23407.70
495.14	23344.50
495.32	23941.34
495.49	23819.63
495.67	23992.83
495.85	24065.39
496.02	24266.67
496.20	24451.58
496.38	24400.08
496.55	24519.45
496.73	24987.56
496.91	25385.45
497.09	24926.71
497.26	25174.80
497.44	25130.33
497.62	25570.35
497.79	25549.29
497.97	25795.04
498.14	26003.35
498.32	26244.43
498.50	26312.30
498.67	26459.76
498.85	26181.23
499.03	26541.68
499.20	26244.43
499.38	26787.43
499.56	26780.41
499.73	26649.34
499.91	26862.33
500.08	26867.01
500.26	26885.73
500.44	27431.08
500.61	27243.84
500.79	27187.66
500.97	27386.61
501.14	27962.38
501.32	27798.54
501.49	27648.75
501.67	27669.81
501.84	27983.44
502.02	28212.82
502.20	28224.52
502.37	28229.20
502.55	27992.81
502.72	28460.91
502.90	28390.70
503.07	29050.73
503.25	28760.50
503.43	28634.11
503.60	29303.51
503.78	29029.66
503.95	28870.51
504.13	29560.97
504.30	29132.65
504.48	29228.61
504.65	29900.34
504.83	29996.31
505.01	29905.02
505.18	29888.64
505.36	29876.94
505.53	29778.64
505.71	29951.84
505.88	30668.04
506.06	30078.22
506.23	30588.46
506.41	30328.66
506.58	30541.65
506.76	30604.84
506.93	30771.02
507.11	30644.63
507.28	31077.63
507.46	31318.71
507.63	31047.21
507.81	31325.73
507.98	31234.45
508.16	31550.42
508.33	31342.11
508.50	31651.06
508.68	31519.99
508.85	31889.80
509.03	31501.27
509.20	32032.57
509.38	32341.52
509.55	32133.21
509.73	32383.65
509.90	32060.66
510.08	32992.19
510.25	32730.05
510.42	32716.01
510.60	32718.35
510.77	33010.92
510.95	33165.39
511.12	33141.99
511.30	32903.25
511.47	33055.39
511.64	33333.91
511.82	33259.01
511.99	33345.61
512.17	33275.40
512.34	33324.55
512.51	33694.35
512.69	34115.65
512.86	34096.92
513.04	34452.69
513.21	33867.55
513.38	34328.64
513.56	34220.97
513.73	34316.93
513.90	34333.32
514.08	34639.93
514.25	34279.49
514.43	34766.32
514.60	34862.28
514.77	35229.74
514.95	35049.52
515.12	34581.42
515.29	34824.83
515.47	35136.12
515.64	35651.04
515.81	35164.21
515.99	35594.87
516.16	35952.97
516.33	35482.52
516.51	36044.25
516.68	36156.60
516.85	36184.68
517.03	35873.39
517.20	36311.07
517.37	36107.44
517.54	36067.66
517.72	36311.07
517.89	36332.14
518.06	36449.16
518.24	36528.74
518.41	36397.67
518.58	36608.32
518.75	36765.14
518.93	36797.90
519.10	36353.20
519.27	37088.13
519.45	36594.28
519.62	37125.58
519.79	37326.86
519.96	37223.88
520.14	37340.91
520.31	37024.93
520.48	37493.04
520.65	37600.71
520.83	37776.25
521.00	37787.95
521.17	37731.78
521.34	37996.26
521.52	38204.56
521.69	37832.42
521.86	38588.41
522.03	38295.85
522.20	38464.36
522.38	38330.95
522.55	38660.97
522.72	38506.49
522.89	38960.56
523.07	38953.54
523.24	38384.79
523.41	38548.62
523.58	38740.55
523.75	39086.95
523.92	38906.73
524.10	39194.61
524.27	39494.20
524.44	39606.55
524.61	39629.95
524.78	39564.42
524.96	39686.12
525.13	39473.13
525.30	39913.16
525.47	39761.02
525.64	40011.46
525.81	39679.10
525.98	40144.87
526.16	40201.04
526.33	40264.24
526.50	40444.46
526.67	40046.57
526.84	40407.01
527.01	40343.81
527.18	40388.28
527.36	40919.59
527.53	40395.31
527.70	40722.98
527.87	40797.88
528.04	40980.44
528.21	41104.49
528.38	41322.16
528.55	41031.93
528.72	41270.67
528.89	40825.96
529.07	40601.27
529.24	40912.56
529.41	41141.94
529.58	41310.46
529.75	41050.66
529.92	41413.44
530.09	41415.78
530.26	41684.94
530.43	42036.02
530.60	41081.08
530.77	41469.61
530.94	41897.93
531.11	41605.36
531.28	42265.39
531.46	42178.79
531.63	41888.57
531.80	42139.00
531.97	42436.25
532.14	41862.82
532.31	42249.01
532.48	42136.66
532.65	42677.33
532.82	42146.03
532.99	42993.30
533.16	42351.99
533.33	42768.61
533.50	43082.24
533.67	42562.64
533.84	42649.24
534.01	42527.53
534.18	42616.47
534.35	43639.29
534.52	43096.28
534.69	43381.83
534.86	43250.76
535.03	42749.88
535.20	43133.73
535.37	43398.21
535.54	43580.78
535.71	43405.23
535.88	43791.42
536.05	43477.79
536.22	44130.80
536.38	44062.93
536.55	43435.66
536.72	43536.30
536.89	43646.31
537.06	43784.40
537.23	44147.18
537.40	43653.33
537.57	44135.48
537.74	44156.55
537.91	44083.99
538.08	44191.65
538.25	43756.32
538.42	43765.68
538.59	44479.54
538.75	44385.92
538.92	44140.16
539.09	44825.94
539.26	44542.74
539.43	44598.91
539.60	44823.60
539.77	44708.91
539.94	44769.77
540.11	45184.04
540.28	44875.09
540.44	45020.20
540.61	44987.44
540.78	44891.48
540.95	44982.76
541.12	44947.65
541.29	44924.24
541.46	45008.50
541.62	45235.53
541.79	45492.99
541.96	45177.02
542.13	45258.94
542.30	45418.10
542.47	45394.69
542.63	45450.86
542.80	45439.16
542.97	45851.09
543.14	45858.12
543.31	45886.20
543.48	46192.81
543.64	46562.62
543.81	46440.91
543.98	46115.58
544.15	45989.19
544.32	46302.82
544.48	46258.35
544.65	46389.42
544.82	45923.65
544.99	46454.95
545.16	46515.81
545.32	46326.22
545.49	47363.08
545.66	46780.29
545.83	46485.38
546.00	47082.22
546.16	46602.41
546.33	46525.17
546.50	46429.21
546.67	46859.87
546.83	46351.97
547.00	46527.51
547.17	46958.17
547.34	46644.54
547.50	46775.61
547.67	46906.68
547.84	47065.83
548.00	47065.83
548.17	47356.06
548.34	47189.88
548.51	47798.42
548.67	47650.97
548.84	47482.45
549.01	47330.31
549.18	47292.86
549.34	47185.20
549.51	47405.21
549.68	47489.47
549.84	47569.05
550.01	47573.73
550.18	47744.59
550.34	47229.67
550.51	47423.93
550.68	47454.36
550.84	47131.37
551.01	47739.91
551.18	47358.40
551.34	47494.15
551.51	47962.26
551.68	48135.46
551.84	47945.87
552.01	47323.29
552.18	48144.82
552.34	47800.76
552.51	47908.43
552.68	48184.61
552.84	48002.05
553.01	48399.94
553.18	48385.89
553.34	48205.67
553.51	48275.89
553.67	48144.82
553.84	48353.13
554.01	48296.95
554.17	48671.44
554.34	48739.32
554.51	48870.39
554.67	49095.08
554.84	48849.32
555.00	48811.87
555.17	48252.48
555.33	48568.46
555.50	48498.24
555.67	48325.04
555.83	48526.33
556.00	48956.99
556.16	49240.19
556.33	48949.96
556.50	49141.89
556.66	48844.64
556.83	48919.54
556.99	49179.34
557.16	48797.83
557.32	48584.84
557.49	49191.04
557.65	49144.23
557.82	49188.70
557.98	49399.35
558.15	49216.78
558.32	49457.86
558.48	49455.52
558.65	49191.04
558.81	49090.40
558.98	49212.10
559.14	49368.92
559.31	49202.74
559.47	49745.75
559.64	49521.05
559.80	49551.48
559.97	49251.89
560.13	49254.23
560.30	49015.50
560.46	49205.08
560.63	49265.94
560.79	49282.32
560.96	49675.53
561.12	49574.89
561.29	49659.15
561.45	49712.98
561.61	49855.75
561.78	49832.35
561.94	49389.98
562.11	49844.05
562.27	49310.41
562.44	49441.48
562.60	49984.48
562.77	49837.03
562.93	49811.28
563.10	50424.50
563.26	49769.15
563.42	50005.55
563.59	49443.82
563.75	49612.34
563.92	49968.10
564.08	49347.86
564.24	49769.15
564.41	49785.54
564.57	49911.92
564.74	49860.43
564.90	50120.23
565.07	49593.61
565.23	49991.50
565.39	49703.62
565.56	49998.52
565.72	50068.74
565.88	49876.82
566.05	50197.47
566.21	49902.56
566.38	49982.14
566.54	50099.17
566.70	50033.63
566.87	49935.33
567.03	49874.48
567.19	50061.72
567.36	50127.25
567.52	50220.87
567.68	50298.11
567.85	50244.28
568.01	50274.71
568.17	50040.65
568.34	50251.30
568.50	49897.88
568.66	49755.11
568.83	50113.21
568.99	50370.67
569.15	50323.86
569.32	50466.63
569.48	50054.70
569.64	50473.65
569.81	49977.46
569.97	50534.51
570.13	50457.27
570.30	50246.62
570.46	50153.00
570.62	49937.67
570.78	50216.19
570.95	50501.74
571.11	50323.86
571.27	50387.05
571.43	50798.99
571.60	50754.52
571.76	50396.42
571.92	50255.98
572.09	50319.18
572.25	50408.12
572.41	50597.70
572.57	50354.29
572.74	50424.50
572.90	50677.28
573.06	50216.19
573.22	50602.38
573.38	50515.78
573.55	50674.94
573.71	50445.57
573.87	50564.93
574.03	50232.58
574.20	50433.86
574.36	50342.58
574.52	50583.66
574.68	50843.46
574.84	50611.74
575.01	50742.81
575.17	50513.44
575.33	50665.58
575.49	50342.58
575.65	50901.97
575.82	50988.57
575.98	50562.59
576.14	50951.12
576.30	51044.74
576.46	50829.41
576.62	50649.19
576.79	50719.41
576.95	50686.64
577.11	50461.95
577.27	50707.71
577.43	50698.34
577.59	50110.87
577.75	50312.16
577.92	50354.29
578.08	50693.66
578.24	50726.43
578.40	51150.07
578.56	51103.26
578.72	50735.79
578.88	50801.33
579.04	50873.88
579.21	50707.71
579.37	50600.04
579.53	50972.19
579.69	50536.85
579.85	51150.07
580.01	50953.46
580.17	50796.65
580.33	51175.81
580.49	50656.21
580.65	50522.80
580.82	50504.08
580.98	50548.55
581.14	50761.54
581.30	50651.53
581.46	51040.06
581.62	50899.63
581.78	50649.19
581.94	51044.74
582.10	51138.36
582.26	51178.15
582.42	50815.37
582.58	50777.92
582.74	50614.08
582.90	50663.24
583.06	50899.63
583.22	50490.04
583.38	50887.93
583.54	51016.66
583.70	50997.93
583.86	51210.92
584.02	51133.68
584.18	50925.38
584.34	50586.00
584.50	50918.35
584.66	51058.79
584.82	50775.58
584.98	50642.17
585.14	50658.56
585.30	50766.22
585.46	51215.60
585.62	50974.53
585.78	51042.40
585.94	50630.47
586.10	50920.70
586.26	50806.01
586.42	51091.55
586.58	50972.19
586.74	50838.78
586.90	50775.58
587.06	51091.55
587.22	51407.53
587.38	51241.35
587.54	51454.34
587.70	51288.16
587.86	50951.12
588.02	51227.31
588.18	50789.62
588.34	50726.43
588.49	51426.25
588.65	50995.59
588.81	51208.58
588.97	51454.34
589.13	51133.68
589.29	51285.82
589.45	51292.84
589.61	51360.72
589.77	51138.36
589.93	50904.31
590.08	51414.55
590.24	51257.73
590.40	51622.86
590.56	51339.65
590.72	51557.32
590.88	51126.66
591.04	51494.13
591.20	51657.96
591.35	51632.22
591.51	51676.69
591.67	51353.69
591.83	51667.33
591.99	51236.67
592.15	51475.40
592.31	51346.67
592.46	51508.17
592.62	51353.69
592.78	51664.99
592.94	51679.03
593.10	51414.55
593.26	51543.28
593.41	51629.88
593.57	51168.79
593.73	51344.33
593.89	51423.91
594.05	51456.68
594.20	51442.63
594.36	51817.12
594.52	51402.85
594.68	51599.45
594.84	51220.28
594.99	51688.39
595.15	51601.79
595.31	51674.35
595.47	51632.22
595.62	51285.82
595.78	51508.17
595.94	51667.33
596.10	51461.36
596.25	51681.37
596.41	52105.01
596.57	51763.29
596.73	51758.61
596.88	51683.71
597.04	51412.21
597.20	51533.92
597.36	51325.61
597.51	51402.85
597.67	51423.91
597.83	51545.62
597.99	51597.11
598.14	51737.54
598.30	51800.74
598.46	51798.40
598.61	51629.88
598.77	51550.30
598.93	51562.00
599.09	51641.58
599.24	51606.47
599.40	51566.68
599.56	51793.71
599.71	51391.14
599.87	52097.98
600.03	51882.66
600.18	51421.57
600.34	51388.80
600.50	51817.12
600.65	51573.70
600.81	51739.88
600.97	51695.41
601.12	51683.71
601.28	51505.83
601.44	51634.56
601.59	51730.52
601.75	51475.40
601.91	52018.41
602.06	51931.81
602.22	51735.20
602.37	51866.27
602.53	51505.83
602.69	51838.18
602.84	51845.21
603.00	51562.00
603.16	51693.07
603.31	51571.36
603.47	51690.73
603.62	51627.54
603.78	51863.93
603.94	51941.17
604.09	51971.60
604.25	51758.61
604.40	52076.92
604.56	51814.78
604.71	51749.24
604.87	51824.14
605.03	51653.28
605.18	51477.74
605.34	51875.63
605.49	51646.26
605.65	51725.84
605.80	51618.17
605.96	51889.68
606.12	51957.55
606.27	51838.18
606.43	51473.06
606.58	51395.82
606.74	51440.29
606.89	51199.22
607.05	51344.33
607.20	51515.19
607.36	51657.96
607.51	51779.67
607.67	51517.53
607.82	51648.60
607.98	51636.90
608.13	51454.34
608.29	51246.03
608.44	51643.92
608.60	51405.19
608.75	51484.76
608.91	51274.12
609.06	50831.75
609.22	51285.82
609.37	51026.02
609.53	51255.39
609.68	51365.40
609.84	51147.73
609.99	51583.07
610.15	51138.36
610.30	51159.43
610.46	51112.62
610.61	51049.42
610.76	50855.16
610.92	50972.19
611.07	50995.59
611.23	51178.15
611.38	51267.09
611.54	51264.75
611.69	51236.67
611.84	51194.54
612.00	51344.33
612.15	51253.05
612.31	51545.62
612.46	51161.77
612.62	50789.62
612.77	50904.31
612.92	51121.98
613.08	50892.61
613.23	51002.61
613.39	50703.03
613.54	50906.65
613.69	51231.99
613.85	51096.24
614.00	51297.52
614.15	51421.57
614.31	50918.35
614.46	50824.73
614.62	50684.30
614.77	51360.72
614.92	50871.54
615.08	51290.50
615.23	50733.45
615.38	51180.49
615.54	50773.24
615.69	50843.46
615.84	51019.00
616.00	51079.85
616.15	50899.63
616.30	50887.93
616.46	50796.65
616.61	50798.99
616.76	50527.48
616.92	50649.19
617.07	50506.42
617.22	50726.43
617.37	50422.16
617.53	50965.17
617.68	50880.91
617.83	50948.78
617.99	50703.03
618.14	50820.05
618.29	50656.21
618.45	50436.20
618.60	50298.11
618.75	50408.12
618.90	49909.58
619.06	50504.08
619.21	50293.43
619.36	50731.11
619.51	50160.02
619.67	50096.83
619.82	50153.00
619.97	50244.28
620.12	50504.08
620.28	49851.07
620.43	49947.03
620.58	49935.33
620.73	50134.28
620.89	50014.91
621.04	50230.24
621.19	50174.06
621.34	49879.16
621.49	50181.09
621.65	50103.85
621.80	50705.37
621.95	50417.48
622.10	50492.38
622.25	50321.52
622.41	49708.30
622.56	50099.17
622.71	50389.39
622.86	49963.42
623.01	49869.79
623.16	49757.45
623.32	49886.18
623.47	50064.06
623.62	50305.13
623.77	50211.51
623.92	50300.45
624.07	50026.61
624.23	50052.36
624.38	50223.22
624.53	49514.03
624.68	49888.52
624.83	49755.11
624.98	49514.03
625.13	49478.92
625.29	49581.91
625.44	49511.69
625.59	49277.64
625.74	49668.51
625.89	49631.06
626.04	49556.16
626.19	49518.71
626.34	49579.57
626.49	49333.81
626.65	49389.98
626.80	49773.83
626.95	48961.67
627.10	49179.34
627.25	49268.28
627.40	49434.45
627.55	49638.08
627.70	49331.47
627.85	49542.12
628.00	49563.18
628.15	49663.83
628.30	49612.34
628.45	49244.87
628.60	49052.95
628.76	48722.93
628.91	49427.43
629.06	49146.57
629.21	49041.24
629.36	49085.72
629.51	48832.94
629.66	48952.30
629.81	48811.87
629.96	49048.27
630.11	49221.47
630.26	49022.52
630.41	48638.67
630.56	49088.06
630.71	48919.54
630.86	48605.91
631.01	48428.02
631.16	48554.41
631.31	48203.33
631.46	48065.24
631.61	48917.20
631.76	48956.99
631.91	48533.35
632.06	48254.82
632.21	48149.50
632.36	48729.95
632.51	48266.53
632.66	48495.90
632.81	48240.78
632.96	48659.74
633.10	48449.09
633.25	48156.52
633.40	48528.67
633.55	48189.29
633.70	48488.88
633.85	48065.24
634.00	48065.24
634.15	48105.03
634.30	48633.99
634.45	48486.54
634.60	48362.49
634.75	48605.91
634.90	48055.88
635.05	48336.74
635.19	48039.50
635.34	48189.29
635.49	47985.66
635.64	48200.99
635.79	48264.19
635.94	48353.13
636.09	48229.08
636.24	48065.24
636.39	47753.95
636.53	48273.55
636.68	48041.84
636.83	48184.61
636.98	48048.86
637.13	47201.58
637.28	48252.48
637.43	48128.44
637.57	47854.59
637.72	47522.24
637.87	47887.36
638.02	47838.21
638.17	47997.37
638.32	47955.24
638.46	47749.27
638.61	48142.48
638.76	47674.37
638.91	47728.20
639.06	47271.80
639.20	47580.75
639.35	47337.33
639.50	47442.66
639.65	47370.10
639.80	47480.11
639.94	47239.03
640.09	47353.72
640.24	47126.69
640.39	47363.08
640.54	47327.97
640.68	47641.60
640.83	47861.61
640.98	47239.03
641.13	46887.95
641.27	47454.36
641.42	47318.61
641.57	46939.44
641.72	46913.70
641.86	46733.48
642.01	46979.23
642.16	46660.92
642.31	46525.17
642.45	47091.58
642.60	47004.98
642.75	46997.96
642.90	46953.49
643.04	46674.96
643.19	46965.19
643.34	46674.96
643.48	46698.37
643.63	46349.63
643.78	46277.07
643.93	46672.62
644.07	46684.33
644.22	46799.01
644.37	46731.14
644.51	46195.15
644.66	46553.26
644.81	46892.63
644.95	46546.23
645.10	46461.97
645.25	46354.31
645.39	46298.14
645.54	46333.24
645.69	46588.36
645.83	46497.08
645.98	46717.09
646.13	46244.30
646.27	46452.61
646.42	46333.24
646.57	46681.98
646.71	46466.66
646.86	46705.39
647.00	46536.87
647.15	46492.40
647.30	46382.40
647.44	46534.53
647.59	46419.84
647.74	46040.68
647.88	46169.41
648.03	45907.27
648.17	46110.89
648.32	45897.91
648.47	46141.32
648.61	46036.00
648.76	46014.93
648.90	46253.67
649.05	46543.89
649.20	46642.20
649.34	46117.92
649.49	45502.35
649.63	45827.69
649.78	45893.22
649.92	45804.28
650.07	45925.99
650.21	45764.49
650.36	45909.61
650.51	45567.89
650.65	45748.11
650.80	45661.51
650.94	45588.95
651.09	45184.04
651.23	45322.13
651.38	45574.91
651.52	45614.70
651.67	45720.02
651.81	45935.35
651.96	45495.33
652.10	45230.85
652.25	45460.23
652.39	45588.95
652.54	45394.69
652.68	45326.81
652.83	45280.00
652.97	45478.95
653.12	45200.43
653.26	45610.02
653.41	45516.40
653.55	45687.26
653.70	45593.64
653.84	45312.77
653.99	45450.86
654.13	45853.44
654.27	45649.81
654.42	45392.35
654.56	45076.38
654.71	45031.91
654.85	44790.83
655.00	44971.05
655.14	44849.35
655.29	44315.70
655.43	44727.64
655.57	44641.04
655.72	45162.98
655.86	45076.38
656.01	45022.54
656.15	45263.62
656.30	44949.99
656.44	44474.86
656.58	44659.76
656.73	44577.84
656.87	44456.14
657.01	44250.17
657.16	44299.32
657.30	44498.26
657.45	44203.36
657.59	44329.75
657.73	44603.59
657.88	44172.93
658.02	44212.72
658.16	44275.91
658.31	44100.37
658.45	44177.61
658.60	44542.74
658.74	44240.81
658.88	44519.33
659.03	44002.07
659.17	44088.67
659.31	44194.00
659.46	43796.10
659.60	43552.69
659.74	43611.20
659.89	43646.31
660.03	43632.27
660.17	43641.63
660.32	43559.71
660.46	43744.61
660.60	43674.40
660.74	43330.34
660.89	43372.47
661.03	43386.51
661.17	43803.13
661.32	43276.51
661.46	42967.55
661.60	42784.99
661.74	43281.19
661.89	42967.55
662.03	42560.30
662.17	42752.23
662.31	43030.75
662.46	43203.95
662.60	42815.42
662.74	42499.45
662.88	42944.15
663.03	43423.96
663.17	43234.38
663.31	42923.08
663.45	42780.31
663.60	42389.44
663.74	42373.06
663.88	42670.31
664.02	41897.93
664.17	41965.81
664.31	41872.18
664.45	41958.78
664.59	42162.41
664.73	42314.55
664.88	42490.09
665.02	41769.20
665.16	42117.94
665.30	42223.26
665.44	41640.47
665.59	41556.21
665.73	41792.61
665.87	42061.77
666.01	41549.19
666.15	41605.36
666.29	41839.42
666.44	41722.39
666.58	41432.16
666.72	41120.87
666.86	41446.21
667.00	41523.44
667.14	41010.87
667.28	40945.33
667.43	40882.14
667.57	41460.25
667.71	41507.06
667.85	41710.69
667.99	41038.95
668.13	41553.87
668.27	40657.45
668.41	40776.81
668.56	40308.71
668.70	40470.20
668.84	40449.14
668.98	40247.85
669.12	40470.20
669.26	40509.99
669.40	40266.58
669.54	40825.96
669.68	40381.26
669.82	40266.58
669.96	40442.12
670.10	40133.17
670.25	40133.17
670.39	40144.87
670.53	40072.31
670.67	39716.55
670.81	40062.95
670.95	39831.24
671.09	39096.31
671.23	39758.68
671.37	39428.66
671.51	39108.01
671.65	39349.09
671.79	38916.09
671.93	38937.15
672.07	39672.08
672.21	39295.25
672.35	38843.53
672.49	39449.73
672.63	39213.34
672.77	39171.21
672.91	38693.74
673.05	38756.93
673.19	38810.76
673.33	38298.19
673.47	38665.65
673.61	38827.15
673.75	37923.70
673.89	38295.85
674.03	37675.60
674.17	38242.01
674.31	38174.14
674.45	37933.06
674.59	37907.32
674.73	37612.41
674.87	38040.73
675.01	37834.76
675.15	37963.49
675.29	37844.12
675.43	37581.98
675.56	37221.54
675.70	37315.16
675.84	37186.43
675.98	36266.60
676.12	37429.85
676.26	37481.34
676.40	36980.46
676.54	36966.42
676.68	36809.61
676.82	35959.99
676.96	36811.95
677.10	36739.39
677.23	36870.46
677.37	36898.55
677.51	36299.37
677.65	36685.56
677.79	35938.93
677.93	36077.02
678.07	35749.34
678.21	35337.41
678.34	35290.60
678.48	34866.96
678.62	34885.68
678.76	34913.77
678.90	34799.08
679.04	34721.85
679.18	35152.51
679.31	34955.90
679.45	35220.38
679.59	34726.53
679.73	34682.06
679.87	35044.84
680.00	34410.56
680.14	34843.56
680.28	33921.38
680.42	34349.70
680.56	34291.19
680.70	33336.25
680.83	33329.23
680.97	32828.35
681.11	33317.53
681.25	33305.82
681.39	33495.41
681.52	33633.50
681.66	33516.47
681.80	33181.77
681.94	33097.52
682.07	32903.25
682.21	33223.90
682.35	32818.99
682.49	32376.63
682.62	32678.56
682.76	32610.68
682.90	32435.14
683.04	32477.27
683.17	31924.91
683.31	31967.04
683.45	32488.98
683.59	32060.66
683.72	31613.62
683.86	31421.69
684.00	31583.19
684.13	31861.71
684.27	31374.88
684.41	31517.65
684.55	31578.51
684.68	31358.50
684.82	31283.60
684.96	31208.70
685.09	30721.87
685.23	30775.70
685.37	30895.07
685.50	30625.91
685.64	30436.33
685.78	30043.12
685.91	30225.68
686.05	29923.75
686.19	29582.03
686.32	29935.45
686.46	29813.74
686.60	29647.57
686.73	29914.39
686.87	29771.61
687.01	29872.26
687.14	30010.35
687.28	29649.91
687.42	29619.48
687.55	29352.66
687.69	29619.48
687.82	28957.11
687.96	29200.52
688.10	28884.55
688.23	28390.70
688.37	28690.29
688.50	28404.74
688.64	28369.63
688.78	27981.10
688.91	28170.69
689.05	28442.19
689.18	28112.17
689.32	27550.45
689.46	27587.89
689.59	28322.82
689.73	27768.12
689.86	27812.59
690.00	27854.72
690.13	27835.99
690.27	27613.64
690.41	27297.67
690.54	27215.75
690.68	26934.88
690.81	27075.32
690.95	26597.85
691.08	26670.40
691.22	26319.32
691.35	26487.84
691.49	26401.24
691.62	26338.05
691.76	26504.23
691.89	26295.92
692.03	26260.81
692.16	26204.64
692.30	26022.08
692.43	26111.02
692.57	25832.49
692.70	25809.09
692.84	25568.01
692.97	25270.76
693.11	25029.69
693.24	25102.25
693.38	24872.87
693.51	24774.57
693.65	24713.72
693.78	24870.53
693.92	25083.52
694.05	24842.45
694.19	24702.01
694.32	24563.92
694.45	24388.38
694.59	24278.38
694.72	24416.47
694.86	24381.36
694.99	23931.98
695.13	24023.26
695.26	24135.60
695.39	23468.55
695.53	23819.63
695.66	23616.01
695.80	22958.31
695.93	23248.54
696.07	23318.76
696.20	23253.22
696.33	22698.52
696.47	22738.30
696.60	22705.54
696.73	22738.30
696.87	22719.58
697.00	22703.20
697.14	22366.16
697.27	22462.12
697.40	22560.42
697.54	22590.85
697.67	22284.24
697.80	22115.72
697.94	22082.95
698.07	21790.39
698.21	21521.23
698.34	21607.83
698.47	21338.66
698.61	21364.41
698.74	21525.91
698.87	21343.35
699.01	21076.52
699.14	21081.21
699.27	21216.96
699.40	21144.40
699.54	20556.93
699.67	20903.32
699.80	20680.97
699.94	20828.43
700.07	20517.14
700.20	20386.07
700.34	20343.94
700.47	20313.51
700.60	20102.86
700.73	20250.32
700.87	19812.63
701.00	19943.70
701.13	19424.11
701.26	19363.25
701.40	19634.75
701.53	19634.75
701.66	19374.95
701.79	19723.69
701.93	19489.64
702.06	19091.75
702.19	19218.14
702.32	19311.76
702.46	19309.42
702.59	18939.62
702.72	18913.87
702.85	18775.78
702.99	18583.85
703.12	18726.63
703.25	18478.53
703.38	18317.03
703.51	18080.64
703.65	18246.82
703.78	17944.89
703.91	18047.87
704.04	17823.18
704.17	17614.87
704.31	18153.20
704.44	17701.47
704.57	17914.46
704.70	17565.72
704.83	17568.06
704.96	17886.37
705.10	17373.80
705.23	17296.56
>>>>>End Processed Spectral Data<<<<<
