SpectraSuite Data File
++++++++++++++++++++++++++++++++++++
Date: Fri Oct 04 11:39:58 GMT-05:00 2013
User: price-jones
Dark Spectrum Present: No
Reference Spectrum Present: No
Number of Sampled Component Spectra: 1
Spectrometers: USB2+H05261
Integration Time (usec): 100000 (USB2+H05261)
Spectra Averaged: 1 (USB2+H05261)
Boxcar Smoothing: 0 (USB2+H05261)
Correct for Electrical Dark: No (USB2+H05261)
Strobe/Lamp Enabled: No (USB2+H05261)
Correct for Detector Non-linearity: No (USB2+H05261)
Correct for Stray Light: No (USB2+H05261)
Number of Pixels in Processed Spectrum: 2048
>>>>>Begin Processed Spectral Data<<<<<
365.73	11.70
365.92	11.70
366.12	11.70
366.32	0.00
366.52	0.00
366.72	0.00
366.91	0.00
367.11	0.00
367.31	9.36
367.51	11.70
367.70	0.00
367.90	0.00
368.10	0.00
368.30	0.00
368.49	0.00
368.69	16.38
368.89	0.00
369.09	0.00
369.28	18.72
369.48	0.00
369.68	0.00
369.87	4.68
370.07	0.00
370.27	32.77
370.47	88.94
370.66	72.56
370.86	7.02
371.06	28.09
371.25	86.60
371.45	79.58
371.65	128.73
371.84	93.62
372.04	84.26
372.24	102.98
372.44	121.71
372.63	72.56
372.83	168.52
373.03	124.05
373.22	114.69
373.42	145.11
373.62	119.37
373.81	124.05
374.01	124.05
374.21	128.73
374.40	182.56
374.60	121.71
374.79	135.75
374.99	114.69
375.19	131.07
375.38	145.11
375.58	72.56
375.78	159.16
375.97	84.26
376.17	163.84
376.37	238.73
376.56	187.24
376.76	65.54
376.95	79.58
377.15	117.03
377.35	86.60
377.54	126.39
377.74	63.19
377.93	121.71
378.13	124.05
378.33	163.84
378.52	154.48
378.72	154.48
378.91	138.09
379.11	44.47
379.31	93.62
379.50	67.88
379.70	107.66
379.89	110.01
380.09	39.79
380.28	88.94
380.48	124.05
380.68	102.98
380.87	86.60
381.07	81.92
381.26	215.33
381.46	124.05
381.65	131.07
381.85	23.41
382.04	102.98
382.24	124.05
382.43	67.88
382.63	91.28
382.83	110.01
383.02	112.35
383.22	170.86
383.41	105.32
383.61	135.75
383.80	37.45
384.00	60.85
384.19	121.71
384.39	25.75
384.58	124.05
384.78	147.45
384.97	145.11
385.17	140.43
385.36	100.64
385.56	126.39
385.75	77.24
385.95	177.88
386.14	110.01
386.34	100.64
386.53	161.50
386.72	140.43
386.92	189.58
387.11	152.13
387.31	110.01
387.50	126.39
387.70	93.62
387.89	84.26
388.09	128.73
388.28	124.05
388.48	105.32
388.67	88.94
388.86	25.75
389.06	67.88
389.25	107.66
389.45	117.03
389.64	105.32
389.84	128.73
390.03	161.50
390.22	142.77
390.42	147.45
390.61	67.88
390.81	88.94
391.00	128.73
391.19	229.37
391.39	196.60
391.58	194.26
391.78	121.71
391.97	74.90
392.16	79.58
392.36	114.69
392.55	126.39
392.75	175.54
392.94	98.30
393.13	124.05
393.33	65.54
393.52	140.43
393.71	142.77
393.91	93.62
394.10	114.69
394.29	121.71
394.49	88.94
394.68	119.37
394.88	81.92
395.07	156.82
395.26	159.16
395.46	107.66
395.65	86.60
395.84	196.60
396.04	187.24
396.23	156.82
396.42	163.84
396.62	25.75
396.81	163.84
397.00	102.98
397.19	95.96
397.39	110.01
397.58	187.24
397.77	131.07
397.97	117.03
398.16	114.69
398.35	145.11
398.55	138.09
398.74	184.90
398.93	177.88
399.12	119.37
399.32	133.41
399.51	142.77
399.70	142.77
399.90	65.54
400.09	147.45
400.28	198.95
400.47	205.97
400.67	114.69
400.86	187.24
401.05	173.20
401.24	201.29
401.44	145.11
401.63	182.56
401.82	198.95
402.01	154.48
402.21	138.09
402.40	112.35
402.59	187.24
402.78	140.43
402.97	121.71
403.17	163.84
403.36	180.22
403.55	175.54
403.74	145.11
403.93	198.95
404.13	379.17
404.32	564.07
404.51	493.85
404.70	297.25
404.89	191.92
405.09	145.11
405.28	140.43
405.47	79.58
405.66	163.84
405.85	201.29
406.05	112.35
406.24	184.90
406.43	126.39
406.62	273.84
406.81	243.42
407.00	248.10
407.20	269.16
407.39	184.90
407.58	205.97
407.77	252.78
407.96	255.12
408.15	210.65
408.34	194.26
408.54	154.48
408.73	138.09
408.92	77.24
409.11	196.60
409.30	231.71
409.49	142.77
409.68	147.45
409.87	126.39
410.07	145.11
410.26	105.32
410.45	180.22
410.64	177.88
410.83	114.69
411.02	170.86
411.21	147.45
411.40	210.65
411.59	140.43
411.78	145.11
411.98	140.43
412.17	126.39
412.36	203.63
412.55	154.48
412.74	269.16
412.93	177.88
413.12	201.29
413.31	168.52
413.50	203.63
413.69	166.18
413.88	180.22
414.07	149.79
414.26	173.20
414.45	159.16
414.64	191.92
414.83	208.31
415.02	210.65
415.22	173.20
415.41	191.92
415.60	203.63
415.79	133.41
415.98	238.73
416.17	154.48
416.36	210.65
416.55	285.55
416.74	236.39
416.93	203.63
417.12	133.41
417.31	198.95
417.50	220.01
417.69	252.78
417.88	220.01
418.07	180.22
418.26	166.18
418.45	266.82
418.64	250.44
418.83	231.71
419.02	201.29
419.21	308.95
419.39	276.18
419.58	205.97
419.77	166.18
419.96	229.37
420.15	327.68
420.34	250.44
420.53	313.63
420.72	210.65
420.91	203.63
421.10	198.95
421.29	210.65
421.48	210.65
421.67	227.03
421.86	264.48
422.05	273.84
422.24	238.73
422.43	201.29
422.61	259.80
422.80	259.80
422.99	229.37
423.18	231.71
423.37	273.84
423.56	243.42
423.75	259.80
423.94	203.63
424.13	318.31
424.32	196.60
424.50	262.14
424.69	159.16
424.88	191.92
425.07	154.48
425.26	285.55
425.45	294.91
425.64	238.73
425.83	234.05
426.01	248.10
426.20	248.10
426.39	255.12
426.58	236.39
426.77	252.78
426.96	280.86
427.15	259.80
427.33	248.10
427.52	234.05
427.71	182.56
427.90	194.26
428.09	248.10
428.28	285.55
428.46	168.52
428.65	182.56
428.84	250.44
429.03	262.14
429.22	229.37
429.40	222.35
429.59	234.05
429.78	215.33
429.97	306.61
430.16	231.71
430.34	245.76
430.53	229.37
430.72	280.86
430.91	334.70
431.10	222.35
431.28	262.14
431.47	205.97
431.66	224.69
431.85	140.43
432.03	262.14
432.22	241.08
432.41	238.73
432.60	301.93
432.79	231.71
432.97	243.42
433.16	276.18
433.35	236.39
433.54	287.89
433.72	276.18
433.91	292.57
434.10	330.02
434.28	308.95
434.47	285.55
434.66	278.52
434.85	374.49
435.03	533.64
435.22	985.37
435.41	1734.34
435.59	1963.71
435.78	1416.02
435.97	807.48
436.16	461.09
436.34	304.27
436.53	287.89
436.72	318.31
436.90	327.68
437.09	229.37
437.28	238.73
437.46	234.05
437.65	341.72
437.84	320.65
438.02	332.36
438.21	313.63
438.40	297.25
438.58	290.23
438.77	285.55
438.96	306.61
439.14	339.38
439.33	294.91
439.52	280.86
439.70	313.63
439.89	245.76
440.08	290.23
440.26	229.37
440.45	339.38
440.63	259.80
440.82	334.70
441.01	308.95
441.19	252.78
441.38	245.76
441.57	318.31
441.75	334.70
441.94	346.40
442.12	271.50
442.31	283.20
442.50	252.78
442.68	344.06
442.87	262.14
443.05	348.74
443.24	294.91
443.43	299.59
443.61	397.89
443.80	299.59
443.98	344.06
444.17	334.70
444.35	325.33
444.54	283.20
444.73	299.59
444.91	322.99
445.10	299.59
445.28	292.57
445.47	376.83
445.65	327.68
445.84	390.87
446.02	334.70
446.21	269.16
446.39	325.33
446.58	311.29
446.77	346.40
446.95	339.38
447.14	367.46
447.32	330.02
447.51	294.91
447.69	271.50
447.88	308.95
448.06	271.50
448.25	383.85
448.43	283.20
448.62	304.27
448.80	365.12
448.99	308.95
449.17	299.59
449.36	330.02
449.54	358.10
449.73	175.54
449.91	332.36
450.10	313.63
450.28	397.89
450.46	353.42
450.65	334.70
450.83	285.55
451.02	294.91
451.20	360.44
451.39	367.46
451.57	264.48
451.76	334.70
451.94	372.15
452.13	304.27
452.31	344.06
452.49	306.61
452.68	346.40
452.86	334.70
453.05	334.70
453.23	365.12
453.42	313.63
453.60	224.69
453.78	346.40
453.97	297.25
454.15	365.12
454.34	355.76
454.52	334.70
454.70	381.51
454.89	360.44
455.07	243.42
455.26	409.59
455.44	418.96
455.62	418.96
455.81	313.63
455.99	327.68
456.17	374.49
456.36	358.10
456.54	388.53
456.73	337.04
456.91	353.42
457.09	442.36
457.28	409.59
457.46	355.76
457.64	376.83
457.83	409.59
458.01	369.80
458.19	322.99
458.38	379.17
458.56	416.62
458.74	348.74
458.93	332.36
459.11	341.72
459.29	407.25
459.48	379.17
459.66	447.04
459.84	442.36
460.03	428.32
460.21	397.89
460.39	367.46
460.57	390.87
460.76	308.95
460.94	330.02
461.12	360.44
461.31	372.15
461.49	348.74
461.67	315.97
461.85	390.87
462.04	388.53
462.22	816.85
462.40	411.93
462.59	372.15
462.77	306.61
462.95	374.49
463.13	273.84
463.32	442.36
463.50	400.23
463.68	428.32
463.86	402.57
464.05	325.33
464.23	388.53
464.41	311.29
464.59	271.50
464.78	442.36
464.96	365.12
465.14	390.87
465.32	341.72
465.50	355.76
465.69	383.85
465.87	327.68
466.05	404.91
466.23	379.17
466.41	358.10
466.60	372.15
466.78	278.52
466.96	423.64
467.14	407.25
467.32	369.80
467.51	451.72
467.69	404.91
467.87	341.72
468.05	372.15
468.23	376.83
468.41	362.78
468.60	360.44
468.78	402.57
468.96	351.08
469.14	362.78
469.32	411.93
469.50	381.51
469.69	365.12
469.87	416.62
470.05	421.30
470.23	341.72
470.41	414.27
470.59	397.89
470.77	393.21
470.95	425.98
471.14	400.23
471.32	372.15
471.50	379.17
471.68	414.27
471.86	400.23
472.04	372.15
472.22	369.80
472.40	301.93
472.58	421.30
472.77	346.40
472.95	442.36
473.13	526.62
473.31	383.85
473.49	449.38
473.67	402.57
473.85	505.56
474.03	379.17
474.21	404.91
474.39	369.80
474.57	479.81
474.75	447.04
474.93	395.55
475.12	351.08
475.30	379.17
475.48	433.00
475.66	407.25
475.84	369.80
476.02	411.93
476.20	425.98
476.38	409.59
476.56	472.79
476.74	440.02
476.92	461.09
477.10	435.34
477.28	531.30
477.46	421.30
477.64	489.17
477.82	489.17
478.00	449.38
478.18	423.64
478.36	430.66
478.54	418.96
478.72	503.22
478.90	533.64
479.08	449.38
479.26	498.53
479.44	416.62
479.62	423.64
479.80	463.43
479.98	430.66
480.16	451.72
480.34	493.85
480.52	500.87
480.70	507.90
480.88	552.37
481.06	535.98
481.24	500.87
481.41	507.90
481.59	582.79
481.77	505.56
481.95	545.34
482.13	540.66
482.31	486.83
482.49	526.62
482.67	592.16
482.85	620.24
483.03	505.56
483.21	538.32
483.39	606.20
483.57	564.07
483.74	674.07
483.92	557.05
484.10	655.35
484.28	643.65
484.46	636.63
484.64	620.24
484.82	676.41
485.00	638.97
485.18	669.39
485.35	669.39
485.53	617.90
485.71	730.25
485.89	716.20
486.07	627.26
486.25	793.44
486.43	669.39
486.61	725.57
486.78	802.80
486.96	706.84
487.14	662.37
487.32	699.82
487.50	706.84
487.68	751.31
487.85	685.78
488.03	809.83
488.21	786.42
488.39	685.78
488.57	795.78
488.75	702.16
488.92	1093.03
489.10	758.33
489.28	739.61
489.46	685.78
489.64	837.91
489.81	795.78
489.99	718.54
490.17	725.57
490.35	840.25
490.53	770.04
490.70	763.01
490.88	800.46
491.06	725.57
491.24	802.80
491.41	830.89
491.59	788.76
491.77	720.88
491.95	812.17
492.13	653.01
492.30	833.23
492.48	777.06
492.66	770.04
492.84	816.85
493.01	835.57
493.19	786.42
493.37	814.51
493.54	786.42
493.72	779.40
493.90	692.80
494.08	702.16
494.25	826.21
494.43	835.57
494.61	723.23
494.79	772.38
494.96	793.44
495.14	819.19
495.32	748.97
495.49	777.06
495.67	767.70
495.85	842.59
496.02	802.80
496.20	772.38
496.38	753.65
496.55	798.12
496.73	830.89
496.91	765.36
497.09	833.23
497.26	732.59
497.44	725.57
497.62	793.44
497.79	798.12
497.97	802.80
498.14	765.36
498.32	844.93
498.50	753.65
498.67	751.31
498.85	763.01
499.03	777.06
499.20	744.29
499.38	833.23
499.56	777.06
499.73	830.89
499.91	812.17
500.08	849.61
500.26	875.36
500.44	732.59
500.61	889.40
500.79	833.23
500.97	784.08
501.14	866.00
501.32	823.87
501.49	819.19
501.67	812.17
501.84	828.55
502.02	748.97
502.20	730.25
502.37	758.33
502.55	730.25
502.72	844.93
502.90	816.85
503.07	805.14
503.25	840.25
503.43	779.40
503.60	739.61
503.78	809.83
503.95	744.29
504.13	795.78
504.30	748.97
504.48	842.59
504.65	807.48
504.83	908.13
505.01	844.93
505.18	873.02
505.36	858.98
505.53	842.59
505.71	779.40
505.88	884.72
506.06	809.83
506.23	812.17
506.41	851.96
506.58	929.19
506.76	807.48
506.93	891.74
507.11	791.10
507.28	891.74
507.46	898.77
507.63	929.19
507.81	940.90
507.98	842.59
508.16	847.27
508.33	905.79
508.50	894.08
508.68	873.02
508.85	877.70
509.03	877.70
509.20	903.45
509.38	898.77
509.55	945.58
509.73	943.24
509.90	844.93
510.08	835.57
510.25	847.27
510.42	917.49
510.60	807.48
510.77	800.46
510.95	894.08
511.12	894.08
511.30	903.45
511.47	926.85
511.64	983.02
511.82	924.51
511.99	905.79
512.17	947.92
512.34	919.83
512.51	976.00
512.69	976.00
512.86	917.49
513.04	854.30
513.21	917.49
513.38	905.79
513.56	931.53
513.73	990.05
513.90	877.70
514.08	910.47
514.25	873.02
514.43	957.28
514.60	910.47
514.77	903.45
514.95	980.68
515.12	964.30
515.29	954.94
515.47	1069.62
515.64	889.40
515.81	943.24
515.99	884.72
516.16	1013.45
516.33	936.21
516.51	924.51
516.68	858.98
516.85	866.00
517.03	936.21
517.20	919.83
517.37	947.92
517.54	999.41
517.72	901.11
517.89	912.81
518.06	924.51
518.24	919.83
518.41	978.34
518.58	912.81
518.75	929.19
518.93	997.07
519.10	978.34
519.27	938.55
519.45	915.15
519.62	978.34
519.79	950.26
519.96	933.87
520.14	887.06
520.31	1048.56
520.48	910.47
520.65	1050.90
520.83	957.28
521.00	917.49
521.17	959.62
521.34	973.66
521.52	966.64
521.69	1004.09
521.86	1015.79
522.03	1020.47
522.20	1025.15
522.38	992.39
522.55	1020.47
522.72	1008.77
522.89	999.41
523.07	994.73
523.24	950.26
523.41	1004.09
523.58	1046.22
523.75	1011.11
523.92	964.30
524.10	1027.50
524.27	1006.43
524.44	950.26
524.61	1036.86
524.78	999.41
524.96	1018.13
525.13	1032.18
525.30	999.41
525.47	1062.60
525.64	983.02
525.81	978.34
525.98	1074.31
526.16	1006.43
526.33	961.96
526.50	912.81
526.67	999.41
526.84	1020.47
527.01	959.62
527.18	1032.18
527.36	990.05
527.53	959.62
527.70	1076.65
527.87	1036.86
528.04	1055.58
528.21	999.41
528.38	1069.62
528.55	1121.12
528.72	1125.80
528.89	1060.26
529.07	1116.44
529.24	1069.62
529.41	1114.10
529.58	1088.35
529.75	1104.73
529.92	1050.90
530.09	1053.24
530.26	1090.69
530.43	1057.92
530.60	1029.84
530.77	1090.69
530.94	1074.31
531.11	1095.37
531.28	1062.60
531.46	1086.01
531.63	1006.43
531.80	1067.28
531.97	1020.47
532.14	1116.44
532.31	1086.01
532.48	1060.26
532.65	1128.14
532.82	1053.24
532.99	1100.05
533.16	1074.31
533.33	1137.50
533.50	1067.28
533.67	1160.91
533.84	1146.86
534.01	1172.61
534.18	1111.75
534.35	1125.80
534.52	1067.28
534.69	1193.67
534.86	1090.69
535.03	1181.97
535.20	1128.14
535.37	1139.84
535.54	1102.39
535.71	1109.41
535.88	1170.27
536.05	1270.91
536.22	1132.82
536.38	1203.04
536.55	1139.84
536.72	1254.53
536.89	1224.10
537.06	1170.27
537.23	1249.85
537.40	1198.35
537.57	1235.80
537.74	1343.47
537.91	1198.35
538.08	1261.55
538.25	1294.32
538.42	1275.59
538.59	1256.87
538.75	1418.36
538.92	1259.21
539.09	1376.24
539.26	1397.30
539.43	1533.05
539.60	1540.07
539.77	1549.43
539.94	1577.52
540.11	1638.38
540.28	1659.44
540.44	1792.85
540.61	1792.85
540.78	2036.27
540.95	2167.34
541.12	2232.87
541.29	2469.27
541.46	2574.59
541.62	2567.57
541.79	2321.81
541.96	2300.75
542.13	2389.69
542.30	2289.04
542.47	2221.17
542.63	2148.61
542.80	2090.10
542.97	2127.55
543.14	2127.55
543.31	2083.08
543.48	2047.97
543.64	2097.12
543.81	2157.97
543.98	2092.44
544.15	1994.14
544.32	2188.40
544.48	2127.55
544.65	2136.91
544.82	2157.97
544.99	2033.93
545.16	2078.40
545.32	2242.23
545.49	2986.52
545.66	4072.53
545.83	4975.98
546.00	4423.61
546.16	3300.16
546.33	2731.41
546.50	2251.60
546.67	2092.44
546.83	1954.35
547.00	2008.18
547.17	2054.99
547.34	1832.64
547.50	1757.74
547.67	1806.89
547.84	1750.72
548.00	1783.49
548.17	1727.32
548.34	1750.72
548.51	1734.34
548.67	1689.87
548.84	1680.50
549.01	1666.46
549.18	1631.35
549.34	1598.59
549.51	1624.33
549.68	1519.01
549.84	1605.61
550.01	1579.86
550.18	1572.84
550.34	1563.48
550.51	1565.82
550.68	1533.05
550.84	1488.58
551.01	1479.22
551.18	1523.69
551.34	1493.26
551.51	1355.17
551.68	1371.55
551.84	1493.26
552.01	1378.58
552.18	1458.15
552.34	1310.70
552.51	1373.89
552.68	1348.15
552.84	1341.13
553.01	1308.36
553.18	1301.34
553.34	1455.81
553.51	1266.23
553.67	1308.36
553.84	1270.91
554.01	1313.04
554.17	1219.42
554.34	1287.29
554.51	1268.57
554.67	1203.04
554.84	1287.29
555.00	1294.32
555.17	1205.38
555.33	1198.35
555.50	1144.52
555.67	1196.01
555.83	1203.04
556.00	1174.95
556.16	1362.19
556.33	1210.06
556.50	1188.99
556.66	1191.33
556.83	1067.28
556.99	1090.69
557.16	1163.25
557.32	1114.10
557.49	1196.01
557.65	1167.93
557.82	1196.01
557.98	1284.95
558.15	1163.25
558.32	1139.84
558.48	1212.40
558.65	1149.20
558.81	1116.44
558.98	1158.57
559.14	1179.63
559.31	1196.01
559.47	1214.74
559.64	1186.65
559.80	1233.46
559.97	1203.04
560.13	1146.86
560.30	1170.27
560.46	1177.29
560.63	1144.52
560.79	1121.12
560.96	1219.42
561.12	1114.10
561.29	1210.06
561.45	1207.72
561.61	1156.22
561.78	1233.46
561.94	1200.69
562.11	1184.31
562.27	1158.57
562.44	1146.86
562.60	1170.27
562.77	1121.12
562.93	1261.55
563.10	1149.20
563.26	1064.94
563.42	1226.44
563.59	1198.35
563.75	1191.33
563.92	1203.04
564.08	1111.75
564.24	1254.53
564.41	1179.63
564.57	1081.33
564.74	1081.33
564.90	1142.18
565.07	1240.48
565.23	1181.97
565.39	1165.59
565.56	1221.76
565.72	1050.90
565.88	1200.69
566.05	1097.71
566.21	1114.10
566.38	1198.35
566.54	1193.67
566.70	1158.57
566.87	1203.04
567.03	1050.90
567.19	1188.99
567.36	1254.53
567.52	1139.84
567.68	1203.04
567.85	1167.93
568.01	1224.10
568.17	1207.72
568.34	1184.31
568.50	1214.74
568.66	1132.82
568.83	1245.16
568.99	1123.46
569.15	1088.35
569.32	1069.62
569.48	1123.46
569.64	1104.73
569.81	1188.99
569.97	1139.84
570.13	1200.69
570.30	1137.50
570.46	1125.80
570.62	1149.20
570.78	1114.10
570.95	1165.59
571.11	1104.73
571.27	1196.01
571.43	1139.84
571.60	1151.54
571.76	1107.07
571.92	1139.84
572.09	1076.65
572.25	1205.38
572.41	1095.37
572.57	1196.01
572.74	1210.06
572.90	1137.50
573.06	1177.29
573.22	1060.26
573.38	1116.44
573.55	1184.31
573.71	1179.63
573.87	1170.27
574.03	1090.69
574.20	1135.16
574.36	1163.25
574.52	1074.31
574.68	1252.19
574.84	1191.33
575.01	1081.33
575.17	1179.63
575.33	1165.59
575.49	1114.10
575.65	1261.55
575.82	1144.52
575.98	1191.33
576.14	1149.20
576.30	1252.19
576.46	1535.39
576.62	1905.20
576.79	1769.44
576.95	1678.16
577.11	1467.52
577.27	1310.70
577.43	1380.92
577.59	1291.98
577.75	1181.97
577.92	1214.74
578.08	1207.72
578.24	1289.64
578.40	1331.76
578.56	1490.92
578.72	1757.74
578.88	1888.81
579.04	1514.33
579.21	1411.34
579.37	1376.24
579.53	1277.93
579.69	1322.40
579.85	1392.62
580.01	1458.15
580.17	1371.55
580.33	1451.13
580.49	1364.53
580.65	1299.00
580.82	1261.55
580.98	1177.29
581.14	1240.48
581.30	1376.24
581.46	1345.81
581.62	1380.92
581.78	1259.21
581.94	1303.68
582.10	1329.42
582.26	1401.98
582.42	1451.13
582.58	1366.87
582.74	1378.58
582.90	1338.79
583.06	1256.87
583.22	1324.74
583.38	1369.21
583.54	1343.47
583.70	1394.96
583.86	1343.47
584.02	1345.81
584.18	1373.89
584.34	1308.36
584.50	1380.92
584.66	1385.60
584.82	1352.83
584.98	1263.89
585.14	1268.57
585.30	1355.17
585.46	1338.79
585.62	1331.76
585.78	1366.87
585.94	1423.05
586.10	1322.40
586.26	1327.08
586.42	1519.01
586.58	1472.20
586.74	1432.41
586.90	1629.01
587.06	1645.40
587.22	1650.08
587.38	1579.86
587.54	1423.05
587.70	1476.88
587.86	1380.92
588.02	1401.98
588.18	1448.79
588.34	1334.11
588.49	1221.76
588.65	1240.48
588.81	1280.27
588.97	1205.38
589.13	1289.64
589.29	1200.69
589.45	1359.85
589.61	1226.44
589.77	1205.38
589.93	1167.93
590.08	1303.68
590.24	1277.93
590.40	1266.23
590.56	1282.61
590.72	1343.47
590.88	1238.14
591.04	1291.98
591.20	1235.80
591.35	1394.96
591.51	1296.66
591.67	1352.83
591.83	1277.93
591.99	1284.95
592.15	1313.04
592.31	1455.81
592.46	1444.11
592.62	1441.77
592.78	1460.49
592.94	1493.26
593.10	1481.56
593.26	1369.21
593.41	1434.75
593.57	1390.28
593.73	1315.38
593.89	1324.74
594.05	1308.36
594.20	1313.04
594.36	1287.29
594.52	1128.14
594.68	1217.08
594.84	1357.51
594.99	1196.01
595.15	1238.14
595.31	1263.89
595.47	1266.23
595.62	1277.93
595.78	1280.27
595.94	1210.06
596.10	1259.21
596.25	1249.85
596.41	1179.63
596.57	1186.65
596.73	1214.74
596.88	1210.06
597.04	1331.76
597.20	1200.69
597.36	1315.38
597.51	1198.35
597.67	1203.04
597.83	1226.44
597.99	1338.79
598.14	1327.08
598.30	1280.27
598.46	1275.59
598.61	1270.91
598.77	1352.83
598.93	1317.72
599.09	1294.32
599.24	1348.15
599.40	1336.45
599.56	1303.68
599.71	1320.06
599.87	1409.00
600.03	1207.72
600.18	1266.23
600.34	1310.70
600.50	1100.05
600.65	1203.04
600.81	1322.40
600.97	1181.97
601.12	1317.72
601.28	1240.48
601.44	1207.72
601.59	1193.67
601.75	1224.10
601.91	1174.95
602.06	1132.82
602.22	1247.51
602.37	1235.80
602.53	1212.40
602.69	1203.04
602.84	1256.87
603.00	1170.27
603.16	1261.55
603.31	1193.67
603.47	1181.97
603.62	1116.44
603.78	1151.54
603.94	1231.12
604.09	1270.91
604.25	1198.35
604.40	1158.57
604.56	1142.18
604.71	1181.97
604.87	1270.91
605.03	1277.93
605.18	1163.25
605.34	1188.99
605.49	1219.42
605.65	1235.80
605.80	1151.54
605.96	1203.04
606.12	1107.07
606.27	1247.51
606.43	1245.16
606.58	1399.64
606.74	1181.97
606.89	1320.06
607.05	1261.55
607.20	1245.16
607.36	1221.76
607.51	1177.29
607.67	1263.89
607.82	1268.57
607.98	1247.51
608.13	1287.29
608.29	1320.06
608.44	1418.36
608.60	1437.09
608.75	1537.73
608.91	1425.39
609.06	1535.39
609.22	1549.43
609.37	1589.22
609.53	1603.27
609.68	1771.79
609.84	1839.66
609.99	1947.33
610.15	1984.77
610.30	2225.85
610.46	2696.30
610.61	3063.76
610.76	3534.21
610.92	4194.24
611.07	4416.59
611.23	4671.71
611.38	4449.36
611.54	4007.00
611.69	3508.46
611.84	3066.10
612.00	2806.30
612.15	2651.83
612.31	2326.49
612.46	2305.43
612.62	2267.98
612.77	2078.40
612.92	1996.48
613.08	1968.39
613.23	2054.99
613.39	1813.92
613.54	1881.79
613.69	1781.15
613.85	1790.51
614.00	1802.21
614.15	1928.60
614.31	1792.85
614.46	1870.09
614.62	1827.96
614.77	1797.53
614.92	1736.68
615.08	1633.69
615.23	1626.67
615.38	1533.05
615.54	1493.26
615.69	1474.54
615.84	1486.24
616.00	1420.71
616.15	1357.51
616.30	1313.04
616.46	1418.36
616.61	1348.15
616.76	1371.55
616.92	1427.73
617.07	1219.42
617.22	1266.23
617.37	1172.61
617.53	1256.87
617.68	1188.99
617.83	1214.74
617.99	1310.70
618.14	1268.57
618.29	1315.38
618.45	1252.19
618.60	1172.61
618.75	1174.95
618.90	1172.61
619.06	1235.80
619.21	1284.95
619.36	1306.02
619.51	1224.10
619.67	1210.06
619.82	1128.14
619.97	1149.20
620.12	1196.01
620.28	1137.50
620.43	1135.16
620.58	1231.12
620.73	1188.99
620.89	1203.04
621.04	1280.27
621.19	1186.65
621.34	1266.23
621.49	1153.88
621.65	1226.44
621.80	1252.19
621.95	1132.82
622.10	1214.74
622.25	1111.75
622.41	1160.91
622.56	1165.59
622.71	1172.61
622.86	1174.95
623.01	1179.63
623.16	1301.34
623.32	1181.97
623.47	1203.04
623.62	1146.86
623.77	1303.68
623.92	1282.61
624.07	1174.95
624.23	1165.59
624.38	1240.48
624.53	1200.69
624.68	1153.88
624.83	1170.27
624.98	1184.31
625.13	1207.72
625.29	1207.72
625.44	1228.78
625.59	1123.46
625.74	1301.34
625.89	1203.04
626.04	1135.16
626.19	1149.20
626.34	1165.59
626.49	1186.65
626.65	1273.25
626.80	1214.74
626.95	1214.74
627.10	1090.69
627.25	1165.59
627.40	1086.01
627.55	1207.72
627.70	1188.99
627.85	1170.27
628.00	1146.86
628.15	1177.29
628.30	1219.42
628.45	1156.22
628.60	1163.25
628.76	1158.57
628.91	1156.22
629.06	1144.52
629.21	1174.95
629.36	1219.42
629.51	1048.56
629.66	1137.50
629.81	1123.46
629.96	1287.29
630.11	1249.85
630.26	1294.32
630.41	1306.02
630.56	1411.34
630.71	1411.34
630.86	1317.72
631.01	1313.04
631.16	1301.34
631.31	1327.08
631.46	1299.00
631.61	1153.88
631.76	1139.84
631.91	1048.56
632.06	1078.99
632.21	1060.26
632.36	1104.73
632.51	1088.35
632.66	1018.13
632.81	1041.54
632.96	1057.92
633.10	1043.88
633.25	1053.24
633.40	976.00
633.55	1008.77
633.70	1064.94
633.85	957.28
634.00	1043.88
634.15	950.26
634.30	1062.60
634.45	999.41
634.60	1093.03
634.75	922.17
634.90	1055.58
635.05	994.73
635.19	968.98
635.34	1032.18
635.49	952.60
635.64	947.92
635.79	954.94
635.94	1081.33
636.09	968.98
636.24	1006.43
636.39	983.02
636.53	1048.56
636.68	990.05
636.83	1029.84
636.98	1064.94
637.13	940.90
637.28	957.28
637.43	1027.50
637.57	1018.13
637.72	968.98
637.87	1020.47
638.02	924.51
638.17	973.66
638.32	954.94
638.46	950.26
638.61	1004.09
638.76	931.53
638.91	978.34
639.06	973.66
639.20	999.41
639.35	1043.88
639.50	898.77
639.65	1018.13
639.80	1025.15
639.94	947.92
640.09	1032.18
640.24	987.71
640.39	973.66
640.54	1006.43
640.68	1064.94
640.83	957.28
640.98	976.00
641.13	994.73
641.27	929.19
641.42	952.60
641.57	936.21
641.72	945.58
641.86	976.00
642.01	856.64
642.16	1008.77
642.31	931.53
642.45	1008.77
642.60	1011.11
642.75	868.34
642.90	992.39
643.04	894.08
643.19	990.05
643.34	966.64
643.48	940.90
643.63	959.62
643.78	999.41
643.93	1013.45
644.07	1013.45
644.22	968.98
644.37	898.77
644.51	976.00
644.66	954.94
644.81	964.30
644.95	980.68
645.10	992.39
645.25	999.41
645.39	1039.20
645.54	964.30
645.69	926.85
645.83	875.36
645.98	945.58
646.13	896.43
646.27	917.49
646.42	1015.79
646.57	961.96
646.71	896.43
646.86	910.47
647.00	945.58
647.15	926.85
647.30	917.49
647.44	983.02
647.59	924.51
647.74	938.55
647.88	997.07
648.03	880.04
648.17	908.13
648.32	971.32
648.47	940.90
648.61	868.34
648.76	910.47
648.90	929.19
649.05	798.12
649.20	910.47
649.34	936.21
649.49	933.87
649.63	912.81
649.78	964.30
649.92	936.21
650.07	994.73
650.21	973.66
650.36	957.28
650.51	1067.28
650.65	985.37
650.80	940.90
650.94	976.00
651.09	894.08
651.23	908.13
651.38	887.06
651.52	943.24
651.67	1020.47
651.81	933.87
651.96	987.71
652.10	959.62
652.25	990.05
652.39	901.11
652.54	924.51
652.68	929.19
652.83	992.39
652.97	938.55
653.12	877.70
653.26	903.45
653.41	912.81
653.55	938.55
653.70	877.70
653.84	891.74
653.99	922.17
654.13	985.37
654.27	880.04
654.42	973.66
654.56	938.55
654.71	954.94
654.85	908.13
655.00	1022.81
655.14	880.04
655.29	915.15
655.43	887.06
655.57	835.57
655.72	866.00
655.86	933.87
656.01	912.81
656.15	875.36
656.30	903.45
656.44	816.85
656.58	959.62
656.73	898.77
656.87	901.11
657.01	882.38
657.16	917.49
657.30	830.89
657.45	940.90
657.59	971.32
657.73	926.85
657.88	856.64
658.02	964.30
658.16	945.58
658.31	868.34
658.45	884.72
658.60	887.06
658.74	821.53
658.88	882.38
659.03	781.74
659.17	905.79
659.31	884.72
659.46	868.34
659.60	837.91
659.74	880.04
659.89	933.87
660.03	807.48
660.17	851.96
660.32	784.08
660.46	854.30
660.60	929.19
660.74	814.51
660.89	884.72
661.03	819.19
661.17	821.53
661.32	842.59
661.46	849.61
661.60	908.13
661.74	901.11
661.89	978.34
662.03	816.85
662.17	823.87
662.31	945.58
662.46	994.73
662.60	896.43
662.74	807.48
662.88	903.45
663.03	896.43
663.17	884.72
663.31	910.47
663.45	863.66
663.60	727.91
663.74	894.08
663.88	812.17
664.02	805.14
664.17	926.85
664.31	805.14
664.45	809.83
664.59	844.93
664.73	861.32
664.88	952.60
665.02	858.98
665.16	774.72
665.30	875.36
665.44	821.53
665.59	821.53
665.73	830.89
665.87	842.59
666.01	842.59
666.15	840.25
666.29	772.38
666.44	952.60
666.58	898.77
666.72	840.25
666.86	828.55
667.00	938.55
667.14	861.32
667.28	835.57
667.43	788.76
667.57	814.51
667.71	945.58
667.85	807.48
667.99	844.93
668.13	851.96
668.27	856.64
668.41	842.59
668.56	802.80
668.70	786.42
668.84	844.93
668.98	833.23
669.12	826.21
669.26	709.18
669.40	873.02
669.54	823.87
669.68	894.08
669.82	849.61
669.96	739.61
670.10	767.70
670.25	821.53
670.39	816.85
670.53	744.29
670.67	819.19
670.81	727.91
670.95	786.42
671.09	791.10
671.23	889.40
671.37	807.48
671.51	772.38
671.65	784.08
671.79	660.03
671.93	821.53
672.07	887.06
672.21	807.48
672.35	777.06
672.49	671.73
672.63	753.65
672.77	716.20
672.91	758.33
673.05	706.84
673.19	772.38
673.33	695.14
673.47	779.40
673.61	788.76
673.75	739.61
673.89	685.78
674.03	727.91
674.17	667.05
674.31	709.18
674.45	727.91
674.59	723.23
674.73	793.44
674.87	837.91
675.01	765.36
675.15	739.61
675.29	798.12
675.43	746.63
675.56	692.80
675.70	718.54
675.84	720.88
675.98	725.57
676.12	664.71
676.26	770.04
676.40	718.54
676.54	622.58
676.68	702.16
676.82	713.86
676.96	648.33
677.10	805.14
677.23	695.14
677.37	709.18
677.51	699.82
677.65	819.19
677.79	739.61
677.93	643.65
678.07	702.16
678.21	650.67
678.34	706.84
678.48	697.48
678.62	697.48
678.76	664.71
678.90	713.86
679.04	713.86
679.18	683.44
679.31	702.16
679.45	648.33
679.59	748.97
679.73	667.05
679.87	660.03
680.00	765.36
680.14	674.07
680.28	734.93
680.42	676.41
680.56	737.27
680.70	697.48
680.83	692.80
680.97	648.33
681.11	688.12
681.25	713.86
681.39	638.97
681.52	657.69
681.66	599.18
681.80	725.57
681.94	631.94
682.07	657.69
682.21	660.03
682.35	594.50
682.49	617.90
682.62	741.95
682.76	617.90
682.90	641.31
683.04	645.99
683.17	653.01
683.31	622.58
683.45	748.97
683.59	706.84
683.72	662.37
683.86	627.26
684.00	681.10
684.13	660.03
684.27	697.48
684.41	587.47
684.55	613.22
684.68	608.54
684.82	566.41
684.96	664.71
685.09	617.90
685.23	589.82
685.37	571.09
685.50	573.43
685.64	561.73
685.78	538.32
685.91	704.50
686.05	657.69
686.19	655.35
686.32	608.54
686.46	624.92
686.60	552.37
686.73	636.63
686.87	643.65
687.01	617.90
687.14	540.66
687.28	643.65
687.42	592.16
687.55	582.79
687.69	596.84
687.82	594.50
687.96	650.67
688.10	706.84
688.23	594.50
688.37	610.88
688.50	601.52
688.64	535.98
688.78	547.69
688.91	559.39
689.05	517.26
689.18	545.34
689.32	617.90
689.46	568.75
689.59	519.60
689.73	624.92
689.86	540.66
690.00	557.05
690.13	596.84
690.27	491.51
690.41	531.30
690.54	517.26
690.68	543.00
690.81	510.24
690.95	608.54
691.08	573.43
691.22	596.84
691.35	571.09
691.49	547.69
691.62	524.28
691.76	491.51
691.89	468.11
692.03	503.22
692.16	486.83
692.30	566.41
692.43	610.88
692.57	482.15
692.70	547.69
692.84	550.03
692.97	482.15
693.11	484.49
693.24	564.07
693.38	514.92
693.51	554.71
693.65	538.32
693.78	571.09
693.92	496.19
694.05	561.73
694.19	470.45
694.32	507.90
694.45	528.96
694.59	421.30
694.72	463.43
694.86	458.74
694.99	444.70
695.13	498.53
695.26	482.15
695.39	486.83
695.53	496.19
695.66	475.13
695.80	456.40
695.93	454.06
696.07	454.06
696.20	528.96
696.33	416.62
696.47	451.72
696.60	491.51
696.73	507.90
696.87	411.93
697.00	486.83
697.14	465.77
697.27	512.58
697.40	498.53
697.54	484.49
697.67	374.49
697.80	437.68
697.94	451.72
698.07	505.56
698.21	470.45
698.34	477.47
698.47	416.62
698.61	409.59
698.74	463.43
698.87	411.93
699.01	423.64
699.14	444.70
699.27	339.38
699.40	624.92
699.54	447.04
699.67	447.04
699.80	451.72
699.94	393.21
700.07	369.80
700.20	440.02
700.34	442.36
700.47	500.87
700.60	372.15
700.73	400.23
700.87	365.12
701.00	346.40
701.13	414.27
701.26	315.97
701.40	421.30
701.53	355.76
701.66	386.19
701.79	372.15
701.93	411.93
702.06	454.06
702.19	409.59
702.32	425.98
702.46	428.32
702.59	416.62
702.72	362.78
702.85	407.25
702.99	358.10
703.12	418.96
703.25	381.51
703.38	353.42
703.51	430.66
703.65	409.59
703.78	388.53
703.91	425.98
704.04	458.74
704.17	442.36
704.31	339.38
704.44	388.53
704.57	376.83
704.70	386.19
704.83	367.46
704.96	404.91
705.10	421.30
705.23	383.85
>>>>>End Processed Spectral Data<<<<<
