SpectraSuite Data File
++++++++++++++++++++++++++++++++++++
Date: Tue Oct 01 18:27:27 GMT-05:00 2013
User: stostad
Dark Spectrum Present: No
Reference Spectrum Present: No
Number of Sampled Component Spectra: 1
Spectrometers: USB2+H05261
Integration Time (usec): 100000 (USB2+H05261)
Spectra Averaged: 1 (USB2+H05261)
Boxcar Smoothing: 0 (USB2+H05261)
Correct for Electrical Dark: No (USB2+H05261)
Strobe/Lamp Enabled: No (USB2+H05261)
Correct for Detector Non-linearity: No (USB2+H05261)
Correct for Stray Light: No (USB2+H05261)
Number of Pixels in Processed Spectrum: 2048
>>>>>Begin Processed Spectral Data<<<<<
365.73	58.51
365.92	58.51
366.12	58.51
366.32	0.00
366.52	18.72
366.72	0.00
366.91	0.00
367.11	0.00
367.31	0.00
367.51	0.00
367.70	0.00
367.90	0.00
368.10	0.00
368.30	0.00
368.49	0.00
368.69	0.00
368.89	0.00
369.09	0.00
369.28	21.06
369.48	35.11
369.68	0.00
369.87	60.85
370.07	0.00
370.27	67.88
370.47	49.15
370.66	236.39
370.86	337.04
371.06	341.72
371.25	339.38
371.45	306.61
371.65	369.80
371.84	404.91
372.04	315.97
372.24	397.89
372.44	374.49
372.63	360.44
372.83	367.46
373.03	393.21
373.22	301.93
373.42	402.57
373.62	355.76
373.81	407.25
374.01	442.36
374.21	435.34
374.40	381.51
374.60	489.17
374.79	512.58
374.99	390.87
375.19	416.62
375.38	496.19
375.58	510.24
375.78	557.05
375.97	425.98
376.17	559.39
376.37	444.70
376.56	512.58
376.76	489.17
376.95	433.00
377.15	472.79
377.35	456.40
377.54	521.94
377.74	475.13
377.93	503.22
378.13	514.92
378.33	526.62
378.52	573.43
378.72	505.56
378.91	510.24
379.11	489.17
379.31	491.51
379.50	472.79
379.70	557.05
379.89	489.17
380.09	543.00
380.28	521.94
380.48	538.32
380.68	472.79
380.87	468.11
381.07	486.83
381.26	573.43
381.46	543.00
381.65	482.15
381.85	603.86
382.04	554.71
382.24	575.77
382.43	571.09
382.63	634.29
382.83	641.31
383.02	699.82
383.22	627.26
383.41	573.43
383.61	589.82
383.80	653.01
384.00	592.16
384.19	552.37
384.39	603.86
384.58	531.30
384.78	599.18
384.97	594.50
385.17	667.05
385.36	603.86
385.56	699.82
385.75	620.24
385.95	678.76
386.14	613.22
386.34	622.58
386.53	704.50
386.72	645.99
386.92	645.99
387.11	674.07
387.31	692.80
387.50	744.29
387.70	716.20
387.89	678.76
388.09	674.07
388.28	807.48
388.48	788.76
388.67	692.80
388.86	716.20
389.06	732.59
389.25	784.08
389.45	723.23
389.64	732.59
389.84	814.51
390.03	802.80
390.22	791.10
390.42	793.44
390.61	716.20
390.81	748.97
391.00	856.64
391.19	802.80
391.39	856.64
391.58	826.21
391.78	753.65
391.97	821.53
392.16	922.17
392.36	870.68
392.55	922.17
392.75	851.96
392.94	898.77
393.13	891.74
393.33	802.80
393.52	931.53
393.71	971.32
393.91	943.24
394.10	866.00
394.29	978.34
394.49	882.38
394.68	1053.24
394.88	1041.54
395.07	1071.97
395.26	926.85
395.46	943.24
395.65	1032.18
395.84	1060.26
396.04	1088.35
396.23	1060.26
396.42	1076.65
396.62	1053.24
396.81	1027.50
397.00	1130.48
397.19	1081.33
397.39	968.98
397.58	1102.39
397.77	1076.65
397.97	1053.24
398.16	1107.07
398.35	1210.06
398.55	1114.10
398.74	1032.18
398.93	1151.54
399.12	1193.67
399.32	1165.59
399.51	1135.16
399.70	1233.46
399.90	1139.84
400.09	1231.12
400.28	1163.25
400.47	1280.27
400.67	1359.85
400.86	1249.85
401.05	1284.95
401.24	1249.85
401.44	1277.93
401.63	1282.61
401.82	1280.27
402.01	1299.00
402.21	1371.55
402.40	1387.94
402.59	1441.77
402.78	1469.86
402.97	1324.74
403.17	1329.42
403.36	1507.30
403.55	1490.92
403.74	1493.26
403.93	1493.26
404.13	1535.39
404.32	1448.79
404.51	1486.24
404.70	1596.25
404.89	1528.37
405.09	1675.82
405.28	1575.18
405.47	1563.48
405.66	1607.95
405.85	1673.48
406.05	1652.42
406.24	1621.99
406.43	1671.14
406.62	1732.00
406.81	1788.17
407.00	1774.13
407.20	1813.92
407.39	1783.49
407.58	1830.30
407.77	1769.44
407.96	1870.09
408.15	1842.00
408.34	1710.93
408.54	1893.49
408.73	1923.92
408.92	1884.13
409.11	1959.03
409.30	2033.93
409.49	2036.27
409.68	1949.67
409.87	2026.90
410.07	1921.58
410.26	2052.65
410.45	2001.16
410.64	2001.16
410.83	2066.69
411.02	2214.15
411.21	2157.97
411.40	2155.63
411.59	2179.04
411.78	2256.28
411.98	2153.29
412.17	2232.87
412.36	2289.04
412.55	2246.91
412.74	2387.35
412.93	2310.11
413.12	2282.02
413.31	2483.31
413.50	2413.09
413.69	2516.08
413.88	2548.84
414.07	2576.93
414.26	2619.06
414.45	2525.44
414.64	2562.89
414.83	2712.68
415.02	2593.31
415.22	2647.15
415.41	2698.64
415.60	2719.70
415.79	2696.30
415.98	2761.83
416.17	2698.64
416.36	2801.62
416.55	2799.28
416.74	2867.16
416.93	2925.67
417.12	2883.54
417.31	2857.79
417.50	2920.99
417.69	3049.72
417.88	3066.10
418.07	3059.08
418.26	3014.61
418.45	3126.96
418.64	3126.96
418.83	3169.09
419.02	3169.09
419.21	3248.66
419.39	3213.56
419.58	3218.24
419.77	3208.87
419.96	3337.60
420.15	3349.31
420.34	3318.88
420.53	3311.86
420.72	3414.84
420.91	3363.35
421.10	3426.54
421.29	3452.29
421.48	3353.99
421.67	3414.84
421.86	3485.06
422.05	3440.59
422.24	3379.73
422.43	3438.25
422.61	3517.83
422.80	3543.57
422.99	3562.30
423.18	3545.91
423.37	3559.95
423.56	3463.99
423.75	3562.30
423.94	3545.91
424.13	3368.03
424.32	3480.38
424.50	3679.32
424.69	3730.81
424.88	3545.91
425.07	3620.81
425.26	3522.51
425.45	3637.19
425.64	3550.59
425.83	3637.19
426.01	3676.98
426.20	3667.62
426.39	3641.87
426.58	3623.15
426.77	3721.45
426.96	3613.79
427.15	3667.62
427.33	3719.11
427.52	3681.66
427.71	3786.99
427.90	3840.82
428.09	3765.92
428.28	3894.65
428.46	3791.67
428.65	3850.18
428.84	4053.81
429.03	3936.78
429.22	3838.48
429.40	3896.99
429.59	4009.34
429.78	3796.35
429.97	3847.84
430.16	3882.95
430.34	3969.55
430.53	4149.77
430.72	4173.18
430.91	4025.72
431.10	4009.34
431.28	4170.83
431.47	4241.05
431.66	4194.24
431.85	4095.94
432.03	4311.27
432.22	4386.16
432.41	4280.84
432.60	4344.03
432.79	4201.26
432.97	4348.72
433.16	4341.69
433.35	4269.14
433.54	4355.74
433.72	4470.42
433.91	4278.50
434.10	4421.27
434.28	4287.86
434.47	4521.92
434.66	4475.10
434.85	4552.34
435.03	4638.94
435.22	4734.90
435.41	4681.07
435.59	4622.56
435.78	4734.90
435.97	4542.98
436.16	4777.03
436.34	4716.18
436.53	4685.75
436.72	4734.90
436.90	4723.20
437.09	4739.58
437.28	4695.11
437.46	4830.87
437.65	4947.89
437.84	4788.74
438.02	5046.20
438.21	5027.47
438.40	4917.47
438.58	4983.00
438.77	5167.90
438.96	5130.45
439.14	5153.86
439.33	5195.99
439.52	5177.26
439.70	5247.48
439.89	5324.72
440.08	5345.78
440.26	5310.68
440.45	5486.22
440.63	5465.15
440.82	5455.79
441.01	5486.22
441.19	5554.09
441.38	5696.86
441.57	5603.24
441.75	5507.28
441.94	5811.55
442.12	5884.11
442.31	5839.64
442.50	5874.74
442.68	5830.27
442.87	5771.76
443.05	5851.34
443.24	6003.47
443.43	5907.51
443.61	5877.09
443.80	6108.80
443.98	6087.73
444.17	5795.17
444.35	6083.05
444.54	6186.04
444.73	6104.12
444.91	6242.21
445.10	6092.41
445.28	6036.24
445.47	6171.99
445.65	6052.63
445.84	6146.25
446.02	6176.67
446.21	6097.10
446.39	6087.73
446.58	6171.99
446.77	6155.61
446.95	5879.43
447.14	6080.71
447.32	6230.51
447.51	6209.44
447.69	6139.23
447.88	6333.49
448.06	6263.27
448.25	6239.87
448.43	6392.00
448.62	6377.96
448.80	6237.53
448.99	6265.61
449.17	6487.96
449.36	6239.87
449.54	6452.86
449.73	6476.26
449.91	6518.39
450.10	6513.71
450.28	6413.07
450.46	6612.01
450.65	6813.30
450.83	6431.79
451.02	6633.08
451.20	6759.47
451.39	6726.70
451.57	6724.36
451.76	6670.53
451.94	6696.27
452.13	6839.05
452.31	6834.36
452.49	6693.93
452.68	6892.88
452.86	6780.53
453.05	6923.30
453.23	7035.65
453.42	6895.22
453.60	6925.65
453.78	6956.07
453.97	6897.56
454.15	6942.03
454.34	7112.89
454.52	7073.10
454.70	7056.72
454.89	7136.29
455.07	7187.79
455.26	6991.18
455.44	7321.20
455.62	7229.91
455.81	7274.38
455.99	7377.37
456.17	7414.82
456.36	7293.11
456.54	7454.61
456.73	7449.93
456.91	7613.76
457.09	7627.81
457.28	7784.62
457.46	7653.55
457.64	7503.76
457.83	7705.04
458.01	7581.00
458.19	7782.28
458.38	7810.37
458.56	7667.60
458.74	7777.60
458.93	7683.98
459.11	7896.97
459.29	7978.89
459.48	7843.14
459.66	7911.01
459.84	7918.03
460.03	8124.00
460.21	8074.85
460.39	8002.29
460.57	8065.49
460.76	8063.15
460.94	8081.87
461.12	8128.68
461.31	8344.01
461.49	8114.64
461.67	8294.86
461.85	8451.67
462.04	8205.92
462.22	8786.37
462.40	8383.80
462.59	8383.80
462.77	8418.91
462.95	8493.80
463.13	8496.14
463.32	8486.78
463.50	8470.40
463.68	8540.61
463.86	8690.41
464.05	8486.78
464.23	8681.05
464.41	8716.16
464.59	8559.34
464.78	8861.27
464.96	8774.67
465.14	8489.12
465.32	8781.69
465.50	8872.97
465.69	8720.84
465.87	8807.44
466.05	8961.91
466.23	8791.05
466.41	8898.72
466.60	9202.99
466.78	8854.25
466.96	8929.14
467.14	8786.37
467.32	8865.95
467.51	9160.86
467.69	8755.94
467.87	8908.08
468.05	9081.28
468.23	8851.91
468.41	9060.21
468.60	9202.99
468.78	9331.72
468.96	9163.20
469.14	9280.22
469.32	9235.75
469.50	9224.05
469.69	9593.86
469.87	9727.27
470.05	9797.48
470.23	9647.69
470.41	9778.76
470.59	9554.07
470.77	9624.28
470.95	9750.67
471.14	9902.81
471.32	9507.26
471.50	9872.38
471.68	9877.06
471.86	10026.86
472.04	10090.05
472.22	10155.58
472.40	9937.91
472.58	10153.24
472.77	10317.08
472.95	10408.36
473.13	10654.12
473.31	10333.47
473.49	10462.19
473.67	10352.19
473.85	10399.00
474.03	10714.97
474.21	10682.20
474.39	10663.48
474.57	10726.68
474.75	11000.52
474.93	10836.68
475.12	10714.97
475.30	10934.98
475.48	10930.30
475.66	11124.57
475.84	11173.72
476.02	11080.10
476.20	11346.92
476.38	11403.09
476.56	11681.61
476.74	11705.02
476.92	11641.82
477.10	11531.82
477.28	11625.44
477.46	11679.27
477.64	11889.92
477.82	12189.51
478.00	12411.86
478.18	12145.04
478.36	12248.02
478.54	12334.62
478.72	12585.06
478.90	12678.68
479.08	12678.68
479.26	13046.15
479.44	12795.71
479.62	13088.28
479.80	12891.67
479.98	13273.18
480.16	13254.45
480.34	13336.37
480.52	13593.83
480.70	13781.07
480.88	13532.98
481.06	13650.00
481.24	13614.90
481.41	14019.81
481.59	14019.81
481.77	14047.90
481.95	14420.04
482.13	14441.11
482.31	14417.70
482.49	14663.46
482.67	14712.61
482.85	15082.41
483.03	14913.89
483.21	15190.08
483.39	15225.18
483.57	15475.62
483.74	15494.35
483.92	15690.95
484.10	15611.37
484.28	15831.38
484.46	16175.44
484.64	16327.58
484.82	16004.58
485.00	16346.30
485.18	16709.08
485.35	16875.26
485.53	16634.19
485.71	16671.64
485.89	17224.00
486.07	17039.10
486.25	17294.22
486.43	17392.52
486.61	17551.68
486.78	17628.92
486.96	17837.22
487.14	18019.78
487.32	17968.29
487.50	18258.52
487.68	18415.34
487.85	18452.78
488.03	18721.95
488.21	18743.01
488.39	19117.50
488.57	18944.30
488.75	19309.42
488.92	19562.20
489.10	19667.52
489.28	19822.00
489.46	19814.98
489.64	19597.31
489.81	20114.56
489.99	20425.86
490.17	20496.07
490.35	20690.34
490.53	20872.90
490.70	20720.76
490.88	21013.33
491.06	21120.99
491.24	20711.40
491.41	21490.80
491.59	21626.55
491.77	21455.69
491.95	21713.15
492.13	21806.77
492.30	21694.43
492.48	22012.74
492.66	22274.88
492.84	22113.38
493.01	22574.47
493.19	22618.94
493.37	22604.89
493.54	22927.89
493.72	23150.24
493.90	23068.32
494.08	23349.18
494.25	23445.15
494.43	23477.91
494.61	23946.02
494.79	23723.67
494.96	23496.64
495.14	24030.28
495.32	24304.12
495.49	24444.56
495.67	24269.01
495.85	24622.44
496.02	24573.28
496.20	24992.24
496.38	25186.50
496.55	25261.40
496.73	25238.00
496.91	25399.49
497.09	25523.54
497.26	25855.90
497.44	25713.13
497.62	26373.16
497.79	26352.09
497.97	26176.55
498.14	26417.63
498.32	26827.22
498.50	26324.01
498.67	26675.09
498.85	26822.54
499.03	27243.84
499.20	27164.26
499.38	27033.19
499.56	27222.77
499.73	27164.26
499.91	27232.13
500.08	27690.88
500.26	27388.95
500.44	27695.56
500.61	28156.64
500.79	27784.50
500.97	28144.94
501.14	27941.32
501.32	28198.77
501.49	28388.36
501.67	28283.03
501.84	28467.94
502.02	28690.29
502.20	28835.40
502.37	28819.02
502.55	28854.12
502.72	29078.82
502.90	29350.32
503.07	29085.84
503.25	29350.32
503.43	29261.38
503.60	29720.12
503.78	29539.90
503.95	29315.21
504.13	30040.78
504.30	29776.30
504.48	30195.25
504.65	30239.72
504.83	30218.66
505.01	30501.86
505.18	30078.22
505.36	30590.80
505.53	30251.42
505.71	30756.98
505.88	30410.58
506.06	30532.29
506.23	31426.37
506.41	31023.80
506.58	31007.42
506.76	31381.90
506.93	31283.60
507.11	31098.70
507.28	31749.37
507.46	31880.44
507.63	31988.10
507.81	32119.17
507.98	31679.15
508.16	32060.66
508.33	31587.87
508.50	32400.04
508.68	32332.16
508.85	32519.40
509.03	32367.27
509.20	32442.17
509.38	32711.33
509.55	33209.86
509.73	32903.25
509.90	32898.57
510.08	33008.58
510.25	32964.10
510.42	33289.44
510.60	33354.97
510.77	33277.74
510.95	33790.31
511.12	33535.20
511.30	33708.40
511.47	33993.94
511.64	34019.69
511.82	33795.00
511.99	33773.93
512.17	34408.22
512.34	34220.97
512.51	34073.52
512.69	35084.63
512.86	34806.11
513.04	34703.12
513.21	35257.83
513.38	34768.66
513.56	34658.65
513.73	34644.61
513.90	35213.36
514.08	35316.34
514.25	35550.40
514.43	35693.17
514.60	35295.28
514.77	35531.67
514.95	35875.73
515.12	35414.65
515.29	35772.75
515.47	36161.28
515.64	36505.34
515.81	36460.87
515.99	36271.28
516.16	36224.47
516.33	36425.76
516.51	36196.38
516.68	36631.72
516.85	36694.92
517.03	36945.36
517.20	37006.21
517.37	36833.01
517.54	36823.65
517.72	36734.71
517.89	36959.40
518.06	36865.78
518.24	36891.52
518.41	37071.75
518.58	37371.33
518.75	37184.09
518.93	37675.60
519.10	37305.80
519.27	37743.48
519.45	37490.70
519.62	38237.33
519.79	37757.52
519.96	38366.06
520.14	38419.89
520.31	37811.35
520.48	38012.64
520.65	37963.49
520.83	38546.28
521.00	38651.61
521.17	38361.38
521.34	38684.37
521.52	39115.03
521.69	38756.93
521.86	38866.94
522.03	39229.72
522.20	39070.56
522.38	39473.13
522.55	38972.26
522.72	39419.30
522.89	39138.44
523.07	39805.49
523.24	39178.23
523.41	39716.55
523.58	39152.48
523.75	40044.23
523.92	39594.84
524.10	40495.95
524.27	40144.87
524.44	40128.48
524.61	40407.01
524.78	40266.58
524.96	40552.12
525.13	40343.81
525.30	40748.73
525.47	40914.90
525.64	40559.14
525.81	40945.33
525.98	41041.29
526.16	41085.76
526.33	41017.89
526.50	41415.78
526.67	40978.10
526.84	41177.04
527.01	41120.87
527.18	41523.44
527.36	41310.46
527.53	41139.60
527.70	41722.39
527.87	41514.08
528.04	41605.36
528.21	41397.06
528.38	41827.71
528.55	42073.47
528.72	41701.32
528.89	41860.48
529.07	41450.89
529.24	41844.10
529.41	42164.75
529.58	42026.66
529.75	42012.62
529.92	42160.07
530.09	42361.36
530.26	42471.36
530.43	42354.33
530.60	42230.29
530.77	42499.45
530.94	42595.41
531.11	42895.00
531.28	42740.52
531.46	42770.95
531.63	43086.92
531.80	42829.46
531.97	43243.74
532.14	42955.85
532.31	42674.99
532.48	43255.44
532.65	43304.59
532.82	43124.37
532.99	43267.14
533.16	43405.23
533.33	43332.68
533.50	43335.02
533.67	43274.16
533.84	43269.48
534.01	43372.47
534.18	43550.35
534.35	44275.91
534.52	43943.56
534.69	44252.51
534.86	44149.53
535.03	43962.28
535.20	43957.60
535.37	44144.84
535.54	44498.26
535.71	44196.34
535.88	44622.31
536.05	44678.49
536.22	44631.68
536.38	44062.93
536.55	44935.95
536.72	44512.31
536.89	44245.49
537.06	44608.27
537.23	44832.96
537.40	44458.48
537.57	44734.66
537.74	44809.56
537.91	45352.56
538.08	45104.46
538.25	44849.35
538.42	44809.56
538.59	45354.90
538.75	44952.33
538.92	45006.16
539.09	45244.90
539.26	45478.95
539.43	45092.76
539.60	45415.76
539.77	45240.21
539.94	45467.25
540.11	45755.13
540.28	45895.56
540.44	45612.36
540.61	45888.54
540.78	45387.67
540.95	45804.28
541.12	45759.81
541.29	45820.67
541.46	45916.63
541.62	45848.75
541.79	45827.69
541.96	45874.50
542.13	46204.52
542.30	46120.26
542.47	46263.03
542.63	45998.55
542.80	46796.67
542.97	46703.05
543.14	46827.10
543.31	46866.89
543.48	46405.80
543.64	47386.49
543.81	47180.52
543.98	46782.63
544.15	47075.19
544.32	46831.78
544.48	47323.29
544.65	46754.54
544.82	47054.13
544.99	47154.77
545.16	47271.80
545.32	47285.84
545.49	47592.45
545.66	47051.79
545.83	47555.00
546.00	47342.02
546.16	47019.02
546.33	47400.53
546.50	47433.30
546.67	47473.09
546.83	46997.96
547.00	47519.90
547.17	47704.80
547.34	47363.08
547.50	47606.50
547.67	47931.83
547.84	47810.12
548.00	47966.94
548.17	48149.50
548.34	48339.08
548.51	48175.25
548.67	48224.40
548.84	48339.08
549.01	48060.56
549.18	48083.97
549.34	48404.62
549.51	47936.51
549.68	48629.31
549.84	48397.60
550.01	48507.60
550.18	48189.29
550.34	48336.74
550.51	48074.60
550.68	49031.88
550.84	48055.88
551.01	48577.82
551.18	48474.84
551.34	48802.51
551.51	48664.42
551.68	48802.51
551.84	48713.57
552.01	48266.53
552.18	48535.69
552.34	48666.76
552.51	48786.13
552.68	48486.54
552.84	48732.29
553.01	49064.65
553.18	49137.21
553.34	49212.10
553.51	48622.29
553.67	48882.09
553.84	48940.60
554.01	49099.76
554.17	49247.21
554.34	49380.62
554.51	49240.19
554.67	49645.10
554.84	49904.90
555.00	49361.90
555.17	49261.26
555.33	49116.14
555.50	49247.21
555.67	49368.92
555.83	48846.98
556.00	49579.57
556.16	49783.19
556.33	49832.35
556.50	49904.90
556.66	49743.41
556.83	49680.21
556.99	49865.11
557.16	49649.78
557.32	49593.61
557.49	49607.65
557.65	49879.16
557.82	50103.85
557.98	50024.27
558.15	49977.46
558.32	49984.48
558.48	50000.86
558.65	50005.55
558.81	49724.68
558.98	49617.02
559.14	50080.44
559.31	49949.37
559.47	50021.93
559.64	50422.16
559.80	50384.71
559.97	50403.44
560.13	49897.88
560.30	50047.68
560.46	49808.94
560.63	50164.70
560.79	50068.74
560.96	50131.93
561.12	50508.76
561.29	50312.16
561.45	50574.30
561.61	50532.17
561.78	50239.60
561.94	50246.62
562.11	50117.89
562.27	49989.16
562.44	49937.67
562.60	50403.44
562.77	50504.08
562.93	50307.47
563.10	50803.67
563.26	50548.55
563.42	50590.68
563.59	50525.14
563.75	50443.23
563.92	50794.31
564.08	50375.35
564.24	50756.86
564.41	50674.94
564.57	50148.32
564.74	50855.16
564.90	50593.02
565.07	50602.38
565.23	50501.74
565.39	50567.27
565.56	50740.47
565.72	50644.51
565.88	50763.88
566.05	50749.84
566.21	50834.10
566.38	50564.93
566.54	51084.53
566.70	50873.88
566.87	50796.65
567.03	50284.07
567.19	50670.26
567.36	50782.60
567.52	50550.89
567.68	51021.34
567.85	51065.81
568.01	51194.54
568.17	50951.12
568.34	50913.67
568.50	50674.94
568.66	50782.60
568.83	50684.30
568.99	50710.05
569.15	51058.79
569.32	50759.20
569.48	50782.60
569.64	51201.56
569.81	50763.88
569.97	50920.70
570.13	50871.54
570.30	50775.58
570.46	50962.82
570.62	50700.68
570.78	50850.48
570.95	50660.90
571.11	51185.18
571.27	51075.17
571.43	51461.36
571.60	51077.51
571.76	51075.17
571.92	51157.09
572.09	50995.59
572.25	51203.90
572.41	50817.71
572.57	51168.79
572.74	51632.22
572.90	51028.36
573.06	51309.22
573.22	51559.66
573.38	51304.54
573.55	51173.47
573.71	51302.20
573.87	51203.90
574.03	51040.06
574.20	51222.62
574.36	51002.61
574.52	51281.14
574.68	51089.21
574.84	51484.76
575.01	51566.68
575.17	51501.15
575.33	51344.33
575.49	50983.89
575.65	51283.48
575.82	51393.48
575.98	51248.37
576.14	51491.79
576.30	51709.46
576.46	51739.88
576.62	51517.53
576.79	51622.86
576.95	51466.04
577.11	50937.08
577.27	51161.77
577.43	51346.67
577.59	51344.33
577.75	51363.06
577.92	51089.21
578.08	51213.26
578.24	51543.28
578.40	51578.39
578.56	51786.69
578.72	51220.28
578.88	51522.21
579.04	51554.98
579.21	51557.32
579.37	51620.52
579.53	51386.46
579.69	51288.16
579.85	51430.93
580.01	51531.57
580.17	51536.26
580.33	51660.30
580.49	51625.20
580.65	51512.85
580.82	51774.99
580.98	51494.13
581.14	51297.52
581.30	51580.73
581.46	51597.11
581.62	51620.52
581.78	51421.57
581.94	51763.29
582.10	51601.79
582.26	51636.90
582.42	51313.90
582.58	51437.95
582.74	51339.65
582.90	51442.63
583.06	51414.55
583.22	51276.46
583.38	51978.62
583.54	52100.32
583.70	51847.55
583.86	52041.81
584.02	51721.16
584.18	51578.39
584.34	51459.02
584.50	51683.71
584.66	51573.70
584.82	51400.50
584.98	51571.36
585.14	51760.95
585.30	51828.82
585.46	51695.41
585.62	51833.50
585.78	52037.13
585.94	51503.49
586.10	51505.83
586.26	51138.36
586.42	51566.68
586.58	51756.27
586.74	51325.61
586.90	51569.02
587.06	51695.41
587.22	52128.41
587.38	51491.79
587.54	51856.91
587.70	51976.28
587.86	51714.14
588.02	51697.75
588.18	51838.18
588.34	51430.93
588.49	51648.60
588.65	51693.07
588.81	51655.62
588.97	52322.68
589.13	52037.13
589.29	52069.90
589.45	51831.16
589.61	52025.43
589.77	51892.02
589.93	51901.38
590.08	51660.30
590.24	52140.11
590.40	52123.73
590.56	52420.98
590.72	51978.62
590.88	51913.08
591.04	52037.13
591.20	52135.43
591.35	52381.19
591.51	52367.15
591.67	51917.76
591.83	52320.34
591.99	52060.54
592.15	51962.23
592.31	52140.11
592.46	52079.26
592.62	52142.45
592.78	52308.63
592.94	52502.90
593.10	52294.59
593.26	52374.17
593.41	52252.46
593.57	52259.48
593.73	52168.20
593.89	52289.91
594.05	52081.60
594.20	52149.48
594.36	52446.72
594.52	52631.63
594.68	52762.70
594.84	52205.65
594.99	52390.55
595.15	52147.14
595.31	52570.77
595.47	52062.88
595.62	52119.05
595.78	52086.28
595.94	52240.76
596.10	52198.63
596.25	52444.38
596.41	52315.65
596.57	52519.28
596.73	52596.52
596.88	52451.41
597.04	52428.00
597.20	52212.67
597.36	52102.67
597.51	52317.99
597.67	52392.89
597.83	52105.01
597.99	52292.25
598.14	52638.65
598.30	52479.49
598.46	52409.28
598.61	52708.86
598.77	52186.92
598.93	52383.53
599.09	52622.26
599.24	52495.88
599.40	52402.25
599.56	52437.36
599.71	52507.58
599.87	52310.97
600.03	52683.12
600.18	52828.23
600.34	52552.05
600.50	52484.17
600.65	52266.50
600.81	52739.29
600.97	52406.94
601.12	52090.96
601.28	52177.56
601.44	52292.25
601.59	52699.50
601.75	52617.58
601.91	52879.72
602.06	52722.91
602.22	52465.45
602.37	52638.65
602.53	52418.64
602.69	52519.28
602.84	52060.54
603.00	52240.76
603.16	52163.52
603.31	52397.57
603.47	52425.66
603.62	52512.26
603.78	52472.47
603.94	52416.30
604.09	52406.94
604.25	52390.55
604.40	52538.01
604.56	52495.88
604.71	52612.90
604.87	52121.39
605.03	52287.57
605.18	52168.20
605.34	52294.59
605.49	52729.93
605.65	52156.50
605.80	52299.27
605.96	52362.46
606.12	52411.62
606.27	52816.53
606.43	52215.01
606.58	52535.66
606.74	52088.62
606.89	51852.23
607.05	52264.16
607.20	52102.67
607.36	52215.01
607.51	52587.16
607.67	52362.46
607.82	52612.90
607.98	52168.20
608.13	52423.32
608.29	52254.80
608.44	52107.35
608.60	52058.20
608.75	52191.61
608.91	51606.47
609.06	51620.52
609.22	52238.42
609.37	51838.18
609.53	52002.02
609.68	52189.27
609.84	52030.11
609.99	52219.69
610.15	52439.70
610.30	52397.57
610.46	51973.94
610.61	51559.66
610.76	51971.60
610.92	51842.87
611.07	51723.50
611.23	52027.77
611.38	52317.99
611.54	51927.13
611.69	52083.94
611.84	52264.16
612.00	51566.68
612.15	51650.94
612.31	52020.75
612.46	51723.50
612.62	51852.23
612.77	51732.86
612.92	51924.78
613.08	51650.94
613.23	51742.22
613.39	51538.60
613.54	51629.88
613.69	51873.29
613.85	52177.56
614.00	51966.91
614.15	52048.83
614.31	52105.01
614.46	51793.71
614.62	51693.07
614.77	51810.10
614.92	51716.48
615.08	51798.40
615.23	51800.74
615.38	51676.69
615.54	51473.06
615.69	51664.99
615.84	51264.75
616.00	51784.35
616.15	51704.77
616.30	51821.80
616.46	51372.42
616.61	51363.06
616.76	51243.69
616.92	51278.80
617.07	51428.59
617.22	51248.37
617.37	51428.59
617.53	51681.37
617.68	51426.25
617.83	51590.09
617.99	51452.00
618.14	51353.69
618.29	51388.80
618.45	51440.29
618.60	51274.12
618.75	51035.38
618.90	51033.04
619.06	51363.06
619.21	51206.24
619.36	51613.49
619.51	51019.00
619.67	51056.45
619.82	50930.06
619.97	51089.21
620.12	50946.44
620.28	50728.77
620.43	50862.18
620.58	50979.21
620.73	51086.87
620.89	50499.40
621.04	51063.47
621.19	50852.82
621.34	51049.42
621.49	51136.02
621.65	50904.31
621.80	51171.13
621.95	51159.43
622.10	50925.38
622.25	50408.12
622.41	50562.59
622.56	50717.07
622.71	50761.54
622.86	50478.33
623.01	50532.17
623.16	50635.15
623.32	50703.03
623.47	50885.59
623.62	50890.27
623.77	50965.17
623.92	51150.07
624.07	50944.10
624.23	50663.24
624.38	50656.21
624.53	50520.46
624.68	50539.19
624.83	50740.47
624.98	50562.59
625.13	49677.87
625.29	50483.01
625.44	50815.37
625.59	49972.78
625.74	50199.81
625.89	50211.51
626.04	50071.08
626.19	50534.51
626.34	50120.23
626.49	50216.19
626.65	50164.70
626.80	50555.57
626.95	49991.50
627.10	49813.62
627.25	50087.46
627.40	49984.48
627.55	50117.89
627.70	50038.31
627.85	49975.12
628.00	49925.97
628.15	50543.87
628.30	49780.85
628.45	49963.42
628.60	50202.15
628.76	49909.58
628.91	50117.89
629.06	49572.55
629.21	49907.24
629.36	49647.44
629.51	49734.04
629.66	49986.82
629.81	49741.06
629.96	49940.01
630.11	49743.41
630.26	49687.23
630.41	49577.23
630.56	49556.16
630.71	49659.15
630.86	49174.66
631.01	49661.49
631.16	49230.83
631.31	49202.74
631.46	49081.03
631.61	49368.92
631.76	49453.18
631.91	49930.65
632.06	48973.37
632.21	49443.82
632.36	49574.89
632.51	49333.81
632.66	49556.16
632.81	49282.32
632.96	49036.56
633.10	49216.78
633.25	48919.54
633.40	49191.04
633.55	49254.23
633.70	49050.61
633.85	48924.22
634.00	48844.64
634.15	49425.09
634.30	48989.75
634.45	49263.60
634.60	48830.60
634.75	49111.46
634.90	49069.33
635.05	49270.62
635.19	48978.05
635.34	49141.89
635.49	48804.85
635.64	48713.57
635.79	49064.65
635.94	48563.78
636.09	48755.70
636.24	48666.76
636.39	48837.62
636.53	48905.49
636.68	48741.66
636.83	49141.89
636.98	48849.32
637.13	48451.43
637.28	49059.97
637.43	48980.39
637.57	48474.84
637.72	48573.14
637.87	48678.46
638.02	48690.16
638.17	48765.06
638.32	48931.24
638.46	48505.26
638.61	48704.21
638.76	48722.93
638.91	48334.40
639.06	48315.68
639.20	48081.63
639.35	48465.47
639.50	48037.16
639.65	48685.48
639.80	47941.19
639.94	48041.84
640.09	48329.72
640.24	48500.58
640.39	48142.48
640.54	48198.65
640.68	48090.99
640.83	48275.89
640.98	48287.59
641.13	47627.56
641.27	48123.75
641.42	47662.67
641.57	47908.43
641.72	47929.49
641.86	48046.52
642.01	47400.53
642.16	47452.02
642.31	47456.70
642.45	47980.98
642.60	47421.59
642.75	47517.56
642.90	47627.56
643.04	47665.01
643.19	47456.70
643.34	47679.05
643.48	47498.83
643.63	47695.44
643.78	47636.92
643.93	47650.97
644.07	47524.58
644.22	47772.67
644.37	47171.16
644.51	47260.10
644.66	47510.53
644.81	47466.06
644.95	47838.21
645.10	47117.32
645.25	47449.68
645.39	47206.26
645.54	47173.50
645.69	47168.82
645.83	47213.29
645.98	47590.11
646.13	47524.58
646.27	47229.67
646.42	47079.88
646.57	47290.52
646.71	47386.49
646.86	47044.77
647.00	47557.35
647.15	47491.81
647.30	47332.65
647.44	47222.65
647.59	47346.70
647.74	46831.78
647.88	47072.85
648.03	47023.70
648.17	46955.83
648.32	46948.81
648.47	46930.08
648.61	47035.41
648.76	46995.62
648.90	47199.24
649.05	47166.48
649.20	47288.18
649.34	47084.56
649.49	46848.16
649.63	46988.60
649.78	46946.47
649.92	46506.44
650.07	46990.94
650.21	46644.54
650.36	46518.15
650.51	46391.76
650.65	46316.86
650.80	46335.59
650.94	46115.58
651.09	46036.00
651.23	46335.59
651.38	46375.37
651.52	46843.48
651.67	46518.15
651.81	46529.85
651.96	46260.69
652.10	46658.58
652.25	46349.63
652.39	46113.23
652.54	46099.19
652.68	45970.46
652.83	46260.69
652.97	46635.17
653.12	45881.52
653.26	45951.74
653.41	46391.76
653.55	46162.39
653.70	46461.97
653.84	46686.67
653.99	46298.14
654.13	46707.73
654.27	46078.13
654.42	46181.11
654.56	46122.60
654.71	46040.68
654.85	45734.07
655.00	45848.75
655.14	45698.96
655.29	45453.20
655.43	45542.14
655.57	45666.19
655.72	45633.42
655.86	45876.84
656.01	45713.00
656.15	45720.02
656.30	45607.68
656.44	45638.11
656.58	45481.29
656.73	45483.63
656.87	45294.05
657.01	45357.24
657.16	45158.30
657.30	45247.24
657.45	45038.93
657.59	45441.50
657.73	45170.00
657.88	45158.30
658.02	44713.59
658.16	45315.11
658.31	45050.63
658.45	45460.23
658.60	45282.34
658.74	45191.06
658.88	44999.14
659.03	44884.45
659.17	44942.97
659.31	44549.76
659.46	44657.42
659.60	44612.95
659.74	44282.94
659.89	44369.54
660.03	44821.26
660.17	44994.46
660.32	44168.25
660.46	44481.88
660.60	44664.44
660.74	44910.20
660.89	44882.11
661.03	44556.78
661.17	44577.84
661.32	43971.64
661.46	44238.47
661.60	43625.25
661.74	43992.71
661.89	43388.85
662.03	43473.11
662.17	43683.76
662.31	43229.69
662.46	44002.07
662.60	43917.81
662.74	44032.50
662.88	43887.39
663.03	43739.93
663.17	44133.14
663.31	43894.41
663.45	43807.81
663.60	43267.14
663.74	43255.44
663.88	42745.20
664.02	43250.76
664.17	43217.99
664.31	42518.17
664.45	42904.36
664.59	43206.29
664.73	43119.69
664.88	43302.25
665.02	43129.05
665.16	42876.27
665.30	42958.19
665.44	43419.28
665.59	43297.57
665.73	42892.66
665.87	42436.25
666.01	42466.68
666.15	42244.33
666.29	42169.43
666.44	42628.18
666.58	41841.76
666.72	41914.31
666.86	42366.04
667.00	42471.36
667.14	41937.72
667.28	41989.21
667.43	42057.09
667.57	42213.90
667.71	42422.21
667.85	42005.59
667.99	42101.56
668.13	41771.54
668.27	41619.41
668.41	41436.84
668.56	41015.55
668.70	41565.57
668.84	41551.53
668.98	41443.87
669.12	41275.35
669.26	41123.21
669.40	41001.50
669.54	41251.94
669.68	41067.04
669.82	40889.16
669.96	41170.02
670.10	40870.43
670.25	41088.10
670.39	41090.44
670.53	41041.29
670.67	40725.32
670.81	40690.21
670.95	40500.63
671.09	40294.66
671.23	40259.55
671.37	40491.27
671.51	40217.43
671.65	39686.12
671.79	39775.06
671.93	40158.91
672.07	40556.80
672.21	40252.53
672.35	39856.98
672.49	39922.52
672.63	39854.64
672.77	39693.15
672.91	39627.61
673.05	39377.17
673.19	39505.90
673.33	39452.07
673.47	39526.97
673.61	39622.93
673.75	39194.61
673.89	39096.31
674.03	39002.69
674.17	38660.97
674.31	39365.47
674.45	38944.17
674.59	38576.71
674.73	39093.97
674.87	38939.49
675.01	38628.20
675.15	38794.38
675.29	38890.34
675.43	38600.12
675.56	38103.92
675.70	38164.78
675.84	37813.70
675.98	36779.18
676.12	38059.45
676.26	37914.34
676.40	37684.97
676.54	37816.04
676.68	37469.64
676.82	36797.90
676.96	37347.93
677.10	37633.47
677.23	37216.86
677.37	37345.59
677.51	36994.51
677.65	37317.50
677.79	36727.69
677.93	36875.14
678.07	36224.47
678.21	36407.03
678.34	36233.83
678.48	35899.14
678.62	35938.93
678.76	35669.76
678.90	35655.72
679.04	35648.70
679.18	35814.88
679.31	35454.44
679.45	35761.05
679.59	35566.78
679.73	35721.26
679.87	35391.24
680.00	35271.87
680.14	35215.70
680.28	35002.71
680.42	35302.30
680.56	34981.65
680.70	34506.52
680.83	34457.37
680.97	34134.37
681.11	34375.45
681.25	34361.40
681.39	34089.90
681.52	34529.92
681.66	34216.29
681.80	33954.15
681.94	34134.37
682.07	33954.15
682.21	33727.12
682.35	33750.52
682.49	33284.76
682.62	33256.67
682.76	33486.04
682.90	33385.40
683.04	32723.03
683.17	32814.31
683.31	32531.11
683.45	32790.91
683.59	32699.62
683.72	32535.79
683.86	32294.71
684.00	31957.67
684.13	32268.97
684.27	31887.46
684.41	32723.03
684.55	31770.43
684.68	31887.46
684.82	32098.11
684.96	31461.48
685.09	31143.17
685.23	31154.87
685.37	31349.14
685.50	31630.00
685.64	30925.50
685.78	30864.64
685.91	31304.67
686.05	30590.80
686.19	30714.85
686.32	30829.54
686.46	30632.93
686.60	30054.82
686.73	30363.77
686.87	30799.11
687.01	30291.21
687.14	30122.69
687.28	30150.78
687.42	30403.56
687.55	30008.01
687.69	30368.45
687.82	29720.12
687.96	29958.86
688.10	29682.67
688.23	29621.82
688.37	29113.92
688.50	29179.46
688.64	28821.36
688.78	29109.24
688.91	28716.03
689.05	28776.89
689.18	29118.60
689.32	28477.30
689.46	28409.42
689.59	28844.76
689.73	28713.69
689.86	28507.72
690.00	28573.26
690.13	28292.40
690.27	28336.87
690.41	27861.74
690.54	27611.30
690.68	27810.25
690.81	27566.83
690.95	27538.74
691.08	27285.97
691.22	27302.35
691.35	27381.93
691.49	27491.93
691.62	26766.37
691.76	27168.94
691.89	26834.24
692.03	27002.76
692.16	27077.66
692.30	26787.43
692.43	26675.09
692.57	26518.27
692.70	26581.46
692.84	25715.47
692.97	25968.24
693.11	25563.33
693.24	25755.26
693.38	25553.97
693.51	25647.59
693.65	25769.30
693.78	25331.62
693.92	25500.14
694.05	25530.56
694.19	24952.45
694.32	24936.07
694.45	24879.89
694.59	24889.26
694.72	24959.47
694.86	25010.96
694.99	24922.02
695.13	24828.40
695.26	24694.99
695.39	24144.97
695.53	24435.19
695.66	24154.33
695.80	23632.39
695.93	23470.89
696.07	23744.73
696.20	23653.45
696.33	23325.78
696.47	23309.40
696.60	23520.04
696.73	23283.65
696.87	23009.81
697.00	23356.21
697.14	23136.20
697.27	22991.08
697.40	23257.90
697.54	23140.88
697.67	22724.26
697.80	22941.93
697.94	22686.81
698.07	22141.47
698.21	22230.41
698.34	22043.17
698.47	22082.95
698.61	21879.33
698.74	21909.75
698.87	21888.69
699.01	21869.97
699.14	21790.39
699.27	21708.47
699.40	21308.24
699.54	21312.92
699.67	21373.77
699.80	21469.73
699.94	21420.58
700.07	21179.51
700.20	21097.59
700.34	20655.23
700.47	21010.99
700.60	20739.49
700.73	20678.63
700.87	20645.87
701.00	20334.57
701.13	20329.89
701.26	20287.76
701.40	20086.48
701.53	19901.58
701.66	19957.75
701.79	19639.44
701.93	19775.19
702.06	19728.38
702.19	19503.68
702.32	19667.52
702.46	19601.99
702.59	19859.45
702.72	19510.71
702.85	19349.21
702.99	19051.96
703.12	19094.09
703.25	19168.99
703.38	18789.82
703.51	18647.05
703.65	18530.02
703.78	18457.46
703.91	18558.11
704.04	18288.95
704.17	18221.07
704.31	18310.01
704.44	17980.00
704.57	18082.98
704.70	17980.00
704.83	18216.39
704.96	18094.68
705.10	18204.69
705.23	18150.85
>>>>>End Processed Spectral Data<<<<<
