SpectraSuite Data File
++++++++++++++++++++++++++++++++++++
Date: Fri Oct 04 11:39:19 GMT-05:00 2013
User: price-jones
Dark Spectrum Present: No
Reference Spectrum Present: No
Number of Sampled Component Spectra: 1
Spectrometers: USB2+H05261
Integration Time (usec): 100000 (USB2+H05261)
Spectra Averaged: 1 (USB2+H05261)
Boxcar Smoothing: 0 (USB2+H05261)
Correct for Electrical Dark: No (USB2+H05261)
Strobe/Lamp Enabled: No (USB2+H05261)
Correct for Detector Non-linearity: No (USB2+H05261)
Correct for Stray Light: No (USB2+H05261)
Number of Pixels in Processed Spectrum: 2048
>>>>>Begin Processed Spectral Data<<<<<
365.73	51.49
365.92	51.49
366.12	51.49
366.32	0.00
366.52	0.00
366.72	9.36
366.91	0.00
367.11	0.00
367.31	0.00
367.51	0.00
367.70	0.00
367.90	0.00
368.10	0.00
368.30	0.00
368.49	0.00
368.69	0.00
368.89	0.00
369.09	0.00
369.28	0.00
369.48	0.00
369.68	0.00
369.87	46.81
370.07	0.00
370.27	25.75
370.47	133.41
370.66	241.08
370.86	229.37
371.06	271.50
371.25	257.46
371.45	229.37
371.65	269.16
371.84	318.31
372.04	344.06
372.24	243.42
372.44	367.46
372.63	393.21
372.83	351.08
373.03	332.36
373.22	252.78
373.42	414.27
373.62	369.80
373.81	418.96
374.01	409.59
374.21	337.04
374.40	353.42
374.60	353.42
374.79	337.04
374.99	294.91
375.19	386.19
375.38	435.34
375.58	337.04
375.78	397.89
375.97	365.12
376.17	430.66
376.37	367.46
376.56	447.04
376.76	395.55
376.95	369.80
377.15	393.21
377.35	365.12
377.54	433.00
377.74	320.65
377.93	376.83
378.13	360.44
378.33	383.85
378.52	388.53
378.72	376.83
378.91	437.68
379.11	416.62
379.31	458.74
379.50	407.25
379.70	468.11
379.89	500.87
380.09	491.51
380.28	397.89
380.48	484.49
380.68	514.92
380.87	496.19
381.07	461.09
381.26	505.56
381.46	545.34
381.65	451.72
381.85	475.13
382.04	489.17
382.24	418.96
382.43	400.23
382.63	475.13
382.83	507.90
383.02	444.70
383.22	533.64
383.41	418.96
383.61	470.45
383.80	533.64
384.00	528.96
384.19	505.56
384.39	533.64
384.58	484.49
384.78	489.17
384.97	634.29
385.17	519.60
385.36	512.58
385.56	608.54
385.75	486.83
385.95	538.32
386.14	594.50
386.34	582.79
386.53	615.56
386.72	505.56
386.92	643.65
387.11	613.22
387.31	603.86
387.50	622.58
387.70	610.88
387.89	531.30
388.09	547.69
388.28	505.56
388.48	566.41
388.67	713.86
388.86	589.82
389.06	552.37
389.25	685.78
389.45	617.90
389.64	564.07
389.84	627.26
390.03	617.90
390.22	603.86
390.42	638.97
390.61	638.97
390.81	664.71
391.00	688.12
391.19	791.10
391.39	660.03
391.58	648.33
391.78	678.76
391.97	657.69
392.16	767.70
392.36	716.20
392.55	723.23
392.75	786.42
392.94	669.39
393.13	741.95
393.33	713.86
393.52	713.86
393.71	765.36
393.91	814.51
394.10	641.31
394.29	676.41
394.49	767.70
394.68	795.78
394.88	734.93
395.07	770.04
395.26	788.76
395.46	840.25
395.65	786.42
395.84	795.78
396.04	945.58
396.23	833.23
396.42	844.93
396.62	861.32
396.81	868.34
397.00	854.30
397.19	873.02
397.39	922.17
397.58	940.90
397.77	894.08
397.97	933.87
398.16	947.92
398.35	990.05
398.55	905.79
398.74	936.21
398.93	938.55
399.12	983.02
399.32	858.98
399.51	957.28
399.70	1078.99
399.90	983.02
400.09	976.00
400.28	966.64
400.47	1043.88
400.67	1144.52
400.86	1048.56
401.05	1109.41
401.24	1067.28
401.44	1093.03
401.63	1151.54
401.82	1146.86
402.01	1132.82
402.21	1179.63
402.40	1128.14
402.59	1111.75
402.78	1160.91
402.97	1191.33
403.17	1156.22
403.36	1198.35
403.55	1214.74
403.74	1186.65
403.93	1226.44
404.13	1357.51
404.32	1226.44
404.51	1177.29
404.70	1238.14
404.89	1273.25
405.09	1329.42
405.28	1247.51
405.47	1397.30
405.66	1306.02
405.85	1303.68
406.05	1371.55
406.24	1359.85
406.43	1425.39
406.62	1467.52
406.81	1413.68
407.00	1446.45
407.20	1448.79
407.39	1439.43
407.58	1556.46
407.77	1526.03
407.96	1502.62
408.15	1561.14
408.34	1497.94
408.54	1647.74
408.73	1570.50
408.92	1610.29
409.11	1448.79
409.30	1600.93
409.49	1614.97
409.68	1659.44
409.87	1575.18
410.07	1685.19
410.26	1610.29
410.45	1827.96
410.64	1757.74
410.83	1666.46
411.02	1776.47
411.21	1785.83
411.40	1872.43
411.59	1816.26
411.78	1785.83
411.98	1877.11
412.17	1909.88
412.36	1816.26
412.55	1905.20
412.74	1968.39
412.93	1994.14
413.12	1989.46
413.31	2179.04
413.50	2022.22
413.69	2143.93
413.88	2083.08
414.07	2097.12
414.26	2092.44
414.45	2071.37
414.64	2207.13
414.83	2176.70
415.02	2179.04
415.22	2209.47
415.41	2359.26
415.60	2263.30
415.79	2286.70
415.98	2377.98
416.17	2331.17
416.36	2300.75
416.55	2413.09
416.74	2441.18
416.93	2466.92
417.12	2340.54
417.31	2590.97
417.50	2497.35
417.69	2661.19
417.88	2579.27
418.07	2459.90
418.26	2546.50
418.45	2513.74
418.64	2684.59
418.83	2689.28
419.02	2761.83
419.21	2710.34
419.39	2722.04
419.58	2696.30
419.77	2612.04
419.96	2775.88
420.15	2899.92
420.34	2626.08
420.53	2829.71
420.72	2928.01
420.91	2740.77
421.10	2923.33
421.29	2883.54
421.48	2843.75
421.67	2951.42
421.86	2937.37
422.05	3040.36
422.24	2946.73
422.43	2885.88
422.61	2918.65
422.80	2956.10
422.99	3038.02
423.18	3045.04
423.37	2963.12
423.56	3047.38
423.75	3091.85
423.94	2932.69
424.13	2806.30
424.32	2986.52
424.50	3021.63
424.69	3087.17
424.88	3105.89
425.07	3089.51
425.26	2913.97
425.45	3157.38
425.64	2979.50
425.83	3019.29
426.01	3021.63
426.20	3101.21
426.39	3023.97
426.58	3049.72
426.77	3098.87
426.96	3169.09
427.15	3021.63
427.33	3098.87
427.52	3178.45
427.71	3255.69
427.90	3171.43
428.09	3300.16
428.28	3222.92
428.46	3370.37
428.65	3300.16
428.84	3403.14
429.03	3379.73
429.22	3346.97
429.40	3265.05
429.59	3536.55
429.78	3370.37
429.97	3283.77
430.16	3222.92
430.34	3328.24
430.53	3515.48
430.72	3400.80
430.91	3410.16
431.10	3414.84
431.28	3557.61
431.47	3534.21
431.66	3602.08
431.85	3684.00
432.03	3709.75
432.22	3756.56
432.41	3468.67
432.60	3719.11
432.79	3588.04
432.97	3602.08
433.16	3749.54
433.35	3660.60
433.54	3838.48
433.72	3740.18
433.91	3775.28
434.10	3801.03
434.28	3889.97
434.47	3889.97
434.66	3822.09
434.85	3845.50
435.03	4014.02
435.22	3971.89
435.41	4362.76
435.59	4243.39
435.78	4124.02
435.97	4051.47
436.16	3983.59
436.34	4067.85
436.53	3990.61
436.72	4060.83
436.90	3929.76
437.09	4187.22
437.28	3922.74
437.46	3960.19
437.65	4187.22
437.84	4100.62
438.02	4049.13
438.21	4124.02
438.40	4201.26
438.58	4283.18
438.77	4255.09
438.96	4231.69
439.14	4327.65
439.33	4486.81
439.52	4444.68
439.70	4498.51
439.89	4573.41
440.08	4545.32
440.26	4643.62
440.45	4519.57
440.63	4582.77
440.82	4793.42
441.01	4535.96
441.19	4681.07
441.38	4784.06
441.57	4952.57
441.75	4727.88
441.94	4830.87
442.12	4868.31
442.31	5057.90
442.50	4992.36
442.68	4926.83
442.87	4940.87
443.05	5081.30
443.24	5032.15
443.43	4983.00
443.61	5109.39
443.80	5238.12
443.98	5057.90
444.17	4835.55
444.35	5095.35
444.54	5247.48
444.73	5212.37
444.91	5053.22
445.10	5167.90
445.28	4957.25
445.47	5081.30
445.65	5057.90
445.84	5174.92
446.02	5111.73
446.21	5146.84
446.39	5167.90
446.58	5313.02
446.77	5116.41
446.95	4997.04
447.14	5217.05
447.32	5369.19
447.51	5240.46
447.69	5401.96
447.88	5142.16
448.06	5205.35
448.25	5146.84
448.43	5317.70
448.62	5385.57
448.80	5343.44
448.99	5247.48
449.17	5362.17
449.36	5348.12
449.54	5427.70
449.73	5556.43
449.91	5568.13
450.10	5523.66
450.28	5624.31
450.46	5591.54
450.65	5432.38
450.83	5504.94
451.02	5722.61
451.20	5643.03
451.39	5621.97
451.57	5565.79
451.76	5577.50
451.94	5743.67
452.13	5767.08
452.31	5619.63
452.49	5579.84
452.68	5706.23
452.86	5645.37
453.05	5844.32
453.23	5912.19
453.42	5717.93
453.60	5886.45
453.78	5741.33
453.97	5788.14
454.15	5858.36
454.34	5954.32
454.52	5912.19
454.70	5975.39
454.89	5746.02
455.07	5837.30
455.26	6143.91
455.44	6045.60
455.62	6125.18
455.81	6059.65
455.99	6078.37
456.17	6155.61
456.36	6214.12
456.54	6359.24
456.73	6258.59
456.91	6487.96
457.09	6195.40
457.28	6370.94
457.46	6169.65
457.64	6534.78
457.83	6403.71
458.01	6422.43
458.19	6502.01
458.38	6382.64
458.56	6558.18
458.74	6663.51
458.93	6593.29
459.11	6700.95
459.29	6544.14
459.48	6572.22
459.66	6771.17
459.84	6693.93
460.03	6820.32
460.21	6715.00
460.39	6878.83
460.57	6626.06
460.76	6825.00
460.94	6869.47
461.12	6913.94
461.31	6712.66
461.49	6764.15
461.67	6981.82
461.85	7056.72
462.04	7080.12
462.22	7463.97
462.40	7206.51
462.59	7133.95
462.77	7007.56
462.95	7140.97
463.13	7056.72
463.32	7279.07
463.50	7075.44
463.68	7157.36
463.86	7227.57
464.05	7073.10
464.23	7311.83
464.41	7293.11
464.59	7073.10
464.78	7417.16
464.96	7475.67
465.14	7220.55
465.32	7499.08
465.50	7501.42
465.69	7466.31
465.87	7438.22
466.05	7515.46
466.23	7442.90
466.41	7445.24
466.60	7733.13
466.78	7557.59
466.96	7468.65
467.14	7545.89
467.32	7777.60
467.51	7702.70
467.69	7559.93
467.87	7637.17
468.05	7803.35
468.23	7683.98
468.41	7721.43
468.60	7655.89
468.78	7836.11
468.96	7786.96
469.14	7836.11
469.32	7885.26
469.50	7742.49
469.69	8030.38
469.87	7978.89
470.05	8194.22
470.23	8084.21
470.41	8072.51
470.59	8205.92
470.77	8065.49
470.95	8063.15
471.14	8093.57
471.32	7964.84
471.50	8325.29
471.68	8383.80
471.86	8325.29
472.04	8353.37
472.22	8519.55
472.40	8245.71
472.58	8578.06
472.77	8421.25
472.95	8423.59
473.13	8751.26
473.31	8734.88
473.49	8454.02
473.67	8753.60
473.85	8561.68
474.03	8964.25
474.21	8879.99
474.39	9039.15
474.57	9036.81
474.75	9085.96
474.93	9249.80
475.12	9259.16
475.30	9221.71
475.48	9221.71
475.66	9221.71
475.84	9238.09
476.02	9369.16
476.20	9329.38
476.38	9511.94
476.56	9731.95
476.74	9465.13
476.92	9839.61
477.10	9767.06
477.28	9954.30
477.46	10033.88
477.64	10251.55
477.82	10094.73
478.00	10380.28
478.18	10293.68
478.36	10146.22
478.54	10492.62
478.72	10651.78
478.90	10572.20
479.08	10574.54
479.26	10665.82
479.44	10890.51
479.62	10806.25
479.80	10792.21
479.98	11225.21
480.16	11105.84
480.34	11234.57
480.52	11358.62
480.70	11419.47
480.88	11185.42
481.06	11431.18
481.24	11548.20
481.41	11681.61
481.59	11616.08
481.77	11985.88
481.95	12070.14
482.13	12107.59
482.31	12166.10
482.49	12173.13
482.67	12262.07
482.85	12189.51
483.03	12613.15
483.21	12500.80
483.39	12877.63
483.57	12870.61
483.74	12830.82
483.92	13055.51
484.10	12985.29
484.28	13165.51
484.46	13439.36
484.64	13563.40
484.82	13547.02
485.00	13530.64
485.18	13659.37
485.35	13874.70
485.53	14045.55
485.71	13947.25
485.89	14284.29
486.07	14104.07
486.25	14473.87
486.43	14508.98
486.61	14483.24
486.78	14609.62
486.96	14656.43
487.14	14951.34
487.32	14988.79
487.50	15082.41
487.68	15236.89
487.85	15590.31
488.03	15620.74
488.21	15885.22
488.39	15484.98
488.57	15747.12
488.75	15669.89
488.92	16325.24
489.10	16446.94
489.28	16400.13
489.46	16512.48
489.64	16552.27
489.81	16987.61
489.99	16402.47
490.17	16922.07
490.35	17319.96
490.53	17371.46
490.70	17191.23
490.88	17289.54
491.06	17565.72
491.24	17771.69
491.41	17797.43
491.59	17972.97
491.77	17923.82
491.95	18101.70
492.13	18457.46
492.30	18321.71
492.48	18228.09
492.66	18328.74
492.84	18132.13
493.01	18644.71
493.19	18721.95
493.37	18974.72
493.54	19080.05
493.72	19096.43
493.90	19103.45
494.08	19538.79
494.25	19527.09
494.43	19618.37
494.61	19807.95
494.79	19976.47
494.96	19892.21
495.14	19679.22
495.32	20013.92
495.49	20016.26
495.67	20259.68
495.85	20559.27
496.02	20744.17
496.20	20966.52
496.38	20847.15
496.55	20627.14
496.73	21238.02
496.91	21163.12
497.09	21226.32
497.26	21191.21
497.44	21326.96
497.62	21678.04
497.79	21710.81
497.97	21556.33
498.14	21671.02
498.32	22038.48
498.50	22207.00
498.67	22155.51
498.85	22228.07
499.03	22099.34
499.20	22391.91
499.38	22375.52
499.56	22691.49
499.73	22576.81
499.91	22876.40
500.08	23033.21
500.26	22932.57
500.44	23124.49
500.61	22986.40
500.79	23379.61
500.97	23498.98
501.14	23662.82
501.32	23559.83
501.49	23562.17
501.67	23410.04
501.84	23410.04
502.02	23751.76
502.20	23601.96
502.37	23892.19
502.55	23939.00
502.72	24500.73
502.90	24416.47
503.07	24116.88
503.25	24159.01
503.43	24437.53
503.60	24521.79
503.78	24655.20
503.95	24524.13
504.13	24690.31
504.30	24477.32
504.48	24664.57
504.65	24765.21
504.83	24959.47
505.01	25191.19
505.18	25362.04
505.36	25282.47
505.53	25266.08
505.71	25326.94
505.88	25446.30
506.06	25488.43
506.23	25790.36
506.41	25867.60
506.58	25858.24
506.76	25713.13
506.93	26019.74
507.11	26043.14
507.28	26164.85
507.46	26302.94
507.63	26426.99
507.81	26375.50
507.98	26141.44
508.16	26342.73
508.33	26363.79
508.50	26670.40
508.68	26665.72
508.85	26747.64
509.03	26689.13
509.20	27072.98
509.38	27220.43
509.55	27236.81
509.73	27372.57
509.90	27646.41
510.08	27117.45
510.25	27482.57
510.42	27517.68
510.60	27892.16
510.77	27758.75
510.95	28023.23
511.12	27887.48
511.30	27903.87
511.47	27868.76
511.64	28086.43
511.82	28048.98
511.99	28304.10
512.17	28613.05
512.34	28187.07
512.51	28659.86
512.69	28601.35
512.86	28596.67
513.04	28893.91
513.21	29116.26
513.38	29067.11
513.56	28961.79
513.73	28865.83
513.90	29216.91
514.08	29153.71
514.25	29308.19
514.43	29235.63
514.60	29450.96
514.77	29645.23
514.95	29586.71
515.12	29493.09
515.29	29535.22
515.47	30012.69
515.64	30003.33
515.81	30160.14
515.99	30235.04
516.16	30033.75
516.33	30398.88
516.51	30113.33
516.68	30244.40
516.85	30134.40
517.03	30499.52
517.20	30520.59
517.37	30373.13
517.54	30609.53
517.72	30628.25
517.89	30960.61
518.06	30625.91
518.24	30600.16
518.41	30656.34
518.58	31267.22
518.75	30859.96
518.93	31529.36
519.10	31054.23
519.27	31679.15
519.45	31122.10
519.62	31117.42
519.79	31580.85
519.96	31388.92
520.14	31278.92
520.31	31915.54
520.48	31906.18
520.65	31936.61
520.83	32013.85
521.00	31754.05
521.17	31552.76
521.34	31915.54
521.52	31821.92
521.69	32432.80
521.86	32016.19
522.03	32566.21
522.20	32315.78
522.38	32538.13
522.55	32727.71
522.72	32374.29
522.89	32627.07
523.07	32652.81
523.24	33125.60
523.41	32879.85
523.58	32849.42
523.75	33060.07
523.92	32723.03
524.10	33027.30
524.27	33354.97
524.44	33404.13
524.61	33443.91
524.78	33212.20
524.96	33783.29
525.13	33462.64
525.30	33757.55
525.47	33441.57
525.64	33493.07
525.81	33689.67
525.98	33951.81
526.16	33797.34
526.33	34139.05
526.50	34532.26
526.67	33507.11
526.84	34101.61
527.01	34487.79
527.18	34480.77
527.36	34366.09
527.53	34401.19
527.70	34539.29
527.87	34590.78
528.04	34749.93
528.21	34408.22
528.38	34728.87
528.55	35063.57
528.72	34691.42
528.89	35232.08
529.07	34733.55
529.24	34864.62
529.41	35374.86
529.58	34838.87
529.75	34883.34
529.92	35440.39
530.09	34969.94
530.26	35206.34
530.43	35627.63
530.60	35503.59
530.77	35117.40
530.94	35285.92
531.11	35564.44
531.28	35391.24
531.46	35721.26
531.63	35400.60
531.80	35519.97
531.97	36093.40
532.14	35866.37
532.31	35985.74
532.48	36315.75
532.65	35957.65
532.82	35665.08
532.99	35952.97
533.16	36009.14
533.33	36758.11
533.50	36425.76
533.67	36737.05
533.84	36353.20
534.01	36285.33
534.18	36247.88
534.35	36528.74
534.52	36641.09
534.69	36477.25
534.86	36425.76
535.03	36594.28
535.20	36748.75
535.37	36875.14
535.54	37046.00
535.71	37069.40
535.88	37038.98
536.05	37036.64
536.22	37397.08
536.38	37247.29
536.55	37141.96
536.72	37376.01
536.89	37191.11
537.06	37315.16
537.23	37668.58
537.40	36751.09
537.57	37530.49
537.74	37413.46
537.91	37757.52
538.08	37666.24
538.25	37315.16
538.42	37776.25
538.59	37860.51
538.75	37645.18
538.92	37462.61
539.09	38045.41
539.26	37755.18
539.43	38389.47
539.60	37923.70
539.77	38005.62
539.94	38527.56
540.11	38220.95
540.28	38288.82
540.44	38398.83
540.61	38550.96
540.78	38731.18
540.95	38653.95
541.12	38616.50
541.29	38665.65
541.46	38628.20
541.62	39021.41
541.79	39009.71
541.96	38522.88
542.13	38834.17
542.30	38679.69
542.47	38981.62
542.63	39496.54
542.80	39299.94
542.97	39889.75
543.14	39812.51
543.31	39805.49
543.48	39632.29
543.64	39604.20
543.81	39929.54
543.98	39711.87
544.15	39812.51
544.32	40517.01
544.48	39913.16
544.65	39824.22
544.82	40025.50
544.99	39648.68
545.16	39847.62
545.32	40009.12
545.49	40769.79
545.66	40601.27
545.83	41017.89
546.00	41338.54
546.16	40137.85
546.33	40374.24
546.50	39487.18
546.67	40341.47
546.83	39646.33
547.00	39849.96
547.17	40245.51
547.34	40208.06
547.50	40481.91
547.67	40774.47
547.84	40442.12
548.00	40435.10
548.17	40741.71
548.34	40875.12
548.51	40720.64
548.67	40933.63
548.84	41258.96
549.01	40713.62
549.18	40392.97
549.34	40903.20
549.51	40830.65
549.68	40484.25
549.84	40425.73
550.01	40840.01
550.18	40744.05
550.34	40868.09
550.51	40790.86
550.68	41076.40
550.84	40699.58
551.01	40879.80
551.18	40655.11
551.34	40463.18
551.51	40933.63
551.68	40980.44
551.84	41074.06
552.01	40971.08
552.18	41378.33
552.34	40893.84
552.51	41219.17
552.68	41277.69
552.84	41378.33
553.01	41500.04
553.18	41024.91
553.34	41258.96
553.51	41778.56
553.67	41813.67
553.84	41706.01
554.01	41954.10
554.17	41645.15
554.34	41659.20
554.51	41572.60
554.67	41457.91
554.84	41708.35
555.00	41624.09
555.17	41916.65
555.33	41804.31
555.50	41921.34
555.67	42003.25
555.83	41797.29
556.00	42160.07
556.16	41846.44
556.33	41778.56
556.50	41797.29
556.66	41879.21
556.83	42120.28
556.99	42223.26
557.16	42190.50
557.32	42562.64
557.49	42274.76
557.65	41308.11
557.82	41888.57
557.98	42029.00
558.15	42244.33
558.32	42497.11
558.48	42157.73
558.65	42354.33
558.81	42319.23
558.98	42525.19
559.14	42209.22
559.31	42061.77
559.47	42667.97
559.64	42595.41
559.80	42572.00
559.97	42396.46
560.13	42281.78
560.30	43021.39
560.46	42990.96
560.63	42623.50
560.79	42845.85
560.96	42864.57
561.12	42426.89
561.29	42412.85
561.45	42394.12
561.61	42951.17
561.78	42976.92
561.94	43070.54
562.11	42969.90
562.27	42979.26
562.44	42958.19
562.60	42749.88
562.77	42848.19
562.93	42649.24
563.10	43196.93
563.26	42962.87
563.42	42869.25
563.59	43445.02
563.75	43269.48
563.92	42925.42
564.08	42864.57
564.24	42775.63
564.41	42885.64
564.57	42651.58
564.74	42714.78
564.90	42920.74
565.07	42838.83
565.23	42976.92
565.39	42740.52
565.56	42845.85
565.72	43201.61
565.88	43365.45
566.05	42925.42
566.21	43086.92
566.38	42906.70
566.54	43014.37
566.70	43175.86
566.87	44184.63
567.03	43379.49
567.19	43388.85
567.36	43365.45
567.52	43250.76
567.68	43917.81
567.85	43199.27
568.01	43283.53
568.17	43096.28
568.34	43643.97
568.50	43517.58
568.66	43482.47
568.83	43538.65
568.99	43463.75
569.15	43351.40
569.32	43318.64
569.48	43215.65
569.64	43283.53
569.81	43222.67
569.97	43320.98
570.13	43517.58
570.30	43384.17
570.46	43658.01
570.62	43695.46
570.78	43222.67
570.95	43217.99
571.11	43878.02
571.27	43723.55
571.43	43461.41
571.60	43463.75
571.76	43398.21
571.92	43632.27
572.09	43819.51
572.25	43562.05
572.41	43529.28
572.57	43569.07
572.74	43920.15
572.90	43320.98
573.06	43550.35
573.22	43634.61
573.38	43863.98
573.55	43948.24
573.71	44626.99
573.87	44147.18
574.03	43335.02
574.20	43952.92
574.36	43548.01
574.52	43587.80
574.68	43552.69
574.84	43711.84
575.01	43800.79
575.17	43686.10
575.33	43751.63
575.49	43433.32
575.65	44212.72
575.82	44362.51
575.98	43522.26
576.14	44278.25
576.30	43971.64
576.46	43494.18
576.62	43903.77
576.79	44285.28
576.95	43648.65
577.11	43892.07
577.27	44385.92
577.43	43662.69
577.59	44165.91
577.75	44074.63
577.92	43742.27
578.08	43683.76
578.24	43655.67
578.40	43849.94
578.56	43791.42
578.72	44259.53
578.88	44299.32
579.04	44203.36
579.21	43915.47
579.37	44065.27
579.53	44296.98
579.69	44219.74
579.85	44336.77
580.01	43945.90
580.17	43763.34
580.33	44147.18
580.49	44355.49
580.65	44374.22
580.82	44135.48
580.98	44161.23
581.14	43791.42
581.30	44196.34
581.46	43962.28
581.62	43922.49
581.78	43583.12
581.94	44369.54
582.10	44315.70
582.26	44266.55
582.42	44334.43
582.58	44849.35
582.74	44519.33
582.90	44182.29
583.06	44076.97
583.22	44060.58
583.38	44456.14
583.54	44168.25
583.70	44325.07
583.86	44486.56
584.02	44402.30
584.18	44308.68
584.34	44245.49
584.50	43941.22
584.66	43959.94
584.82	43976.33
584.98	44339.11
585.14	44196.34
585.30	43817.17
585.46	44240.81
585.62	44285.28
585.78	44245.49
585.94	44069.95
586.10	44247.83
586.26	44287.62
586.42	44528.69
586.58	44554.44
586.74	44205.70
586.90	43903.77
587.06	44062.93
587.22	44222.08
587.38	44016.11
587.54	44748.70
587.70	44538.05
587.86	44673.81
588.02	44186.97
588.18	44521.67
588.34	44456.14
588.49	44921.90
588.65	43782.06
588.81	44081.65
588.97	44645.72
589.13	43931.86
589.29	44296.98
589.45	44626.99
589.61	44514.65
589.77	44928.92
589.93	44301.66
590.08	44842.32
590.24	45099.78
590.40	44898.50
590.56	45013.18
590.72	44615.29
590.88	44680.83
591.04	44624.65
591.20	45085.74
591.35	44725.30
591.51	45565.55
591.67	44706.57
591.83	45076.38
591.99	45043.61
592.15	44500.61
592.31	44624.65
592.46	44296.98
592.62	44451.45
592.78	44814.24
592.94	45057.65
593.10	44697.21
593.26	44685.51
593.41	44964.03
593.57	44996.80
593.73	44804.88
593.89	44975.73
594.05	44648.06
594.20	44893.82
594.36	45013.18
594.52	44364.85
594.68	44289.96
594.84	44659.76
594.99	44959.35
595.15	45214.47
595.31	45071.70
595.47	45172.34
595.62	45586.61
595.78	44914.88
595.94	44816.58
596.10	44823.60
596.25	44683.17
596.41	44575.50
596.57	44184.63
596.73	44591.89
596.88	45074.04
597.04	44989.78
597.20	44992.12
597.36	45146.59
597.51	45017.86
597.67	44732.32
597.83	44921.90
597.99	45031.91
598.14	44856.37
598.30	44832.96
598.46	44720.62
598.61	45132.55
598.77	44591.89
598.93	45495.33
599.09	44701.89
599.24	45071.70
599.40	45343.20
599.56	44919.56
599.71	44910.20
599.87	45399.37
600.03	45420.44
600.18	45291.71
600.34	44868.07
600.50	45350.22
600.65	44935.95
600.81	45319.79
600.97	45170.00
601.12	45167.66
601.28	45216.81
601.44	44856.37
601.59	44734.66
601.75	45160.64
601.91	44844.66
602.06	44601.25
602.22	45235.53
602.37	45015.52
602.53	45003.82
602.69	45298.73
602.84	44903.18
603.00	45139.57
603.16	44952.33
603.31	45109.14
603.47	44938.29
603.62	45020.20
603.78	45165.32
603.94	45017.86
604.09	44823.60
604.25	44711.25
604.40	44804.88
604.56	44559.12
604.71	45069.36
604.87	45067.02
605.03	44589.55
605.18	45219.15
605.34	44509.97
605.49	44884.45
605.65	44889.13
605.80	44781.47
605.96	44435.07
606.12	45027.23
606.27	45123.19
606.43	44816.58
606.58	45109.14
606.74	44718.28
606.89	44477.20
607.05	44924.24
607.20	44786.15
607.36	44755.72
607.51	45291.71
607.67	44388.26
607.82	44783.81
607.98	44741.68
608.13	44521.67
608.29	44680.83
608.44	44641.04
608.60	44484.22
608.75	45153.62
608.91	44521.67
609.06	44727.64
609.22	45120.85
609.37	44285.28
609.53	44495.92
609.68	44453.79
609.84	44465.50
609.99	44355.49
610.15	44350.81
610.30	44835.30
610.46	44952.33
610.61	45088.08
610.76	45186.38
610.92	45345.54
611.07	45588.95
611.23	45230.85
611.38	45312.77
611.54	45256.60
611.69	45017.86
611.84	45298.73
612.00	44416.35
612.15	44451.45
612.31	44814.24
612.46	44795.51
612.62	44954.67
612.77	44713.59
612.92	45233.19
613.08	44479.54
613.23	44708.91
613.39	44872.75
613.54	44416.35
613.69	44353.15
613.85	44062.93
614.00	44194.00
614.15	44243.15
614.31	44247.83
614.46	44048.88
614.62	44587.21
614.77	44034.84
614.92	44257.19
615.08	44364.85
615.23	44175.27
615.38	44233.78
615.54	43868.66
615.69	43784.40
615.84	43550.35
616.00	44083.99
616.15	44004.41
616.30	43981.01
616.46	43618.22
616.61	43924.83
616.76	44278.25
616.92	43775.04
617.07	43775.04
617.22	43718.87
617.37	43342.04
617.53	43660.35
617.68	43540.99
617.83	43641.63
617.99	43723.55
618.14	43049.47
618.29	43629.93
618.45	43735.25
618.60	43730.57
618.75	43646.31
618.90	43409.92
619.06	43517.58
619.21	43538.65
619.36	43126.71
619.51	43241.40
619.67	43002.66
619.82	42892.66
619.97	43335.02
620.12	43105.65
620.28	43026.07
620.43	42822.44
620.58	44060.58
620.73	43643.97
620.89	43833.55
621.04	43590.14
621.19	43468.43
621.34	43791.42
621.49	43281.19
621.65	43023.73
621.80	43267.14
621.95	42719.46
622.10	43295.23
622.25	43138.41
622.41	42714.78
622.56	43487.15
622.71	43487.15
622.86	43210.97
623.01	42965.21
623.16	43194.59
623.32	42569.66
623.47	42822.44
623.62	42974.58
623.77	42946.49
623.92	43037.77
624.07	42658.60
624.23	42983.94
624.38	42274.76
624.53	42490.09
624.68	42913.72
624.83	42724.14
624.98	43269.48
625.13	42955.85
625.29	42728.82
625.44	43129.05
625.59	42445.62
625.74	42377.74
625.89	42553.28
626.04	42433.91
626.19	42291.14
626.34	42366.04
626.49	42270.08
626.65	42237.31
626.80	42160.07
626.95	42122.62
627.10	42223.26
627.25	42581.37
627.40	42326.25
627.55	42337.95
627.70	41900.27
627.85	42052.41
628.00	42092.19
628.15	42305.18
628.30	41645.15
628.45	42162.41
628.60	41947.08
628.76	41862.82
628.91	41918.99
629.06	42014.96
629.21	42225.60
629.36	41797.29
629.51	41801.97
629.66	41687.28
629.81	41675.58
629.96	41757.50
630.11	42220.92
630.26	41937.72
630.41	42134.32
630.56	41368.97
630.71	42000.91
630.86	41706.01
631.01	42031.34
631.16	42153.05
631.31	41778.56
631.46	41654.51
631.61	41762.18
631.76	41275.35
631.91	41216.83
632.06	41273.01
632.21	40950.01
632.36	41516.42
632.51	41181.73
632.66	41832.39
632.81	41144.28
632.96	41364.29
633.10	41574.94
633.25	41944.74
633.40	41675.58
633.55	41539.83
633.70	40912.56
633.85	41476.63
634.00	41450.89
634.15	41076.40
634.30	41600.68
634.45	40926.61
634.60	41038.95
634.75	40889.16
634.90	40933.63
635.05	41109.17
635.19	41137.26
635.34	41301.09
635.49	40999.16
635.64	41237.90
635.79	40935.97
635.94	40776.81
636.09	41064.70
636.24	40584.89
636.39	40533.40
636.53	40423.39
636.68	40463.18
636.83	40856.39
636.98	40732.34
637.13	40495.95
637.28	40399.99
637.43	40830.65
637.57	40201.04
637.72	40645.74
637.87	40802.56
638.02	40357.86
638.17	40868.09
638.32	40479.57
638.46	40261.90
638.61	40421.05
638.76	40137.85
638.91	40140.19
639.06	40472.54
639.20	40519.35
639.35	40449.14
639.50	40250.19
639.65	40065.29
639.80	40514.67
639.94	40383.60
640.09	40224.45
640.24	40388.28
640.39	40236.15
640.54	40074.65
640.68	40051.25
640.83	39655.70
640.98	39945.92
641.13	39597.18
641.27	40254.87
641.42	39718.89
641.57	40182.32
641.72	40339.13
641.86	40170.61
642.01	40095.72
642.16	40238.49
642.31	39578.46
642.45	39288.23
642.60	39454.41
642.75	39606.55
642.90	39487.18
643.04	39611.23
643.19	39714.21
643.34	39344.41
643.48	39559.73
643.63	40179.98
643.78	39885.07
643.93	40175.30
644.07	39835.92
644.22	39805.49
644.37	39363.13
644.51	39856.98
644.66	39421.64
644.81	39496.54
644.95	39370.15
645.10	39409.94
645.25	39768.04
645.39	38934.81
645.54	39208.65
645.69	39456.75
645.83	39416.96
645.98	39503.56
646.13	39756.34
646.27	39267.17
646.42	38951.20
646.57	39358.45
646.71	39220.36
646.86	39323.34
647.00	39058.86
647.15	38885.66
647.30	38850.55
647.44	39063.54
647.59	38878.64
647.74	38995.67
647.88	39178.23
648.03	39005.03
648.17	39463.77
648.32	39157.16
648.47	39360.79
648.61	38691.40
648.76	39164.18
648.90	38801.40
649.05	39009.71
649.20	38780.34
649.34	38665.65
649.49	38778.00
649.63	38735.87
649.78	38635.22
649.92	38918.43
650.07	38965.24
650.21	38806.08
650.36	39098.65
650.51	39070.56
650.65	38749.91
650.80	39196.95
650.94	39122.05
651.09	38794.38
651.23	38824.81
651.38	38033.71
651.52	38534.58
651.67	38595.43
651.81	38686.71
651.96	38782.68
652.10	38260.74
652.25	38703.10
652.39	38464.36
652.54	38653.95
652.68	38597.77
652.83	38473.73
652.97	38862.26
653.12	38536.92
653.26	38532.24
653.41	38258.40
653.55	38213.93
653.70	37972.85
653.84	38000.94
653.99	37867.53
654.13	37762.20
654.27	38735.87
654.42	38136.69
654.56	37897.95
654.71	38106.26
654.85	37832.42
655.00	38504.15
655.14	38068.81
655.29	38014.98
655.43	38419.89
655.57	37523.47
655.72	37933.06
655.86	37879.23
656.01	37628.79
656.15	37944.76
656.30	37581.98
656.44	37392.40
656.58	37640.50
656.73	37373.67
656.87	37687.31
657.01	37748.16
657.16	37883.91
657.30	37933.06
657.45	37834.76
657.59	37294.10
657.73	36971.10
657.88	37104.51
658.02	37563.26
658.16	37394.74
658.31	37684.97
658.45	37535.17
658.60	37141.96
658.74	37216.86
658.88	37303.46
659.03	36659.81
659.17	36975.78
659.31	37170.05
659.46	36823.65
659.60	37614.75
659.74	36987.49
659.89	36830.67
660.03	37123.24
660.17	37579.64
660.32	36580.23
660.46	36531.08
660.60	36474.91
660.74	36392.99
660.89	36793.22
661.03	35835.94
661.17	36449.16
661.32	36545.12
661.46	36615.34
661.60	36034.89
661.74	36802.58
661.89	36107.44
662.03	36762.79
662.17	36383.63
662.31	35913.18
662.46	36292.35
662.60	36020.84
662.74	35999.78
662.88	36023.19
663.03	35637.00
663.17	36088.72
663.31	35805.52
663.45	35583.16
663.60	35880.41
663.74	35833.60
663.88	36079.36
664.02	35405.28
664.17	35578.48
664.31	35391.24
664.45	35564.44
664.59	35372.52
664.73	35927.22
664.88	36091.06
665.02	35267.19
665.16	35196.98
665.30	34621.20
665.44	35082.29
665.59	34944.20
665.73	34838.87
665.87	34906.75
666.01	35122.08
666.15	34946.54
666.29	34895.05
666.44	35651.04
666.58	34827.17
666.72	34745.25
666.86	34986.33
667.00	34815.47
667.14	34787.38
667.28	34808.45
667.43	34944.20
667.57	35110.38
667.71	34597.80
667.85	34588.44
667.99	34448.00
668.13	34621.20
668.27	34384.81
668.41	34141.39
668.56	33902.66
668.70	34412.90
668.84	34356.72
668.98	34270.12
669.12	33937.77
669.26	34099.26
669.40	34045.43
669.54	34066.50
669.68	34199.91
669.82	33972.88
669.96	33479.02
670.10	33567.96
670.25	33301.14
670.39	33432.21
670.53	33261.35
670.67	32826.01
670.81	33694.35
670.95	33598.39
671.09	33504.77
671.23	33039.00
671.37	33256.67
671.51	33399.44
671.65	32905.59
671.79	32978.15
671.93	33144.33
672.07	33420.51
672.21	33104.54
672.35	32912.61
672.49	32212.79
672.63	32837.72
672.77	32432.80
672.91	32833.04
673.05	32446.85
673.19	32432.80
673.33	32666.86
673.47	32683.24
673.61	32643.45
673.75	32343.86
673.89	32570.90
674.03	32470.25
674.17	32283.01
674.31	31899.16
674.45	31838.31
674.59	31807.88
674.73	32121.51
674.87	31754.05
675.01	31723.62
675.15	31793.84
675.29	32011.51
675.43	31800.86
675.56	31772.77
675.70	31639.36
675.84	31812.56
675.98	30738.26
676.12	31613.62
676.26	31681.49
676.40	31049.55
676.54	31005.08
676.68	30515.90
676.82	30476.12
676.96	30541.65
677.10	30487.82
677.23	30333.34
677.37	30574.42
677.51	30511.22
677.65	30333.34
677.79	30251.42
677.93	30155.46
678.07	30061.84
678.21	30160.14
678.34	29773.95
678.48	29879.28
678.62	29855.87
678.76	29450.96
678.90	29586.71
679.04	29457.98
679.18	29544.58
679.31	29371.38
679.45	29233.29
679.59	29116.26
679.73	29425.22
679.87	29109.24
680.00	28987.53
680.14	28790.93
680.28	28552.20
680.42	28779.23
680.56	29083.50
680.70	28856.46
680.83	28615.39
680.97	28264.31
681.11	28353.25
681.25	28390.70
681.39	28341.55
681.52	28247.93
681.66	27817.27
681.80	28018.55
681.94	27873.44
682.07	27700.24
682.21	27566.83
682.35	27700.24
682.49	27285.97
682.62	27140.85
682.76	27587.89
682.90	27246.18
683.04	27440.44
683.17	27346.82
683.31	27325.75
683.45	27047.23
683.59	27007.44
683.72	27168.94
683.86	27222.77
684.00	26930.20
684.13	27145.53
684.27	26565.08
684.41	26668.06
684.55	26209.32
684.68	26122.72
684.82	26122.72
684.96	25902.71
685.09	25755.26
685.23	25844.20
685.37	25680.36
685.50	25654.61
685.64	25874.62
685.78	25738.87
685.91	26040.80
686.05	25762.28
686.19	25617.16
686.32	25582.06
686.46	24809.68
686.60	24875.21
686.73	24837.76
686.87	25022.67
687.01	25289.49
687.14	24865.85
687.28	24659.88
687.42	24671.59
687.55	24498.39
687.69	24540.52
687.82	24381.36
687.96	24355.61
688.10	24517.11
688.23	24767.55
688.37	24678.61
688.50	24002.19
688.64	24362.64
688.78	24283.06
688.91	23873.46
689.05	23906.23
689.18	23594.94
689.32	23175.98
689.46	23424.08
689.59	23091.73
689.73	23531.75
689.86	23164.28
690.00	23309.40
690.13	23094.07
690.27	22836.61
690.41	22888.10
690.54	22874.06
690.68	22628.30
690.81	23285.99
690.95	23058.96
691.08	22909.16
691.22	22434.03
691.35	22419.99
691.49	22352.12
691.62	22251.47
691.76	22132.11
691.89	22026.78
692.03	21678.04
692.16	21406.54
692.30	21743.58
692.43	21752.94
692.57	21530.59
692.70	21579.74
692.84	21694.43
692.97	21572.72
693.11	21675.70
693.24	21312.92
693.38	21245.04
693.51	21223.98
693.65	21308.24
693.78	21104.61
693.92	21142.06
694.05	20500.75
694.19	20538.20
694.32	20585.01
694.45	20577.99
694.59	20627.14
694.72	20313.51
694.86	20240.95
694.99	20142.65
695.13	19913.28
695.26	20156.69
695.39	19880.51
695.53	20388.41
695.66	20182.44
695.80	20004.56
695.93	19719.01
696.07	19791.57
696.20	19873.49
696.33	19632.41
696.47	19723.69
696.60	19803.27
696.73	19262.61
696.87	19318.78
697.00	19056.64
697.14	18932.59
697.27	19108.13
697.40	19023.87
697.54	18789.82
697.67	18551.09
697.80	18731.31
697.94	18384.91
698.07	18508.96
698.21	18546.40
698.34	18740.67
698.47	18616.62
698.61	18377.89
698.74	18607.26
698.87	18326.39
699.01	18354.48
699.14	18111.07
699.27	17872.33
699.40	17893.40
699.54	17741.26
699.67	17612.53
699.80	17331.67
699.94	17673.39
700.07	17530.61
700.20	17439.33
700.34	17518.91
700.47	17181.87
700.60	17326.99
700.73	17181.87
700.87	17132.72
701.00	16926.75
701.13	16727.81
701.26	17015.69
701.40	17116.34
701.53	16697.38
701.66	16652.91
701.79	16641.21
701.93	16718.45
702.06	16411.84
702.19	16446.94
702.32	16482.05
702.46	16231.62
702.59	16065.44
702.72	15950.75
702.85	15908.62
702.99	16329.92
703.12	16065.44
703.25	15761.17
703.38	15920.32
703.51	15889.90
703.65	15791.59
703.78	15611.37
703.91	15531.80
704.04	15634.78
704.17	15487.32
704.31	15410.09
704.44	15391.36
704.57	15480.30
704.70	15152.63
704.83	14892.83
704.96	14965.39
705.10	14593.24
705.23	14892.83
>>>>>End Processed Spectral Data<<<<<
