SpectraSuite Data File
++++++++++++++++++++++++++++++++++++
Date: Tue Oct 01 18:27:24 GMT-05:00 2013
User: stostad
Dark Spectrum Present: No
Reference Spectrum Present: No
Number of Sampled Component Spectra: 1
Spectrometers: USB2+H05261
Integration Time (usec): 100000 (USB2+H05261)
Spectra Averaged: 1 (USB2+H05261)
Boxcar Smoothing: 0 (USB2+H05261)
Correct for Electrical Dark: No (USB2+H05261)
Strobe/Lamp Enabled: No (USB2+H05261)
Correct for Detector Non-linearity: No (USB2+H05261)
Correct for Stray Light: No (USB2+H05261)
Number of Pixels in Processed Spectrum: 2048
>>>>>Begin Processed Spectral Data<<<<<
365.73	107.66
365.92	107.66
366.12	107.66
366.32	0.00
366.52	0.00
366.72	60.85
366.91	18.72
367.11	0.00
367.31	0.00
367.51	32.77
367.70	0.00
367.90	0.00
368.10	23.41
368.30	0.00
368.49	0.00
368.69	0.00
368.89	0.00
369.09	0.00
369.28	0.00
369.48	0.00
369.68	0.00
369.87	49.15
370.07	60.85
370.27	35.11
370.47	124.05
370.66	243.42
370.86	280.86
371.06	388.53
371.25	320.65
371.45	273.84
371.65	376.83
371.84	283.20
372.04	346.40
372.24	397.89
372.44	372.15
372.63	386.19
372.83	388.53
373.03	435.34
373.22	404.91
373.42	381.51
373.62	435.34
373.81	367.46
374.01	402.57
374.21	388.53
374.40	433.00
374.60	395.55
374.79	498.53
374.99	489.17
375.19	433.00
375.38	500.87
375.58	468.11
375.78	482.15
375.97	425.98
376.17	552.37
376.37	507.90
376.56	557.05
376.76	470.45
376.95	449.38
377.15	517.26
377.35	472.79
377.54	505.56
377.74	514.92
377.93	451.72
378.13	484.49
378.33	468.11
378.52	545.34
378.72	524.28
378.91	512.58
379.11	538.32
379.31	552.37
379.50	573.43
379.70	620.24
379.89	589.82
380.09	521.94
380.28	613.22
380.48	545.34
380.68	533.64
380.87	503.22
381.07	638.97
381.26	596.84
381.46	514.92
381.65	519.60
381.85	519.60
382.04	535.98
382.24	622.58
382.43	606.20
382.63	615.56
382.83	608.54
383.02	580.45
383.22	622.58
383.41	606.20
383.61	683.44
383.80	615.56
384.00	617.90
384.19	580.45
384.39	641.31
384.58	645.99
384.78	643.65
384.97	657.69
385.17	599.18
385.36	699.82
385.56	723.23
385.75	580.45
385.95	634.29
386.14	650.67
386.34	645.99
386.53	692.80
386.72	741.95
386.92	760.67
387.11	760.67
387.31	809.83
387.50	655.35
387.70	774.72
387.89	767.70
388.09	748.97
388.28	704.50
388.48	657.69
388.67	732.59
388.86	784.08
389.06	720.88
389.25	709.18
389.45	758.33
389.64	844.93
389.84	833.23
390.03	861.32
390.22	788.76
390.42	842.59
390.61	814.51
390.81	765.36
391.00	842.59
391.19	833.23
391.39	842.59
391.58	858.98
391.78	898.77
391.97	784.08
392.16	851.96
392.36	908.13
392.55	905.79
392.75	910.47
392.94	833.23
393.13	875.36
393.33	851.96
393.52	905.79
393.71	922.17
393.91	870.68
394.10	884.72
394.29	1020.47
394.49	894.08
394.68	1006.43
394.88	1029.84
395.07	978.34
395.26	1013.45
395.46	987.71
395.65	997.07
395.84	983.02
396.04	1109.41
396.23	1118.78
396.42	980.68
396.62	1020.47
396.81	1013.45
397.00	1018.13
397.19	1020.47
397.39	1078.99
397.58	1055.58
397.77	1137.50
397.97	1156.22
398.16	1090.69
398.35	1064.94
398.55	1097.71
398.74	1231.12
398.93	1135.16
399.12	1172.61
399.32	1193.67
399.51	1163.25
399.70	1198.35
399.90	1144.52
400.09	1306.02
400.28	1306.02
400.47	1261.55
400.67	1212.40
400.86	1212.40
401.05	1301.34
401.24	1362.19
401.44	1383.26
401.63	1336.45
401.82	1336.45
402.01	1380.92
402.21	1453.47
402.40	1453.47
402.59	1390.28
402.78	1451.13
402.97	1483.90
403.17	1486.24
403.36	1432.41
403.55	1437.09
403.74	1502.62
403.93	1509.65
404.13	1542.41
404.32	1528.37
404.51	1619.65
404.70	1565.82
404.89	1528.37
405.09	1682.85
405.28	1549.43
405.47	1703.91
405.66	1654.76
405.85	1680.50
406.05	1640.72
406.24	1610.29
406.43	1664.12
406.62	1727.32
406.81	1727.32
407.00	1792.85
407.20	1748.38
407.39	1771.79
407.58	1907.54
407.77	1856.04
407.96	1837.32
408.15	1849.02
408.34	1879.45
408.54	1893.49
408.73	1888.81
408.92	1933.28
409.11	2022.22
409.30	2094.78
409.49	1944.99
409.68	1989.46
409.87	2015.20
410.07	2050.31
410.26	2094.78
410.45	2057.33
410.64	2038.61
410.83	2225.85
411.02	2200.10
411.21	2204.78
411.40	2157.97
411.59	2162.66
411.78	2338.20
411.98	2267.98
412.17	2319.47
412.36	2331.17
412.55	2303.09
412.74	2321.81
412.93	2445.86
413.12	2267.98
413.31	2546.50
413.50	2469.27
413.69	2520.76
413.88	2565.23
414.07	2588.63
414.26	2541.82
414.45	2619.06
414.64	2614.38
414.83	2581.61
415.02	2670.55
415.22	2757.15
415.41	2731.41
415.60	2766.51
415.79	2878.86
415.98	2759.49
416.17	2738.43
416.36	2895.24
416.55	2956.10
416.74	2937.37
416.93	2876.52
417.12	3056.74
417.31	3026.31
417.50	3009.93
417.69	2984.18
417.88	3145.68
418.07	2925.67
418.26	3047.38
418.45	3183.13
418.64	3204.19
418.83	3162.06
419.02	3283.77
419.21	3286.11
419.39	3246.32
419.58	3363.35
419.77	3318.88
419.96	3208.87
420.15	3346.97
420.34	3332.92
420.53	3215.90
420.72	3332.92
420.91	3253.34
421.10	3499.10
421.29	3543.57
421.48	3466.33
421.67	3515.48
421.86	3433.57
422.05	3492.08
422.24	3595.06
422.43	3520.17
422.61	3447.61
422.80	3588.04
422.99	3541.23
423.18	3606.77
423.37	3639.53
423.56	3648.90
423.75	3688.68
423.94	3515.48
424.13	3379.73
424.32	3552.93
424.50	3655.92
424.69	3721.45
424.88	3719.11
425.07	3634.85
425.26	3583.36
425.45	3583.36
425.64	3655.92
425.83	3590.38
426.01	3709.75
426.20	3756.56
426.39	3796.35
426.58	3702.73
426.77	3707.41
426.96	3751.88
427.15	3815.07
427.33	3789.33
427.52	3805.71
427.71	3971.89
427.90	3904.01
428.09	4046.79
428.28	3906.35
428.46	3920.40
428.65	3880.61
428.84	3981.25
429.03	4077.21
429.22	3904.01
429.40	4060.83
429.59	4112.32
429.78	3913.38
429.97	3932.10
430.16	3990.61
430.34	4042.11
430.53	4138.07
430.72	4187.22
430.91	4039.76
431.10	4133.39
431.28	4299.56
431.47	4325.31
431.66	4339.35
431.85	4318.29
432.03	4390.84
432.22	4407.23
432.41	4306.59
432.60	4348.72
432.79	4409.57
432.97	4465.74
433.16	4521.92
433.35	4407.23
433.54	4472.76
433.72	4528.94
433.91	4397.87
434.10	4367.44
434.28	4589.79
434.47	4603.83
434.66	4727.88
434.85	4465.74
435.03	4685.75
435.22	4620.22
435.41	4720.86
435.59	4727.88
435.78	4723.20
435.97	4746.61
436.16	4751.29
436.34	4826.18
436.53	4793.42
436.72	5022.79
436.90	4802.78
437.09	4849.59
437.28	4837.89
437.46	4966.62
437.65	4884.70
437.84	5004.07
438.02	5001.72
438.21	5057.90
438.40	5039.17
438.58	5015.77
438.77	5137.48
438.96	5095.35
439.14	5228.76
439.33	5460.47
439.52	5334.08
439.70	5352.81
439.89	5263.86
440.08	5474.51
440.26	5694.52
440.45	5685.16
440.63	5469.83
440.82	5544.73
441.01	5579.84
441.19	5643.03
441.38	5717.93
441.57	5767.08
441.75	5802.19
441.94	5863.04
442.12	5881.77
442.31	6127.52
442.50	6022.20
442.68	5785.80
442.87	5977.73
443.05	6141.57
443.24	6045.60
443.43	6054.97
443.61	5982.41
443.80	6317.11
443.98	6087.73
444.17	5813.89
444.35	6211.78
444.54	6153.27
444.73	6069.01
444.91	5989.43
445.10	6370.94
445.28	6136.88
445.47	6232.85
445.65	6047.94
445.84	6139.23
446.02	6263.27
446.21	6157.95
446.39	6047.94
446.58	6359.24
446.77	6354.55
446.95	6237.53
447.14	6317.11
447.32	6502.01
447.51	6321.79
447.69	6396.68
447.88	6293.70
448.06	6312.42
448.25	6326.47
448.43	6331.15
448.62	6443.49
448.80	6368.60
448.99	6356.90
449.17	6424.77
449.36	6368.60
449.54	6597.97
449.73	6642.44
449.91	6787.55
450.10	6626.06
450.28	6600.31
450.46	6656.48
450.65	6853.09
450.83	6881.18
451.02	6792.23
451.20	6726.70
451.39	6817.98
451.57	6633.08
451.76	6810.96
451.94	6949.05
452.13	6988.84
452.31	7021.61
452.49	6935.01
452.68	6942.03
452.86	7052.03
453.05	6932.67
453.23	6935.01
453.42	7005.22
453.60	6899.90
453.78	7138.63
453.97	7201.83
454.15	6995.86
454.34	7061.40
454.52	7187.79
454.70	7286.09
454.89	7424.18
455.07	7108.21
455.26	7332.90
455.44	7379.71
455.62	7295.45
455.81	7421.84
455.99	7269.70
456.17	7616.10
456.36	7592.70
456.54	7749.51
456.73	7470.99
456.91	7779.94
457.09	7791.64
457.28	7826.75
457.46	7723.77
457.64	7943.78
457.83	7927.39
458.01	7911.01
458.19	7929.74
458.38	7925.05
458.56	8063.15
458.74	7751.85
458.93	8039.74
459.11	8131.02
459.29	8166.13
459.48	8226.98
459.66	8079.53
459.84	8180.17
460.03	8135.70
460.21	8208.26
460.39	8196.56
460.57	8201.24
460.76	8154.43
460.94	8297.20
461.12	8311.24
461.31	8255.07
461.49	8173.15
461.67	8138.04
461.85	8503.17
462.04	8346.35
462.22	8982.98
462.40	8685.73
462.59	8603.81
462.77	8713.81
462.95	8643.60
463.13	8552.32
463.32	8732.54
463.50	8695.09
463.68	8741.90
463.86	8793.39
464.05	8608.49
464.23	8807.44
464.41	8947.87
464.59	8688.07
464.78	8985.32
464.96	8936.17
465.14	8830.84
465.32	8980.64
465.50	8973.61
465.69	9128.09
465.87	8999.36
466.05	9027.45
466.23	9001.70
466.41	8936.17
466.60	9268.52
466.78	9118.73
466.96	9322.35
467.14	8966.59
467.32	9202.99
467.51	9298.95
467.69	9018.08
467.87	9390.23
468.05	9153.84
468.23	9207.67
468.41	9476.83
468.60	9479.17
468.78	9327.03
468.96	9280.22
469.14	9343.42
469.32	9659.39
469.50	9397.25
469.69	9451.08
469.87	9762.37
470.05	9701.52
470.23	9689.82
470.41	9799.82
470.59	9813.87
470.77	9930.89
470.95	10001.11
471.14	9905.15
471.32	9820.89
471.50	10197.71
471.68	9956.64
471.86	10164.95
472.04	10305.38
472.22	10583.90
472.40	10078.35
472.58	10338.15
472.77	10284.31
472.95	10539.43
473.13	10799.23
473.31	10466.88
473.49	10473.90
473.67	10537.09
473.85	10539.43
474.03	10766.46
474.21	10817.96
474.39	11077.76
474.57	11180.74
474.75	11126.91
474.93	11227.55
475.12	11112.86
475.30	11286.06
475.48	11019.24
475.66	11529.48
475.84	11089.46
476.02	11463.94
476.20	11487.35
476.38	11716.72
476.56	11829.07
476.74	11829.07
476.92	11613.74
477.10	12032.69
477.28	11833.75
477.46	11864.18
477.64	12236.32
477.82	12191.85
478.00	12634.21
478.18	12582.72
478.36	12683.36
478.54	12802.73
478.72	12713.79
478.90	12940.82
479.08	13104.66
479.26	13139.77
479.44	13205.30
479.62	13153.81
479.80	13451.06
479.98	13514.25
480.16	13635.96
480.34	13568.09
480.52	13884.06
480.70	14078.32
480.88	13689.79
481.06	14185.99
481.24	13977.68
481.41	14104.07
481.59	14331.10
481.77	14532.39
481.95	14356.85
482.13	14684.52
482.31	14525.36
482.49	14773.46
482.67	14967.73
482.85	15405.41
483.03	15176.03
483.21	15515.41
483.39	15580.95
483.57	15550.52
483.74	15819.68
483.92	15913.30
484.10	15791.59
484.28	16360.34
484.46	16379.07
484.64	16482.05
484.82	16308.85
485.00	16730.15
485.18	16856.54
485.35	17205.28
485.53	17266.13
485.71	17294.22
485.89	17605.51
486.07	17446.35
486.25	17563.38
486.43	17785.73
486.61	17848.93
486.78	18052.55
486.96	17933.18
487.14	18157.88
487.32	18478.53
487.50	18649.39
487.68	18810.89
487.85	18801.52
488.03	19262.61
488.21	19227.50
488.39	19108.13
488.57	19733.06
488.75	19742.42
488.92	19674.54
489.10	19943.70
489.28	20107.54
489.46	20161.37
489.64	20233.93
489.81	20592.03
489.99	20631.82
490.17	20959.50
490.35	21387.82
490.53	20985.24
490.70	20912.69
490.88	21170.15
491.06	21392.50
491.24	21212.28
491.41	21799.75
491.59	22099.34
491.77	21881.67
491.95	22539.36
492.13	22260.84
492.30	22202.32
492.48	22450.42
492.66	22438.72
492.84	22733.62
493.01	22981.72
493.19	23236.84
493.37	23239.18
493.54	22979.38
493.72	23482.59
493.90	23693.24
494.08	23772.82
494.25	24002.19
494.43	24065.39
494.61	24320.51
494.79	24233.91
494.96	24285.40
495.14	24641.16
495.32	25050.75
495.49	24723.08
495.67	24718.40
495.85	25125.65
496.02	25483.75
496.20	25366.73
496.38	25390.13
496.55	25535.24
496.73	26211.66
496.91	25813.77
497.09	26190.59
497.26	26160.17
497.44	25984.63
497.62	26174.21
497.79	26497.20
497.97	26466.78
498.14	26815.52
498.32	27143.19
498.50	26623.59
498.67	26892.76
498.85	27428.74
499.03	27168.94
499.20	27758.75
499.38	27578.53
499.56	28081.75
499.73	28034.94
499.91	28247.93
500.08	28130.90
500.26	28158.99
500.44	28339.21
500.61	28381.34
500.79	28444.53
500.97	28837.74
501.14	29032.00
501.32	28919.66
501.49	28971.15
501.67	28858.81
501.84	29469.69
502.02	29263.72
502.20	29731.83
502.37	29343.30
502.55	29455.64
502.72	29724.80
502.90	30005.67
503.07	29685.01
503.25	30008.01
503.43	29706.08
503.60	30110.99
503.78	30426.96
503.95	30118.01
504.13	30614.21
504.30	30405.90
504.48	30719.53
504.65	30972.31
504.83	30859.96
505.01	31248.49
505.18	30848.26
505.36	30995.71
505.53	30759.32
505.71	30911.46
505.88	31562.12
506.06	31159.55
506.23	31459.14
506.41	31424.03
506.58	31550.42
506.76	31938.95
506.93	31922.57
507.11	31763.41
507.28	32311.10
507.46	32355.57
507.63	32458.55
507.81	32301.73
507.98	32261.94
508.16	32332.16
508.33	32634.09
508.50	32964.10
508.68	33116.24
508.85	33090.49
509.03	32783.88
509.20	33605.41
509.38	33514.13
509.55	33958.83
509.73	33366.68
509.90	33635.84
510.08	33930.75
510.25	34185.86
510.42	33858.19
510.60	34033.73
510.77	34473.75
510.95	34305.23
511.12	34546.31
511.30	34249.06
511.47	34548.65
511.64	34314.59
511.82	34888.03
511.99	34593.12
512.17	34827.17
512.34	35332.73
512.51	35449.75
512.69	35103.35
512.86	35571.46
513.04	35508.27
513.21	35697.85
513.38	35482.52
513.56	35512.95
513.73	35716.58
513.90	35445.07
514.08	35828.92
514.25	36140.21
514.43	36367.24
514.60	36037.23
514.77	35964.67
514.95	36498.31
515.12	36252.56
515.29	36381.29
515.47	37235.58
515.64	36870.46
515.81	36793.22
515.99	36664.49
516.16	37148.98
516.33	37191.11
516.51	37191.11
516.68	37422.83
516.85	37221.54
517.03	37827.74
517.20	38054.77
517.37	37523.47
517.54	37441.55
517.72	37457.93
517.89	37780.93
518.06	37640.50
518.24	37738.80
518.41	37949.45
518.58	37495.38
518.75	37998.60
518.93	38550.96
519.10	37923.70
519.27	38326.27
519.45	38415.21
519.62	39044.82
519.79	38906.73
519.96	38546.28
520.14	39332.70
520.31	38492.45
520.48	38752.25
520.65	39124.40
520.83	39047.16
521.00	39349.09
521.17	39150.14
521.34	39304.62
521.52	39435.69
521.69	39419.30
521.86	39400.58
522.03	40027.84
522.20	39871.03
522.38	39924.86
522.55	39894.43
522.72	39849.96
522.89	39864.00
523.07	40547.44
523.24	39948.26
523.41	40182.32
523.58	40194.02
523.75	40900.86
523.92	40308.71
524.10	40509.99
524.27	40863.41
524.44	40861.07
524.61	40893.84
524.78	41067.04
524.96	41144.28
525.13	41001.50
525.30	41310.46
525.47	41390.03
525.64	41359.61
525.81	41713.03
525.98	41542.17
526.16	41560.89
526.33	41745.80
526.50	42174.11
526.67	42005.59
526.84	41883.89
527.01	41977.51
527.18	41937.72
527.36	42185.82
527.53	41776.22
527.70	42089.85
527.87	42312.20
528.04	42113.26
528.21	42548.60
528.38	42057.09
528.55	42651.58
528.72	42384.76
528.89	42593.07
529.07	43033.09
529.24	42768.61
529.41	42700.73
529.58	42433.91
529.75	42841.17
529.92	43255.44
530.09	43119.69
530.26	42955.85
530.43	43473.11
530.60	42953.51
530.77	42962.87
530.94	43634.61
531.11	43152.46
531.28	43889.73
531.46	43585.46
531.63	43592.48
531.80	43505.88
531.97	44172.93
532.14	43803.13
532.31	43683.76
532.48	44006.75
532.65	44701.89
532.82	44266.55
532.99	44304.00
533.16	44301.66
533.33	44444.43
533.50	44156.55
533.67	44526.35
533.84	44252.51
534.01	44116.76
534.18	43957.60
534.35	44643.38
534.52	44729.98
534.69	45092.76
534.86	44699.55
535.03	44612.95
535.20	44715.93
535.37	44739.34
535.54	44978.07
535.71	45329.16
535.88	45375.97
536.05	45153.62
536.22	45296.39
536.38	45345.54
536.55	45130.21
536.72	45439.16
536.89	45172.34
537.06	45312.77
537.23	45544.48
537.40	45537.46
537.57	45853.44
537.74	45221.49
537.91	45675.55
538.08	45989.19
538.25	45223.83
538.42	46071.10
538.59	46068.76
538.75	45888.54
538.92	46134.30
539.09	46527.51
539.26	46190.47
539.43	46078.13
539.60	46424.53
539.77	45731.73
539.94	46183.45
540.11	46749.86
540.28	46583.68
540.44	46782.63
540.61	46569.64
540.78	46326.22
540.95	46522.83
541.12	46461.97
541.29	46789.65
541.46	46618.79
541.62	46604.75
541.79	47126.69
541.96	46799.01
542.13	46770.93
542.30	47129.03
542.47	47327.97
542.63	46990.94
542.80	47068.17
542.97	47199.24
543.14	47812.46
543.31	47306.91
543.48	47597.13
543.64	47945.87
543.81	47824.17
543.98	47997.37
544.15	47990.34
544.32	47782.04
544.48	47978.64
544.65	48156.52
544.82	48224.40
544.99	47683.73
545.16	48348.45
545.32	47955.24
545.49	48409.30
545.66	48311.00
545.83	47962.26
546.00	48320.36
546.16	48098.01
546.33	47973.96
546.50	48046.52
546.67	48605.91
546.83	48280.57
547.00	48432.71
547.17	48383.55
547.34	48271.21
547.50	48217.38
547.67	48715.91
547.84	47973.96
548.00	48964.01
548.17	48882.09
548.34	48975.71
548.51	48971.03
548.67	48917.20
548.84	48762.72
549.01	48893.79
549.18	48842.30
549.34	48830.60
549.51	49301.04
549.68	48865.70
549.84	49270.62
550.01	49092.74
550.18	49123.16
550.34	49200.40
550.51	49113.80
550.68	48938.26
550.84	48975.71
551.01	49581.91
551.18	49057.63
551.34	49085.72
551.51	49481.27
551.68	49408.71
551.84	49420.41
552.01	49076.35
552.18	49368.92
552.34	49104.44
552.51	49247.21
552.68	49251.89
552.84	49277.64
553.01	50248.96
553.18	49574.89
553.34	49780.85
553.51	49638.08
553.67	49551.48
553.84	49851.07
554.01	49656.81
554.17	49916.61
554.34	50202.15
554.51	50370.67
554.67	50436.20
554.84	50071.08
555.00	50270.03
555.17	50096.83
555.33	50134.28
555.50	49825.32
555.67	49635.74
555.83	50115.55
556.00	50251.30
556.16	50735.79
556.33	50436.20
556.50	50333.22
556.66	50726.43
556.83	50536.85
556.99	50415.14
557.16	50408.12
557.32	50597.70
557.49	50520.46
557.65	50562.59
557.82	50604.72
557.98	50768.56
558.15	50457.27
558.32	50857.50
558.48	50539.19
558.65	50513.44
558.81	50696.00
558.98	50396.42
559.14	50515.78
559.31	50466.63
559.47	50796.65
559.64	51140.71
559.80	51030.70
559.97	50901.97
560.13	50916.01
560.30	51047.08
560.46	50791.97
560.63	50527.48
560.79	51157.09
560.96	50913.67
561.12	51288.16
561.29	50897.29
561.45	51100.92
561.61	51302.20
561.78	51068.15
561.94	51002.61
562.11	50986.23
562.27	51278.80
562.44	51011.98
562.60	51000.27
562.77	51419.23
562.93	51133.68
563.10	51503.49
563.26	51290.50
563.42	51608.81
563.59	51189.86
563.75	51110.28
563.92	51416.89
564.08	51253.05
564.24	51419.23
564.41	51454.34
564.57	51456.68
564.74	51267.09
564.90	51260.07
565.07	51739.88
565.23	51363.06
565.39	51358.38
565.56	51388.80
565.72	51487.10
565.88	51657.96
566.05	51580.73
566.21	51468.38
566.38	51585.41
566.54	51456.68
566.70	51587.75
566.87	51695.41
567.03	51203.90
567.19	51264.75
567.36	51578.39
567.52	51444.98
567.68	51512.85
567.85	51650.94
568.01	51793.71
568.17	51421.57
568.34	51641.58
568.50	51501.15
568.66	51529.23
568.83	51538.60
568.99	51632.22
569.15	51639.24
569.32	51377.10
569.48	51751.59
569.64	51660.30
569.81	51730.52
569.97	51812.44
570.13	51683.71
570.30	51576.04
570.46	51660.30
570.62	51604.13
570.78	51688.39
570.95	51611.15
571.11	51915.42
571.27	51894.36
571.43	51838.18
571.60	51770.31
571.76	51835.84
571.92	51751.59
572.09	51847.55
572.25	51536.26
572.41	51618.17
572.57	51863.93
572.74	52334.38
572.90	51920.10
573.06	52088.62
573.22	52002.02
573.38	52114.37
573.55	52292.25
573.71	52048.83
573.87	51938.83
574.03	51592.43
574.20	51770.31
574.36	51927.13
574.52	52006.70
574.68	52069.90
574.84	52076.92
575.01	52369.49
575.17	52177.56
575.33	51915.42
575.49	51590.09
575.65	52240.76
575.82	52224.37
575.98	51885.00
576.14	52154.16
576.30	52420.98
576.46	52250.12
576.62	52266.50
576.79	52023.09
576.95	52062.88
577.11	52044.15
577.27	51875.63
577.43	51735.20
577.59	51798.40
577.75	52069.90
577.92	51702.43
578.08	51892.02
578.24	52287.57
578.40	52135.43
578.56	52126.07
578.72	52266.50
578.88	52425.66
579.04	52114.37
579.21	51894.36
579.37	51887.34
579.53	52219.69
579.69	52053.51
579.85	52247.78
580.01	52353.10
580.17	52280.55
580.33	52275.87
580.49	52261.82
580.65	52245.44
580.82	51744.56
580.98	52322.68
581.14	52102.67
581.30	52215.01
581.46	52142.45
581.62	52774.40
581.78	52168.20
581.94	52435.02
582.10	52147.14
582.26	52170.54
582.42	52191.61
582.58	52282.89
582.74	51812.44
582.90	52231.40
583.06	52219.69
583.22	52257.14
583.38	52170.54
583.54	52133.09
583.70	52610.56
583.86	52694.82
584.02	52507.58
584.18	52491.19
584.34	52528.64
584.50	52409.28
584.66	52430.34
584.82	52378.85
584.98	52294.59
585.14	52577.79
585.30	52224.37
585.46	52411.62
585.62	51950.53
585.78	52367.15
585.94	52205.65
586.10	52280.55
586.26	52200.97
586.42	52240.76
586.58	52418.64
586.74	52172.88
586.90	52449.06
587.06	52327.36
587.22	52692.48
587.38	52615.24
587.54	52669.08
587.70	52802.49
587.86	52589.50
588.02	52397.57
588.18	52238.42
588.34	52325.02
588.49	52507.58
588.65	52360.12
588.81	52467.79
588.97	53200.38
589.13	52779.08
589.29	52542.69
589.45	52952.28
589.61	52449.06
589.77	52694.82
589.93	52526.30
590.08	52449.06
590.24	52928.87
590.40	52629.29
590.56	53095.05
590.72	52959.30
590.88	52762.70
591.04	53048.24
591.20	53160.59
591.35	52800.15
591.51	52811.85
591.67	52800.15
591.83	52678.44
591.99	52722.91
592.15	53244.85
592.31	52952.28
592.46	52996.75
592.62	52776.74
592.78	52935.90
592.94	53254.21
593.10	52837.59
593.26	52924.19
593.41	52912.49
593.57	53017.82
593.73	52851.64
593.89	52835.25
594.05	52999.09
594.20	52861.00
594.36	52739.29
594.52	52753.33
594.68	52994.41
594.84	52879.72
594.99	53001.43
595.15	52767.38
595.31	52940.58
595.47	52563.75
595.62	52889.09
595.78	52535.66
595.94	52963.98
596.10	52884.40
596.25	52900.79
596.41	53134.84
596.57	53120.80
596.73	53333.79
596.88	52872.70
597.04	53244.85
597.20	52746.31
597.36	52821.21
597.51	53062.29
597.67	53010.79
597.83	52945.26
597.99	53050.58
598.14	53085.69
598.30	53247.19
598.46	53240.17
598.61	52919.51
598.77	53195.70
598.93	53165.27
599.09	52999.09
599.24	53254.21
599.40	52734.61
599.56	53078.67
599.71	53188.67
599.87	53169.95
600.03	53282.30
600.18	53223.78
600.34	53338.47
600.50	53165.27
600.65	52839.93
600.81	53146.54
600.97	53095.05
601.12	53132.50
601.28	53071.65
601.44	53059.94
601.59	52992.07
601.75	53258.89
601.91	53326.77
602.06	53312.72
602.22	53387.62
602.37	53277.61
602.53	53268.25
602.69	53242.51
602.84	52692.48
603.00	53144.20
603.16	53109.10
603.31	52725.25
603.47	53216.76
603.62	53102.07
603.78	53272.93
603.94	53050.58
604.09	53481.24
604.25	53113.78
604.40	53191.01
604.56	52940.58
604.71	52907.81
604.87	53099.73
605.03	52718.23
605.18	53132.50
605.34	52720.57
605.49	52783.76
605.65	53315.06
605.80	52914.83
605.96	53223.78
606.12	52949.94
606.27	53441.45
606.43	53038.88
606.58	52877.38
606.74	52729.93
606.89	52900.79
607.05	52980.37
607.20	52919.51
607.36	52664.39
607.51	53045.90
607.67	53024.84
607.82	53251.87
607.98	53373.58
608.13	52968.66
608.29	52987.39
608.44	52893.77
608.60	52931.22
608.75	52884.40
608.91	52540.35
609.06	52626.95
609.22	52781.42
609.37	52793.12
609.53	52563.75
609.68	52704.18
609.84	52617.58
609.99	52928.87
610.15	52935.90
610.30	52655.03
610.46	52659.71
610.61	52460.77
610.76	52659.71
610.92	52416.30
611.07	52294.59
611.23	52645.67
611.38	53036.54
611.54	52535.66
611.69	52413.96
611.84	52697.16
612.00	52807.17
612.15	52444.38
612.31	52797.80
612.46	52629.29
612.62	52442.04
612.77	52444.38
612.92	52601.20
613.08	52184.58
613.23	52423.32
613.39	52247.78
613.54	52402.25
613.69	52814.19
613.85	52376.51
614.00	52341.40
614.15	52825.89
614.31	52320.34
614.46	52664.39
614.62	52210.33
614.77	52168.20
614.92	52385.87
615.08	52491.19
615.23	52266.50
615.38	52596.52
615.54	52156.50
615.69	52133.09
615.84	52126.07
616.00	52355.44
616.15	52425.66
616.30	52500.56
616.46	52198.63
616.61	52030.11
616.76	52072.24
616.92	51936.49
617.07	51629.88
617.22	51875.63
617.37	51840.53
617.53	52411.62
617.68	52172.88
617.83	52219.69
617.99	52341.40
618.14	52289.91
618.29	52140.11
618.45	52203.31
618.60	51852.23
618.75	51796.06
618.90	51662.64
619.06	51899.04
619.21	51875.63
619.36	52247.78
619.51	51920.10
619.67	51784.35
619.82	51915.42
619.97	52170.54
620.12	51957.55
620.28	51384.12
620.43	51742.22
620.58	51922.44
620.73	51543.28
620.89	51231.99
621.04	51758.61
621.19	51704.77
621.34	51763.29
621.49	51835.84
621.65	51433.27
621.80	51803.08
621.95	51845.21
622.10	51690.73
622.25	51721.16
622.41	51580.73
622.56	51547.96
622.71	52062.88
622.86	51489.45
623.01	51676.69
623.16	51456.68
623.32	51475.40
623.47	51398.16
623.62	51634.56
623.77	51662.64
623.92	51477.74
624.07	51615.83
624.23	51559.66
624.38	51250.71
624.53	51285.82
624.68	51377.10
624.83	51217.94
624.98	51124.32
625.13	51194.54
625.29	51105.60
625.44	51164.11
625.59	51407.53
625.74	51243.69
625.89	51002.61
626.04	51447.32
626.19	51320.93
626.34	51231.99
626.49	50815.37
626.65	50911.33
626.80	50890.27
626.95	50787.28
627.10	50532.17
627.25	50878.57
627.40	50728.77
627.55	50836.44
627.70	50894.95
627.85	51100.92
628.00	50798.99
628.15	50951.12
628.30	50932.40
628.45	50979.21
628.60	50569.61
628.76	50859.84
628.91	50454.93
629.06	50288.75
629.21	50625.79
629.36	50719.41
629.51	50553.23
629.66	50408.12
629.81	50499.40
629.96	50600.04
630.11	50637.49
630.26	50492.38
630.41	50478.33
630.56	50281.73
630.71	50466.63
630.86	50504.08
631.01	50192.79
631.16	49940.01
631.31	49888.52
631.46	49736.38
631.61	50160.02
631.76	50387.05
631.91	50363.65
632.06	50167.04
632.21	50035.97
632.36	50370.67
632.51	49897.88
632.66	50134.28
632.81	49741.06
632.96	50066.40
633.10	49921.29
633.25	50035.97
633.40	49996.18
633.55	50106.19
633.70	49652.12
633.85	49794.90
634.00	49701.28
634.15	50035.97
634.30	50237.26
634.45	50035.97
634.60	49937.67
634.75	49951.71
634.90	49708.30
635.05	49958.73
635.19	49209.76
635.34	50068.74
635.49	49532.76
635.64	49663.83
635.79	49588.93
635.94	49612.34
636.09	49874.48
636.24	49563.18
636.39	49628.72
636.53	49680.21
636.68	49764.47
636.83	49752.77
636.98	49598.29
637.13	49605.31
637.28	49532.76
637.43	49668.51
637.57	49249.55
637.72	49525.74
637.87	49738.72
638.02	49378.28
638.17	49326.79
638.32	49614.68
638.46	49478.92
638.61	49315.09
638.76	49357.22
638.91	49315.09
639.06	49265.94
639.20	48926.56
639.35	49104.44
639.50	49008.48
639.65	49439.14
639.80	49029.54
639.94	48797.83
640.09	49193.38
640.24	49268.28
640.39	49172.31
640.54	49132.53
640.68	49315.09
640.83	49181.68
640.98	48629.31
641.13	48439.73
641.27	49057.63
641.42	48762.72
641.57	48449.09
641.72	48945.28
641.86	48348.45
642.01	48385.89
642.16	48758.04
642.31	48170.57
642.45	48971.03
642.60	48851.66
642.75	48615.27
642.90	48715.91
643.04	48870.39
643.19	48521.65
643.34	48236.10
643.48	48301.64
643.63	48275.89
643.78	47964.60
643.93	48603.56
644.07	48128.44
644.22	48163.54
644.37	48278.23
644.51	48158.86
644.66	48591.86
644.81	48713.57
644.95	48165.88
645.10	48360.15
645.25	47873.32
645.39	47735.23
645.54	48435.05
645.69	48570.80
645.83	47957.58
645.98	48369.51
646.13	47955.24
646.27	47723.52
646.42	47796.08
646.57	48119.07
646.71	48250.14
646.86	48020.77
647.00	48182.27
647.15	48367.17
647.30	48144.82
647.44	48282.91
647.59	48130.78
647.74	47627.56
647.88	47540.96
648.03	47688.42
648.17	48067.58
648.32	47751.61
648.47	48098.01
648.61	47370.10
648.76	47922.47
648.90	47889.70
649.05	47742.25
649.20	47934.17
649.34	47828.85
649.49	47522.24
649.63	47576.07
649.78	47676.71
649.92	47454.36
650.07	47906.08
650.21	47667.35
650.36	47760.97
650.51	47105.62
650.65	47213.29
650.80	47068.17
650.94	47232.01
651.09	47199.24
651.23	46824.76
651.38	47222.65
651.52	47512.88
651.67	47423.93
651.81	47786.72
651.96	47332.65
652.10	47400.53
652.25	47051.79
652.39	46890.29
652.54	47112.64
652.68	47175.84
652.83	47220.31
652.97	46866.89
653.12	46829.44
653.26	47054.13
653.41	46916.04
653.55	47168.82
653.70	47082.22
653.84	47281.16
653.99	47082.22
654.13	47185.20
654.27	47023.70
654.42	46904.34
654.56	46845.82
654.71	46953.49
654.85	46794.33
655.00	46698.37
655.14	46534.53
655.29	46679.64
655.43	46232.60
655.57	46085.15
655.72	46403.46
655.86	46667.94
656.01	46354.31
656.15	46614.11
656.30	46681.98
656.44	46248.99
656.58	46227.92
656.73	46188.13
656.87	46225.58
657.01	46068.76
657.16	46679.64
657.30	45659.17
657.45	45785.56
657.59	45902.59
657.73	45766.84
657.88	46157.70
658.02	45888.54
658.16	46312.18
658.31	46459.63
658.45	46024.29
658.60	46181.11
658.74	45710.66
658.88	45759.81
659.03	45815.99
659.17	45532.78
659.31	45631.08
659.46	45146.59
659.60	45380.65
659.74	45490.65
659.89	45212.13
660.03	45553.85
660.17	45595.98
660.32	45694.28
660.46	45127.87
660.60	45015.52
660.74	45146.59
660.89	45801.94
661.03	44935.95
661.17	45593.64
661.32	45237.87
661.46	45247.24
661.60	44992.12
661.74	45221.49
661.89	44828.28
662.03	44949.99
662.17	44910.20
662.31	44638.70
662.46	45258.94
662.60	44509.97
662.74	44596.57
662.88	44432.73
663.03	44648.06
663.17	45078.72
663.31	44825.94
663.45	44708.91
663.60	44500.61
663.74	43842.92
663.88	43950.58
664.02	44446.77
664.17	44325.07
664.31	43704.82
664.45	43632.27
664.59	43931.86
664.73	43695.46
664.88	44217.40
665.02	43407.58
665.16	43742.27
665.30	43952.92
665.44	43805.47
665.59	44184.63
665.73	43828.87
665.87	43402.89
666.01	43171.18
666.15	43283.53
666.29	43297.57
666.44	43295.23
666.58	43171.18
666.72	43297.57
666.86	43152.46
667.00	43236.72
667.14	43152.46
667.28	42799.04
667.43	42799.04
667.57	42600.09
667.71	43040.11
667.85	43356.08
667.99	43040.11
668.13	42829.46
668.27	42810.74
668.41	42822.44
668.56	42356.67
668.70	42398.80
668.84	42007.94
668.98	42087.51
669.12	42019.64
669.26	42120.28
669.40	42127.30
669.54	41890.91
669.68	42312.20
669.82	41893.25
669.96	42047.72
670.10	42326.25
670.25	41956.44
670.39	41954.10
670.53	41408.76
670.67	41404.08
670.81	41652.17
670.95	41392.37
671.09	41020.23
671.23	40687.87
671.37	41008.53
671.51	40638.72
671.65	41006.19
671.79	40975.76
671.93	41053.00
672.07	40985.12
672.21	40854.05
672.35	40865.75
672.49	40582.55
672.63	40699.58
672.77	40704.26
672.91	40882.14
673.05	40006.78
673.19	40715.96
673.33	40016.14
673.47	40315.73
673.61	40350.84
673.75	39779.74
673.89	40163.59
674.03	39599.52
674.17	40051.25
674.31	39903.79
674.45	39777.40
674.59	39580.80
674.73	39295.25
674.87	39936.56
675.01	39716.55
675.15	39573.78
675.29	39641.65
675.43	39171.21
675.56	39171.21
675.70	39112.69
675.84	39035.45
675.98	37509.43
676.12	38759.27
676.26	39042.48
676.40	38579.05
676.54	38384.79
676.68	38347.34
676.82	37776.25
676.96	38178.82
677.10	38398.83
677.23	38195.20
677.37	38415.21
677.51	38057.11
677.65	37872.21
677.79	37921.36
677.93	37394.74
678.07	37408.78
678.21	37191.11
678.34	37303.46
678.48	36762.79
678.62	36715.98
678.76	36594.28
678.90	36290.01
679.04	36825.99
679.18	36718.32
679.31	36212.77
679.45	36442.14
679.59	36217.45
679.73	36748.75
679.87	36400.01
680.00	36315.75
680.14	36070.00
680.28	35798.49
680.42	35796.15
680.56	35758.70
680.70	34696.10
680.83	35152.51
680.97	34555.67
681.11	35196.98
681.25	35281.24
681.39	34756.96
681.52	34946.54
681.66	35049.52
681.80	35346.77
681.94	34550.99
682.07	34904.41
682.21	34536.94
682.35	34204.59
682.49	34637.59
682.62	34333.32
682.76	33696.69
682.90	33670.95
683.04	33610.09
683.17	33848.83
683.31	33521.15
683.45	33261.35
683.59	33230.93
683.72	33177.09
683.86	32907.93
684.00	33071.77
684.13	33144.33
684.27	33193.48
684.41	33301.14
684.55	33303.48
684.68	32989.85
684.82	32950.06
684.96	32507.70
685.09	32240.88
685.23	32320.46
685.37	31924.91
685.50	32247.90
685.64	31669.79
685.78	31606.59
685.91	31407.65
686.05	31365.52
686.19	31454.46
686.32	31311.69
686.46	31288.28
686.60	30817.83
686.73	31168.91
686.87	31330.41
687.01	31246.15
687.14	31033.16
687.28	31150.19
687.42	31044.87
687.55	30239.72
687.69	30752.30
687.82	30644.63
687.96	30576.76
688.10	30092.27
688.23	29872.26
688.37	30029.07
688.50	29780.98
688.64	29717.78
688.78	29521.18
688.91	29600.76
689.05	29340.96
689.18	29692.04
689.32	29109.24
689.46	29460.32
689.59	29256.70
689.73	29127.97
689.86	29233.29
690.00	29036.69
690.13	29179.46
690.27	28985.19
690.41	28945.41
690.54	27990.47
690.68	28662.20
690.81	28386.02
690.95	28016.21
691.08	28439.85
691.22	28201.11
691.35	27924.93
691.49	28053.66
691.62	27697.90
691.76	27648.75
691.89	27510.66
692.03	27543.42
692.16	27835.99
692.30	27721.30
692.43	27644.07
692.57	26974.67
692.70	27065.96
692.84	26925.52
692.97	26792.11
693.11	26546.36
693.24	26141.44
693.38	25895.69
693.51	26047.82
693.65	26178.89
693.78	25928.45
693.92	26078.25
694.05	25883.98
694.19	25603.12
694.32	25479.07
694.45	25802.07
694.59	25614.82
694.72	25460.35
694.86	25682.70
694.99	25462.69
695.13	25453.33
695.26	25441.62
695.39	25083.52
695.53	24961.81
695.66	24713.72
695.80	24357.96
695.93	24477.32
696.07	23969.43
696.20	24355.61
696.33	23957.72
696.47	24112.20
696.60	24133.26
696.73	23805.59
696.87	23875.80
697.00	23812.61
697.14	23681.54
697.27	23613.66
697.40	23903.89
697.54	23772.82
697.67	23388.97
697.80	23468.55
697.94	23297.69
698.07	22955.97
698.21	23026.19
698.34	22665.75
698.47	22731.28
698.61	22017.42
698.74	22621.28
698.87	22405.95
699.01	22167.21
699.14	22115.72
699.27	22408.29
699.40	22139.13
699.54	21778.68
699.67	21977.63
699.80	21757.62
699.94	21671.02
700.07	21900.39
700.20	21521.23
700.34	21364.41
700.47	21317.60
700.60	21146.74
700.73	21425.26
700.87	21219.30
701.00	21137.38
701.13	20847.15
701.26	20781.62
701.40	20643.52
701.53	20547.56
701.66	20594.37
701.79	20374.36
701.93	20301.81
702.06	20231.59
702.19	20020.94
702.32	20133.29
702.46	20376.70
702.59	20362.66
702.72	19953.07
702.85	20072.43
702.99	19910.94
703.12	20044.35
703.25	19721.35
703.38	19403.04
703.51	19389.00
703.65	18965.36
703.78	19077.71
703.91	18916.21
704.04	18590.88
704.17	18845.99
704.31	18539.38
704.44	19197.07
704.57	18778.12
704.70	18628.32
704.83	18562.79
704.96	18633.00
705.10	18417.68
705.23	18452.78
>>>>>End Processed Spectral Data<<<<<
