SpectraSuite Data File
++++++++++++++++++++++++++++++++++++
Date: Fri Oct 04 11:39:39 GMT-05:00 2013
User: price-jones
Dark Spectrum Present: No
Reference Spectrum Present: No
Number of Sampled Component Spectra: 1
Spectrometers: USB2+H05261
Integration Time (usec): 100000 (USB2+H05261)
Spectra Averaged: 1 (USB2+H05261)
Boxcar Smoothing: 0 (USB2+H05261)
Correct for Electrical Dark: No (USB2+H05261)
Strobe/Lamp Enabled: No (USB2+H05261)
Correct for Detector Non-linearity: No (USB2+H05261)
Correct for Stray Light: No (USB2+H05261)
Number of Pixels in Processed Spectrum: 2048
>>>>>Begin Processed Spectral Data<<<<<
365.73	102.98
365.92	102.98
366.12	102.98
366.32	9.36
366.52	0.00
366.72	30.43
366.91	0.00
367.11	0.00
367.31	0.00
367.51	0.00
367.70	0.00
367.90	0.00
368.10	0.00
368.30	0.00
368.49	0.00
368.69	42.13
368.89	0.00
369.09	0.00
369.28	0.00
369.48	0.00
369.68	0.00
369.87	39.79
370.07	11.70
370.27	58.51
370.47	119.37
370.66	266.82
370.86	290.23
371.06	346.40
371.25	416.62
371.45	315.97
371.65	381.51
371.84	369.80
372.04	400.23
372.24	362.78
372.44	454.06
372.63	498.53
372.83	540.66
373.03	498.53
373.22	449.38
373.42	489.17
373.62	447.04
373.81	524.28
374.01	552.37
374.21	531.30
374.40	517.26
374.60	528.96
374.79	507.90
374.99	545.34
375.19	442.36
375.38	528.96
375.58	496.19
375.78	510.24
375.97	571.09
376.17	645.99
376.37	477.47
376.56	486.83
376.76	512.58
376.95	514.92
377.15	454.06
377.35	538.32
377.54	498.53
377.74	568.75
377.93	580.45
378.13	550.03
378.33	550.03
378.52	578.11
378.72	533.64
378.91	559.39
379.11	575.77
379.31	559.39
379.50	571.09
379.70	585.13
379.89	540.66
380.09	641.31
380.28	641.31
380.48	678.76
380.68	608.54
380.87	669.39
381.07	585.13
381.26	655.35
381.46	634.29
381.65	678.76
381.85	601.52
382.04	645.99
382.24	653.01
382.43	746.63
382.63	641.31
382.83	678.76
383.02	627.26
383.22	629.60
383.41	723.23
383.61	601.52
383.80	676.41
384.00	676.41
384.19	690.46
384.39	711.52
384.58	669.39
384.78	737.27
384.97	779.40
385.17	685.78
385.36	753.65
385.56	669.39
385.75	685.78
385.95	737.27
386.14	788.76
386.34	725.57
386.53	795.78
386.72	779.40
386.92	739.61
387.11	816.85
387.31	732.59
387.50	809.83
387.70	723.23
387.89	821.53
388.09	851.96
388.28	800.46
388.48	791.10
388.67	765.36
388.86	781.74
389.06	856.64
389.25	854.30
389.45	812.17
389.64	798.12
389.84	861.32
390.03	826.21
390.22	903.45
390.42	891.74
390.61	809.83
390.81	842.59
391.00	842.59
391.19	933.87
391.39	992.39
391.58	968.98
391.78	929.19
391.97	896.43
392.16	922.17
392.36	1001.75
392.55	922.17
392.75	1025.15
392.94	915.15
393.13	1004.09
393.33	1020.47
393.52	983.02
393.71	1071.97
393.91	1008.77
394.10	1043.88
394.29	1128.14
394.49	1022.81
394.68	1088.35
394.88	1067.28
395.07	1130.48
395.26	1090.69
395.46	1095.37
395.65	1221.76
395.84	1100.05
396.04	1247.51
396.23	1156.22
396.42	1167.93
396.62	1196.01
396.81	1181.97
397.00	1198.35
397.19	1336.45
397.39	1191.33
397.58	1179.63
397.77	1263.89
397.97	1343.47
398.16	1177.29
398.35	1259.21
398.55	1261.55
398.74	1224.10
398.93	1282.61
399.12	1308.36
399.32	1226.44
399.51	1291.98
399.70	1306.02
399.90	1313.04
400.09	1399.64
400.28	1385.60
400.47	1385.60
400.67	1416.02
400.86	1315.38
401.05	1467.52
401.24	1521.35
401.44	1479.22
401.63	1474.54
401.82	1418.36
402.01	1390.28
402.21	1423.05
402.40	1453.47
402.59	1472.20
402.78	1519.01
402.97	1502.62
403.17	1486.24
403.36	1570.50
403.55	1540.07
403.74	1593.90
403.93	1757.74
404.13	1708.59
404.32	1720.29
404.51	1680.50
404.70	1769.44
404.89	1652.42
405.09	1755.40
405.28	1762.42
405.47	1678.16
405.66	1760.08
405.85	1837.32
406.05	1813.92
406.24	1916.90
406.43	1732.00
406.62	1809.23
406.81	2001.16
407.00	1877.11
407.20	1778.81
407.39	1898.17
407.58	1940.30
407.77	1942.64
407.96	2036.27
408.15	1998.82
408.34	1959.03
408.54	2008.18
408.73	1956.69
408.92	2038.61
409.11	2157.97
409.30	2221.17
409.49	2022.22
409.68	2136.91
409.87	2087.76
410.07	2307.77
410.26	2115.84
410.45	2298.41
410.64	2305.43
410.83	2258.62
411.02	2249.25
411.21	2253.94
411.40	2303.09
411.59	2359.26
411.78	2275.00
411.98	2305.43
412.17	2459.90
412.36	2373.30
412.55	2551.18
412.74	2443.52
412.93	2511.39
413.12	2555.86
413.31	2693.96
413.50	2576.93
413.69	2661.19
413.88	2700.98
414.07	2619.06
414.26	2759.49
414.45	2670.55
414.64	2855.45
414.83	2771.19
415.02	2733.75
415.22	2874.18
415.41	2810.98
415.60	2890.56
415.79	2864.82
415.98	2928.01
416.17	3002.91
416.36	2958.44
416.55	3012.27
416.74	3103.55
416.93	3056.74
417.12	3108.23
417.31	3185.47
417.50	3117.59
417.69	3269.73
417.88	3309.52
418.07	3297.81
418.26	3239.30
418.45	3346.97
418.64	3410.16
418.83	3400.80
419.02	3393.78
419.21	3485.06
419.39	3337.60
419.58	3435.91
419.77	3421.86
419.96	3524.85
420.15	3534.21
420.34	3349.31
420.53	3384.41
420.72	3618.47
420.91	3630.17
421.10	3501.44
421.29	3801.03
421.48	3545.91
421.67	3726.13
421.86	3585.70
422.05	3798.69
422.24	3691.02
422.43	3655.92
422.61	3772.94
422.80	3712.09
422.99	3805.71
423.18	3801.03
423.37	3941.46
423.56	3751.88
423.75	3810.39
423.94	3688.68
424.13	3576.34
424.32	3684.00
424.50	3847.84
424.69	3866.56
424.88	3934.44
425.07	3878.27
425.26	3744.86
425.45	3817.41
425.64	3676.98
425.83	3864.22
426.01	3887.63
426.20	3915.72
426.39	3913.38
426.58	3894.65
426.77	3915.72
426.96	4037.42
427.15	3967.21
427.33	3969.55
427.52	4035.08
427.71	4037.42
427.90	4198.92
428.09	4011.68
428.28	4067.85
428.46	4142.75
428.65	4238.71
428.84	4306.59
429.03	4306.59
429.22	4198.92
429.40	4191.90
429.59	4266.80
429.78	4154.45
429.97	4245.73
430.16	4222.33
430.34	4299.56
430.53	4447.02
430.72	4351.06
430.91	4337.01
431.10	4435.32
431.28	4444.68
431.47	4524.26
431.66	4533.62
431.85	4428.29
432.03	4472.76
432.22	4774.69
432.41	4458.72
432.60	4599.15
432.79	4440.00
432.97	4631.92
433.16	4688.09
433.35	4641.28
433.54	4760.65
433.72	4727.88
433.91	4713.84
434.10	4542.98
434.28	4751.29
434.47	4905.76
434.66	4730.22
434.85	4734.90
435.03	4816.82
435.22	5027.47
435.41	5317.70
435.59	5364.51
435.78	5022.79
435.97	5076.62
436.16	5123.43
436.34	4964.28
436.53	5008.75
436.72	5135.14
436.90	4983.00
437.09	5238.12
437.28	5039.17
437.46	5076.62
437.65	5074.28
437.84	5156.20
438.02	5280.25
438.21	5153.86
438.40	5247.48
438.58	5331.74
438.77	5420.68
438.96	5305.99
439.14	5387.91
439.33	5586.86
439.52	5619.63
439.70	5486.22
439.89	5678.14
440.08	5717.93
440.26	5685.16
440.45	5736.65
440.63	5771.76
440.82	5692.18
441.01	5767.08
441.19	5980.07
441.38	5907.51
441.57	6118.16
441.75	5966.03
441.94	6106.46
442.12	6157.95
442.31	6251.57
442.50	6193.06
442.68	6296.04
442.87	6211.78
443.05	6209.44
443.24	6370.94
443.43	6277.32
443.61	6267.95
443.80	6424.77
443.98	6244.55
444.17	6069.01
444.35	6473.92
444.54	6560.52
444.73	6436.47
444.91	6375.62
445.10	6448.18
445.28	6490.31
445.47	6396.68
445.65	6277.32
445.84	6384.98
446.02	6527.75
446.21	6466.90
446.39	6408.39
446.58	6523.07
446.77	6626.06
446.95	6480.94
447.14	6604.99
447.32	6551.16
447.51	6537.12
447.69	6399.02
447.88	6492.65
448.06	6679.89
448.25	6686.91
448.43	6548.82
448.62	6532.44
448.80	6619.04
448.99	6621.38
449.17	6654.14
449.36	6789.89
449.54	6946.71
449.73	6850.75
449.91	6881.18
450.10	6839.05
450.28	7009.90
450.46	6885.86
450.65	6897.56
450.83	7007.56
451.02	6942.03
451.20	7155.02
451.39	6965.43
451.57	7016.93
451.76	6787.55
451.94	6897.56
452.13	7229.91
452.31	7040.33
452.49	6953.73
452.68	7297.79
452.86	7344.60
453.05	7138.63
453.23	7208.85
453.42	7157.36
453.60	7049.69
453.78	7152.68
453.97	7199.49
454.15	7211.19
454.34	7187.79
454.52	7660.57
454.70	7522.48
454.89	7253.32
455.07	7323.54
455.26	7403.11
455.44	7751.85
455.62	7543.55
455.81	7421.84
455.99	7719.09
456.17	7634.83
456.36	7810.37
456.54	7824.41
456.73	7892.29
456.91	8049.10
457.09	7808.03
457.28	8074.85
457.46	7887.61
457.64	8116.98
457.83	7983.57
458.01	7831.43
458.19	8285.50
458.38	7817.39
458.56	8128.68
458.74	8194.22
458.93	8149.75
459.11	8255.07
459.29	8231.66
459.48	8107.62
459.66	8210.60
459.84	8322.94
460.03	8313.58
460.21	8145.06
460.39	8521.89
460.57	8297.20
460.76	8411.89
460.94	8498.49
461.12	8341.67
461.31	8521.89
461.49	8411.89
461.67	8528.91
461.85	8779.35
462.04	8465.72
462.22	8784.03
462.40	8695.09
462.59	8571.04
462.77	8617.85
462.95	8933.82
463.13	8863.61
463.32	8875.31
463.50	8898.72
463.68	8922.12
463.86	8781.69
464.05	8767.65
464.23	8809.78
464.41	8861.27
464.59	8805.10
464.78	9074.26
464.96	8933.82
465.14	8990.00
465.32	9448.74
465.50	9088.30
465.69	9046.17
465.87	9235.75
466.05	9025.11
466.23	9095.32
466.41	9310.65
466.60	9596.20
466.78	9135.11
466.96	9207.67
467.14	9039.15
467.32	9270.86
467.51	9345.76
467.69	9331.72
467.87	9565.77
468.05	9645.35
468.23	9364.48
468.41	9336.40
468.60	9411.29
468.78	9661.73
468.96	9528.32
469.14	9734.29
469.32	9743.65
469.50	9371.50
469.69	9664.07
469.87	9834.93
470.05	9973.02
470.23	9750.67
470.41	9755.35
470.59	9954.30
470.77	9741.31
470.95	10153.24
471.14	10319.42
471.32	10033.88
471.50	10169.63
471.68	10003.45
471.86	10242.18
472.04	10401.34
472.22	10611.99
472.40	10345.17
472.58	10443.47
472.77	10399.00
472.95	10485.60
473.13	10892.85
473.31	10532.41
473.49	10590.92
473.67	10686.89
473.85	10640.08
474.03	10834.34
474.21	10717.31
474.39	10799.23
474.57	11091.80
474.75	11089.46
474.93	11087.12
475.12	11075.42
475.30	11140.95
475.48	11227.55
475.66	11365.64
475.84	11353.94
476.02	11714.38
476.20	11602.04
476.38	11641.82
476.56	12020.99
476.74	11985.88
476.92	11768.21
477.10	11936.73
477.28	12196.53
477.46	11875.88
477.64	12285.47
477.82	12226.96
478.00	12599.10
478.18	12624.85
478.36	12582.72
478.54	12699.75
478.72	12706.77
478.90	13004.02
479.08	13032.10
479.26	12917.42
479.44	13324.67
479.62	13338.71
479.80	13399.57
479.98	13378.50
480.16	13816.18
480.34	13703.84
480.52	13745.97
480.70	14061.94
480.88	13762.35
481.06	14036.19
481.24	14104.07
481.41	14370.89
481.59	14401.32
481.77	14621.33
481.95	14530.05
482.13	14810.91
482.31	14471.53
482.49	14703.25
482.67	14970.07
482.85	15000.49
483.03	15492.01
483.21	15536.48
483.39	15822.02
483.57	15510.73
483.74	15571.58
483.92	15964.79
484.10	15817.34
484.28	15894.58
484.46	16472.69
484.64	16343.96
484.82	16477.37
485.00	16601.42
485.18	16608.44
485.35	17006.33
485.53	17076.55
485.71	17287.20
485.89	17350.39
486.07	17364.43
486.25	17212.30
486.43	17628.92
486.61	17586.79
486.78	17895.74
486.96	18160.22
487.14	18527.68
487.32	18167.24
487.50	18530.02
487.68	18511.30
487.85	18876.42
488.03	19108.13
488.21	19047.28
488.39	19293.04
488.57	19604.33
488.75	19253.25
488.92	19791.57
489.10	19840.72
489.28	19676.88
489.46	20648.21
489.64	19817.32
489.81	20549.90
489.99	20599.05
490.17	20641.18
490.35	20779.28
490.53	20781.62
490.70	21018.01
490.88	21095.25
491.06	21200.57
491.24	21041.42
491.41	21451.01
491.59	21678.04
491.77	21766.98
491.95	21921.46
492.13	21975.29
492.30	22010.40
492.48	22012.74
492.66	22361.48
492.84	22143.81
493.01	22862.35
493.19	22637.66
493.37	22981.72
493.54	23061.30
493.72	22995.76
493.90	23133.86
494.08	23639.41
494.25	23398.34
494.43	23749.42
494.61	23786.86
494.79	23831.33
494.96	23988.15
495.14	23995.17
495.32	24280.72
495.49	24140.29
495.67	24762.87
495.85	25022.67
496.02	24582.65
496.20	25235.66
496.38	24842.45
496.55	25434.60
496.73	25783.34
496.91	25373.75
497.09	25649.93
497.26	26087.61
497.44	25418.22
497.62	25912.07
497.79	26169.53
497.97	25993.99
498.14	26466.78
498.32	26602.53
498.50	26455.08
498.67	26771.05
498.85	26792.11
499.03	26618.91
499.20	26719.56
499.38	27248.52
499.56	27417.04
499.73	27365.54
499.91	27225.11
500.08	27438.10
500.26	27421.72
500.44	27419.38
500.61	27843.01
500.79	27838.33
500.97	28180.05
501.14	28503.04
501.32	28332.18
501.49	28229.20
501.67	28329.84
501.84	28566.24
502.02	28484.32
502.20	28379.00
502.37	28954.77
502.55	28535.81
502.72	28989.88
502.90	29205.20
503.07	29085.84
503.25	29142.01
503.43	28973.49
503.60	29504.79
503.78	29560.97
503.95	29345.64
504.13	29582.03
504.30	29862.90
504.48	29778.64
504.65	30057.16
504.83	30078.22
505.01	30045.46
505.18	30230.36
505.36	30703.15
505.53	30307.60
505.71	30345.05
505.88	30307.60
506.06	30197.59
506.23	30756.98
506.41	30742.94
506.58	30967.63
506.76	31204.02
506.93	30976.99
507.11	31222.75
507.28	31407.65
507.46	30981.67
507.63	31527.02
507.81	31721.28
507.98	31711.92
508.16	31864.05
508.33	31414.67
508.50	31952.99
508.68	31941.29
508.85	32332.16
509.03	32156.62
509.20	32278.33
509.38	32423.44
509.55	32444.51
509.73	32676.22
509.90	32533.45
510.08	32638.77
510.25	32797.93
510.42	33053.05
510.60	32694.94
510.77	33303.48
510.95	33294.12
511.12	33057.73
511.30	33380.72
511.47	33289.44
511.64	33921.38
511.82	33720.10
511.99	33790.31
512.17	33905.00
512.34	33766.91
512.51	34352.04
512.69	34022.03
512.86	33921.38
513.04	34637.59
513.21	34408.22
513.38	34602.48
513.56	34541.63
513.73	34195.23
513.90	34794.40
514.08	34258.42
514.25	35065.91
514.43	35435.71
514.60	34869.30
514.77	35124.42
514.95	35182.93
515.12	35084.63
515.29	35152.51
515.47	35639.34
515.64	35386.56
515.81	35433.37
515.99	36102.76
516.16	36137.87
516.33	35665.08
516.51	35995.10
516.68	35597.21
516.85	35592.53
517.03	36013.82
517.20	36109.78
517.37	36718.32
517.54	36287.67
517.72	36009.14
517.89	36423.42
518.06	36259.58
518.24	36535.76
518.41	36079.36
518.58	37046.00
518.75	36402.35
518.93	36989.83
519.10	37214.52
519.27	36730.03
519.45	37249.63
519.62	36898.55
519.79	36889.18
519.96	37364.31
520.14	37443.89
520.31	37172.39
520.48	37488.36
520.65	37675.60
520.83	37813.70
521.00	37457.93
521.17	37930.72
521.34	37755.18
521.52	37907.32
521.69	38000.94
521.86	38286.48
522.03	38143.71
522.20	38511.17
522.38	38593.09
522.55	38368.40
522.72	38204.56
522.89	38384.79
523.07	38677.35
523.24	39384.19
523.41	38885.66
523.58	38752.25
523.75	39241.42
523.92	38998.01
524.10	38993.32
524.27	39117.37
524.44	39292.91
524.61	39559.73
524.78	39391.22
524.96	39814.85
525.13	39311.64
525.30	39601.86
525.47	39835.92
525.64	39442.71
525.81	39800.81
525.98	39746.98
526.16	39908.47
526.33	39826.56
526.50	40437.44
526.67	39611.23
526.84	40032.52
527.01	39910.82
527.18	40027.84
527.36	40430.41
527.53	40212.74
527.70	40790.86
527.87	40552.12
528.04	40573.19
528.21	40212.74
528.38	40666.81
528.55	41146.62
528.72	41045.97
528.89	40856.39
529.07	40722.98
529.24	40842.35
529.41	40870.43
529.58	40776.81
529.75	40840.01
529.92	40837.67
530.09	40905.54
530.26	41296.41
530.43	41476.63
530.60	41036.61
530.77	41390.03
530.94	41757.50
531.11	41394.71
531.28	41263.64
531.46	41324.50
531.63	41415.78
531.80	41446.21
531.97	41979.85
532.14	41610.04
532.31	41940.06
532.48	42038.36
532.65	41846.44
532.82	41991.55
532.99	42361.36
533.16	41902.61
533.33	42487.74
533.50	42644.56
533.67	42279.44
533.84	42146.03
534.01	42380.08
534.18	42480.72
534.35	42515.83
534.52	42401.14
534.69	42749.88
534.86	42843.51
535.03	42522.85
535.20	42906.70
535.37	43093.94
535.54	42775.63
535.71	42665.63
535.88	43068.20
536.05	43260.12
536.22	43189.91
536.38	43430.98
536.55	43351.40
536.72	43220.33
536.89	43370.13
537.06	43208.63
537.23	43353.74
537.40	43599.50
537.57	43250.76
537.74	43407.58
537.91	44177.61
538.08	43852.28
538.25	43320.98
538.42	43777.38
538.59	43840.57
538.75	43051.81
538.92	43578.43
539.09	43964.62
539.26	43981.01
539.43	44018.46
539.60	44226.76
539.77	44222.08
539.94	44746.36
540.11	43927.17
540.28	43896.75
540.44	44514.65
540.61	44191.65
540.78	44285.28
540.95	44282.94
541.12	44715.93
541.29	44587.21
541.46	44877.43
541.62	44844.66
541.79	45202.77
541.96	44666.78
542.13	44428.05
542.30	44832.96
542.47	44957.01
542.63	45158.30
542.80	45109.14
542.97	45455.54
543.14	45588.95
543.31	44903.18
543.48	45137.23
543.64	45617.04
543.81	45757.47
543.98	45654.49
544.15	45471.93
544.32	46115.58
544.48	46202.18
544.65	45619.38
544.82	45755.13
544.99	45713.00
545.16	46068.76
545.32	46094.51
545.49	46464.32
545.66	46866.89
545.83	47037.75
546.00	47110.30
546.16	46298.14
546.33	45900.25
546.50	45780.88
546.67	46120.26
546.83	45610.02
547.00	45965.78
547.17	46087.49
547.34	46256.01
547.50	46511.13
547.67	46387.08
547.84	46028.98
548.00	46333.24
548.17	46174.09
548.34	46457.29
548.51	46469.00
548.67	46791.99
548.84	46581.34
549.01	46466.66
549.18	46398.78
549.34	46621.13
549.51	46480.70
549.68	46600.07
549.84	46356.65
550.01	46621.13
550.18	46721.77
550.34	46822.42
550.51	46499.42
550.68	46810.71
550.84	46429.21
551.01	46897.31
551.18	46777.95
551.34	46506.44
551.51	46784.97
551.68	46653.90
551.84	47019.02
552.01	46705.39
552.18	47166.48
552.34	46902.00
552.51	46967.53
552.68	46836.46
552.84	47012.00
553.01	46880.93
553.18	46857.52
553.34	47267.12
553.51	47224.99
553.67	47423.93
553.84	47512.88
554.01	47515.22
554.17	47587.77
554.34	46829.44
554.51	47143.07
554.67	47386.49
554.84	47168.82
555.00	47550.32
555.17	47669.69
555.33	47550.32
555.50	47496.49
555.67	47636.92
555.83	47316.27
556.00	47140.73
556.16	47751.61
556.33	47878.00
556.50	47798.42
556.66	47611.18
556.83	47342.02
556.99	47665.01
557.16	47716.50
557.32	47718.84
557.49	47828.85
557.65	47538.62
557.82	47569.05
557.98	47885.02
558.15	47339.68
558.32	47594.79
558.48	47526.92
558.65	47943.53
558.81	47950.56
558.98	47709.48
559.14	48231.42
559.31	47821.83
559.47	48030.13
559.64	48009.07
559.80	48170.57
559.97	48226.74
560.13	48011.41
560.30	48318.02
560.46	48208.01
560.63	48217.38
560.79	48289.93
560.96	48502.92
561.12	47927.15
561.29	47966.94
561.45	48158.86
561.61	48116.73
561.78	48172.91
561.94	48439.73
562.11	48156.52
562.27	48299.30
562.44	48086.31
562.60	47938.85
562.77	48521.65
562.93	48130.78
563.10	48486.54
563.26	48184.61
563.42	48835.28
563.59	48336.74
563.75	48465.47
563.92	48617.61
564.08	47899.06
564.24	48509.94
564.41	48296.95
564.57	48367.17
564.74	48184.61
564.90	48271.21
565.07	48439.73
565.23	48439.73
565.39	48631.65
565.56	48617.61
565.72	48318.02
565.88	48715.91
566.05	48311.00
566.21	48016.09
566.38	48329.72
566.54	48760.38
566.70	48924.22
566.87	49226.15
567.03	48123.75
567.19	48882.09
567.36	48715.91
567.52	48259.51
567.68	48465.47
567.85	48264.19
568.01	48577.82
568.17	48346.11
568.34	48664.42
568.50	48711.23
568.66	48458.45
568.83	48804.85
568.99	48275.89
569.15	48690.16
569.32	48285.25
569.48	48502.92
569.64	48477.18
569.81	48713.57
569.97	48673.78
570.13	48816.55
570.30	48870.39
570.46	48985.07
570.62	48734.63
570.78	48854.00
570.95	48219.72
571.11	48729.95
571.27	48711.23
571.43	48559.09
571.60	48493.56
571.76	48964.01
571.92	49141.89
572.09	49242.53
572.25	48982.73
572.41	49057.63
572.57	49057.63
572.74	48774.42
572.90	48493.56
573.06	48591.86
573.22	48924.22
573.38	48346.11
573.55	48715.91
573.71	48949.96
573.87	48926.56
574.03	48767.40
574.20	48914.86
574.36	48870.39
574.52	49104.44
574.68	48655.06
574.84	48580.16
575.01	49031.88
575.17	49420.41
575.33	48631.65
575.49	48736.98
575.65	48971.03
575.82	48818.89
575.98	48680.80
576.14	48783.79
576.30	48732.29
576.46	49022.52
576.62	48570.80
576.79	48889.11
576.95	48573.14
577.11	48830.60
577.27	49221.47
577.43	48615.27
577.59	48928.90
577.75	49251.89
577.92	48486.54
578.08	48655.06
578.24	48617.61
578.40	48870.39
578.56	48886.77
578.72	49001.46
578.88	49045.93
579.04	49205.08
579.21	48985.07
579.37	49029.54
579.53	48769.74
579.69	48774.42
579.85	48830.60
580.01	48870.39
580.17	48589.52
580.33	48755.70
580.49	48926.56
580.65	49326.79
580.82	49052.95
580.98	48385.89
581.14	49010.82
581.30	48989.75
581.46	48800.17
581.62	49057.63
581.78	48254.82
581.94	49024.86
582.10	48633.99
582.26	49162.95
582.42	48729.95
582.58	48671.44
582.74	49223.81
582.90	48933.58
583.06	48863.36
583.22	48938.26
583.38	48889.11
583.54	48959.33
583.70	48879.75
583.86	48577.82
584.02	48947.62
584.18	49258.91
584.34	48809.53
584.50	49120.82
584.66	48886.77
584.82	48795.49
584.98	48910.17
585.14	48596.54
585.30	48708.89
585.46	49076.35
585.62	48748.68
585.78	48868.05
585.94	48804.85
586.10	48900.81
586.26	48751.02
586.42	49162.95
586.58	48973.37
586.74	48767.40
586.90	48751.02
587.06	48465.47
587.22	49045.93
587.38	48556.75
587.54	48952.30
587.70	48949.96
587.86	49181.68
588.02	49254.23
588.18	49125.50
588.34	49146.57
588.49	48898.47
588.65	48701.87
588.81	48945.28
588.97	49074.01
589.13	48882.09
589.29	48985.07
589.45	49034.22
589.61	48956.99
589.77	49418.07
589.93	49425.09
590.08	49184.02
590.24	49565.52
590.40	48919.54
590.56	49165.29
590.72	49043.59
590.88	48931.24
591.04	48823.58
591.20	49600.63
591.35	48982.73
591.51	49514.03
591.67	49338.49
591.83	49605.31
591.99	49055.29
592.15	48793.15
592.31	49155.93
592.46	49233.17
592.62	49291.68
592.78	48898.47
592.94	48966.35
593.10	48992.09
593.26	48940.60
593.41	49441.48
593.57	49427.43
593.73	49155.93
593.89	49315.09
594.05	49055.29
594.20	48975.71
594.36	49345.51
594.52	48999.12
594.68	48858.68
594.84	48856.34
594.99	49455.52
595.15	49090.40
595.31	49448.50
595.47	49097.42
595.62	49254.23
595.78	49130.19
595.94	48893.79
596.10	49160.61
596.25	48952.30
596.41	48940.60
596.57	48947.62
596.73	48935.92
596.88	49125.50
597.04	49343.17
597.20	49123.16
597.36	49326.79
597.51	49420.41
597.67	49177.00
597.83	48942.94
597.99	49191.04
598.14	49036.56
598.30	49331.47
598.46	49010.82
598.61	48928.90
598.77	48956.99
598.93	49251.89
599.09	49352.54
599.24	49577.23
599.40	49698.94
599.56	49413.39
599.71	49198.06
599.87	49221.47
600.03	49141.89
600.18	48870.39
600.34	48886.77
600.50	48954.64
600.65	48933.58
600.81	49092.74
600.97	49661.49
601.12	49127.84
601.28	49560.84
601.44	49343.17
601.59	49184.02
601.75	48956.99
601.91	49279.98
602.06	48762.72
602.22	49174.66
602.37	49022.52
602.53	49148.91
602.69	49544.46
602.84	49127.84
603.00	49212.10
603.16	49144.23
603.31	49188.70
603.47	49048.27
603.62	48940.60
603.78	49008.48
603.94	48949.96
604.09	48926.56
604.25	49036.56
604.40	48921.88
604.56	49289.34
604.71	49205.08
604.87	48945.28
605.03	48783.79
605.18	48851.66
605.34	48973.37
605.49	48781.45
605.65	48886.77
605.80	48460.79
605.96	48952.30
606.12	48708.89
606.27	48823.58
606.43	48835.28
606.58	48732.29
606.74	48956.99
606.89	48596.54
607.05	49013.16
607.20	49045.93
607.36	48643.35
607.51	48687.82
607.67	48891.45
607.82	48435.05
607.98	48549.73
608.13	48657.40
608.29	48545.05
608.44	48893.79
608.60	48708.89
608.75	48484.20
608.91	49088.06
609.06	48509.94
609.22	48413.98
609.37	48280.57
609.53	48790.81
609.68	48800.17
609.84	48479.52
609.99	48205.67
610.15	48369.51
610.30	49141.89
610.46	48858.68
610.61	48800.17
610.76	49244.87
610.92	48942.94
611.07	49539.78
611.23	49432.11
611.38	49090.40
611.54	48624.63
611.69	48736.98
611.84	48870.39
612.00	48601.22
612.15	48945.28
612.31	48856.34
612.46	48238.44
612.62	48839.96
612.77	48397.60
612.92	48619.95
613.08	48215.04
613.23	48563.78
613.39	48093.33
613.54	48034.81
613.69	47950.56
613.85	48289.93
614.00	48303.98
614.15	47882.68
614.31	48175.25
614.46	48081.63
614.62	48315.68
614.77	48231.42
614.92	48453.77
615.08	48102.69
615.23	48128.44
615.38	48058.22
615.54	47805.44
615.69	47351.38
615.84	47566.71
616.00	47798.42
616.15	47831.19
616.30	47721.18
616.46	48004.39
616.61	47875.66
616.76	48121.41
616.92	47709.48
617.07	47217.97
617.22	47964.60
617.37	47122.01
617.53	47618.20
617.68	47484.79
617.83	47182.86
617.99	47573.73
618.14	47349.04
618.29	47484.79
618.45	47358.40
618.60	47393.51
618.75	47569.05
618.90	47316.27
619.06	47222.65
619.21	47604.16
619.36	47653.31
619.51	46742.84
619.67	46813.05
619.82	47299.89
619.97	47318.61
620.12	46836.46
620.28	46939.44
620.43	47461.38
620.58	47269.46
620.73	47407.55
620.89	47070.51
621.04	47491.81
621.19	46993.28
621.34	46742.84
621.49	46740.50
621.65	46693.69
621.80	46726.46
621.95	46756.88
622.10	47007.32
622.25	46806.03
622.41	46529.85
622.56	46567.30
622.71	47082.22
622.86	47159.45
623.01	46494.74
623.16	46571.98
623.32	46351.97
623.47	46628.15
623.62	46614.11
623.77	46492.40
623.92	46632.83
624.07	46504.10
624.23	46220.90
624.38	46714.75
624.53	46653.90
624.68	46408.14
624.83	46555.60
624.98	46302.82
625.13	46284.09
625.29	46321.54
625.44	46227.92
625.59	46059.40
625.74	45851.09
625.89	46071.10
626.04	45839.39
626.19	45820.67
626.34	45954.08
626.49	45874.50
626.65	45834.71
626.80	46033.66
626.95	46103.87
627.10	45673.21
627.25	45586.61
627.40	45865.14
627.55	45830.03
627.70	45350.22
627.85	45556.19
628.00	45429.80
628.15	45773.86
628.30	45336.18
628.45	45923.65
628.60	45406.39
628.76	45724.71
628.91	45970.46
629.06	45673.21
629.21	45586.61
629.36	45490.65
629.51	45434.48
629.66	45373.63
629.81	45371.28
629.96	45247.24
630.11	45287.03
630.26	45036.59
630.41	45069.36
630.56	44973.39
630.71	45291.71
630.86	44889.13
631.01	45177.02
631.16	45446.18
631.31	44992.12
631.46	45202.77
631.61	44741.68
631.76	45254.26
631.91	45088.08
632.06	44800.19
632.21	44598.91
632.36	44432.73
632.51	44706.57
632.66	44598.91
632.81	44421.03
632.96	44816.58
633.10	44619.97
633.25	44835.30
633.40	45067.02
633.55	44645.72
633.70	44573.16
633.85	44484.22
634.00	44690.19
634.15	44512.31
634.30	44247.83
634.45	44631.68
634.60	44402.30
634.75	44374.22
634.90	44313.36
635.05	44282.94
635.19	44507.63
635.34	44465.50
635.49	44306.34
635.64	43931.86
635.79	43985.69
635.94	44163.57
636.09	44240.81
636.24	43964.62
636.39	43641.63
636.53	44282.94
636.68	43770.36
636.83	43971.64
636.98	44605.93
637.13	43765.68
637.28	43751.63
637.43	44002.07
637.57	44397.62
637.72	43784.40
637.87	44144.84
638.02	43838.23
638.17	43725.89
638.32	43880.36
638.46	43606.52
638.61	43220.33
638.76	43517.58
638.91	43337.36
639.06	43674.40
639.20	43721.21
639.35	43690.78
639.50	43316.29
639.65	43749.29
639.80	43267.14
639.94	43407.58
640.09	43667.37
640.24	43695.46
640.39	43028.41
640.54	43435.66
640.68	42880.95
640.83	42955.85
640.98	42913.72
641.13	42810.74
641.27	43173.52
641.42	43409.92
641.57	43019.05
641.72	42965.21
641.86	43297.57
642.01	43033.09
642.16	42700.73
642.31	42852.87
642.45	42906.70
642.60	42878.61
642.75	42710.10
642.90	42691.37
643.04	42696.05
643.19	42670.31
643.34	42801.38
643.48	42670.31
643.63	42895.00
643.78	43173.52
643.93	42937.13
644.07	42476.04
644.22	42394.12
644.37	42476.04
644.51	42611.79
644.66	42927.77
644.81	42089.85
644.95	42483.06
645.10	41986.87
645.25	42213.90
645.39	42492.43
645.54	42363.70
645.69	42335.61
645.83	42464.34
645.98	42848.19
646.13	42394.12
646.27	42808.40
646.42	41764.52
646.57	42155.39
646.71	42511.15
646.86	42036.02
647.00	42394.12
647.15	41926.02
647.30	41844.10
647.44	42036.02
647.59	42164.75
647.74	42403.49
647.88	41612.38
648.03	41647.49
648.17	42211.56
648.32	42066.45
648.47	41556.21
648.61	41621.75
648.76	41727.07
648.90	41841.76
649.05	41717.71
649.20	41759.84
649.34	41909.63
649.49	41221.52
649.63	41507.06
649.78	41532.81
649.92	41226.20
650.07	42071.13
650.21	41415.78
650.36	41668.56
650.51	41551.53
650.65	41638.13
650.80	41769.20
650.94	41436.84
651.09	41155.98
651.23	40982.78
651.38	40942.99
651.52	40996.82
651.67	41095.13
651.81	41308.11
651.96	40718.30
652.10	41111.51
652.25	40734.68
652.39	41514.08
652.54	41029.59
652.68	41020.23
652.83	40790.86
652.97	41427.48
653.12	41343.22
653.26	40744.05
653.41	40786.18
653.55	40849.37
653.70	40926.61
653.84	40832.99
653.99	41200.45
654.13	40524.04
654.27	40622.34
654.42	41020.23
654.56	40701.92
654.71	41090.44
654.85	40802.56
655.00	40467.86
655.14	40432.75
655.29	40519.35
655.43	40229.13
655.57	40322.75
655.72	40421.05
655.86	40268.92
656.01	40041.88
656.15	40318.07
656.30	40484.25
656.44	40133.17
656.58	40121.46
656.73	40297.00
656.87	40353.18
657.01	40091.04
657.16	40102.74
657.30	40240.83
657.45	40430.41
657.59	40182.32
657.73	39882.73
657.88	39793.79
658.02	39641.65
658.16	39344.41
658.31	39636.97
658.45	39711.87
658.60	39218.02
658.74	39622.93
658.88	39810.17
659.03	39449.73
659.17	39763.36
659.31	39533.99
659.46	39503.56
659.60	39803.15
659.74	39463.77
659.89	39583.14
660.03	39578.46
660.17	39536.33
660.32	39248.44
660.46	39068.22
660.60	38904.38
660.74	38962.90
660.89	39042.48
661.03	38899.70
661.17	38665.65
661.32	38967.58
661.46	39143.12
661.60	38583.73
661.74	38646.93
661.89	38703.10
662.03	38927.79
662.17	38815.44
662.31	38546.28
662.46	38665.65
662.60	38438.62
662.74	38363.72
662.88	37909.66
663.03	38412.87
663.17	38139.03
663.31	38227.97
663.45	38085.20
663.60	38134.35
663.74	37626.45
663.88	38436.28
664.02	37806.67
664.17	38054.77
664.31	38288.82
664.45	37883.91
664.59	37926.04
664.73	37415.80
664.88	37736.46
665.02	37118.56
665.16	37460.27
665.30	37240.26
665.44	37722.41
665.59	37275.37
665.73	37268.35
665.87	37116.22
666.01	37095.15
666.15	37441.55
666.29	37193.45
666.44	37649.86
666.58	37181.75
666.72	36804.92
666.86	37216.86
667.00	37289.42
667.14	36898.55
667.28	36940.68
667.43	36629.38
667.57	36563.85
667.71	36725.35
667.85	36514.70
667.99	36741.73
668.13	36582.57
668.27	36002.12
668.41	36493.63
668.56	36009.14
668.70	36561.51
668.84	35962.33
668.98	36428.10
669.12	36325.11
669.26	36154.26
669.40	36341.50
669.54	36105.10
669.68	35770.41
669.82	35922.54
669.96	35622.95
670.10	35611.25
670.25	35756.36
670.39	35129.10
670.53	35732.96
670.67	35351.45
670.81	35756.36
670.95	35505.93
671.09	35639.34
671.23	35400.60
671.37	35196.98
671.51	35625.29
671.65	35271.87
671.79	35302.30
671.93	35005.05
672.07	34932.50
672.21	34782.70
672.35	34965.26
672.49	34579.07
672.63	34590.78
672.77	34426.94
672.91	34195.23
673.05	34593.12
673.19	34696.10
673.33	34082.88
673.47	34569.71
673.61	34572.05
673.75	34422.26
673.89	34218.63
674.03	34075.86
674.17	34036.07
674.31	33790.31
674.45	33661.58
674.59	33357.32
674.73	33558.60
674.87	33326.89
675.01	33539.88
675.15	33790.31
675.29	33174.75
675.43	33200.50
675.56	33247.31
675.70	33406.47
675.84	33254.33
675.98	32704.31
676.12	33263.69
676.26	32446.85
676.40	32989.85
676.54	32987.51
676.68	32840.06
676.82	32229.18
676.96	32327.48
677.10	32350.88
677.23	32339.18
677.37	32013.85
677.51	31702.56
677.65	31850.01
677.79	31653.40
677.93	31751.71
678.07	31543.40
678.21	31372.54
678.34	31400.63
678.48	31150.19
678.62	31512.97
678.76	31372.54
678.90	30717.19
679.04	30869.33
679.18	31051.89
679.31	30897.41
679.45	30408.24
679.59	30553.35
679.73	30508.88
679.87	30347.39
680.00	30520.59
680.14	30424.62
680.28	30368.45
680.42	29549.26
680.56	30202.27
680.70	29858.21
680.83	30003.33
680.97	29816.08
681.11	29982.26
681.25	29890.98
681.39	29167.76
681.52	29347.98
681.66	29338.62
681.80	29237.97
681.94	29076.48
682.07	29156.05
682.21	29092.86
682.35	28769.86
682.49	28851.78
682.62	28683.27
682.76	28641.14
682.90	28683.27
683.04	28479.64
683.17	28620.07
683.31	28320.48
683.45	28334.53
683.59	28313.46
683.72	28063.02
683.86	28079.41
684.00	27910.89
684.13	28023.23
684.27	27772.80
684.41	27491.93
684.55	27328.10
684.68	27215.75
684.82	27129.15
684.96	26824.88
685.09	27047.23
685.23	27168.94
685.37	26855.31
685.50	27166.60
685.64	26803.82
685.78	26668.06
685.91	26841.26
686.05	26651.68
686.19	26651.68
686.32	26572.10
686.46	25783.34
686.60	26162.51
686.73	26382.52
686.87	26136.76
687.01	25954.20
687.14	25502.48
687.28	25467.37
687.42	25371.41
687.55	25450.99
687.69	25675.68
687.82	25228.63
687.96	25624.18
688.10	25343.32
688.23	25139.69
688.37	25273.10
688.50	25181.82
688.64	25008.62
688.78	25212.25
688.91	24929.05
689.05	25099.90
689.18	24517.11
689.32	24421.15
689.46	24301.78
689.59	24425.83
689.73	24091.13
689.86	23936.66
690.00	24116.88
690.13	23999.85
690.27	23674.52
690.41	23695.58
690.54	23770.48
690.68	23580.90
690.81	23775.16
690.95	23679.20
691.08	23440.47
691.22	23405.36
691.35	23356.21
691.49	23372.59
691.62	22899.80
691.76	22794.48
691.89	22742.99
692.03	22869.37
692.16	22216.36
692.30	22773.41
692.43	22487.87
692.57	22242.11
692.70	22153.17
692.84	22197.64
692.97	22068.91
693.11	21874.65
693.24	21926.14
693.38	22036.14
693.51	22073.59
693.65	21687.40
693.78	21568.04
693.92	21783.37
694.05	21858.26
694.19	21661.66
694.32	21652.30
694.45	21057.80
694.59	21181.85
694.72	21025.03
694.86	20868.22
694.99	20655.23
695.13	20950.14
695.26	20655.23
695.39	20444.58
695.53	20517.14
695.66	20521.82
695.80	20369.68
695.93	20362.66
696.07	20592.03
696.20	19999.88
696.33	20049.03
696.47	20063.07
696.60	20084.14
696.73	19873.49
696.87	19466.24
697.00	19683.91
697.14	19391.34
697.27	19040.26
697.40	19094.09
697.54	18988.77
697.67	19318.78
697.80	19037.92
697.94	19021.53
698.07	18995.79
698.21	18801.52
698.34	19140.90
698.47	18897.49
698.61	18562.79
698.74	18654.07
698.87	18712.58
699.01	18377.89
699.14	18380.23
699.27	18214.05
699.40	18321.71
699.54	18026.81
699.67	17781.05
699.80	17818.50
699.94	17626.57
700.07	17767.01
700.20	17544.66
700.34	17530.61
700.47	17373.80
700.60	17441.67
700.73	17448.69
700.87	17425.29
701.00	17387.84
701.13	17109.32
701.26	17291.88
701.40	17158.47
701.53	17326.99
701.66	17212.30
701.79	16877.60
701.93	16945.48
702.06	16905.69
702.19	16414.18
702.32	16643.55
702.46	16250.34
702.59	16360.34
702.72	16163.74
702.85	16154.38
702.99	16037.35
703.12	16212.89
703.25	15978.84
703.38	16077.14
703.51	15805.64
703.65	15798.62
703.78	15887.56
703.91	15805.64
704.04	16128.63
704.17	15714.36
704.31	15466.26
704.44	15389.02
704.57	15484.98
704.70	15103.48
704.83	15222.84
704.96	15215.82
705.10	15059.01
705.23	15005.17
>>>>>End Processed Spectral Data<<<<<
