SpectraSuite Data File
++++++++++++++++++++++++++++++++++++
Date: Tue Oct 01 18:27:25 GMT-05:00 2013
User: stostad
Dark Spectrum Present: No
Reference Spectrum Present: No
Number of Sampled Component Spectra: 1
Spectrometers: USB2+H05261
Integration Time (usec): 100000 (USB2+H05261)
Spectra Averaged: 1 (USB2+H05261)
Boxcar Smoothing: 0 (USB2+H05261)
Correct for Electrical Dark: No (USB2+H05261)
Strobe/Lamp Enabled: No (USB2+H05261)
Correct for Detector Non-linearity: No (USB2+H05261)
Correct for Stray Light: No (USB2+H05261)
Number of Pixels in Processed Spectrum: 2048
>>>>>Begin Processed Spectral Data<<<<<
365.73	77.24
365.92	77.24
366.12	77.24
366.32	0.00
366.52	0.00
366.72	65.54
366.91	0.00
367.11	0.00
367.31	0.00
367.51	0.00
367.70	32.77
367.90	0.00
368.10	0.00
368.30	0.00
368.49	0.00
368.69	18.72
368.89	0.00
369.09	0.00
369.28	23.41
369.48	0.00
369.68	42.13
369.87	14.04
370.07	0.00
370.27	46.81
370.47	93.62
370.66	292.57
370.86	421.30
371.06	297.25
371.25	423.64
371.45	381.51
371.65	379.17
371.84	341.72
372.04	383.85
372.24	386.19
372.44	313.63
372.63	397.89
372.83	379.17
373.03	341.72
373.22	425.98
373.42	348.74
373.62	379.17
373.81	461.09
374.01	442.36
374.21	402.57
374.40	332.36
374.60	458.74
374.79	458.74
374.99	411.93
375.19	484.49
375.38	409.59
375.58	449.38
375.78	528.96
375.97	437.68
376.17	512.58
376.37	437.68
376.56	514.92
376.76	526.62
376.95	531.30
377.15	472.79
377.35	416.62
377.54	603.86
377.74	468.11
377.93	489.17
378.13	540.66
378.33	533.64
378.52	458.74
378.72	561.73
378.91	519.60
379.11	545.34
379.31	479.81
379.50	528.96
379.70	514.92
379.89	582.79
380.09	482.15
380.28	472.79
380.48	557.05
380.68	533.64
380.87	517.26
381.07	535.98
381.26	550.03
381.46	587.47
381.65	568.75
381.85	566.41
382.04	531.30
382.24	634.29
382.43	500.87
382.63	557.05
382.83	552.37
383.02	538.32
383.22	608.54
383.41	594.50
383.61	545.34
383.80	610.88
384.00	641.31
384.19	568.75
384.39	580.45
384.58	648.33
384.78	669.39
384.97	643.65
385.17	610.88
385.36	660.03
385.56	636.63
385.75	543.00
385.95	573.43
386.14	674.07
386.34	660.03
386.53	585.13
386.72	732.59
386.92	650.67
387.11	713.86
387.31	716.20
387.50	655.35
387.70	631.94
387.89	725.57
388.09	683.44
388.28	660.03
388.48	653.01
388.67	660.03
388.86	674.07
389.06	702.16
389.25	739.61
389.45	760.67
389.64	753.65
389.84	709.18
390.03	784.08
390.22	730.25
390.42	770.04
390.61	711.52
390.81	662.37
391.00	821.53
391.19	737.27
391.39	807.48
391.58	734.93
391.78	833.23
391.97	816.85
392.16	875.36
392.36	828.55
392.55	800.46
392.75	840.25
392.94	812.17
393.13	744.29
393.33	854.30
393.52	884.72
393.71	870.68
393.91	945.58
394.10	898.77
394.29	877.70
394.49	898.77
394.68	964.30
394.88	844.93
395.07	954.94
395.26	1015.79
395.46	884.72
395.65	1048.56
395.84	1022.81
396.04	968.98
396.23	1027.50
396.42	1093.03
396.62	992.39
396.81	1083.67
397.00	992.39
397.19	1132.82
397.39	1043.88
397.58	1078.99
397.77	1015.79
397.97	1109.41
398.16	1064.94
398.35	1055.58
398.55	1165.59
398.74	1095.37
398.93	1121.12
399.12	1196.01
399.32	992.39
399.51	1107.07
399.70	1158.57
399.90	1165.59
400.09	1191.33
400.28	1324.74
400.47	1238.14
400.67	1350.49
400.86	1123.46
401.05	1287.29
401.24	1322.40
401.44	1254.53
401.63	1268.57
401.82	1156.22
402.01	1270.91
402.21	1371.55
402.40	1310.70
402.59	1418.36
402.78	1359.85
402.97	1439.43
403.17	1483.90
403.36	1413.68
403.55	1509.65
403.74	1486.24
403.93	1511.99
404.13	1507.30
404.32	1483.90
404.51	1561.14
404.70	1537.73
404.89	1502.62
405.09	1624.33
405.28	1537.73
405.47	1626.67
405.66	1645.40
405.85	1493.26
406.05	1556.46
406.24	1591.56
406.43	1650.08
406.62	1720.29
406.81	1832.64
407.00	1774.13
407.20	1629.01
407.39	1687.53
407.58	1732.00
407.77	1741.36
407.96	1774.13
408.15	1769.44
408.34	1781.15
408.54	1849.02
408.73	1860.73
408.92	1881.79
409.11	1881.79
409.30	1980.09
409.49	2012.86
409.68	1930.94
409.87	1996.48
410.07	2005.84
410.26	2001.16
410.45	2050.31
410.64	2050.31
410.83	2076.06
411.02	2033.93
411.21	2197.76
411.40	2174.36
411.59	2090.10
411.78	2115.84
411.98	2129.89
412.17	2293.72
412.36	2277.34
412.55	2244.57
412.74	2319.47
412.93	2385.01
413.12	2181.38
413.31	2506.71
413.50	2324.15
413.69	2361.60
413.88	2480.97
414.07	2443.52
414.26	2546.50
414.45	2511.39
414.64	2534.80
414.83	2635.44
415.02	2555.86
415.22	2621.40
415.41	2759.49
415.60	2703.32
415.79	2738.43
415.98	2633.10
416.17	2834.39
416.36	2647.15
416.55	2874.18
416.74	2913.97
416.93	2906.95
417.12	2895.24
417.31	2928.01
417.50	2855.45
417.69	2946.73
417.88	2981.84
418.07	3033.33
418.26	3052.06
418.45	3000.57
418.64	3119.93
418.83	3016.95
419.02	3246.32
419.21	3150.36
419.39	3218.24
419.58	3087.17
419.77	3246.32
419.96	3220.58
420.15	3328.24
420.34	3148.02
420.53	3265.05
420.72	3372.71
420.91	3440.59
421.10	3403.14
421.29	3496.76
421.48	3382.07
421.67	3403.14
421.86	3227.60
422.05	3368.03
422.24	3478.04
422.43	3438.25
422.61	3396.12
422.80	3377.39
422.99	3414.84
423.18	3555.27
423.37	3508.46
423.56	3424.20
423.75	3475.70
423.94	3555.27
424.13	3445.27
424.32	3461.65
424.50	3522.51
424.69	3485.06
424.88	3686.34
425.07	3459.31
425.26	3496.76
425.45	3602.08
425.64	3482.72
425.83	3597.40
426.01	3794.01
426.20	3646.55
426.39	3709.75
426.58	3651.24
426.77	3688.68
426.96	3679.32
427.15	3604.42
427.33	3695.71
427.52	3775.28
427.71	3735.50
427.90	3756.56
428.09	3740.18
428.28	3957.85
428.46	3735.50
428.65	3915.72
428.84	3882.95
429.03	3798.69
429.22	3838.48
429.40	3978.91
429.59	4039.76
429.78	3801.03
429.97	3831.46
430.16	3758.90
430.34	3864.22
430.53	4100.62
430.72	4109.98
430.91	3960.19
431.10	3948.48
431.28	4102.96
431.47	4262.12
431.66	4252.75
431.85	4081.89
432.03	4262.12
432.22	4339.35
432.41	4161.47
432.60	4435.32
432.79	4245.73
432.97	4212.96
433.16	4276.16
433.35	4318.29
433.54	4339.35
433.72	4353.40
433.91	4414.25
434.10	4484.47
434.28	4428.29
434.47	4447.02
434.66	4425.95
434.85	4484.47
435.03	4423.61
435.22	4514.89
435.41	4645.96
435.59	4772.35
435.78	4655.33
435.97	4578.09
436.16	4891.72
436.34	4737.24
436.53	4652.98
436.72	4809.80
436.90	4528.94
437.09	4716.18
437.28	4571.07
437.46	4662.35
437.65	4655.33
437.84	4788.74
438.02	4753.63
438.21	4894.06
438.40	4851.93
438.58	5015.77
438.77	4938.53
438.96	5104.71
439.14	5062.58
439.33	5088.32
439.52	5205.35
439.70	5261.52
439.89	5376.21
440.08	5301.31
440.26	5359.83
440.45	5315.36
440.63	5397.28
440.82	5565.79
441.01	5488.56
441.19	5596.22
441.38	5526.00
441.57	5628.99
441.75	5603.24
441.94	5657.07
442.12	5675.80
442.31	5802.19
442.50	5851.34
442.68	5661.76
442.87	5715.59
443.05	5909.85
443.24	5982.41
443.43	5856.02
443.61	6080.71
443.80	6012.84
443.98	5792.83
444.17	5710.91
444.35	5984.75
444.54	6108.80
444.73	5989.43
444.91	6120.50
445.10	6029.22
445.28	5874.74
445.47	6005.81
445.65	6040.92
445.84	6083.05
446.02	6083.05
446.21	6036.24
446.39	6167.31
446.58	6127.52
446.77	6022.20
446.95	5940.28
447.14	6085.39
447.32	6193.06
447.51	6171.99
447.69	6253.91
447.88	6221.14
448.06	6054.97
448.25	6174.33
448.43	6207.10
448.62	6190.72
448.80	6244.55
448.99	6076.03
449.17	6370.94
449.36	6153.27
449.54	6523.07
449.73	6513.71
449.91	6338.17
450.10	6399.02
450.28	6523.07
450.46	6499.67
450.65	6691.59
450.83	6534.78
451.02	6469.24
451.20	6478.60
451.39	6658.82
451.57	6548.82
451.76	6637.76
451.94	6693.93
452.13	6700.95
452.31	6867.13
452.49	6600.31
452.68	6782.87
452.86	6771.17
453.05	6864.79
453.23	6747.76
453.42	6799.26
453.60	6834.36
453.78	6960.75
453.97	6857.77
454.15	6815.64
454.34	6927.99
454.52	7194.81
454.70	6946.71
454.89	7140.97
455.07	7061.40
455.26	7229.91
455.44	7140.97
455.62	7255.66
455.81	7028.63
455.99	7084.80
456.17	7321.20
456.36	7204.17
456.54	7272.04
456.73	7351.62
456.91	7730.79
457.09	7559.93
457.28	7737.81
457.46	7538.87
457.64	7503.76
457.83	7543.55
458.01	7534.18
458.19	7763.56
458.38	7569.29
458.56	7798.66
458.74	7578.65
458.93	7545.89
459.11	7885.26
459.29	7758.88
459.48	7775.26
459.66	8081.87
459.84	7885.26
460.03	8060.80
460.21	8100.59
460.39	8189.53
460.57	8030.38
460.76	7988.25
460.94	8063.15
461.12	7866.54
461.31	8196.56
461.49	8093.57
461.67	8018.68
461.85	8175.49
462.04	8285.50
462.22	8681.05
462.40	8402.52
462.59	8264.43
462.77	8454.02
462.95	8318.26
463.13	8421.25
463.32	8409.54
463.50	8425.93
463.68	8585.08
463.86	8671.68
464.05	8568.70
464.23	8432.95
464.41	8454.02
464.59	8304.22
464.78	8840.20
464.96	8657.64
465.14	8468.06
465.32	8755.94
465.50	8861.27
465.69	8692.75
465.87	8723.18
466.05	8861.27
466.23	8840.20
466.41	8812.12
466.60	8975.95
466.78	8887.01
466.96	8826.16
467.14	8980.64
467.32	8924.46
467.51	8849.57
467.69	8791.05
467.87	8875.31
468.05	9004.04
468.23	9102.34
468.41	8889.35
468.60	9146.81
468.78	9123.41
468.96	9128.09
469.14	9338.74
469.32	9341.08
469.50	9123.41
469.69	9385.55
469.87	9465.13
470.05	9493.21
470.23	9327.03
470.41	9621.94
470.59	9549.39
470.77	9486.19
470.95	9797.48
471.14	9713.22
471.32	9525.98
471.50	9706.20
471.68	9830.25
471.86	9898.13
472.04	9933.23
472.22	10232.82
472.40	9778.76
472.58	9944.94
472.77	10061.96
472.95	10394.32
473.13	10417.72
473.31	9970.68
473.49	10171.97
473.67	10090.05
473.85	10214.10
474.03	10354.53
474.21	10539.43
474.39	10569.86
474.57	10576.88
474.75	10712.63
474.93	11000.52
475.12	10604.97
475.30	10789.87
475.48	10927.96
475.66	10827.32
475.84	10757.10
476.02	10977.11
476.20	11122.23
476.38	11365.64
476.56	11625.44
476.74	11569.27
476.92	11510.75
477.10	11611.40
477.28	11672.25
477.46	11716.72
477.64	12030.35
477.82	11985.88
478.00	12365.05
478.18	12070.14
478.36	12145.04
478.54	12294.83
478.72	12416.54
478.90	12669.32
479.08	12704.43
479.26	12898.69
479.44	12947.84
479.62	12776.98
479.80	12844.86
479.98	12994.65
480.16	13188.92
480.34	13504.89
480.52	13469.78
480.70	13455.74
480.88	13156.15
481.06	13453.40
481.24	13692.13
481.41	13846.61
481.59	13848.95
481.77	13907.46
481.95	14122.79
482.13	14305.35
482.31	14214.07
482.49	14497.28
482.67	14501.96
482.85	14785.16
483.03	15227.53
483.21	14988.79
483.39	15012.20
483.57	14904.53
483.74	15169.01
483.92	15363.28
484.10	15267.31
484.28	16027.99
484.46	16074.80
484.64	16278.43
484.82	16020.97
485.00	16311.19
485.18	16582.70
485.35	16390.77
485.53	16599.08
485.71	16650.57
485.89	17142.08
486.07	16854.20
486.25	17083.57
486.43	16884.62
486.61	17397.20
486.78	17425.29
486.96	17598.49
487.14	17738.92
487.32	17408.90
487.50	18061.91
487.68	18302.99
487.85	18312.35
488.03	18457.46
488.21	18623.64
488.39	18499.59
488.57	18867.06
488.75	18714.92
488.92	19536.45
489.10	19173.67
489.28	19679.22
489.46	19583.26
489.64	19477.94
489.81	20137.97
489.99	19983.49
490.17	20226.91
490.35	20650.55
490.53	20685.65
490.70	20908.01
490.88	20531.18
491.06	20851.83
491.24	20865.88
491.41	20835.45
491.59	21287.17
491.77	21191.21
491.95	21790.39
492.13	21596.12
492.30	21556.33
492.48	21881.67
492.66	21961.25
492.84	22321.69
493.01	22106.36
493.19	22207.00
493.37	22382.54
493.54	22616.60
493.72	22979.38
493.90	22661.07
494.08	23098.75
494.25	23585.58
494.43	23311.74
494.61	23388.97
494.79	23805.59
494.96	23735.37
495.14	23646.43
495.32	24184.76
495.49	24182.42
495.67	24517.11
495.85	23969.43
496.02	24652.86
496.20	24505.41
496.38	25118.63
496.55	24711.38
496.73	25003.94
496.91	25097.56
497.09	25483.75
497.26	25626.53
497.44	25296.51
497.62	25488.43
497.79	26192.94
497.97	26096.97
498.14	26382.52
498.32	25996.33
498.50	26314.64
498.67	26141.44
498.85	26293.58
499.03	26464.44
499.20	26644.66
499.38	26597.85
499.56	26822.54
499.73	27241.50
499.91	27182.98
500.08	27140.85
500.26	27536.40
500.44	27381.93
500.61	27594.92
500.79	27131.49
500.97	27725.99
501.14	28013.87
501.32	28091.11
501.49	28126.22
501.67	28034.94
501.84	28669.22
502.02	28383.68
502.20	28683.27
502.37	28833.06
502.55	28493.68
502.72	28388.36
502.90	28774.55
503.07	28814.34
503.25	29017.96
503.43	28863.49
503.60	29422.87
503.78	29083.50
503.95	29319.89
504.13	29436.92
504.30	29425.22
504.48	29633.52
504.65	30195.25
504.83	29907.37
505.01	30251.42
505.18	30059.50
505.36	30728.89
505.53	29958.86
505.71	30558.03
505.88	30415.26
506.06	30422.28
506.23	31063.59
506.41	30733.57
506.58	30794.43
506.76	30632.93
506.93	30862.30
507.11	30855.28
507.28	31309.35
507.46	31363.18
507.63	31543.40
507.81	31665.11
507.98	31234.45
508.16	31564.46
508.33	31587.87
508.50	32292.37
508.68	31889.80
508.85	32039.59
509.03	32070.02
509.20	32091.09
509.38	32184.71
509.55	32299.39
509.73	32683.24
509.90	32840.06
510.08	32570.90
510.25	32929.00
510.42	32989.85
510.60	32980.49
510.77	33237.95
510.95	33352.63
511.12	33268.37
511.30	33631.16
511.47	33507.11
511.64	33530.51
511.82	33823.08
511.99	33343.27
512.17	34024.37
512.34	33759.89
512.51	34295.87
512.69	34389.49
512.86	34349.70
513.04	34801.43
513.21	34927.81
513.38	34225.65
513.56	34967.60
513.73	33813.72
513.90	34761.64
514.08	34841.21
514.25	35105.70
514.43	35356.13
514.60	34967.60
514.77	34965.26
514.95	35637.00
515.12	34998.03
515.29	35262.51
515.47	35634.66
515.64	35803.17
515.81	35955.31
515.99	35721.26
516.16	36287.67
516.33	35999.78
516.51	36402.35
516.68	36016.16
516.85	36458.52
517.03	36601.30
517.20	36692.58
517.37	36552.15
517.54	36378.95
517.72	36685.56
517.89	36282.98
518.06	36804.92
518.24	36842.37
518.41	36739.39
518.58	36884.50
518.75	36659.81
518.93	37015.57
519.10	36985.15
519.27	37411.12
519.45	37078.77
519.62	37586.66
519.79	37684.97
519.96	37530.49
520.14	37886.25
520.31	37368.99
520.48	37759.86
520.65	38106.26
520.83	38246.69
521.00	38017.32
521.17	38639.90
521.34	37996.26
521.52	38653.95
521.69	38267.76
521.86	38644.59
522.03	38557.99
522.20	38759.27
522.38	38869.28
522.55	38773.31
522.72	38962.90
522.89	38897.36
523.07	38916.09
523.24	38628.20
523.41	39412.28
523.58	38756.93
523.75	39559.73
523.92	39274.19
524.10	39707.19
524.27	39702.51
524.44	39751.66
524.61	40107.42
524.78	39978.69
524.96	39915.50
525.13	40053.59
525.30	40547.44
525.47	40418.71
525.64	40795.54
525.81	40299.34
525.98	40128.48
526.16	40282.96
526.33	40069.97
526.50	40790.86
526.67	40297.00
526.84	40477.22
527.01	40638.72
527.18	40844.69
527.36	41104.49
527.53	41013.21
527.70	41193.43
527.87	41228.54
528.04	40863.41
528.21	41530.47
528.38	40910.22
528.55	41666.22
528.72	41542.17
528.89	41488.34
529.07	41191.09
529.24	41373.65
529.41	41647.49
529.58	41514.08
529.75	41397.06
529.92	42443.27
530.09	41968.15
530.26	41776.22
530.43	41918.99
530.60	41743.45
530.77	41790.27
530.94	42366.04
531.11	41862.82
531.28	42403.49
531.46	42422.21
531.63	42822.44
531.80	42728.82
531.97	42735.84
532.14	42347.31
532.31	42429.23
532.48	42909.04
532.65	42976.92
532.82	42288.80
532.99	43232.04
533.16	42871.59
533.33	42710.10
533.50	43367.79
533.67	42944.15
533.84	42916.06
534.01	42974.58
534.18	42696.05
534.35	43400.55
534.52	43622.90
534.69	43728.23
534.86	43517.58
535.03	43538.65
535.20	43381.83
535.37	43826.53
535.54	43658.01
535.71	43950.58
535.88	43901.43
536.05	43674.40
536.22	44170.59
536.38	44144.84
536.55	43835.89
536.72	43908.45
536.89	43660.35
537.06	44428.05
537.23	44552.10
537.40	44074.63
537.57	44205.70
537.74	44514.65
537.91	44814.24
538.08	44477.20
538.25	44364.85
538.42	44341.45
538.59	45020.20
538.75	44311.02
538.92	44509.97
539.09	44825.94
539.26	44851.69
539.43	44800.19
539.60	44954.67
539.77	44652.74
539.94	45151.27
540.11	45069.36
540.28	45464.91
540.44	45228.51
540.61	44966.37
540.78	45434.48
540.95	45476.61
541.12	45195.74
541.29	45123.19
541.46	45132.55
541.62	45139.57
541.79	45684.92
541.96	44910.20
542.13	45198.09
542.30	45975.14
542.47	45855.78
542.63	46143.66
542.80	46138.98
542.97	46031.32
543.14	46113.23
543.31	46454.95
543.48	46270.05
543.64	46770.93
543.81	46735.82
543.98	46335.59
544.15	46588.36
544.32	46450.27
544.48	46656.24
544.65	46686.67
544.82	46691.35
544.99	46541.55
545.16	46848.16
545.32	46784.97
545.49	47157.11
545.66	47079.88
545.83	46703.05
546.00	47309.25
546.16	47138.39
546.33	46513.47
546.50	46855.18
546.67	47257.76
546.83	46789.65
547.00	47049.45
547.17	47365.42
547.34	47105.62
547.50	47426.28
547.67	47503.51
547.84	47360.74
548.00	47447.34
548.17	47894.38
548.34	47782.04
548.51	47810.12
548.67	47845.23
548.84	47917.79
549.01	47744.59
549.18	47660.33
549.34	47810.12
549.51	48116.73
549.68	48027.79
549.84	47976.30
550.01	47899.06
550.18	47793.74
550.34	48009.07
550.51	47887.36
550.68	48147.16
550.84	47765.65
551.01	47992.68
551.18	47913.11
551.34	48280.57
551.51	48023.11
551.68	48046.52
551.84	48423.34
552.01	48292.27
552.18	48381.21
552.34	48247.80
552.51	48294.61
552.68	48413.98
552.84	48491.22
553.01	48437.39
553.18	48397.60
553.34	48516.96
553.51	48594.20
553.67	48413.98
553.84	48512.28
554.01	48589.52
554.17	48608.25
554.34	48905.49
554.51	49310.41
554.67	49312.75
554.84	48945.28
555.00	48861.02
555.17	48692.50
555.33	49205.08
555.50	48399.94
555.67	48776.76
555.83	48905.49
556.00	48727.61
556.16	49602.97
556.33	49020.18
556.50	49340.83
556.66	49455.52
556.83	49392.33
556.99	49495.31
557.16	48931.24
557.32	49181.68
557.49	49357.22
557.65	49251.89
557.82	49605.31
557.98	49560.84
558.15	49514.03
558.32	49727.02
558.48	49490.63
558.65	49382.96
558.81	49059.97
558.98	49581.91
559.14	49263.60
559.31	49614.68
559.47	49825.32
559.64	49820.64
559.80	49907.24
559.97	49834.69
560.13	49577.23
560.30	49502.33
560.46	49357.22
560.63	49727.02
560.79	49848.73
560.96	50117.89
561.12	49844.05
561.29	50021.93
561.45	49640.42
561.61	49888.52
561.78	49689.57
561.94	49776.17
562.11	50232.58
562.27	49607.65
562.44	49820.64
562.60	50082.78
562.77	50328.54
562.93	49921.29
563.10	50302.79
563.26	50054.70
563.42	50389.39
563.59	50181.09
563.75	50167.04
563.92	50099.17
564.08	50064.06
564.24	49982.14
564.41	50522.80
564.57	50438.54
564.74	50298.11
564.90	50260.66
565.07	50237.26
565.23	50417.48
565.39	50061.72
565.56	50176.40
565.72	50370.67
565.88	50342.58
566.05	50124.91
566.21	50590.68
566.38	50195.13
566.54	50475.99
566.70	50588.34
566.87	50754.52
567.03	50197.47
567.19	50754.52
567.36	50239.60
567.52	50461.95
567.68	50693.66
567.85	50377.69
568.01	50887.93
568.17	50349.60
568.34	50319.18
568.50	50225.56
568.66	50436.20
568.83	50546.21
568.99	50316.84
569.15	50497.06
569.32	50836.44
569.48	50284.07
569.64	50763.88
569.81	50433.86
569.97	50525.14
570.13	50784.94
570.30	50600.04
570.46	50483.01
570.62	50422.16
570.78	50522.80
570.95	50696.00
571.11	50548.55
571.27	50578.98
571.43	50822.39
571.60	50658.56
571.76	50649.19
571.92	50642.17
572.09	50497.06
572.25	50571.96
572.41	50586.00
572.57	50749.84
572.74	51318.59
572.90	51026.02
573.06	50630.47
573.22	50845.80
573.38	50890.27
573.55	50831.75
573.71	50916.01
573.87	50410.46
574.03	50728.77
574.20	50843.46
574.36	50450.25
574.52	50754.52
574.68	51049.42
574.84	50817.71
575.01	51276.46
575.17	51264.75
575.33	50546.21
575.49	50745.15
575.65	51026.02
575.82	51051.76
575.98	51077.51
576.14	50932.40
576.30	51199.22
576.46	51145.39
576.62	51047.08
576.79	50986.23
576.95	50855.16
577.11	50911.33
577.27	50845.80
577.43	50784.94
577.59	50581.32
577.75	50564.93
577.92	50422.16
578.08	50871.54
578.24	51054.11
578.40	51381.78
578.56	50930.06
578.72	51143.05
578.88	51117.30
579.04	50995.59
579.21	50698.34
579.37	51016.66
579.53	50951.12
579.69	50752.18
579.85	51091.55
580.01	51501.15
580.17	51189.86
580.33	51007.29
580.49	50569.61
580.65	50986.23
580.82	51100.92
580.98	50602.38
581.14	50855.16
581.30	51379.44
581.46	51346.67
581.62	51040.06
581.78	51023.68
581.94	51337.31
582.10	51217.94
582.26	51253.05
582.42	51117.30
582.58	50927.72
582.74	50983.89
582.90	51255.39
583.06	51121.98
583.22	51063.47
583.38	51349.01
583.54	51215.60
583.70	51253.05
583.86	51344.33
584.02	51290.50
584.18	51320.93
584.34	51267.09
584.50	51407.53
584.66	51114.96
584.82	50806.01
584.98	51213.26
585.14	51276.46
585.30	51234.33
585.46	51358.38
585.62	51246.03
585.78	51356.03
585.94	51056.45
586.10	50918.35
586.26	50827.07
586.42	50674.94
586.58	51498.81
586.74	51196.88
586.90	51119.64
587.06	51381.78
587.22	51435.61
587.38	51393.48
587.54	51442.63
587.70	51407.53
587.86	51452.00
588.02	51217.94
588.18	51414.55
588.34	51519.87
588.49	51407.53
588.65	51332.63
588.81	51255.39
588.97	51657.96
589.13	51845.21
589.29	51363.06
589.45	51639.24
589.61	51578.39
589.77	51477.74
589.93	51351.35
590.08	51405.19
590.24	51639.24
590.40	51854.57
590.56	51646.26
590.72	51559.66
590.88	51601.79
591.04	51636.90
591.20	52100.32
591.35	51873.29
591.51	52034.79
591.67	51690.73
591.83	52032.45
591.99	51414.55
592.15	51636.90
592.31	51896.70
592.46	51824.14
592.62	51758.61
592.78	52114.37
592.94	52074.58
593.10	51819.46
593.26	51819.46
593.41	51728.18
593.57	51749.24
593.73	51435.61
593.89	51985.64
594.05	51929.47
594.20	51674.35
594.36	51938.83
594.52	52128.41
594.68	51812.44
594.84	51662.64
594.99	51992.66
595.15	51674.35
595.31	51880.31
595.47	51510.51
595.62	51583.07
595.78	51576.04
595.94	51772.65
596.10	52004.36
596.25	51908.40
596.41	51992.66
596.57	52086.28
596.73	52055.85
596.88	51896.70
597.04	51889.68
597.20	51496.47
597.36	51835.84
597.51	52074.58
597.67	51714.14
597.83	51650.94
597.99	51798.40
598.14	52243.10
598.30	52243.10
598.46	52112.03
598.61	52299.27
598.77	52172.88
598.93	52013.73
599.09	52158.84
599.24	51828.82
599.40	51962.23
599.56	51686.05
599.71	51875.63
599.87	52095.64
600.03	52100.32
600.18	52114.37
600.34	52121.39
600.50	51931.81
600.65	51969.26
600.81	52076.92
600.97	51941.17
601.12	51810.10
601.28	51995.00
601.44	51604.13
601.59	52006.70
601.75	51828.82
601.91	52465.45
602.06	51995.00
602.22	52353.10
602.37	52142.45
602.53	52280.55
602.69	52121.39
602.84	51732.86
603.00	51716.48
603.16	52053.51
603.31	51800.74
603.47	51863.93
603.62	52027.77
603.78	52289.91
603.94	52203.31
604.09	52083.94
604.25	52114.37
604.40	52065.22
604.56	52081.60
604.71	51866.27
604.87	51899.04
605.03	51587.75
605.18	51629.88
605.34	51758.61
605.49	52046.49
605.65	52107.35
605.80	51892.02
605.96	52200.97
606.12	51934.15
606.27	52341.40
606.43	52114.37
606.58	52105.01
606.74	51597.11
606.89	51716.48
607.05	51842.87
607.20	51606.47
607.36	51613.49
607.51	51826.48
607.67	51852.23
607.82	52030.11
607.98	52198.63
608.13	52126.07
608.29	51908.40
608.44	51576.04
608.60	51955.21
608.75	51737.54
608.91	51316.25
609.06	51215.60
609.22	51341.99
609.37	51428.59
609.53	51899.04
609.68	51484.76
609.84	51580.73
609.99	51814.78
610.15	51452.00
610.30	51817.12
610.46	51604.13
610.61	51349.01
610.76	51313.90
610.92	51391.14
611.07	51346.67
611.23	51447.32
611.38	51466.04
611.54	51735.20
611.69	51599.45
611.84	51484.76
612.00	51746.90
612.15	51449.66
612.31	51660.30
612.46	51182.84
612.62	51358.38
612.77	51217.94
612.92	51618.17
613.08	51386.46
613.23	51503.49
613.39	51234.33
613.54	51341.99
613.69	51503.49
613.85	51674.35
614.00	51554.98
614.15	51508.17
614.31	51419.23
614.46	51592.43
614.62	51423.91
614.77	51283.48
614.92	51363.06
615.08	51075.17
615.23	51061.13
615.38	51749.24
615.54	50990.91
615.69	51299.86
615.84	51124.32
616.00	51187.52
616.15	51154.75
616.30	51262.41
616.46	51126.66
616.61	50866.86
616.76	51339.65
616.92	51056.45
617.07	50899.63
617.22	51065.81
617.37	50871.54
617.53	51215.60
617.68	50993.25
617.83	51365.40
617.99	51250.71
618.14	50798.99
618.29	50686.64
618.45	50791.97
618.60	50857.50
618.75	50712.39
618.90	50679.62
619.06	50630.47
619.21	50637.49
619.36	50894.95
619.51	50567.27
619.67	50595.36
619.82	50894.95
619.97	50927.72
620.12	50777.92
620.28	50157.68
620.43	50426.84
620.58	50396.42
620.73	50181.09
620.89	50145.98
621.04	50419.82
621.19	50639.83
621.34	50403.44
621.49	50770.90
621.65	50651.53
621.80	51290.50
621.95	50604.72
622.10	50611.74
622.25	50375.35
622.41	50394.07
622.56	50295.77
622.71	50562.59
622.86	50607.06
623.01	50209.17
623.16	50141.30
623.32	49902.56
623.47	50646.85
623.62	50571.96
623.77	50492.38
623.92	50480.67
624.07	50288.75
624.23	50389.39
624.38	50155.34
624.53	50185.77
624.68	50150.66
624.83	50021.93
624.98	50010.23
625.13	49617.02
625.29	49832.35
625.44	50115.55
625.59	49928.31
625.74	49888.52
625.89	50192.79
626.04	50045.33
626.19	50216.19
626.34	50272.37
626.49	49574.89
626.65	49762.13
626.80	50059.38
626.95	49712.98
627.10	49155.93
627.25	49516.37
627.40	49911.92
627.55	49612.34
627.70	49607.65
627.85	49633.40
628.00	49329.13
628.15	49717.66
628.30	49518.71
628.45	49979.80
628.60	49404.03
628.76	49495.31
628.91	49673.19
629.06	49263.60
629.21	49750.43
629.36	49401.69
629.51	49593.61
629.66	49357.22
629.81	49015.50
629.96	49551.48
630.11	49408.71
630.26	49378.28
630.41	49448.50
630.56	49195.72
630.71	49471.90
630.86	48985.07
631.01	48692.50
631.16	48980.39
631.31	48556.75
631.46	48299.30
631.61	49294.02
631.76	49352.54
631.91	49099.76
632.06	48678.46
632.21	48549.73
632.36	49221.47
632.51	48655.06
632.66	48772.08
632.81	48882.09
632.96	49001.46
633.10	48479.52
633.25	48788.47
633.40	48531.01
633.55	48928.90
633.70	48484.20
633.85	48594.20
634.00	48769.74
634.15	49184.02
634.30	48783.79
634.45	48971.03
634.60	48591.86
634.75	48549.73
634.90	48418.66
635.05	48491.22
635.19	48552.07
635.34	48739.32
635.49	48257.17
635.64	48701.87
635.79	48362.49
635.94	48336.74
636.09	48528.67
636.24	48273.55
636.39	48168.22
636.53	48498.24
636.68	48364.83
636.83	48509.94
636.98	48580.16
637.13	47962.26
637.28	48432.71
637.43	48257.17
637.57	48229.08
637.72	48114.39
637.87	48460.79
638.02	48250.14
638.17	48231.42
638.32	48189.29
638.46	48355.47
638.61	48130.78
638.76	47955.24
638.91	47887.36
639.06	47805.44
639.20	48004.39
639.35	47760.97
639.50	47290.52
639.65	47470.75
639.80	47786.72
639.94	47990.34
640.09	47702.46
640.24	47686.07
640.39	48023.11
640.54	48252.48
640.68	47700.12
640.83	47852.25
640.98	47503.51
641.13	47487.13
641.27	48287.59
641.42	47264.78
641.57	47358.40
641.72	47278.82
641.86	47042.43
642.01	46930.08
642.16	47143.07
642.31	46962.85
642.45	47311.59
642.60	47442.66
642.75	47182.86
642.90	46569.64
643.04	47316.27
643.19	47014.34
643.34	46731.14
643.48	47091.58
643.63	47084.56
643.78	46820.08
643.93	47622.88
644.07	47110.30
644.22	46995.62
644.37	46972.21
644.51	47281.16
644.66	46799.01
644.81	47334.99
644.95	47150.09
645.10	46969.87
645.25	47007.32
645.39	46747.52
645.54	47096.26
645.69	47140.73
645.83	47014.34
645.98	46469.00
646.13	46934.76
646.27	46674.96
646.42	46689.01
646.57	46902.00
646.71	46787.31
646.86	46745.18
647.00	46958.17
647.15	46593.04
647.30	46712.41
647.44	46944.12
647.59	47112.64
647.74	46071.10
647.88	46183.45
648.03	46492.40
648.17	46567.30
648.32	46174.09
648.47	46543.89
648.61	46160.05
648.76	46672.62
648.90	46494.74
649.05	47063.49
649.20	46426.87
649.34	46731.14
649.49	46328.56
649.63	46136.64
649.78	46312.18
649.92	46155.36
650.07	46607.09
650.21	46265.37
650.36	45928.33
650.51	45989.19
650.65	45940.04
650.80	45916.63
650.94	46014.93
651.09	46176.43
651.23	45539.80
651.38	45841.73
651.52	45923.65
651.67	46113.23
651.81	46143.66
651.96	45839.39
652.10	45834.71
652.25	45844.07
652.39	46019.61
652.54	45837.05
652.68	45638.11
652.83	45663.85
652.97	45736.41
653.12	45254.26
653.26	45626.40
653.41	45460.23
653.55	45603.00
653.70	45858.12
653.84	45970.46
653.99	46073.45
654.13	45577.25
654.27	45418.10
654.42	45860.46
654.56	45146.59
654.71	45504.70
654.85	45116.17
655.00	45766.84
655.14	44968.71
655.29	44926.58
655.43	45350.22
655.57	44769.77
655.72	45322.13
655.86	45516.40
656.01	45413.41
656.15	45177.02
656.30	45329.16
656.44	44832.96
656.58	45045.95
656.73	44737.00
656.87	44428.05
657.01	44744.02
657.16	44727.64
657.30	44708.91
657.45	44938.29
657.59	44456.14
657.73	44957.01
657.88	44612.95
658.02	44954.67
658.16	44285.28
658.31	44692.53
658.45	44837.64
658.60	44839.98
658.74	44561.46
658.88	44158.89
659.03	44257.19
659.17	44137.82
659.31	44163.57
659.46	44039.52
659.60	43817.17
659.74	44229.10
659.89	44287.62
660.03	44020.80
660.17	44091.01
660.32	43840.57
660.46	44149.53
660.60	43859.30
660.74	43889.73
660.89	44566.14
661.03	44091.01
661.17	43641.63
661.32	43604.18
661.46	44109.74
661.60	42972.24
661.74	43590.14
661.89	43938.88
662.03	43512.90
662.17	43152.46
662.31	43318.64
662.46	43608.86
662.60	43466.09
662.74	42852.87
662.88	43021.39
663.03	43793.76
663.17	43604.18
663.31	43381.83
663.45	43166.50
663.60	43068.20
663.74	42457.32
663.88	42197.52
664.02	42309.86
664.17	42794.36
664.31	42185.82
664.45	42766.27
664.59	42609.45
664.73	42363.70
664.88	43159.48
665.02	42396.46
665.16	42490.09
665.30	42387.10
665.44	42799.04
665.59	42298.16
665.73	42288.80
665.87	42115.60
666.01	41904.95
666.15	41755.16
666.29	41684.94
666.44	41790.27
666.58	41085.76
666.72	41373.65
666.86	41851.12
667.00	41696.64
667.14	41343.22
667.28	41624.09
667.43	41095.13
667.57	41766.86
667.71	42005.59
667.85	41818.35
667.99	41523.44
668.13	41062.36
668.27	40992.14
668.41	40903.20
668.56	40760.43
668.70	41099.81
668.84	41284.71
668.98	40779.15
669.12	40533.40
669.26	40659.79
669.40	41041.29
669.54	40987.46
669.68	40858.73
669.82	40774.47
669.96	40666.81
670.10	40870.43
670.25	40615.32
670.39	40311.05
670.53	40306.37
670.67	40112.10
670.81	40399.99
670.95	40002.10
671.09	39646.33
671.23	39695.49
671.37	39601.86
671.51	39416.96
671.65	39756.34
671.79	39381.85
671.93	39529.31
672.07	39723.57
672.21	39552.71
672.35	39487.18
672.49	39250.78
672.63	39803.15
672.77	39147.80
672.91	39009.71
673.05	38880.98
673.19	39136.10
673.33	39196.95
673.47	38789.70
673.61	39159.50
673.75	38642.24
673.89	38621.18
674.03	38375.42
674.17	38714.80
674.31	38735.87
674.45	38466.70
674.59	38398.83
674.73	38307.55
674.87	38176.48
675.01	38092.22
675.15	38265.42
675.29	37661.56
675.43	37691.99
675.56	37734.12
675.70	37727.10
675.84	37935.40
675.98	36275.96
676.12	37329.20
676.26	37191.11
676.40	37280.05
676.54	37228.56
676.68	36840.03
676.82	36116.81
676.96	36690.24
677.10	37003.87
677.23	37067.06
677.37	36903.23
677.51	37097.49
677.65	36395.33
677.79	36280.64
677.93	36521.72
678.07	35999.78
678.21	35758.70
678.34	35592.53
678.48	35402.94
678.62	35196.98
678.76	35126.76
678.90	35271.87
679.04	35772.75
679.18	35648.70
679.31	35098.67
679.45	35178.25
679.59	35194.64
679.73	35510.61
679.87	35370.18
680.00	35145.48
680.14	34960.58
680.28	34707.80
680.42	34415.24
680.56	34167.14
680.70	34501.84
680.83	33806.70
680.97	33427.53
681.11	33797.34
681.25	33539.88
681.39	33750.52
681.52	33977.56
681.66	33596.05
681.80	33851.17
681.94	33240.29
682.07	33766.91
682.21	33029.64
682.35	33020.28
682.49	32980.49
682.62	32849.42
682.76	32854.10
682.90	32999.21
683.04	32811.97
683.17	32886.87
683.31	32308.76
683.45	32510.04
683.59	32273.65
683.72	31903.84
683.86	32037.25
684.00	31445.10
684.13	31779.79
684.27	31566.81
684.41	31817.24
684.55	31997.46
684.68	31812.56
684.82	31821.92
684.96	31136.15
685.09	30932.52
685.23	30782.73
685.37	30838.90
685.50	30658.68
685.64	30747.62
685.78	30494.84
685.91	30565.06
686.05	30092.27
686.19	29942.47
686.32	30064.18
686.46	30279.51
686.60	30258.45
686.73	30291.21
686.87	30003.33
687.01	30314.62
687.14	30178.87
687.28	29935.45
687.42	30029.07
687.55	30209.29
687.69	29724.80
687.82	29544.58
687.96	29289.46
688.10	29071.79
688.23	29170.10
688.37	29003.92
688.50	28973.49
688.64	28652.84
688.78	28273.67
688.91	28240.90
689.05	28276.01
689.18	28793.27
689.32	27786.84
689.46	28116.86
689.59	28161.33
689.73	28313.46
689.86	27812.59
690.00	28025.57
690.13	28161.33
690.27	27995.15
690.41	27587.89
690.54	26953.61
690.68	27271.92
690.81	27180.64
690.95	27101.06
691.08	27124.47
691.22	26977.01
691.35	26698.49
691.49	26864.67
691.62	26761.69
691.76	26574.44
691.89	26499.55
692.03	26366.13
692.16	26497.20
692.30	25928.45
692.43	26342.73
692.57	26122.72
692.70	26050.16
692.84	25809.09
692.97	25558.65
693.11	25869.94
693.24	25350.34
693.38	25245.02
693.51	25036.71
693.65	25305.87
693.78	24964.15
693.92	25057.78
694.05	24872.87
694.19	24627.12
694.32	24767.55
694.45	24720.74
694.59	24727.76
694.72	24425.83
694.86	24615.41
694.99	24219.86
695.13	24297.10
695.26	23995.17
695.39	24027.94
695.53	23967.09
695.66	23765.80
695.80	23070.66
695.93	23428.76
696.07	23484.94
696.20	23215.77
696.33	23236.84
696.47	22740.64
696.60	23009.81
696.73	22768.73
696.87	22841.29
697.00	22747.67
697.14	22944.27
697.27	22773.41
697.40	22799.16
697.54	22583.83
697.67	22380.20
697.80	22384.88
697.94	21989.33
698.07	22160.19
698.21	21586.76
698.34	21869.97
698.47	21624.21
698.61	21551.65
698.74	21703.79
698.87	21504.84
699.01	21305.90
699.14	21348.03
699.27	21556.33
699.40	21245.04
699.54	21163.12
699.67	21036.74
699.80	20945.45
699.94	21006.31
700.07	20734.81
700.20	20629.48
700.34	20702.04
700.47	20585.01
700.60	20713.74
700.73	20493.73
700.87	19939.02
701.00	19878.17
701.13	19754.12
701.26	19901.58
701.40	19922.64
701.53	19805.61
701.66	19997.54
701.79	19386.66
701.93	19262.61
702.06	19510.71
702.19	19145.58
702.32	19377.30
702.46	19496.66
702.59	19396.02
702.72	19145.58
702.85	19098.77
702.99	19012.17
703.12	19084.73
703.25	18892.80
703.38	18733.65
703.51	18391.93
703.65	18335.76
703.78	18335.76
703.91	18221.07
704.04	18136.81
704.17	18218.73
704.31	17767.01
704.44	17853.61
704.57	18228.09
704.70	17991.70
704.83	17664.02
704.96	17809.14
705.10	17977.65
705.23	17687.43
>>>>>End Processed Spectral Data<<<<<
