SpectraSuite Data File
++++++++++++++++++++++++++++++++++++
Date: Tue Oct 01 18:27:25 GMT-05:00 2013
User: stostad
Dark Spectrum Present: No
Reference Spectrum Present: No
Number of Sampled Component Spectra: 1
Spectrometers: USB2+H05261
Integration Time (usec): 100000 (USB2+H05261)
Spectra Averaged: 1 (USB2+H05261)
Boxcar Smoothing: 0 (USB2+H05261)
Correct for Electrical Dark: No (USB2+H05261)
Strobe/Lamp Enabled: No (USB2+H05261)
Correct for Detector Non-linearity: No (USB2+H05261)
Correct for Stray Light: No (USB2+H05261)
Number of Pixels in Processed Spectrum: 2048
>>>>>Begin Processed Spectral Data<<<<<
365.73	39.79
365.92	39.79
366.12	39.79
366.32	0.00
366.52	0.00
366.72	4.68
366.91	0.00
367.11	0.00
367.31	0.00
367.51	0.00
367.70	0.00
367.90	0.00
368.10	0.00
368.30	0.00
368.49	0.00
368.69	18.72
368.89	0.00
369.09	56.17
369.28	0.00
369.48	0.00
369.68	0.00
369.87	53.83
370.07	70.22
370.27	91.28
370.47	149.79
370.66	351.08
370.86	264.48
371.06	379.17
371.25	362.78
371.45	353.42
371.65	386.19
371.84	369.80
372.04	339.38
372.24	416.62
372.44	374.49
372.63	386.19
372.83	383.85
373.03	353.42
373.22	486.83
373.42	430.66
373.62	337.04
373.81	353.42
374.01	395.55
374.21	463.43
374.40	395.55
374.60	510.24
374.79	402.57
374.99	395.55
375.19	477.47
375.38	470.45
375.58	449.38
375.78	507.90
375.97	528.96
376.17	484.49
376.37	416.62
376.56	451.72
376.76	444.70
376.95	510.24
377.15	482.15
377.35	489.17
377.54	491.51
377.74	491.51
377.93	465.77
378.13	514.92
378.33	526.62
378.52	496.19
378.72	533.64
378.91	521.94
379.11	482.15
379.31	554.71
379.50	479.81
379.70	573.43
379.89	575.77
380.09	550.03
380.28	566.41
380.48	575.77
380.68	533.64
380.87	503.22
381.07	454.06
381.26	571.09
381.46	599.18
381.65	587.47
381.85	589.82
382.04	629.60
382.24	575.77
382.43	566.41
382.63	564.07
382.83	592.16
383.02	596.84
383.22	582.79
383.41	538.32
383.61	695.14
383.80	573.43
384.00	634.29
384.19	662.37
384.39	608.54
384.58	610.88
384.78	615.56
384.97	655.35
385.17	613.22
385.36	653.01
385.56	596.84
385.75	704.50
385.95	695.14
386.14	718.54
386.34	638.97
386.53	699.82
386.72	631.94
386.92	746.63
387.11	613.22
387.31	727.91
387.50	683.44
387.70	620.24
387.89	690.46
388.09	786.42
388.28	723.23
388.48	765.36
388.67	744.29
388.86	753.65
389.06	664.71
389.25	755.99
389.45	844.93
389.64	828.55
389.84	840.25
390.03	854.30
390.22	812.17
390.42	774.72
390.61	739.61
390.81	763.01
391.00	770.04
391.19	798.12
391.39	751.31
391.58	875.36
391.78	898.77
391.97	866.00
392.16	854.30
392.36	842.59
392.55	795.78
392.75	938.55
392.94	926.85
393.13	856.64
393.33	915.15
393.52	842.59
393.71	896.43
393.91	931.53
394.10	961.96
394.29	924.51
394.49	931.53
394.68	966.64
394.88	983.02
395.07	973.66
395.26	973.66
395.46	1041.54
395.65	1011.11
395.84	968.98
396.04	1048.56
396.23	1039.20
396.42	1022.81
396.62	1020.47
396.81	1011.11
397.00	997.07
397.19	1071.97
397.39	1069.62
397.58	1163.25
397.77	1050.90
397.97	1076.65
398.16	1060.26
398.35	1025.15
398.55	1071.97
398.74	1123.46
398.93	1083.67
399.12	1130.48
399.32	1121.12
399.51	1107.07
399.70	1158.57
399.90	1114.10
400.09	1231.12
400.28	1310.70
400.47	1181.97
400.67	1256.87
400.86	1263.89
401.05	1308.36
401.24	1261.55
401.44	1284.95
401.63	1327.08
401.82	1306.02
402.01	1233.46
402.21	1331.76
402.40	1451.13
402.59	1488.58
402.78	1397.30
402.97	1359.85
403.17	1437.09
403.36	1474.54
403.55	1528.37
403.74	1420.71
403.93	1664.12
404.13	1511.99
404.32	1514.33
404.51	1621.99
404.70	1654.76
404.89	1586.88
405.09	1659.44
405.28	1657.10
405.47	1593.90
405.66	1675.82
405.85	1661.78
406.05	1650.08
406.24	1701.57
406.43	1664.12
406.62	1724.97
406.81	1818.60
407.00	1811.57
407.20	1668.80
407.39	1839.66
407.58	1837.32
407.77	1909.88
407.96	1863.07
408.15	1909.88
408.34	1856.04
408.54	1823.28
408.73	1877.11
408.92	1930.94
409.11	1837.32
409.30	1930.94
409.49	1870.09
409.68	1973.07
409.87	2010.52
410.07	1998.82
410.26	2029.24
410.45	2052.65
410.64	2167.34
410.83	2176.70
411.02	2165.00
411.21	2312.45
411.40	2169.68
411.59	2211.81
411.78	2155.63
411.98	2258.62
412.17	2249.25
412.36	2207.13
412.55	2347.56
412.74	2366.28
412.93	2298.41
413.12	2356.92
413.31	2544.16
413.50	2455.22
413.69	2459.90
413.88	2523.10
414.07	2445.86
414.26	2651.83
414.45	2502.03
414.64	2518.42
414.83	2651.83
415.02	2778.22
415.22	2633.10
415.41	2780.56
415.60	2731.41
415.79	2644.81
415.98	2825.03
416.17	2860.13
416.36	2899.92
416.55	2836.73
416.74	2789.92
416.93	2956.10
417.12	2984.18
417.31	3038.02
417.50	2988.86
417.69	3122.27
417.88	3056.74
418.07	3002.91
418.26	3089.51
418.45	3204.19
418.64	3384.41
418.83	3253.34
419.02	3272.07
419.21	3300.16
419.39	3356.33
419.58	3166.74
419.77	3316.54
419.96	3251.00
420.15	3407.82
420.34	3323.56
420.53	3337.60
420.72	3384.41
420.91	3300.16
421.10	3358.67
421.29	3461.65
421.48	3487.40
421.67	3435.91
421.86	3365.69
422.05	3311.86
422.24	3426.54
422.43	3545.91
422.61	3545.91
422.80	3583.36
422.99	3625.49
423.18	3494.42
423.37	3564.64
423.56	3662.94
423.75	3510.80
423.94	3531.87
424.13	3344.63
424.32	3529.53
424.50	3527.19
424.69	3775.28
424.88	3709.75
425.07	3756.56
425.26	3564.64
425.45	3578.68
425.64	3606.77
425.83	3742.52
426.01	3648.90
426.20	3712.09
426.39	3705.07
426.58	3585.70
426.77	3735.50
426.96	3791.67
427.15	3630.17
427.33	3742.52
427.52	3817.41
427.71	3964.87
427.90	3812.73
428.09	3786.99
428.28	3859.54
428.46	3985.93
428.65	3896.99
428.84	3927.42
429.03	4044.45
429.22	3943.80
429.40	3955.51
429.59	4016.36
429.78	3801.03
429.97	3840.82
430.16	3927.42
430.34	4156.79
430.53	4292.54
430.72	4126.36
430.91	4205.94
431.10	4154.45
431.28	4348.72
431.47	4203.60
431.66	4262.12
431.85	4177.86
432.03	4283.18
432.22	4418.93
432.41	4421.27
432.60	4334.67
432.79	4358.08
432.97	4358.08
433.16	4313.61
433.35	4287.86
433.54	4381.48
433.72	4498.51
433.91	4526.60
434.10	4442.34
434.28	4503.19
434.47	4507.87
434.66	4468.08
434.85	4533.62
435.03	4737.24
435.22	4526.60
435.41	4753.63
435.59	4727.88
435.78	4727.88
435.97	4695.11
436.16	4751.29
436.34	4889.38
436.53	4727.88
436.72	4903.42
436.90	4643.62
437.09	4868.31
437.28	4669.37
437.46	4865.97
437.65	4905.76
437.84	4938.53
438.02	5060.24
438.21	4964.28
438.40	4952.57
438.58	5153.86
438.77	5144.50
438.96	4992.36
439.14	5090.67
439.33	5128.11
439.52	5334.08
439.70	5373.87
439.89	5343.44
440.08	5280.25
440.26	5465.15
440.45	5404.30
440.63	5413.66
440.82	5689.84
441.01	5383.23
441.19	5533.03
441.38	5799.85
441.57	5668.78
441.75	5631.33
441.94	5834.96
442.12	5661.76
442.31	6012.84
442.50	5898.15
442.68	5893.47
442.87	6043.26
443.05	5996.45
443.24	5991.77
443.43	6069.01
443.61	6010.50
443.80	6274.98
443.98	5860.70
444.17	5827.93
444.35	6122.84
444.54	6167.31
444.73	6214.12
444.91	6024.54
445.10	6174.33
445.28	6108.80
445.47	6204.76
445.65	6099.44
445.84	6094.76
446.02	6143.91
446.21	6167.31
446.39	6097.10
446.58	6289.02
446.77	6258.59
446.95	6183.70
447.14	6314.77
447.32	6321.79
447.51	6305.40
447.69	6279.66
447.88	6342.85
448.06	6251.57
448.25	6377.96
448.43	6450.52
448.62	6331.15
448.80	6459.88
448.99	6497.33
449.17	6518.39
449.36	6410.73
449.54	6604.99
449.73	6640.10
449.91	6597.97
450.10	6623.72
450.28	6738.40
450.46	6806.28
450.65	6509.03
450.83	6740.74
451.02	6590.95
451.20	6600.31
451.39	6661.16
451.57	6771.17
451.76	6794.58
451.94	6782.87
452.13	6946.71
452.31	6707.98
452.49	6757.13
452.68	7002.88
452.86	7101.19
453.05	7012.24
453.23	6951.39
453.42	6944.37
453.60	6984.16
453.78	6949.05
453.97	6949.05
454.15	6949.05
454.34	6991.18
454.52	7290.77
454.70	7094.16
454.89	7316.51
455.07	7351.62
455.26	7159.70
455.44	7356.30
455.62	7410.14
455.81	7545.89
455.99	7339.92
456.17	7346.94
456.36	7566.95
456.54	7419.50
456.73	7442.90
456.91	7676.96
457.09	7927.39
457.28	7822.07
457.46	7707.38
457.64	7705.04
457.83	7602.06
458.01	7782.28
458.19	7946.12
458.38	7845.48
458.56	7796.32
458.74	7943.78
458.93	7997.61
459.11	8159.11
459.29	7950.80
459.48	7985.91
459.66	7948.46
459.84	7974.21
460.03	8203.58
460.21	8084.21
460.39	8063.15
460.57	8114.64
460.76	8112.30
460.94	8128.68
461.12	8028.04
461.31	8273.79
461.49	8212.94
461.67	8140.38
461.85	8610.83
462.04	8388.48
462.22	8847.22
462.40	8528.91
462.59	8514.87
462.77	8594.45
462.95	8458.70
463.13	8617.85
463.32	8566.36
463.50	8819.14
463.68	8727.86
463.86	8695.09
464.05	8737.22
464.23	8667.00
464.41	8978.30
464.59	8507.85
464.78	8828.50
464.96	8730.20
465.14	8772.33
465.32	8730.20
465.50	9055.53
465.69	9011.06
465.87	8861.27
466.05	8961.91
466.23	8910.42
466.41	8924.46
466.60	9174.90
466.78	8854.25
466.96	9142.13
467.14	9247.46
467.32	9060.21
467.51	9263.84
467.69	8973.61
467.87	9081.28
468.05	9357.46
468.23	9055.53
468.41	9315.33
468.60	9259.16
468.78	9439.38
468.96	9249.80
469.14	9380.87
469.32	9640.67
469.50	9266.18
469.69	9331.72
469.87	9554.07
470.05	9579.81
470.23	9561.09
470.41	9834.93
470.59	9804.50
470.77	9858.34
470.95	9731.95
471.14	9968.34
471.32	9701.52
471.50	10134.52
471.68	10010.47
471.86	10054.94
472.04	10122.82
472.22	10286.65
472.40	10019.83
472.58	10408.36
472.77	10326.44
472.95	10389.64
473.13	10696.25
473.31	10527.73
473.49	10349.85
473.67	10597.95
473.85	10487.94
474.03	10534.75
474.21	10780.51
474.39	10881.15
474.57	10789.87
474.75	11014.56
474.93	10981.79
475.12	11068.39
475.30	11337.56
475.48	11147.97
475.66	11260.32
475.84	11262.66
476.02	11323.51
476.20	11651.19
476.38	11712.04
476.56	11892.26
476.74	11789.28
476.92	11669.91
477.10	11777.58
477.28	11786.94
477.46	11833.75
477.64	12053.76
477.82	12006.95
478.00	12538.25
478.18	12535.91
478.36	12517.18
478.54	12613.15
478.72	12739.54
478.90	12819.11
479.08	12833.16
479.26	12994.65
479.44	12985.29
479.62	12940.82
479.80	13231.05
479.98	13448.72
480.16	13460.42
480.34	13603.19
480.52	13727.24
480.70	13860.65
480.88	13720.22
481.06	14024.49
481.24	14005.77
481.41	14188.33
481.59	14408.34
481.77	14485.58
481.95	14607.28
482.13	14251.52
482.31	14377.91
482.49	15021.56
482.67	14902.19
482.85	15300.08
483.03	15332.85
483.21	15293.06
483.39	15524.77
483.57	15838.41
483.74	15768.19
483.92	15962.45
484.10	15861.81
484.28	16039.69
484.46	16170.76
484.64	16507.80
484.82	16248.00
485.00	16641.21
485.18	16837.81
485.35	17111.66
485.53	16666.95
485.71	17008.67
485.89	17219.32
486.07	17509.55
486.25	17607.85
486.43	17542.32
486.61	17757.64
486.78	17921.48
486.96	18157.88
487.14	18221.07
487.32	18293.63
487.50	18382.57
487.68	18616.62
487.85	18471.51
488.03	18771.10
488.21	19288.35
488.39	18974.72
488.57	19491.98
488.75	19105.79
488.92	19847.74
489.10	19758.80
489.28	19878.17
489.46	20006.90
489.64	20088.82
489.81	20442.24
489.99	20299.47
490.17	20676.29
490.35	21242.70
490.53	20730.12
490.70	20954.82
490.88	21263.77
491.06	21355.05
491.24	21312.92
491.41	21483.78
491.59	21923.80
491.77	22022.10
491.95	21968.27
492.13	22052.53
492.30	22324.03
492.48	22199.98
492.66	22408.29
492.84	22742.99
493.01	22981.72
493.19	22752.35
493.37	22871.72
493.54	22955.97
493.72	23267.27
493.90	23470.89
494.08	23583.24
494.25	23927.30
494.43	23871.12
494.61	23784.52
494.79	23964.75
494.96	24339.23
495.14	24463.28
495.32	24680.95
495.49	24779.25
495.67	24889.26
495.85	24989.90
496.02	25153.74
496.20	25511.84
496.38	25104.59
496.55	25385.45
496.73	26052.50
496.91	25837.17
497.09	25986.97
497.26	25926.11
497.44	25795.04
497.62	25781.00
497.79	26572.10
497.97	26436.35
498.14	27012.12
498.32	27154.90
498.50	27119.79
498.67	27005.10
498.85	26684.45
499.03	27285.97
499.20	27531.72
499.38	27480.23
499.56	27431.08
499.73	27889.82
499.91	27915.57
500.08	27672.15
500.26	27597.26
500.44	27964.72
500.61	28261.97
500.79	28013.87
500.97	28503.04
501.14	28694.97
501.32	28430.49
501.49	28641.14
501.67	28545.17
501.84	28926.68
502.02	29118.60
502.20	29039.03
502.37	29127.97
502.55	29483.73
502.72	29303.51
502.90	29610.12
503.07	29261.38
503.25	29860.55
503.43	29813.74
503.60	29780.98
503.78	29944.81
503.95	29776.30
504.13	30300.58
504.30	30181.21
504.48	30412.92
504.65	30415.26
504.83	30976.99
505.01	31285.94
505.18	30686.76
505.36	31166.57
505.53	31098.70
505.71	31449.78
505.88	31159.55
506.06	31299.98
506.23	31304.67
506.41	31087.00
506.58	31307.01
506.76	31498.93
506.93	32025.55
507.11	32037.25
507.28	32072.36
507.46	31756.39
507.63	32142.58
507.81	32285.35
507.98	31913.20
508.16	32421.10
508.33	32390.67
508.50	32559.19
508.68	32926.66
508.85	32678.56
509.03	32657.49
509.20	32835.38
509.38	33394.76
509.55	33406.47
509.73	33350.29
509.90	33476.68
510.08	33874.57
510.25	33666.27
510.42	33528.17
510.60	34227.99
510.77	33645.20
510.95	34370.77
511.12	33804.36
511.30	33996.28
511.47	34307.57
511.64	34501.84
511.82	34515.88
511.99	34094.58
512.17	34756.96
512.34	34611.84
512.51	35070.59
512.69	35250.81
512.86	35028.46
513.04	35014.41
513.21	34941.86
513.38	35323.36
513.56	35353.79
513.73	35285.92
513.90	35463.80
514.08	35498.91
514.25	35878.07
514.43	36070.00
514.60	36308.73
514.77	35971.69
514.95	36601.30
515.12	35751.68
515.29	35941.27
515.47	36723.01
515.64	36680.88
515.81	36409.37
515.99	36367.24
516.16	37015.57
516.33	36596.62
516.51	37146.64
516.68	37153.66
516.85	36954.72
517.03	37532.83
517.20	37530.49
517.37	37394.74
517.54	36872.80
517.72	37148.98
517.89	37855.82
518.06	37813.70
518.24	37240.26
518.41	37631.13
518.58	37797.31
518.75	37706.03
518.93	38010.30
519.10	37581.98
519.27	38295.85
519.45	38492.45
519.62	38403.51
519.79	38728.84
519.96	38424.57
520.14	38134.35
520.31	38586.07
520.48	38934.81
520.65	38443.30
520.83	38787.36
521.00	39012.05
521.17	39084.61
521.34	39510.58
521.52	38897.36
521.69	39180.57
521.86	39201.63
522.03	38993.32
522.20	39285.89
522.38	39138.44
522.55	39594.84
522.72	40044.23
522.89	39604.20
523.07	39714.21
523.24	39962.31
523.41	39903.79
523.58	39714.21
523.75	40301.68
523.92	40116.78
524.10	40250.19
524.27	40924.27
524.44	40336.79
524.61	40502.97
524.78	40741.71
524.96	40669.15
525.13	40718.30
525.30	41343.22
525.47	41448.55
525.64	41282.37
525.81	41399.40
525.98	41265.99
526.16	41146.62
526.33	41902.61
526.50	41544.51
526.67	41397.06
526.84	41586.64
527.01	41673.24
527.18	41769.20
527.36	41621.75
527.53	42108.58
527.70	41790.27
527.87	41771.54
528.04	41720.05
528.21	42419.87
528.38	41830.05
528.55	42307.52
528.72	42274.76
528.89	42330.93
529.07	41738.77
529.24	42260.71
529.41	42527.53
529.58	42515.83
529.75	42550.94
529.92	43028.41
530.09	42635.20
530.26	42756.91
530.43	42902.02
530.60	42590.73
530.77	42653.92
530.94	42838.83
531.11	43281.19
531.28	43157.14
531.46	43304.59
531.63	43456.73
531.80	43002.66
531.97	43594.82
532.14	43550.35
532.31	43143.09
532.48	43398.21
532.65	43873.34
532.82	43667.37
532.99	44268.89
533.16	43770.36
533.33	44217.40
533.50	44259.53
533.67	43908.45
533.84	44194.00
534.01	43674.40
534.18	43882.70
534.35	44081.65
534.52	44570.82
534.69	44402.30
534.86	44446.77
535.03	44287.62
535.20	44292.30
535.37	44266.55
535.54	44741.68
535.71	44294.64
535.88	44729.98
536.05	44849.35
536.22	45270.64
536.38	44919.56
536.55	44825.94
536.72	45095.10
536.89	44615.29
537.06	45186.38
537.23	44910.20
537.40	45193.40
537.57	45577.25
537.74	45254.26
537.91	45504.70
538.08	45130.21
538.25	44996.80
538.42	44966.37
538.59	46138.98
538.75	45844.07
538.92	45771.52
539.09	46447.93
539.26	45923.65
539.43	45703.64
539.60	45968.12
539.77	45738.75
539.94	46272.39
540.11	46234.94
540.28	46316.86
540.44	46122.60
540.61	46216.22
540.78	46043.02
540.95	46267.71
541.12	46176.43
541.29	46461.97
541.46	46115.58
541.62	46335.59
541.79	46326.22
541.96	46150.68
542.13	46473.68
542.30	46691.35
542.47	46527.51
542.63	46749.86
542.80	46239.62
542.97	46759.22
543.14	46948.81
543.31	47089.24
543.48	47323.29
543.64	47697.78
543.81	47580.75
543.98	47468.40
544.15	47161.79
544.32	47725.86
544.48	48025.45
544.65	47405.21
544.82	47437.98
544.99	47103.28
545.16	47760.97
545.32	47690.76
545.49	47997.37
545.66	47622.88
545.83	47767.99
546.00	48142.48
546.16	48140.14
546.33	47826.51
546.50	47878.00
546.67	47824.17
546.83	47669.69
547.00	48320.36
547.17	48280.57
547.34	48332.06
547.50	48315.68
547.67	48348.45
547.84	48421.00
548.00	48563.78
548.17	48821.23
548.34	48903.15
548.51	49186.36
548.67	48587.18
548.84	48545.05
549.01	48531.01
549.18	48250.14
549.34	48439.73
549.51	48814.21
549.68	48952.30
549.84	48722.93
550.01	48687.82
550.18	48531.01
550.34	48715.91
550.51	48631.65
550.68	48758.04
550.84	48697.19
551.01	48956.99
551.18	48720.59
551.34	49130.19
551.51	49050.61
551.68	49139.55
551.84	49514.03
552.01	48896.13
552.18	49088.06
552.34	48657.40
552.51	49113.80
552.68	49074.01
552.84	49284.66
553.01	49607.65
553.18	49565.52
553.34	49876.82
553.51	49364.24
553.67	49272.96
553.84	49830.01
554.01	49373.60
554.17	49696.59
554.34	49989.16
554.51	50094.49
554.67	50157.68
554.84	50312.16
555.00	49811.28
555.17	49778.51
555.33	49626.38
555.50	49844.05
555.67	49481.27
555.83	49675.53
556.00	50024.27
556.16	50344.92
556.33	49862.77
556.50	49986.82
556.66	50337.90
556.83	50017.25
556.99	50443.23
557.16	50078.10
557.32	50213.85
557.49	50480.67
557.65	49968.10
557.82	50440.89
557.98	50365.99
558.15	50450.25
558.32	50337.90
558.48	50529.83
558.65	50398.76
558.81	50293.43
558.98	50225.56
559.14	50288.75
559.31	50110.87
559.47	50323.86
559.64	50609.40
559.80	50553.23
559.97	50279.39
560.13	50525.14
560.30	50115.55
560.46	50181.09
560.63	50604.72
560.79	50492.38
560.96	50593.02
561.12	50703.03
561.29	51030.70
561.45	51019.00
561.61	50969.85
561.78	50740.47
561.94	50665.58
562.11	50742.81
562.27	50632.81
562.44	50611.74
562.60	50602.38
562.77	50550.89
562.93	50962.82
563.10	51405.19
563.26	50717.07
563.42	51119.64
563.59	50693.66
563.75	50480.67
563.92	51171.13
564.08	50827.07
564.24	50646.85
564.41	51089.21
564.57	51210.92
564.74	50981.55
564.90	51110.28
565.07	51016.66
565.23	50958.14
565.39	51021.34
565.56	51068.15
565.72	51131.34
565.88	50969.85
566.05	51496.47
566.21	51065.81
566.38	51079.85
566.54	51178.15
566.70	51213.26
566.87	51182.84
567.03	50939.42
567.19	51384.12
567.36	51040.06
567.52	51159.43
567.68	51358.38
567.85	51475.40
568.01	51655.62
568.17	51374.76
568.34	51377.10
568.50	51512.85
568.66	51150.07
568.83	51299.86
568.99	51700.09
569.15	51327.95
569.32	51213.26
569.48	51215.60
569.64	51468.38
569.81	51285.82
569.97	51592.43
570.13	51688.39
570.30	51334.97
570.46	51257.73
570.62	51192.20
570.78	51590.09
570.95	51196.88
571.11	51875.63
571.27	51456.68
571.43	51444.98
571.60	51704.77
571.76	51327.95
571.92	51206.24
572.09	51379.44
572.25	51880.31
572.41	51562.00
572.57	51695.41
572.74	51906.06
572.90	51505.83
573.06	51901.38
573.22	51725.84
573.38	51681.37
573.55	51543.28
573.71	51709.46
573.87	51700.09
574.03	51154.75
574.20	51639.24
574.36	51360.72
574.52	51716.48
574.68	51819.46
574.84	51636.90
575.01	51987.98
575.17	52198.63
575.33	51454.34
575.49	51770.31
575.65	51782.01
575.82	51976.28
575.98	51505.83
576.14	51943.51
576.30	51948.19
576.46	51765.63
576.62	51842.87
576.79	51683.71
576.95	51782.01
577.11	51519.87
577.27	51554.98
577.43	51592.43
577.59	51810.10
577.75	51229.65
577.92	51653.28
578.08	51547.96
578.24	51847.55
578.40	52074.58
578.56	51915.42
578.72	51763.29
578.88	52268.84
579.04	51887.34
579.21	51721.16
579.37	51643.92
579.53	51943.51
579.69	51690.73
579.85	52184.58
580.01	52236.08
580.17	51945.85
580.33	51983.30
580.49	51927.13
580.65	51887.34
580.82	51662.64
580.98	51573.70
581.14	51784.35
581.30	51915.42
581.46	51845.21
581.62	52058.20
581.78	52013.73
581.94	52268.84
582.10	51807.76
582.26	51870.95
582.42	51899.04
582.58	51709.46
582.74	51746.90
582.90	52002.02
583.06	51985.64
583.22	51985.64
583.38	52245.44
583.54	52285.23
583.70	51976.28
583.86	52402.25
584.02	51995.00
584.18	52105.01
584.34	51964.57
584.50	52055.85
584.66	52165.86
584.82	51826.48
584.98	52254.80
585.14	51835.84
585.30	51948.19
585.46	51948.19
585.62	52158.84
585.78	52355.44
585.94	51763.29
586.10	52044.15
586.26	51917.76
586.42	51793.71
586.58	51908.40
586.74	52165.86
586.90	52133.09
587.06	52128.41
587.22	52278.21
587.38	52280.55
587.54	52320.34
587.70	52626.95
587.86	52200.97
588.02	52060.54
588.18	52420.98
588.34	51894.36
588.49	52360.12
588.65	52236.08
588.81	52336.72
588.97	52135.43
589.13	52294.59
589.29	52364.81
589.45	52542.69
589.61	52200.97
589.77	52322.68
589.93	52334.38
590.08	52289.91
590.24	52444.38
590.40	52498.22
590.56	52713.55
590.72	52659.71
590.88	52299.27
591.04	52519.28
591.20	52861.00
591.35	52523.96
591.51	52535.66
591.67	52247.78
591.83	52758.02
591.99	52355.44
592.15	52446.72
592.31	52561.41
592.46	52479.49
592.62	52772.06
592.78	52715.89
592.94	52800.15
593.10	52584.82
593.26	52633.97
593.41	52612.90
593.57	52484.17
593.73	52617.58
593.89	52889.09
594.05	52580.13
594.20	52722.91
594.36	53258.89
594.52	52573.11
594.68	52769.72
594.84	52781.42
594.99	52835.25
595.15	52956.96
595.31	52837.59
595.47	52561.41
595.62	52481.83
595.78	52521.62
595.94	52750.99
596.10	52736.95
596.25	52912.49
596.41	52868.02
596.57	53034.20
596.73	53031.86
596.88	52807.17
597.04	52629.29
597.20	52685.46
597.36	52472.47
597.51	52655.03
597.67	52528.64
597.83	52451.41
597.99	53036.54
598.14	52853.98
598.30	52978.03
598.46	52772.06
598.61	52891.43
598.77	52811.85
598.93	53052.92
599.09	52694.82
599.24	52907.81
599.40	52821.21
599.56	52655.03
599.71	52711.20
599.87	53106.76
600.03	52926.53
600.18	52530.98
600.34	53102.07
600.50	52959.30
600.65	52556.73
600.81	52802.49
600.97	52858.66
601.12	52790.78
601.28	52353.10
601.44	52863.34
601.59	52868.02
601.75	52872.70
601.91	52982.71
602.06	53214.42
602.22	53153.57
602.37	52959.30
602.53	52884.40
602.69	52971.00
602.84	52371.83
603.00	52502.90
603.16	52617.58
603.31	52619.92
603.47	52921.85
603.62	52687.80
603.78	52917.17
603.94	52664.39
604.09	52971.00
604.25	52914.83
604.40	52837.59
604.56	52762.70
604.71	52971.00
604.87	52535.66
605.03	52708.86
605.18	52889.09
605.34	52439.70
605.49	52715.89
605.65	52940.58
605.80	52704.18
605.96	53001.43
606.12	52896.11
606.27	53048.24
606.43	52802.49
606.58	52594.18
606.74	52453.75
606.89	52631.63
607.05	52350.76
607.20	52580.13
607.36	52697.16
607.51	52818.87
607.67	52711.20
607.82	52626.95
607.98	52687.80
608.13	52285.23
608.29	52456.09
608.44	52275.87
608.60	52362.46
608.75	52545.03
608.91	52287.57
609.06	51964.57
609.22	52786.10
609.37	52376.51
609.53	52523.96
609.68	52381.19
609.84	52413.96
609.99	52568.43
610.15	52598.86
610.30	52416.30
610.46	52135.43
610.61	52252.46
610.76	52308.63
610.92	52002.02
611.07	52044.15
611.23	52254.80
611.38	52399.91
611.54	52294.59
611.69	52053.51
611.84	52472.47
612.00	52495.88
612.15	52264.16
612.31	52332.04
612.46	52296.93
612.62	52374.17
612.77	52065.22
612.92	52397.57
613.08	52229.05
613.23	52268.84
613.39	52360.12
613.54	52177.56
613.69	52137.77
613.85	51995.00
614.00	52325.02
614.15	52442.04
614.31	52163.52
614.46	51973.94
614.62	52203.31
614.77	52179.90
614.92	51917.76
615.08	52172.88
615.23	51948.19
615.38	52325.02
615.54	51817.12
615.69	52102.67
615.84	51873.29
616.00	52336.72
616.15	51824.14
616.30	52435.02
616.46	51826.48
616.61	51746.90
616.76	51585.41
616.92	51379.44
617.07	51578.39
617.22	51728.18
617.37	51545.62
617.53	52165.86
617.68	51964.57
617.83	51730.52
617.99	52109.69
618.14	51959.89
618.29	51653.28
618.45	51744.56
618.60	51681.37
618.75	51297.52
618.90	51346.67
619.06	51428.59
619.21	51505.83
619.36	52046.49
619.51	51456.68
619.67	51377.10
619.82	51784.35
619.97	51800.74
620.12	51393.48
620.28	51501.15
620.43	51145.39
620.58	51227.31
620.73	51192.20
620.89	51093.89
621.04	51344.33
621.19	51121.98
621.34	51173.47
621.49	51629.88
621.65	51470.72
621.80	51620.52
621.95	51386.46
622.10	51547.96
622.25	51096.24
622.41	51512.85
622.56	51234.33
622.71	51430.93
622.86	51344.33
623.01	51129.00
623.16	51241.35
623.32	51281.14
623.47	51250.71
623.62	51426.25
623.77	51224.96
623.92	51351.35
624.07	51222.62
624.23	51288.16
624.38	51143.05
624.53	50801.33
624.68	50969.85
624.83	50845.80
624.98	51157.09
625.13	50897.29
625.29	50705.37
625.44	50560.25
625.59	50827.07
625.74	50946.44
625.89	50656.21
626.04	50693.66
626.19	51192.20
626.34	51126.66
626.49	50686.64
626.65	50693.66
626.80	50450.25
626.95	50344.92
627.10	50410.46
627.25	50705.37
627.40	50543.87
627.55	50483.01
627.70	50663.24
627.85	50740.47
628.00	50529.83
628.15	50918.35
628.30	50878.57
628.45	50653.87
628.60	50365.99
628.76	50478.33
628.91	50298.11
629.06	50384.71
629.21	50213.85
629.36	50370.67
629.51	50106.19
629.66	50082.78
629.81	50272.37
629.96	50113.21
630.11	50007.89
630.26	50230.24
630.41	50274.71
630.56	49984.48
630.71	50080.44
630.86	49947.03
631.01	50103.85
631.16	49813.62
631.31	49418.07
631.46	49453.18
631.61	49659.15
631.76	49684.89
631.91	49675.53
632.06	49956.39
632.21	49588.93
632.36	49851.07
632.51	49771.49
632.66	49834.69
632.81	49532.76
632.96	49858.09
633.10	49062.31
633.25	49542.12
633.40	49434.45
633.55	49715.32
633.70	49378.28
633.85	49698.94
634.00	49900.22
634.15	49825.32
634.30	49837.03
634.45	49682.55
634.60	49979.80
634.75	49287.00
634.90	49460.20
635.05	49766.81
635.19	49485.95
635.34	49956.39
635.49	49759.79
635.64	49193.38
635.79	49415.73
635.94	49312.75
636.09	49549.14
636.24	49272.96
636.39	49413.39
636.53	49312.75
636.68	49654.47
636.83	49315.09
636.98	49467.22
637.13	49242.53
637.28	49109.12
637.43	49521.05
637.57	49162.95
637.72	49076.35
637.87	49064.65
638.02	48973.37
638.17	49277.64
638.32	48891.45
638.46	49090.40
638.61	49200.40
638.76	48987.41
638.91	48821.23
639.06	48821.23
639.20	48823.58
639.35	48748.68
639.50	48748.68
639.65	48636.33
639.80	48889.11
639.94	48554.41
640.09	48828.26
640.24	48849.32
640.39	48641.01
640.54	48650.38
640.68	48863.36
640.83	48701.87
640.98	48385.89
641.13	48538.03
641.27	48935.92
641.42	48797.83
641.57	48720.59
641.72	48098.01
641.86	48074.60
642.01	48362.49
642.16	48250.14
642.31	48245.46
642.45	48458.45
642.60	47964.60
642.75	48137.80
642.90	47985.66
643.04	47990.34
643.19	48224.40
643.34	48289.93
643.48	47765.65
643.63	48196.31
643.78	48193.97
643.93	48081.63
644.07	47910.77
644.22	48119.07
644.37	47842.89
644.51	47756.29
644.66	48238.44
644.81	48126.10
644.95	47819.49
645.10	47924.81
645.25	47887.36
645.39	47861.61
645.54	48046.52
645.69	47915.45
645.83	47672.03
645.98	47676.71
646.13	48219.72
646.27	47533.94
646.42	47519.90
646.57	47482.45
646.71	47973.96
646.86	48102.69
647.00	47971.62
647.15	48121.41
647.30	47782.04
647.44	47868.64
647.59	47730.54
647.74	47676.71
647.88	47873.32
648.03	47608.84
648.17	47697.78
648.32	47138.39
648.47	47484.79
648.61	47271.80
648.76	47805.44
648.90	47119.66
649.05	47650.97
649.20	47501.17
649.34	47583.09
649.49	47536.28
649.63	47196.90
649.78	47201.58
649.92	47377.12
650.07	47704.80
650.21	47262.44
650.36	47182.86
650.51	46579.00
650.65	46972.21
650.80	46674.96
650.94	46614.11
651.09	46405.80
651.23	46431.55
651.38	46997.96
651.52	46916.04
651.67	47054.13
651.81	47545.64
651.96	47178.18
652.10	46574.32
652.25	46815.40
652.39	46574.32
652.54	47133.71
652.68	46836.46
652.83	46972.21
652.97	46581.34
653.12	46749.86
653.26	46930.08
653.41	46717.09
653.55	46431.55
653.70	46843.48
653.84	46883.27
653.99	46852.84
654.13	46838.80
654.27	46316.86
654.42	46618.79
654.56	45940.04
654.71	45874.50
654.85	45897.91
655.00	46192.81
655.14	46050.04
655.29	45977.48
655.43	46267.71
655.57	46005.57
655.72	45918.97
655.86	46398.78
656.01	46405.80
656.15	46394.10
656.30	46361.33
656.44	46216.22
656.58	45691.94
656.73	45659.17
656.87	45792.58
657.01	45797.26
657.16	46012.59
657.30	46064.08
657.45	45888.54
657.59	45439.16
657.73	45558.53
657.88	45846.41
658.02	45539.80
658.16	45720.02
658.31	45621.72
658.45	45785.56
658.60	45832.37
658.74	45815.99
658.88	45453.20
659.03	45476.61
659.17	45153.62
659.31	45359.58
659.46	44744.02
659.60	44961.69
659.74	44879.77
659.89	44942.97
660.03	44772.11
660.17	45329.16
660.32	45193.40
660.46	45013.18
660.60	45034.25
660.74	45165.32
660.89	45371.28
661.03	44697.21
661.17	44896.16
661.32	44484.22
661.46	44634.02
661.60	44222.08
661.74	44374.22
661.89	44577.84
662.03	44634.02
662.17	43620.56
662.31	44186.97
662.46	44559.12
662.60	44460.82
662.74	44467.84
662.88	44521.67
663.03	44580.18
663.17	44875.09
663.31	44322.72
663.45	44554.44
663.60	44346.13
663.74	43901.43
663.88	43222.67
664.02	43831.21
664.17	43337.36
664.31	43384.17
664.45	43550.35
664.59	43648.65
664.73	43260.12
664.88	43592.48
665.02	43234.38
665.16	43445.02
665.30	43604.18
665.44	43564.39
665.59	43096.28
665.73	43384.17
665.87	43196.93
666.01	43133.73
666.15	42969.90
666.29	42550.94
666.44	42909.04
666.58	42237.31
666.72	42466.68
666.86	42539.24
667.00	42808.40
667.14	42845.85
667.28	42581.37
667.43	42347.31
667.57	42965.21
667.71	42471.36
667.85	42586.05
667.99	43171.18
668.13	42244.33
668.27	42192.84
668.41	41923.68
668.56	42260.71
668.70	41928.36
668.84	41921.34
668.98	41701.32
669.12	41284.71
669.26	41947.08
669.40	41909.63
669.54	41460.25
669.68	42012.62
669.82	41687.28
669.96	41823.03
670.10	41654.51
670.25	41764.52
670.39	41654.51
670.53	41017.89
670.67	41184.07
670.81	41296.41
670.95	41017.89
671.09	40725.32
671.23	40437.44
671.37	40720.64
671.51	40385.94
671.65	40037.20
671.79	40620.00
671.93	40568.51
672.07	40809.58
672.21	40809.58
672.35	40505.31
672.49	40212.74
672.63	40498.29
672.77	40453.82
672.91	39910.82
673.05	40524.04
673.19	40062.95
673.33	40002.10
673.47	39503.56
673.61	39948.26
673.75	39634.63
673.89	39847.62
674.03	39627.61
674.17	39700.17
674.31	39449.73
674.45	39655.70
674.59	39288.23
674.73	39278.87
674.87	39440.37
675.01	38857.57
675.15	39035.45
675.29	39084.61
675.43	38583.73
675.56	38670.33
675.70	38707.78
675.84	38593.09
675.98	37546.87
676.12	38370.74
676.26	38686.71
676.40	38305.21
676.54	38075.84
676.68	37757.52
676.82	37263.67
676.96	38157.75
677.10	37947.11
677.23	38134.35
677.37	38033.71
677.51	37897.95
677.65	37757.52
677.79	37574.96
677.93	37429.85
678.07	36685.56
678.21	36645.77
678.34	36488.95
678.48	36774.50
678.62	36416.40
678.76	36261.92
678.90	36009.14
679.04	36411.71
679.18	36369.58
679.31	35831.26
679.45	35842.96
679.59	36254.90
679.73	36322.77
679.87	36442.14
680.00	35597.21
680.14	35744.66
680.28	35791.47
680.42	35796.15
680.56	35358.47
680.70	34881.00
680.83	34600.14
680.97	34689.08
681.11	34635.25
681.25	34646.95
681.39	35026.12
681.52	34843.56
681.66	34899.73
681.80	34438.64
681.94	34504.18
682.07	34368.43
682.21	34230.33
682.35	34125.01
682.49	33916.70
682.62	33769.25
682.76	33802.02
682.90	33331.57
683.04	33397.10
683.17	33181.77
683.31	33172.41
683.45	33134.96
683.59	33153.69
683.72	32563.87
683.86	32409.40
684.00	32575.58
684.13	32732.39
684.27	32577.92
684.41	32641.11
684.55	33177.09
684.68	32465.57
684.82	32180.03
684.96	32154.28
685.09	31878.10
685.23	31648.72
685.37	31969.38
685.50	31510.63
685.64	31344.45
685.78	31267.22
685.91	31377.22
686.05	31517.65
686.19	30878.69
686.32	30920.82
686.46	31005.08
686.60	30787.41
686.73	31185.30
686.87	31030.82
687.01	30937.20
687.14	30902.09
687.28	30410.58
687.42	31047.21
687.55	30604.84
687.69	30597.82
687.82	30312.28
687.96	30338.02
688.10	30057.16
688.23	29256.70
688.37	29591.39
688.50	29668.63
688.64	29874.60
688.78	29172.44
688.91	29493.09
689.05	29345.64
689.18	29572.67
689.32	28641.14
689.46	28591.98
689.59	28758.16
689.73	28657.52
689.86	28561.56
690.00	28938.38
690.13	28985.19
690.27	28224.52
690.41	28507.72
690.54	27985.79
690.68	28065.36
690.81	27967.06
690.95	27833.65
691.08	27892.16
691.22	27899.19
691.35	27730.67
691.49	27428.74
691.62	27300.01
691.76	27180.64
691.89	27157.24
692.03	27428.74
692.16	27433.42
692.30	27112.77
692.43	26934.88
692.57	26906.80
692.70	26778.07
692.84	26867.01
692.97	26511.25
693.11	26328.69
693.24	25865.26
693.38	26005.69
693.51	25886.32
693.65	25813.77
693.78	25881.64
693.92	25940.16
694.05	25898.03
694.19	25551.63
694.32	25472.05
694.45	25259.06
694.59	25008.62
694.72	25006.28
694.86	25376.09
694.99	25228.63
695.13	24863.51
695.26	25263.74
695.39	24671.59
695.53	24325.19
695.66	24135.60
695.80	24109.86
695.93	24067.73
696.07	24224.54
696.20	24041.98
696.33	24025.60
696.47	23824.31
696.60	23894.53
696.73	23496.64
696.87	23400.68
697.00	23704.95
697.14	23669.84
697.27	23723.67
697.40	23604.30
697.54	23262.58
697.67	23278.97
697.80	22785.12
697.94	22827.24
698.07	22459.78
698.21	22366.16
698.34	22307.65
698.47	22464.46
698.61	22178.92
698.74	22317.01
698.87	21872.31
699.01	22038.48
699.14	22204.66
699.27	21991.67
699.40	22043.17
699.54	21795.07
699.67	21675.70
699.80	21621.87
699.94	21713.15
700.07	21333.98
700.20	21254.40
700.34	21563.36
700.47	21186.53
700.60	21172.49
700.73	21083.55
700.87	21081.21
701.00	20793.32
701.13	20685.65
701.26	20645.87
701.40	20549.90
701.53	20332.23
701.66	20093.50
701.79	20060.73
701.93	19990.52
702.06	19985.83
702.19	19962.43
702.32	20149.67
702.46	20175.42
702.59	19924.98
702.72	19726.04
702.85	19714.33
702.99	19812.63
703.12	19314.10
703.25	19241.54
703.38	19335.17
703.51	18705.56
703.65	19056.64
703.78	18878.76
703.91	18492.57
704.04	18930.25
704.17	18609.60
704.31	18686.84
704.44	18668.11
704.57	18527.68
704.70	18356.82
704.83	18417.68
704.96	18408.31
705.10	18405.97
705.23	18403.63
>>>>>End Processed Spectral Data<<<<<
