SpectraSuite Data File
++++++++++++++++++++++++++++++++++++
Date: Fri Oct 04 11:39:21 GMT-05:00 2013
User: price-jones
Dark Spectrum Present: No
Reference Spectrum Present: No
Number of Sampled Component Spectra: 1
Spectrometers: USB2+H05261
Integration Time (usec): 100000 (USB2+H05261)
Spectra Averaged: 1 (USB2+H05261)
Boxcar Smoothing: 0 (USB2+H05261)
Correct for Electrical Dark: No (USB2+H05261)
Strobe/Lamp Enabled: No (USB2+H05261)
Correct for Detector Non-linearity: No (USB2+H05261)
Correct for Stray Light: No (USB2+H05261)
Number of Pixels in Processed Spectrum: 2048
>>>>>Begin Processed Spectral Data<<<<<
365.73	25.75
365.92	25.75
366.12	25.75
366.32	9.36
366.52	0.00
366.72	4.68
366.91	0.00
367.11	0.00
367.31	0.00
367.51	0.00
367.70	0.00
367.90	0.00
368.10	21.06
368.30	0.00
368.49	0.00
368.69	0.00
368.89	0.00
369.09	0.00
369.28	0.00
369.48	9.36
369.68	0.00
369.87	0.00
370.07	0.00
370.27	37.45
370.47	79.58
370.66	175.54
370.86	243.42
371.06	208.31
371.25	320.65
371.45	191.92
371.65	330.02
371.84	313.63
372.04	227.03
372.24	259.80
372.44	304.27
372.63	285.55
372.83	390.87
373.03	301.93
373.22	365.12
373.42	325.33
373.62	353.42
373.81	418.96
374.01	395.55
374.21	463.43
374.40	393.21
374.60	454.06
374.79	421.30
374.99	376.83
375.19	365.12
375.38	383.85
375.58	440.02
375.78	334.70
375.97	383.85
376.17	376.83
376.37	381.51
376.56	334.70
376.76	325.33
376.95	407.25
377.15	404.91
377.35	463.43
377.54	381.51
377.74	367.46
377.93	383.85
378.13	313.63
378.33	395.55
378.52	369.80
378.72	440.02
378.91	390.87
379.11	365.12
379.31	393.21
379.50	484.49
379.70	435.34
379.89	423.64
380.09	386.19
380.28	486.83
380.48	486.83
380.68	379.17
380.87	409.59
381.07	402.57
381.26	381.51
381.46	498.53
381.65	484.49
381.85	486.83
382.04	486.83
382.24	463.43
382.43	477.47
382.63	496.19
382.83	440.02
383.02	503.22
383.22	456.40
383.41	435.34
383.61	409.59
383.80	496.19
384.00	559.39
384.19	503.22
384.39	540.66
384.58	519.60
384.78	517.26
384.97	552.37
385.17	512.58
385.36	517.26
385.56	585.13
385.75	421.30
385.95	496.19
386.14	589.82
386.34	594.50
386.53	543.00
386.72	535.98
386.92	503.22
387.11	559.39
387.31	624.92
387.50	538.32
387.70	592.16
387.89	496.19
388.09	641.31
388.28	533.64
388.48	582.79
388.67	613.22
388.86	561.73
389.06	592.16
389.25	578.11
389.45	543.00
389.64	638.97
389.84	641.31
390.03	580.45
390.22	641.31
390.42	641.31
390.61	634.29
390.81	592.16
391.00	615.56
391.19	681.10
391.39	648.33
391.58	596.84
391.78	638.97
391.97	737.27
392.16	678.76
392.36	657.69
392.55	716.20
392.75	657.69
392.94	678.76
393.13	674.07
393.33	674.07
393.52	732.59
393.71	767.70
393.91	741.95
394.10	727.91
394.29	805.14
394.49	765.36
394.68	830.89
394.88	781.74
395.07	861.32
395.26	793.44
395.46	826.21
395.65	807.48
395.84	816.85
396.04	891.74
396.23	748.97
396.42	791.10
396.62	844.93
396.81	844.93
397.00	779.40
397.19	880.04
397.39	863.66
397.58	898.77
397.77	873.02
397.97	894.08
398.16	821.53
398.35	983.02
398.55	985.37
398.74	1018.13
398.93	983.02
399.12	954.94
399.32	983.02
399.51	896.43
399.70	1020.47
399.90	950.26
400.09	933.87
400.28	1071.97
400.47	1081.33
400.67	1067.28
400.86	959.62
401.05	1055.58
401.24	1104.73
401.44	1086.01
401.63	1137.50
401.82	1118.78
402.01	1078.99
402.21	1046.22
402.40	1102.39
402.59	1170.27
402.78	1160.91
402.97	1203.04
403.17	1076.65
403.36	1156.22
403.55	1205.38
403.74	1193.67
403.93	1233.46
404.13	1287.29
404.32	1334.11
404.51	1224.10
404.70	1266.23
404.89	1235.80
405.09	1315.38
405.28	1299.00
405.47	1270.91
405.66	1291.98
405.85	1343.47
406.05	1406.66
406.24	1392.62
406.43	1406.66
406.62	1406.66
406.81	1413.68
407.00	1411.34
407.20	1362.19
407.39	1434.75
407.58	1451.13
407.77	1514.33
407.96	1488.58
408.15	1502.62
408.34	1497.94
408.54	1558.80
408.73	1584.54
408.92	1636.03
409.11	1582.20
409.30	1586.88
409.49	1612.63
409.68	1776.47
409.87	1687.53
410.07	1750.72
410.26	1785.83
410.45	1732.00
410.64	1650.08
410.83	1706.25
411.02	1872.43
411.21	1872.43
411.40	1860.73
411.59	1797.53
411.78	1823.28
411.98	1837.32
412.17	1893.49
412.36	1977.75
412.55	1935.62
412.74	1940.30
412.93	1942.64
413.12	1930.94
413.31	2085.42
413.50	2022.22
413.69	2106.48
413.88	2010.52
414.07	2153.29
414.26	2162.66
414.45	2118.18
414.64	2289.04
414.83	2148.61
415.02	2195.42
415.22	2267.98
415.41	2448.20
415.60	2342.88
415.79	2303.09
415.98	2420.11
416.17	2431.82
416.36	2431.82
416.55	2396.71
416.74	2417.77
416.93	2431.82
417.12	2506.71
417.31	2665.87
417.50	2523.10
417.69	2614.38
417.88	2574.59
418.07	2626.08
418.26	2572.25
418.45	2715.02
418.64	2785.24
418.83	2623.74
419.02	2710.34
419.21	2747.79
419.39	2670.55
419.58	2738.43
419.77	2738.43
419.96	2836.73
420.15	2888.22
420.34	2963.12
420.53	2841.41
420.72	2949.08
420.91	2906.95
421.10	2953.76
421.29	2981.84
421.48	2806.30
421.67	3084.83
421.86	2895.24
422.05	3049.72
422.24	2958.44
422.43	3019.29
422.61	3075.46
422.80	3049.72
422.99	3075.46
423.18	3108.23
423.37	3115.25
423.56	3180.79
423.75	3141.00
423.94	3035.67
424.13	2923.33
424.32	2993.55
424.50	3112.91
424.69	3255.69
424.88	3061.42
425.07	3211.22
425.26	3084.83
425.45	3101.21
425.64	3138.66
425.83	3070.78
426.01	3253.34
426.20	3173.77
426.39	3190.15
426.58	3129.30
426.77	3258.03
426.96	3260.37
427.15	3157.38
427.33	3337.60
427.52	3311.86
427.71	3180.79
427.90	3365.69
428.09	3393.78
428.28	3391.44
428.46	3363.35
428.65	3426.54
428.84	3335.26
429.03	3513.14
429.22	3447.61
429.40	3485.06
429.59	3501.44
429.78	3339.94
429.97	3218.24
430.16	3445.27
430.34	3496.76
430.53	3726.13
430.72	3571.66
430.91	3574.00
431.10	3543.57
431.28	3548.25
431.47	3716.77
431.66	3707.41
431.85	3606.77
432.03	3756.56
432.22	3808.05
432.41	3798.69
432.60	3822.09
432.79	3653.58
432.97	3779.97
433.16	3829.12
433.35	3765.92
433.54	3824.44
433.72	3836.14
433.91	3838.48
434.10	4011.68
434.28	3878.27
434.47	3801.03
434.66	3974.23
434.85	4091.26
435.03	4114.66
435.22	4315.95
435.41	4580.43
435.59	4573.41
435.78	4315.95
435.97	4147.43
436.16	4109.98
436.34	4266.80
436.53	4297.22
436.72	4170.83
436.90	4051.47
437.09	4313.61
437.28	4100.62
437.46	4147.43
437.65	4236.37
437.84	4250.41
438.02	4358.08
438.21	4376.80
438.40	4435.32
438.58	4477.44
438.77	4528.94
438.96	4409.57
439.14	4685.75
439.33	4568.73
439.52	4496.17
439.70	4655.33
439.89	4638.94
440.08	4451.70
440.26	4746.61
440.45	4765.33
440.63	4706.82
440.82	4844.91
441.01	4798.10
441.19	4945.55
441.38	4947.89
441.57	5027.47
441.75	5022.79
441.94	5069.60
442.12	5093.01
442.31	5364.51
442.50	5090.67
442.68	4978.32
442.87	5116.41
443.05	4980.66
443.24	5217.05
443.43	5121.09
443.61	5233.44
443.80	5163.22
443.98	5191.31
444.17	5006.41
444.35	5343.44
444.54	5233.44
444.73	5291.95
444.91	5280.25
445.10	5338.76
445.28	5329.40
445.47	5355.15
445.65	5263.86
445.84	5416.00
446.02	5327.06
446.21	5301.31
446.39	5320.04
446.58	5509.62
446.77	5570.48
446.95	5256.84
447.14	5554.09
447.32	5472.17
447.51	5303.65
447.69	5331.74
447.88	5275.57
448.06	5423.02
448.25	5488.56
448.43	5570.48
448.62	5397.28
448.80	5437.06
448.99	5659.42
449.17	5556.43
449.36	5369.19
449.54	5509.62
449.73	5619.63
449.91	5687.50
450.10	5844.32
450.28	5909.85
450.46	5753.04
450.65	5795.17
450.83	5795.17
451.02	5710.91
451.20	5818.57
451.39	6003.47
451.57	5771.76
451.76	5769.42
451.94	5989.43
452.13	5980.07
452.31	5893.47
452.49	5881.77
452.68	5827.93
452.86	5949.64
453.05	5968.37
453.23	5994.11
453.42	6090.07
453.60	5703.89
453.78	6029.22
453.97	6038.58
454.15	6064.33
454.34	6001.13
454.52	6188.38
454.70	6148.59
454.89	6251.57
455.07	6246.89
455.26	6190.72
455.44	6291.36
455.62	6342.85
455.81	6232.85
455.99	6235.19
456.17	6452.86
456.36	6242.21
456.54	6469.24
456.73	6644.78
456.91	6576.91
457.09	6534.78
457.28	6707.98
457.46	6478.60
457.64	6658.82
457.83	6750.10
458.01	6656.48
458.19	6825.00
458.38	6691.59
458.56	6853.09
458.74	6965.43
458.93	6836.70
459.11	6939.69
459.29	6895.22
459.48	6834.36
459.66	6904.58
459.84	6808.62
460.03	6988.84
460.21	6970.12
460.39	6899.90
460.57	6888.20
460.76	7045.01
460.94	7105.87
461.12	7248.64
461.31	7115.23
461.49	7040.33
461.67	7054.37
461.85	7321.20
462.04	7311.83
462.22	7737.81
462.40	7379.71
462.59	7243.96
462.77	7232.26
462.95	7417.16
463.13	7232.26
463.32	7454.61
463.50	7417.16
463.68	7372.69
463.86	7520.14
464.05	7372.69
464.23	7442.90
464.41	7534.18
464.59	7246.30
464.78	7620.78
464.96	7503.76
465.14	7419.50
465.32	7742.49
465.50	7538.87
465.69	7660.57
465.87	7702.70
466.05	7585.68
466.23	7599.72
466.41	7665.25
466.60	7852.50
466.78	7672.28
466.96	7672.28
467.14	7597.38
467.32	7927.39
467.51	7791.64
467.69	7817.39
467.87	7798.66
468.05	8037.40
468.23	7791.64
468.41	7857.18
468.60	7943.78
468.78	8203.58
468.96	7887.61
469.14	8313.58
469.32	7929.74
469.50	8056.12
469.69	8208.26
469.87	8306.56
470.05	8304.22
470.23	8285.50
470.41	8234.00
470.59	8365.07
470.77	8477.42
470.95	8390.82
471.14	8816.80
471.32	8341.67
471.50	8636.58
471.68	8456.36
471.86	8528.91
472.04	8599.13
472.22	8887.01
472.40	8634.24
472.58	8858.93
472.77	8786.37
472.95	9006.38
473.13	9055.53
473.31	8833.18
473.49	8821.48
473.67	8966.59
473.85	9018.08
474.03	9188.94
474.21	9420.66
474.39	9383.21
474.57	9200.65
474.75	9495.55
474.93	9425.34
475.12	9362.14
475.30	9514.28
475.48	9254.48
475.66	9643.01
475.84	9598.54
476.02	9561.09
476.20	9715.56
476.38	9928.55
476.56	10272.61
476.74	10118.14
476.92	10064.30
477.10	10218.78
477.28	10230.48
477.46	10237.50
477.64	10338.15
477.82	10253.89
478.00	10698.59
478.18	10476.24
478.36	10759.44
478.54	10731.36
478.72	10960.73
478.90	10944.34
479.08	10834.34
479.26	10995.84
479.44	11257.98
479.62	11281.38
479.80	11351.60
479.98	11246.27
480.16	11384.37
480.34	11695.66
480.52	11580.97
480.70	11698.00
480.88	11716.72
481.06	11789.28
481.24	11976.52
481.41	11833.75
481.59	12035.03
481.77	12241.00
481.95	12374.41
482.13	12381.43
482.31	12063.12
482.49	12671.66
482.67	12812.09
482.85	13029.76
483.03	13036.78
483.21	13083.59
483.39	13125.72
483.57	13362.12
483.74	13486.17
483.92	13668.73
484.10	13376.16
484.28	13689.79
484.46	14012.79
484.64	14029.17
484.82	13956.61
485.00	13792.78
485.18	14221.10
485.35	14349.82
485.53	14398.98
485.71	14391.95
485.89	14834.32
486.07	14487.92
486.25	14853.04
486.43	14668.14
486.61	15143.27
486.78	14981.77
486.96	15199.44
487.14	15297.74
487.32	15592.65
487.50	15861.81
487.68	15674.57
487.85	16222.25
488.03	16142.67
488.21	16170.76
488.39	16243.32
488.57	16517.16
488.75	16402.47
488.92	16652.91
489.10	16753.55
489.28	16851.86
489.46	16980.59
489.64	16837.81
489.81	17406.56
489.99	17408.90
490.17	17462.74
490.35	17586.79
490.53	17439.33
490.70	17797.43
490.88	17696.79
491.06	17832.54
491.24	18047.87
491.41	18160.22
491.59	18455.12
491.77	18387.25
491.95	18494.91
492.13	18864.72
492.30	18637.69
492.48	18719.60
492.66	18904.51
492.84	18930.25
493.01	19304.74
493.19	19295.38
493.37	19484.96
493.54	19447.51
493.72	19864.13
493.90	19693.27
494.08	19962.43
494.25	20173.08
494.43	20219.89
494.61	19985.83
494.79	20437.56
494.96	20603.74
495.14	20430.54
495.32	20807.36
495.49	20676.29
495.67	20725.44
495.85	21231.00
496.02	21043.76
496.20	21219.30
496.38	21600.80
496.55	21537.61
496.73	21722.51
496.91	21589.10
497.09	22108.70
497.26	21795.07
497.44	22164.87
497.62	21837.20
497.79	22293.60
497.97	22466.80
498.14	22651.70
498.32	22576.81
498.50	22675.11
498.67	22944.27
498.85	22838.95
499.03	22775.75
499.20	22871.72
499.38	23035.55
499.56	23122.15
499.73	23403.02
499.91	23791.55
500.08	23601.96
500.26	23484.94
500.44	23527.06
500.61	23768.14
500.79	23871.12
500.97	23922.62
501.14	23999.85
501.32	24222.20
501.49	24128.58
501.67	23953.04
501.84	24327.53
502.02	24360.30
502.20	24533.50
502.37	24919.68
502.55	24608.39
502.72	24547.54
502.90	25263.74
503.07	24634.14
503.25	24596.69
503.43	25109.27
503.60	25263.74
503.78	25345.66
503.95	25432.26
504.13	25067.14
504.30	25266.08
504.48	25575.03
504.65	25289.49
504.83	25792.70
505.01	25823.13
505.18	26012.71
505.36	26185.91
505.53	25769.30
505.71	25947.18
505.88	26047.82
506.06	25841.85
506.23	26391.88
506.41	26349.75
506.58	26757.00
506.76	26256.13
506.93	26824.88
507.11	26576.78
507.28	26902.12
507.46	26569.76
507.63	27000.42
507.81	27417.04
507.98	27222.77
508.16	27318.73
508.33	27260.22
508.50	27213.41
508.68	27733.01
508.85	27737.69
509.03	27613.64
509.20	27749.39
509.38	28086.43
509.55	28175.37
509.73	27887.48
509.90	28348.57
510.08	27821.95
510.25	28065.36
510.42	28226.86
510.60	28615.39
510.77	28559.22
510.95	28741.78
511.12	28507.72
511.30	28376.66
511.47	29088.18
511.64	28877.53
511.82	29057.75
511.99	29039.03
512.17	29120.95
512.34	29373.72
512.51	29408.83
512.69	29209.89
512.86	29270.74
513.04	29670.97
513.21	29708.42
513.38	29570.33
513.56	30019.71
513.73	29757.57
513.90	29844.17
514.08	29741.19
514.25	30141.42
514.43	30197.59
514.60	30249.08
514.77	30136.74
514.95	30396.54
515.12	30331.00
515.29	30176.53
515.47	30476.12
515.64	30731.23
515.81	30686.76
515.99	30995.71
516.16	30696.13
516.33	30906.77
516.51	31091.68
516.68	30944.22
516.85	31304.67
517.03	31407.65
517.20	31433.39
517.37	31108.06
517.54	31653.40
517.72	31342.11
517.89	31562.12
518.06	31498.93
518.24	31440.42
518.41	31484.89
518.58	31934.27
518.75	31571.49
518.93	32517.06
519.10	31929.59
519.27	32297.05
519.45	31639.36
519.62	31964.70
519.79	32507.70
519.96	32194.07
520.14	32582.60
520.31	32465.57
520.48	32926.66
520.65	32322.80
520.83	32748.78
521.00	32678.56
521.17	33097.52
521.34	33029.64
521.52	32884.53
521.69	32833.04
521.86	33184.12
522.03	33443.91
522.20	33172.41
522.38	33324.55
522.55	33179.43
522.72	33563.28
522.89	33537.54
523.07	33535.20
523.24	34141.39
523.41	34085.22
523.58	33738.82
523.75	33710.74
523.92	33598.39
524.10	34256.08
524.27	33998.62
524.44	34494.82
524.61	34464.39
524.78	34302.89
524.96	34611.84
525.13	34338.00
525.30	34923.13
525.47	34937.18
525.64	34412.90
525.81	34836.53
525.98	34850.58
526.16	34747.59
526.33	34660.99
526.50	34766.32
526.67	34611.84
526.84	34515.88
527.01	34986.33
527.18	35098.67
527.36	35335.07
527.53	34958.24
527.70	35463.80
527.87	35704.87
528.04	35316.34
528.21	35667.42
528.38	35763.39
528.55	35400.60
528.72	35562.10
528.89	35470.82
529.07	35541.03
529.24	36130.85
529.41	35854.67
529.58	35559.76
529.75	35627.63
529.92	35789.13
530.09	36004.46
530.26	36292.35
530.43	36313.41
530.60	36364.90
530.77	36322.77
530.94	36261.92
531.11	36170.64
531.28	35651.04
531.46	36254.90
531.63	36594.28
531.80	36620.02
531.97	36685.56
532.14	36779.18
532.31	36755.77
532.48	36245.54
532.65	37008.55
532.82	36814.29
532.99	37139.62
533.16	36753.43
533.33	37331.54
533.50	37680.28
533.67	37399.42
533.84	36935.99
534.01	37064.72
534.18	36868.12
534.35	37263.67
534.52	37373.67
534.69	37729.44
534.86	37493.04
535.03	37277.71
535.20	37647.52
535.37	37668.58
535.54	37839.44
535.71	37610.07
535.88	37827.74
536.05	37631.13
536.22	38349.68
536.38	38375.42
536.55	38157.75
536.72	38127.33
536.89	38043.07
537.06	37794.97
537.23	38249.03
537.40	38239.67
537.57	38220.95
537.74	37881.57
537.91	38689.06
538.08	38440.96
538.25	38497.13
538.42	38476.07
538.59	38546.28
538.75	38127.33
538.92	38555.64
539.09	38866.94
539.26	39040.14
539.43	38862.26
539.60	39072.90
539.77	38990.98
539.94	38801.40
540.11	39379.51
540.28	39299.94
540.44	39271.85
540.61	39269.51
540.78	39173.55
540.95	39714.21
541.12	39152.48
541.29	39349.09
541.46	39386.54
541.62	39194.61
541.79	39632.29
541.96	39454.41
542.13	39864.00
542.30	39777.40
542.47	40060.61
542.63	40041.88
542.80	39856.98
542.97	40320.41
543.14	40238.49
543.31	40297.00
543.48	40280.62
543.64	40662.13
543.81	40575.53
543.98	40755.75
544.15	40769.79
544.32	40498.29
544.48	40942.99
544.65	40467.86
544.82	41057.68
544.99	40685.53
545.16	40980.44
545.32	41001.50
545.49	41399.40
545.66	42274.76
545.83	42036.02
546.00	41876.86
546.16	41631.11
546.33	41106.83
546.50	40584.89
546.67	41148.96
546.83	40744.05
547.00	40847.03
547.17	40648.08
547.34	41273.01
547.50	41111.51
547.67	41116.19
547.84	41486.00
548.00	41411.10
548.17	41478.97
548.34	41127.89
548.51	41654.51
548.67	41361.95
548.84	40999.16
549.01	41495.36
549.18	41130.23
549.34	41319.82
549.51	41397.06
549.68	41394.71
549.84	41572.60
550.01	41549.19
550.18	41216.83
550.34	41982.19
550.51	42139.00
550.68	41727.07
550.84	41584.30
551.01	41722.39
551.18	41682.60
551.34	41626.43
551.51	42082.83
551.68	42342.63
551.84	42195.18
552.01	41944.74
552.18	41839.42
552.34	41691.96
552.51	42078.15
552.68	41717.71
552.84	42082.83
553.01	42281.78
553.18	42169.43
553.34	42391.78
553.51	41792.61
553.67	42188.16
553.84	42190.50
554.01	42450.30
554.17	42391.78
554.34	42183.48
554.51	42117.94
554.67	42349.65
554.84	42579.03
555.00	42511.15
555.17	42782.65
555.33	42508.81
555.50	42581.37
555.67	42623.50
555.83	42354.33
556.00	42473.70
556.16	43370.13
556.33	42412.85
556.50	43030.75
556.66	42759.25
556.83	42724.14
556.99	43393.53
557.16	42944.15
557.32	43126.71
557.49	43000.32
557.65	43084.58
557.82	42134.32
557.98	43035.43
558.15	42787.33
558.32	43325.66
558.48	42941.81
558.65	43047.13
558.81	43035.43
558.98	42740.52
559.14	42429.23
559.31	42726.48
559.47	43077.56
559.64	43330.34
559.80	43019.05
559.97	43283.53
560.13	42925.42
560.30	43110.33
560.46	43264.80
560.63	43178.20
560.79	43185.22
560.96	43650.99
561.12	43082.24
561.29	43398.21
561.45	43672.06
561.61	43861.64
561.78	43735.25
561.94	43459.07
562.11	43508.22
562.27	43194.59
562.44	43606.52
562.60	43227.35
562.77	43477.79
562.93	43332.68
563.10	43529.28
563.26	43606.52
563.42	43758.66
563.59	43285.87
563.75	43555.03
563.92	43746.95
564.08	43480.13
564.24	43510.56
564.41	43187.56
564.57	43606.52
564.74	43477.79
564.90	43594.82
565.07	43697.80
565.23	43889.73
565.39	43601.84
565.56	43936.54
565.72	43475.45
565.88	43878.02
566.05	44051.22
566.21	43342.04
566.38	43791.42
566.54	43828.87
566.70	44163.57
566.87	44130.80
567.03	43955.26
567.19	44308.68
567.36	43693.12
567.52	43606.52
567.68	44030.16
567.85	43702.48
568.01	43805.47
568.17	43475.45
568.34	44631.68
568.50	43854.62
568.66	43840.57
568.83	44306.34
568.99	43957.60
569.15	43971.64
569.32	43854.62
569.48	43772.70
569.64	43782.06
569.81	44123.78
569.97	43948.24
570.13	43941.22
570.30	44074.63
570.46	44264.21
570.62	43971.64
570.78	44245.49
570.95	44086.33
571.11	43817.17
571.27	43679.08
571.43	44128.46
571.60	43873.34
571.76	44142.50
571.92	44231.44
572.09	44130.80
572.25	44367.20
572.41	44081.65
572.57	44030.16
572.74	44282.94
572.90	44023.14
573.06	44037.18
573.22	44006.75
573.38	44514.65
573.55	44374.22
573.71	44711.25
573.87	44404.64
574.03	44477.20
574.20	44720.62
574.36	44275.91
574.52	44004.41
574.68	44573.16
574.84	44505.29
575.01	44556.78
575.17	44505.29
575.33	44458.48
575.49	44201.02
575.65	44516.99
575.82	44224.42
575.98	44231.44
576.14	44428.05
576.30	44069.95
576.46	44718.28
576.62	44369.54
576.79	44741.68
576.95	44797.85
577.11	44509.97
577.27	44509.97
577.43	44839.98
577.59	44165.91
577.75	44201.02
577.92	43861.64
578.08	44177.61
578.24	44353.15
578.40	44289.96
578.56	44870.41
578.72	44678.49
578.88	44692.53
579.04	44629.34
579.21	44540.39
579.37	44809.56
579.53	44577.84
579.69	44325.07
579.85	44624.65
580.01	44612.95
580.17	44568.48
580.33	44559.12
580.49	44353.15
580.65	44746.36
580.82	44882.11
580.98	44650.40
581.14	44755.72
581.30	44760.40
581.46	44598.91
581.62	44224.42
581.78	44299.32
581.94	44388.26
582.10	44360.17
582.26	44521.67
582.42	44844.66
582.58	44720.62
582.74	44388.26
582.90	44807.22
583.06	44404.64
583.22	44643.38
583.38	44804.88
583.54	44495.92
583.70	44453.79
583.86	44685.51
584.02	44545.08
584.18	44781.47
584.34	44900.84
584.50	44493.58
584.66	44645.72
584.82	44509.97
584.98	44655.08
585.14	44362.51
585.30	44285.28
585.46	44706.57
585.62	44189.31
585.78	44870.41
585.94	44502.95
586.10	44849.35
586.26	44849.35
586.42	44989.78
586.58	44524.01
586.74	44811.90
586.90	44177.61
587.06	44947.65
587.22	44301.66
587.38	44870.41
587.54	44758.06
587.70	44893.82
587.86	44921.90
588.02	45235.53
588.18	45478.95
588.34	45059.99
588.49	45202.77
588.65	44531.03
588.81	44809.56
588.97	44713.59
589.13	44772.11
589.29	44566.14
589.45	45020.20
589.61	45036.59
589.77	45076.38
589.93	45277.66
590.08	45432.14
590.24	45015.52
590.40	45549.17
590.56	44877.43
590.72	44966.37
590.88	44584.86
591.04	44903.18
591.20	45015.52
591.35	45429.80
591.51	45284.68
591.67	45022.54
591.83	45495.33
591.99	45289.37
592.15	44849.35
592.31	45059.99
592.46	45097.44
592.62	44903.18
592.78	44624.65
592.94	44987.44
593.10	45081.06
593.26	45177.02
593.41	45113.83
593.57	45102.12
593.73	44914.88
593.89	45392.35
594.05	45088.08
594.20	44900.84
594.36	45296.39
594.52	45123.19
594.68	44776.79
594.84	44872.75
594.99	45708.32
595.15	44701.89
595.31	45586.61
595.47	45226.17
595.62	45090.42
595.78	44818.92
595.94	45207.45
596.10	44863.39
596.25	45038.93
596.41	44533.37
596.57	44978.07
596.73	45085.74
596.88	45193.40
597.04	45478.95
597.20	45443.84
597.36	45844.07
597.51	45617.04
597.67	45350.22
597.83	45155.96
597.99	44905.52
598.14	45038.93
598.30	44926.58
598.46	45450.86
598.61	44760.40
598.77	44964.03
598.93	45191.06
599.09	45280.00
599.24	45434.48
599.40	45373.63
599.56	45226.17
599.71	44889.13
599.87	45111.49
600.03	45022.54
600.18	44935.95
600.34	45677.90
600.50	45237.87
600.65	45134.89
600.81	45605.34
600.97	45294.05
601.12	45687.26
601.28	45207.45
601.44	44924.24
601.59	45509.38
601.75	44870.41
601.91	45052.97
602.06	45155.96
602.22	44945.31
602.37	44769.77
602.53	44999.14
602.69	45223.83
602.84	45263.62
603.00	45228.51
603.16	45038.93
603.31	44889.13
603.47	45577.25
603.62	44945.31
603.78	45085.74
603.94	44928.92
604.09	45193.40
604.25	44966.37
604.40	45031.91
604.56	44961.69
604.71	45813.65
604.87	44500.61
605.03	45029.57
605.18	45118.51
605.34	45137.23
605.49	44891.48
605.65	45024.89
605.80	44748.70
605.96	45024.89
606.12	44751.04
606.27	45036.59
606.43	44772.11
606.58	45076.38
606.74	44989.78
606.89	44907.86
607.05	44940.63
607.20	45170.00
607.36	44891.48
607.51	44793.17
607.67	44802.53
607.82	44949.99
607.98	44519.33
608.13	44842.32
608.29	44622.31
608.44	45120.85
608.60	45230.85
608.75	45469.59
608.91	45422.78
609.06	44655.08
609.22	45492.99
609.37	44542.74
609.53	45118.51
609.68	44858.71
609.84	44935.95
609.99	45179.36
610.15	44947.65
610.30	45130.21
610.46	45160.64
610.61	45137.23
610.76	45448.52
610.92	45368.94
611.07	45666.19
611.23	45748.11
611.38	45619.38
611.54	45034.25
611.69	45172.34
611.84	44825.94
612.00	44818.92
612.15	45001.48
612.31	44842.32
612.46	44650.40
612.62	44947.65
612.77	45099.78
612.92	44896.16
613.08	44741.68
613.23	44811.90
613.39	44472.52
613.54	44484.22
613.69	44210.38
613.85	44280.60
614.00	44107.40
614.15	44566.14
614.31	44374.22
614.46	44257.19
614.62	44266.55
614.77	44369.54
614.92	44601.25
615.08	44289.96
615.23	43950.58
615.38	44273.57
615.54	43981.01
615.69	43924.83
615.84	43863.98
616.00	44217.40
616.15	44123.78
616.30	44411.67
616.46	43821.85
616.61	44282.94
616.76	44137.82
616.92	43894.41
617.07	44301.66
617.22	43824.19
617.37	43941.22
617.53	43435.66
617.68	43524.60
617.83	43826.53
617.99	43650.99
618.14	43590.14
618.29	44006.75
618.45	43295.23
618.60	43672.06
618.75	43620.56
618.90	43433.32
619.06	43777.38
619.21	43477.79
619.36	43721.21
619.51	43391.19
619.67	43239.06
619.82	43491.83
619.97	43470.77
620.12	43297.57
620.28	42981.60
620.43	43423.96
620.58	43805.47
620.73	43124.37
620.89	43386.51
621.04	43445.02
621.19	43543.33
621.34	43370.13
621.49	42586.05
621.65	42906.70
621.80	43426.30
621.95	43028.41
622.10	43311.61
622.25	42796.70
622.41	43093.94
622.56	42752.23
622.71	43227.35
622.86	43133.73
623.01	43063.52
623.16	42611.79
623.32	43323.32
623.47	43100.97
623.62	42897.34
623.77	42852.87
623.92	42710.10
624.07	42890.32
624.23	42527.53
624.38	43084.58
624.53	42880.95
624.68	42880.95
624.83	43096.28
624.98	43164.16
625.13	42920.74
625.29	42745.20
625.44	42845.85
625.59	42555.62
625.74	42361.36
625.89	41989.21
626.04	42171.77
626.19	42286.46
626.34	42068.79
626.49	42382.42
626.65	42717.12
626.80	42696.05
626.95	42579.03
627.10	42602.43
627.25	42307.52
627.40	42300.50
627.55	42106.24
627.70	42249.01
627.85	41923.68
628.00	41567.91
628.15	42026.66
628.30	41914.31
628.45	41923.68
628.60	42204.54
628.76	42078.15
628.91	42206.88
629.06	42040.70
629.21	42288.80
629.36	41689.62
629.51	41958.78
629.66	41558.55
629.81	41745.80
629.96	41806.65
630.11	41792.61
630.26	41478.97
630.41	41755.16
630.56	41607.70
630.71	41544.51
630.86	42050.06
631.01	41769.20
631.16	41698.98
631.31	41731.75
631.46	41806.65
631.61	41441.53
631.76	41628.77
631.91	41626.43
632.06	41312.80
632.21	41443.87
632.36	41394.71
632.51	41053.00
632.66	41209.81
632.81	41228.54
632.96	41109.17
633.10	41324.50
633.25	41195.77
633.40	41317.48
633.55	41181.73
633.70	41120.87
633.85	40809.58
634.00	41717.71
634.15	40772.13
634.30	40863.41
634.45	40914.90
634.60	40783.83
634.75	41057.68
634.90	40722.98
635.05	41036.61
635.19	41214.49
635.34	41280.03
635.49	41198.11
635.64	40680.85
635.79	40734.68
635.94	40481.91
636.09	40566.16
636.24	40404.67
636.39	40421.05
636.53	40809.58
636.68	40641.06
636.83	40531.06
636.98	40622.34
637.13	40453.82
637.28	40664.47
637.43	40856.39
637.57	40912.56
637.72	40467.86
637.87	40320.41
638.02	40353.18
638.17	40371.90
638.32	40381.26
638.46	40311.05
638.61	40062.95
638.76	40062.95
638.91	40453.82
639.06	40128.48
639.20	40816.60
639.35	40177.64
639.50	39978.69
639.65	40531.06
639.80	40385.94
639.94	40385.94
640.09	39999.76
640.24	40172.96
640.39	39952.94
640.54	39817.19
640.68	39892.09
640.83	40034.86
640.98	39604.20
641.13	39360.79
641.27	40102.74
641.42	39761.02
641.57	40100.40
641.72	39882.73
641.86	39990.39
642.01	39688.46
642.16	39398.24
642.31	39335.04
642.45	39920.18
642.60	39538.67
642.75	39541.01
642.90	39917.84
643.04	39489.52
643.19	39508.24
643.34	39618.25
643.48	39686.12
643.63	39875.71
643.78	39496.54
643.93	39419.30
644.07	39618.25
644.22	39501.22
644.37	39077.58
644.51	39477.82
644.66	39386.54
644.81	38787.36
644.95	39576.12
645.10	39262.49
645.25	39452.07
645.39	39028.43
645.54	39187.59
645.69	38904.38
645.83	39049.50
645.98	39667.40
646.13	39676.76
646.27	39304.62
646.42	38955.88
646.57	39154.82
646.71	39702.51
646.86	39199.29
647.00	39051.84
647.15	38843.53
647.30	38958.22
647.44	38684.37
647.59	39082.27
647.74	38607.14
647.88	38916.09
648.03	38953.54
648.17	39285.89
648.32	39072.90
648.47	39234.40
648.61	39178.23
648.76	38979.28
648.90	38789.70
649.05	39030.77
649.20	38541.60
649.34	38251.38
649.49	38115.62
649.63	38466.70
649.78	38354.36
649.92	38644.59
650.07	38532.24
650.21	38562.67
650.36	38330.95
650.51	38073.49
650.65	38745.23
650.80	38565.01
650.94	38485.43
651.09	38600.12
651.23	38213.93
651.38	38422.23
651.52	38082.86
651.67	38211.59
651.81	38298.19
651.96	38185.84
652.10	38614.16
652.25	37961.15
652.39	38227.97
652.54	38169.46
652.68	38281.80
652.83	37928.38
652.97	38445.64
653.12	38211.59
653.26	37923.70
653.41	38139.03
653.55	38073.49
653.70	37256.65
653.84	38071.15
653.99	37961.15
654.13	37563.26
654.27	37769.22
654.42	37886.25
654.56	37853.48
654.71	38010.30
654.85	37727.10
655.00	38007.96
655.14	37886.25
655.29	37666.24
655.43	38160.09
655.57	37670.92
655.72	37567.94
655.86	37130.26
656.01	37549.21
656.15	37312.82
656.30	37553.90
656.44	37359.63
656.58	36912.59
656.73	37490.70
656.87	37579.64
657.01	37207.50
657.16	37787.95
657.30	37834.76
657.45	37741.14
657.59	37450.91
657.73	36935.99
657.88	36741.73
658.02	37146.64
658.16	37235.58
658.31	36886.84
658.45	36989.83
658.60	36549.81
658.74	36830.67
658.88	36833.01
659.03	36825.99
659.17	36835.35
659.31	36868.12
659.46	36638.75
659.60	36589.59
659.74	36961.74
659.89	36648.11
660.03	36486.61
660.17	36282.98
660.32	36257.24
660.46	36252.56
660.60	36474.91
660.74	36341.50
660.89	36210.43
661.03	36151.91
661.17	35793.81
661.32	36072.34
661.46	36168.30
661.60	36395.33
661.74	36039.57
661.89	36446.82
662.03	36048.93
662.17	35747.00
662.31	35857.01
662.46	36203.41
662.60	35943.61
662.74	35669.76
662.88	35555.08
663.03	35431.03
663.17	35519.97
663.31	35232.08
663.45	35466.14
663.60	35728.28
663.74	35339.75
663.88	35534.01
664.02	35299.96
664.17	35601.89
664.31	35501.25
664.45	34927.81
664.59	34550.99
664.73	34953.56
664.88	34976.97
665.02	34665.67
665.16	35049.52
665.30	34883.34
665.44	34635.25
665.59	34719.51
665.73	34525.24
665.87	34253.74
666.01	35044.84
666.15	34820.15
666.29	34618.86
666.44	34653.97
666.58	34483.11
666.72	34836.53
666.86	34335.66
667.00	34955.90
667.14	34232.68
667.28	33818.40
667.43	34300.55
667.57	33905.00
667.71	33937.77
667.85	33790.31
667.99	33600.73
668.13	33663.93
668.27	33684.99
668.41	34012.66
668.56	34064.16
668.70	33902.66
668.84	33876.91
668.98	33834.78
669.12	33961.17
669.26	33715.42
669.40	33546.90
669.54	33434.55
669.68	33804.36
669.82	33291.78
669.96	33357.32
670.10	33095.18
670.25	33158.37
670.39	33092.83
670.53	32708.99
670.67	32968.79
670.81	32891.55
670.95	33291.78
671.09	32833.04
671.23	32870.48
671.37	32936.02
671.51	32807.29
671.65	33013.26
671.79	32699.62
671.93	32734.73
672.07	32257.26
672.21	32418.76
672.35	32063.00
672.49	32114.49
672.63	31948.31
672.77	32046.62
672.91	32039.59
673.05	31370.20
673.19	32032.57
673.33	31786.82
673.47	31814.90
673.61	31613.62
673.75	31618.30
673.89	32039.59
674.03	31477.86
674.17	31419.35
674.31	31740.00
674.45	31194.66
674.59	30759.32
674.73	31335.09
674.87	31110.40
675.01	31194.66
675.15	31166.57
675.29	30974.65
675.43	31051.89
675.56	31105.72
675.70	31496.59
675.84	30962.95
675.98	30410.58
676.12	30948.90
676.26	30543.99
676.40	30546.33
676.54	30780.39
676.68	30658.68
676.82	29785.66
676.96	30424.62
677.10	30029.07
677.23	29900.34
677.37	29731.83
677.51	29759.91
677.65	29839.49
677.79	29359.68
677.93	29593.73
678.07	29682.67
678.21	29205.20
678.34	29247.33
678.48	29027.32
678.62	29415.85
678.76	29308.19
678.90	28814.34
679.04	28709.01
679.18	28629.43
679.31	28594.32
679.45	28540.49
679.59	28411.76
679.73	28311.12
679.87	28388.36
680.00	28276.01
680.14	28198.77
680.28	28261.97
680.42	28142.60
680.56	27936.63
680.70	28079.41
680.83	28009.19
680.97	27955.36
681.11	27964.72
681.25	27964.72
681.39	27854.72
681.52	27592.58
681.66	27454.48
681.80	27330.44
681.94	27379.59
682.07	27321.07
682.21	26759.34
682.35	26867.01
682.49	26628.27
682.62	26567.42
682.76	26473.80
682.90	26698.49
683.04	26635.30
683.17	26717.22
683.31	26223.36
683.45	26871.69
683.59	26366.13
683.72	26316.98
683.86	26071.23
684.00	26024.42
684.13	25998.67
684.27	26455.08
684.41	25848.88
684.55	26017.40
684.68	25876.96
684.82	25305.87
684.96	25270.76
685.09	25228.63
685.23	25200.55
685.37	25238.00
685.50	25310.55
685.64	25050.75
685.78	24950.11
685.91	25111.61
686.05	24627.12
686.19	25064.80
686.32	24472.64
686.46	24315.83
686.60	24161.35
686.73	24774.57
686.87	24144.97
687.01	24313.48
687.14	24243.27
687.28	23957.72
687.42	24093.47
687.55	23922.62
687.69	24119.22
687.82	23726.01
687.96	23772.82
688.10	23592.60
688.23	23990.49
688.37	23349.18
688.50	23403.02
688.64	23161.94
688.78	23410.04
688.91	23143.22
689.05	23335.14
689.18	23147.90
689.32	22223.39
689.46	22970.02
689.59	22675.11
689.73	22464.46
689.86	22483.19
690.00	22522.98
690.13	22490.21
690.27	22403.61
690.41	22064.23
690.54	22298.28
690.68	22223.39
690.81	22553.40
690.95	22050.19
691.08	22036.14
691.22	21610.17
691.35	21818.47
691.49	21982.31
691.62	21455.69
691.76	21324.62
691.89	21371.43
692.03	21029.71
692.16	20954.82
692.30	20910.35
692.43	20767.57
692.57	20774.60
692.70	21022.69
692.84	21039.08
692.97	20528.84
693.11	20603.74
693.24	20748.85
693.38	20812.04
693.51	20486.71
693.65	20559.27
693.78	20266.70
693.92	20458.62
694.05	20451.60
694.19	20137.97
694.32	20016.26
694.45	20006.90
694.59	19466.24
694.72	19630.07
694.86	19421.77
694.99	19412.40
695.13	19517.73
695.26	19417.08
695.39	18909.19
695.53	19119.84
695.66	19400.70
695.80	18958.34
695.93	18913.87
696.07	18892.80
696.20	19103.45
696.33	18806.20
696.47	18801.52
696.60	18630.66
696.73	18967.70
696.87	18672.79
697.00	18553.43
697.14	18312.35
697.27	17907.44
697.40	17884.03
697.54	18031.49
697.67	18022.12
697.80	18087.66
697.94	17996.38
698.07	17605.51
698.21	17895.74
698.34	17708.49
698.47	17661.68
698.61	17521.25
698.74	17638.28
698.87	17680.41
699.01	17413.59
699.14	17369.12
699.27	17399.54
699.40	17167.83
699.54	16863.56
699.67	16819.09
699.80	16844.84
699.94	16578.01
700.07	16851.86
700.20	16538.23
700.34	16402.47
700.47	16212.89
700.60	16659.93
700.73	16503.12
700.87	16205.87
701.00	16294.81
701.13	16065.44
701.26	16250.34
701.40	16245.66
701.53	16079.48
701.66	16032.67
701.79	15976.50
701.93	15992.88
702.06	15772.87
702.19	15646.48
702.32	15688.61
702.46	15452.22
702.59	15321.15
702.72	15300.08
702.85	15272.00
702.99	15269.66
703.12	15267.31
703.25	15009.86
703.38	15161.99
703.51	15070.71
703.65	14937.30
703.78	14850.70
703.91	14717.29
704.04	14949.00
704.17	14993.47
704.31	14607.28
704.44	14621.33
704.57	14469.19
704.70	14590.90
704.83	14394.29
704.96	14253.86
705.10	14281.95
705.23	13965.98
>>>>>End Processed Spectral Data<<<<<
