SpectraSuite Data File
++++++++++++++++++++++++++++++++++++
Date: Fri Oct 04 11:39:58 GMT-05:00 2013
User: price-jones
Dark Spectrum Present: No
Reference Spectrum Present: No
Number of Sampled Component Spectra: 1
Spectrometers: USB2+H05261
Integration Time (usec): 100000 (USB2+H05261)
Spectra Averaged: 1 (USB2+H05261)
Boxcar Smoothing: 0 (USB2+H05261)
Correct for Electrical Dark: No (USB2+H05261)
Strobe/Lamp Enabled: No (USB2+H05261)
Correct for Detector Non-linearity: No (USB2+H05261)
Correct for Stray Light: No (USB2+H05261)
Number of Pixels in Processed Spectrum: 2048
>>>>>Begin Processed Spectral Data<<<<<
365.73	25.75
365.92	25.75
366.12	25.75
366.32	0.00
366.52	0.00
366.72	0.00
366.91	0.00
367.11	0.00
367.31	0.00
367.51	0.00
367.70	0.00
367.90	0.00
368.10	0.00
368.30	0.00
368.49	0.00
368.69	0.00
368.89	18.72
369.09	0.00
369.28	0.00
369.48	0.00
369.68	2.34
369.87	0.00
370.07	25.75
370.27	84.26
370.47	0.00
370.66	23.41
370.86	44.47
371.06	173.20
371.25	72.56
371.45	102.98
371.65	79.58
371.84	91.28
372.04	46.81
372.24	56.17
372.44	77.24
372.63	65.54
372.83	191.92
373.03	98.30
373.22	159.16
373.42	74.90
373.62	79.58
373.81	154.48
374.01	191.92
374.21	65.54
374.40	121.71
374.60	128.73
374.79	128.73
374.99	119.37
375.19	117.03
375.38	81.92
375.58	128.73
375.78	163.84
375.97	124.05
376.17	117.03
376.37	117.03
376.56	161.50
376.76	86.60
376.95	93.62
377.15	142.77
377.35	149.79
377.54	145.11
377.74	133.41
377.93	138.09
378.13	135.75
378.33	128.73
378.52	100.64
378.72	110.01
378.91	154.48
379.11	147.45
379.31	140.43
379.50	159.16
379.70	215.33
379.89	74.90
380.09	114.69
380.28	81.92
380.48	156.82
380.68	81.92
380.87	84.26
381.07	95.96
381.26	152.13
381.46	187.24
381.65	128.73
381.85	102.98
382.04	142.77
382.24	110.01
382.43	110.01
382.63	145.11
382.83	44.47
383.02	121.71
383.22	93.62
383.41	105.32
383.61	201.29
383.80	110.01
384.00	95.96
384.19	79.58
384.39	152.13
384.58	189.58
384.78	93.62
384.97	227.03
385.17	173.20
385.36	63.19
385.56	131.07
385.75	117.03
385.95	46.81
386.14	93.62
386.34	124.05
386.53	140.43
386.72	131.07
386.92	112.35
387.11	88.94
387.31	117.03
387.50	84.26
387.70	95.96
387.89	156.82
388.09	91.28
388.28	133.41
388.48	124.05
388.67	128.73
388.86	149.79
389.06	53.83
389.25	131.07
389.45	93.62
389.64	93.62
389.84	196.60
390.03	159.16
390.22	98.30
390.42	142.77
390.61	88.94
390.81	107.66
391.00	217.67
391.19	53.83
391.39	105.32
391.58	166.18
391.78	154.48
391.97	128.73
392.16	126.39
392.36	145.11
392.55	198.95
392.75	117.03
392.94	175.54
393.13	145.11
393.33	91.28
393.52	154.48
393.71	187.24
393.91	86.60
394.10	140.43
394.29	138.09
394.49	112.35
394.68	182.56
394.88	131.07
395.07	177.88
395.26	105.32
395.46	149.79
395.65	177.88
395.84	205.97
396.04	191.92
396.23	142.77
396.42	170.86
396.62	149.79
396.81	128.73
397.00	166.18
397.19	79.58
397.39	119.37
397.58	112.35
397.77	152.13
397.97	119.37
398.16	140.43
398.35	126.39
398.55	107.66
398.74	196.60
398.93	236.39
399.12	180.22
399.32	149.79
399.51	168.52
399.70	173.20
399.90	152.13
400.09	194.26
400.28	159.16
400.47	145.11
400.67	205.97
400.86	126.39
401.05	159.16
401.24	126.39
401.44	184.90
401.63	227.03
401.82	231.71
402.01	138.09
402.21	196.60
402.40	161.50
402.59	203.63
402.78	147.45
402.97	149.79
403.17	154.48
403.36	198.95
403.55	159.16
403.74	177.88
403.93	243.42
404.13	327.68
404.32	475.13
404.51	463.43
404.70	285.55
404.89	241.08
405.09	224.69
405.28	212.99
405.47	245.76
405.66	227.03
405.85	196.60
406.05	220.01
406.24	203.63
406.43	166.18
406.62	220.01
406.81	227.03
407.00	280.86
407.20	304.27
407.39	156.82
407.58	227.03
407.77	238.73
407.96	210.65
408.15	231.71
408.34	187.24
408.54	203.63
408.73	196.60
408.92	168.52
409.11	138.09
409.30	95.96
409.49	205.97
409.68	170.86
409.87	135.75
410.07	208.31
410.26	135.75
410.45	110.01
410.64	224.69
410.83	159.16
411.02	163.84
411.21	191.92
411.40	187.24
411.59	259.80
411.78	170.86
411.98	203.63
412.17	163.84
412.36	140.43
412.55	159.16
412.74	215.33
412.93	194.26
413.12	212.99
413.31	201.29
413.50	238.73
413.69	210.65
413.88	266.82
414.07	308.95
414.26	182.56
414.45	152.13
414.64	166.18
414.83	201.29
415.02	290.23
415.22	294.91
415.41	227.03
415.60	212.99
415.79	208.31
415.98	245.76
416.17	217.67
416.36	280.86
416.55	161.50
416.74	250.44
416.93	280.86
417.12	208.31
417.31	264.48
417.50	217.67
417.69	248.10
417.88	238.73
418.07	259.80
418.26	224.69
418.45	208.31
418.64	234.05
418.83	299.59
419.02	243.42
419.21	285.55
419.39	255.12
419.58	241.08
419.77	250.44
419.96	210.65
420.15	313.63
420.34	283.20
420.53	285.55
420.72	252.78
420.91	220.01
421.10	315.97
421.29	278.52
421.48	220.01
421.67	320.65
421.86	238.73
422.05	248.10
422.24	215.33
422.43	320.65
422.61	236.39
422.80	269.16
422.99	283.20
423.18	278.52
423.37	236.39
423.56	271.50
423.75	255.12
423.94	283.20
424.13	238.73
424.32	238.73
424.50	222.35
424.69	238.73
424.88	318.31
425.07	287.89
425.26	266.82
425.45	196.60
425.64	327.68
425.83	248.10
426.01	229.37
426.20	184.90
426.39	271.50
426.58	297.25
426.77	306.61
426.96	231.71
427.15	287.89
427.33	196.60
427.52	290.23
427.71	243.42
427.90	337.04
428.09	287.89
428.28	208.31
428.46	280.86
428.65	290.23
428.84	269.16
429.03	353.42
429.22	273.84
429.40	269.16
429.59	308.95
429.78	290.23
429.97	304.27
430.16	255.12
430.34	355.76
430.53	266.82
430.72	332.36
430.91	224.69
431.10	304.27
431.28	308.95
431.47	301.93
431.66	325.33
431.85	264.48
432.03	365.12
432.22	346.40
432.41	283.20
432.60	325.33
432.79	379.17
432.97	341.72
433.16	308.95
433.35	341.72
433.54	294.91
433.72	376.83
433.91	318.31
434.10	315.97
434.28	344.06
434.47	318.31
434.66	320.65
434.85	416.62
435.03	437.68
435.22	947.92
435.41	1568.16
435.59	1610.29
435.78	1224.10
435.97	770.04
436.16	540.66
436.34	388.53
436.53	367.46
436.72	348.74
436.90	369.80
437.09	318.31
437.28	344.06
437.46	287.89
437.65	346.40
437.84	402.57
438.02	332.36
438.21	315.97
438.40	372.15
438.58	393.21
438.77	400.23
438.96	334.70
439.14	388.53
439.33	320.65
439.52	346.40
439.70	311.29
439.89	390.87
440.08	351.08
440.26	381.51
440.45	407.25
440.63	369.80
440.82	374.49
441.01	334.70
441.19	425.98
441.38	376.83
441.57	362.78
441.75	465.77
441.94	386.19
442.12	388.53
442.31	393.21
442.50	337.04
442.68	339.38
442.87	327.68
443.05	395.55
443.24	360.44
443.43	355.76
443.61	421.30
443.80	421.30
443.98	353.42
444.17	283.20
444.35	468.11
444.54	449.38
444.73	414.27
444.91	435.34
445.10	411.93
445.28	376.83
445.47	423.64
445.65	351.08
445.84	322.99
446.02	397.89
446.21	418.96
446.39	355.76
446.58	402.57
446.77	447.04
446.95	395.55
447.14	416.62
447.32	346.40
447.51	440.02
447.69	423.64
447.88	402.57
448.06	433.00
448.25	355.76
448.43	379.17
448.62	416.62
448.80	362.78
448.99	465.77
449.17	332.36
449.36	367.46
449.54	437.68
449.73	423.64
449.91	395.55
450.10	407.25
450.28	440.02
450.46	416.62
450.65	447.04
450.83	435.34
451.02	425.98
451.20	430.66
451.39	341.72
451.57	404.91
451.76	322.99
451.94	433.00
452.13	428.32
452.31	444.70
452.49	418.96
452.68	304.27
452.86	367.46
453.05	447.04
453.23	425.98
453.42	409.59
453.60	451.72
453.78	512.58
453.97	479.81
454.15	362.78
454.34	468.11
454.52	449.38
454.70	447.04
454.89	416.62
455.07	367.46
455.26	353.42
455.44	409.59
455.62	468.11
455.81	418.96
455.99	475.13
456.17	404.91
456.36	444.70
456.54	442.36
456.73	388.53
456.91	486.83
457.09	442.36
457.28	484.49
457.46	479.81
457.64	437.68
457.83	435.34
458.01	507.90
458.19	433.00
458.38	365.12
458.56	418.96
458.74	486.83
458.93	491.51
459.11	444.70
459.29	475.13
459.48	505.56
459.66	477.47
459.84	526.62
460.03	524.28
460.21	472.79
460.39	411.93
460.57	454.06
460.76	372.15
460.94	472.79
461.12	491.51
461.31	430.66
461.49	470.45
461.67	423.64
461.85	449.38
462.04	503.22
462.22	961.96
462.40	493.85
462.59	449.38
462.77	458.74
462.95	407.25
463.13	498.53
463.32	470.45
463.50	425.98
463.68	437.68
463.86	433.00
464.05	449.38
464.23	486.83
464.41	482.15
464.59	535.98
464.78	468.11
464.96	435.34
465.14	484.49
465.32	540.66
465.50	514.92
465.69	510.24
465.87	440.02
466.05	425.98
466.23	386.19
466.41	500.87
466.60	454.06
466.78	496.19
466.96	505.56
467.14	486.83
467.32	578.11
467.51	470.45
467.69	533.64
467.87	496.19
468.05	500.87
468.23	458.74
468.41	552.37
468.60	489.17
468.78	468.11
468.96	538.32
469.14	512.58
469.32	484.49
469.50	468.11
469.69	550.03
469.87	498.53
470.05	477.47
470.23	493.85
470.41	477.47
470.59	395.55
470.77	449.38
470.95	463.43
471.14	535.98
471.32	503.22
471.50	463.43
471.68	500.87
471.86	514.92
472.04	561.73
472.22	503.22
472.40	479.81
472.58	535.98
472.77	538.32
472.95	573.43
473.13	552.37
473.31	491.51
473.49	557.05
473.67	468.11
473.85	554.71
474.03	547.69
474.21	484.49
474.39	503.22
474.57	575.77
474.75	507.90
474.93	463.43
475.12	484.49
475.30	561.73
475.48	493.85
475.66	550.03
475.84	531.30
476.02	557.05
476.20	550.03
476.38	547.69
476.56	610.88
476.74	550.03
476.92	557.05
477.10	533.64
477.28	517.26
477.46	622.58
477.64	535.98
477.82	589.82
478.00	550.03
478.18	580.45
478.36	512.58
478.54	521.94
478.72	564.07
478.90	557.05
479.08	526.62
479.26	533.64
479.44	479.81
479.62	627.26
479.80	638.97
479.98	594.50
480.16	594.50
480.34	692.80
480.52	683.44
480.70	610.88
480.88	631.94
481.06	671.73
481.24	613.22
481.41	671.73
481.59	678.76
481.77	734.93
481.95	674.07
482.13	674.07
482.31	655.35
482.49	664.71
482.67	634.29
482.85	732.59
483.03	739.61
483.21	746.63
483.39	720.88
483.57	781.74
483.74	737.27
483.92	737.27
484.10	772.38
484.28	814.51
484.46	809.83
484.64	842.59
484.82	809.83
485.00	784.08
485.18	880.04
485.35	828.55
485.53	819.19
485.71	917.49
485.89	795.78
486.07	821.53
486.25	950.26
486.43	868.34
486.61	870.68
486.78	908.13
486.96	882.38
487.14	887.06
487.32	919.83
487.50	940.90
487.68	943.24
487.85	856.64
488.03	999.41
488.21	959.62
488.39	898.77
488.57	973.66
488.75	957.28
488.92	1181.97
489.10	1001.75
489.28	997.07
489.46	929.19
489.64	943.24
489.81	966.64
489.99	915.15
490.17	936.21
490.35	945.58
490.53	905.79
490.70	940.90
490.88	966.64
491.06	957.28
491.24	985.37
491.41	1057.92
491.59	1053.24
491.77	964.30
491.95	926.85
492.13	952.60
492.30	940.90
492.48	1043.88
492.66	1006.43
492.84	1006.43
493.01	978.34
493.19	999.41
493.37	1025.15
493.54	1001.75
493.72	1062.60
493.90	1029.84
494.08	1006.43
494.25	1020.47
494.43	990.05
494.61	1071.97
494.79	961.96
494.96	1039.20
495.14	1064.94
495.32	971.32
495.49	1041.54
495.67	983.02
495.85	1102.39
496.02	1039.20
496.20	1135.16
496.38	1032.18
496.55	1034.52
496.73	1060.26
496.91	992.39
497.09	1062.60
497.26	1015.79
497.44	1057.92
497.62	1055.58
497.79	1139.84
497.97	1034.52
498.14	1050.90
498.32	1149.20
498.50	1172.61
498.67	1069.62
498.85	1060.26
499.03	1163.25
499.20	1118.78
499.38	1121.12
499.56	1170.27
499.73	1193.67
499.91	1191.33
500.08	1057.92
500.26	1057.92
500.44	1078.99
500.61	1130.48
500.79	1121.12
500.97	1053.24
501.14	1210.06
501.32	1107.07
501.49	1090.69
501.67	1095.37
501.84	1095.37
502.02	992.39
502.20	1191.33
502.37	1097.71
502.55	1139.84
502.72	1132.82
502.90	1179.63
503.07	1121.12
503.25	1100.05
503.43	983.02
503.60	1095.37
503.78	1027.50
503.95	1170.27
504.13	1174.95
504.30	1149.20
504.48	1320.06
504.65	1203.04
504.83	1139.84
505.01	1090.69
505.18	1132.82
505.36	1111.75
505.53	1170.27
505.71	1156.22
505.88	1177.29
506.06	1193.67
506.23	1214.74
506.41	1193.67
506.58	1266.23
506.76	1191.33
506.93	1093.03
507.11	1245.16
507.28	1116.44
507.46	1240.48
507.63	1226.44
507.81	1242.82
507.98	1149.20
508.16	1188.99
508.33	1179.63
508.50	1247.51
508.68	1214.74
508.85	1235.80
509.03	1240.48
509.20	1249.85
509.38	1233.46
509.55	1245.16
509.73	1306.02
509.90	1228.78
510.08	1207.72
510.25	1336.45
510.42	1245.16
510.60	1238.14
510.77	1235.80
510.95	1233.46
511.12	1317.72
511.30	1324.74
511.47	1198.35
511.64	1287.29
511.82	1277.93
511.99	1366.87
512.17	1301.34
512.34	1301.34
512.51	1392.62
512.69	1217.08
512.86	1397.30
513.04	1334.11
513.21	1179.63
513.38	1341.13
513.56	1205.38
513.73	1287.29
513.90	1249.85
514.08	1205.38
514.25	1301.34
514.43	1315.38
514.60	1341.13
514.77	1282.61
514.95	1411.34
515.12	1270.91
515.29	1284.95
515.47	1378.58
515.64	1320.06
515.81	1467.52
515.99	1409.00
516.16	1324.74
516.33	1294.32
516.51	1301.34
516.68	1427.73
516.85	1371.55
517.03	1394.96
517.20	1313.04
517.37	1366.87
517.54	1324.74
517.72	1392.62
517.89	1277.93
518.06	1380.92
518.24	1394.96
518.41	1378.58
518.58	1343.47
518.75	1348.15
518.93	1474.54
519.10	1406.66
519.27	1385.60
519.45	1385.60
519.62	1355.17
519.79	1427.73
519.96	1383.26
520.14	1362.19
520.31	1378.58
520.48	1320.06
520.65	1355.17
520.83	1390.28
521.00	1434.75
521.17	1458.15
521.34	1401.98
521.52	1355.17
521.69	1385.60
521.86	1497.94
522.03	1416.02
522.20	1371.55
522.38	1334.11
522.55	1448.79
522.72	1437.09
522.89	1474.54
523.07	1603.27
523.24	1467.52
523.41	1362.19
523.58	1537.73
523.75	1404.32
523.92	1455.81
524.10	1549.43
524.27	1469.86
524.44	1514.33
524.61	1469.86
524.78	1502.62
524.96	1437.09
525.13	1451.13
525.30	1418.36
525.47	1558.80
525.64	1437.09
525.81	1488.58
525.98	1434.75
526.16	1404.32
526.33	1362.19
526.50	1401.98
526.67	1345.81
526.84	1469.86
527.01	1437.09
527.18	1528.37
527.36	1451.13
527.53	1493.26
527.70	1476.88
527.87	1432.41
528.04	1511.99
528.21	1500.28
528.38	1451.13
528.55	1544.75
528.72	1643.06
528.89	1458.15
529.07	1502.62
529.24	1514.33
529.41	1521.35
529.58	1437.09
529.75	1591.56
529.92	1528.37
530.09	1568.16
530.26	1540.07
530.43	1465.18
530.60	1570.50
530.77	1504.96
530.94	1537.73
531.11	1507.30
531.28	1544.75
531.46	1483.90
531.63	1519.01
531.80	1586.88
531.97	1530.71
532.14	1486.24
532.31	1549.43
532.48	1549.43
532.65	1502.62
532.82	1526.03
532.99	1586.88
533.16	1579.86
533.33	1643.06
533.50	1626.67
533.67	1703.91
533.84	1582.20
534.01	1572.84
534.18	1521.35
534.35	1514.33
534.52	1692.21
534.69	1671.14
534.86	1600.93
535.03	1544.75
535.20	1682.85
535.37	1570.50
535.54	1619.65
535.71	1570.50
535.88	1593.90
536.05	1624.33
536.22	1692.21
536.38	1685.19
536.55	1624.33
536.72	1617.31
536.89	1671.14
537.06	1638.38
537.23	1736.68
537.40	1657.10
537.57	1748.38
537.74	1673.48
537.91	1753.06
538.08	1867.75
538.25	1750.72
538.42	1722.63
538.59	1870.09
538.75	1830.30
538.92	1858.39
539.09	1921.58
539.26	1790.51
539.43	1975.41
539.60	1954.35
539.77	1900.52
539.94	2057.33
540.11	1961.37
540.28	2085.42
540.44	2157.97
540.61	2172.02
540.78	2258.62
540.95	2445.86
541.12	2717.36
541.29	2708.00
541.46	2677.57
541.62	2628.42
541.79	2796.94
541.96	2576.93
542.13	2595.65
542.30	2539.48
542.47	2480.97
542.63	2572.25
542.80	2511.39
542.97	2532.46
543.14	2455.22
543.31	2462.24
543.48	2422.45
543.64	2593.31
543.81	2420.11
543.98	2485.65
544.15	2520.76
544.32	2417.77
544.48	2539.48
544.65	2445.86
544.82	2464.58
544.99	2394.37
545.16	2480.97
545.32	2478.63
545.49	3176.11
545.66	4205.94
545.83	4720.86
546.00	4313.61
546.16	3517.83
546.33	2939.71
546.50	2644.81
546.67	2539.48
546.83	2289.04
547.00	2298.41
547.17	2321.81
547.34	2225.85
547.50	2181.38
547.67	2115.84
547.84	2064.35
548.00	2244.57
548.17	2043.29
548.34	2090.10
548.51	2169.68
548.67	2172.02
548.84	2101.80
549.01	2036.27
549.18	2045.63
549.34	2132.23
549.51	1954.35
549.68	1984.77
549.84	2001.16
550.01	1935.62
550.18	2125.21
550.34	2092.44
550.51	1984.77
550.68	1907.54
550.84	1956.69
551.01	1947.33
551.18	1832.64
551.34	1877.11
551.51	1863.07
551.68	1764.76
551.84	1858.39
552.01	1916.90
552.18	1846.68
552.34	1792.85
552.51	1914.56
552.68	1909.88
552.84	1762.42
553.01	1961.37
553.18	1783.49
553.34	1678.16
553.51	1806.89
553.67	1834.98
553.84	1930.94
554.01	1795.19
554.17	1804.55
554.34	1816.26
554.51	1778.81
554.67	1746.04
554.84	1823.28
555.00	1720.29
555.17	1767.10
555.33	1811.57
555.50	1722.63
555.67	1769.44
555.83	1722.63
556.00	1699.23
556.16	1928.60
556.33	1762.42
556.50	1746.04
556.66	1689.87
556.83	1762.42
556.99	1750.72
557.16	1713.27
557.32	1720.29
557.49	1734.34
557.65	1675.82
557.82	1767.10
557.98	1626.67
558.15	1643.06
558.32	1717.95
558.48	1703.91
558.65	1650.08
558.81	1734.34
558.98	1736.68
559.14	1804.55
559.31	1778.81
559.47	1722.63
559.64	1720.29
559.80	1710.93
559.97	1654.76
560.13	1790.51
560.30	1668.80
560.46	1769.44
560.63	1823.28
560.79	1720.29
560.96	1673.48
561.12	1638.38
561.29	1743.70
561.45	1715.61
561.61	1776.47
561.78	1788.17
561.94	1748.38
562.11	1703.91
562.27	1687.53
562.44	1722.63
562.60	1771.79
562.77	1746.04
562.93	1813.92
563.10	1703.91
563.26	1675.82
563.42	1717.95
563.59	1638.38
563.75	1799.87
563.92	1764.76
564.08	1783.49
564.24	1715.61
564.41	1739.02
564.57	1722.63
564.74	1645.40
564.90	1689.87
565.07	1769.44
565.23	1792.85
565.39	1638.38
565.56	1713.27
565.72	1696.89
565.88	1732.00
566.05	1724.97
566.21	1788.17
566.38	1617.31
566.54	1769.44
566.70	1710.93
566.87	1703.91
567.03	1682.85
567.19	1734.34
567.36	1647.74
567.52	1739.02
567.68	1774.13
567.85	1694.55
568.01	1795.19
568.17	1701.57
568.34	1788.17
568.50	1736.68
568.66	1600.93
568.83	1696.89
568.99	1722.63
569.15	1729.66
569.32	1724.97
569.48	1736.68
569.64	1722.63
569.81	1685.19
569.97	1647.74
570.13	1605.61
570.30	1720.29
570.46	1701.57
570.62	1596.25
570.78	1652.42
570.95	1708.59
571.11	1837.32
571.27	1736.68
571.43	1696.89
571.60	1717.95
571.76	1614.97
571.92	1722.63
572.09	1792.85
572.25	1769.44
572.41	1652.42
572.57	1643.06
572.74	1727.32
572.90	1729.66
573.06	1785.83
573.22	1750.72
573.38	1650.08
573.55	1769.44
573.71	1757.74
573.87	1802.21
574.03	1671.14
574.20	1713.27
574.36	1741.36
574.52	1755.40
574.68	1584.54
574.84	1673.48
575.01	1706.25
575.17	1678.16
575.33	1692.21
575.49	1760.08
575.65	1732.00
575.82	1753.06
575.98	1778.81
576.14	1732.00
576.30	1797.53
576.46	1982.43
576.62	2214.15
576.79	2230.53
576.95	2122.87
577.11	1980.09
577.27	1830.30
577.43	1741.36
577.59	1736.68
577.75	1767.10
577.92	1816.26
578.08	1717.95
578.24	1748.38
578.40	1895.83
578.56	1991.80
578.72	2228.19
578.88	2223.51
579.04	1996.48
579.21	1968.39
579.37	1980.09
579.53	1827.96
579.69	1795.19
579.85	1907.54
580.01	1888.81
580.17	1872.43
580.33	1895.83
580.49	1893.49
580.65	1823.28
580.82	1785.83
580.98	1795.19
581.14	1816.26
581.30	1900.52
581.46	1797.53
581.62	1839.66
581.78	1783.49
581.94	1902.86
582.10	1764.76
582.26	1905.20
582.42	1919.24
582.58	1956.69
582.74	1975.41
582.90	1949.67
583.06	1914.56
583.22	1870.09
583.38	1834.98
583.54	1921.58
583.70	1898.17
583.86	1921.58
584.02	1895.83
584.18	1858.39
584.34	1858.39
584.50	1984.77
584.66	1870.09
584.82	1940.30
584.98	1928.60
585.14	1874.77
585.30	1804.55
585.46	1907.54
585.62	1902.86
585.78	1933.28
585.94	1867.75
586.10	1944.99
586.26	1849.02
586.42	1895.83
586.58	1952.01
586.74	1970.73
586.90	2040.95
587.06	2080.74
587.22	2069.03
587.38	2057.33
587.54	2038.61
587.70	1935.62
587.86	1935.62
588.02	1888.81
588.18	1870.09
588.34	1909.88
588.49	1825.62
588.65	1767.10
588.81	1842.00
588.97	1701.57
589.13	1687.53
589.29	1778.81
589.45	1870.09
589.61	1734.34
589.77	1795.19
589.93	1863.07
590.08	1785.83
590.24	1851.36
590.40	1774.13
590.56	1844.34
590.72	1823.28
590.88	1790.51
591.04	1781.15
591.20	1891.15
591.35	1902.86
591.51	1818.60
591.67	1870.09
591.83	1832.64
591.99	1816.26
592.15	1987.11
592.31	1844.34
592.46	1860.73
592.62	2012.86
592.78	2012.86
592.94	2073.71
593.10	1989.46
593.26	1970.73
593.41	1937.96
593.57	1837.32
593.73	1886.47
593.89	1849.02
594.05	1797.53
594.20	1827.96
594.36	1900.52
594.52	1806.89
594.68	1834.98
594.84	1778.81
594.99	1783.49
595.15	1813.92
595.31	1823.28
595.47	1729.66
595.62	1722.63
595.78	1706.25
595.94	1755.40
596.10	1825.62
596.25	1732.00
596.41	1703.91
596.57	1757.74
596.73	1753.06
596.88	1792.85
597.04	1743.70
597.20	1804.55
597.36	1741.36
597.51	1764.76
597.67	1713.27
597.83	1764.76
597.99	1781.15
598.14	1816.26
598.30	1755.40
598.46	1813.92
598.61	1853.70
598.77	1909.88
598.93	1809.23
599.09	1743.70
599.24	1914.56
599.40	1837.32
599.56	1921.58
599.71	1799.87
599.87	1846.68
600.03	1823.28
600.18	1832.64
600.34	1818.60
600.50	1743.70
600.65	1781.15
600.81	1825.62
600.97	1802.21
601.12	1727.32
601.28	1804.55
601.44	1767.10
601.59	1764.76
601.75	1842.00
601.91	1708.59
602.06	1729.66
602.22	1886.47
602.37	1694.55
602.53	1694.55
602.69	1741.36
602.84	1785.83
603.00	1774.13
603.16	1724.97
603.31	1666.46
603.47	1844.34
603.62	1724.97
603.78	1696.89
603.94	1694.55
604.09	1739.02
604.25	1776.47
604.40	1729.66
604.56	1692.21
604.71	1750.72
604.87	1806.89
605.03	1701.57
605.18	1729.66
605.34	1755.40
605.49	1724.97
605.65	1629.01
605.80	1802.21
605.96	1764.76
606.12	1739.02
606.27	1804.55
606.43	1692.21
606.58	1757.74
606.74	1785.83
606.89	1790.51
607.05	1750.72
607.20	1872.43
607.36	1809.23
607.51	1762.42
607.67	1834.98
607.82	1797.53
607.98	1823.28
608.13	1870.09
608.29	1893.49
608.44	1984.77
608.60	1820.94
608.75	2031.58
608.91	1961.37
609.06	1968.39
609.22	2045.63
609.37	2033.93
609.53	2078.40
609.68	2015.20
609.84	2157.97
609.99	2305.43
610.15	2424.80
610.30	2597.99
610.46	2841.41
610.61	3311.86
610.76	3866.56
610.92	4252.75
611.07	4409.57
611.23	4620.22
611.38	4346.37
611.54	3934.44
611.69	3620.81
611.84	3314.20
612.00	3105.89
612.15	2876.52
612.31	2621.40
612.46	2478.63
612.62	2586.29
612.77	2537.14
612.92	2480.97
613.08	2345.22
613.23	2326.49
613.39	2319.47
613.54	2204.78
613.69	2232.87
613.85	2256.28
614.00	2244.57
614.15	2265.64
614.31	2183.72
614.46	2197.76
614.62	2239.89
614.77	2249.25
614.92	2183.72
615.08	2085.42
615.23	1888.81
615.38	2097.12
615.54	2010.52
615.69	1963.71
615.84	1849.02
616.00	1781.15
616.15	1832.64
616.30	1830.30
616.46	1860.73
616.61	1788.17
616.76	1851.36
616.92	1804.55
617.07	1783.49
617.22	1764.76
617.37	1760.08
617.53	1727.32
617.68	1799.87
617.83	1717.95
617.99	1790.51
618.14	1870.09
618.29	1722.63
618.45	1788.17
618.60	1671.14
618.75	1558.80
618.90	1647.74
619.06	1827.96
619.21	1839.66
619.36	1734.34
619.51	1638.38
619.67	1778.81
619.82	1706.25
619.97	1734.34
620.12	1696.89
620.28	1645.40
620.43	1741.36
620.58	1811.57
620.73	1781.15
620.89	1797.53
621.04	1750.72
621.19	1813.92
621.34	1748.38
621.49	1666.46
621.65	1771.79
621.80	1701.57
621.95	1769.44
622.10	1811.57
622.25	1666.46
622.41	1629.01
622.56	1764.76
622.71	1689.87
622.86	1804.55
623.01	1643.06
623.16	1816.26
623.32	1666.46
623.47	1659.44
623.62	1650.08
623.77	1720.29
623.92	1722.63
624.07	1596.25
624.23	1577.52
624.38	1652.42
624.53	1699.23
624.68	1729.66
624.83	1724.97
624.98	1671.14
625.13	1755.40
625.29	1668.80
625.44	1610.29
625.59	1710.93
625.74	1717.95
625.89	1666.46
626.04	1563.48
626.19	1696.89
626.34	1586.88
626.49	1659.44
626.65	1767.10
626.80	1584.54
626.95	1699.23
627.10	1617.31
627.25	1703.91
627.40	1778.81
627.55	1563.48
627.70	1657.10
627.85	1746.04
628.00	1713.27
628.15	1664.12
628.30	1643.06
628.45	1619.65
628.60	1717.95
628.76	1696.89
628.91	1703.91
629.06	1636.03
629.21	1547.09
629.36	1666.46
629.51	1696.89
629.66	1638.38
629.81	1689.87
629.96	1612.63
630.11	1682.85
630.26	1802.21
630.41	1755.40
630.56	1844.34
630.71	1877.11
630.86	1858.39
631.01	1750.72
631.16	1799.87
631.31	1750.72
631.46	1713.27
631.61	1647.74
631.76	1568.16
631.91	1607.95
632.06	1659.44
632.21	1558.80
632.36	1727.32
632.51	1575.18
632.66	1544.75
632.81	1437.09
632.96	1542.41
633.10	1497.94
633.25	1537.73
633.40	1526.03
633.55	1526.03
633.70	1392.62
633.85	1394.96
634.00	1458.15
634.15	1504.96
634.30	1521.35
634.45	1586.88
634.60	1526.03
634.75	1526.03
634.90	1352.83
635.05	1399.64
635.19	1406.66
635.34	1453.47
635.49	1514.33
635.64	1451.13
635.79	1474.54
635.94	1488.58
636.09	1474.54
636.24	1427.73
636.39	1495.60
636.53	1526.03
636.68	1500.28
636.83	1523.69
636.98	1547.09
637.13	1509.65
637.28	1474.54
637.43	1488.58
637.57	1547.09
637.72	1528.37
637.87	1549.43
638.02	1479.22
638.17	1434.75
638.32	1507.30
638.46	1409.00
638.61	1409.00
638.76	1404.32
638.91	1474.54
639.06	1509.65
639.20	1479.22
639.35	1453.47
639.50	1474.54
639.65	1502.62
639.80	1418.36
639.94	1427.73
640.09	1497.94
640.24	1460.49
640.39	1502.62
640.54	1446.45
640.68	1446.45
640.83	1526.03
640.98	1451.13
641.13	1387.94
641.27	1516.67
641.42	1418.36
641.57	1521.35
641.72	1481.56
641.86	1416.02
642.01	1427.73
642.16	1366.87
642.31	1528.37
642.45	1495.60
642.60	1469.86
642.75	1331.76
642.90	1502.62
643.04	1352.83
643.19	1369.21
643.34	1439.43
643.48	1413.68
643.63	1497.94
643.78	1502.62
643.93	1432.41
644.07	1418.36
644.22	1453.47
644.37	1406.66
644.51	1462.83
644.66	1282.61
644.81	1380.92
644.95	1444.11
645.10	1334.11
645.25	1427.73
645.39	1533.05
645.54	1418.36
645.69	1448.79
645.83	1383.26
645.98	1476.88
646.13	1451.13
646.27	1465.18
646.42	1406.66
646.57	1448.79
646.71	1465.18
646.86	1469.86
647.00	1380.92
647.15	1406.66
647.30	1390.28
647.44	1420.71
647.59	1409.00
647.74	1385.60
647.88	1469.86
648.03	1401.98
648.17	1434.75
648.32	1327.08
648.47	1472.20
648.61	1369.21
648.76	1427.73
648.90	1448.79
649.05	1427.73
649.20	1404.32
649.34	1401.98
649.49	1355.17
649.63	1406.66
649.78	1376.24
649.92	1483.90
650.07	1497.94
650.21	1439.43
650.36	1401.98
650.51	1476.88
650.65	1481.56
650.80	1413.68
650.94	1394.96
651.09	1432.41
651.23	1376.24
651.38	1376.24
651.52	1327.08
651.67	1397.30
651.81	1432.41
651.96	1317.72
652.10	1458.15
652.25	1299.00
652.39	1451.13
652.54	1413.68
652.68	1385.60
652.83	1387.94
652.97	1441.77
653.12	1446.45
653.26	1315.38
653.41	1441.77
653.55	1329.42
653.70	1324.74
653.84	1341.13
653.99	1362.19
654.13	1362.19
654.27	1409.00
654.42	1451.13
654.56	1324.74
654.71	1299.00
654.85	1284.95
655.00	1313.04
655.14	1387.94
655.29	1432.41
655.43	1430.07
655.57	1404.32
655.72	1284.95
655.86	1362.19
656.01	1296.66
656.15	1254.53
656.30	1420.71
656.44	1320.06
656.58	1390.28
656.73	1284.95
656.87	1343.47
657.01	1350.49
657.16	1409.00
657.30	1341.13
657.45	1350.49
657.59	1294.32
657.73	1364.53
657.88	1355.17
658.02	1373.89
658.16	1336.45
658.31	1268.57
658.45	1306.02
658.60	1228.78
658.74	1306.02
658.88	1313.04
659.03	1364.53
659.17	1317.72
659.31	1399.64
659.46	1350.49
659.60	1345.81
659.74	1221.76
659.89	1362.19
660.03	1299.00
660.17	1296.66
660.32	1273.25
660.46	1233.46
660.60	1165.59
660.74	1273.25
660.89	1252.19
661.03	1233.46
661.17	1273.25
661.32	1352.83
661.46	1261.55
661.60	1277.93
661.74	1364.53
661.89	1224.10
662.03	1315.38
662.17	1355.17
662.31	1336.45
662.46	1263.89
662.60	1177.29
662.74	1289.64
662.88	1252.19
663.03	1329.42
663.17	1315.38
663.31	1294.32
663.45	1336.45
663.60	1376.24
663.74	1329.42
663.88	1247.51
664.02	1390.28
664.17	1273.25
664.31	1336.45
664.45	1249.85
664.59	1338.79
664.73	1299.00
664.88	1313.04
665.02	1203.04
665.16	1238.14
665.30	1252.19
665.44	1233.46
665.59	1219.42
665.73	1231.12
665.87	1256.87
666.01	1181.97
666.15	1191.33
666.29	1228.78
666.44	1275.59
666.58	1256.87
666.72	1266.23
666.86	1200.69
667.00	1210.06
667.14	1254.53
667.28	1273.25
667.43	1287.29
667.57	1334.11
667.71	1181.97
667.85	1259.21
667.99	1196.01
668.13	1200.69
668.27	1322.40
668.41	1277.93
668.56	1226.44
668.70	1109.41
668.84	1212.40
668.98	1313.04
669.12	1261.55
669.26	1310.70
669.40	1268.57
669.54	1196.01
669.68	1217.08
669.82	1219.42
669.96	1076.65
670.10	1184.31
670.25	1188.99
670.39	1228.78
670.53	1067.28
670.67	1217.08
670.81	1130.48
670.95	1179.63
671.09	1146.86
671.23	1160.91
671.37	1235.80
671.51	1086.01
671.65	1163.25
671.79	1153.88
671.93	1163.25
672.07	1146.86
672.21	1268.57
672.35	1184.31
672.49	1198.35
672.63	1167.93
672.77	1102.39
672.91	1196.01
673.05	1186.65
673.19	1046.22
673.33	1128.14
673.47	1217.08
673.61	1053.24
673.75	1102.39
673.89	1071.97
674.03	1165.59
674.17	1039.20
674.31	1125.80
674.45	1118.78
674.59	1196.01
674.73	1207.72
674.87	1088.35
675.01	1130.48
675.15	1174.95
675.29	1032.18
675.43	1100.05
675.56	1132.82
675.70	1114.10
675.84	1163.25
675.98	1121.12
676.12	1149.20
676.26	1057.92
676.40	933.87
676.54	1102.39
676.68	1064.94
676.82	1114.10
676.96	1090.69
677.10	971.32
677.23	1100.05
677.37	1104.73
677.51	1004.09
677.65	1188.99
677.79	983.02
677.93	1015.79
678.07	1050.90
678.21	997.07
678.34	959.62
678.48	1086.01
678.62	1008.77
678.76	1123.46
678.90	1090.69
679.04	1069.62
679.18	992.39
679.31	1006.43
679.45	959.62
679.59	999.41
679.73	1057.92
679.87	1011.11
680.00	1011.11
680.14	1020.47
680.28	1057.92
680.42	1006.43
680.56	976.00
680.70	1015.79
680.83	1004.09
680.97	983.02
681.11	983.02
681.25	1015.79
681.39	954.94
681.52	1036.86
681.66	954.94
681.80	1027.50
681.94	952.60
682.07	910.47
682.21	997.07
682.35	844.93
682.49	863.66
682.62	1015.79
682.76	947.92
682.90	990.05
683.04	964.30
683.17	994.73
683.31	1025.15
683.45	997.07
683.59	1046.22
683.72	922.17
683.86	1053.24
684.00	940.90
684.13	968.98
684.27	854.30
684.41	945.58
684.55	880.04
684.68	912.81
684.82	856.64
684.96	802.80
685.09	887.06
685.23	823.87
685.37	910.47
685.50	992.39
685.64	985.37
685.78	821.53
685.91	844.93
686.05	976.00
686.19	926.85
686.32	898.77
686.46	908.13
686.60	842.59
686.73	812.17
686.87	856.64
687.01	854.30
687.14	917.49
687.28	844.93
687.42	837.91
687.55	887.06
687.69	905.79
687.82	854.30
687.96	847.27
688.10	889.40
688.23	910.47
688.37	870.68
688.50	898.77
688.64	910.47
688.78	891.74
688.91	854.30
689.05	835.57
689.18	863.66
689.32	748.97
689.46	798.12
689.59	798.12
689.73	795.78
689.86	809.83
690.00	861.32
690.13	828.55
690.27	840.25
690.41	931.53
690.54	835.57
690.68	816.85
690.81	837.91
690.95	805.14
691.08	805.14
691.22	786.42
691.35	882.38
691.49	781.74
691.62	795.78
691.76	737.27
691.89	781.74
692.03	784.08
692.16	725.57
692.30	730.25
692.43	683.44
692.57	746.63
692.70	805.14
692.84	709.18
692.97	702.16
693.11	765.36
693.24	765.36
693.38	765.36
693.51	851.96
693.65	706.84
693.78	772.38
693.92	774.72
694.05	828.55
694.19	763.01
694.32	702.16
694.45	657.69
694.59	741.95
694.72	828.55
694.86	713.86
694.99	725.57
695.13	732.59
695.26	657.69
695.39	657.69
695.53	737.27
695.66	678.76
695.80	856.64
695.93	791.10
696.07	669.39
696.20	685.78
696.33	755.99
696.47	676.41
696.60	653.01
696.73	653.01
696.87	613.22
697.00	678.76
697.14	631.94
697.27	603.86
697.40	748.97
697.54	627.26
697.67	753.65
697.80	760.67
697.94	713.86
698.07	613.22
698.21	634.29
698.34	638.97
698.47	631.94
698.61	716.20
698.74	631.94
698.87	655.35
699.01	638.97
699.14	664.71
699.27	671.73
699.40	676.41
699.54	655.35
699.67	662.37
699.80	653.01
699.94	589.82
700.07	662.37
700.20	624.92
700.34	617.90
700.47	641.31
700.60	601.52
700.73	589.82
700.87	568.75
701.00	603.86
701.13	629.60
701.26	582.79
701.40	678.76
701.53	601.52
701.66	557.05
701.79	564.07
701.93	608.54
702.06	631.94
702.19	550.03
702.32	585.13
702.46	524.28
702.59	564.07
702.72	615.56
702.85	629.60
702.99	552.37
703.12	620.24
703.25	603.86
703.38	510.24
703.51	531.30
703.65	571.09
703.78	603.86
703.91	575.77
704.04	566.41
704.17	582.79
704.31	491.51
704.44	566.41
704.57	587.47
704.70	557.05
704.83	578.11
704.96	557.05
705.10	552.37
705.23	493.85
>>>>>End Processed Spectral Data<<<<<
