SpectraSuite Data File
++++++++++++++++++++++++++++++++++++
Date: Fri Oct 04 11:39:16 GMT-05:00 2013
User: price-jones
Dark Spectrum Present: No
Reference Spectrum Present: No
Number of Sampled Component Spectra: 1
Spectrometers: USB2+H05261
Integration Time (usec): 100000 (USB2+H05261)
Spectra Averaged: 1 (USB2+H05261)
Boxcar Smoothing: 0 (USB2+H05261)
Correct for Electrical Dark: No (USB2+H05261)
Strobe/Lamp Enabled: No (USB2+H05261)
Correct for Detector Non-linearity: No (USB2+H05261)
Correct for Stray Light: No (USB2+H05261)
Number of Pixels in Processed Spectrum: 2048
>>>>>Begin Processed Spectral Data<<<<<
365.73	72.56
365.92	72.56
366.12	72.56
366.32	0.00
366.52	0.00
366.72	0.00
366.91	0.00
367.11	0.00
367.31	0.00
367.51	0.00
367.70	0.00
367.90	0.00
368.10	0.00
368.30	39.79
368.49	0.00
368.69	18.72
368.89	0.00
369.09	0.00
369.28	0.00
369.48	0.00
369.68	37.45
369.87	14.04
370.07	14.04
370.27	25.75
370.47	84.26
370.66	138.09
370.86	180.22
371.06	287.89
371.25	255.12
371.45	313.63
371.65	266.82
371.84	276.18
372.04	294.91
372.24	271.50
372.44	262.14
372.63	353.42
372.83	334.70
373.03	271.50
373.22	339.38
373.42	250.44
373.62	308.95
373.81	379.17
374.01	395.55
374.21	355.76
374.40	376.83
374.60	397.89
374.79	337.04
374.99	388.53
375.19	315.97
375.38	444.70
375.58	388.53
375.78	428.32
375.97	376.83
376.17	383.85
376.37	409.59
376.56	374.49
376.76	313.63
376.95	348.74
377.15	407.25
377.35	379.17
377.54	383.85
377.74	346.40
377.93	327.68
378.13	407.25
378.33	428.32
378.52	416.62
378.72	465.77
378.91	503.22
379.11	369.80
379.31	397.89
379.50	397.89
379.70	454.06
379.89	482.15
380.09	475.13
380.28	463.43
380.48	458.74
380.68	423.64
380.87	400.23
381.07	465.77
381.26	599.18
381.46	498.53
381.65	498.53
381.85	449.38
382.04	444.70
382.24	482.15
382.43	566.41
382.63	482.15
382.83	512.58
383.02	519.60
383.22	512.58
383.41	409.59
383.61	486.83
383.80	503.22
384.00	440.02
384.19	514.92
384.39	503.22
384.58	496.19
384.78	575.77
384.97	528.96
385.17	526.62
385.36	486.83
385.56	538.32
385.75	514.92
385.95	550.03
386.14	564.07
386.34	510.24
386.53	617.90
386.72	519.60
386.92	554.71
387.11	575.77
387.31	580.45
387.50	528.96
387.70	475.13
387.89	573.43
388.09	557.05
388.28	477.47
388.48	653.01
388.67	634.29
388.86	624.92
389.06	573.43
389.25	566.41
389.45	615.56
389.64	575.77
389.84	643.65
390.03	638.97
390.22	615.56
390.42	610.88
390.61	608.54
390.81	566.41
391.00	641.31
391.19	711.52
391.39	671.73
391.58	615.56
391.78	678.76
391.97	662.37
392.16	615.56
392.36	725.57
392.55	711.52
392.75	683.44
392.94	739.61
393.13	723.23
393.33	681.10
393.52	711.52
393.71	758.33
393.91	678.76
394.10	709.18
394.29	725.57
394.49	702.16
394.68	798.12
394.88	748.97
395.07	833.23
395.26	837.91
395.46	779.40
395.65	798.12
395.84	830.89
396.04	866.00
396.23	765.36
396.42	777.06
396.62	781.74
396.81	866.00
397.00	922.17
397.19	709.18
397.39	933.87
397.58	760.67
397.77	863.66
397.97	858.98
398.16	851.96
398.35	844.93
398.55	802.80
398.74	812.17
398.93	938.55
399.12	896.43
399.32	903.45
399.51	915.15
399.70	976.00
399.90	933.87
400.09	1027.50
400.28	1011.11
400.47	1020.47
400.67	1081.33
400.86	1142.18
401.05	1001.75
401.24	1046.22
401.44	1055.58
401.63	1088.35
401.82	1128.14
402.01	1027.50
402.21	1088.35
402.40	1214.74
402.59	1074.31
402.78	1167.93
402.97	1191.33
403.17	1071.97
403.36	1174.95
403.55	1221.76
403.74	1196.01
403.93	1135.16
404.13	1284.95
404.32	1294.32
404.51	1231.12
404.70	1320.06
404.89	1165.59
405.09	1259.21
405.28	1228.78
405.47	1263.89
405.66	1254.53
405.85	1313.04
406.05	1324.74
406.24	1315.38
406.43	1287.29
406.62	1359.85
406.81	1366.87
407.00	1420.71
407.20	1409.00
407.39	1357.51
407.58	1366.87
407.77	1479.22
407.96	1488.58
408.15	1425.39
408.34	1469.86
408.54	1458.15
408.73	1528.37
408.92	1439.43
409.11	1558.80
409.30	1561.14
409.49	1519.01
409.68	1547.09
409.87	1586.88
410.07	1558.80
410.26	1764.76
410.45	1610.29
410.64	1694.55
410.83	1673.48
411.02	1750.72
411.21	1785.83
411.40	1696.89
411.59	1785.83
411.78	1811.57
411.98	1769.44
412.17	1802.21
412.36	1774.13
412.55	1921.58
412.74	1881.79
412.93	1933.28
413.12	1966.05
413.31	1968.39
413.50	1980.09
413.69	1961.37
413.88	1996.48
414.07	2001.16
414.26	2026.90
414.45	2033.93
414.64	2054.99
414.83	2057.33
415.02	2179.04
415.22	2204.78
415.41	2265.64
415.60	2230.53
415.79	2174.36
415.98	2293.72
416.17	2415.43
416.36	2267.98
416.55	2363.94
416.74	2289.04
416.93	2338.20
417.12	2436.50
417.31	2340.54
417.50	2441.18
417.69	2352.24
417.88	2438.84
418.07	2401.39
418.26	2415.43
418.45	2516.08
418.64	2668.21
418.83	2572.25
419.02	2485.65
419.21	2558.21
419.39	2628.42
419.58	2546.50
419.77	2466.92
419.96	2693.96
420.15	2612.04
420.34	2691.62
420.53	2635.44
420.72	2715.02
420.91	2768.85
421.10	2855.45
421.29	2874.18
421.48	2752.47
421.67	2747.79
421.86	2729.06
422.05	2810.98
422.24	2862.48
422.43	2909.29
422.61	2801.62
422.80	2944.39
422.99	2951.42
423.18	2789.92
423.37	2836.73
423.56	2871.84
423.75	2794.60
423.94	2867.16
424.13	2698.64
424.32	2815.66
424.50	2885.88
424.69	2892.90
424.88	3000.57
425.07	2881.20
425.26	2832.05
425.45	2995.89
425.64	2928.01
425.83	2916.31
426.01	2979.50
426.20	3042.70
426.39	2920.99
426.58	2944.39
426.77	3091.85
426.96	3119.93
427.15	3066.10
427.33	3094.19
427.52	3005.25
427.71	3098.87
427.90	3164.40
428.09	3049.72
428.28	3169.09
428.46	3164.40
428.65	3124.62
428.84	3169.09
429.03	3382.07
429.22	3155.04
429.40	3143.34
429.59	3115.25
429.78	3059.08
429.97	3119.93
430.16	3157.38
430.34	3412.50
430.53	3342.28
430.72	3389.10
430.91	3412.50
431.10	3351.65
431.28	3262.71
431.47	3461.65
431.66	3597.40
431.85	3346.97
432.03	3522.51
432.22	3602.08
432.41	3510.80
432.60	3585.70
432.79	3403.14
432.97	3634.85
433.16	3550.59
433.35	3576.34
433.54	3548.25
433.72	3538.89
433.91	3569.32
434.10	3735.50
434.28	3571.66
434.47	3665.28
434.66	3824.44
434.85	3838.48
435.03	3768.26
435.22	3953.16
435.41	4180.20
435.59	3995.29
435.78	4032.74
435.97	4030.40
436.16	3833.80
436.34	3908.69
436.53	3777.62
436.72	3960.19
436.90	3777.62
437.09	3922.74
437.28	3836.14
437.46	3889.97
437.65	4023.38
437.84	3967.21
438.02	3969.55
438.21	4002.32
438.40	3992.95
438.58	4084.23
438.77	4219.99
438.96	4135.73
439.14	4329.99
439.33	4315.95
439.52	4210.62
439.70	4404.89
439.89	4369.78
440.08	4355.74
440.26	4374.46
440.45	4332.33
440.63	4360.42
440.82	4442.34
441.01	4458.72
441.19	4461.06
441.38	4629.58
441.57	4585.11
441.75	4671.71
441.94	4652.98
442.12	4755.97
442.31	4800.44
442.50	4774.69
442.68	4816.82
442.87	4884.70
443.05	4690.43
443.24	4868.31
443.43	4917.47
443.61	4669.37
443.80	5135.14
443.98	4898.74
444.17	4667.03
444.35	4802.78
444.54	4943.21
444.73	4884.70
444.91	5064.92
445.10	4997.04
445.28	5060.24
445.47	4990.02
445.65	4959.60
445.84	5135.14
446.02	4952.57
446.21	4788.74
446.39	4889.38
446.58	5067.26
446.77	5114.07
446.95	4947.89
447.14	4865.97
447.32	5287.27
447.51	5090.67
447.69	5104.71
447.88	5093.01
448.06	5093.01
448.25	5064.92
448.43	4992.36
448.62	5132.79
448.80	5130.45
448.99	5123.43
449.17	5280.25
449.36	5097.69
449.54	5226.42
449.73	5221.74
449.91	5495.58
450.10	5331.74
450.28	5392.59
450.46	5228.76
450.65	5460.47
450.83	5305.99
451.02	5380.89
451.20	5446.43
451.39	5586.86
451.57	5338.76
451.76	5458.13
451.94	5418.34
452.13	5514.30
452.31	5584.52
452.49	5441.75
452.68	5699.20
452.86	5511.96
453.05	5603.24
453.23	5516.64
453.42	5575.16
453.60	5621.97
453.78	5598.56
453.97	5715.59
454.15	5577.50
454.34	5675.80
454.52	5891.13
454.70	5591.54
454.89	5858.36
455.07	5959.00
455.26	5928.58
455.44	5802.19
455.62	5874.74
455.81	5858.36
455.99	5961.34
456.17	5888.79
456.36	5907.51
456.54	6019.86
456.73	6073.69
456.91	6410.73
457.09	6171.99
457.28	6195.40
457.46	5996.45
457.64	6253.91
457.83	6345.19
458.01	6085.39
458.19	6389.66
458.38	6366.26
458.56	6291.36
458.74	6176.67
458.93	6469.24
459.11	6384.98
459.29	6225.82
459.48	6441.15
459.66	6527.75
459.84	6616.69
460.03	6640.10
460.21	6497.33
460.39	6448.18
460.57	6502.01
460.76	6406.05
460.94	6661.16
461.12	6595.63
461.31	6506.69
461.49	6712.66
461.67	6663.51
461.85	6939.69
462.04	6792.23
462.22	7265.02
462.40	6906.92
462.59	6712.66
462.77	6782.87
462.95	6867.13
463.13	6895.22
463.32	6857.77
463.50	7047.35
463.68	7054.37
463.86	6799.26
464.05	6909.26
464.23	7014.59
464.41	7183.10
464.59	7007.56
464.78	7115.23
464.96	7035.65
465.14	7026.29
465.32	7061.40
465.50	7204.17
465.69	7187.79
465.87	7148.00
466.05	7073.10
466.23	7169.06
466.41	7283.75
466.60	7318.86
466.78	7222.89
466.96	7332.90
467.14	7269.70
467.32	7253.32
467.51	7651.21
467.69	7229.91
467.87	7496.74
468.05	7478.01
468.23	7307.15
468.41	7246.30
468.60	7365.67
468.78	7503.76
468.96	7386.73
469.14	7588.02
469.32	7660.57
469.50	7445.24
469.69	7698.02
469.87	7665.25
470.05	7803.35
470.23	7613.76
470.41	7850.16
470.59	8042.08
470.77	7611.42
470.95	7892.29
471.14	7908.67
471.32	7838.45
471.50	8037.40
471.68	8100.59
471.86	8086.55
472.04	7911.01
472.22	8201.24
472.40	8039.74
472.58	8425.93
472.77	7990.59
472.95	8400.18
473.13	8648.28
473.31	8283.16
473.49	8336.99
473.67	8439.97
473.85	8369.76
474.03	8596.79
474.21	8386.14
474.39	8638.92
474.57	8641.26
474.75	8903.40
474.93	8889.35
475.12	8772.33
475.30	8819.14
475.48	8762.97
475.66	8861.27
475.84	8973.61
476.02	9013.40
476.20	9158.52
476.38	9277.88
476.56	9516.62
476.74	9490.87
476.92	9231.07
477.10	9540.02
477.28	9617.26
477.46	9474.49
477.64	9481.51
477.82	9659.39
478.00	9914.51
478.18	9804.50
478.36	10090.05
478.54	10101.75
478.72	10162.61
478.90	10244.52
479.08	10445.81
479.26	10387.30
479.44	10281.97
479.62	10729.02
479.80	10548.79
479.98	10817.96
480.16	10729.02
480.34	10588.58
480.52	11037.97
480.70	11007.54
480.88	10972.43
481.06	11030.94
481.24	10920.94
481.41	11246.27
481.59	11201.80
481.77	11599.70
481.95	11375.00
482.13	11644.17
482.31	11580.97
482.49	11871.20
482.67	11889.92
482.85	12170.79
483.03	12121.63
483.21	12264.41
483.39	12388.46
483.57	12512.50
483.74	12301.86
483.92	12596.76
484.10	12615.49
484.28	12753.58
484.46	12999.34
484.64	12835.50
484.82	12947.84
485.00	12898.69
485.18	13280.20
485.35	13486.17
485.53	13612.56
485.71	13678.09
485.89	13940.23
486.07	13701.50
486.25	13944.91
486.43	13654.69
486.61	13973.00
486.78	14328.76
486.96	14396.64
487.14	14314.72
487.32	14492.60
487.50	14733.67
487.68	14834.32
487.85	15122.20
488.03	15161.99
488.21	15255.61
488.39	15314.13
488.57	15379.66
488.75	15433.49
488.92	15712.02
489.10	15740.10
489.28	15822.02
489.46	15917.98
489.64	15995.22
489.81	16404.81
489.99	15817.34
490.17	16259.70
490.35	16634.19
490.53	16503.12
490.70	16561.63
490.88	16645.89
491.06	16931.44
491.24	16716.11
491.41	17062.51
491.59	17284.86
491.77	17116.34
491.95	17385.50
492.13	17572.74
492.30	17834.88
492.48	17528.27
492.66	17872.33
492.84	17626.57
493.01	18040.85
493.19	18008.08
493.37	18471.51
493.54	18382.57
493.72	18602.58
493.90	18616.62
494.08	18782.80
494.25	18831.95
494.43	18909.19
494.61	18939.62
494.79	18972.38
494.96	19236.86
495.14	18897.49
495.32	19131.54
495.49	19662.84
495.67	19447.51
495.85	19747.10
496.02	19932.00
496.20	20084.14
496.38	20030.30
496.55	20056.05
496.73	20280.74
496.91	20566.29
497.09	20765.23
497.26	20713.74
497.44	20533.52
497.62	20709.06
497.79	21067.16
497.97	20936.09
498.14	20886.94
498.32	21261.43
498.50	21387.82
498.67	21558.67
498.85	21284.83
499.03	21495.48
499.20	21345.69
499.38	21460.37
499.56	21771.66
499.73	21738.90
499.91	22026.78
500.08	22036.14
500.26	22104.02
500.44	22080.61
500.61	22302.96
500.79	22263.18
500.97	22342.75
501.14	22742.99
501.32	22675.11
501.49	22698.52
501.67	22574.47
501.84	22771.07
502.02	22710.22
502.20	23103.43
502.37	23080.02
502.55	23250.88
502.72	23344.50
502.90	23555.15
503.07	23138.54
503.25	23386.63
503.43	23548.13
503.60	23456.85
503.78	23758.78
503.95	23786.86
504.13	23903.89
504.30	24156.67
504.48	23742.39
504.65	24126.24
504.83	24226.89
505.01	24159.01
505.18	24503.07
505.36	24542.86
505.53	24512.43
505.71	24659.88
505.88	24727.76
506.06	24280.72
506.23	24627.12
506.41	24924.36
506.58	25041.39
506.76	24924.36
506.93	25104.59
507.11	24945.43
507.28	25179.48
507.46	25392.47
507.63	25324.60
507.81	25617.16
507.98	24999.26
508.16	25436.94
508.33	25621.84
508.50	25741.21
508.68	25633.55
508.85	26155.49
509.03	26022.08
509.20	26125.06
509.38	26092.29
509.55	26338.05
509.73	26534.65
509.90	26391.88
510.08	26092.29
510.25	26717.22
510.42	26864.67
510.60	26721.90
510.77	27002.76
510.95	27030.85
511.12	26757.00
511.30	26906.80
511.47	27215.75
511.64	27030.85
511.82	27447.46
511.99	27117.45
512.17	27489.59
512.34	27470.87
512.51	27669.81
512.69	27424.06
512.86	27655.77
513.04	28290.06
513.21	27552.79
513.38	27999.83
513.56	28119.20
513.73	28023.23
513.90	27927.27
514.08	27725.99
514.25	28208.14
514.43	28591.98
514.60	28498.36
514.77	28383.68
514.95	28765.18
515.12	28659.86
515.29	28821.36
515.47	29020.30
515.64	29228.61
515.81	28947.75
515.99	29062.43
516.16	29427.56
516.33	29055.41
516.51	29390.11
516.68	29177.12
516.85	29280.10
517.03	29715.44
517.20	29511.81
517.37	29635.86
517.54	30061.84
517.72	30019.71
517.89	29790.34
518.06	29474.37
518.24	29771.61
518.41	29771.61
518.58	30052.48
518.75	30026.73
518.93	29802.04
519.10	30705.49
519.27	30499.52
519.45	30134.40
519.62	30281.85
519.79	30363.77
519.96	30366.11
520.14	30441.01
520.31	30756.98
520.48	31007.42
520.65	30403.56
520.83	30913.80
521.00	30644.63
521.17	31030.82
521.34	30958.27
521.52	31089.34
521.69	30588.46
521.86	31129.12
522.03	31524.68
522.20	31686.17
522.38	31173.60
522.55	31239.13
522.72	31606.59
522.89	31660.43
523.07	32219.81
523.24	31842.99
523.41	31936.61
523.58	31744.69
523.75	31702.56
523.92	31763.41
524.10	31782.13
524.27	31960.02
524.44	31941.29
524.61	32479.61
524.78	32304.07
524.96	32505.36
525.13	32173.00
525.30	32512.38
525.47	32545.15
525.64	32486.64
525.81	32914.95
525.98	32849.42
526.16	33102.20
526.33	32554.51
526.50	32952.40
526.67	32561.53
526.84	33139.65
527.01	33041.34
527.18	32952.40
527.36	33067.09
527.53	33574.98
527.70	33551.58
527.87	33722.44
528.04	33127.94
528.21	33539.88
528.38	33642.86
528.55	33628.82
528.72	33516.47
528.89	33926.07
529.07	33895.64
529.24	33617.11
529.41	33914.36
529.58	34059.48
529.75	33748.18
529.92	33900.32
530.09	34199.91
530.26	33862.87
530.43	34380.13
530.60	34356.72
530.77	34223.31
530.94	34452.69
531.11	34134.37
531.28	33933.09
531.46	34398.85
531.63	34244.38
531.80	34244.38
531.97	34712.49
532.14	34747.59
532.31	34618.86
532.48	34801.43
532.65	35290.60
532.82	34731.21
532.99	34993.35
533.16	34443.32
533.33	35007.39
533.50	35386.56
533.67	35454.44
533.84	35222.72
534.01	35079.95
534.18	34934.84
534.35	35304.64
534.52	35206.34
534.69	35622.95
534.86	35929.56
535.03	35414.65
535.20	35302.30
535.37	35412.31
535.54	35842.96
535.71	35342.09
535.88	35754.02
536.05	35775.09
536.22	35599.55
536.38	35889.77
536.55	36364.90
536.72	35990.42
536.89	35775.09
537.06	36123.83
537.23	36390.65
537.40	35842.96
537.57	36355.54
537.74	36517.04
537.91	36449.16
538.08	36371.92
538.25	36414.05
538.42	36374.27
538.59	36800.24
538.75	36245.54
538.92	36568.53
539.09	36795.56
539.26	36833.01
539.43	36678.54
539.60	37144.30
539.77	37181.75
539.94	36807.26
540.11	37104.51
540.28	36987.49
540.44	37347.93
540.61	37287.07
540.78	37315.16
540.95	37661.56
541.12	37450.91
541.29	37479.00
541.46	37394.74
541.62	37539.85
541.79	37799.65
541.96	37471.98
542.13	37703.69
542.30	37759.86
542.47	38225.63
542.63	38136.69
542.80	37806.67
542.97	38099.24
543.14	38335.63
543.31	38220.95
543.48	38192.86
543.64	38511.17
543.81	38534.58
543.98	38560.33
544.15	38623.52
544.32	38813.10
544.48	39086.95
544.65	38497.13
544.82	38234.99
544.99	38089.88
545.16	38838.85
545.32	38747.57
545.49	39262.49
545.66	39903.79
545.83	39285.89
546.00	39754.00
546.16	39084.61
546.33	39377.17
546.50	38607.14
546.67	38981.62
546.83	38202.22
547.00	38937.15
547.17	38974.60
547.34	38815.44
547.50	38590.75
547.67	39337.38
547.84	39028.43
548.00	39316.32
548.17	39136.10
548.34	39133.76
548.51	39393.56
548.67	39501.22
548.84	39555.05
549.01	39269.51
549.18	39714.21
549.34	39599.52
549.51	39208.65
549.68	39428.66
549.84	39215.68
550.01	39653.36
550.18	39386.54
550.34	39576.12
550.51	39725.91
550.68	39316.32
550.84	38995.67
551.01	39833.58
551.18	39714.21
551.34	39000.35
551.51	39903.79
551.68	39847.62
551.84	39941.24
552.01	39676.76
552.18	40231.47
552.34	39814.85
552.51	40079.33
552.68	39831.24
552.84	39889.75
553.01	39899.11
553.18	39889.75
553.34	40376.58
553.51	40098.06
553.67	40236.15
553.84	40582.55
554.01	40725.32
554.17	40463.18
554.34	40137.85
554.51	40390.62
554.67	40423.39
554.84	40320.41
555.00	40177.64
555.17	40362.54
555.33	40528.72
555.50	40343.81
555.67	40187.00
555.83	41076.40
556.00	40559.14
556.16	41060.02
556.33	40481.91
556.50	40797.88
556.66	40809.58
556.83	40889.16
556.99	41172.36
557.16	40961.72
557.32	40800.22
557.49	40760.43
557.65	40701.92
557.82	40884.48
557.98	40615.32
558.15	40779.15
558.32	40938.31
558.48	40666.81
558.65	41181.73
558.81	40957.03
558.98	41158.32
559.14	41242.58
559.31	40781.49
559.47	40711.28
559.64	41043.63
559.80	41406.42
559.97	41560.89
560.13	41144.28
560.30	41577.28
560.46	41357.27
560.63	41352.58
560.79	41848.78
560.96	41254.28
561.12	41359.61
561.29	41455.57
561.45	41549.19
561.61	41525.78
561.78	41502.38
561.94	41460.25
562.11	41181.73
562.27	41991.55
562.44	41448.55
562.60	41530.47
562.77	41581.96
562.93	41397.06
563.10	41666.22
563.26	41265.99
563.42	41741.11
563.59	42384.76
563.75	41799.63
563.92	42024.32
564.08	41504.72
564.24	41617.07
564.41	41525.78
564.57	42057.09
564.74	41851.12
564.90	41390.03
565.07	41759.84
565.23	41914.31
565.39	41942.40
565.56	41993.89
565.72	41883.89
565.88	41628.77
566.05	41904.95
566.21	41673.24
566.38	41659.20
566.54	41464.93
566.70	42195.18
566.87	42323.91
567.03	42113.26
567.19	42677.33
567.36	41935.38
567.52	41645.15
567.68	41914.31
567.85	41909.63
568.01	41713.03
568.17	42272.42
568.34	42403.49
568.50	41970.49
568.66	42089.85
568.83	42878.61
568.99	41897.93
569.15	42614.13
569.32	41923.68
569.48	41872.18
569.64	42019.64
569.81	42019.64
569.97	41546.85
570.13	42298.16
570.30	42204.54
570.46	42394.12
570.62	41886.23
570.78	42136.66
570.95	41846.44
571.11	42426.89
571.27	42127.30
571.43	42071.13
571.60	42017.30
571.76	42298.16
571.92	42663.28
572.09	42560.30
572.25	42424.55
572.41	42174.11
572.57	42541.58
572.74	42426.89
572.90	42160.07
573.06	42143.69
573.22	42625.84
573.38	42295.82
573.55	42359.02
573.71	43005.00
573.87	42478.38
574.03	42536.90
574.20	42738.18
574.36	42139.00
574.52	42485.40
574.68	41979.85
574.84	42497.11
575.01	42567.32
575.17	42382.42
575.33	42342.63
575.49	42768.61
575.65	42557.96
575.82	42761.59
575.98	42433.91
576.14	43189.91
576.30	42232.63
576.46	42494.77
576.62	42389.44
576.79	42806.06
576.95	42391.78
577.11	42691.37
577.27	42469.02
577.43	42735.84
577.59	42958.19
577.75	43093.94
577.92	42766.27
578.08	42293.48
578.24	42141.35
578.40	42487.74
578.56	42611.79
578.72	42815.42
578.88	43267.14
579.04	42937.13
579.21	43133.73
579.37	43084.58
579.53	42937.13
579.69	42597.75
579.85	43147.78
580.01	42454.98
580.17	42438.59
580.33	42667.97
580.49	42967.55
580.65	43215.65
580.82	42700.73
580.98	42801.38
581.14	43016.71
581.30	42719.46
581.46	42609.45
581.62	42934.79
581.78	42480.72
581.94	42562.64
582.10	42667.97
582.26	42792.01
582.42	42932.45
582.58	42944.15
582.74	43138.41
582.90	43014.37
583.06	43096.28
583.22	42651.58
583.38	43297.57
583.54	42852.87
583.70	43138.41
583.86	42895.00
584.02	42740.52
584.18	42944.15
584.34	43257.78
584.50	43185.22
584.66	42780.31
584.82	42834.14
584.98	42988.62
585.14	43005.00
585.30	42721.80
585.46	42934.79
585.62	42485.40
585.78	42536.90
585.94	42792.01
586.10	43072.88
586.26	43241.40
586.42	43414.60
586.58	43388.85
586.74	42824.78
586.90	43131.39
587.06	42796.70
587.22	43447.36
587.38	42789.67
587.54	43318.64
587.70	43377.15
587.86	42981.60
588.02	42895.00
588.18	43447.36
588.34	43164.16
588.49	43253.10
588.65	42660.94
588.81	42857.55
588.97	43363.11
589.13	43138.41
589.29	43309.27
589.45	43210.97
589.61	43346.72
589.77	43159.48
589.93	43241.40
590.08	43449.70
590.24	43768.02
590.40	43569.07
590.56	43676.74
590.72	43730.57
590.88	43082.24
591.04	43620.56
591.20	43643.97
591.35	43222.67
591.51	43807.81
591.67	43803.13
591.83	43744.61
591.99	42902.02
592.15	43107.99
592.31	43555.03
592.46	43129.05
592.62	43311.61
592.78	43267.14
592.94	43746.95
593.10	43115.01
593.26	43519.92
593.41	44058.24
593.57	43978.67
593.73	43487.15
593.89	43714.19
594.05	43573.75
594.20	43033.09
594.36	42993.30
594.52	43271.82
594.68	42925.42
594.84	42932.45
594.99	43590.14
595.15	43281.19
595.31	43751.63
595.47	43880.36
595.62	44013.77
595.78	44062.93
595.94	43559.71
596.10	43438.00
596.25	43236.72
596.41	43098.62
596.57	43372.47
596.73	43452.05
596.88	43196.93
597.04	43688.44
597.20	43913.13
597.36	43409.92
597.51	44062.93
597.67	43775.04
597.83	43349.06
597.99	43793.76
598.14	43276.51
598.30	43489.49
598.46	43793.76
598.61	44231.44
598.77	43658.01
598.93	43765.68
599.09	43854.62
599.24	44032.50
599.40	43641.63
599.56	43988.03
599.71	43674.40
599.87	43711.84
600.03	43217.99
600.18	43470.77
600.34	43725.89
600.50	43931.86
600.65	43426.30
600.81	43601.84
600.97	43700.14
601.12	44306.34
601.28	44208.04
601.44	43510.56
601.59	43683.76
601.75	43702.48
601.91	43889.73
602.06	43138.41
602.22	43765.68
602.37	43627.59
602.53	43803.13
602.69	43503.54
602.84	43714.19
603.00	43756.32
603.16	44147.18
603.31	43388.85
603.47	43934.20
603.62	43388.85
603.78	43365.45
603.94	43606.52
604.09	43627.59
604.25	43435.66
604.40	43604.18
604.56	43878.02
604.71	43555.03
604.87	43449.70
605.03	43934.20
605.18	43871.00
605.34	43608.86
605.49	43122.03
605.65	43580.78
605.80	43391.19
605.96	43412.26
606.12	43662.69
606.27	43730.57
606.43	43456.73
606.58	43810.15
606.74	43739.93
606.89	43349.06
607.05	43681.42
607.20	43768.02
607.36	43447.36
607.51	43992.71
607.67	43573.75
607.82	43559.71
607.98	43126.71
608.13	42995.64
608.29	43634.61
608.44	43639.29
608.60	43459.07
608.75	44055.90
608.91	43445.02
609.06	43655.67
609.22	44034.84
609.37	43283.53
609.53	43323.32
609.68	43243.74
609.84	43262.46
609.99	43201.61
610.15	43241.40
610.30	43517.58
610.46	43866.32
610.61	43728.23
610.76	44315.70
610.92	44013.77
611.07	44364.85
611.23	44062.93
611.38	44011.43
611.54	43426.30
611.69	43344.38
611.84	43374.81
612.00	43714.19
612.15	43262.46
612.31	43735.25
612.46	42979.26
612.62	43604.18
612.77	43599.50
612.92	43597.16
613.08	43557.37
613.23	43601.84
613.39	43264.80
613.54	43021.39
613.69	42838.83
613.85	42827.12
614.00	43030.75
614.15	43374.81
614.31	42824.78
614.46	43344.38
614.62	42955.85
614.77	42609.45
614.92	43447.36
615.08	43194.59
615.23	43021.39
615.38	42602.43
615.54	42862.23
615.69	42384.76
615.84	42618.81
616.00	42876.27
616.15	42279.44
616.30	42539.24
616.46	42630.52
616.61	42377.74
616.76	42543.92
616.92	42939.47
617.07	43164.16
617.22	42457.32
617.37	42003.25
617.53	42569.66
617.68	42794.36
617.83	42623.50
617.99	42305.18
618.14	42574.34
618.29	42550.94
618.45	42492.43
618.60	42529.87
618.75	42279.44
618.90	42010.28
619.06	42366.04
619.21	42143.69
619.36	42057.09
619.51	41958.78
619.67	41900.27
619.82	41186.41
619.97	41865.16
620.12	42597.75
620.28	42216.24
620.43	42440.93
620.58	42595.41
620.73	42050.06
620.89	42546.26
621.04	42836.48
621.19	42368.38
621.34	42169.43
621.49	41801.97
621.65	42337.95
621.80	41888.57
621.95	42169.43
622.10	41979.85
622.25	41720.05
622.41	41670.90
622.56	41977.51
622.71	42251.35
622.86	42366.04
623.01	42036.02
623.16	41785.58
623.32	41670.90
623.47	41153.64
623.62	41619.41
623.77	41591.32
623.92	41872.18
624.07	41715.37
624.23	41921.34
624.38	41200.45
624.53	41745.80
624.68	41867.50
624.83	41816.01
624.98	41858.14
625.13	41471.95
625.29	41764.52
625.44	41663.88
625.59	41617.07
625.74	41261.30
625.89	41291.73
626.04	41397.06
626.19	41347.90
626.34	41045.97
626.49	40935.97
626.65	41469.61
626.80	41223.86
626.95	41024.91
627.10	41261.30
627.25	41558.55
627.40	41099.81
627.55	41193.43
627.70	40786.18
627.85	41223.86
628.00	40828.30
628.15	41340.88
628.30	40835.33
628.45	40959.38
628.60	40816.60
628.76	41235.56
628.91	41387.69
629.06	41315.14
629.21	41364.29
629.36	40706.60
629.51	40507.65
629.66	40884.48
629.81	40519.35
629.96	40587.23
630.11	40292.32
630.26	40772.13
630.41	40779.15
630.56	40215.08
630.71	40755.75
630.86	40535.74
631.01	40575.53
631.16	40781.49
631.31	40528.72
631.46	40334.45
631.61	40718.30
631.76	40540.42
631.91	40355.52
632.06	40893.84
632.21	40264.24
632.36	40381.26
632.51	40055.93
632.66	40512.33
632.81	40217.43
632.96	40023.16
633.10	40163.59
633.25	40753.41
633.40	39962.31
633.55	40334.45
633.70	40133.17
633.85	39959.97
634.00	39849.96
634.15	39899.11
634.30	40311.05
634.45	39746.98
634.60	39864.00
634.75	39910.82
634.90	40027.84
635.05	39931.88
635.19	39503.56
635.34	39864.00
635.49	39990.39
635.64	40287.64
635.79	39723.57
635.94	39793.79
636.09	39480.16
636.24	39578.46
636.39	39962.31
636.53	40098.06
636.68	39655.70
636.83	39639.31
636.98	39735.27
637.13	39679.10
637.28	39929.54
637.43	39798.47
637.57	39573.78
637.72	39475.48
637.87	39264.83
638.02	39770.38
638.17	39456.75
638.32	39248.44
638.46	39510.58
638.61	39342.06
638.76	39110.35
638.91	38944.17
639.06	39356.11
639.20	39409.94
639.35	39164.18
639.50	39246.10
639.65	39473.13
639.80	39098.65
639.94	39253.12
640.09	38930.13
640.24	38855.23
640.39	39131.42
640.54	38494.79
640.68	38595.43
640.83	38775.66
640.98	38443.30
641.13	38763.95
641.27	38520.54
641.42	38560.33
641.57	38834.17
641.72	39541.01
641.86	38960.56
642.01	38960.56
642.16	39016.73
642.31	38810.76
642.45	38944.17
642.60	38272.44
642.75	38312.23
642.90	38665.65
643.04	38443.30
643.19	38438.62
643.34	39037.80
643.48	38705.44
643.63	38754.59
643.78	38504.15
643.93	38607.14
644.07	39030.77
644.22	38518.20
644.37	38775.66
644.51	38721.82
644.66	38143.71
644.81	37785.61
644.95	38265.42
645.10	38345.00
645.25	38335.63
645.39	37872.21
645.54	38555.64
645.69	38281.80
645.83	38518.20
645.98	38426.92
646.13	38581.39
646.27	38466.70
646.42	37965.83
646.57	37696.67
646.71	38099.24
646.86	38132.01
647.00	38059.45
647.15	37612.41
647.30	37617.09
647.44	37893.27
647.59	38036.05
647.74	37825.40
647.88	38279.46
648.03	37759.86
648.17	38239.67
648.32	37851.14
648.47	37921.36
648.61	37708.37
648.76	38029.02
648.90	38115.62
649.05	37979.87
649.20	37743.48
649.34	37743.48
649.49	37338.57
649.63	37668.58
649.78	37633.47
649.92	37570.28
650.07	37832.42
650.21	37727.10
650.36	37656.88
650.51	37645.18
650.65	38155.41
650.80	37551.56
650.94	37806.67
651.09	37886.25
651.23	37214.52
651.38	37518.79
651.52	37237.92
651.67	37626.45
651.81	37544.53
651.96	37488.36
652.10	37352.61
652.25	37680.28
652.39	37715.39
652.54	36940.68
652.68	37436.87
652.83	37436.87
652.97	37254.31
653.12	37371.33
653.26	37074.09
653.41	36559.17
653.55	36671.51
653.70	36973.44
653.84	36926.63
653.99	36898.55
654.13	37249.63
654.27	37209.84
654.42	36847.05
654.56	37041.32
654.71	37111.53
654.85	36701.94
655.00	36818.97
655.14	37226.22
655.29	37020.25
655.43	36685.56
655.57	36367.24
655.72	36613.00
655.86	37233.24
656.01	36409.37
656.15	36519.38
656.30	36194.04
656.44	36105.10
656.58	36505.34
656.73	36172.98
656.87	36250.22
657.01	36669.17
657.16	37158.34
657.30	36952.38
657.45	36889.18
657.59	36044.25
657.73	36367.24
657.88	36245.54
658.02	36442.14
658.16	36320.43
658.31	36247.88
658.45	36350.86
658.60	36175.32
658.74	36428.10
658.88	36030.21
659.03	35962.33
659.17	36180.00
659.31	36194.04
659.46	36180.00
659.60	36023.19
659.74	36013.82
659.89	35566.78
660.03	36273.62
660.17	36378.95
660.32	35875.73
660.46	35608.91
660.60	36067.66
660.74	35887.43
660.89	35690.83
661.03	35529.33
661.17	35473.16
661.32	35180.59
661.46	35880.41
661.60	35803.17
661.74	35653.38
661.89	35564.44
662.03	35468.48
662.17	35143.14
662.31	35339.75
662.46	35522.31
662.60	34986.33
662.74	34937.18
662.88	34803.77
663.03	34955.90
663.17	34778.02
663.31	34410.56
663.45	35199.32
663.60	35159.53
663.74	34857.60
663.88	34820.15
664.02	34857.60
664.17	34946.54
664.31	34822.49
664.45	34944.20
664.59	34866.96
664.73	34733.55
664.88	34513.54
665.02	34359.06
665.16	34595.46
665.30	34115.65
665.44	33694.35
665.59	33986.92
665.73	34242.04
665.87	34548.65
666.01	34064.16
666.15	34204.59
666.29	34064.16
666.44	34789.72
666.58	34576.73
666.72	34106.29
666.86	34213.95
667.00	33853.51
667.14	33818.40
667.28	33539.88
667.43	33511.79
667.57	33961.17
667.71	33617.11
667.85	33935.43
667.99	33441.57
668.13	33336.25
668.27	33251.99
668.41	33617.11
668.56	33549.24
668.70	33717.76
668.84	33443.91
668.98	33315.19
669.12	33577.33
669.26	33099.86
669.40	33544.56
669.54	32938.36
669.68	33078.79
669.82	33062.41
669.96	32739.41
670.10	32559.19
670.25	32886.87
670.39	32521.74
670.53	32304.07
670.67	32629.41
670.81	32463.23
670.95	32510.04
671.09	32205.77
671.23	32868.14
671.37	32463.23
671.51	32554.51
671.65	32229.18
671.79	32184.71
671.93	32598.98
672.07	32512.38
672.21	32348.54
672.35	31796.18
672.49	31807.88
672.63	32053.64
672.77	31742.35
672.91	31835.97
673.05	31782.13
673.19	31943.63
673.33	31852.35
673.47	31524.68
673.61	31985.76
673.75	31550.42
673.89	31615.96
674.03	31187.64
674.17	31189.98
674.31	31367.86
674.45	31344.45
674.59	31417.01
674.73	31037.84
674.87	31292.96
675.01	30913.80
675.15	30822.51
675.29	31105.72
675.43	30733.57
675.56	30843.58
675.70	30888.05
675.84	31005.08
675.98	29881.62
676.12	30771.02
676.26	30628.25
676.40	30246.74
676.54	30099.29
676.68	30279.51
676.82	29228.61
676.96	29926.09
677.10	29539.90
677.23	29544.58
677.37	29352.66
677.51	29544.58
677.65	29792.68
677.79	29134.99
677.93	29392.45
678.07	29661.61
678.21	29046.05
678.34	29149.03
678.48	29113.92
678.62	28833.06
678.76	28772.21
678.90	28751.14
679.04	28355.59
679.18	28744.12
679.31	28465.60
679.45	28273.67
679.59	28371.97
679.73	28458.57
679.87	28074.73
680.00	28030.26
680.14	28276.01
680.28	28189.41
680.42	27576.19
680.56	27990.47
680.70	27943.66
680.83	27576.19
680.97	27445.12
681.11	27756.41
681.25	27564.49
681.39	27524.70
681.52	27515.34
681.66	27087.02
681.80	27248.52
681.94	26852.97
682.07	26955.95
682.21	26714.87
682.35	27005.10
682.49	26712.53
682.62	26799.13
682.76	26937.23
682.90	26712.53
683.04	26675.09
683.17	26745.30
683.31	26560.40
683.45	26647.00
683.59	26647.00
683.72	26256.13
683.86	26548.70
684.00	26122.72
684.13	26141.44
684.27	26092.29
684.41	25907.39
684.55	25586.74
684.68	25563.33
684.82	25184.16
684.96	25172.46
685.09	25069.48
685.23	25039.05
685.37	24872.87
685.50	25125.65
685.64	25216.93
685.78	25125.65
685.91	25254.38
686.05	25130.33
686.19	24957.13
686.32	24575.62
686.46	24505.41
686.60	24549.88
686.73	24769.89
686.87	24261.99
687.01	24334.55
687.14	24088.79
687.28	24208.16
687.42	24070.07
687.55	24056.03
687.69	23798.57
687.82	23676.86
687.96	23803.25
688.10	23559.83
688.23	23756.44
688.37	23922.62
688.50	23524.72
688.64	23339.82
688.78	23328.12
688.91	23110.45
689.05	23159.60
689.18	23075.34
689.32	22644.68
689.46	22916.19
689.59	22754.69
689.73	22682.13
689.86	22525.32
690.00	22696.17
690.13	23023.85
690.27	22448.08
690.41	22321.69
690.54	22176.58
690.68	22022.10
690.81	22574.47
690.95	22064.23
691.08	21947.20
691.22	21905.07
691.35	21720.17
691.49	22281.90
691.62	21769.32
691.76	21813.79
691.89	21343.35
692.03	21305.90
692.16	21394.84
692.30	21160.78
692.43	21649.96
692.57	21043.76
692.70	20945.45
692.84	21034.39
692.97	20657.57
693.11	21249.72
693.24	21060.14
693.38	20954.82
693.51	20819.07
693.65	20837.79
693.78	20599.05
693.92	20456.28
694.05	20304.15
694.19	20409.47
694.32	20004.56
694.45	19985.83
694.59	20194.14
694.72	19992.86
694.86	19807.95
694.99	19728.38
695.13	19777.53
695.26	20135.63
695.39	19594.96
695.53	19503.68
695.66	19314.10
695.80	19407.72
695.93	19262.61
696.07	19300.06
696.20	19585.60
696.33	19159.63
696.47	18963.02
696.60	19161.97
696.73	18803.86
696.87	18733.65
697.00	18661.09
697.14	18562.79
697.27	18352.14
697.40	18534.70
697.54	17996.38
697.67	18059.57
697.80	18239.79
697.94	17860.63
698.07	18031.49
698.21	18008.08
698.34	18204.69
698.47	18197.67
698.61	17902.76
698.74	17825.52
698.87	17944.89
699.01	17572.74
699.14	17516.57
699.27	17228.68
699.40	17610.19
699.54	17053.14
699.67	16959.52
699.80	16893.99
699.94	16999.31
700.07	17034.42
700.20	16840.15
700.34	16793.34
700.47	16711.42
700.60	16568.65
700.73	16805.05
700.87	17003.99
701.00	16772.28
701.13	16493.76
701.26	16322.90
701.40	16381.41
701.53	16315.87
701.66	16409.50
701.79	16250.34
701.93	16091.18
702.06	15845.43
702.19	15950.75
702.32	16130.97
702.46	15777.55
702.59	15501.37
702.72	15571.58
702.85	15747.12
702.99	15875.85
703.12	15524.77
703.25	15798.62
703.38	15257.95
703.51	15389.02
703.65	15466.26
703.78	15051.99
703.91	14813.25
704.04	15115.18
704.17	15171.35
704.31	15103.48
704.44	14897.51
704.57	14956.02
704.70	14427.06
704.83	14431.74
704.96	14260.88
705.10	14586.22
705.23	14204.71
>>>>>End Processed Spectral Data<<<<<
