SpectraSuite Data File
++++++++++++++++++++++++++++++++++++
Date: Tue Oct 01 18:27:25 GMT-05:00 2013
User: stostad
Dark Spectrum Present: No
Reference Spectrum Present: No
Number of Sampled Component Spectra: 1
Spectrometers: USB2+H05261
Integration Time (usec): 100000 (USB2+H05261)
Spectra Averaged: 1 (USB2+H05261)
Boxcar Smoothing: 0 (USB2+H05261)
Correct for Electrical Dark: No (USB2+H05261)
Strobe/Lamp Enabled: No (USB2+H05261)
Correct for Detector Non-linearity: No (USB2+H05261)
Correct for Stray Light: No (USB2+H05261)
Number of Pixels in Processed Spectrum: 2048
>>>>>Begin Processed Spectral Data<<<<<
365.73	93.62
365.92	93.62
366.12	93.62
366.32	0.00
366.52	0.00
366.72	0.00
366.91	0.00
367.11	0.00
367.31	0.00
367.51	0.00
367.70	28.09
367.90	0.00
368.10	0.00
368.30	0.00
368.49	0.00
368.69	39.79
368.89	0.00
369.09	0.00
369.28	0.00
369.48	0.00
369.68	0.00
369.87	46.81
370.07	0.00
370.27	131.07
370.47	243.42
370.66	231.71
370.86	294.91
371.06	330.02
371.25	358.10
371.45	224.69
371.65	360.44
371.84	334.70
372.04	306.61
372.24	346.40
372.44	315.97
372.63	388.53
372.83	414.27
373.03	395.55
373.22	454.06
373.42	379.17
373.62	390.87
373.81	461.09
374.01	456.40
374.21	444.70
374.40	409.59
374.60	477.47
374.79	472.79
374.99	430.66
375.19	465.77
375.38	447.04
375.58	451.72
375.78	524.28
375.97	442.36
376.17	589.82
376.37	482.15
376.56	524.28
376.76	374.49
376.95	440.02
377.15	517.26
377.35	475.13
377.54	528.96
377.74	442.36
377.93	491.51
378.13	510.24
378.33	533.64
378.52	528.96
378.72	505.56
378.91	484.49
379.11	472.79
379.31	479.81
379.50	496.19
379.70	575.77
379.89	538.32
380.09	533.64
380.28	543.00
380.48	580.45
380.68	444.70
380.87	564.07
381.07	573.43
381.26	557.05
381.46	575.77
381.65	589.82
381.85	566.41
382.04	648.33
382.24	599.18
382.43	528.96
382.63	543.00
382.83	538.32
383.02	554.71
383.22	648.33
383.41	545.34
383.61	643.65
383.80	610.88
384.00	622.58
384.19	648.33
384.39	559.39
384.58	641.31
384.78	573.43
384.97	622.58
385.17	596.84
385.36	585.13
385.56	643.65
385.75	587.47
385.95	608.54
386.14	575.77
386.34	727.91
386.53	723.23
386.72	543.00
386.92	643.65
387.11	734.93
387.31	657.69
387.50	706.84
387.70	685.78
387.89	617.90
388.09	662.37
388.28	657.69
388.48	723.23
388.67	784.08
388.86	704.50
389.06	645.99
389.25	711.52
389.45	711.52
389.64	732.59
389.84	793.44
390.03	791.10
390.22	786.42
390.42	884.72
390.61	812.17
390.81	767.70
391.00	809.83
391.19	793.44
391.39	891.74
391.58	758.33
391.78	795.78
391.97	805.14
392.16	858.98
392.36	887.06
392.55	826.21
392.75	858.98
392.94	919.83
393.13	842.59
393.33	809.83
393.52	901.11
393.71	964.30
393.91	964.30
394.10	884.72
394.29	851.96
394.49	950.26
394.68	952.60
394.88	910.47
395.07	908.13
395.26	950.26
395.46	1041.54
395.65	1046.22
395.84	961.96
396.04	1025.15
396.23	1034.52
396.42	1011.11
396.62	1011.11
396.81	1153.88
397.00	1041.54
397.19	1074.31
397.39	1043.88
397.58	1107.07
397.77	1018.13
397.97	1039.20
398.16	1109.41
398.35	1081.33
398.55	1076.65
398.74	1104.73
398.93	1210.06
399.12	1256.87
399.32	1088.35
399.51	1135.16
399.70	1100.05
399.90	1109.41
400.09	1191.33
400.28	1263.89
400.47	1235.80
400.67	1233.46
400.86	1181.97
401.05	1181.97
401.24	1226.44
401.44	1284.95
401.63	1310.70
401.82	1310.70
402.01	1296.66
402.21	1338.79
402.40	1378.58
402.59	1327.08
402.78	1317.72
402.97	1371.55
403.17	1355.17
403.36	1341.13
403.55	1425.39
403.74	1497.94
403.93	1474.54
404.13	1533.05
404.32	1502.62
404.51	1490.92
404.70	1624.33
404.89	1551.78
405.09	1610.29
405.28	1626.67
405.47	1570.50
405.66	1563.48
405.85	1586.88
406.05	1488.58
406.24	1624.33
406.43	1657.10
406.62	1645.40
406.81	1643.06
407.00	1673.48
407.20	1643.06
407.39	1743.70
407.58	1757.74
407.77	1867.75
407.96	1823.28
408.15	1907.54
408.34	1710.93
408.54	1818.60
408.73	1811.57
408.92	1863.07
409.11	1912.22
409.30	1858.39
409.49	1867.75
409.68	1963.71
409.87	1959.03
410.07	2001.16
410.26	2047.97
410.45	2064.35
410.64	2047.97
410.83	2127.55
411.02	2122.87
411.21	2127.55
411.40	2122.87
411.59	2176.70
411.78	2214.15
411.98	2129.89
412.17	2253.94
412.36	2160.31
412.55	2284.36
412.74	2445.86
412.93	2244.57
413.12	2253.94
413.31	2607.36
413.50	2429.48
413.69	2448.20
413.88	2480.97
414.07	2509.05
414.26	2457.56
414.45	2506.71
414.64	2537.14
414.83	2663.53
415.02	2661.19
415.22	2740.77
415.41	2647.15
415.60	2719.70
415.79	2719.70
415.98	2808.64
416.17	2705.66
416.36	2761.83
416.55	2874.18
416.74	2785.24
416.93	2836.73
417.12	2808.64
417.31	2775.88
417.50	2904.60
417.69	2946.73
417.88	2937.37
418.07	2862.48
418.26	2970.14
418.45	2963.12
418.64	3136.32
418.83	3112.91
419.02	3171.43
419.21	3169.09
419.39	3304.84
419.58	3080.14
419.77	3035.67
419.96	3080.14
420.15	3300.16
420.34	3269.73
420.53	3281.43
420.72	3311.86
420.91	3349.31
421.10	3295.47
421.29	3396.12
421.48	3253.34
421.67	3407.82
421.86	3377.39
422.05	3445.27
422.24	3449.95
422.43	3344.63
422.61	3428.88
422.80	3475.70
422.99	3407.82
423.18	3562.30
423.37	3513.14
423.56	3510.80
423.75	3510.80
423.94	3562.30
424.13	3192.49
424.32	3330.58
424.50	3606.77
424.69	3604.42
424.88	3667.62
425.07	3578.68
425.26	3475.70
425.45	3494.42
425.64	3581.02
425.83	3494.42
426.01	3641.87
426.20	3655.92
426.39	3578.68
426.58	3712.09
426.77	3730.81
426.96	3723.79
427.15	3538.89
427.33	3815.07
427.52	3693.37
427.71	3744.86
427.90	3836.14
428.09	3707.41
428.28	3805.71
428.46	3845.50
428.65	3845.50
428.84	3955.51
429.03	4046.79
429.22	3843.16
429.40	3843.16
429.59	3939.12
429.78	3744.86
429.97	3899.33
430.16	3885.29
430.34	3992.95
430.53	4014.02
430.72	4042.11
430.91	4077.21
431.10	4039.76
431.28	4152.11
431.47	4058.49
431.66	4215.30
431.85	4107.64
432.03	4393.19
432.22	4358.08
432.41	4156.79
432.60	4142.75
432.79	4283.18
432.97	4322.97
433.16	4257.43
433.35	4304.25
433.54	4465.74
433.72	4271.48
433.91	4484.47
434.10	4479.79
434.28	4409.57
434.47	4421.27
434.66	4444.68
434.85	4615.54
435.03	4676.39
435.22	4575.75
435.41	4613.20
435.59	4547.66
435.78	4498.51
435.97	4557.02
436.16	4596.81
436.34	4582.77
436.53	4620.22
436.72	4795.76
436.90	4723.20
437.09	4603.83
437.28	4669.37
437.46	4739.58
437.65	4903.42
437.84	4807.46
438.02	4898.74
438.21	4842.57
438.40	4847.25
438.58	4833.21
438.77	5011.09
438.96	4837.89
439.14	5025.13
439.33	5198.33
439.52	5071.94
439.70	5132.79
439.89	5301.31
440.08	5364.51
440.26	5266.21
440.45	5357.49
440.63	5366.85
440.82	5514.30
441.01	5380.89
441.19	5455.79
441.38	5692.18
441.57	5696.86
441.75	5533.03
441.94	5703.89
442.12	5703.89
442.31	5696.86
442.50	5818.57
442.68	5687.50
442.87	5692.18
443.05	5851.34
443.24	5994.11
443.43	5743.67
443.61	5966.03
443.80	6139.23
443.98	6054.97
444.17	5713.25
444.35	6005.81
444.54	6118.16
444.73	5991.77
444.91	6015.18
445.10	6061.99
445.28	5926.24
445.47	5996.45
445.65	5961.34
445.84	6146.25
446.02	6139.23
446.21	6099.44
446.39	6038.58
446.58	6097.10
446.77	6122.84
446.95	5984.75
447.14	6188.38
447.32	6113.48
447.51	6078.37
447.69	6069.01
447.88	6260.93
448.06	6314.77
448.25	6225.82
448.43	6291.36
448.62	6134.54
448.80	6157.95
448.99	6162.63
449.17	6223.48
449.36	6204.76
449.54	6509.03
449.73	6403.71
449.91	6506.69
450.10	6637.76
450.28	6494.99
450.46	6480.94
450.65	6487.96
450.83	6569.88
451.02	6516.05
451.20	6684.57
451.39	6565.20
451.57	6640.10
451.76	6583.93
451.94	6569.88
452.13	6780.53
452.31	6759.47
452.49	6574.56
452.68	6771.17
452.86	6792.23
453.05	6923.30
453.23	6766.49
453.42	6782.87
453.60	6832.02
453.78	6850.75
453.97	6864.79
454.15	7091.82
454.34	6810.96
454.52	6965.43
454.70	6874.15
454.89	6984.16
455.07	7140.97
455.26	7108.21
455.44	7164.38
455.62	7279.07
455.81	7260.34
455.99	7052.03
456.17	7311.83
456.36	7300.13
456.54	7428.86
456.73	7316.51
456.91	7641.85
457.09	7576.31
457.28	7765.90
457.46	7550.57
457.64	7702.70
457.83	7672.28
458.01	7461.63
458.19	7819.73
458.38	7772.92
458.56	7786.96
458.74	7936.76
458.93	7810.37
459.11	7618.44
459.29	7779.94
459.48	7763.56
459.66	8091.23
459.84	7953.14
460.03	8058.46
460.21	7817.39
460.39	7857.18
460.57	7908.67
460.76	8030.38
460.94	8032.72
461.12	7981.23
461.31	8065.49
461.49	8037.40
461.67	8037.40
461.85	8383.80
462.04	8102.93
462.22	8777.01
462.40	8526.57
462.59	8346.35
462.77	8439.97
462.95	8236.35
463.13	8414.23
463.32	8482.10
463.50	8421.25
463.68	8435.29
463.86	8446.99
464.05	8498.49
464.23	8435.29
464.41	8542.96
464.59	8376.78
464.78	8711.47
464.96	8561.68
465.14	8580.40
465.32	8781.69
465.50	8823.82
465.69	8828.50
465.87	8594.45
466.05	8648.28
466.23	8659.98
466.41	8734.88
466.60	9018.08
466.78	8767.65
466.96	8725.52
467.14	8725.52
467.32	9027.45
467.51	9013.40
467.69	8922.12
467.87	9013.40
468.05	9032.13
468.23	9060.21
468.41	8964.25
468.60	9032.13
468.78	9240.44
468.96	9053.19
469.14	9303.63
469.32	9174.90
469.50	9088.30
469.69	9619.60
469.87	9638.33
470.05	9401.93
470.23	9369.16
470.41	9523.64
470.59	9628.96
470.77	9528.32
470.95	9781.10
471.14	9745.99
471.32	9743.65
471.50	10045.58
471.68	9736.63
471.86	9841.95
472.04	9666.41
472.22	10024.51
472.40	9970.68
472.58	10031.54
472.77	10094.73
472.95	10202.40
473.13	10579.22
473.31	10148.56
473.49	10347.51
473.67	10274.95
473.85	10214.10
474.03	10558.16
474.21	10450.49
474.39	10485.60
474.57	10736.04
474.75	10736.04
474.93	10740.72
475.12	10583.90
475.30	11070.73
475.48	10946.69
475.66	10984.13
475.84	10946.69
476.02	11391.39
476.20	11124.57
476.38	11428.84
476.56	11648.85
476.74	11555.22
476.92	11492.03
477.10	11351.60
477.28	11716.72
477.46	11550.54
477.64	11847.79
477.82	11805.66
478.00	12311.22
478.18	12018.65
478.36	12250.36
478.54	12311.22
478.72	12519.53
478.90	12542.93
479.08	12746.56
479.26	12669.32
479.44	12631.87
479.62	12769.96
479.80	12968.91
479.98	12961.89
480.16	13144.45
480.34	13352.76
480.52	13556.38
480.70	13369.14
480.88	13305.95
481.06	13563.40
481.24	13446.38
481.41	13797.46
481.59	14127.47
481.77	14134.50
481.95	14008.11
482.13	14277.27
482.31	14295.99
482.49	14588.56
482.67	14443.45
482.85	14841.34
483.03	15211.14
483.21	14984.11
483.39	15019.22
483.57	15330.51
483.74	15180.71
483.92	15646.48
484.10	15272.00
484.28	15864.15
484.46	15946.07
484.64	16236.30
484.82	16152.04
485.00	16079.48
485.18	16533.54
485.35	16615.46
485.53	16711.42
485.71	16617.80
485.89	17202.94
486.07	16823.77
486.25	17181.87
486.43	17268.47
486.61	17282.52
486.78	17537.63
486.96	17394.86
487.14	17579.76
487.32	17942.55
487.50	18200.01
487.68	18127.45
487.85	18326.39
488.03	18574.49
488.21	18499.59
488.39	18838.97
488.57	19051.96
488.75	18820.25
488.92	19180.69
489.10	19370.27
489.28	19550.49
489.46	19658.16
489.64	19522.41
489.81	20236.27
489.99	20259.68
490.17	20255.00
490.35	20400.11
490.53	20568.63
490.70	20751.19
490.88	20538.20
491.06	20950.14
491.24	20711.40
491.41	21074.18
491.59	21315.26
491.77	21319.94
491.95	21371.43
492.13	21743.58
492.30	21490.80
492.48	21846.56
492.66	21921.46
492.84	22036.14
493.01	22221.05
493.19	21984.65
493.37	22595.53
493.54	22682.13
493.72	23061.30
493.90	22930.23
494.08	23030.87
494.25	23515.36
494.43	22944.27
494.61	23332.80
494.79	23529.41
494.96	23611.32
495.14	23880.49
495.32	23896.87
495.49	24240.93
495.67	24325.19
495.85	24247.95
496.02	24652.86
496.20	24650.52
496.38	24641.16
496.55	24992.24
496.73	25240.34
496.91	25385.45
497.09	25352.68
497.26	25448.64
497.44	25387.79
497.62	25521.20
497.79	25837.17
497.97	26246.77
498.14	26171.87
498.32	26590.83
498.50	26422.31
498.67	26312.30
498.85	26115.70
499.03	26946.59
499.20	26635.30
499.38	26555.72
499.56	27009.78
499.73	26881.05
499.91	27185.32
500.08	27571.51
500.26	26855.31
500.44	27868.76
500.61	27793.86
500.79	27667.47
500.97	27946.00
501.14	28264.31
501.32	28212.82
501.49	27950.68
501.67	28254.95
501.84	28243.24
502.02	28414.10
502.20	28350.91
502.37	28814.34
502.55	28243.24
502.72	29179.46
502.90	28435.17
503.07	28961.79
503.25	28704.33
503.43	29053.07
503.60	29268.40
503.78	29308.19
503.95	28861.15
504.13	29488.41
504.30	29656.93
504.48	29511.81
504.65	30202.27
504.83	29907.37
505.01	30368.45
505.18	30103.97
505.36	30218.66
505.53	30096.95
505.71	30291.21
505.88	30923.16
506.06	30492.50
506.23	31047.21
506.41	30871.67
506.58	30831.88
506.76	31363.18
506.93	30918.48
507.11	30890.39
507.28	31122.10
507.46	30925.50
507.63	31470.84
507.81	31594.89
507.98	31103.38
508.16	31541.06
508.33	31838.31
508.50	31857.03
508.68	31833.63
508.85	32290.03
509.03	32268.97
509.20	32112.15
509.38	32442.17
509.55	32470.25
509.73	32697.28
509.90	32760.48
510.08	32669.20
510.25	32713.67
510.42	33013.26
510.60	32950.06
510.77	33160.71
510.95	33525.83
511.12	33074.11
511.30	33172.41
511.47	33207.52
511.64	33436.89
511.82	33820.74
511.99	33717.76
512.17	34003.30
512.34	34155.44
512.51	34197.57
512.69	34237.36
512.86	34415.24
513.04	34574.39
513.21	34457.37
513.38	34359.06
513.56	34555.67
513.73	34176.50
513.90	34827.17
514.08	34593.12
514.25	35297.62
514.43	34946.54
514.60	34986.33
514.77	34817.81
514.95	35168.89
515.12	35112.72
515.29	35168.89
515.47	35821.90
515.64	36100.42
515.81	35580.82
515.99	35927.22
516.16	36037.23
516.33	36177.66
516.51	35770.41
516.68	36123.83
516.85	36079.36
517.03	36418.74
517.20	36526.40
517.37	36275.96
517.54	36900.89
517.72	36596.62
517.89	36397.67
518.06	36505.34
518.24	36774.50
518.41	36699.60
518.58	36725.35
518.75	36545.12
518.93	37088.13
519.10	36931.31
519.27	37172.39
519.45	37385.38
519.62	37787.95
519.79	37750.50
519.96	37191.11
520.14	37701.35
520.31	37427.51
520.48	37897.95
520.65	38218.61
520.83	38124.99
521.00	37982.21
521.17	38073.49
521.34	38459.68
521.52	38377.76
521.69	38340.32
521.86	38574.37
522.03	38646.93
522.20	38864.60
522.38	38789.70
522.55	38972.26
522.72	39122.05
522.89	38972.26
523.07	39330.36
523.24	39349.09
523.41	38799.06
523.58	38820.13
523.75	39494.20
523.92	39505.90
524.10	39604.20
524.27	39442.71
524.44	39789.11
524.61	39871.03
524.78	40144.87
524.96	39763.36
525.13	39849.96
525.30	40645.74
525.47	40140.19
525.64	40378.92
525.81	40407.01
525.98	40187.00
526.16	40481.91
526.33	40584.89
526.50	40732.34
526.67	40222.11
526.84	40959.38
527.01	40753.41
527.18	40947.67
527.36	41074.06
527.53	40978.10
527.70	41085.76
527.87	40994.48
528.04	41191.09
528.21	41076.40
528.38	41415.78
528.55	41624.09
528.72	41088.10
528.89	41289.39
529.07	41069.38
529.24	41118.53
529.41	41469.61
529.58	41523.44
529.75	41951.76
529.92	41764.52
530.09	41759.84
530.26	41918.99
530.43	41942.40
530.60	41617.07
530.77	41883.89
530.94	42057.09
531.11	42454.98
531.28	42288.80
531.46	42131.98
531.63	42174.11
531.80	42548.60
531.97	42777.97
532.14	42784.99
532.31	42424.55
532.48	42768.61
532.65	42777.97
532.82	43077.56
532.99	43658.01
533.16	43295.23
533.33	42855.21
533.50	43466.09
533.67	42843.51
533.84	42972.24
534.01	42906.70
534.18	43421.62
534.35	44069.95
534.52	43807.81
534.69	43756.32
534.86	43814.83
535.03	43262.46
535.20	42960.53
535.37	42904.36
535.54	44116.76
535.71	43349.06
535.88	43871.00
536.05	43948.24
536.22	44189.31
536.38	44048.88
536.55	44327.41
536.72	44313.36
536.89	43885.04
537.06	43988.03
537.23	44463.16
537.40	44268.89
537.57	45022.54
537.74	43997.39
537.91	44739.34
538.08	44430.39
538.25	44552.10
538.42	44168.25
538.59	44851.69
538.75	44987.44
538.92	44715.93
539.09	45509.38
539.26	44739.34
539.43	44891.48
539.60	44722.96
539.77	44563.80
539.94	45031.91
540.11	45565.55
540.28	45432.14
540.44	45521.08
540.61	45394.69
540.78	45432.14
540.95	45631.08
541.12	45495.33
541.29	45439.16
541.46	45485.97
541.62	45572.57
541.79	45820.67
541.96	45287.03
542.13	46113.23
542.30	45448.52
542.47	45921.31
542.63	45858.12
542.80	45815.99
542.97	46321.54
543.14	46373.03
543.31	46363.67
543.48	46316.86
543.64	46674.96
543.81	46429.21
543.98	46487.72
544.15	46356.65
544.32	46597.73
544.48	46979.23
544.65	46824.76
544.82	46848.16
544.99	46309.84
545.16	46902.00
545.32	47002.64
545.49	47168.82
545.66	47334.99
545.83	46932.42
546.00	47159.45
546.16	46974.55
546.33	46745.18
546.50	46712.41
546.67	47285.84
546.83	46927.74
547.00	47026.04
547.17	47243.71
547.34	47058.81
547.50	47416.91
547.67	48002.05
547.84	47470.75
548.00	47325.63
548.17	47976.30
548.34	47714.16
548.51	47973.96
548.67	47938.85
548.84	47744.59
549.01	47646.29
549.18	47608.84
549.34	47601.82
549.51	47966.94
549.68	48072.26
549.84	48041.84
550.01	48264.19
550.18	47948.21
550.34	48016.09
550.51	47908.43
550.68	47948.21
550.84	47416.91
551.01	48289.93
551.18	47767.99
551.34	47899.06
551.51	48303.98
551.68	48172.91
551.84	48350.79
552.01	48149.50
552.18	48222.06
552.34	48156.52
552.51	48215.04
552.68	47978.64
552.84	48526.33
553.01	48421.00
553.18	48725.27
553.34	48715.91
553.51	48568.46
553.67	48303.98
553.84	48629.31
554.01	48896.13
554.17	48718.25
554.34	48940.60
554.51	48863.36
554.67	49202.74
554.84	49198.06
555.00	49209.76
555.17	49113.80
555.33	48659.74
555.50	49085.72
555.67	48685.48
555.83	49184.02
556.00	49069.33
556.16	48964.01
556.33	48980.39
556.50	48924.22
556.66	49600.63
556.83	48952.30
556.99	49368.92
557.16	49209.76
557.32	49078.69
557.49	49106.78
557.65	49720.00
557.82	49375.94
557.98	49490.63
558.15	49446.16
558.32	49705.96
558.48	49705.96
558.65	49602.97
558.81	49352.54
558.98	49769.15
559.14	49602.97
559.31	49825.32
559.47	49897.88
559.64	49855.75
559.80	49947.03
559.97	49654.47
560.13	49830.01
560.30	49544.46
560.46	49640.42
560.63	49940.01
560.79	49766.81
560.96	49970.44
561.12	50071.08
561.29	49888.52
561.45	49738.72
561.61	49827.66
561.78	49916.61
561.94	50028.95
562.11	49890.86
562.27	49593.61
562.44	50157.68
562.60	49743.41
562.77	49937.67
562.93	50321.52
563.10	50354.29
563.26	49853.41
563.42	50405.78
563.59	49773.83
563.75	49766.81
563.92	50258.32
564.08	50239.60
564.24	50057.04
564.41	50387.05
564.57	50148.32
564.74	50380.03
564.90	50410.46
565.07	50157.68
565.23	50131.93
565.39	50059.38
565.56	50134.28
565.72	50223.22
565.88	50382.37
566.05	50497.06
566.21	50600.04
566.38	50452.59
566.54	50384.71
566.70	50798.99
566.87	50548.55
567.03	50260.66
567.19	50373.01
567.36	50230.24
567.52	50422.16
567.68	50527.48
567.85	50728.77
568.01	50810.69
568.17	50466.63
568.34	50845.80
568.50	50581.32
568.66	50246.62
568.83	50604.72
568.99	50300.45
569.15	50576.64
569.32	50356.63
569.48	50468.97
569.64	50777.92
569.81	50464.29
569.97	50618.77
570.13	50450.25
570.30	50412.80
570.46	50667.92
570.62	50237.26
570.78	50319.18
570.95	50431.52
571.11	50681.96
571.27	50578.98
571.43	50674.94
571.60	50789.62
571.76	50504.08
571.92	50504.08
572.09	50724.09
572.25	50777.92
572.41	50597.70
572.57	50822.39
572.74	51002.61
572.90	50946.44
573.06	50593.02
573.22	50710.05
573.38	50593.02
573.55	50747.50
573.71	51157.09
573.87	50787.28
574.03	50541.53
574.20	50522.80
574.36	50478.33
574.52	50988.57
574.68	51047.08
574.84	51154.75
575.01	51117.30
575.17	51227.31
575.33	50857.50
575.49	50384.71
575.65	50946.44
575.82	51070.49
575.98	50775.58
576.14	50981.55
576.30	51304.54
576.46	51477.74
576.62	51393.48
576.79	50836.44
576.95	50780.26
577.11	50946.44
577.27	50878.57
577.43	51019.00
577.59	50780.26
577.75	51002.61
577.92	50445.57
578.08	50838.78
578.24	51007.29
578.40	51547.96
578.56	51381.78
578.72	50993.25
578.88	51419.23
579.04	50782.60
579.21	51084.53
579.37	51086.87
579.53	50838.78
579.69	50969.85
579.85	50932.40
580.01	51030.70
580.17	51353.69
580.33	51379.44
580.49	50852.82
580.65	51098.58
580.82	51035.38
580.98	50972.19
581.14	50834.10
581.30	51168.79
581.46	51437.95
581.62	51391.14
581.78	51391.14
581.94	51419.23
582.10	51075.17
582.26	50871.54
582.42	51054.11
582.58	50962.82
582.74	50773.24
582.90	51086.87
583.06	51440.29
583.22	51365.40
583.38	51304.54
583.54	51447.32
583.70	51058.79
583.86	51606.47
584.02	50850.48
584.18	51381.78
584.34	51313.90
584.50	51049.42
584.66	50995.59
584.82	50906.65
584.98	51285.82
585.14	51508.17
585.30	50969.85
585.46	51487.10
585.62	51255.39
585.78	51358.38
585.94	51131.34
586.10	51283.48
586.26	50960.48
586.42	50951.12
586.58	51374.76
586.74	51009.64
586.90	51002.61
587.06	51447.32
587.22	51803.08
587.38	51360.72
587.54	51618.17
587.70	51739.88
587.86	51407.53
588.02	51133.68
588.18	51428.59
588.34	51480.08
588.49	51480.08
588.65	51320.93
588.81	51456.68
588.97	51992.66
589.13	51690.73
589.29	51573.70
589.45	51498.81
589.61	51625.20
589.77	51313.90
589.93	51414.55
590.08	51566.68
590.24	51522.21
590.40	51901.38
590.56	51990.32
590.72	51812.44
590.88	51484.76
591.04	51480.08
591.20	51852.23
591.35	51952.87
591.51	51629.88
591.67	51753.93
591.83	52107.35
591.99	51662.64
592.15	51604.13
592.31	52310.97
592.46	51962.23
592.62	51782.01
592.78	51873.29
592.94	51842.87
593.10	51597.11
593.26	51852.23
593.41	51702.43
593.57	51885.00
593.73	51749.24
593.89	51814.78
594.05	51817.12
594.20	51924.78
594.36	51938.83
594.52	51847.55
594.68	51854.57
594.84	52130.75
594.99	51901.38
595.15	52030.11
595.31	51910.74
595.47	51807.76
595.62	51454.34
595.78	51826.48
595.94	51505.83
596.10	52065.22
596.25	51599.45
596.41	52119.05
596.57	52088.62
596.73	52240.76
596.88	52044.15
597.04	51964.57
597.20	51576.04
597.36	52032.45
597.51	52072.24
597.67	51765.63
597.83	51707.12
597.99	52161.18
598.14	52245.44
598.30	51995.00
598.46	51995.00
598.61	52030.11
598.77	51976.28
598.93	52257.14
599.09	51686.05
599.24	52151.82
599.40	52109.69
599.56	52041.81
599.71	51861.59
599.87	52238.42
600.03	52215.01
600.18	52182.24
600.34	51941.17
600.50	52079.26
600.65	51877.97
600.81	52325.02
600.97	51962.23
601.12	51751.59
601.28	51679.03
601.44	52058.20
601.59	52058.20
601.75	51681.37
601.91	52327.36
602.06	52051.17
602.22	52229.05
602.37	52009.04
602.53	52299.27
602.69	52006.70
602.84	51803.08
603.00	52105.01
603.16	51777.33
603.31	51793.71
603.47	51847.55
603.62	51955.21
603.78	52374.17
603.94	51971.60
604.09	52196.29
604.25	51847.55
604.40	51906.06
604.56	52083.94
604.71	51810.10
604.87	52102.67
605.03	51414.55
605.18	51753.93
605.34	51915.42
605.49	51861.59
605.65	52271.18
605.80	52163.52
605.96	52231.40
606.12	52165.86
606.27	51964.57
606.43	51924.78
606.58	51922.44
606.74	51798.40
606.89	51821.80
607.05	52090.96
607.20	51964.57
607.36	51868.61
607.51	52009.04
607.67	52303.95
607.82	52109.69
607.98	51810.10
608.13	51906.06
608.29	51943.51
608.44	51957.55
608.60	51531.57
608.75	51704.77
608.91	51683.71
609.06	51278.80
609.22	51697.75
609.37	51487.10
609.53	51620.52
609.68	51760.95
609.84	51763.29
609.99	51746.90
610.15	51629.88
610.30	51735.20
610.46	51274.12
610.61	51412.21
610.76	51550.30
610.92	51105.60
611.07	51217.94
611.23	51430.93
611.38	51840.53
611.54	51374.76
611.69	51784.35
611.84	51475.40
612.00	51594.77
612.15	51440.29
612.31	51590.09
612.46	51440.29
612.62	51377.10
612.77	51096.24
612.92	51423.91
613.08	51325.61
613.23	51540.94
613.39	51035.38
613.54	51384.12
613.69	51487.10
613.85	51554.98
614.00	51489.45
614.15	51508.17
614.31	51220.28
614.46	51442.63
614.62	51105.60
614.77	51208.58
614.92	51461.36
615.08	51524.55
615.23	51138.36
615.38	51646.26
615.54	51349.01
615.69	51323.27
615.84	51117.30
616.00	51498.81
616.15	51246.03
616.30	51391.14
616.46	50850.48
616.61	51037.72
616.76	50686.64
616.92	50754.52
617.07	50873.88
617.22	50724.09
617.37	50609.40
617.53	51021.34
617.68	50969.85
617.83	51192.20
617.99	51096.24
618.14	51082.19
618.29	51175.81
618.45	50761.54
618.60	50866.86
618.75	50951.12
618.90	50981.55
619.06	51014.32
619.21	50424.50
619.36	50761.54
619.51	50948.78
619.67	50480.67
619.82	50688.98
619.97	50625.79
620.12	50548.55
620.28	50349.60
620.43	50513.44
620.58	50447.91
620.73	50174.06
620.89	50576.64
621.04	50651.53
621.19	50618.77
621.34	50693.66
621.49	50403.44
621.65	50543.87
621.80	50890.27
621.95	50752.18
622.10	50777.92
622.25	50321.52
622.41	50368.33
622.56	50564.93
622.71	50710.05
622.86	50145.98
623.01	50330.88
623.16	50248.96
623.32	50108.53
623.47	50255.98
623.62	50246.62
623.77	50340.24
623.92	50351.94
624.07	50265.34
624.23	50251.30
624.38	50309.82
624.53	50220.87
624.68	49689.57
624.83	49794.90
624.98	50038.31
625.13	50021.93
625.29	50185.77
625.44	50028.95
625.59	50052.36
625.74	49883.84
625.89	49991.50
626.04	50279.39
626.19	50153.00
626.34	50202.15
626.49	49968.10
626.65	49652.12
626.80	49853.41
626.95	49350.20
627.10	49326.79
627.25	49642.76
627.40	49741.06
627.55	49528.08
627.70	49528.08
627.85	49764.47
628.00	49471.90
628.15	49963.42
628.30	49570.21
628.45	49359.56
628.60	49443.82
628.76	49422.75
628.91	49722.34
629.06	49146.57
629.21	49516.37
629.36	49485.95
629.51	49581.91
629.66	49034.22
629.81	49188.70
629.96	49312.75
630.11	49521.05
630.26	49432.11
630.41	49169.97
630.56	49352.54
630.71	49340.83
630.86	49209.76
631.01	49090.40
631.16	48694.85
631.31	48638.67
631.46	48531.01
631.61	49336.15
631.76	48910.17
631.91	49027.20
632.06	48956.99
632.21	48704.21
632.36	49158.27
632.51	48666.76
632.66	48790.81
632.81	48610.59
632.96	48533.35
633.10	48952.30
633.25	48772.08
633.40	48631.65
633.55	48580.16
633.70	48678.46
633.85	48645.69
634.00	48568.46
634.15	49443.82
634.30	49055.29
634.45	48638.67
634.60	48725.27
634.75	48781.45
634.90	48545.05
635.05	48699.53
635.19	48329.72
635.34	48399.94
635.49	48753.36
635.64	48446.75
635.79	48229.08
635.94	48514.62
636.09	48528.67
636.24	48442.07
636.39	48376.53
636.53	48479.52
636.68	48315.68
636.83	48332.06
636.98	48332.06
637.13	48275.89
637.28	48624.63
637.43	48231.42
637.57	48048.86
637.72	48100.35
637.87	48126.10
638.02	48261.85
638.17	48460.79
638.32	48128.44
638.46	48318.02
638.61	48367.17
638.76	48119.07
638.91	47894.38
639.06	48088.65
639.20	47831.19
639.35	47557.35
639.50	47393.51
639.65	47765.65
639.80	47903.74
639.94	47739.91
640.09	48147.16
640.24	48156.52
640.39	47697.78
640.54	47381.80
640.68	47941.19
640.83	47854.59
640.98	47650.97
641.13	46955.83
641.27	47789.06
641.42	47178.18
641.57	47557.35
641.72	47510.53
641.86	47255.42
642.01	46969.87
642.16	47400.53
642.31	47278.82
642.45	47700.12
642.60	46983.91
642.75	47395.85
642.90	47414.57
643.04	47058.81
643.19	47004.98
643.34	46972.21
643.48	46885.61
643.63	47164.14
643.78	47096.26
643.93	46972.21
644.07	46955.83
644.22	47054.13
644.37	46930.08
644.51	46632.83
644.66	46557.94
644.81	46960.51
644.95	47304.57
645.10	47131.37
645.25	46775.61
645.39	47082.22
645.54	47433.30
645.69	46951.15
645.83	47253.08
645.98	46887.95
646.13	46775.61
646.27	46614.11
646.42	46403.46
646.57	46553.26
646.71	46593.04
646.86	46890.29
647.00	46838.80
647.15	46890.29
647.30	46754.54
647.44	46789.65
647.59	46579.00
647.74	46576.66
647.88	46211.54
648.03	46443.25
648.17	46525.17
648.32	46621.13
648.47	46820.08
648.61	46188.13
648.76	46684.33
648.90	46375.37
649.05	46817.74
649.20	46043.02
649.34	46684.33
649.49	46635.17
649.63	46167.07
649.78	46234.94
649.92	46625.81
650.07	46401.12
650.21	46543.89
650.36	46096.85
650.51	45900.25
650.65	46148.34
650.80	46239.62
650.94	46155.36
651.09	45626.40
651.23	45935.35
651.38	45794.92
651.52	45874.50
651.67	46321.54
651.81	45947.06
651.96	46127.28
652.10	45860.46
652.25	45722.37
652.39	45806.62
652.54	45518.74
652.68	45455.54
652.83	45720.02
652.97	46167.07
653.12	45563.21
653.26	45638.11
653.41	45715.34
653.55	45778.54
653.70	46150.68
653.84	46211.54
653.99	46094.51
654.13	45633.42
654.27	45532.78
654.42	45698.96
654.56	45322.13
654.71	45235.53
654.85	45521.08
655.00	45155.96
655.14	44978.07
655.29	44935.95
655.43	45207.45
655.57	44828.28
655.72	45280.00
655.86	45296.39
656.01	45200.43
656.15	44982.76
656.30	45408.73
656.44	45296.39
656.58	44779.13
656.73	44313.36
656.87	44732.32
657.01	44737.00
657.16	45165.32
657.30	45160.64
657.45	44870.41
657.59	44947.65
657.73	44776.79
657.88	44659.76
658.02	44481.88
658.16	44531.03
658.31	44612.95
658.45	44952.33
658.60	44758.06
658.74	44854.03
658.88	44374.22
659.03	44371.88
659.17	43929.51
659.31	44367.20
659.46	43725.89
659.60	43810.15
659.74	44168.25
659.89	44142.50
660.03	43833.55
660.17	44163.57
660.32	43571.41
660.46	43796.10
660.60	44023.14
660.74	44252.51
660.89	44130.80
661.03	43721.21
661.17	44172.93
661.32	43948.24
661.46	43889.73
661.60	43267.14
661.74	44039.52
661.89	43672.06
662.03	43388.85
662.17	43115.01
662.31	43077.56
662.46	43290.55
662.60	43484.81
662.74	43196.93
662.88	43309.27
663.03	43737.59
663.17	43320.98
663.31	43047.13
663.45	43250.76
663.60	42726.48
663.74	43040.11
663.88	42710.10
664.02	42539.24
664.17	43115.01
664.31	42504.13
664.45	42497.11
664.59	42562.64
664.73	42370.72
664.88	42485.40
665.02	42440.93
665.16	42660.94
665.30	42684.35
665.44	42120.28
665.59	41975.17
665.73	42649.24
665.87	42209.22
666.01	42167.09
666.15	41928.36
666.29	41944.74
666.44	42045.38
666.58	41521.10
666.72	41291.73
666.86	42012.62
667.00	41439.18
667.14	41553.87
667.28	41605.36
667.43	41331.52
667.57	41535.15
667.71	41507.06
667.85	41415.78
667.99	41734.09
668.13	40842.35
668.27	41038.95
668.41	41228.54
668.56	40921.93
668.70	40999.16
668.84	40919.59
668.98	40842.35
669.12	40666.81
669.26	40282.96
669.40	41078.74
669.54	40818.94
669.68	40722.98
669.82	40376.58
669.96	40615.32
670.10	40381.26
670.25	41041.29
670.39	40755.75
670.53	40430.41
670.67	40311.05
670.81	40315.73
670.95	40142.53
671.09	39964.65
671.23	40062.95
671.37	39791.45
671.51	39533.99
671.65	39702.51
671.79	39218.02
671.93	39505.90
672.07	39997.41
672.21	39409.94
672.35	39543.35
672.49	39281.21
672.63	39274.19
672.77	39203.97
672.91	38679.69
673.05	39030.77
673.19	38824.81
673.33	38948.85
673.47	38745.23
673.61	38550.96
673.75	38946.51
673.89	38918.43
674.03	38396.49
674.17	38227.97
674.31	38375.42
674.45	38160.09
674.59	38162.43
674.73	38300.53
674.87	38410.53
675.01	38476.07
675.15	38265.42
675.29	37989.24
675.43	37780.93
675.56	37993.92
675.70	37703.69
675.84	37572.62
675.98	36414.05
676.12	37322.18
676.26	37661.56
676.40	37170.05
676.54	37160.69
676.68	37022.59
676.82	36552.15
676.96	37097.49
677.10	37048.34
677.23	36540.44
677.37	36753.43
677.51	36598.96
677.65	36428.10
677.79	36369.58
677.93	35948.29
678.07	35901.48
678.21	35819.56
678.34	35475.50
678.48	35337.41
678.62	35316.34
678.76	35199.32
678.90	35346.77
679.04	35433.37
679.18	35182.93
679.31	35229.74
679.45	35185.27
679.59	35519.97
679.73	35543.38
679.87	34871.64
680.00	34941.86
680.14	34630.57
680.28	34562.69
680.42	34515.88
680.56	34616.52
680.70	34007.98
680.83	33897.98
680.97	33802.02
681.11	33677.97
681.25	33710.74
681.39	33792.65
681.52	33909.68
681.66	33825.42
681.80	33207.52
681.94	33455.62
682.07	33570.30
682.21	32994.53
682.35	32776.86
682.49	33088.15
682.62	33104.54
682.76	32601.32
682.90	32760.48
683.04	32374.29
683.17	32507.70
683.31	31910.86
683.45	32095.77
683.59	32706.65
683.72	31817.24
683.86	31779.79
684.00	31920.23
684.13	31842.99
684.27	31826.60
684.41	31913.20
684.55	31690.85
684.68	31821.92
684.82	31555.10
684.96	31597.23
685.09	31323.39
685.23	30752.30
685.37	30778.04
685.50	31002.74
685.64	30831.88
685.78	30352.07
685.91	30464.41
686.05	30579.10
686.19	30017.37
686.32	30316.96
686.46	29986.94
686.60	29769.27
686.73	30118.01
686.87	30050.14
687.01	30141.42
687.14	29486.07
687.28	29813.74
687.42	29722.46
687.55	29769.27
687.69	29916.73
687.82	29670.97
687.96	29322.23
688.10	29139.67
688.23	28748.80
688.37	28938.38
688.50	28687.95
688.64	28842.42
688.78	28383.68
688.91	28580.28
689.05	28601.35
689.18	28514.75
689.32	28053.66
689.46	27960.04
689.59	28023.23
689.73	28135.58
689.86	27936.63
690.00	28257.29
690.13	28322.82
690.27	27520.02
690.41	27728.33
690.54	27124.47
690.68	27070.64
690.81	27087.02
690.95	27077.66
691.08	26881.05
691.22	26883.39
691.35	26731.26
691.49	26981.70
691.62	26644.66
691.76	26909.14
691.89	26183.57
692.03	26527.63
692.16	26654.02
692.30	26450.39
692.43	26391.88
692.57	26244.43
692.70	26349.75
692.84	26321.66
692.97	25516.52
693.11	25242.68
693.24	25013.31
693.38	25109.27
693.51	25120.97
693.65	25156.08
693.78	24767.55
693.92	24936.07
694.05	25027.35
694.19	24952.45
694.32	24404.77
694.45	24819.04
694.59	24477.32
694.72	24428.17
694.86	24800.32
694.99	24482.00
695.13	24542.86
695.26	24133.26
695.39	23903.89
695.53	24140.29
695.66	23826.65
695.80	23325.78
695.93	23510.68
696.07	23061.30
696.20	23304.71
696.33	23096.41
696.47	23042.57
696.60	23290.67
696.73	23077.68
696.87	22916.19
697.00	22979.38
697.14	22904.48
697.27	22803.84
697.40	22822.56
697.54	22520.63
697.67	22562.76
697.80	22391.91
697.94	22335.73
698.07	21991.67
698.21	21820.81
698.34	21848.90
698.47	21685.06
698.61	21401.86
698.74	21738.90
698.87	21703.79
699.01	21631.23
699.14	21514.20
699.27	21245.04
699.40	21399.52
699.54	21238.02
699.67	20992.26
699.80	21064.82
699.94	20769.91
700.07	20781.62
700.20	20624.80
700.34	20343.94
700.47	20402.45
700.60	20425.86
700.73	20332.23
700.87	20140.31
701.00	20058.39
701.13	20453.94
701.26	19751.78
701.40	19803.27
701.53	19702.63
701.66	19487.30
701.79	19463.90
701.93	19337.51
702.06	19222.82
702.19	19183.03
702.32	19571.56
702.46	19461.55
702.59	19564.54
702.72	19026.21
702.85	18993.45
702.99	19150.26
703.12	19360.91
703.25	18972.38
703.38	18586.19
703.51	18403.63
703.65	18281.92
703.78	18160.22
703.91	18207.03
704.04	18281.92
704.17	18005.74
704.31	18171.92
704.44	18054.89
704.57	18052.55
704.70	17888.71
704.83	17689.77
704.96	17778.71
705.10	17909.78
705.23	17816.16
>>>>>End Processed Spectral Data<<<<<
