SpectraSuite Data File
++++++++++++++++++++++++++++++++++++
Date: Tue Oct 01 18:27:26 GMT-05:00 2013
User: stostad
Dark Spectrum Present: No
Reference Spectrum Present: No
Number of Sampled Component Spectra: 1
Spectrometers: USB2+H05261
Integration Time (usec): 100000 (USB2+H05261)
Spectra Averaged: 1 (USB2+H05261)
Boxcar Smoothing: 0 (USB2+H05261)
Correct for Electrical Dark: No (USB2+H05261)
Strobe/Lamp Enabled: No (USB2+H05261)
Correct for Detector Non-linearity: No (USB2+H05261)
Correct for Stray Light: No (USB2+H05261)
Number of Pixels in Processed Spectrum: 2048
>>>>>Begin Processed Spectral Data<<<<<
365.73	114.69
365.92	114.69
366.12	114.69
366.32	0.00
366.52	0.00
366.72	32.77
366.91	0.00
367.11	0.00
367.31	7.02
367.51	0.00
367.70	0.00
367.90	49.15
368.10	0.00
368.30	0.00
368.49	0.00
368.69	0.00
368.89	30.43
369.09	0.00
369.28	0.00
369.48	0.00
369.68	65.54
369.87	37.45
370.07	30.43
370.27	0.00
370.47	154.48
370.66	299.59
370.86	283.20
371.06	283.20
371.25	271.50
371.45	285.55
371.65	315.97
371.84	311.29
372.04	304.27
372.24	306.61
372.44	477.47
372.63	379.17
372.83	395.55
373.03	369.80
373.22	414.27
373.42	383.85
373.62	458.74
373.81	437.68
374.01	381.51
374.21	465.77
374.40	444.70
374.60	428.32
374.79	421.30
374.99	416.62
375.19	458.74
375.38	425.98
375.58	468.11
375.78	482.15
375.97	395.55
376.17	482.15
376.37	444.70
376.56	407.25
376.76	514.92
376.95	493.85
377.15	486.83
377.35	489.17
377.54	491.51
377.74	533.64
377.93	449.38
378.13	472.79
378.33	489.17
378.52	482.15
378.72	561.73
378.91	587.47
379.11	500.87
379.31	463.43
379.50	503.22
379.70	634.29
379.89	589.82
380.09	519.60
380.28	540.66
380.48	456.40
380.68	486.83
380.87	498.53
381.07	578.11
381.26	533.64
381.46	580.45
381.65	550.03
381.85	603.86
382.04	557.05
382.24	575.77
382.43	547.69
382.63	540.66
382.83	496.19
383.02	559.39
383.22	564.07
383.41	638.97
383.61	603.86
383.80	580.45
384.00	655.35
384.19	603.86
384.39	596.84
384.58	561.73
384.78	662.37
384.97	582.79
385.17	720.88
385.36	592.16
385.56	725.57
385.75	587.47
385.95	685.78
386.14	645.99
386.34	727.91
386.53	716.20
386.72	587.47
386.92	713.86
387.11	697.48
387.31	664.71
387.50	613.22
387.70	678.76
387.89	645.99
388.09	741.95
388.28	641.31
388.48	702.16
388.67	667.05
388.86	681.10
389.06	760.67
389.25	814.51
389.45	727.91
389.64	669.39
389.84	781.74
390.03	767.70
390.22	746.63
390.42	791.10
390.61	720.88
390.81	753.65
391.00	809.83
391.19	866.00
391.39	737.27
391.58	753.65
391.78	720.88
391.97	758.33
392.16	774.72
392.36	891.74
392.55	812.17
392.75	887.06
392.94	828.55
393.13	875.36
393.33	814.51
393.52	779.40
393.71	851.96
393.91	987.71
394.10	842.59
394.29	938.55
394.49	947.92
394.68	919.83
394.88	1027.50
395.07	990.05
395.26	910.47
395.46	940.90
395.65	1029.84
395.84	1039.20
396.04	1029.84
396.23	971.32
396.42	961.96
396.62	1083.67
396.81	994.73
397.00	971.32
397.19	1064.94
397.39	1090.69
397.58	1064.94
397.77	1046.22
397.97	1053.24
398.16	1057.92
398.35	1013.45
398.55	1032.18
398.74	1132.82
398.93	1217.08
399.12	990.05
399.32	1135.16
399.51	1174.95
399.70	1188.99
399.90	1163.25
400.09	1207.72
400.28	1268.57
400.47	1203.04
400.67	1266.23
400.86	1203.04
401.05	1268.57
401.24	1254.53
401.44	1301.34
401.63	1303.68
401.82	1308.36
402.01	1380.92
402.21	1324.74
402.40	1357.51
402.59	1378.58
402.78	1327.08
402.97	1369.21
403.17	1399.64
403.36	1469.86
403.55	1376.24
403.74	1404.32
403.93	1483.90
404.13	1500.28
404.32	1458.15
404.51	1533.05
404.70	1619.65
404.89	1556.46
405.09	1521.35
405.28	1584.54
405.47	1603.27
405.66	1570.50
405.85	1575.18
406.05	1547.09
406.24	1621.99
406.43	1624.33
406.62	1640.72
406.81	1668.80
407.00	1710.93
407.20	1657.10
407.39	1666.46
407.58	1806.89
407.77	1720.29
407.96	1804.55
408.15	1790.51
408.34	1769.44
408.54	1923.92
408.73	1844.34
408.92	1916.90
409.11	1846.68
409.30	1926.26
409.49	1849.02
409.68	1867.75
409.87	1888.81
410.07	1994.14
410.26	1879.45
410.45	1977.75
410.64	2069.03
410.83	2012.86
411.02	2113.50
411.21	2099.46
411.40	2167.34
411.59	2237.55
411.78	2099.46
411.98	2246.91
412.17	2176.70
412.36	2300.75
412.55	2235.21
412.74	2235.21
412.93	2406.07
413.12	2401.39
413.31	2480.97
413.50	2466.92
413.69	2441.18
413.88	2452.88
414.07	2385.01
414.26	2485.65
414.45	2487.99
414.64	2539.48
414.83	2565.23
415.02	2539.48
415.22	2567.57
415.41	2658.85
415.60	2752.47
415.79	2799.28
415.98	2743.11
416.17	2633.10
416.36	2754.81
416.55	2867.16
416.74	2775.88
416.93	2843.75
417.12	2801.62
417.31	2832.05
417.50	2916.31
417.69	2906.95
417.88	2949.08
418.07	3038.02
418.26	2897.58
418.45	3080.14
418.64	3133.98
418.83	3115.25
419.02	3117.59
419.21	3169.09
419.39	3166.74
419.58	3080.14
419.77	3094.19
419.96	3393.78
420.15	3176.11
420.34	3171.43
420.53	3232.28
420.72	3300.16
420.91	3375.05
421.10	3391.44
421.29	3382.07
421.48	3344.63
421.67	3468.67
421.86	3389.10
422.05	3407.82
422.24	3363.35
422.43	3391.44
422.61	3471.01
422.80	3433.57
422.99	3389.10
423.18	3545.91
423.37	3520.17
423.56	3531.87
423.75	3557.61
423.94	3456.97
424.13	3218.24
424.32	3337.60
424.50	3431.23
424.69	3576.34
424.88	3693.37
425.07	3562.30
425.26	3442.93
425.45	3611.45
425.64	3559.95
425.83	3555.27
426.01	3552.93
426.20	3550.59
426.39	3620.81
426.58	3496.76
426.77	3679.32
426.96	3648.90
427.15	3588.04
427.33	3599.74
427.52	3559.95
427.71	3536.55
427.90	3782.31
428.09	3859.54
428.28	3859.54
428.46	3850.18
428.65	3932.10
428.84	3983.59
429.03	3962.53
429.22	3777.62
429.40	3946.14
429.59	3904.01
429.78	3770.60
429.97	3761.24
430.16	3733.15
430.34	3967.21
430.53	4098.28
430.72	3999.98
430.91	3925.08
431.10	3988.27
431.28	4109.98
431.47	4124.02
431.66	4102.96
431.85	4016.36
432.03	4308.93
432.22	4280.84
432.41	4201.26
432.60	4224.67
432.79	4212.96
432.97	4313.61
433.16	4168.49
433.35	4299.56
433.54	4344.03
433.72	4177.86
433.91	4278.50
434.10	4447.02
434.28	4351.06
434.47	4388.50
434.66	4594.47
434.85	4482.13
435.03	4575.75
435.22	4470.42
435.41	4620.22
435.59	4517.23
435.78	4503.19
435.97	4533.62
436.16	4655.33
436.34	4578.09
436.53	4702.14
436.72	4720.86
436.90	4688.09
437.09	4706.82
437.28	4578.09
437.46	4709.16
437.65	4847.25
437.84	4695.11
438.02	4961.94
438.21	4870.65
438.40	4788.74
438.58	4973.64
438.77	5046.20
438.96	4983.00
439.14	5116.41
439.33	5018.11
439.52	5226.42
439.70	5238.12
439.89	5256.84
440.08	5240.46
440.26	5317.70
440.45	5369.19
440.63	5533.03
440.82	5406.64
441.01	5462.81
441.19	5427.70
441.38	5600.90
441.57	5509.62
441.75	5474.51
441.94	5624.31
442.12	5717.93
442.31	5921.56
442.50	5631.33
442.68	5753.04
442.87	5654.73
443.05	5792.83
443.24	5781.12
443.43	6005.81
443.61	5746.02
443.80	6087.73
443.98	5790.49
444.17	5771.76
444.35	5933.26
444.54	6118.16
444.73	5874.74
444.91	6012.84
445.10	5984.75
445.28	6120.50
445.47	6076.03
445.65	5942.62
445.84	5987.09
446.02	6101.78
446.21	5907.51
446.39	6019.86
446.58	6193.06
446.77	6132.20
446.95	5959.00
447.14	5921.56
447.32	6118.16
447.51	6015.18
447.69	6167.31
447.88	6108.80
448.06	6045.60
448.25	6061.99
448.43	6150.93
448.62	6148.59
448.80	6200.08
448.99	6265.61
449.17	6267.95
449.36	6164.97
449.54	6324.13
449.73	6452.86
449.91	6249.23
450.10	6342.85
450.28	6487.96
450.46	6530.09
450.65	6490.31
450.83	6534.78
451.02	6455.20
451.20	6509.03
451.39	6305.40
451.57	6572.22
451.76	6647.12
451.94	6490.31
452.13	6670.53
452.31	6689.25
452.49	6462.22
452.68	6663.51
452.86	6682.23
453.05	6888.20
453.23	6637.76
453.42	6726.70
453.60	6682.23
453.78	6736.06
453.97	6665.85
454.15	6782.87
454.34	6853.09
454.52	6892.88
454.70	7005.22
454.89	7012.24
455.07	6942.03
455.26	7110.55
455.44	7281.41
455.62	7089.48
455.81	7094.16
455.99	7265.02
456.17	7080.12
456.36	7215.87
456.54	7335.24
456.73	7407.80
456.91	7489.71
457.09	7463.97
457.28	7545.89
457.46	7356.30
457.64	7541.21
457.83	7590.36
458.01	7559.93
458.19	7625.47
458.38	7562.27
458.56	7693.34
458.74	7845.48
458.93	7754.19
459.11	7770.58
459.29	7782.28
459.48	7801.01
459.66	8013.99
459.84	7786.96
460.03	7889.95
460.21	7899.31
460.39	7894.63
460.57	7892.29
460.76	8252.73
460.94	7955.48
461.12	7901.65
461.31	8035.06
461.49	8154.43
461.67	8030.38
461.85	8390.82
462.04	8212.94
462.22	8514.87
462.40	8376.78
462.59	8241.03
462.77	8180.17
462.95	8510.19
463.13	8163.79
463.32	8348.69
463.50	8407.20
463.68	8383.80
463.86	8271.45
464.05	8400.18
464.23	8278.47
464.41	8650.62
464.59	8226.98
464.78	8596.79
464.96	8659.98
465.14	8414.23
465.32	8617.85
465.50	8720.84
465.69	8498.49
465.87	8769.99
466.05	8922.12
466.23	8709.13
466.41	8875.31
466.60	8933.82
466.78	8826.16
466.96	8753.60
467.14	8652.96
467.32	9018.08
467.51	8985.32
467.69	8713.81
467.87	8905.74
468.05	8924.46
468.23	9109.36
468.41	8805.10
468.60	9137.45
468.78	9001.70
468.96	8954.89
469.14	9111.71
469.32	9050.85
469.50	8966.59
469.69	9247.46
469.87	9554.07
470.05	9441.72
470.23	9341.08
470.41	9327.03
470.59	9476.83
470.77	9561.09
470.95	9376.19
471.14	9593.86
471.32	9462.79
471.50	9841.95
471.68	9628.96
471.86	9767.06
472.04	9785.78
472.22	10087.71
472.40	9764.72
472.58	9785.78
472.77	9844.29
472.95	10181.33
473.13	10403.68
473.31	10050.26
473.49	10040.90
473.67	10368.57
473.85	10190.69
474.03	10289.00
474.21	10630.71
474.39	10527.73
474.57	10455.17
474.75	10609.65
474.93	10817.96
475.12	10703.27
475.30	10782.85
475.48	10656.46
475.66	10703.27
475.84	10932.64
476.02	11056.69
476.20	11105.84
476.38	11367.98
476.56	11375.00
476.74	11463.94
476.92	11276.70
477.10	11447.56
477.28	11665.23
477.46	11630.12
477.64	11580.97
477.82	11908.65
478.00	12266.75
478.18	12020.99
478.36	12259.73
478.54	12294.83
478.72	12390.80
478.90	12341.64
479.08	12767.62
479.26	12486.76
479.44	12540.59
479.62	12758.26
479.80	12723.15
479.98	12968.91
480.16	13284.88
480.34	13202.96
480.52	13390.20
480.70	13860.65
480.88	13242.75
481.06	13312.97
481.24	13598.51
481.41	13645.32
481.59	13921.51
481.77	13940.23
481.95	14113.43
482.13	14223.44
482.31	14188.33
482.49	14300.67
482.67	14349.82
482.85	14773.46
483.03	14841.34
483.21	15152.63
483.39	15208.80
483.57	14916.23
483.74	15384.34
483.92	15602.01
484.10	15124.54
484.28	15609.03
484.46	15749.46
484.64	15974.16
484.82	15487.32
485.00	15960.11
485.18	16439.92
485.35	16421.20
485.53	16465.67
485.71	16128.63
485.89	16922.07
486.07	16758.24
486.25	17097.61
486.43	17067.19
486.61	16992.29
486.78	17256.77
486.96	17530.61
487.14	17891.06
487.32	17984.68
487.50	17694.45
487.68	17853.61
487.85	18305.33
488.03	18246.82
488.21	18860.04
488.39	18644.71
488.57	19007.49
488.75	18916.21
488.92	19115.16
489.10	19136.22
489.28	19548.15
489.46	19339.85
489.64	19269.63
489.81	19889.87
489.99	19950.73
490.17	20081.80
490.35	20437.56
490.53	20093.50
490.70	20353.30
490.88	20348.62
491.06	20493.73
491.24	20690.34
491.41	21179.51
491.59	20957.16
491.77	21174.83
491.95	21420.58
492.13	21699.11
492.30	21432.29
492.48	21577.40
492.66	21928.48
492.84	21926.14
493.01	22148.49
493.19	22300.62
493.37	22298.28
493.54	22370.84
493.72	22450.42
493.90	22892.78
494.08	23040.23
494.25	23269.61
494.43	23112.79
494.61	23246.20
494.79	23463.87
494.96	23381.95
495.14	23660.48
495.32	24058.37
495.49	23838.36
495.67	24095.82
495.85	24198.80
496.02	24514.77
496.20	24556.90
496.38	24601.37
496.55	24821.38
496.73	24919.68
496.91	24968.84
497.09	25198.21
497.26	24950.11
497.44	25378.43
497.62	25462.69
497.79	25832.49
497.97	25542.27
498.14	25846.54
498.32	26010.37
498.50	26267.83
498.67	26277.19
498.85	25912.07
499.03	26642.32
499.20	26504.23
499.38	26609.55
499.56	27145.53
499.73	27065.96
499.91	26834.24
500.08	27257.88
500.26	26946.59
500.44	27021.48
500.61	27206.39
500.79	27431.08
500.97	27562.15
501.14	27850.03
501.32	27704.92
501.49	27796.20
501.67	27852.38
501.84	28376.66
502.02	28409.42
502.20	28098.13
502.37	28046.64
502.55	28280.69
502.72	28140.26
502.90	28748.80
503.07	28348.57
503.25	28872.85
503.43	28858.81
503.60	28788.59
503.78	28980.51
503.95	29078.82
504.13	29392.45
504.30	29514.16
504.48	29500.11
504.65	29500.11
504.83	29883.96
505.01	30017.37
505.18	29764.59
505.36	30029.07
505.53	30003.33
505.71	30026.73
505.88	30469.09
506.06	30298.23
506.23	30225.68
506.41	30429.30
506.58	31103.38
506.76	30735.92
506.93	30665.70
507.11	30590.80
507.28	30845.92
507.46	30920.82
507.63	31606.59
507.81	31440.42
507.98	30895.07
508.16	31634.68
508.33	31622.98
508.50	31599.57
508.68	31761.07
508.85	32023.21
509.03	32112.15
509.20	31952.99
509.38	32531.11
509.55	32341.52
509.73	32350.88
509.90	32725.37
510.08	32442.17
510.25	32465.57
510.42	32547.49
510.60	32786.22
510.77	32910.27
510.95	33160.71
511.12	32786.22
511.30	33057.73
511.47	33333.91
511.64	33472.00
511.82	33752.87
511.99	33287.10
512.17	33565.62
512.34	33537.54
512.51	33855.85
512.69	34389.49
512.86	34073.52
513.04	34581.42
513.21	34359.06
513.38	34272.46
513.56	34515.88
513.73	34483.11
513.90	34532.26
514.08	34443.32
514.25	34873.98
514.43	35002.71
514.60	34457.37
514.77	35033.14
514.95	35248.47
515.12	35091.65
515.29	34700.78
515.47	35281.24
515.64	35599.55
515.81	35229.74
515.99	35831.26
516.16	36004.46
516.33	35974.03
516.51	36135.53
516.68	35826.58
516.85	36418.74
517.03	36105.10
517.20	36341.50
517.37	35835.94
517.54	36446.82
517.72	36215.11
517.89	36364.90
518.06	36451.50
518.24	36458.52
518.41	36531.08
518.58	36409.37
518.75	36598.96
518.93	36917.27
519.10	37102.17
519.27	37523.47
519.45	37282.39
519.62	37322.18
519.79	37132.60
519.96	37202.82
520.14	37811.35
520.31	37467.30
520.48	37654.54
520.65	37544.53
520.83	38087.54
521.00	37879.23
521.17	38354.36
521.34	37926.04
521.52	37914.34
521.69	38036.05
521.86	38267.76
522.03	38431.60
522.20	38473.73
522.38	38520.54
522.55	38370.74
522.72	39009.71
522.89	38513.52
523.07	39456.75
523.24	38656.29
523.41	38986.30
523.58	38150.73
523.75	39445.05
523.92	38979.28
524.10	39185.25
524.27	39351.43
524.44	39388.88
524.61	39765.70
524.78	39440.37
524.96	39363.13
525.13	39915.50
525.30	40371.90
525.47	39761.02
525.64	40065.29
525.81	40091.04
525.98	39775.06
526.16	40477.22
526.33	39871.03
526.50	40629.36
526.67	40264.24
526.84	40753.41
527.01	40428.07
527.18	40926.61
527.36	41053.00
527.53	40746.39
527.70	40959.38
527.87	40643.40
528.04	40945.33
528.21	41294.07
528.38	41024.91
528.55	41425.14
528.72	41415.78
528.89	40814.26
529.07	41104.49
529.24	41209.81
529.41	40811.92
529.58	41104.49
529.75	41514.08
529.92	41928.36
530.09	41401.74
530.26	41738.77
530.43	41212.15
530.60	41071.72
530.77	41546.85
530.94	41486.00
531.11	42347.31
531.28	41989.21
531.46	42391.78
531.63	41984.53
531.80	42623.50
531.97	42541.58
532.14	42967.55
532.31	42050.06
532.48	42614.13
532.65	43047.13
532.82	42237.31
532.99	42916.06
533.16	42539.24
533.33	42930.11
533.50	42780.31
533.67	42515.83
533.84	42770.95
534.01	43058.84
534.18	43007.34
534.35	42990.96
534.52	42850.53
534.69	43562.05
534.86	43442.68
535.03	42733.50
535.20	43047.13
535.37	43136.07
535.54	43650.99
535.71	43775.04
535.88	43772.70
536.05	43629.93
536.22	43990.37
536.38	43629.93
536.55	43686.10
536.72	43751.63
536.89	43466.09
537.06	43927.17
537.23	44182.29
537.40	44044.20
537.57	44313.36
537.74	43992.71
537.91	44395.28
538.08	44341.45
538.25	43976.33
538.42	44072.29
538.59	44933.60
538.75	44318.04
538.92	44669.12
539.09	44729.98
539.26	45158.30
539.43	44547.42
539.60	44861.05
539.77	44741.68
539.94	44762.75
540.11	44872.75
540.28	44861.05
540.44	45202.77
540.61	45045.95
540.78	45081.06
540.95	45345.54
541.12	44795.51
541.29	45249.58
541.46	44947.65
541.62	44884.45
541.79	45546.82
541.96	45212.13
542.13	45258.94
542.30	45502.35
542.47	45532.78
542.63	45907.27
542.80	45872.16
542.97	46169.41
543.14	45865.14
543.31	46169.41
543.48	46057.06
543.64	46649.22
543.81	46492.40
543.98	46347.29
544.15	45921.31
544.32	46375.37
544.48	46815.40
544.65	46328.56
544.82	46316.86
544.99	46234.94
545.16	46539.21
545.32	46913.70
545.49	46803.69
545.66	46960.51
545.83	46691.35
546.00	46450.27
546.16	46602.41
546.33	46693.69
546.50	46775.61
546.67	46862.21
546.83	46206.86
547.00	46930.08
547.17	46997.96
547.34	46836.46
547.50	46876.25
547.67	47473.09
547.84	46925.40
548.00	47302.23
548.17	47660.33
548.34	47381.80
548.51	47697.78
548.67	47215.63
548.84	47447.34
549.01	47430.96
549.18	46799.01
549.34	47519.90
549.51	47084.56
549.68	47683.73
549.84	47941.19
550.01	47880.34
550.18	47241.37
550.34	47800.76
550.51	47767.99
550.68	47789.06
550.84	47264.78
551.01	47873.32
551.18	47718.84
551.34	47908.43
551.51	48343.77
551.68	48226.74
551.84	48158.86
552.01	47709.48
552.18	47995.03
552.34	47999.71
552.51	47980.98
552.68	47917.79
552.84	48367.17
553.01	48547.39
553.18	48673.78
553.34	48685.48
553.51	48418.66
553.67	48203.33
553.84	48257.17
554.01	48463.13
554.17	48334.40
554.34	48769.74
554.51	48495.90
554.67	49130.19
554.84	48898.47
555.00	48729.95
555.17	48619.95
555.33	48846.98
555.50	48369.51
555.67	48692.50
555.83	48594.20
556.00	48741.66
556.16	49254.23
556.33	49141.89
556.50	49013.16
556.66	49265.94
556.83	48926.56
556.99	48889.11
557.16	48968.69
557.32	48968.69
557.49	49282.32
557.65	49279.98
557.82	49518.71
557.98	49186.36
558.15	48889.11
558.32	49282.32
558.48	49448.50
558.65	49226.15
558.81	49256.57
558.98	49230.83
559.14	49059.97
559.31	49352.54
559.47	49574.89
559.64	49258.91
559.80	49205.08
559.97	49743.41
560.13	49317.43
560.30	49572.55
560.46	49546.80
560.63	49331.47
560.79	49263.60
560.96	49647.44
561.12	49773.83
561.29	49689.57
561.45	49783.19
561.61	49705.96
561.78	49977.46
561.94	49654.47
562.11	49708.30
562.27	49797.24
562.44	49490.63
562.60	49705.96
562.77	49818.30
562.93	49949.37
563.10	50064.06
563.26	49883.84
563.42	50265.34
563.59	49776.17
563.75	49837.03
563.92	49755.11
564.08	49961.08
564.24	49893.20
564.41	50014.91
564.57	50012.57
564.74	50167.04
564.90	50368.33
565.07	49743.41
565.23	49682.55
565.39	49703.62
565.56	50150.66
565.72	50192.79
565.88	49682.55
566.05	49989.16
566.21	50094.49
566.38	50108.53
566.54	50143.64
566.70	50061.72
566.87	50567.27
567.03	50153.00
567.19	50230.24
567.36	49991.50
567.52	50080.44
567.68	50618.77
567.85	50698.34
568.01	50532.17
568.17	50307.47
568.34	50581.32
568.50	50000.86
568.66	50042.99
568.83	50248.96
568.99	50354.29
569.15	50347.26
569.32	50656.21
569.48	50342.58
569.64	50527.48
569.81	50426.84
569.97	50251.30
570.13	50431.52
570.30	50305.13
570.46	50323.86
570.62	50129.59
570.78	50363.65
570.95	50431.52
571.11	50721.75
571.27	50333.22
571.43	50452.59
571.60	50597.70
571.76	50578.98
571.92	50368.33
572.09	50511.10
572.25	50796.65
572.41	50265.34
572.57	50527.48
572.74	51047.08
572.90	51007.29
573.06	50387.05
573.22	50745.15
573.38	50604.72
573.55	50611.74
573.71	50518.12
573.87	50382.37
574.03	50621.11
574.20	50707.71
574.36	50625.79
574.52	50637.49
574.68	50251.30
574.84	50937.08
575.01	50798.99
575.17	50710.05
575.33	50394.07
575.49	50461.95
575.65	51044.74
575.82	51164.11
575.98	50511.10
576.14	50564.93
576.30	50789.62
576.46	50822.39
576.62	50880.91
576.79	50951.12
576.95	50541.53
577.11	50761.54
577.27	50927.72
577.43	50829.41
577.59	50639.83
577.75	50635.15
577.92	50403.44
578.08	50703.03
578.24	51082.19
578.40	51498.81
578.56	51126.66
578.72	50932.40
578.88	50976.87
579.04	50911.33
579.21	50099.17
579.37	50920.70
579.53	51011.98
579.69	50490.04
579.85	51016.66
580.01	50752.18
580.17	50927.72
580.33	51091.55
580.49	50857.50
580.65	50983.89
580.82	50665.58
580.98	50611.74
581.14	50672.60
581.30	51260.07
581.46	51107.94
581.62	50976.87
581.78	50946.44
581.94	51033.04
582.10	50974.53
582.26	51121.98
582.42	50995.59
582.58	50787.28
582.74	51002.61
582.90	51224.96
583.06	50571.96
583.22	50775.58
583.38	51030.70
583.54	51084.53
583.70	50932.40
583.86	51171.13
584.02	50733.45
584.18	50901.97
584.34	51243.69
584.50	51409.87
584.66	51227.31
584.82	50719.41
584.98	51007.29
585.14	51250.71
585.30	50693.66
585.46	51096.24
585.62	51145.39
585.78	51079.85
585.94	50717.07
586.10	50815.37
586.26	50527.48
586.42	50993.25
586.58	51009.64
586.74	50850.48
586.90	51084.53
587.06	50951.12
587.22	51498.81
587.38	50934.74
587.54	51187.52
587.70	51330.29
587.86	51222.62
588.02	50930.06
588.18	51157.09
588.34	51304.54
588.49	51344.33
588.65	50969.85
588.81	51049.42
588.97	51414.55
589.13	51248.37
589.29	51414.55
589.45	51744.56
589.61	51276.46
589.77	51407.53
589.93	51253.05
590.08	51524.55
590.24	51409.87
590.40	51545.62
590.56	51597.11
590.72	51716.48
590.88	51400.50
591.04	51440.29
591.20	51510.51
591.35	51613.49
591.51	51723.50
591.67	51447.32
591.83	51662.64
591.99	51653.28
592.15	51700.09
592.31	51503.49
592.46	51552.64
592.62	51969.26
592.78	51700.09
592.94	51737.54
593.10	51442.63
593.26	51767.97
593.41	51856.91
593.57	51529.23
593.73	51842.87
593.89	51452.00
594.05	51667.33
594.20	51639.24
594.36	51826.48
594.52	51929.47
594.68	51765.63
594.84	51597.11
594.99	51906.06
595.15	51697.75
595.31	51770.31
595.47	51615.83
595.62	51306.88
595.78	51468.38
595.94	51695.41
596.10	51835.84
596.25	51849.89
596.41	51564.34
596.57	51779.67
596.73	52332.04
596.88	51978.62
597.04	52090.96
597.20	51384.12
597.36	51650.94
597.51	51931.81
597.67	51349.01
597.83	51690.73
597.99	51838.18
598.14	51870.95
598.30	51849.89
598.46	51742.22
598.61	51758.61
598.77	51894.36
598.93	51716.48
599.09	52072.24
599.24	51800.74
599.40	51723.50
599.56	51805.42
599.71	51437.95
599.87	52163.52
600.03	51931.81
600.18	51899.04
600.34	51728.18
600.50	51594.77
600.65	51800.74
600.81	51885.00
600.97	51887.34
601.12	51674.35
601.28	51704.77
601.44	51721.16
601.59	51894.36
601.75	51835.84
601.91	51896.70
602.06	51973.94
602.22	52004.36
602.37	51922.44
602.53	51697.75
602.69	52004.36
602.84	51709.46
603.00	51955.21
603.16	51632.22
603.31	51475.40
603.47	51800.74
603.62	51854.57
603.78	52516.94
603.94	51653.28
604.09	52165.86
604.25	52055.85
604.40	51819.46
604.56	51985.64
604.71	52062.88
604.87	51702.43
605.03	51407.53
605.18	51615.83
605.34	51695.41
605.49	51955.21
605.65	52046.49
605.80	51679.03
605.96	52083.94
606.12	51959.89
606.27	52093.30
606.43	51704.77
606.58	51676.69
606.74	51381.78
606.89	51428.59
607.05	51475.40
607.20	51763.29
607.36	51737.54
607.51	51800.74
607.67	51702.43
607.82	51554.98
607.98	51704.77
608.13	51601.79
608.29	51353.69
608.44	51613.49
608.60	51341.99
608.75	51402.85
608.91	51187.52
609.06	51421.57
609.22	51494.13
609.37	51189.86
609.53	51657.96
609.68	51697.75
609.84	51765.63
609.99	51683.71
610.15	51662.64
610.30	51377.10
610.46	51426.25
610.61	50993.25
610.76	51054.11
610.92	51220.28
611.07	51229.65
611.23	51168.79
611.38	51367.74
611.54	51650.94
611.69	51323.27
611.84	51461.36
612.00	51363.06
612.15	50911.33
612.31	51257.73
612.46	51260.07
612.62	51494.13
612.77	51121.98
612.92	51559.66
613.08	50637.49
613.23	51180.49
613.39	50958.14
613.54	51082.19
613.69	51250.71
613.85	51466.04
614.00	51255.39
614.15	51234.33
614.31	50981.55
614.46	51248.37
614.62	50670.26
614.77	50948.78
614.92	51164.11
615.08	51026.02
615.23	51072.83
615.38	51019.00
615.54	51110.28
615.69	51002.61
615.84	51166.45
616.00	51131.34
616.15	51084.53
616.30	51281.14
616.46	50803.67
616.61	50834.10
616.76	50480.67
616.92	50609.40
617.07	50302.79
617.22	50780.26
617.37	50176.40
617.53	51002.61
617.68	51107.94
617.83	50993.25
617.99	50831.75
618.14	50623.45
618.29	50604.72
618.45	50784.94
618.60	50759.20
618.75	50557.91
618.90	50351.94
619.06	50864.52
619.21	50557.91
619.36	50766.22
619.51	50440.89
619.67	50403.44
619.82	50422.16
619.97	50649.19
620.12	50232.58
620.28	49972.78
620.43	50380.03
620.58	50277.05
620.73	50347.26
620.89	50092.15
621.04	50260.66
621.19	50284.07
621.34	50452.59
621.49	50323.86
621.65	50162.36
621.80	50562.59
621.95	50405.78
622.10	50483.01
622.25	50300.45
622.41	49825.32
622.56	49830.01
622.71	50106.19
622.86	50440.89
623.01	50174.06
623.16	50124.91
623.32	50038.31
623.47	50164.70
623.62	50454.93
623.77	50316.84
623.92	50349.60
624.07	50295.77
624.23	50342.58
624.38	50443.23
624.53	50003.20
624.68	49610.00
624.83	49900.22
624.98	49822.98
625.13	49155.93
625.29	49521.05
625.44	49712.98
625.59	49748.09
625.74	49691.91
625.89	49680.21
626.04	49563.18
626.19	49478.92
626.34	49696.59
626.49	49689.57
626.65	49848.73
626.80	49830.01
626.95	49371.26
627.10	48896.13
627.25	49205.08
627.40	49432.11
627.55	49923.63
627.70	49097.42
627.85	49305.73
628.00	49478.92
628.15	49490.63
628.30	49738.72
628.45	49357.22
628.60	49167.63
628.76	49532.76
628.91	49078.69
629.06	49256.57
629.21	48858.68
629.36	48783.79
629.51	49003.80
629.66	49195.72
629.81	48954.64
629.96	49062.31
630.11	49041.24
630.26	48961.67
630.41	48872.73
630.56	49057.63
630.71	49139.55
630.86	48772.08
631.01	48896.13
631.16	48669.10
631.31	48430.36
631.46	48615.27
631.61	49036.56
631.76	48992.09
631.91	48821.23
632.06	48729.95
632.21	48622.29
632.36	49139.55
632.51	48233.76
632.66	48671.44
632.81	48360.15
632.96	48659.74
633.10	48428.02
633.25	48053.54
633.40	48449.09
633.55	48516.96
633.70	48697.19
633.85	48626.97
634.00	48500.58
634.15	48725.27
634.30	48538.03
634.45	48652.72
634.60	48072.26
634.75	48648.03
634.90	48208.01
635.05	48044.18
635.19	48355.47
635.34	48151.84
635.49	47969.28
635.64	47973.96
635.79	48582.50
635.94	48238.44
636.09	48215.04
636.24	48149.50
636.39	48287.59
636.53	48388.24
636.68	48186.95
636.83	48147.16
636.98	48222.06
637.13	47512.88
637.28	48523.99
637.43	48189.29
637.57	48025.45
637.72	48023.11
637.87	48278.23
638.02	47779.70
638.17	47524.58
638.32	48121.41
638.46	48156.52
638.61	47856.93
638.76	47859.27
638.91	47414.57
639.06	47938.85
639.20	47594.79
639.35	47491.81
639.50	47519.90
639.65	47124.35
639.80	47728.20
639.94	47459.04
640.09	47236.69
640.24	47590.11
640.39	47688.42
640.54	47667.35
640.68	47421.59
640.83	47655.65
640.98	47356.06
641.13	47112.64
641.27	47370.10
641.42	47283.50
641.57	47150.09
641.72	47075.19
641.86	46857.52
642.01	46953.49
642.16	47224.99
642.31	46761.56
642.45	47599.47
642.60	46993.28
642.75	47133.71
642.90	46841.14
643.04	47077.54
643.19	46616.45
643.34	46885.61
643.48	46775.61
643.63	46986.25
643.78	47220.31
643.93	46618.79
644.07	46689.01
644.22	46937.10
644.37	46635.17
644.51	46529.85
644.66	46955.83
644.81	47058.81
644.95	46887.95
645.10	46291.12
645.25	46894.97
645.39	46579.00
645.54	46948.81
645.69	46923.06
645.83	46665.60
645.98	46726.46
646.13	46529.85
646.27	46452.61
646.42	46394.10
646.57	46153.02
646.71	46384.74
646.86	46761.56
647.00	46618.79
647.15	46492.40
647.30	46806.03
647.44	46667.94
647.59	46529.85
647.74	46248.99
647.88	46389.42
648.03	46417.50
648.17	46031.32
648.32	45827.69
648.47	46026.63
648.61	46206.86
648.76	46445.59
648.90	46134.30
649.05	46286.43
649.20	46368.35
649.34	46433.89
649.49	46068.76
649.63	46120.26
649.78	46464.32
649.92	46026.63
650.07	46195.15
650.21	46040.68
650.36	46129.62
650.51	45467.25
650.65	45722.37
650.80	45605.34
650.94	45607.68
651.09	45748.11
651.23	45242.56
651.38	45614.70
651.52	45879.18
651.67	45698.96
651.81	45734.07
651.96	45544.48
652.10	45691.94
652.25	45162.98
652.39	45998.55
652.54	45453.20
652.68	45516.40
652.83	45542.14
652.97	45720.02
653.12	45177.02
653.26	45624.06
653.41	45689.60
653.55	45312.77
653.70	45434.48
653.84	45771.52
653.99	45748.11
654.13	45420.44
654.27	45104.46
654.42	45570.23
654.56	45109.14
654.71	44708.91
654.85	45055.31
655.00	45104.46
655.14	45006.16
655.29	44701.89
655.43	45256.60
655.57	44669.12
655.72	45153.62
655.86	45249.58
656.01	45165.32
656.15	44729.98
656.30	45160.64
656.44	45326.81
656.58	44680.83
656.73	44626.99
656.87	44680.83
657.01	44219.74
657.16	44528.69
657.30	44655.08
657.45	44582.52
657.59	44479.54
657.73	44399.96
657.88	44435.07
658.02	44311.02
658.16	44282.94
658.31	44458.48
658.45	44659.76
658.60	44320.38
658.74	43796.10
658.88	43878.02
659.03	44020.80
659.17	44037.18
659.31	43948.24
659.46	43742.27
659.60	43784.40
659.74	43964.62
659.89	43728.23
660.03	43737.59
660.17	43889.73
660.32	43524.60
660.46	43892.07
660.60	44168.25
660.74	43847.60
660.89	43592.48
661.03	43676.74
661.17	43381.83
661.32	43229.69
661.46	43531.62
661.60	43391.19
661.74	43068.20
661.89	43407.58
662.03	43320.98
662.17	43030.75
662.31	42794.36
662.46	43264.80
662.60	43058.84
662.74	43005.00
662.88	42679.67
663.03	43379.49
663.17	42761.59
663.31	42841.17
663.45	42878.61
663.60	42784.99
663.74	42356.67
663.88	42377.74
664.02	42272.42
664.17	42387.10
664.31	42370.72
664.45	42277.10
664.59	42284.12
664.73	42593.07
664.88	42703.07
665.02	42120.28
665.16	42759.25
665.30	42642.22
665.44	42293.48
665.59	41846.44
665.73	42174.11
665.87	41993.89
666.01	41916.65
666.15	41867.50
666.29	41741.11
666.44	41717.71
666.58	41486.00
666.72	41397.06
666.86	41621.75
667.00	41462.59
667.14	41350.24
667.28	41542.17
667.43	41060.02
667.57	41560.89
667.71	41345.56
667.85	41343.22
667.99	41326.84
668.13	41471.95
668.27	41024.91
668.41	41296.41
668.56	40713.62
668.70	40502.97
668.84	40442.12
668.98	40627.02
669.12	40350.84
669.26	40456.16
669.40	40460.84
669.54	40676.17
669.68	40662.13
669.82	40517.01
669.96	40570.85
670.10	40098.06
670.25	40301.68
670.39	40601.27
670.53	39845.28
670.67	40297.00
670.81	40105.08
670.95	39732.93
671.09	39328.02
671.23	39557.39
671.37	39206.31
671.51	39126.74
671.65	39391.22
671.79	39089.29
671.93	39105.67
672.07	39653.36
672.21	39487.18
672.35	39028.43
672.49	39201.63
672.63	39225.04
672.77	39119.71
672.91	39068.22
673.05	39079.92
673.19	38930.13
673.33	38670.33
673.47	38572.03
673.61	38632.88
673.75	38192.86
673.89	38665.65
674.03	38237.33
674.17	38199.88
674.31	38176.48
674.45	38071.15
674.59	38061.79
674.73	38265.42
674.87	37977.53
675.01	38057.11
675.15	37886.25
675.29	37703.69
675.43	37834.76
675.56	37368.99
675.70	37476.66
675.84	37432.19
675.98	36238.51
676.12	37195.79
676.26	36975.78
676.40	36734.71
676.54	36786.20
676.68	36648.11
676.82	36521.72
676.96	36788.54
677.10	37078.77
677.23	36638.75
677.37	36715.98
677.51	36694.92
677.65	36582.57
677.79	36231.49
677.93	35929.56
678.07	35871.05
678.21	35660.40
678.34	35381.88
678.48	35409.96
678.62	34991.01
678.76	34848.24
678.90	35136.12
679.04	35283.58
679.18	35222.72
679.31	34625.89
679.45	34937.18
679.59	35260.17
679.73	34703.12
679.87	35040.16
680.00	34771.00
680.14	34270.12
680.28	34511.20
680.42	34239.70
680.56	33942.45
680.70	33481.36
680.83	33628.82
680.97	33883.94
681.11	33425.19
681.25	33619.46
681.39	33783.29
681.52	33696.69
681.66	33509.45
681.80	33364.34
681.94	33146.67
682.07	33467.32
682.21	33156.03
682.35	32964.10
682.49	32624.73
682.62	32503.02
682.76	32690.26
682.90	32645.79
683.04	32453.87
683.17	31962.36
683.31	32240.88
683.45	31922.57
683.59	32182.37
683.72	31988.10
683.86	31260.20
684.00	31744.69
684.13	31826.60
684.27	31917.89
684.41	31365.52
684.55	31625.32
684.68	31742.35
684.82	31562.12
684.96	31321.05
685.09	30888.05
685.23	30164.82
685.37	30972.31
685.50	30892.73
685.64	30487.82
685.78	30436.33
685.91	30476.12
686.05	30302.92
686.19	29947.15
686.32	30155.46
686.46	30127.38
686.60	29532.88
686.73	30010.35
686.87	29715.44
687.01	30071.20
687.14	29647.57
687.28	29685.01
687.42	29619.48
687.55	29649.91
687.69	29788.00
687.82	29366.70
687.96	29158.39
688.10	28786.25
688.23	28687.95
688.37	28484.32
688.50	28500.70
688.64	28114.52
688.78	28315.80
688.91	27950.68
689.05	28601.35
689.18	28013.87
689.32	27463.85
689.46	27733.01
689.59	28421.13
689.73	27821.95
689.86	27931.95
690.00	27917.91
690.13	27981.10
690.27	27370.22
690.41	27557.47
690.54	26888.07
690.68	27035.53
690.81	27075.32
690.95	26852.97
691.08	26511.25
691.22	26639.98
691.35	26733.60
691.49	26993.40
691.62	26689.13
691.76	26356.77
691.89	26555.72
692.03	26171.87
692.16	26003.35
692.30	25986.97
692.43	26012.71
692.57	25886.32
692.70	25921.43
692.84	25914.41
692.97	25226.29
693.11	25406.52
693.24	24947.77
693.38	24957.13
693.51	25003.94
693.65	24985.22
693.78	24959.47
693.92	25099.90
694.05	24755.85
694.19	24898.62
694.32	24446.90
694.45	24697.33
694.59	24299.44
694.72	24126.24
694.86	24620.10
694.99	24287.74
695.13	24542.86
695.26	24067.73
695.39	23782.18
695.53	23992.83
695.66	23740.05
695.80	22993.42
695.93	23428.76
696.07	22773.41
696.20	22960.66
696.33	23056.62
696.47	22881.08
696.60	23105.77
696.73	22934.91
696.87	23058.96
697.00	22834.27
697.14	22665.75
697.27	22326.37
697.40	22448.08
697.54	22548.72
697.67	22700.86
697.80	22244.45
697.94	22232.75
698.07	21844.22
698.21	21692.08
698.34	21544.63
698.47	21680.38
698.61	21233.34
698.74	21193.55
698.87	21532.93
699.01	20936.09
699.14	21074.18
699.27	21142.06
699.40	21020.35
699.54	21064.82
699.67	20725.44
699.80	20816.72
699.94	20570.97
700.07	20772.25
700.20	20835.45
700.34	20613.10
700.47	20222.23
700.60	20386.07
700.73	20084.14
700.87	20290.10
701.00	20088.82
701.13	19726.04
701.26	19995.20
701.40	19527.09
701.53	19393.68
701.66	19424.11
701.79	19321.12
701.93	19510.71
702.06	19349.21
702.19	19267.29
702.32	19419.42
702.46	19412.40
702.59	19166.65
702.72	18906.85
702.85	19056.64
702.99	18757.05
703.12	18738.33
703.25	18588.53
703.38	18518.32
703.51	18270.22
703.65	18434.06
703.78	17937.87
703.91	17851.27
704.04	17951.91
704.17	17806.80
704.31	18113.41
704.44	17563.38
704.57	17607.85
704.70	17743.60
704.83	17809.14
704.96	17813.82
705.10	17444.01
705.23	17624.23
>>>>>End Processed Spectral Data<<<<<
