SpectraSuite Data File
++++++++++++++++++++++++++++++++++++
Date: Fri Oct 04 11:39:52 GMT-05:00 2013
User: price-jones
Dark Spectrum Present: No
Reference Spectrum Present: No
Number of Sampled Component Spectra: 1
Spectrometers: USB2+H05261
Integration Time (usec): 100000 (USB2+H05261)
Spectra Averaged: 1 (USB2+H05261)
Boxcar Smoothing: 0 (USB2+H05261)
Correct for Electrical Dark: No (USB2+H05261)
Strobe/Lamp Enabled: No (USB2+H05261)
Correct for Detector Non-linearity: No (USB2+H05261)
Correct for Stray Light: No (USB2+H05261)
Number of Pixels in Processed Spectrum: 2048
>>>>>Begin Processed Spectral Data<<<<<
365.73	25.75
365.92	25.75
366.12	25.75
366.32	0.00
366.52	0.00
366.72	16.38
366.91	0.00
367.11	0.00
367.31	0.00
367.51	0.00
367.70	0.00
367.90	0.00
368.10	0.00
368.30	0.00
368.49	0.00
368.69	0.00
368.89	0.00
369.09	0.00
369.28	0.00
369.48	0.00
369.68	0.00
369.87	0.00
370.07	4.68
370.27	4.68
370.47	0.00
370.66	7.02
370.86	56.17
371.06	119.37
371.25	102.98
371.45	46.81
371.65	88.94
371.84	93.62
372.04	170.86
372.24	135.75
372.44	145.11
372.63	177.88
372.83	95.96
373.03	81.92
373.22	98.30
373.42	121.71
373.62	173.20
373.81	229.37
374.01	191.92
374.21	180.22
374.40	154.48
374.60	191.92
374.79	161.50
374.99	145.11
375.19	173.20
375.38	128.73
375.58	124.05
375.78	170.86
375.97	149.79
376.17	194.26
376.37	147.45
376.56	51.49
376.76	156.82
376.95	119.37
377.15	177.88
377.35	126.39
377.54	145.11
377.74	145.11
377.93	161.50
378.13	131.07
378.33	133.41
378.52	74.90
378.72	133.41
378.91	142.77
379.11	100.64
379.31	140.43
379.50	131.07
379.70	117.03
379.89	138.09
380.09	180.22
380.28	168.52
380.48	105.32
380.68	102.98
380.87	9.36
381.07	32.77
381.26	145.11
381.46	135.75
381.65	166.18
381.85	147.45
382.04	117.03
382.24	184.90
382.43	98.30
382.63	114.69
382.83	65.54
383.02	168.52
383.22	166.18
383.41	70.22
383.61	100.64
383.80	88.94
384.00	102.98
384.19	100.64
384.39	147.45
384.58	133.41
384.78	138.09
384.97	159.16
385.17	114.69
385.36	117.03
385.56	154.48
385.75	170.86
385.95	102.98
386.14	203.63
386.34	112.35
386.53	154.48
386.72	154.48
386.92	60.85
387.11	84.26
387.31	175.54
387.50	128.73
387.70	121.71
387.89	114.69
388.09	107.66
388.28	182.56
388.48	110.01
388.67	203.63
388.86	67.88
389.06	84.26
389.25	105.32
389.45	152.13
389.64	117.03
389.84	156.82
390.03	194.26
390.22	154.48
390.42	145.11
390.61	147.45
390.81	166.18
391.00	124.05
391.19	110.01
391.39	119.37
391.58	121.71
391.78	135.75
391.97	140.43
392.16	128.73
392.36	220.01
392.55	170.86
392.75	159.16
392.94	147.45
393.13	140.43
393.33	88.94
393.52	154.48
393.71	234.05
393.91	117.03
394.10	180.22
394.29	126.39
394.49	182.56
394.68	131.07
394.88	201.29
395.07	222.35
395.26	156.82
395.46	121.71
395.65	102.98
395.84	149.79
396.04	252.78
396.23	173.20
396.42	156.82
396.62	133.41
396.81	102.98
397.00	170.86
397.19	220.01
397.39	245.76
397.58	184.90
397.77	112.35
397.97	121.71
398.16	119.37
398.35	100.64
398.55	107.66
398.74	133.41
398.93	222.35
399.12	203.63
399.32	135.75
399.51	191.92
399.70	234.05
399.90	166.18
400.09	124.05
400.28	154.48
400.47	145.11
400.67	259.80
400.86	194.26
401.05	189.58
401.24	180.22
401.44	177.88
401.63	220.01
401.82	159.16
402.01	147.45
402.21	184.90
402.40	177.88
402.59	266.82
402.78	205.97
402.97	203.63
403.17	191.92
403.36	264.48
403.55	173.20
403.74	222.35
403.93	184.90
404.13	285.55
404.32	290.23
404.51	311.29
404.70	276.18
404.89	212.99
405.09	208.31
405.28	180.22
405.47	229.37
405.66	196.60
405.85	180.22
406.05	161.50
406.24	285.55
406.43	278.52
406.62	292.57
406.81	248.10
407.00	266.82
407.20	252.78
407.39	301.93
407.58	205.97
407.77	210.65
407.96	257.46
408.15	271.50
408.34	266.82
408.54	212.99
408.73	224.69
408.92	250.44
409.11	234.05
409.30	201.29
409.49	168.52
409.68	243.42
409.87	278.52
410.07	276.18
410.26	227.03
410.45	276.18
410.64	163.84
410.83	334.70
411.02	308.95
411.21	229.37
411.40	358.10
411.59	238.73
411.78	290.23
411.98	264.48
412.17	285.55
412.36	215.33
412.55	271.50
412.74	255.12
412.93	351.08
413.12	271.50
413.31	280.86
413.50	355.76
413.69	346.40
413.88	334.70
414.07	348.74
414.26	283.20
414.45	287.89
414.64	212.99
414.83	374.49
415.02	362.78
415.22	318.31
415.41	330.02
415.60	318.31
415.79	318.31
415.98	360.44
416.17	402.57
416.36	304.27
416.55	369.80
416.74	355.76
416.93	362.78
417.12	355.76
417.31	320.65
417.50	362.78
417.69	437.68
417.88	360.44
418.07	318.31
418.26	397.89
418.45	428.32
418.64	418.96
418.83	393.21
419.02	447.04
419.21	379.17
419.39	381.51
419.58	344.06
419.77	374.49
419.96	404.91
420.15	454.06
420.34	320.65
420.53	383.85
420.72	346.40
420.91	435.34
421.10	376.83
421.29	456.40
421.48	456.40
421.67	355.76
421.86	454.06
422.05	430.66
422.24	468.11
422.43	397.89
422.61	362.78
422.80	456.40
422.99	416.62
423.18	458.74
423.37	388.53
423.56	496.19
423.75	414.27
423.94	395.55
424.13	395.55
424.32	393.21
424.50	458.74
424.69	437.68
424.88	458.74
425.07	451.72
425.26	383.85
425.45	374.49
425.64	425.98
425.83	433.00
426.01	407.25
426.20	409.59
426.39	411.93
426.58	470.45
426.77	444.70
426.96	451.72
427.15	463.43
427.33	451.72
427.52	496.19
427.71	381.51
427.90	418.96
428.09	465.77
428.28	440.02
428.46	425.98
428.65	425.98
428.84	468.11
429.03	538.32
429.22	449.38
429.40	386.19
429.59	421.30
429.78	512.58
429.97	514.92
430.16	498.53
430.34	435.34
430.53	440.02
430.72	442.36
430.91	484.49
431.10	425.98
431.28	451.72
431.47	543.00
431.66	512.58
431.85	477.47
432.03	531.30
432.22	587.47
432.41	435.34
432.60	557.05
432.79	456.40
432.97	458.74
433.16	463.43
433.35	486.83
433.54	456.40
433.72	519.60
433.91	489.17
434.10	559.39
434.28	517.26
434.47	545.34
434.66	526.62
434.85	489.17
435.03	531.30
435.22	805.14
435.41	985.37
435.59	990.05
435.78	837.91
435.97	660.03
436.16	601.52
436.34	587.47
436.53	531.30
436.72	594.50
436.90	561.73
437.09	545.34
437.28	578.11
437.46	505.56
437.65	500.87
437.84	608.54
438.02	517.26
438.21	622.58
438.40	535.98
438.58	564.07
438.77	528.96
438.96	528.96
439.14	528.96
439.33	503.22
439.52	613.22
439.70	568.75
439.89	578.11
440.08	568.75
440.26	578.11
440.45	631.94
440.63	613.22
440.82	575.77
441.01	540.66
441.19	552.37
441.38	631.94
441.57	645.99
441.75	587.47
441.94	730.25
442.12	603.86
442.31	690.46
442.50	610.88
442.68	624.92
442.87	500.87
443.05	561.73
443.24	681.10
443.43	636.63
443.61	627.26
443.80	685.78
443.98	699.82
444.17	678.76
444.35	629.60
444.54	664.71
444.73	608.54
444.91	671.73
445.10	620.24
445.28	596.84
445.47	631.94
445.65	603.86
445.84	606.20
446.02	634.29
446.21	674.07
446.39	638.97
446.58	566.41
446.77	638.97
446.95	669.39
447.14	695.14
447.32	657.69
447.51	685.78
447.69	650.67
447.88	674.07
448.06	662.37
448.25	746.63
448.43	695.14
448.62	676.41
448.80	695.14
448.99	662.37
449.17	664.71
449.36	730.25
449.54	746.63
449.73	674.07
449.91	702.16
450.10	641.31
450.28	807.48
450.46	746.63
450.65	751.31
450.83	746.63
451.02	629.60
451.20	704.50
451.39	713.86
451.57	627.26
451.76	704.50
451.94	753.65
452.13	772.38
452.31	732.59
452.49	713.86
452.68	643.65
452.86	711.52
453.05	739.61
453.23	781.74
453.42	760.67
453.60	688.12
453.78	699.82
453.97	741.95
454.15	718.54
454.34	795.78
454.52	791.10
454.70	755.99
454.89	786.42
455.07	744.29
455.26	725.57
455.44	826.21
455.62	720.88
455.81	758.33
455.99	791.10
456.17	746.63
456.36	770.04
456.54	793.44
456.73	741.95
456.91	730.25
457.09	744.29
457.28	823.87
457.46	713.86
457.64	812.17
457.83	770.04
458.01	774.72
458.19	854.30
458.38	727.91
458.56	861.32
458.74	816.85
458.93	814.51
459.11	812.17
459.29	774.72
459.48	748.97
459.66	889.40
459.84	870.68
460.03	898.77
460.21	798.12
460.39	812.17
460.57	781.74
460.76	849.61
460.94	873.02
461.12	901.11
461.31	891.74
461.49	891.74
461.67	737.27
461.85	851.96
462.04	732.59
462.22	1268.57
462.40	821.53
462.59	828.55
462.77	777.06
462.95	887.06
463.13	847.27
463.32	809.83
463.50	894.08
463.68	880.04
463.86	887.06
464.05	851.96
464.23	870.68
464.41	933.87
464.59	863.66
464.78	833.23
464.96	767.70
465.14	830.89
465.32	894.08
465.50	866.00
465.69	894.08
465.87	933.87
466.05	854.30
466.23	851.96
466.41	894.08
466.60	898.77
466.78	866.00
466.96	973.66
467.14	875.36
467.32	882.38
467.51	868.34
467.69	891.74
467.87	987.71
468.05	933.87
468.23	884.72
468.41	812.17
468.60	908.13
468.78	877.70
468.96	912.81
469.14	933.87
469.32	868.34
469.50	800.46
469.69	985.37
469.87	908.13
470.05	980.68
470.23	922.17
470.41	947.92
470.59	912.81
470.77	999.41
470.95	980.68
471.14	1008.77
471.32	919.83
471.50	1027.50
471.68	961.96
471.86	1041.54
472.04	978.34
472.22	1001.75
472.40	919.83
472.58	924.51
472.77	966.64
472.95	957.28
473.13	1090.69
473.31	997.07
473.49	1001.75
473.67	924.51
473.85	990.05
474.03	994.73
474.21	1013.45
474.39	1034.52
474.57	1008.77
474.75	987.71
474.93	1020.47
475.12	971.32
475.30	971.32
475.48	1032.18
475.66	1034.52
475.84	1097.71
476.02	1001.75
476.20	1088.35
476.38	1057.92
476.56	1196.01
476.74	1118.78
476.92	1128.14
477.10	1022.81
477.28	1146.86
477.46	1144.52
477.64	1207.72
477.82	1132.82
478.00	1116.44
478.18	1146.86
478.36	1170.27
478.54	1121.12
478.72	1226.44
478.90	1165.59
479.08	1203.04
479.26	1174.95
479.44	1205.38
479.62	1193.67
479.80	1153.88
479.98	1146.86
480.16	1273.25
480.34	1198.35
480.52	1231.12
480.70	1268.57
480.88	1249.85
481.06	1315.38
481.24	1294.32
481.41	1235.80
481.59	1256.87
481.77	1392.62
481.95	1266.23
482.13	1345.81
482.31	1364.53
482.49	1263.89
482.67	1336.45
482.85	1409.00
483.03	1439.43
483.21	1458.15
483.39	1423.05
483.57	1387.94
483.74	1533.05
483.92	1418.36
484.10	1413.68
484.28	1401.98
484.46	1563.48
484.64	1413.68
484.82	1507.30
485.00	1507.30
485.18	1549.43
485.35	1659.44
485.53	1523.69
485.71	1511.99
485.89	1558.80
486.07	1551.78
486.25	1577.52
486.43	1584.54
486.61	1537.73
486.78	1612.63
486.96	1561.14
487.14	1624.33
487.32	1673.48
487.50	1633.69
487.68	1610.29
487.85	1633.69
488.03	1713.27
488.21	1739.02
488.39	1732.00
488.57	1717.95
488.75	1692.21
488.92	2047.97
489.10	1928.60
489.28	1830.30
489.46	1804.55
489.64	1781.15
489.81	1863.07
489.99	1851.36
490.17	1806.89
490.35	1902.86
490.53	1825.62
490.70	1734.34
490.88	1820.94
491.06	1799.87
491.24	1823.28
491.41	1898.17
491.59	1860.73
491.77	1806.89
491.95	1928.60
492.13	1954.35
492.30	2111.16
492.48	1947.33
492.66	1994.14
492.84	1930.94
493.01	1970.73
493.19	1975.41
493.37	1916.90
493.54	1949.67
493.72	1923.92
493.90	2005.84
494.08	1975.41
494.25	2022.22
494.43	1947.33
494.61	2125.21
494.79	1984.77
494.96	2050.31
495.14	1980.09
495.32	2073.71
495.49	2087.76
495.67	2141.59
495.85	2139.25
496.02	2122.87
496.20	2069.03
496.38	2134.57
496.55	2275.00
496.73	2225.85
496.91	2115.84
497.09	2200.10
497.26	2209.47
497.44	2062.01
497.62	2188.40
497.79	2033.93
497.97	2237.55
498.14	2342.88
498.32	2277.34
498.50	2368.62
498.67	2211.81
498.85	2235.21
499.03	2291.38
499.20	2263.30
499.38	2377.98
499.56	2263.30
499.73	2354.58
499.91	2298.41
500.08	2361.60
500.26	2296.07
500.44	2317.13
500.61	2349.90
500.79	2279.68
500.97	2445.86
501.14	2483.31
501.32	2445.86
501.49	2389.69
501.67	2324.15
501.84	2340.54
502.02	2319.47
502.20	2385.01
502.37	2476.29
502.55	2260.96
502.72	2385.01
502.90	2431.82
503.07	2417.77
503.25	2457.56
503.43	2455.22
503.60	2434.16
503.78	2345.22
503.95	2480.97
504.13	2406.07
504.30	2443.52
504.48	2509.05
504.65	2541.82
504.83	2523.10
505.01	2511.39
505.18	2520.76
505.36	2518.42
505.53	2502.03
505.71	2356.92
505.88	2520.76
506.06	2513.74
506.23	2602.68
506.41	2675.23
506.58	2605.02
506.76	2492.67
506.93	2579.27
507.11	2619.06
507.28	2616.72
507.46	2698.64
507.63	2609.70
507.81	2530.12
507.98	2569.91
508.16	2534.80
508.33	2569.91
508.50	2649.49
508.68	2686.94
508.85	2597.99
509.03	2693.96
509.20	2621.40
509.38	2794.60
509.55	2801.62
509.73	2766.51
509.90	2928.01
510.08	2689.28
510.25	2736.09
510.42	2644.81
510.60	2778.22
510.77	2719.70
510.95	2829.71
511.12	2693.96
511.30	2724.38
511.47	2792.26
511.64	2923.33
511.82	2743.11
511.99	2806.30
512.17	2796.94
512.34	2808.64
512.51	2925.67
512.69	2757.15
512.86	2899.92
513.04	2916.31
513.21	2876.52
513.38	2703.32
513.56	2895.24
513.73	2766.51
513.90	2869.50
514.08	2836.73
514.25	2850.77
514.43	3030.99
514.60	2928.01
514.77	2883.54
514.95	2995.89
515.12	2888.22
515.29	2867.16
515.47	2808.64
515.64	2963.12
515.81	3059.08
515.99	2963.12
516.16	2991.20
516.33	2965.46
516.51	2970.14
516.68	2897.58
516.85	2965.46
517.03	3007.59
517.20	3077.80
517.37	2998.23
517.54	2977.16
517.72	3012.27
517.89	3007.59
518.06	2977.16
518.24	2953.76
518.41	3098.87
518.58	3185.47
518.75	2956.10
518.93	3040.36
519.10	3089.51
519.27	2993.55
519.45	3054.40
519.62	3129.30
519.79	3073.12
519.96	3101.21
520.14	3162.06
520.31	3108.23
520.48	3110.57
520.65	3260.37
520.83	3206.53
521.00	3108.23
521.17	3054.40
521.34	3117.59
521.52	3166.74
521.69	3073.12
521.86	3089.51
522.03	3199.51
522.20	3192.49
522.38	3124.62
522.55	3169.09
522.72	3169.09
522.89	3229.94
523.07	3332.92
523.24	3288.45
523.41	3300.16
523.58	3251.00
523.75	3185.47
523.92	3255.69
524.10	3358.67
524.27	3370.37
524.44	3162.06
524.61	3314.20
524.78	3185.47
524.96	3269.73
525.13	3269.73
525.30	3368.03
525.47	3323.56
525.64	3412.50
525.81	3279.09
525.98	3314.20
526.16	3309.52
526.33	3304.84
526.50	3293.13
526.67	3201.85
526.84	3314.20
527.01	3403.14
527.18	3276.75
527.36	3403.14
527.53	3452.29
527.70	3452.29
527.87	3302.50
528.04	3361.01
528.21	3379.73
528.38	3405.48
528.55	3487.40
528.72	3375.05
528.89	3405.48
529.07	3515.48
529.24	3361.01
529.41	3473.36
529.58	3344.63
529.75	3353.99
529.92	3309.52
530.09	3426.54
530.26	3513.14
530.43	3440.59
530.60	3414.84
530.77	3454.63
530.94	3473.36
531.11	3435.91
531.28	3492.08
531.46	3339.94
531.63	3545.91
531.80	3496.76
531.97	3550.59
532.14	3375.05
532.31	3433.57
532.48	3513.14
532.65	3510.80
532.82	3515.48
532.99	3578.68
533.16	3386.76
533.33	3459.31
533.50	3613.79
533.67	3583.36
533.84	3592.72
534.01	3456.97
534.18	3475.70
534.35	3400.80
534.52	3445.27
534.69	3665.28
534.86	3709.75
535.03	3487.40
535.20	3583.36
535.37	3548.25
535.54	3529.53
535.71	3637.19
535.88	3606.77
536.05	3574.00
536.22	3669.96
536.38	3625.49
536.55	3735.50
536.72	3700.39
536.89	3627.83
537.06	3691.02
537.23	3768.26
537.40	3630.17
537.57	3616.13
537.74	3758.90
537.91	3728.47
538.08	3679.32
538.25	3698.05
538.42	3777.62
538.59	3707.41
538.75	3648.90
538.92	3665.28
539.09	3742.52
539.26	3737.84
539.43	3929.76
539.60	3763.58
539.77	3754.22
539.94	3847.84
540.11	3831.46
540.28	3871.25
540.44	3936.78
540.61	3983.59
540.78	3904.01
540.95	4135.73
541.12	4117.00
541.29	4133.39
541.46	4301.90
541.62	4276.16
541.79	4194.24
541.96	4248.07
542.13	4135.73
542.30	4229.35
542.47	4205.94
542.63	4215.30
542.80	4121.68
542.97	4227.01
543.14	4229.35
543.31	4297.22
543.48	4257.43
543.64	4264.46
543.81	4234.03
543.98	4184.88
544.15	4203.60
544.32	4301.90
544.48	4212.96
544.65	4081.89
544.82	4208.28
544.99	4287.86
545.16	4196.58
545.32	4329.99
545.49	4622.56
545.66	5022.79
545.83	5249.82
546.00	5156.20
546.16	4683.41
546.33	4318.29
546.50	4138.07
546.67	4105.30
546.83	4044.45
547.00	4063.17
547.17	4152.11
547.34	4011.68
547.50	4149.77
547.67	4049.13
547.84	4067.85
548.00	4147.43
548.17	4117.00
548.34	3960.19
548.51	4138.07
548.67	4058.49
548.84	3976.57
549.01	4077.21
549.18	4067.85
549.34	4109.98
549.51	4119.34
549.68	4035.08
549.84	4063.17
550.01	4063.17
550.18	4028.06
550.34	3981.25
550.51	3946.14
550.68	4154.45
550.84	3904.01
551.01	3983.59
551.18	3960.19
551.34	3969.55
551.51	3833.80
551.68	3889.97
551.84	4004.66
552.01	4067.85
552.18	3852.52
552.34	3901.67
552.51	3920.40
552.68	4109.98
552.84	3946.14
553.01	3985.93
553.18	4016.36
553.34	4107.64
553.51	3953.16
553.67	4030.40
553.84	4004.66
554.01	4067.85
554.17	4201.26
554.34	3822.09
554.51	3950.82
554.67	3922.74
554.84	3936.78
555.00	3988.27
555.17	3971.89
555.33	3955.51
555.50	3894.65
555.67	3990.61
555.83	3901.67
556.00	4037.42
556.16	4170.83
556.33	3941.46
556.50	4042.11
556.66	3969.55
556.83	3913.38
556.99	4025.72
557.16	3957.85
557.32	3971.89
557.49	4051.47
557.65	3911.04
557.82	3936.78
557.98	3995.29
558.15	4030.40
558.32	3904.01
558.48	3990.61
558.65	3929.76
558.81	3873.59
558.98	3927.42
559.14	4035.08
559.31	3971.89
559.47	3969.55
559.64	4030.40
559.80	4030.40
559.97	3925.08
560.13	4009.34
560.30	3983.59
560.46	3985.93
560.63	4072.53
560.79	3892.31
560.96	4079.55
561.12	3805.71
561.29	3934.44
561.45	3878.27
561.61	3985.93
561.78	4014.02
561.94	3971.89
562.11	4112.32
562.27	4051.47
562.44	4011.68
562.60	3967.21
562.77	3950.82
562.93	4030.40
563.10	4088.92
563.26	3936.78
563.42	4070.19
563.59	3882.95
563.75	3981.25
563.92	4112.32
564.08	4056.15
564.24	4046.79
564.41	4119.34
564.57	3941.46
564.74	3845.50
564.90	3997.64
565.07	3946.14
565.23	3974.23
565.39	3878.27
565.56	4077.21
565.72	3784.65
565.88	3873.59
566.05	4032.74
566.21	3840.82
566.38	4051.47
566.54	4046.79
566.70	4079.55
566.87	3936.78
567.03	4016.36
567.19	4044.45
567.36	3976.57
567.52	3948.48
567.68	4053.81
567.85	3999.98
568.01	4009.34
568.17	3918.06
568.34	4079.55
568.50	4107.64
568.66	3969.55
568.83	4091.26
568.99	3983.59
569.15	3962.53
569.32	3927.42
569.48	3948.48
569.64	3852.52
569.81	3999.98
569.97	3955.51
570.13	4044.45
570.30	3927.42
570.46	3995.29
570.62	4065.51
570.78	3932.10
570.95	4053.81
571.11	3929.76
571.27	3918.06
571.43	3957.85
571.60	4011.68
571.76	4149.77
571.92	4084.23
572.09	3955.51
572.25	3871.25
572.41	4007.00
572.57	3999.98
572.74	3997.64
572.90	4004.66
573.06	3969.55
573.22	3978.91
573.38	4030.40
573.55	4060.83
573.71	3992.95
573.87	4107.64
574.03	4042.11
574.20	3985.93
574.36	3948.48
574.52	4035.08
574.68	3985.93
574.84	3995.29
575.01	4037.42
575.17	3981.25
575.33	4088.92
575.49	4084.23
575.65	3995.29
575.82	4039.76
575.98	4051.47
576.14	3873.59
576.30	3992.95
576.46	4121.68
576.62	4173.18
576.79	4170.83
576.95	4227.01
577.11	4212.96
577.27	4053.81
577.43	4032.74
577.59	4067.85
577.75	3969.55
577.92	4035.08
578.08	4018.70
578.24	3990.61
578.40	4025.72
578.56	4322.97
578.72	4397.87
578.88	4341.69
579.04	4227.01
579.21	4131.05
579.37	4133.39
579.53	4077.21
579.69	4114.66
579.85	4056.15
580.01	4079.55
580.17	4159.13
580.33	4095.94
580.49	4004.66
580.65	4119.34
580.82	4105.30
580.98	3911.04
581.14	4152.11
581.30	4182.54
581.46	4077.21
581.62	4187.22
581.78	4032.74
581.94	4070.19
582.10	3904.01
582.26	4077.21
582.42	3999.98
582.58	4058.49
582.74	4105.30
582.90	4060.83
583.06	4365.10
583.22	4131.05
583.38	4138.07
583.54	4058.49
583.70	4107.64
583.86	4044.45
584.02	4166.15
584.18	4016.36
584.34	4126.36
584.50	4152.11
584.66	4018.70
584.82	4060.83
584.98	4124.02
585.14	4126.36
585.30	4051.47
585.46	4166.15
585.62	4028.06
585.78	4084.23
585.94	4205.94
586.10	4032.74
586.26	4198.92
586.42	4222.33
586.58	4257.43
586.74	4135.73
586.90	4287.86
587.06	4145.09
587.22	4046.79
587.38	4222.33
587.54	4217.65
587.70	4243.39
587.86	4266.80
588.02	3988.27
588.18	4173.18
588.34	4234.03
588.49	4215.30
588.65	3969.55
588.81	3936.78
588.97	4016.36
589.13	4007.00
589.29	4149.77
589.45	3988.27
589.61	4084.23
589.77	4114.66
589.93	4077.21
590.08	3995.29
590.24	4121.68
590.40	3995.29
590.56	4121.68
590.72	4032.74
590.88	4182.54
591.04	4049.13
591.20	4004.66
591.35	4283.18
591.51	4194.24
591.67	4147.43
591.83	4271.48
591.99	4161.47
592.15	4248.07
592.31	4140.41
592.46	4252.75
592.62	4203.60
592.78	4135.73
592.94	4210.62
593.10	4161.47
593.26	4187.22
593.41	4180.20
593.57	4117.00
593.73	4107.64
593.89	4124.02
594.05	4070.19
594.20	4058.49
594.36	4142.75
594.52	4072.53
594.68	4095.94
594.84	4091.26
594.99	4091.26
595.15	4117.00
595.31	4145.09
595.47	4086.58
595.62	4088.92
595.78	4093.60
595.94	4051.47
596.10	4065.51
596.25	4091.26
596.41	4166.15
596.57	4152.11
596.73	3913.38
596.88	3983.59
597.04	4088.92
597.20	4011.68
597.36	4121.68
597.51	4095.94
597.67	4058.49
597.83	4093.60
597.99	4093.60
598.14	4119.34
598.30	4196.58
598.46	4152.11
598.61	4065.51
598.77	4142.75
598.93	4067.85
599.09	4095.94
599.24	4077.21
599.40	4215.30
599.56	4180.20
599.71	4210.62
599.87	4173.18
600.03	4091.26
600.18	4086.58
600.34	4079.55
600.50	4093.60
600.65	3967.21
600.81	4135.73
600.97	4056.15
601.12	4236.37
601.28	4210.62
601.44	4011.68
601.59	4107.64
601.75	4191.90
601.91	3999.98
602.06	4035.08
602.22	4203.60
602.37	3990.61
602.53	3983.59
602.69	4088.92
602.84	4049.13
603.00	4081.89
603.16	4128.70
603.31	4070.19
603.47	4009.34
603.62	4056.15
603.78	3988.27
603.94	4100.62
604.09	4037.42
604.25	3997.64
604.40	3983.59
604.56	3894.65
604.71	4067.85
604.87	3955.51
605.03	3967.21
605.18	4114.66
605.34	4098.28
605.49	4056.15
605.65	3999.98
605.80	4007.00
605.96	3992.95
606.12	4058.49
606.27	4016.36
606.43	4039.76
606.58	4072.53
606.74	4124.02
606.89	4093.60
607.05	4084.23
607.20	4121.68
607.36	4028.06
607.51	3971.89
607.67	4053.81
607.82	4030.40
607.98	4016.36
608.13	3948.48
608.29	3934.44
608.44	4182.54
608.60	4086.58
608.75	4219.99
608.91	4138.07
609.06	4070.19
609.22	4119.34
609.37	4168.49
609.53	4229.35
609.68	4180.20
609.84	4138.07
609.99	4224.67
610.15	4388.50
610.30	4372.12
610.46	4620.22
610.61	4877.68
610.76	4945.55
610.92	5242.80
611.07	5355.15
611.23	5453.45
611.38	5210.03
611.54	5050.88
611.69	4807.46
611.84	4760.65
612.00	4559.36
612.15	4369.78
612.31	4465.74
612.46	4432.97
612.62	4372.12
612.77	4159.13
612.92	4283.18
613.08	4287.86
613.23	4283.18
613.39	4201.26
613.54	4058.49
613.69	4245.73
613.85	4203.60
614.00	4147.43
614.15	4072.53
614.31	4184.88
614.46	4241.05
614.62	4121.68
614.77	4280.84
614.92	4124.02
615.08	4070.19
615.23	4098.28
615.38	4067.85
615.54	4072.53
615.69	4063.17
615.84	3829.12
616.00	4021.04
616.15	4070.19
616.30	3955.51
616.46	4067.85
616.61	3960.19
616.76	3995.29
616.92	3908.69
617.07	3908.69
617.22	3899.33
617.37	3967.21
617.53	4007.00
617.68	4051.47
617.83	3962.53
617.99	3948.48
618.14	3911.04
618.29	3967.21
618.45	3901.67
618.60	3831.46
618.75	3875.93
618.90	3798.69
619.06	3836.14
619.21	3894.65
619.36	3939.12
619.51	3880.61
619.67	3794.01
619.82	3871.25
619.97	3786.99
620.12	3833.80
620.28	3864.22
620.43	3859.54
620.58	3906.35
620.73	3941.46
620.89	3960.19
621.04	3936.78
621.19	3852.52
621.34	3852.52
621.49	3887.63
621.65	3796.35
621.80	3878.27
621.95	3826.78
622.10	3854.86
622.25	3868.91
622.41	3810.39
622.56	3770.60
622.71	3822.09
622.86	3939.12
623.01	3850.18
623.16	3742.52
623.32	3927.42
623.47	3889.97
623.62	3908.69
623.77	3859.54
623.92	3950.82
624.07	3826.78
624.23	3712.09
624.38	3803.37
624.53	3693.37
624.68	3761.24
624.83	3801.03
624.98	3969.55
625.13	3882.95
625.29	3714.43
625.44	3749.54
625.59	3625.49
625.74	3779.97
625.89	3707.41
626.04	3803.37
626.19	3850.18
626.34	3817.41
626.49	3761.24
626.65	3691.02
626.80	3669.96
626.95	3908.69
627.10	3786.99
627.25	3791.67
627.40	3728.47
627.55	3695.71
627.70	3782.31
627.85	3723.79
628.00	3782.31
628.15	3742.52
628.30	3737.84
628.45	3714.43
628.60	3676.98
628.76	3786.99
628.91	3756.56
629.06	3763.58
629.21	3712.09
629.36	3803.37
629.51	3681.66
629.66	3765.92
629.81	3754.22
629.96	3698.05
630.11	3660.60
630.26	3798.69
630.41	3737.84
630.56	3829.12
630.71	3873.59
630.86	3815.07
631.01	3782.31
631.16	3676.98
631.31	3644.21
631.46	3826.78
631.61	3791.67
631.76	3632.51
631.91	3632.51
632.06	3679.32
632.21	3599.74
632.36	3641.87
632.51	3534.21
632.66	3674.64
632.81	3679.32
632.96	3543.57
633.10	3562.30
633.25	3669.96
633.40	3688.68
633.55	3555.27
633.70	3590.38
633.85	3667.62
634.00	3543.57
634.15	3665.28
634.30	3660.60
634.45	3548.25
634.60	3513.14
634.75	3478.04
634.90	3585.70
635.05	3604.42
635.19	3428.88
635.34	3662.94
635.49	3590.38
635.64	3658.26
635.79	3641.87
635.94	3641.87
636.09	3679.32
636.24	3522.51
636.39	3569.32
636.53	3574.00
636.68	3524.85
636.83	3604.42
636.98	3471.01
637.13	3543.57
637.28	3627.83
637.43	3641.87
637.57	3449.95
637.72	3611.45
637.87	3651.24
638.02	3569.32
638.17	3513.14
638.32	3531.87
638.46	3639.53
638.61	3590.38
638.76	3471.01
638.91	3377.39
639.06	3459.31
639.20	3492.08
639.35	3475.70
639.50	3534.21
639.65	3447.61
639.80	3515.48
639.94	3534.21
640.09	3445.27
640.24	3592.72
640.39	3485.06
640.54	3503.78
640.68	3459.31
640.83	3442.93
640.98	3588.04
641.13	3473.36
641.27	3482.72
641.42	3506.12
641.57	3513.14
641.72	3541.23
641.86	3562.30
642.01	3513.14
642.16	3534.21
642.31	3363.35
642.45	3637.19
642.60	3428.88
642.75	3419.52
642.90	3496.76
643.04	3538.89
643.19	3466.33
643.34	3344.63
643.48	3482.72
643.63	3461.65
643.78	3468.67
643.93	3426.54
644.07	3463.99
644.22	3480.38
644.37	3456.97
644.51	3304.84
644.66	3431.23
644.81	3445.27
644.95	3461.65
645.10	3536.55
645.25	3281.43
645.39	3499.10
645.54	3454.63
645.69	3529.53
645.83	3478.04
645.98	3449.95
646.13	3361.01
646.27	3482.72
646.42	3372.71
646.57	3517.83
646.71	3398.46
646.86	3382.07
647.00	3412.50
647.15	3328.24
647.30	3400.80
647.44	3337.60
647.59	3468.67
647.74	3372.71
647.88	3375.05
648.03	3426.54
648.17	3365.69
648.32	3379.73
648.47	3419.52
648.61	3419.52
648.76	3274.41
648.90	3302.50
649.05	3386.76
649.20	3424.20
649.34	3356.33
649.49	3309.52
649.63	3398.46
649.78	3487.40
649.92	3300.16
650.07	3393.78
650.21	3412.50
650.36	3384.41
650.51	3309.52
650.65	3487.40
650.80	3426.54
650.94	3426.54
651.09	3393.78
651.23	3339.94
651.38	3229.94
651.52	3323.56
651.67	3300.16
651.81	3215.90
651.96	3349.31
652.10	3389.10
652.25	3300.16
652.39	3323.56
652.54	3328.24
652.68	3386.76
652.83	3365.69
652.97	3325.90
653.12	3302.50
653.26	3344.63
653.41	3300.16
653.55	3302.50
653.70	3290.79
653.84	3314.20
653.99	3279.09
654.13	3211.22
654.27	3243.98
654.42	3351.65
654.56	3316.54
654.71	3372.71
654.85	3314.20
655.00	3220.58
655.14	3300.16
655.29	3258.03
655.43	3239.30
655.57	3365.69
655.72	3265.05
655.86	3248.66
656.01	3328.24
656.15	3349.31
656.30	3318.88
656.44	3260.37
656.58	3190.15
656.73	3185.47
656.87	3332.92
657.01	3229.94
657.16	3302.50
657.30	3208.87
657.45	3269.73
657.59	3166.74
657.73	3227.60
657.88	3155.04
658.02	3307.18
658.16	3213.56
658.31	3239.30
658.45	3239.30
658.60	3234.62
658.74	3204.19
658.88	3192.49
659.03	3169.09
659.17	3236.96
659.31	3262.71
659.46	3201.85
659.60	3112.91
659.74	3265.05
659.89	3302.50
660.03	3204.19
660.17	3206.53
660.32	3155.04
660.46	3218.24
660.60	3183.13
660.74	3204.19
660.89	3201.85
661.03	3126.96
661.17	3183.13
661.32	3253.34
661.46	3136.32
661.60	3164.40
661.74	3101.21
661.89	3194.83
662.03	3218.24
662.17	3080.14
662.31	3178.45
662.46	3220.58
662.60	3204.19
662.74	3059.08
662.88	3012.27
663.03	3131.64
663.17	3162.06
663.31	3178.45
663.45	3098.87
663.60	3023.97
663.74	3091.85
663.88	3124.62
664.02	3124.62
664.17	3098.87
664.31	3201.85
664.45	3141.00
664.59	3080.14
664.73	3056.74
664.88	3089.51
665.02	2902.26
665.16	3077.80
665.30	3028.65
665.44	3094.19
665.59	2930.35
665.73	2977.16
665.87	3096.53
666.01	3080.14
666.15	2977.16
666.29	2984.18
666.44	3155.04
666.58	3028.65
666.72	3063.76
666.86	3026.31
667.00	3105.89
667.14	3002.91
667.28	3000.57
667.43	2949.08
667.57	3056.74
667.71	2963.12
667.85	2960.78
667.99	2906.95
668.13	2904.60
668.27	2972.48
668.41	2946.73
668.56	2963.12
668.70	2988.86
668.84	2995.89
668.98	2911.63
669.12	2885.88
669.26	3045.04
669.40	3066.10
669.54	2972.48
669.68	2881.20
669.82	2888.22
669.96	2897.58
670.10	2974.82
670.25	2789.92
670.39	3005.25
670.53	2846.09
670.67	2913.97
670.81	2913.97
670.95	2995.89
671.09	2841.41
671.23	2899.92
671.37	2899.92
671.51	2794.60
671.65	2888.22
671.79	2869.50
671.93	2813.32
672.07	2834.39
672.21	2822.69
672.35	2766.51
672.49	2761.83
672.63	2808.64
672.77	2848.43
672.91	2724.38
673.05	2892.90
673.19	2757.15
673.33	2829.71
673.47	2827.37
673.61	2827.37
673.75	2848.43
673.89	2724.38
674.03	2750.13
674.17	2827.37
674.31	2794.60
674.45	2733.75
674.59	2675.23
674.73	2775.88
674.87	2668.21
675.01	2712.68
675.15	2700.98
675.29	2729.06
675.43	2794.60
675.56	2820.35
675.70	2722.04
675.84	2665.87
675.98	2583.95
676.12	2733.75
676.26	2614.38
676.40	2796.94
676.54	2768.85
676.68	2773.53
676.82	2630.76
676.96	2562.89
677.10	2712.68
677.23	2635.44
677.37	2602.68
677.51	2567.57
677.65	2693.96
677.79	2724.38
677.93	2654.17
678.07	2555.86
678.21	2509.05
678.34	2560.55
678.48	2572.25
678.62	2562.89
678.76	2600.34
678.90	2422.45
679.04	2544.16
679.18	2534.80
679.31	2541.82
679.45	2565.23
679.59	2459.90
679.73	2497.35
679.87	2480.97
680.00	2485.65
680.14	2504.37
680.28	2539.48
680.42	2436.50
680.56	2441.18
680.70	2408.41
680.83	2399.05
680.97	2520.76
681.11	2513.74
681.25	2506.71
681.39	2431.82
681.52	2473.95
681.66	2392.03
681.80	2408.41
681.94	2356.92
682.07	2392.03
682.21	2403.73
682.35	2380.32
682.49	2307.77
682.62	2340.54
682.76	2202.44
682.90	2331.17
683.04	2443.52
683.17	2373.30
683.31	2340.54
683.45	2317.13
683.59	2361.60
683.72	2377.98
683.86	2272.66
684.00	2300.75
684.13	2326.49
684.27	2401.39
684.41	2305.43
684.55	2235.21
684.68	2232.87
684.82	2267.98
684.96	2204.78
685.09	2214.15
685.23	2172.02
685.37	2134.57
685.50	2127.55
685.64	2251.60
685.78	2265.64
685.91	2193.08
686.05	2169.68
686.19	2202.44
686.32	2132.23
686.46	2188.40
686.60	2188.40
686.73	2153.29
686.87	2132.23
687.01	2197.76
687.14	2115.84
687.28	2153.29
687.42	2108.82
687.55	2113.50
687.69	2136.91
687.82	2062.01
687.96	2092.44
688.10	2080.74
688.23	2120.53
688.37	2043.29
688.50	2066.69
688.64	2111.16
688.78	1989.46
688.91	2001.16
689.05	2111.16
689.18	2038.61
689.32	2066.69
689.46	2139.25
689.59	2012.86
689.73	2087.76
689.86	2040.95
690.00	2019.88
690.13	2045.63
690.27	1994.14
690.41	2054.99
690.54	2005.84
690.68	2026.90
690.81	1874.77
690.95	1984.77
691.08	2043.29
691.22	1954.35
691.35	1877.11
691.49	1909.88
691.62	1858.39
691.76	1860.73
691.89	1898.17
692.03	1839.66
692.16	1914.56
692.30	1804.55
692.43	1863.07
692.57	1797.53
692.70	1785.83
692.84	1898.17
692.97	1767.10
693.11	1802.21
693.24	1909.88
693.38	1884.13
693.51	1797.53
693.65	1846.68
693.78	1750.72
693.92	1781.15
694.05	1729.66
694.19	1762.42
694.32	1818.60
694.45	1736.68
694.59	1675.82
694.72	1696.89
694.86	1652.42
694.99	1710.93
695.13	1795.19
695.26	1734.34
695.39	1774.13
695.53	1884.13
695.66	1652.42
695.80	1666.46
695.93	1675.82
696.07	1736.68
696.20	1682.85
696.33	1607.95
696.47	1746.04
696.60	1675.82
696.73	1633.69
696.87	1661.78
697.00	1565.82
697.14	1607.95
697.27	1664.12
697.40	1741.36
697.54	1722.63
697.67	1673.48
697.80	1614.97
697.94	1614.97
698.07	1519.01
698.21	1694.55
698.34	1584.54
698.47	1535.39
698.61	1610.29
698.74	1596.25
698.87	1650.08
699.01	1570.50
699.14	1462.83
699.27	1554.12
699.40	1633.69
699.54	1568.16
699.67	1605.61
699.80	1589.22
699.94	1437.09
700.07	1476.88
700.20	1420.71
700.34	1507.30
700.47	1528.37
700.60	1490.92
700.73	1455.81
700.87	1488.58
701.00	1465.18
701.13	1530.71
701.26	1533.05
701.40	1490.92
701.53	1472.20
701.66	1418.36
701.79	1453.47
701.93	1369.21
702.06	1493.26
702.19	1504.96
702.32	1476.88
702.46	1364.53
702.59	1282.61
702.72	1320.06
702.85	1483.90
702.99	1350.49
703.12	1483.90
703.25	1320.06
703.38	1336.45
703.51	1378.58
703.65	1380.92
703.78	1256.87
703.91	1277.93
704.04	1294.32
704.17	1212.40
704.31	1275.59
704.44	1287.29
704.57	1338.79
704.70	1308.36
704.83	1268.57
704.96	1303.68
705.10	1228.78
705.23	1313.04
>>>>>End Processed Spectral Data<<<<<
