SpectraSuite Data File
++++++++++++++++++++++++++++++++++++
Date: Fri Oct 04 11:39:22 GMT-05:00 2013
User: price-jones
Dark Spectrum Present: No
Reference Spectrum Present: No
Number of Sampled Component Spectra: 1
Spectrometers: USB2+H05261
Integration Time (usec): 100000 (USB2+H05261)
Spectra Averaged: 1 (USB2+H05261)
Boxcar Smoothing: 0 (USB2+H05261)
Correct for Electrical Dark: No (USB2+H05261)
Strobe/Lamp Enabled: No (USB2+H05261)
Correct for Detector Non-linearity: No (USB2+H05261)
Correct for Stray Light: No (USB2+H05261)
Number of Pixels in Processed Spectrum: 2048
>>>>>Begin Processed Spectral Data<<<<<
365.73	32.77
365.92	32.77
366.12	32.77
366.32	0.00
366.52	0.00
366.72	0.00
366.91	0.00
367.11	0.00
367.31	0.00
367.51	0.00
367.70	0.00
367.90	0.00
368.10	0.00
368.30	0.00
368.49	0.00
368.69	0.00
368.89	0.00
369.09	0.00
369.28	0.00
369.48	0.00
369.68	0.00
369.87	0.00
370.07	0.00
370.27	49.15
370.47	79.58
370.66	229.37
370.86	182.56
371.06	306.61
371.25	287.89
371.45	224.69
371.65	348.74
371.84	297.25
372.04	201.29
372.24	255.12
372.44	231.71
372.63	276.18
372.83	341.72
373.03	404.91
373.22	308.95
373.42	330.02
373.62	241.08
373.81	407.25
374.01	404.91
374.21	409.59
374.40	346.40
374.60	337.04
374.79	351.08
374.99	425.98
375.19	360.44
375.38	381.51
375.58	358.10
375.78	470.45
375.97	311.29
376.17	433.00
376.37	393.21
376.56	414.27
376.76	379.17
376.95	388.53
377.15	379.17
377.35	430.66
377.54	411.93
377.74	372.15
377.93	341.72
378.13	461.09
378.33	477.47
378.52	444.70
378.72	383.85
378.91	409.59
379.11	344.06
379.31	388.53
379.50	355.76
379.70	409.59
379.89	416.62
380.09	461.09
380.28	393.21
380.48	418.96
380.68	442.36
380.87	407.25
381.07	533.64
381.26	479.81
381.46	468.11
381.65	425.98
381.85	507.90
382.04	447.04
382.24	416.62
382.43	440.02
382.63	491.51
382.83	519.60
383.02	451.72
383.22	566.41
383.41	468.11
383.61	535.98
383.80	491.51
384.00	503.22
384.19	454.06
384.39	568.75
384.58	531.30
384.78	514.92
384.97	479.81
385.17	440.02
385.36	514.92
385.56	634.29
385.75	594.50
385.95	547.69
386.14	521.94
386.34	489.17
386.53	540.66
386.72	526.62
386.92	606.20
387.11	596.84
387.31	554.71
387.50	510.24
387.70	531.30
387.89	603.86
388.09	510.24
388.28	629.60
388.48	608.54
388.67	582.79
388.86	601.52
389.06	608.54
389.25	678.76
389.45	629.60
389.64	540.66
389.84	676.41
390.03	669.39
390.22	692.80
390.42	688.12
390.61	662.37
390.81	594.50
391.00	697.48
391.19	676.41
391.39	781.74
391.58	648.33
391.78	741.95
391.97	737.27
392.16	779.40
392.36	751.31
392.55	678.76
392.75	734.93
392.94	725.57
393.13	772.38
393.33	713.86
393.52	704.50
393.71	739.61
393.91	784.08
394.10	748.97
394.29	730.25
394.49	704.50
394.68	732.59
394.88	770.04
395.07	847.27
395.26	774.72
395.46	788.76
395.65	861.32
395.84	828.55
396.04	880.04
396.23	835.57
396.42	763.01
396.62	826.21
396.81	851.96
397.00	844.93
397.19	936.21
397.39	807.48
397.58	828.55
397.77	898.77
397.97	973.66
398.16	896.43
398.35	873.02
398.55	896.43
398.74	922.17
398.93	943.24
399.12	924.51
399.32	938.55
399.51	901.11
399.70	912.81
399.90	1034.52
400.09	1020.47
400.28	1013.45
400.47	1020.47
400.67	1011.11
400.86	1097.71
401.05	1083.67
401.24	1086.01
401.44	1149.20
401.63	1107.07
401.82	1130.48
402.01	1048.56
402.21	1181.97
402.40	1135.16
402.59	1200.69
402.78	1109.41
402.97	1174.95
403.17	1224.10
403.36	1263.89
403.55	1217.08
403.74	1282.61
403.93	1310.70
404.13	1306.02
404.32	1266.23
404.51	1308.36
404.70	1334.11
404.89	1259.21
405.09	1413.68
405.28	1210.06
405.47	1355.17
405.66	1399.64
405.85	1387.94
406.05	1366.87
406.24	1387.94
406.43	1430.07
406.62	1474.54
406.81	1500.28
407.00	1411.34
407.20	1526.03
407.39	1404.32
407.58	1519.01
407.77	1579.86
407.96	1490.92
408.15	1528.37
408.34	1563.48
408.54	1600.93
408.73	1624.33
408.92	1713.27
409.11	1673.48
409.30	1605.61
409.49	1654.76
409.68	1654.76
409.87	1661.78
410.07	1694.55
410.26	1696.89
410.45	1813.92
410.64	1732.00
410.83	1884.13
411.02	1732.00
411.21	1846.68
411.40	1849.02
411.59	1879.45
411.78	1863.07
411.98	1860.73
412.17	1909.88
412.36	1893.49
412.55	1865.41
412.74	1888.81
412.93	2017.54
413.12	1989.46
413.31	2104.14
413.50	2099.46
413.69	2111.16
413.88	2160.31
414.07	2221.17
414.26	2094.78
414.45	2202.44
414.64	2183.72
414.83	2319.47
415.02	2225.85
415.22	2380.32
415.41	2373.30
415.60	2328.83
415.79	2389.69
415.98	2403.73
416.17	2459.90
416.36	2448.20
416.55	2354.58
416.74	2523.10
416.93	2583.95
417.12	2534.80
417.31	2504.37
417.50	2495.01
417.69	2719.70
417.88	2633.10
418.07	2614.38
418.26	2677.57
418.45	2818.00
418.64	2726.72
418.83	2874.18
419.02	2682.25
419.21	2754.81
419.39	2885.88
419.58	2799.28
419.77	2843.75
419.96	2850.77
420.15	3007.59
420.34	2930.35
420.53	3005.25
420.72	2960.78
420.91	3098.87
421.10	2988.86
421.29	3045.04
421.48	2902.26
421.67	3089.51
421.86	3021.63
422.05	3030.99
422.24	3033.33
422.43	3110.57
422.61	3042.70
422.80	3056.74
422.99	3126.96
423.18	3126.96
423.37	3103.55
423.56	3206.53
423.75	3150.36
423.94	3052.06
424.13	2937.37
424.32	3070.78
424.50	3276.75
424.69	3229.94
424.88	3157.38
425.07	3236.96
425.26	3096.53
425.45	3054.40
425.64	3185.47
425.83	3136.32
426.01	3262.71
426.20	3225.26
426.39	3274.41
426.58	3260.37
426.77	3229.94
426.96	3138.66
427.15	3239.30
427.33	3255.69
427.52	3272.07
427.71	3421.86
427.90	3335.26
428.09	3400.80
428.28	3473.36
428.46	3562.30
428.65	3503.78
428.84	3599.74
429.03	3543.57
429.22	3468.67
429.40	3571.66
429.59	3552.93
429.78	3466.33
429.97	3351.65
430.16	3384.41
430.34	3637.19
430.53	3744.86
430.72	3543.57
430.91	3581.02
431.10	3492.08
431.28	3775.28
431.47	3676.98
431.66	3740.18
431.85	3691.02
432.03	3829.12
432.22	3840.82
432.41	3847.84
432.60	3833.80
432.79	3740.18
432.97	3925.08
433.16	3901.67
433.35	3908.69
433.54	3906.35
433.72	3955.51
433.91	3946.14
434.10	3983.59
434.28	4037.42
434.47	4128.70
434.66	4070.19
434.85	3943.80
435.03	4107.64
435.22	4308.93
435.41	4685.75
435.59	4629.58
435.78	4346.37
435.97	4238.71
436.16	4322.97
436.34	4124.02
436.53	4322.97
436.72	4311.27
436.90	4154.45
437.09	4283.18
437.28	4175.52
437.46	4124.02
437.65	4372.12
437.84	4365.10
438.02	4287.86
438.21	4222.33
438.40	4271.48
438.58	4463.40
438.77	4571.07
438.96	4517.23
439.14	4667.03
439.33	4482.13
439.52	4688.09
439.70	4622.56
439.89	4683.41
440.08	4779.37
440.26	4912.78
440.45	4903.42
440.63	4814.48
440.82	4788.74
441.01	4901.08
441.19	4931.51
441.38	5018.11
441.57	5172.58
441.75	4950.23
441.94	5078.96
442.12	5057.90
442.31	5233.44
442.50	5057.90
442.68	5095.35
442.87	5355.15
443.05	5254.50
443.24	5350.46
443.43	5411.32
443.61	5296.63
443.80	5383.23
443.98	5313.02
444.17	5083.64
444.35	5460.47
444.54	5589.20
444.73	5303.65
444.91	5490.90
445.10	5343.44
445.28	5397.28
445.47	5249.82
445.65	5586.86
445.84	5418.34
446.02	5458.13
446.21	5329.40
446.39	5455.79
446.58	5643.03
446.77	5476.85
446.95	5490.90
447.14	5399.62
447.32	5575.16
447.51	5458.13
447.69	5469.83
447.88	5530.69
448.06	5533.03
448.25	5439.40
448.43	5673.46
448.62	5437.06
448.80	5416.00
448.99	5631.33
449.17	5734.31
449.36	5638.35
449.54	5764.74
449.73	5865.38
449.91	5853.68
450.10	5977.73
450.28	5834.96
450.46	5806.87
450.65	5944.96
450.83	5937.94
451.02	5954.32
451.20	5849.00
451.39	6024.54
451.57	5837.30
451.76	5771.76
451.94	5860.70
452.13	6017.52
452.31	6136.88
452.49	5839.64
452.68	6029.22
452.86	5914.53
453.05	6200.08
453.23	6193.06
453.42	6129.86
453.60	5879.43
453.78	6169.65
453.97	6045.60
454.15	6054.97
454.34	6094.76
454.52	6164.97
454.70	6230.51
454.89	6289.02
455.07	6324.13
455.26	6441.15
455.44	6476.26
455.62	6338.17
455.81	6237.53
455.99	6588.61
456.17	6406.05
456.36	6469.24
456.54	6539.46
456.73	6471.58
456.91	6600.31
457.09	6684.57
457.28	6958.41
457.46	6640.10
457.64	6726.70
457.83	6717.34
458.01	6562.86
458.19	6857.77
458.38	6775.85
458.56	6937.35
458.74	6834.36
458.93	6916.28
459.11	6981.82
459.29	7075.44
459.48	7045.01
459.66	6857.77
459.84	6874.15
460.03	7096.50
460.21	6935.01
460.39	7108.21
460.57	7208.85
460.76	7023.95
460.94	7222.89
461.12	7265.02
461.31	7241.62
461.49	7258.00
461.67	7239.28
461.85	7300.13
462.04	7382.05
462.22	7288.43
462.40	7489.71
462.59	7536.52
462.77	7424.18
462.95	7288.43
463.13	7363.33
463.32	7494.40
463.50	7391.41
463.68	7449.93
463.86	7398.43
464.05	7566.95
464.23	7482.69
464.41	7428.86
464.59	7368.01
464.78	7786.96
464.96	7595.04
465.14	7662.91
465.32	7728.45
465.50	7658.23
465.69	7705.04
465.87	7737.81
466.05	7730.79
466.23	7768.24
466.41	7775.26
466.60	8067.83
466.78	7810.37
466.96	7686.32
467.14	7873.56
467.32	7922.71
467.51	8023.36
467.69	7737.81
467.87	7960.16
468.05	7918.03
468.23	8119.32
468.41	8030.38
468.60	8084.21
468.78	8119.32
468.96	7969.52
469.14	8369.76
469.32	8262.09
469.50	8119.32
469.69	8425.93
469.87	8435.29
470.05	8285.50
470.23	8329.97
470.41	8510.19
470.59	8376.78
470.77	8524.23
470.95	8528.91
471.14	8489.12
471.32	8425.93
471.50	8734.88
471.68	8594.45
471.86	8564.02
472.04	8800.41
472.22	8865.95
472.40	8891.70
472.58	9076.60
472.77	8905.74
472.95	8896.38
473.13	9240.44
473.31	8912.76
473.49	9104.68
473.67	9146.81
473.85	9263.84
474.03	9132.77
474.21	9102.34
474.39	9437.04
474.57	9415.98
474.75	9380.87
474.93	9645.35
475.12	9568.11
475.30	9645.35
475.48	9607.90
475.66	9689.82
475.84	9621.94
476.02	9596.20
476.20	9851.31
476.38	10122.82
476.56	10214.10
476.74	10008.13
476.92	10115.80
477.10	9914.51
477.28	10153.24
477.46	10258.57
477.64	10260.91
477.82	10387.30
478.00	10817.96
478.18	10796.89
478.36	10885.83
478.54	10679.86
478.72	11028.60
478.90	11110.52
479.08	11176.06
479.26	11227.55
479.44	11131.59
479.62	11314.15
479.80	11508.41
479.98	11751.83
480.16	11456.92
480.34	11744.81
480.52	11646.51
480.70	11831.41
480.88	11810.34
481.06	11915.67
481.24	12023.33
481.41	11784.60
481.59	12205.89
481.77	12161.42
481.95	12336.96
482.13	12599.10
482.31	12400.16
482.49	12805.07
482.67	12840.18
482.85	13109.34
483.03	13174.88
483.21	13062.53
483.39	13383.18
483.57	13331.69
483.74	13231.05
483.92	13612.56
484.10	13525.96
484.28	13947.25
484.46	13914.48
484.64	14190.67
484.82	14148.54
485.00	14270.25
485.18	14633.03
485.35	14611.96
485.53	14469.19
485.71	14616.65
485.89	15000.49
486.07	14991.13
486.25	14841.34
486.43	14916.23
486.61	15304.76
486.78	15482.64
486.96	15506.05
487.14	15765.85
487.32	15583.29
487.50	15445.20
487.68	15833.72
487.85	15943.73
488.03	16180.12
488.21	16269.06
488.39	16510.14
488.57	16365.03
488.75	16655.25
488.92	17146.76
489.10	16695.04
489.28	17060.16
489.46	17338.69
489.64	17071.87
489.81	17317.62
489.99	17493.16
490.17	17326.99
490.35	17694.45
490.53	17968.29
490.70	18148.51
490.88	18104.04
491.06	18244.48
491.24	17914.46
491.41	18104.04
491.59	18417.68
491.77	18675.13
491.95	18965.36
492.13	18850.67
492.30	18747.69
492.48	19077.71
492.66	18881.10
492.84	19220.48
493.01	19562.20
493.19	19325.80
493.37	19733.06
493.54	19611.35
493.72	19651.14
493.90	20222.23
494.08	19887.53
494.25	20156.69
494.43	20217.55
494.61	20290.10
494.79	20779.28
494.96	20531.18
495.14	20617.78
495.32	21097.59
495.49	21184.19
495.67	21125.68
495.85	21277.81
496.02	21610.17
496.20	21530.59
496.38	21743.58
496.55	21507.18
496.73	21986.99
496.91	21603.14
497.09	22106.36
497.26	22293.60
497.44	22094.66
497.62	22333.39
497.79	22684.47
497.97	22520.63
498.14	22892.78
498.32	22867.03
498.50	23236.84
498.67	23012.15
498.85	23152.58
499.03	23248.54
499.20	23386.63
499.38	23316.42
499.56	23676.86
499.73	23695.58
499.91	23400.68
500.08	23901.55
500.26	23924.96
500.44	23981.13
500.61	23852.40
500.79	23735.37
500.97	24264.33
501.14	24627.12
501.32	24367.32
501.49	24453.92
501.67	24484.34
501.84	24776.91
502.02	24734.78
502.20	24697.33
502.37	24959.47
502.55	24959.47
502.72	24917.34
502.90	24931.39
503.07	25010.96
503.25	25092.88
503.43	25027.35
503.60	25221.61
503.78	25467.37
503.95	25188.85
504.13	25455.67
504.30	25593.76
504.48	25846.54
504.65	26031.44
504.83	25923.77
505.01	26302.94
505.18	25951.86
505.36	26548.70
505.53	25982.29
505.71	26459.76
505.88	26628.27
506.06	26263.15
506.23	27016.80
506.41	26558.06
506.58	26998.08
506.76	26794.45
506.93	27225.11
507.11	26389.54
507.28	27147.87
507.46	27449.80
507.63	27676.83
507.81	27262.56
507.98	27555.13
508.16	27393.63
508.33	27309.37
508.50	27414.69
508.68	27704.92
508.85	27772.80
509.03	27861.74
509.20	28137.92
509.38	28374.31
509.55	28287.71
509.73	28662.20
509.90	28362.61
510.08	28524.11
510.25	28547.51
510.42	28559.22
510.60	28982.85
510.77	28704.33
510.95	29013.28
511.12	28624.75
511.30	29024.98
511.47	29174.78
511.64	28898.59
511.82	29486.07
511.99	29462.66
512.17	29535.22
512.34	29401.81
512.51	29610.12
512.69	29392.45
512.86	30174.19
513.04	30043.12
513.21	30113.33
513.38	30211.64
513.56	30216.32
513.73	29743.53
513.90	29909.71
514.08	30106.31
514.25	30525.27
514.43	30366.11
514.60	30906.77
514.77	30696.13
514.95	30965.29
515.12	30551.01
515.29	30621.23
515.47	30756.98
515.64	30927.84
515.81	30995.71
515.99	31615.96
516.16	31740.00
516.33	31218.07
516.51	31449.78
516.68	31091.68
516.85	31452.12
517.03	31578.51
517.20	31894.48
517.37	31608.93
517.54	31613.62
517.72	31519.99
517.89	31512.97
518.06	31695.53
518.24	31590.21
518.41	31817.24
518.58	31793.84
518.75	32189.39
518.93	32367.27
519.10	32488.98
519.27	32676.22
519.45	32601.32
519.62	32325.14
519.79	32547.49
519.96	32488.98
520.14	32737.07
520.31	32875.16
520.48	33010.92
520.65	32641.11
520.83	32886.87
521.00	33219.22
521.17	32725.37
521.34	33060.07
521.52	33303.48
521.69	33425.19
521.86	33888.62
522.03	34040.75
522.20	33469.66
522.38	33624.14
522.55	33951.81
522.72	33944.79
522.89	33977.56
523.07	34239.70
523.24	33790.31
523.41	34480.77
523.58	34108.63
523.75	34202.25
523.92	33876.91
524.10	34024.37
524.27	34600.14
524.44	34499.50
524.61	34763.98
524.78	34885.68
524.96	34913.77
525.13	34876.32
525.30	34794.40
525.47	34817.81
525.64	34782.70
525.81	35016.75
525.98	34972.28
526.16	35026.12
526.33	35208.68
526.50	35262.51
526.67	35232.08
526.84	35014.41
527.01	35386.56
527.18	35576.14
527.36	36020.84
527.53	35702.53
527.70	35805.52
527.87	35908.50
528.04	35388.90
528.21	35875.73
528.38	35800.83
528.55	35768.07
528.72	35847.64
528.89	35754.02
529.07	35901.48
529.24	35990.42
529.41	36325.11
529.58	36222.13
529.75	35803.17
529.92	36229.15
530.09	36437.46
530.26	36821.31
530.43	36594.28
530.60	36388.31
530.77	36779.18
530.94	36481.93
531.11	36634.06
531.28	36533.42
531.46	37017.91
531.63	36594.28
531.80	36833.01
531.97	37406.44
532.14	37046.00
532.31	37055.36
532.48	37003.87
532.65	36933.65
532.82	36945.36
532.99	37261.33
533.16	37411.12
533.33	37617.09
533.50	37825.40
533.67	37450.91
533.84	37106.85
534.01	37504.74
534.18	37434.53
534.35	37951.79
534.52	37455.59
534.69	37982.21
534.86	37989.24
535.03	37771.57
535.20	38225.63
535.37	37811.35
535.54	37949.45
535.71	37888.59
535.88	38157.75
536.05	38148.39
536.22	38635.22
536.38	38520.54
536.55	38337.98
536.72	38630.54
536.89	38277.12
537.06	38726.50
537.23	38859.91
537.40	38466.70
537.57	38635.22
537.74	38450.32
537.91	38878.64
538.08	39152.48
538.25	38740.55
538.42	39253.12
538.59	39112.69
538.75	38799.06
538.92	39267.17
539.09	39232.06
539.26	38932.47
539.43	39325.68
539.60	39210.99
539.77	39391.22
539.94	39501.22
540.11	39526.97
540.28	39508.24
540.44	39704.85
540.61	39601.86
540.78	39332.70
540.95	40088.70
541.12	39871.03
541.29	40011.46
541.46	40175.30
541.62	40378.92
541.79	40339.13
541.96	40081.67
542.13	40102.74
542.30	40182.32
542.47	40254.87
542.63	40414.03
542.80	40650.42
542.97	40781.49
543.14	40872.78
543.31	40519.35
543.48	40245.51
543.64	40711.28
543.81	40856.39
543.98	41050.66
544.15	40858.73
544.32	41170.02
544.48	41544.51
544.65	41123.21
544.82	41151.30
544.99	40587.23
545.16	41420.46
545.32	41092.79
545.49	41766.86
545.66	42466.68
545.83	42286.46
546.00	42377.74
546.16	41993.89
546.33	41361.95
546.50	40659.79
546.67	41191.09
546.83	40919.59
547.00	41368.97
547.17	41163.00
547.34	41762.18
547.50	41516.42
547.67	41942.40
547.84	41787.92
548.00	42251.35
548.17	41652.17
548.34	41764.52
548.51	41647.49
548.67	41914.31
548.84	41603.02
549.01	41745.80
549.18	42131.98
549.34	41638.13
549.51	41827.71
549.68	42225.60
549.84	41963.46
550.01	42075.81
550.18	42085.17
550.34	42335.61
550.51	41970.49
550.68	42082.83
550.84	41806.65
551.01	42251.35
551.18	41944.74
551.34	41532.81
551.51	41759.84
551.68	42274.76
551.84	42490.09
552.01	42281.78
552.18	42625.84
552.34	42117.94
552.51	42176.45
552.68	42405.83
552.84	42101.56
553.01	42260.71
553.18	42197.52
553.34	42457.32
553.51	42377.74
553.67	42674.99
553.84	42574.34
554.01	42710.10
554.17	42827.12
554.34	42651.58
554.51	42712.44
554.67	43096.28
554.84	42773.29
555.00	43005.00
555.17	42754.57
555.33	42967.55
555.50	42852.87
555.67	43044.79
555.83	42724.14
556.00	43019.05
556.16	43248.42
556.33	43143.09
556.50	43250.76
556.66	43367.79
556.83	42656.26
556.99	43173.52
557.16	43253.10
557.32	43138.41
557.49	43033.09
557.65	42752.23
557.82	42801.38
557.98	42953.51
558.15	43466.09
558.32	43194.59
558.48	43681.42
558.65	43728.23
558.81	43917.81
558.98	43264.80
559.14	43276.51
559.31	43260.12
559.47	43213.31
559.64	43576.09
559.80	43283.53
559.97	43693.12
560.13	43084.58
560.30	43971.64
560.46	43807.81
560.63	43627.59
560.79	43555.03
560.96	44154.21
561.12	43367.79
561.29	43470.77
561.45	43880.36
561.61	43739.93
561.78	43344.38
561.94	43966.96
562.11	43901.43
562.27	43959.94
562.44	43292.89
562.60	43508.22
562.77	43655.67
562.93	44004.41
563.10	44154.21
563.26	43590.14
563.42	44238.47
563.59	43636.95
563.75	44381.24
563.92	44100.37
564.08	44098.03
564.24	44030.16
564.41	44009.09
564.57	43545.67
564.74	43878.02
564.90	44292.30
565.07	44561.46
565.23	43875.68
565.39	44404.64
565.56	43990.37
565.72	44203.36
565.88	43929.51
566.05	43742.27
566.21	43917.81
566.38	43978.67
566.54	43784.40
566.70	44264.21
566.87	44795.51
567.03	44470.18
567.19	44210.38
567.36	44334.43
567.52	44287.62
567.68	44568.48
567.85	44065.27
568.01	44175.27
568.17	44154.21
568.34	44470.18
568.50	44158.89
568.66	44037.18
568.83	44753.38
568.99	44727.64
569.15	44425.71
569.32	44060.58
569.48	43672.06
569.64	44339.11
569.81	44243.15
569.97	44432.73
570.13	44605.93
570.30	44385.92
570.46	44521.67
570.62	44369.54
570.78	44516.99
570.95	44184.63
571.11	44521.67
571.27	44662.10
571.43	44355.49
571.60	44313.36
571.76	44325.07
571.92	44257.19
572.09	44744.02
572.25	44774.45
572.41	44776.79
572.57	44814.24
572.74	44781.47
572.90	44608.27
573.06	44493.58
573.22	44589.55
573.38	44645.72
573.55	44832.96
573.71	44837.64
573.87	45015.52
574.03	44545.08
574.20	44711.25
574.36	44486.56
574.52	44659.76
574.68	44975.73
574.84	44575.50
575.01	44418.69
575.17	45041.27
575.33	44809.56
575.49	44507.63
575.65	44828.28
575.82	44699.55
575.98	44615.29
576.14	44779.13
576.30	44629.34
576.46	44610.61
576.62	44549.76
576.79	45207.45
576.95	44706.57
577.11	45385.33
577.27	45347.88
577.43	44823.60
577.59	44634.02
577.75	44727.64
577.92	44615.29
578.08	44559.12
578.24	44528.69
578.40	45158.30
578.56	44889.13
578.72	45371.28
578.88	45427.46
579.04	45067.02
579.21	45261.28
579.37	44893.82
579.53	44786.15
579.69	44903.18
579.85	44715.93
580.01	45024.89
580.17	44830.62
580.33	45209.79
580.49	44907.86
580.65	45106.80
580.82	44779.13
580.98	44685.51
581.14	44758.06
581.30	45010.84
581.46	44631.68
581.62	45034.25
581.78	44737.00
581.94	45139.57
582.10	44477.20
582.26	45020.20
582.42	45048.29
582.58	45294.05
582.74	44973.39
582.90	44875.09
583.06	44928.92
583.22	45109.14
583.38	44966.37
583.54	44938.29
583.70	44734.66
583.86	44900.84
584.02	44631.68
584.18	45216.81
584.34	44854.03
584.50	45359.58
584.66	45031.91
584.82	44847.00
584.98	44694.87
585.14	44865.73
585.30	44882.11
585.46	45064.67
585.62	44732.32
585.78	45249.58
585.94	44790.83
586.10	44975.73
586.26	44975.73
586.42	45460.23
586.58	45401.71
586.74	45010.84
586.90	44889.13
587.06	44964.03
587.22	45137.23
587.38	45357.24
587.54	45329.16
587.70	45034.25
587.86	45045.95
588.02	45219.15
588.18	45607.68
588.34	44917.22
588.49	45081.06
588.65	45085.74
588.81	45256.60
588.97	45076.38
589.13	45057.65
589.29	44945.31
589.45	45851.09
589.61	45544.48
589.77	45542.14
589.93	45450.86
590.08	45542.14
590.24	45600.66
590.40	44994.46
590.56	45755.13
590.72	44973.39
590.88	45015.52
591.04	44940.63
591.20	45645.13
591.35	45586.61
591.51	46036.00
591.67	45544.48
591.83	45413.41
591.99	45579.59
592.15	45336.18
592.31	45694.28
592.46	45265.96
592.62	45656.83
592.78	45097.44
592.94	45319.79
593.10	45972.80
593.26	45516.40
593.41	45368.94
593.57	45752.79
593.73	45446.18
593.89	45537.46
594.05	45677.90
594.20	45691.94
594.36	45677.90
594.52	45324.47
594.68	44804.88
594.84	45043.61
594.99	45123.19
595.15	45759.81
595.31	46237.28
595.47	45661.51
595.62	45673.21
595.78	45216.81
595.94	45371.28
596.10	45181.70
596.25	45511.72
596.41	45340.86
596.57	45404.05
596.73	45556.19
596.88	45701.30
597.04	46061.74
597.20	45607.68
597.36	45820.67
597.51	45684.92
597.67	45390.01
597.83	45490.65
597.99	45759.81
598.14	45631.08
598.30	45689.60
598.46	45160.64
598.61	45780.88
598.77	45429.80
598.93	45785.56
599.09	45855.78
599.24	45570.23
599.40	45865.14
599.56	45626.40
599.71	45495.33
599.87	45633.42
600.03	45195.74
600.18	45902.59
600.34	45722.37
600.50	45612.36
600.65	45869.82
600.81	45694.28
600.97	45687.26
601.12	45979.82
601.28	45902.59
601.44	45645.13
601.59	45558.53
601.75	45392.35
601.91	45455.54
602.06	45324.47
602.22	45483.63
602.37	45123.19
602.53	45530.44
602.69	45785.56
602.84	45713.00
603.00	45839.39
603.16	45869.82
603.31	45326.81
603.47	45551.51
603.62	45148.93
603.78	45720.02
603.94	45485.97
604.09	45633.42
604.25	45509.38
604.40	45357.24
604.56	45603.00
604.71	45710.66
604.87	45668.53
605.03	45191.06
605.18	45401.71
605.34	45574.91
605.49	44928.92
605.65	45139.57
605.80	45280.00
605.96	45006.16
606.12	45010.84
606.27	45769.18
606.43	45563.21
606.58	45495.33
606.74	45350.22
606.89	44893.82
607.05	45106.80
607.20	45134.89
607.36	44676.15
607.51	45340.86
607.67	44968.71
607.82	45141.91
607.98	45195.74
608.13	45329.16
608.29	45113.83
608.44	45254.26
608.60	45703.64
608.75	45392.35
608.91	45329.16
609.06	45331.50
609.22	45450.86
609.37	45251.92
609.53	45261.28
609.68	45595.98
609.84	44847.00
609.99	45071.70
610.15	45167.66
610.30	45371.28
610.46	45263.62
610.61	45457.88
610.76	45815.99
610.92	46415.16
611.07	46354.31
611.23	46003.23
611.38	45612.36
611.54	45867.48
611.69	45221.49
611.84	45139.57
612.00	45209.79
612.15	45221.49
612.31	45521.08
612.46	44975.73
612.62	45413.41
612.77	45062.33
612.92	45404.05
613.08	44765.09
613.23	44861.05
613.39	44842.32
613.54	44966.37
613.69	44456.14
613.85	44676.15
614.00	44659.76
614.15	45043.61
614.31	44540.39
614.46	44952.33
614.62	44779.13
614.77	45125.53
614.92	45001.48
615.08	44430.39
615.23	44484.22
615.38	45029.57
615.54	44329.75
615.69	44163.57
615.84	44350.81
616.00	44488.90
616.15	44332.09
616.30	44652.74
616.46	44774.45
616.61	44165.91
616.76	44336.77
616.92	44385.92
617.07	44233.78
617.22	43674.40
617.37	43786.74
617.53	44065.27
617.68	43922.49
617.83	43887.39
617.99	44142.50
618.14	43920.15
618.29	44514.65
618.45	44067.61
618.60	43981.01
618.75	44154.21
618.90	44076.97
619.06	43962.28
619.21	43910.79
619.36	43742.27
619.51	44016.11
619.67	43468.43
619.82	43592.48
619.97	43634.61
620.12	43725.89
620.28	43545.67
620.43	44107.40
620.58	44065.27
620.73	43880.36
620.89	43812.49
621.04	43655.67
621.19	43667.37
621.34	43700.14
621.49	43466.09
621.65	43505.88
621.80	43985.69
621.95	43021.39
622.10	43634.61
622.25	43395.87
622.41	43196.93
622.56	43168.84
622.71	43714.19
622.86	43854.62
623.01	43386.51
623.16	43512.90
623.32	43480.13
623.47	43585.46
623.62	43487.15
623.77	42899.68
623.92	43400.55
624.07	43168.84
624.23	43002.66
624.38	43641.63
624.53	43119.69
624.68	43573.75
624.83	43456.73
624.98	43438.00
625.13	42625.84
625.29	43407.58
625.44	42925.42
625.59	42719.46
625.74	42883.30
625.89	42581.37
626.04	42515.83
626.19	42660.94
626.34	42579.03
626.49	42841.17
626.65	43159.48
626.80	42792.01
626.95	42583.71
627.10	42167.09
627.25	42623.50
627.40	42387.10
627.55	42033.68
627.70	42733.50
627.85	42260.71
628.00	42054.75
628.15	42239.65
628.30	42003.25
628.45	42412.85
628.60	42234.97
628.76	42869.25
628.91	42852.87
629.06	42581.37
629.21	42078.15
629.36	42703.07
629.51	42204.54
629.66	42447.96
629.81	42139.00
629.96	42108.58
630.11	41837.08
630.26	42007.94
630.41	42199.86
630.56	42216.24
630.71	42085.17
630.86	42555.62
631.01	41921.34
631.16	42293.48
631.31	42351.99
631.46	41888.57
631.61	42387.10
631.76	42108.58
631.91	41677.92
632.06	41717.71
632.21	41832.39
632.36	41490.68
632.51	41184.07
632.66	41436.84
632.81	41460.25
632.96	41380.67
633.10	41593.66
633.25	41794.95
633.40	41893.25
633.55	41514.08
633.70	41364.29
633.85	41202.79
634.00	41467.27
634.15	41319.82
634.30	41415.78
634.45	41132.57
634.60	41102.15
634.75	41624.09
634.90	41130.23
635.05	41511.74
635.19	41317.48
635.34	41242.58
635.49	41069.38
635.64	41134.92
635.79	41160.66
635.94	41081.08
636.09	41193.43
636.24	41165.34
636.39	40811.92
636.53	41031.93
636.68	40849.37
636.83	40327.43
636.98	41134.92
637.13	40706.60
637.28	40947.67
637.43	41305.77
637.57	40975.76
637.72	40968.74
637.87	40905.54
638.02	40453.82
638.17	40636.38
638.32	40538.08
638.46	40779.15
638.61	40577.87
638.76	40509.99
638.91	40947.67
639.06	40781.49
639.20	40975.76
639.35	40830.65
639.50	40055.93
639.65	41010.87
639.80	40790.86
639.94	40507.65
640.09	40650.42
640.24	40678.51
640.39	40369.56
640.54	39985.71
640.68	40177.64
640.83	40212.74
640.98	40004.44
641.13	39784.43
641.27	40395.31
641.42	40156.57
641.57	40041.88
641.72	40301.68
641.86	40105.08
642.01	40240.83
642.16	40182.32
642.31	39674.42
642.45	39732.93
642.60	40058.27
642.75	39756.34
642.90	39672.08
643.04	39910.82
643.19	39529.31
643.34	39545.69
643.48	39732.93
643.63	39695.49
643.78	39941.24
643.93	39686.12
644.07	40474.88
644.22	39807.83
644.37	39447.39
644.51	39690.80
644.66	39529.31
644.81	39152.48
644.95	39643.99
645.10	39405.26
645.25	39756.34
645.39	39419.30
645.54	39505.90
645.69	39426.32
645.83	39482.50
645.98	40074.65
646.13	39229.72
646.27	39861.66
646.42	39653.36
646.57	39655.70
646.71	39519.95
646.86	39501.22
647.00	39669.74
647.15	39414.62
647.30	39016.73
647.44	39143.12
647.59	39332.70
647.74	39257.81
647.88	39206.31
648.03	39225.04
648.17	39321.00
648.32	39061.20
648.47	39440.37
648.61	39103.33
648.76	39463.77
648.90	38930.13
649.05	39096.31
649.20	38639.90
649.34	39030.77
649.49	38717.14
649.63	38843.53
649.78	38719.48
649.92	38794.38
650.07	39178.23
650.21	39058.86
650.36	38960.56
650.51	38700.76
650.65	39103.33
650.80	39019.07
650.94	38689.06
651.09	38288.82
651.23	38511.17
651.38	38527.56
651.52	38277.12
651.67	38323.93
651.81	38560.33
651.96	38359.04
652.10	38249.03
652.25	38398.83
652.39	38618.84
652.54	38574.37
652.68	38803.74
652.83	38761.61
652.97	38752.25
653.12	38490.11
653.26	38639.90
653.41	38312.23
653.55	38366.06
653.70	38302.87
653.84	38581.39
653.99	38546.28
654.13	37865.19
654.27	37872.21
654.42	38515.86
654.56	38237.33
654.71	38590.75
654.85	38569.69
655.00	38188.18
655.14	38188.18
655.29	38099.24
655.43	38213.93
655.57	37921.36
655.72	38064.13
655.86	37930.72
656.01	37593.68
656.15	37312.82
656.30	37649.86
656.44	37219.20
656.58	37804.33
656.73	37275.37
656.87	37261.33
657.01	37680.28
657.16	37977.53
657.30	37500.06
657.45	37944.76
657.59	37684.97
657.73	37619.43
657.88	37078.77
658.02	36982.80
658.16	37689.65
658.31	37546.87
658.45	37579.64
658.60	36905.57
658.74	37361.97
658.88	37394.74
659.03	37383.04
659.17	36947.70
659.31	36879.82
659.46	36559.17
659.60	37118.56
659.74	37081.11
659.89	37336.23
660.03	36914.93
660.17	36928.97
660.32	36821.31
660.46	36741.73
660.60	36624.70
660.74	36701.94
660.89	36657.47
661.03	36538.10
661.17	36421.08
661.32	36205.75
661.46	36503.00
661.60	36233.83
661.74	36935.99
661.89	36732.37
662.03	36687.90
662.17	36409.37
662.31	36140.21
662.46	35990.42
662.60	36219.79
662.74	36486.61
662.88	36098.08
663.03	36311.07
663.17	35845.30
663.31	35321.02
663.45	35737.64
663.60	35978.72
663.74	35545.72
663.88	35931.90
664.02	35676.79
664.17	35929.56
664.31	35835.94
664.45	35709.55
664.59	36034.89
664.73	35316.34
664.88	35054.20
665.02	35152.51
665.16	35491.88
665.30	35140.80
665.44	34913.77
665.59	34876.32
665.73	35096.33
665.87	34771.00
666.01	35236.77
666.15	35023.78
666.29	34775.68
666.44	35276.55
666.58	34565.03
666.72	35021.44
666.86	34962.92
667.00	34972.28
667.14	34714.83
667.28	34499.50
667.43	34094.58
667.57	34665.67
667.71	34946.54
667.85	34522.90
667.99	33979.90
668.13	33692.01
668.27	34312.25
668.41	34436.30
668.56	33752.87
668.70	34361.40
668.84	33989.26
668.98	33914.36
669.12	33858.19
669.26	34293.53
669.40	34005.64
669.54	33869.89
669.68	33888.62
669.82	33202.84
669.96	33338.59
670.10	33376.04
670.25	33675.63
670.39	33385.40
670.53	33251.99
670.67	32783.88
670.81	33748.18
670.95	33369.02
671.09	33462.64
671.23	33331.57
671.37	33504.77
671.51	33298.80
671.65	32931.34
671.79	32933.68
671.93	32877.51
672.07	32741.75
672.21	32818.99
672.35	32641.11
672.49	32467.91
672.63	32364.93
672.77	32198.75
672.91	32318.12
673.05	32156.62
673.19	32486.64
673.33	32226.84
673.47	32177.68
673.61	32285.35
673.75	32088.74
673.89	31882.78
674.03	31690.85
674.17	31637.02
674.31	31693.19
674.45	31578.51
674.59	31711.92
674.73	31452.12
674.87	31075.29
675.01	31409.99
675.15	31302.32
675.29	31204.02
675.43	31522.34
675.56	31585.53
675.70	31288.28
675.84	31330.41
675.98	30300.58
676.12	31290.62
676.26	31405.31
676.40	31103.38
676.54	30824.86
676.68	30796.77
676.82	29996.31
676.96	30663.36
677.10	30394.20
677.23	30043.12
677.37	30132.06
677.51	30052.48
677.65	29825.45
677.79	29670.97
677.93	29668.63
678.07	29975.24
678.21	29380.74
678.34	29689.70
678.48	29701.40
678.62	29495.43
678.76	29399.47
678.90	29376.06
679.04	29172.44
679.18	29329.25
679.31	28449.21
679.45	28472.62
679.59	28425.81
679.73	28535.81
679.87	28250.27
680.00	28610.71
680.14	28624.75
680.28	28769.86
680.42	28348.57
680.56	28383.68
680.70	28135.58
680.83	28063.02
680.97	28126.22
681.11	28025.57
681.25	27915.57
681.39	27690.88
681.52	27934.29
681.66	27711.94
681.80	27456.82
681.94	27332.78
682.07	27510.66
682.21	27173.62
682.35	27288.31
682.49	27077.66
682.62	26757.00
682.76	26766.37
682.90	26726.58
683.04	26841.26
683.17	26810.84
683.31	26597.85
683.45	26515.93
683.59	26476.14
683.72	26532.31
683.86	26480.82
684.00	26118.04
684.13	26089.95
684.27	25921.43
684.41	26169.53
684.55	25862.92
684.68	25827.81
684.82	25895.69
684.96	25387.79
685.09	25275.45
685.23	25645.25
685.37	25621.84
685.50	25450.99
685.64	25317.57
685.78	25158.42
685.91	25060.12
686.05	25177.14
686.19	24922.02
686.32	24486.68
686.46	24400.08
686.60	24517.11
686.73	24702.01
686.87	24566.26
687.01	24627.12
687.14	24287.74
687.28	24245.61
687.42	24435.19
687.55	24201.14
687.69	24196.46
687.82	23941.34
687.96	23920.28
688.10	23974.11
688.23	23941.34
688.37	23903.89
688.50	23929.64
688.64	23740.05
688.78	23828.99
688.91	23211.09
689.05	23541.11
689.18	23021.51
689.32	22647.02
689.46	23065.98
689.59	22834.27
689.73	22796.82
689.86	22885.76
690.00	22546.38
690.13	22740.64
690.27	22518.29
690.41	22576.81
690.54	22518.29
690.68	22419.99
690.81	22183.60
690.95	22377.86
691.08	22087.64
691.22	21720.17
691.35	21799.75
691.49	21909.75
691.62	21642.93
691.76	21495.48
691.89	21348.03
692.03	21479.10
692.16	21303.56
692.30	21106.95
692.43	21010.99
692.57	21130.36
692.70	20933.75
692.84	21172.49
692.97	20915.03
693.11	21083.55
693.24	21146.74
693.38	21076.52
693.51	20776.94
693.65	20669.27
693.78	20559.27
693.92	20596.71
694.05	20467.98
694.19	20428.20
694.32	20259.68
694.45	19681.56
694.59	20109.88
694.72	19648.80
694.86	19646.46
694.99	19587.94
695.13	19594.96
695.26	19176.01
695.39	19197.07
695.53	19452.19
695.66	19374.95
695.80	19178.35
695.93	19000.47
696.07	18930.25
696.20	18991.11
696.33	19136.22
696.47	19119.84
696.60	19049.62
696.73	19129.20
696.87	18988.77
697.00	18761.73
697.14	18235.11
697.27	18398.95
697.40	18356.82
697.54	18134.47
697.67	18092.34
697.80	18026.81
697.94	18141.49
698.07	17816.16
698.21	17886.37
698.34	18132.13
698.47	18015.10
698.61	17816.16
698.74	17764.67
698.87	17530.61
699.01	17809.14
699.14	17617.21
699.27	17692.11
699.40	17600.83
699.54	17451.03
699.67	16992.29
699.80	16805.05
699.94	16940.80
700.07	16919.73
700.20	16570.99
700.34	16477.37
700.47	16477.37
700.60	16517.16
700.73	16624.83
700.87	16585.04
701.00	16688.02
701.13	16126.29
701.26	16570.99
701.40	16353.32
701.53	16367.37
701.66	16093.52
701.79	15939.05
701.93	16006.92
702.06	16020.97
702.19	15726.06
702.32	15866.49
702.46	15690.95
702.59	15440.51
702.72	15431.15
702.85	15688.61
702.99	15447.54
703.12	15257.95
703.25	15290.72
703.38	15126.88
703.51	15353.91
703.65	15119.86
703.78	15215.82
703.91	15140.93
704.04	14916.23
704.17	15028.58
704.31	14836.66
704.44	14506.64
704.57	14480.89
704.70	14656.43
704.83	14567.49
704.96	14345.14
705.10	14106.41
705.23	14134.50
>>>>>End Processed Spectral Data<<<<<
