SpectraSuite Data File
++++++++++++++++++++++++++++++++++++
Date: Fri Oct 04 11:39:39 GMT-05:00 2013
User: price-jones
Dark Spectrum Present: No
Reference Spectrum Present: No
Number of Sampled Component Spectra: 1
Spectrometers: USB2+H05261
Integration Time (usec): 100000 (USB2+H05261)
Spectra Averaged: 1 (USB2+H05261)
Boxcar Smoothing: 0 (USB2+H05261)
Correct for Electrical Dark: No (USB2+H05261)
Strobe/Lamp Enabled: No (USB2+H05261)
Correct for Detector Non-linearity: No (USB2+H05261)
Correct for Stray Light: No (USB2+H05261)
Number of Pixels in Processed Spectrum: 2048
>>>>>Begin Processed Spectral Data<<<<<
365.73	42.13
365.92	42.13
366.12	42.13
366.32	0.00
366.52	0.00
366.72	4.68
366.91	0.00
367.11	0.00
367.31	0.00
367.51	0.00
367.70	0.00
367.90	0.00
368.10	0.00
368.30	0.00
368.49	0.00
368.69	0.00
368.89	30.43
369.09	0.00
369.28	0.00
369.48	18.72
369.68	23.41
369.87	0.00
370.07	0.00
370.27	28.09
370.47	14.04
370.66	217.67
370.86	173.20
371.06	170.86
371.25	304.27
371.45	276.18
371.65	320.65
371.84	231.71
372.04	238.73
372.24	271.50
372.44	255.12
372.63	278.52
372.83	311.29
373.03	299.59
373.22	339.38
373.42	304.27
373.62	301.93
373.81	395.55
374.01	402.57
374.21	358.10
374.40	358.10
374.60	241.08
374.79	337.04
374.99	404.91
375.19	353.42
375.38	276.18
375.58	362.78
375.78	423.64
375.97	400.23
376.17	444.70
376.37	341.72
376.56	332.36
376.76	360.44
376.95	311.29
377.15	297.25
377.35	365.12
377.54	353.42
377.74	344.06
377.93	400.23
378.13	372.15
378.33	381.51
378.52	301.93
378.72	372.15
378.91	404.91
379.11	430.66
379.31	280.86
379.50	379.17
379.70	330.02
379.89	428.32
380.09	360.44
380.28	440.02
380.48	397.89
380.68	365.12
380.87	390.87
381.07	409.59
381.26	411.93
381.46	430.66
381.65	395.55
381.85	341.72
382.04	430.66
382.24	376.83
382.43	397.89
382.63	411.93
382.83	393.21
383.02	482.15
383.22	489.17
383.41	400.23
383.61	472.79
383.80	409.59
384.00	484.49
384.19	470.45
384.39	433.00
384.58	468.11
384.78	449.38
384.97	545.34
385.17	407.25
385.36	425.98
385.56	491.51
385.75	402.57
385.95	437.68
386.14	423.64
386.34	540.66
386.53	461.09
386.72	472.79
386.92	571.09
387.11	465.77
387.31	489.17
387.50	528.96
387.70	519.60
387.89	526.62
388.09	493.85
388.28	491.51
388.48	526.62
388.67	498.53
388.86	517.26
389.06	587.47
389.25	531.30
389.45	533.64
389.64	606.20
389.84	519.60
390.03	500.87
390.22	606.20
390.42	617.90
390.61	575.77
390.81	638.97
391.00	582.79
391.19	638.97
391.39	580.45
391.58	559.39
391.78	580.45
391.97	561.73
392.16	543.00
392.36	653.01
392.55	690.46
392.75	667.05
392.94	699.82
393.13	568.75
393.33	660.03
393.52	641.31
393.71	741.95
393.91	643.65
394.10	688.12
394.29	699.82
394.49	695.14
394.68	732.59
394.88	732.59
395.07	741.95
395.26	781.74
395.46	648.33
395.65	688.12
395.84	770.04
396.04	678.76
396.23	777.06
396.42	741.95
396.62	767.70
396.81	770.04
397.00	746.63
397.19	760.67
397.39	798.12
397.58	875.36
397.77	837.91
397.97	781.74
398.16	823.87
398.35	915.15
398.55	828.55
398.74	858.98
398.93	973.66
399.12	861.32
399.32	877.70
399.51	903.45
399.70	901.11
399.90	952.60
400.09	933.87
400.28	1100.05
400.47	924.51
400.67	1004.09
400.86	964.30
401.05	959.62
401.24	1027.50
401.44	1111.75
401.63	1111.75
401.82	1144.52
402.01	1057.92
402.21	1011.11
402.40	1020.47
402.59	1078.99
402.78	1116.44
402.97	1097.71
403.17	1137.50
403.36	1081.33
403.55	1100.05
403.74	1181.97
403.93	1219.42
404.13	1196.01
404.32	1174.95
404.51	1259.21
404.70	1303.68
404.89	1282.61
405.09	1261.55
405.28	1289.64
405.47	1329.42
405.66	1327.08
405.85	1317.72
406.05	1401.98
406.24	1296.66
406.43	1451.13
406.62	1331.76
406.81	1378.58
407.00	1355.17
407.20	1448.79
407.39	1420.71
407.58	1376.24
407.77	1497.94
407.96	1444.11
408.15	1572.84
408.34	1523.69
408.54	1488.58
408.73	1521.35
408.92	1514.33
409.11	1511.99
409.30	1675.82
409.49	1631.35
409.68	1643.06
409.87	1722.63
410.07	1673.48
410.26	1647.74
410.45	1666.46
410.64	1802.21
410.83	1797.53
411.02	1753.06
411.21	1755.40
411.40	1909.88
411.59	1867.75
411.78	1877.11
411.98	1811.57
412.17	1963.71
412.36	1954.35
412.55	1923.92
412.74	2176.70
412.93	2097.12
413.12	1926.26
413.31	2211.81
413.50	2162.66
413.69	2225.85
413.88	2188.40
414.07	2251.60
414.26	2218.83
414.45	2235.21
414.64	2275.00
414.83	2291.38
415.02	2286.70
415.22	2321.81
415.41	2448.20
415.60	2534.80
415.79	2534.80
415.98	2497.35
416.17	2527.78
416.36	2464.58
416.55	2480.97
416.74	2612.04
416.93	2572.25
417.12	2738.43
417.31	2614.38
417.50	2626.08
417.69	2754.81
417.88	2668.21
418.07	2656.51
418.26	2722.04
418.45	2792.26
418.64	2883.54
418.83	2871.84
419.02	2839.07
419.21	2869.50
419.39	2920.99
419.58	2902.26
419.77	2895.24
419.96	2913.97
420.15	2913.97
420.34	3068.44
420.53	2895.24
420.72	3042.70
420.91	3094.19
421.10	3164.40
421.29	3155.04
421.48	3007.59
421.67	3157.38
421.86	3227.60
422.05	3162.06
422.24	3321.22
422.43	3236.96
422.61	3325.90
422.80	3283.77
422.99	3349.31
423.18	3267.39
423.37	3234.62
423.56	3281.43
423.75	3337.60
423.94	3208.87
424.13	2993.55
424.32	3073.12
424.50	3452.29
424.69	3375.05
424.88	3424.20
425.07	3358.67
425.26	3382.07
425.45	3314.20
425.64	3351.65
425.83	3358.67
426.01	3471.01
426.20	3218.24
426.39	3293.13
426.58	3279.09
426.77	3482.72
426.96	3358.67
427.15	3524.85
427.33	3499.10
427.52	3349.31
427.71	3506.12
427.90	3496.76
428.09	3534.21
428.28	3709.75
428.46	3541.23
428.65	3630.17
428.84	3653.58
429.03	3728.47
429.22	3583.36
429.40	3756.56
429.59	3733.15
429.78	3604.42
429.97	3541.23
430.16	3602.08
430.34	3695.71
430.53	3878.27
430.72	3833.80
430.91	3742.52
431.10	3857.20
431.28	3786.99
431.47	3908.69
431.66	4056.15
431.85	3927.42
432.03	4042.11
432.22	4079.55
432.41	4021.04
432.60	4058.49
432.79	3983.59
432.97	4117.00
433.16	4056.15
433.35	3997.64
433.54	4060.83
433.72	4168.49
433.91	4215.30
434.10	4170.83
434.28	4053.81
434.47	4339.35
434.66	4283.18
434.85	4280.84
435.03	4196.58
435.22	4337.01
435.41	4667.03
435.59	4535.96
435.78	4634.26
435.97	4552.34
436.16	4351.06
436.34	4475.10
436.53	4435.32
436.72	4580.43
436.90	4484.47
437.09	4461.06
437.28	4360.42
437.46	4414.25
437.65	4538.30
437.84	4622.56
438.02	4631.92
438.21	4557.02
438.40	4489.15
438.58	4624.90
438.77	4744.27
438.96	4816.82
439.14	4861.29
439.33	4851.93
439.52	4784.06
439.70	4931.51
439.89	4812.14
440.08	5013.43
440.26	5095.35
440.45	4997.04
440.63	5090.67
440.82	5301.31
441.01	5158.54
441.19	5249.82
441.38	5322.38
441.57	5144.50
441.75	5366.85
441.94	5439.40
442.12	5430.04
442.31	5385.57
442.50	5327.06
442.68	5366.85
442.87	5502.60
443.05	5462.81
443.24	5565.79
443.43	5448.77
443.61	5645.37
443.80	5699.20
443.98	5448.77
444.17	5526.00
444.35	5797.51
444.54	5713.25
444.73	5591.54
444.91	5636.01
445.10	5713.25
445.28	5617.29
445.47	5640.69
445.65	5568.13
445.84	5659.42
446.02	5636.01
446.21	5696.86
446.39	5640.69
446.58	5813.89
446.77	5886.45
446.95	5628.99
447.14	5741.33
447.32	5788.14
447.51	5666.44
447.69	5799.85
447.88	5891.13
448.06	5774.10
448.25	5659.42
448.43	5713.25
448.62	5692.18
448.80	5741.33
448.99	5858.36
449.17	5977.73
449.36	5825.59
449.54	6069.01
449.73	6071.35
449.91	5930.92
450.10	6019.86
450.28	6228.17
450.46	6071.35
450.65	6045.60
450.83	6036.24
451.02	6146.25
451.20	6094.76
451.39	6267.95
451.57	6164.97
451.76	6150.93
451.94	6132.20
452.13	6200.08
452.31	6349.87
452.49	6443.49
452.68	6289.02
452.86	6263.27
453.05	6375.62
453.23	6490.31
453.42	6244.55
453.60	6239.87
453.78	6314.77
453.97	6380.30
454.15	6445.84
454.34	6537.12
454.52	6459.88
454.70	6434.13
454.89	6698.61
455.07	6511.37
455.26	6813.30
455.44	6637.76
455.62	6597.97
455.81	6654.14
455.99	6808.62
456.17	6693.93
456.36	6710.32
456.54	6869.47
456.73	6956.07
456.91	7026.29
457.09	7002.88
457.28	6871.81
457.46	6808.62
457.64	7042.67
457.83	6944.37
458.01	6846.07
458.19	7089.48
458.38	7033.31
458.56	7091.82
458.74	7098.84
458.93	7311.83
459.11	7122.25
459.29	7190.13
459.48	7288.43
459.66	7255.66
459.84	7377.37
460.03	7463.97
460.21	7536.52
460.39	7510.78
460.57	7428.86
460.76	7522.48
460.94	7585.68
461.12	7538.87
461.31	7520.14
461.49	7468.65
461.67	7552.91
461.85	7803.35
462.04	7588.02
462.22	7929.74
462.40	7845.48
462.59	7812.71
462.77	7585.68
462.95	7765.90
463.13	7819.73
463.32	7974.21
463.50	7758.88
463.68	7595.04
463.86	7936.76
464.05	7768.24
464.23	7751.85
464.41	7758.88
464.59	7714.41
464.78	7971.86
464.96	7962.50
465.14	7852.50
465.32	7969.52
465.50	8166.13
465.69	8140.38
465.87	8203.58
466.05	8053.78
466.23	8105.28
466.41	8224.64
466.60	8416.57
466.78	7967.18
466.96	8049.10
467.14	8060.80
467.32	8222.30
467.51	8163.79
467.69	8205.92
467.87	8238.69
468.05	8358.05
468.23	8456.36
468.41	8248.05
468.60	8486.78
468.78	8397.84
468.96	8360.39
469.14	8353.37
469.32	8585.08
469.50	8358.05
469.69	8496.14
469.87	8784.03
470.05	8638.92
470.23	8786.37
470.41	8571.04
470.59	8856.59
470.77	8454.02
470.95	8863.61
471.14	8851.91
471.32	8662.32
471.50	9132.77
471.68	8896.38
471.86	8922.12
472.04	9057.87
472.22	9294.27
472.40	8952.55
472.58	8994.68
472.77	9116.39
472.95	9282.56
473.13	9591.52
473.31	9249.80
473.49	9490.87
473.67	9350.44
473.85	9303.63
474.03	9774.08
474.21	9706.20
474.39	9530.66
474.57	9774.08
474.75	9790.46
474.93	9839.61
475.12	9872.38
475.30	10064.30
475.48	9956.64
475.66	10022.17
475.84	9912.17
476.02	9991.75
476.20	10281.97
476.38	10321.76
476.56	10619.01
476.74	10576.88
476.92	10399.00
477.10	10473.90
477.28	10621.35
477.46	10619.01
477.64	10637.73
477.82	10864.77
478.00	10925.62
478.18	11105.84
478.36	11059.03
478.54	11145.63
478.72	11407.77
478.90	11433.52
479.08	11517.78
479.26	11676.93
479.44	11744.81
479.62	11934.39
479.80	11707.36
479.98	11882.90
480.16	12077.16
480.34	12278.45
480.52	12203.55
480.70	12517.18
480.88	12222.28
481.06	12065.46
481.24	12257.39
481.41	12631.87
481.59	12517.18
481.77	12882.31
481.95	12961.89
482.13	12936.14
482.31	13118.70
482.49	13233.39
482.67	13057.85
482.85	13315.31
483.03	13647.66
483.21	13551.70
483.39	13701.50
483.57	13682.77
483.74	14134.50
483.92	14115.77
484.10	14071.30
484.28	14019.81
484.46	14485.58
484.64	14518.34
484.82	14445.79
485.00	14728.99
485.18	14651.75
485.35	15145.61
485.53	14946.66
485.71	14841.34
485.89	15407.75
486.07	15197.10
486.25	15178.37
486.43	15356.25
486.61	15704.99
486.78	15653.50
486.96	15953.09
487.14	16292.47
487.32	16147.36
487.50	15985.86
487.68	16411.84
487.85	16613.12
488.03	16877.60
488.21	17025.06
488.39	17006.33
488.57	16975.91
488.75	17048.46
488.92	17200.60
489.10	17755.30
489.28	17509.55
489.46	17685.09
489.64	17802.11
489.81	18064.25
489.99	18061.91
490.17	18246.82
490.35	18712.58
490.53	18368.52
490.70	18450.44
490.88	18478.53
491.06	18810.89
491.24	18656.41
491.41	18911.53
491.59	19044.94
491.77	19204.10
491.95	19557.52
492.13	19250.91
492.30	19328.14
492.48	19391.34
492.66	19283.67
492.84	19580.92
493.01	20137.97
493.19	19906.26
493.37	20198.82
493.54	20109.88
493.72	20575.65
493.90	20428.20
494.08	20521.82
494.25	20781.62
494.43	21109.29
494.61	20683.31
494.79	21282.49
494.96	21116.31
495.14	20936.09
495.32	21708.47
495.49	21446.33
495.67	21664.00
495.85	22005.72
496.02	21956.57
496.20	22061.89
496.38	21926.14
496.55	22092.32
496.73	22499.57
496.91	22459.78
497.09	22548.72
497.26	22895.12
497.44	22707.88
497.62	22958.31
497.79	23042.57
497.97	23023.85
498.14	23208.75
498.32	23407.70
498.50	23379.61
498.67	23606.64
498.85	23440.47
499.03	23798.57
499.20	23728.35
499.38	24107.52
499.56	24161.35
499.73	23744.73
499.91	24362.64
500.08	24568.60
500.26	24133.26
500.44	24779.25
500.61	24524.13
500.79	24510.09
500.97	24671.59
501.14	25036.71
501.32	25247.36
501.49	25135.01
501.67	24875.21
501.84	25165.44
502.02	24823.72
502.20	25689.72
502.37	25539.93
502.55	25696.74
502.72	25490.77
502.90	25565.67
503.07	25113.95
503.25	25867.60
503.43	26050.16
503.60	25949.52
503.78	26066.55
503.95	25862.92
504.13	26190.59
504.30	26438.69
504.48	26132.08
504.65	26670.40
504.83	26445.71
505.01	26930.20
505.18	26757.00
505.36	27197.02
505.53	26869.35
505.71	27161.92
505.88	26995.74
506.06	26618.91
506.23	27281.28
506.41	27531.72
506.58	27639.39
506.76	27683.86
506.93	27538.74
507.11	27505.98
507.28	27697.90
507.46	28086.43
507.63	27873.44
507.81	28105.15
507.98	28037.28
508.16	28170.69
508.33	27807.90
508.50	28381.34
508.68	28121.54
508.85	28606.03
509.03	28163.67
509.20	28835.40
509.38	28957.11
509.55	29064.77
509.73	28816.68
509.90	28957.11
510.08	28900.94
510.25	28987.53
510.42	29324.57
510.60	29467.34
510.77	29465.00
510.95	29743.53
511.12	29237.97
511.30	29219.25
511.47	29312.87
511.64	30003.33
511.82	30164.82
511.99	29764.59
512.17	30373.13
512.34	30319.30
512.51	30370.79
512.69	30122.69
512.86	30377.81
513.04	30661.02
513.21	30822.51
513.38	30616.55
513.56	30834.22
513.73	30590.80
513.90	30693.79
514.08	30855.28
514.25	30941.88
514.43	31360.84
514.60	31051.89
514.77	31232.11
514.95	31428.71
515.12	31351.48
515.29	31325.73
515.47	31400.63
515.64	31622.98
515.81	31564.46
515.99	31505.95
516.16	31974.06
516.33	31882.78
516.51	32158.96
516.68	31941.29
516.85	31534.04
517.03	32175.34
517.20	32650.47
517.37	32517.06
517.54	32180.03
517.72	32283.01
517.89	32304.07
518.06	33053.05
518.24	32615.37
518.41	32369.61
518.58	32748.78
518.75	32898.57
518.93	32931.34
519.10	32994.53
519.27	33214.54
519.45	33113.90
519.62	32940.70
519.79	33268.37
519.96	33254.33
520.14	33607.75
520.31	33266.03
520.48	33289.44
520.65	33369.02
520.83	33633.50
521.00	33783.29
521.17	33486.04
521.34	33745.84
521.52	33841.81
521.69	34096.92
521.86	34146.08
522.03	34260.76
522.20	34279.49
522.38	34391.83
522.55	34403.53
522.72	34717.17
522.89	34485.45
523.07	34738.23
523.24	34948.88
523.41	34766.32
523.58	34401.19
523.75	34553.33
523.92	34492.47
524.10	35136.12
524.27	35166.55
524.44	35119.74
524.61	35346.77
524.78	35192.30
524.96	35545.72
525.13	34862.28
525.30	35241.45
525.47	35524.65
525.64	35339.75
525.81	35356.13
525.98	35943.61
526.16	35524.65
526.33	35725.94
526.50	35702.53
526.67	35959.99
526.84	36177.66
527.01	35700.19
527.18	35857.01
527.36	36107.44
527.53	36161.28
527.70	36580.23
527.87	36182.34
528.04	36304.05
528.21	36547.47
528.38	36306.39
528.55	36407.03
528.72	36655.13
528.89	36816.63
529.07	36772.16
529.24	36608.32
529.41	36495.97
529.58	36683.22
529.75	36385.97
529.92	37024.93
530.09	36870.46
530.26	37364.31
530.43	37099.83
530.60	36809.61
530.77	36811.95
530.94	37207.50
531.11	37095.15
531.28	37481.34
531.46	37036.64
531.63	37160.69
531.80	37380.70
531.97	37764.54
532.14	38085.20
532.31	37624.11
532.48	37572.62
532.65	37762.20
532.82	37581.98
532.99	37715.39
533.16	37565.60
533.33	38305.21
533.50	38333.29
533.67	38288.82
533.84	37961.15
534.01	38122.65
534.18	38103.92
534.35	38747.57
534.52	38731.18
534.69	38513.52
534.86	38721.82
535.03	38225.63
535.20	38501.81
535.37	38911.41
535.54	38480.75
535.71	38642.24
535.88	38815.44
536.05	38625.86
536.22	39105.67
536.38	38918.43
536.55	39203.97
536.72	38951.20
536.89	38862.26
537.06	38693.74
537.23	38998.01
537.40	38469.04
537.57	39051.84
537.74	39035.45
537.91	39714.21
538.08	39138.44
538.25	39150.14
538.42	39559.73
538.59	39744.64
538.75	38831.83
538.92	39285.89
539.09	39281.21
539.26	39496.54
539.43	39725.91
539.60	39526.97
539.77	39426.32
539.94	40058.27
540.11	40004.44
540.28	39934.22
540.44	39845.28
540.61	39796.13
540.78	39981.03
540.95	40069.97
541.12	40479.57
541.29	40449.14
541.46	40329.77
541.62	40196.36
541.79	40327.43
541.96	39929.54
542.13	40392.97
542.30	40552.12
542.47	40643.40
542.63	40879.80
542.80	41067.04
542.97	41064.70
543.14	40669.15
543.31	41055.34
543.48	41212.15
543.64	41324.50
543.81	41500.04
543.98	41291.73
544.15	41448.55
544.32	41556.21
544.48	41441.53
544.65	41010.87
544.82	41104.49
544.99	41233.22
545.16	41577.28
545.32	41270.67
545.49	42497.11
545.66	42497.11
545.83	42480.72
546.00	42508.81
546.16	42064.11
546.33	41757.50
546.50	41200.45
546.67	41570.25
546.83	41280.03
547.00	41326.84
547.17	41591.32
547.34	41509.40
547.50	41825.37
547.67	41797.29
547.84	41834.74
548.00	42225.60
548.17	42218.58
548.34	42003.25
548.51	41511.74
548.67	42387.10
548.84	42192.84
549.01	42092.19
549.18	41876.86
549.34	42108.58
549.51	41830.05
549.68	41713.03
549.84	42108.58
550.01	42192.84
550.18	42153.05
550.34	42443.27
550.51	42412.85
550.68	42536.90
550.84	42148.37
551.01	42377.74
551.18	42314.55
551.34	42075.81
551.51	42241.99
551.68	42279.44
551.84	42700.73
552.01	42660.94
552.18	42614.13
552.34	42403.49
552.51	42691.37
552.68	42480.72
552.84	42115.60
553.01	42913.72
553.18	42864.57
553.34	43143.09
553.51	42284.12
553.67	42784.99
553.84	43065.86
554.01	43012.02
554.17	42396.46
554.34	42719.46
554.51	43229.69
554.67	42932.45
554.84	43126.71
555.00	42731.16
555.17	42937.13
555.33	43143.09
555.50	42478.38
555.67	42852.87
555.83	42927.77
556.00	42724.14
556.16	43178.20
556.33	42700.73
556.50	42815.42
556.66	43091.60
556.83	43182.88
556.99	43332.68
557.16	43861.64
557.32	43339.70
557.49	43833.55
557.65	43133.73
557.82	42876.27
557.98	43386.51
558.15	43363.11
558.32	43283.53
558.48	43641.63
558.65	43531.62
558.81	43512.90
558.98	43615.88
559.14	43122.03
559.31	43531.62
559.47	43185.22
559.64	43629.93
559.80	43906.11
559.97	43636.95
560.13	43449.70
560.30	43723.55
560.46	43655.67
560.63	43629.93
560.79	43676.74
560.96	43540.99
561.12	43693.12
561.29	43353.74
561.45	43683.76
561.61	43786.74
561.78	43714.19
561.94	43576.09
562.11	43711.84
562.27	43758.66
562.44	43620.56
562.60	43461.41
562.77	43557.37
562.93	43761.00
563.10	44105.06
563.26	43676.74
563.42	43779.72
563.59	43302.25
563.75	43842.92
563.92	43997.39
564.08	43648.65
564.24	44069.95
564.41	43945.90
564.57	43484.81
564.74	43782.06
564.90	43728.23
565.07	43772.70
565.23	44275.91
565.39	44051.22
565.56	43770.36
565.72	43662.69
565.88	43943.56
566.05	44102.71
566.21	43662.69
566.38	43824.19
566.54	43889.73
566.70	44149.53
566.87	44168.25
567.03	44435.07
567.19	44030.16
567.36	43852.28
567.52	44175.27
567.68	44044.20
567.85	43807.81
568.01	44058.24
568.17	43957.60
568.34	43971.64
568.50	44596.57
568.66	44367.20
568.83	44362.51
568.99	44364.85
569.15	43896.75
569.32	44011.43
569.48	44184.63
569.64	43859.30
569.81	44032.50
569.97	44072.29
570.13	44238.47
570.30	44170.59
570.46	44224.42
570.62	44055.90
570.78	43826.53
570.95	43955.26
571.11	44055.90
571.27	43524.60
571.43	44156.55
571.60	43796.10
571.76	44091.01
571.92	44336.77
572.09	44182.29
572.25	44371.88
572.41	44296.98
572.57	43955.26
572.74	44315.70
572.90	44215.06
573.06	44065.27
573.22	44189.31
573.38	44287.62
573.55	44198.68
573.71	44556.78
573.87	44184.63
574.03	44229.10
574.20	44198.68
574.36	44018.46
574.52	44446.77
574.68	43545.67
574.84	44083.99
575.01	44460.82
575.17	44704.23
575.33	43910.79
575.49	44095.69
575.65	44634.02
575.82	44549.76
575.98	43810.15
576.14	44659.76
576.30	44425.71
576.46	44198.68
576.62	43945.90
576.79	44458.48
576.95	44362.51
577.11	44215.06
577.27	44636.36
577.43	44790.83
577.59	44268.89
577.75	44385.92
577.92	44186.97
578.08	43789.08
578.24	44233.78
578.40	44086.33
578.56	44432.73
578.72	44701.89
578.88	44739.34
579.04	44818.92
579.21	44507.63
579.37	44559.12
579.53	44516.99
579.69	44594.23
579.85	44292.30
580.01	44481.88
580.17	44107.40
580.33	44151.87
580.49	44311.02
580.65	44575.50
580.82	44385.92
580.98	44229.10
581.14	44037.18
581.30	44533.37
581.46	44458.48
581.62	43938.88
581.78	44076.97
581.94	44531.03
582.10	44161.23
582.26	44456.14
582.42	44025.48
582.58	44666.78
582.74	44048.88
582.90	44343.79
583.06	44355.49
583.22	44154.21
583.38	44271.23
583.54	44526.35
583.70	44353.15
583.86	44011.43
584.02	44130.80
584.18	44545.08
584.34	44264.21
584.50	44931.26
584.66	44678.49
584.82	44346.13
584.98	44268.89
585.14	44404.64
585.30	44250.17
585.46	44280.60
585.62	44179.95
585.78	44294.64
585.94	44458.48
586.10	44313.36
586.26	44229.10
586.42	44612.95
586.58	44505.29
586.74	44465.50
586.90	44165.91
587.06	44060.58
587.22	44638.70
587.38	44315.70
587.54	44680.83
587.70	44739.34
587.86	44526.35
588.02	44311.02
588.18	44624.65
588.34	44601.25
588.49	44439.75
588.65	44711.25
588.81	44432.73
588.97	44629.34
589.13	44526.35
589.29	44722.96
589.45	44491.24
589.61	44460.82
589.77	44690.19
589.93	44790.83
590.08	44879.77
590.24	44435.07
590.40	44327.41
590.56	44655.08
590.72	44713.59
590.88	44287.62
591.04	44617.63
591.20	45013.18
591.35	45172.34
591.51	45287.03
591.67	44994.46
591.83	44942.97
591.99	44849.35
592.15	44821.26
592.31	44744.02
592.46	44739.34
592.62	44561.46
592.78	44477.20
592.94	44907.86
593.10	44760.40
593.26	45102.12
593.41	45139.57
593.57	44734.66
593.73	44788.49
593.89	45153.62
594.05	44701.89
594.20	44596.57
594.36	45034.25
594.52	44758.06
594.68	44737.00
594.84	44421.03
594.99	44975.73
595.15	44514.65
595.31	45015.52
595.47	44907.86
595.62	45209.79
595.78	45031.91
595.94	44360.17
596.10	44320.38
596.25	44528.69
596.41	44535.71
596.57	44285.28
596.73	45015.52
596.88	44816.58
597.04	44638.70
597.20	45291.71
597.36	44814.24
597.51	45251.92
597.67	44767.43
597.83	44215.06
597.99	45198.09
598.14	44505.29
598.30	44617.63
598.46	44538.05
598.61	45055.31
598.77	44706.57
598.93	44596.57
599.09	44659.76
599.24	44776.79
599.40	45125.53
599.56	45212.13
599.71	44582.52
599.87	44594.23
600.03	44893.82
600.18	44821.26
600.34	44802.53
600.50	45017.86
600.65	45008.50
600.81	44648.06
600.97	45001.48
601.12	45048.29
601.28	45148.93
601.44	45024.89
601.59	44957.01
601.75	44608.27
601.91	44828.28
602.06	44414.01
602.22	44807.22
602.37	44336.77
602.53	44460.82
602.69	44669.12
602.84	44940.63
603.00	44999.14
603.16	44638.70
603.31	44737.00
603.47	44870.41
603.62	44547.42
603.78	44720.62
603.94	44488.90
604.09	45036.59
604.25	44615.29
604.40	44308.68
604.56	44435.07
604.71	44304.00
604.87	44481.88
605.03	44545.08
605.18	44477.20
605.34	44727.64
605.49	43906.11
605.65	44416.35
605.80	43971.64
605.96	44184.63
606.12	44083.99
606.27	43985.69
606.43	43936.54
606.58	44814.24
606.74	44486.56
606.89	44383.58
607.05	44371.88
607.20	44577.84
607.36	44264.21
607.51	44559.12
607.67	44383.58
607.82	44058.24
607.98	44240.81
608.13	44280.60
608.29	44395.28
608.44	43672.06
608.60	44095.69
608.75	44687.85
608.91	44589.55
609.06	44158.89
609.22	44596.57
609.37	43700.14
609.53	44392.94
609.68	44296.98
609.84	43826.53
609.99	44406.98
610.15	44215.06
610.30	44514.65
610.46	44552.10
610.61	44474.86
610.76	44519.33
610.92	45006.16
611.07	44484.22
611.23	44966.37
611.38	44690.19
611.54	44638.70
611.69	44615.29
611.84	44088.67
612.00	44236.12
612.15	43873.34
612.31	44172.93
612.46	44327.41
612.62	44179.95
612.77	44006.75
612.92	44219.74
613.08	43768.02
613.23	43810.15
613.39	43756.32
613.54	43428.64
613.69	43950.58
613.85	43461.41
614.00	43824.19
614.15	43590.14
614.31	43325.66
614.46	43650.99
614.62	43601.84
614.77	44091.01
614.92	43859.30
615.08	43842.92
615.23	43360.76
615.38	43529.28
615.54	43063.52
615.69	43189.91
615.84	42960.53
616.00	43288.21
616.15	43175.86
616.30	43442.68
616.46	43194.59
616.61	43206.29
616.76	43395.87
616.92	42838.83
617.07	43768.02
617.22	43288.21
617.37	42911.38
617.53	43164.16
617.68	42714.78
617.83	42946.49
617.99	42518.17
618.14	42906.70
618.29	42911.38
618.45	43065.86
618.60	42560.30
618.75	42724.14
618.90	43096.28
619.06	42756.91
619.21	42866.91
619.36	42990.96
619.51	43112.67
619.67	42148.37
619.82	42251.35
619.97	42780.31
620.12	42424.55
620.28	42462.00
620.43	42782.65
620.58	43028.41
620.73	42447.96
620.89	42887.98
621.04	42644.56
621.19	42698.39
621.34	42387.10
621.49	42211.56
621.65	42457.32
621.80	42096.88
621.95	41879.21
622.10	42045.38
622.25	42529.87
622.41	42148.37
622.56	42141.35
622.71	42387.10
622.86	42447.96
623.01	42127.30
623.16	42155.39
623.32	42153.05
623.47	41928.36
623.62	41635.79
623.77	41844.10
623.92	42197.52
624.07	41378.33
624.23	41972.83
624.38	42033.68
624.53	42124.96
624.68	42440.93
624.83	41869.84
624.98	41949.42
625.13	41886.23
625.29	42000.91
625.44	41916.65
625.59	41612.38
625.74	41443.87
625.89	41570.25
626.04	41280.03
626.19	41598.34
626.34	41280.03
626.49	41759.84
626.65	41722.39
626.80	41404.08
626.95	41340.88
627.10	41544.51
627.25	41581.96
627.40	41883.89
627.55	41507.06
627.70	41305.77
627.85	41092.79
628.00	40809.58
628.15	41263.64
628.30	41127.89
628.45	41392.37
628.60	40954.69
628.76	41603.02
628.91	41352.58
629.06	41120.87
629.21	41268.33
629.36	41031.93
629.51	40524.04
629.66	40964.06
629.81	40243.17
629.96	40634.04
630.11	40460.84
630.26	40830.65
630.41	41010.87
630.56	40751.07
630.71	41230.88
630.86	40879.80
631.01	40760.43
631.16	41233.22
631.31	40631.70
631.46	40215.08
631.61	40947.67
631.76	40479.57
631.91	40374.24
632.06	40472.54
632.21	40430.41
632.36	40004.44
632.51	40240.83
632.66	40463.18
632.81	40428.07
632.96	40547.44
633.10	40697.24
633.25	40158.91
633.40	40357.86
633.55	40456.16
633.70	40261.90
633.85	39995.07
634.00	39622.93
634.15	39688.46
634.30	40074.65
634.45	40392.97
634.60	40219.77
634.75	39981.03
634.90	40201.04
635.05	40519.35
635.19	39966.99
635.34	39981.03
635.49	40297.00
635.64	40231.47
635.79	39817.19
635.94	39676.76
636.09	39746.98
636.24	39978.69
636.39	39428.66
636.53	39835.92
636.68	39239.08
636.83	39473.13
636.98	39950.60
637.13	39421.64
637.28	39732.93
637.43	39828.90
637.57	39959.97
637.72	39658.04
637.87	39487.18
638.02	39985.71
638.17	39395.90
638.32	39407.60
638.46	39131.42
638.61	39208.65
638.76	38845.87
638.91	39281.21
639.06	39203.97
639.20	39426.32
639.35	39487.18
639.50	39112.69
639.65	38604.80
639.80	39283.55
639.94	39325.68
640.09	39627.61
640.24	39075.24
640.39	38815.44
640.54	38604.80
640.68	38806.08
640.83	38637.56
640.98	38672.67
641.13	38728.84
641.27	39021.41
641.42	39044.82
641.57	39016.73
641.72	39033.11
641.86	38520.54
642.01	38937.15
642.16	38775.66
642.31	38653.95
642.45	39285.89
642.60	38277.12
642.75	38471.39
642.90	38375.42
643.04	38384.79
643.19	38218.61
643.34	38157.75
643.48	38197.54
643.63	38710.12
643.78	38660.97
643.93	38747.57
644.07	39002.69
644.22	38646.93
644.37	38426.92
644.51	38342.66
644.66	38635.22
644.81	37949.45
644.95	38300.53
645.10	38211.59
645.25	38143.71
645.39	38579.05
645.54	38089.88
645.69	38485.43
645.83	38595.43
645.98	38237.33
646.13	38382.45
646.27	38029.02
646.42	38169.46
646.57	37958.81
646.71	38368.40
646.86	37731.78
647.00	37652.20
647.15	38227.97
647.30	37890.93
647.44	37933.06
647.59	37928.38
647.74	38017.32
647.88	37624.11
648.03	38288.82
648.17	37874.55
648.32	38064.13
648.47	37778.59
648.61	37787.95
648.76	38054.77
648.90	37486.02
649.05	37642.84
649.20	37724.75
649.34	37951.79
649.49	37502.40
649.63	37598.37
649.78	37895.61
649.92	37825.40
650.07	37731.78
650.21	37741.14
650.36	37530.49
650.51	37352.61
650.65	37516.45
650.80	37794.97
650.94	37212.18
651.09	37638.15
651.23	37366.65
651.38	37109.19
651.52	37088.13
651.67	37186.43
651.81	36968.76
651.96	37659.22
652.10	37329.20
652.25	37319.84
652.39	37741.14
652.54	37223.88
652.68	37120.90
652.83	36905.57
652.97	37708.37
653.12	37017.91
653.26	37067.06
653.41	37422.83
653.55	37345.59
653.70	36400.01
653.84	36753.43
653.99	37046.00
654.13	37071.75
654.27	36643.43
654.42	36591.94
654.56	36512.36
654.71	36718.32
654.85	36723.01
655.00	36804.92
655.14	36891.52
655.29	36657.47
655.43	36807.26
655.57	36765.14
655.72	36715.98
655.86	36280.64
656.01	36123.83
656.15	36067.66
656.30	36245.54
656.44	36168.30
656.58	36280.64
656.73	36018.50
656.87	36409.37
657.01	36392.99
657.16	36500.65
657.30	36163.62
657.45	36620.02
657.59	35826.58
657.73	35838.28
657.88	36037.23
658.02	36435.12
658.16	36130.85
658.31	36037.23
658.45	35857.01
658.60	35847.64
658.74	35337.41
658.88	35775.09
659.03	35536.35
659.17	35702.53
659.31	35747.00
659.46	35835.94
659.60	35819.56
659.74	36126.17
659.89	35908.50
660.03	35531.67
660.17	35807.86
660.32	35204.00
660.46	35168.89
660.60	35222.72
660.74	35145.48
660.89	34930.16
661.03	34995.69
661.17	34998.03
661.32	35173.57
661.46	35377.20
661.60	35208.68
661.74	35016.75
661.89	35152.51
662.03	35353.79
662.17	35185.27
662.31	34703.12
662.46	34953.56
662.60	35035.48
662.74	34506.52
662.88	34822.49
663.03	34476.09
663.17	34693.76
663.31	34642.27
663.45	34389.49
663.60	34511.20
663.74	34651.63
663.88	34307.57
664.02	34562.69
664.17	34621.20
664.31	34345.02
664.45	34249.06
664.59	34426.94
664.73	34412.90
664.88	34010.32
665.02	34143.74
665.16	33776.27
665.30	33970.54
665.44	33893.30
665.59	33399.44
665.73	34047.77
665.87	33743.50
666.01	33631.16
666.15	34115.65
666.29	33373.70
666.44	33787.97
666.58	33415.83
666.72	33509.45
666.86	33890.96
667.00	33890.96
667.14	33851.17
667.28	33467.32
667.43	33165.39
667.57	33125.60
667.71	33167.73
667.85	33273.06
667.99	33074.11
668.13	32758.14
668.27	33055.39
668.41	33092.83
668.56	32758.14
668.70	33191.14
668.84	33298.80
668.98	32889.21
669.12	32950.06
669.26	32964.10
669.40	32606.00
669.54	32517.06
669.68	32496.00
669.82	32353.23
669.96	32020.87
670.10	31957.67
670.25	32224.50
670.39	32093.43
670.53	32121.51
670.67	32189.39
670.81	32102.79
670.95	32243.22
671.09	31840.65
671.23	31779.79
671.37	32149.60
671.51	32240.88
671.65	31545.74
671.79	31620.64
671.93	31573.83
672.07	31725.96
672.21	31187.64
672.35	31325.73
672.49	31283.60
672.63	31007.42
672.77	31122.10
672.91	30782.73
673.05	31068.27
673.19	31229.77
673.33	31089.34
673.47	30916.14
673.61	31002.74
673.75	30981.67
673.89	30906.77
674.03	30347.39
674.17	30541.65
674.31	30345.05
674.45	30478.46
674.59	30604.84
674.73	30160.14
674.87	30239.72
675.01	30153.12
675.15	29788.00
675.29	29968.22
675.43	30183.55
675.56	30199.93
675.70	30277.17
675.84	29942.47
675.98	28964.13
676.12	29972.90
676.26	30141.42
676.40	29757.57
676.54	29586.71
676.68	29352.66
676.82	28940.72
676.96	29221.59
677.10	29017.96
677.23	29081.16
677.37	29036.69
677.51	28814.34
677.65	28395.38
677.79	28500.70
677.93	28425.81
678.07	28503.04
678.21	28369.63
678.34	28687.95
678.48	28198.77
678.62	28166.01
678.76	28343.89
678.90	28128.56
679.04	27800.88
679.18	27861.74
679.31	27880.46
679.45	27777.48
679.59	27798.54
679.73	27431.08
679.87	27674.49
680.00	27260.22
680.14	27143.19
680.28	27300.01
680.42	27014.46
680.56	27391.29
680.70	27072.98
680.83	26909.14
680.97	27187.66
681.11	27014.46
681.25	27108.08
681.39	27112.77
681.52	26614.23
681.66	26431.67
681.80	26562.74
681.94	26181.23
682.07	26211.66
682.21	26253.79
682.35	25968.24
682.49	25788.02
682.62	26136.76
682.76	25947.18
682.90	25858.24
683.04	25783.34
683.17	25516.52
683.31	25619.50
683.45	25673.34
683.59	25633.55
683.72	25748.23
683.86	25125.65
684.00	25153.74
684.13	25071.82
684.27	25095.22
684.41	24769.89
684.55	24650.52
684.68	24861.17
684.82	24940.75
684.96	24638.82
685.09	24308.80
685.23	24123.90
685.37	24692.65
685.50	24449.24
685.64	24435.19
685.78	24144.97
685.91	24400.08
686.05	24137.94
686.19	23756.44
686.32	24088.79
686.46	23555.15
686.60	23304.71
686.73	23550.47
686.87	23150.24
687.01	23239.18
687.14	23274.29
687.28	23337.48
687.42	22927.89
687.55	23105.77
687.69	23070.66
687.82	23023.85
687.96	23173.64
688.10	23012.15
688.23	23133.86
688.37	22518.29
688.50	22747.67
688.64	22544.04
688.78	22551.06
688.91	22375.52
689.05	22537.02
689.18	22312.33
689.32	21874.65
689.46	21895.71
689.59	21984.65
689.73	22204.66
689.86	21593.78
690.00	21656.98
690.13	21577.40
690.27	21406.54
690.41	21535.27
690.54	21301.22
690.68	21336.32
690.81	21296.53
690.95	21523.57
691.08	21390.16
691.22	21308.24
691.35	21053.12
691.49	20762.89
691.62	21160.78
691.76	20592.03
691.89	20563.95
692.03	20526.50
692.16	20491.39
692.30	20266.70
692.43	20170.74
692.57	20144.99
692.70	20002.22
692.84	20112.22
692.97	19882.85
693.11	20105.20
693.24	20140.31
693.38	20037.33
693.51	19707.31
693.65	19826.68
693.78	19566.88
693.92	19473.26
694.05	19609.01
694.19	19295.38
694.32	19311.76
694.45	18965.36
694.59	18906.85
694.72	18838.97
694.86	18951.32
694.99	18588.53
695.13	18883.44
695.26	18740.67
695.39	18595.56
695.53	18640.03
695.66	18574.49
695.80	18614.28
695.93	18424.70
696.07	18363.84
696.20	18750.03
696.33	18501.93
696.47	18094.68
696.60	18099.36
696.73	17858.29
696.87	18129.79
697.00	17710.83
697.14	17685.09
697.27	17446.35
697.40	17238.05
697.54	17188.89
697.67	17324.65
697.80	17336.35
697.94	17474.44
698.07	17191.23
698.21	17160.81
698.34	17172.51
698.47	16964.20
698.61	16671.64
698.74	16823.77
698.87	17013.35
699.01	16573.33
699.14	16681.00
699.27	16896.33
699.40	16498.44
699.54	16294.81
699.67	16294.81
699.80	15812.66
699.94	15950.75
700.07	16086.50
700.20	15772.87
700.34	15836.06
700.47	15784.57
700.60	15974.16
700.73	15805.64
700.87	15587.97
701.00	15477.96
701.13	15726.06
701.26	15712.02
701.40	15910.96
701.53	15538.82
701.66	15449.88
701.79	15482.64
701.93	15274.34
702.06	14885.81
702.19	14932.62
702.32	14773.46
702.46	14824.95
702.59	14822.61
702.72	14703.25
702.85	14523.02
702.99	14794.53
703.12	14597.92
703.25	14630.69
703.38	14682.18
703.51	14649.41
703.65	14422.38
703.78	14441.11
703.91	14293.65
704.04	14225.78
704.17	14284.29
704.31	13930.87
704.44	14022.15
704.57	14078.32
704.70	13893.42
704.83	13605.53
704.96	13743.63
705.10	13666.39
705.23	13762.35
>>>>>End Processed Spectral Data<<<<<
