SpectraSuite Data File
++++++++++++++++++++++++++++++++++++
Date: Tue Oct 01 18:27:26 GMT-05:00 2013
User: stostad
Dark Spectrum Present: No
Reference Spectrum Present: No
Number of Sampled Component Spectra: 1
Spectrometers: USB2+H05261
Integration Time (usec): 100000 (USB2+H05261)
Spectra Averaged: 1 (USB2+H05261)
Boxcar Smoothing: 0 (USB2+H05261)
Correct for Electrical Dark: No (USB2+H05261)
Strobe/Lamp Enabled: No (USB2+H05261)
Correct for Detector Non-linearity: No (USB2+H05261)
Correct for Stray Light: No (USB2+H05261)
Number of Pixels in Processed Spectrum: 2048
>>>>>Begin Processed Spectral Data<<<<<
365.73	102.98
365.92	102.98
366.12	102.98
366.32	0.00
366.52	0.00
366.72	65.54
366.91	0.00
367.11	30.43
367.31	0.00
367.51	0.00
367.70	0.00
367.90	0.00
368.10	0.00
368.30	23.41
368.49	0.00
368.69	67.88
368.89	0.00
369.09	0.00
369.28	0.00
369.48	0.00
369.68	0.00
369.87	63.19
370.07	0.00
370.27	0.00
370.47	35.11
370.66	201.29
370.86	301.93
371.06	332.36
371.25	341.72
371.45	304.27
371.65	308.95
371.84	297.25
372.04	355.76
372.24	313.63
372.44	285.55
372.63	353.42
372.83	430.66
373.03	351.08
373.22	423.64
373.42	308.95
373.62	393.21
373.81	409.59
374.01	435.34
374.21	493.85
374.40	409.59
374.60	418.96
374.79	414.27
374.99	428.32
375.19	421.30
375.38	533.64
375.58	482.15
375.78	425.98
375.97	538.32
376.17	535.98
376.37	423.64
376.56	484.49
376.76	395.55
376.95	461.09
377.15	395.55
377.35	493.85
377.54	482.15
377.74	416.62
377.93	512.58
378.13	493.85
378.33	510.24
378.52	430.66
378.72	440.02
378.91	451.72
379.11	393.21
379.31	479.81
379.50	503.22
379.70	599.18
379.89	547.69
380.09	566.41
380.28	468.11
380.48	571.09
380.68	568.75
380.87	491.51
381.07	634.29
381.26	479.81
381.46	519.60
381.65	606.20
381.85	554.71
382.04	540.66
382.24	540.66
382.43	526.62
382.63	491.51
382.83	580.45
383.02	587.47
383.22	655.35
383.41	615.56
383.61	575.77
383.80	608.54
384.00	587.47
384.19	559.39
384.39	617.90
384.58	521.94
384.78	587.47
384.97	578.11
385.17	599.18
385.36	662.37
385.56	683.44
385.75	636.63
385.95	734.93
386.14	692.80
386.34	660.03
386.53	702.16
386.72	615.56
386.92	713.86
387.11	699.82
387.31	723.23
387.50	655.35
387.70	648.33
387.89	706.84
388.09	706.84
388.28	716.20
388.48	704.50
388.67	774.72
388.86	737.27
389.06	697.48
389.25	702.16
389.45	704.50
389.64	816.85
389.84	800.46
390.03	704.50
390.22	812.17
390.42	702.16
390.61	744.29
390.81	753.65
391.00	795.78
391.19	774.72
391.39	786.42
391.58	732.59
391.78	732.59
391.97	828.55
392.16	720.88
392.36	851.96
392.55	819.19
392.75	835.57
392.94	816.85
393.13	821.53
393.33	821.53
393.52	830.89
393.71	903.45
393.91	851.96
394.10	908.13
394.29	905.79
394.49	945.58
394.68	997.07
394.88	987.71
395.07	877.70
395.26	901.11
395.46	917.49
395.65	978.34
395.84	929.19
396.04	1055.58
396.23	922.17
396.42	1015.79
396.62	910.47
396.81	1048.56
397.00	1043.88
397.19	980.68
397.39	1100.05
397.58	1083.67
397.77	1137.50
397.97	1107.07
398.16	1034.52
398.35	1069.62
398.55	1062.60
398.74	1121.12
398.93	1184.31
399.12	1149.20
399.32	1116.44
399.51	1139.84
399.70	1228.78
399.90	1287.29
400.09	1158.57
400.28	1200.69
400.47	1247.51
400.67	1188.99
400.86	1256.87
401.05	1125.80
401.24	1277.93
401.44	1306.02
401.63	1364.53
401.82	1268.57
402.01	1277.93
402.21	1387.94
402.40	1287.29
402.59	1343.47
402.78	1324.74
402.97	1378.58
403.17	1460.49
403.36	1362.19
403.55	1451.13
403.74	1530.71
403.93	1394.96
404.13	1507.30
404.32	1483.90
404.51	1439.43
404.70	1483.90
404.89	1636.03
405.09	1636.03
405.28	1556.46
405.47	1575.18
405.66	1584.54
405.85	1692.21
406.05	1614.97
406.24	1612.63
406.43	1603.27
406.62	1699.23
406.81	1701.57
407.00	1666.46
407.20	1753.06
407.39	1664.12
407.58	1682.85
407.77	1748.38
407.96	1755.40
408.15	1795.19
408.34	1734.34
408.54	1778.81
408.73	1858.39
408.92	1842.00
409.11	1823.28
409.30	1874.77
409.49	1888.81
409.68	1947.33
409.87	1980.09
410.07	1961.37
410.26	2057.33
410.45	2047.97
410.64	1982.43
410.83	2019.88
411.02	2087.76
411.21	2141.59
411.40	2118.18
411.59	2141.59
411.78	2202.44
411.98	2300.75
412.17	2209.47
412.36	2085.42
412.55	2223.51
412.74	2373.30
412.93	2146.27
413.12	2270.32
413.31	2455.22
413.50	2296.07
413.69	2574.59
413.88	2450.54
414.07	2487.99
414.26	2436.50
414.45	2544.16
414.64	2459.90
414.83	2623.74
415.02	2595.65
415.22	2705.66
415.41	2745.45
415.60	2768.85
415.79	2815.66
415.98	2778.22
416.17	2747.79
416.36	2888.22
416.55	2827.37
416.74	2715.02
416.93	2757.15
417.12	2892.90
417.31	2981.84
417.50	2832.05
417.69	3056.74
417.88	2970.14
418.07	3007.59
418.26	3005.25
418.45	3033.33
418.64	3279.09
418.83	3197.17
419.02	3016.95
419.21	3145.68
419.39	3096.53
419.58	3129.30
419.77	3229.94
419.96	3155.04
420.15	3166.74
420.34	3302.50
420.53	3295.47
420.72	3414.84
420.91	3440.59
421.10	3503.78
421.29	3361.01
421.48	3279.09
421.67	3405.48
421.86	3342.28
422.05	3342.28
422.24	3297.81
422.43	3435.91
422.61	3501.44
422.80	3403.14
422.99	3499.10
423.18	3522.51
423.37	3440.59
423.56	3503.78
423.75	3515.48
423.94	3417.18
424.13	3391.44
424.32	3337.60
424.50	3501.44
424.69	3527.19
424.88	3705.07
425.07	3557.61
425.26	3576.34
425.45	3522.51
425.64	3669.96
425.83	3496.76
426.01	3534.21
426.20	3492.08
426.39	3571.66
426.58	3492.08
426.77	3578.68
426.96	3496.76
427.15	3672.30
427.33	3665.28
427.52	3693.37
427.71	3747.20
427.90	3723.79
428.09	3784.65
428.28	3864.22
428.46	3831.46
428.65	3974.23
428.84	3899.33
429.03	3941.46
429.22	3995.29
429.40	3889.97
429.59	3864.22
429.78	3761.24
429.97	3669.96
430.16	3911.04
430.34	3885.29
430.53	4009.34
430.72	4035.08
430.91	4067.85
431.10	3978.91
431.28	4056.15
431.47	4100.62
431.66	4056.15
431.85	4074.87
432.03	4100.62
432.22	4344.03
432.41	4245.73
432.60	4180.20
432.79	4383.82
432.97	4327.65
433.16	4224.67
433.35	4182.54
433.54	4327.65
433.72	4477.44
433.91	4376.80
434.10	4346.37
434.28	4337.01
434.47	4390.84
434.66	4535.96
434.85	4388.50
435.03	4358.08
435.22	4521.92
435.41	4606.17
435.59	4475.10
435.78	4461.06
435.97	4468.08
436.16	4622.56
436.34	4521.92
436.53	4624.90
436.72	4723.20
436.90	4463.40
437.09	4685.75
437.28	4652.98
437.46	4695.11
437.65	4800.44
437.84	4793.42
438.02	4844.91
438.21	4748.95
438.40	4645.96
438.58	4983.00
438.77	5027.47
438.96	4978.32
439.14	5057.90
439.33	5191.31
439.52	5076.62
439.70	5228.76
439.89	5245.14
440.08	5181.95
440.26	5329.40
440.45	5357.49
440.63	5329.40
440.82	5408.98
441.01	5383.23
441.19	5455.79
441.38	5542.39
441.57	5387.91
441.75	5652.39
441.94	5603.24
442.12	5612.60
442.31	5813.89
442.50	5781.12
442.68	5720.27
442.87	5776.44
443.05	5607.92
443.24	5881.77
443.43	5923.90
443.61	5823.25
443.80	5841.98
443.98	5907.51
444.17	5689.84
444.35	5708.57
444.54	6017.52
444.73	5771.76
444.91	5940.28
445.10	5944.96
445.28	5774.10
445.47	5905.17
445.65	6015.18
445.84	6010.50
446.02	6017.52
446.21	5987.09
446.39	5914.53
446.58	6160.29
446.77	6083.05
446.95	5928.58
447.14	6190.72
447.32	6132.20
447.51	6015.18
447.69	6047.94
447.88	6141.57
448.06	6153.27
448.25	6148.59
448.43	6141.57
448.62	5996.45
448.80	6069.01
448.99	6204.76
449.17	6300.72
449.36	6104.12
449.54	6354.55
449.73	6408.39
449.91	6415.41
450.10	6483.28
450.28	6525.41
450.46	6338.17
450.65	6516.05
450.83	6640.10
451.02	6555.84
451.20	6651.80
451.39	6551.16
451.57	6593.29
451.76	6644.78
451.94	6574.56
452.13	6696.27
452.31	6537.12
452.49	6649.46
452.68	6654.14
452.86	6857.77
453.05	6815.64
453.23	6902.24
453.42	6609.67
453.60	6705.63
453.78	6806.28
453.97	6878.83
454.15	6946.71
454.34	6843.73
454.52	7021.61
454.70	6874.15
454.89	7059.06
455.07	6911.60
455.26	6916.28
455.44	7269.70
455.62	7101.19
455.81	7014.59
455.99	7145.66
456.17	7066.08
456.36	7192.47
456.54	7337.58
456.73	7155.02
456.91	7478.01
457.09	7557.59
457.28	7616.10
457.46	7494.40
457.64	7475.67
457.83	7536.52
458.01	7625.47
458.19	7641.85
458.38	7513.12
458.56	7791.64
458.74	7826.75
458.93	7801.01
459.11	7648.87
459.29	7616.10
459.48	7824.41
459.66	7798.66
459.84	7796.32
460.03	7911.01
460.21	7913.35
460.39	7997.61
460.57	7946.12
460.76	7920.37
460.94	8187.19
461.12	8023.36
461.31	7880.58
461.49	8205.92
461.67	8044.42
461.85	8336.99
462.04	8093.57
462.22	8603.81
462.40	8383.80
462.59	8308.90
462.77	8116.98
462.95	8238.69
463.13	8189.53
463.32	8432.95
463.50	8290.18
463.68	8428.27
463.86	8367.42
464.05	8152.09
464.23	8393.16
464.41	8531.25
464.59	8341.67
464.78	8589.77
464.96	8528.91
465.14	8587.43
465.32	8589.77
465.50	8800.41
465.69	8688.07
465.87	8554.66
466.05	8645.94
466.23	8758.28
466.41	8872.97
466.60	8919.78
466.78	8667.00
466.96	8798.07
467.14	8751.26
467.32	8849.57
467.51	8926.80
467.69	8732.54
467.87	8905.74
468.05	8964.25
468.23	8879.99
468.41	8830.84
468.60	8931.48
468.78	9261.50
468.96	8999.36
469.14	9132.77
469.32	9273.20
469.50	9095.32
469.69	9593.86
469.87	9406.61
470.05	9432.36
470.23	9411.29
470.41	9511.94
470.59	9399.59
470.77	9507.26
470.95	9600.88
471.14	9823.23
471.32	9425.34
471.50	9760.03
471.68	9785.78
471.86	9935.57
472.04	9813.87
472.22	9984.73
472.40	9692.16
472.58	9923.87
472.77	9956.64
472.95	10289.00
473.13	10593.26
473.31	10106.43
473.49	10150.90
473.67	10169.63
473.85	10293.68
474.03	10569.86
474.21	10361.55
474.39	10642.42
474.57	10527.73
474.75	10562.84
474.93	10754.76
475.12	10714.97
475.30	11131.59
475.48	10892.85
475.66	10965.41
475.84	10834.34
476.02	11000.52
476.20	11098.82
476.38	11108.18
476.56	11517.78
476.74	11365.64
476.92	11274.36
477.10	11501.39
477.28	11477.99
477.46	11389.05
477.64	11714.38
477.82	11854.81
478.00	12042.06
478.18	11943.75
478.36	12320.58
478.54	12131.00
478.72	12315.90
478.90	12514.84
479.08	12702.09
479.26	12634.21
479.44	12793.37
479.62	12812.09
479.80	12702.09
479.98	13034.44
480.16	13202.96
480.34	13111.68
480.52	13188.92
480.70	13415.95
480.88	13252.11
481.06	13481.49
481.24	13207.64
481.41	13994.06
481.59	13944.91
481.77	13823.20
481.95	13933.21
482.13	14230.46
482.31	14155.56
482.49	14410.68
482.67	14581.54
482.85	14736.01
483.03	15087.09
483.21	14904.53
483.39	15218.16
483.57	14993.47
483.74	15176.03
483.92	14979.43
484.10	15335.19
484.28	15470.94
484.46	15740.10
484.64	16259.70
484.82	15789.25
485.00	16004.58
485.18	16318.22
485.35	16580.36
485.53	16379.07
485.71	16542.91
485.89	17060.16
486.07	16779.30
486.25	17294.22
486.43	17092.93
486.61	17198.26
486.78	17474.44
486.96	17483.80
487.14	17706.15
487.32	17823.18
487.50	17694.45
487.68	17858.29
487.85	18216.39
488.03	18658.75
488.21	18370.86
488.39	18387.25
488.57	18808.54
488.75	18724.29
488.92	19339.85
489.10	19367.93
489.28	19384.32
489.46	19300.06
489.64	19609.01
489.81	19946.05
489.99	20060.73
490.17	20159.03
490.35	20467.98
490.53	20215.21
490.70	20648.21
490.88	20173.08
491.06	20730.12
491.24	20631.82
491.41	20711.40
491.59	21528.25
491.77	21153.76
491.95	21268.45
492.13	21076.52
492.30	21357.39
492.48	21832.52
492.66	21963.59
492.84	21818.47
493.01	21844.22
493.19	21776.34
493.37	22356.80
493.54	22089.98
493.72	22780.43
493.90	22780.43
494.08	22806.18
494.25	23377.27
494.43	23040.23
494.61	23269.61
494.79	23367.91
494.96	23229.82
495.14	23702.61
495.32	23644.09
495.49	23878.15
495.67	23864.10
495.85	23861.76
496.02	24100.50
496.20	24379.02
496.38	24362.64
496.55	24353.27
496.73	24879.89
496.91	25046.07
497.09	24849.47
497.26	25219.27
497.44	24893.94
497.62	25303.53
497.79	25668.66
497.97	25790.36
498.14	26003.35
498.32	26003.35
498.50	26057.18
498.67	26272.51
498.85	26536.99
499.03	26560.40
499.20	26455.08
499.38	26775.73
499.56	26801.47
499.73	26953.61
499.91	26848.29
500.08	27342.14
500.26	26590.83
500.44	27227.45
500.61	27316.39
500.79	27264.90
500.97	27505.98
501.14	27751.73
501.32	27651.09
501.49	27723.65
501.67	28006.85
501.84	28416.44
502.02	28381.34
502.20	28278.35
502.37	28299.42
502.55	28261.97
502.72	28142.60
502.90	28425.81
503.07	28725.39
503.25	28774.55
503.43	28945.41
503.60	28849.44
503.78	29465.00
503.95	28973.49
504.13	29097.54
504.30	29359.68
504.48	29273.08
504.65	29516.50
504.83	29584.37
505.01	30134.40
505.18	30017.37
505.36	30073.54
505.53	30401.22
505.71	30436.33
505.88	30581.44
506.06	30094.61
506.23	30890.39
506.41	29986.94
506.58	30656.34
506.76	31035.50
506.93	30930.18
507.11	31119.76
507.28	30927.84
507.46	31033.16
507.63	31126.78
507.81	31407.65
507.98	31463.82
508.16	31463.82
508.33	31428.71
508.50	31358.50
508.68	31704.90
508.85	31812.56
509.03	31899.16
509.20	32163.64
509.38	32095.77
509.55	32154.28
509.73	32467.91
509.90	32299.39
510.08	32854.10
510.25	33092.83
510.42	32786.22
510.60	32898.57
510.77	32957.08
510.95	32926.66
511.12	33001.55
511.30	33053.05
511.47	33411.15
511.64	33282.42
511.82	33659.24
511.99	33507.11
512.17	33684.99
512.34	33268.37
512.51	34134.37
512.69	34132.03
512.86	34646.95
513.04	34464.39
513.21	34206.93
513.38	34522.90
513.56	34117.99
513.73	34356.72
513.90	34658.65
514.08	34511.20
514.25	34993.35
514.43	34995.69
514.60	34794.40
514.77	35129.10
514.95	35225.06
515.12	35386.56
515.29	35241.45
515.47	35138.46
515.64	35400.60
515.81	35484.86
515.99	35122.08
516.16	35505.93
516.33	36151.91
516.51	35969.35
516.68	35775.09
516.85	36177.66
517.03	36116.81
517.20	36322.77
517.37	36238.51
517.54	35882.75
517.72	36100.42
517.89	36013.82
518.06	36376.61
518.24	36641.09
518.41	36456.18
518.58	36931.31
518.75	36680.88
518.93	36919.61
519.10	36992.17
519.27	36914.93
519.45	37368.99
519.62	37256.65
519.79	37251.97
519.96	37340.91
520.14	37530.49
520.31	36861.10
520.48	37275.37
520.65	37315.16
520.83	38192.86
521.00	38059.45
521.17	38260.74
521.34	38005.62
521.52	38132.01
521.69	38003.28
521.86	38199.88
522.03	38199.88
522.20	38770.97
522.38	38447.98
522.55	38494.79
522.72	38565.01
522.89	38691.40
523.07	38939.49
523.24	38609.48
523.41	39117.37
523.58	38625.86
523.75	39166.52
523.92	38787.36
524.10	39625.27
524.27	39477.82
524.44	39498.88
524.61	39920.18
524.78	39730.59
524.96	39817.19
525.13	39777.40
525.30	39789.11
525.47	39732.93
525.64	39988.05
525.81	40217.43
525.98	40306.37
526.16	40229.13
526.33	40065.29
526.50	40102.74
526.67	39945.92
526.84	40519.35
527.01	40533.40
527.18	40975.76
527.36	40631.70
527.53	40449.14
527.70	40830.65
527.87	40531.06
528.04	40891.50
528.21	40828.30
528.38	40921.93
528.55	41034.27
528.72	40856.39
528.89	41237.90
529.07	41354.93
529.24	40900.86
529.41	41132.57
529.58	41212.15
529.75	40971.08
529.92	41446.21
530.09	41464.93
530.26	41729.41
530.43	41666.22
530.60	41312.80
530.77	41387.69
530.94	41909.63
531.11	41965.81
531.28	41668.56
531.46	42176.45
531.63	42398.80
531.80	42010.28
531.97	42883.30
532.14	42337.95
532.31	41895.59
532.48	42340.29
532.65	42443.27
532.82	42380.08
532.99	42436.25
533.16	42873.93
533.33	42763.93
533.50	42815.42
533.67	42490.09
533.84	42419.87
534.01	42810.74
534.18	42572.00
534.35	43353.74
534.52	43171.18
534.69	43271.82
534.86	43569.07
535.03	42969.90
535.20	43402.89
535.37	43587.80
535.54	43400.55
535.71	43323.32
535.88	43529.28
536.05	43154.80
536.22	43543.33
536.38	43707.16
536.55	43552.69
536.72	43379.49
536.89	43543.33
537.06	43746.95
537.23	43941.22
537.40	44163.57
537.57	43899.09
537.74	44446.77
537.91	44109.74
538.08	44336.77
538.25	44011.43
538.42	44266.55
538.59	44575.50
538.75	44612.95
538.92	44301.66
539.09	45055.31
539.26	44708.91
539.43	44582.52
539.60	44678.49
539.77	44626.99
539.94	44924.24
540.11	45125.53
540.28	44896.16
540.44	44931.26
540.61	45198.09
540.78	45078.72
540.95	45123.19
541.12	45191.06
541.29	45244.90
541.46	45282.34
541.62	44737.00
541.79	45394.69
541.96	45270.64
542.13	45064.67
542.30	46038.34
542.47	45862.80
542.63	45918.97
542.80	45523.42
542.97	45853.44
543.14	46150.68
543.31	45584.27
543.48	45879.18
543.64	47009.66
543.81	46248.99
543.98	46251.33
544.15	46036.00
544.32	46454.95
544.48	46515.81
544.65	46604.75
544.82	46579.00
544.99	45691.94
545.16	46319.20
545.32	46855.18
545.49	47065.83
545.66	46789.65
545.83	46220.90
546.00	47049.45
546.16	46869.23
546.33	46618.79
546.50	46595.38
546.67	46642.20
546.83	46562.62
547.00	46834.12
547.17	46782.63
547.34	46838.80
547.50	47260.10
547.67	47105.62
547.84	47082.22
548.00	47136.05
548.17	47690.76
548.34	47562.03
548.51	47562.03
548.67	47482.45
548.84	47599.47
549.01	47585.43
549.18	47124.35
549.34	47552.66
549.51	47592.45
549.68	47482.45
549.84	47557.35
550.01	47770.33
550.18	47531.60
550.34	47501.17
550.51	47849.91
550.68	47887.36
550.84	47440.32
551.01	47901.40
551.18	47604.16
551.34	47772.67
551.51	47863.96
551.68	48083.97
551.84	48053.54
552.01	47569.05
552.18	47880.34
552.34	47856.93
552.51	48011.41
552.68	47746.93
552.84	48018.43
553.01	48404.62
553.18	48423.34
553.34	48385.89
553.51	48591.86
553.67	48264.19
553.84	48435.05
554.01	48095.67
554.17	48360.15
554.34	48605.91
554.51	48533.35
554.67	48650.38
554.84	48495.90
555.00	48428.02
555.17	48545.05
555.33	48905.49
555.50	48816.55
555.67	48268.87
555.83	48423.34
556.00	48856.34
556.16	49237.85
556.33	48942.94
556.50	49130.19
556.66	49078.69
556.83	48966.35
556.99	48769.74
557.16	48762.72
557.32	49265.94
557.49	49373.60
557.65	48762.72
557.82	49195.72
557.98	49251.89
558.15	49359.56
558.32	49457.86
558.48	49113.80
558.65	49083.37
558.81	48956.99
558.98	49036.56
559.14	48996.77
559.31	49331.47
559.47	49284.66
559.64	49167.63
559.80	49638.08
559.97	49415.73
560.13	49478.92
560.30	49230.83
560.46	49333.81
560.63	49247.21
560.79	49940.01
560.96	50120.23
561.12	49614.68
561.29	49404.03
561.45	49736.38
561.61	49799.58
561.78	49720.00
561.94	49687.23
562.11	49549.14
562.27	49497.65
562.44	49326.79
562.60	49820.64
562.77	49598.29
562.93	50003.20
563.10	50239.60
563.26	49780.85
563.42	50244.28
563.59	49628.72
563.75	49886.18
563.92	50082.78
564.08	49446.16
564.24	50178.75
564.41	49996.18
564.57	49790.22
564.74	49937.67
564.90	50031.29
565.07	49691.91
565.23	49848.73
565.39	49530.42
565.56	49897.88
565.72	49778.51
565.88	49996.18
566.05	49853.41
566.21	50021.93
566.38	50232.58
566.54	50213.85
566.70	49935.33
566.87	50291.09
567.03	50068.74
567.19	49949.37
567.36	50012.57
567.52	49979.80
567.68	50408.12
567.85	50354.29
568.01	50356.63
568.17	50117.89
568.34	50108.53
568.50	50089.80
568.66	49745.75
568.83	50134.28
568.99	50087.46
569.15	50000.86
569.32	50136.62
569.48	50436.20
569.64	50401.10
569.81	50071.08
569.97	50721.75
570.13	50052.36
570.30	50333.22
570.46	50042.99
570.62	50480.67
570.78	50220.87
570.95	50253.64
571.11	50375.35
571.27	50480.67
571.43	50681.96
571.60	50813.03
571.76	50401.10
571.92	50328.54
572.09	50784.94
572.25	50534.51
572.41	50473.65
572.57	50693.66
572.74	50880.91
572.90	50412.80
573.06	50440.89
573.22	50665.58
573.38	50663.24
573.55	50328.54
573.71	50557.91
573.87	50536.85
574.03	50209.17
574.20	50436.20
574.36	50705.37
574.52	50684.30
574.68	50433.86
574.84	50763.88
575.01	50798.99
575.17	50876.22
575.33	50314.50
575.49	50553.23
575.65	50845.80
575.82	51077.51
575.98	50532.17
576.14	51011.98
576.30	51056.45
576.46	50857.50
576.62	51077.51
576.79	50773.24
576.95	50267.69
577.11	50642.17
577.27	50614.08
577.43	50681.96
577.59	50260.66
577.75	50363.65
577.92	50520.46
578.08	50389.39
578.24	50798.99
578.40	50827.07
578.56	50829.41
578.72	50848.14
578.88	50780.26
579.04	50677.28
579.21	50459.61
579.37	50784.94
579.53	50911.33
579.69	50766.22
579.85	51079.85
580.01	50913.67
580.17	50820.05
580.33	51267.09
580.49	50897.29
580.65	50841.12
580.82	50660.90
580.98	50323.86
581.14	50672.60
581.30	50880.91
581.46	50625.79
581.62	51068.15
581.78	50951.12
581.94	51004.95
582.10	51056.45
582.26	51126.66
582.42	50798.99
582.58	50656.21
582.74	50504.08
582.90	50604.72
583.06	50859.84
583.22	50864.52
583.38	51288.16
583.54	50890.27
583.70	50738.13
583.86	51157.09
584.02	50763.88
584.18	51143.05
584.34	51129.00
584.50	51147.73
584.66	51014.32
584.82	50876.22
584.98	50997.93
585.14	51107.94
585.30	50602.38
585.46	51487.10
585.62	51215.60
585.78	51187.52
585.94	50955.80
586.10	50789.62
586.26	50995.59
586.42	51091.55
586.58	51077.51
586.74	51037.72
586.90	51058.79
587.06	51112.62
587.22	51405.19
587.38	50894.95
587.54	51370.08
587.70	51161.77
587.86	51192.20
588.02	51227.31
588.18	51201.56
588.34	51007.29
588.49	51098.58
588.65	50885.59
588.81	51100.92
588.97	51611.15
589.13	51454.34
589.29	51524.55
589.45	51473.06
589.61	51386.46
589.77	51208.58
589.93	51250.71
590.08	51480.08
590.24	51346.67
590.40	51194.54
590.56	51426.25
590.72	51494.13
590.88	51274.12
591.04	51484.76
591.20	51452.00
591.35	51620.52
591.51	51594.77
591.67	51288.16
591.83	51489.45
591.99	51330.29
592.15	51636.90
592.31	51664.99
592.46	51379.44
592.62	51564.34
592.78	51824.14
592.94	51751.59
593.10	51571.36
593.26	51473.06
593.41	51222.62
593.57	51381.78
593.73	51267.09
593.89	51554.98
594.05	51309.22
594.20	51529.23
594.36	51634.56
594.52	51430.93
594.68	51833.50
594.84	51580.73
594.99	51767.97
595.15	51877.97
595.31	51522.21
595.47	51533.92
595.62	51606.47
595.78	51702.43
595.94	51414.55
596.10	51552.64
596.25	51859.25
596.41	51964.57
596.57	51842.87
596.73	51861.59
596.88	51693.07
597.04	51620.52
597.20	51501.15
597.36	51428.59
597.51	51793.71
597.67	51583.07
597.83	51873.29
597.99	51622.86
598.14	51746.90
598.30	51725.84
598.46	52013.73
598.61	51826.48
598.77	51482.42
598.93	51777.33
599.09	51648.60
599.24	51913.08
599.40	51433.27
599.56	51557.32
599.71	51765.63
599.87	51735.20
600.03	51716.48
600.18	51920.10
600.34	51990.32
600.50	51660.30
600.65	51807.76
600.81	51828.82
600.97	51632.22
601.12	51519.87
601.28	51381.78
601.44	51643.92
601.59	51863.93
601.75	51604.13
601.91	51875.63
602.06	51634.56
602.22	51657.96
602.37	51751.59
602.53	51826.48
602.69	51798.40
602.84	51573.70
603.00	51585.41
603.16	51636.90
603.31	51583.07
603.47	51805.42
603.62	51798.40
603.78	51821.80
603.94	51866.27
604.09	51948.19
604.25	51789.03
604.40	51906.06
604.56	52039.47
604.71	51704.77
604.87	51346.67
605.03	51386.46
605.18	51449.66
605.34	51779.67
605.49	51723.50
605.65	51690.73
605.80	51620.52
605.96	51564.34
606.12	51625.20
606.27	52105.01
606.43	51751.59
606.58	51892.02
606.74	51353.69
606.89	51199.22
607.05	51793.71
607.20	51473.06
607.36	51526.89
607.51	51519.87
607.67	52130.75
607.82	51550.30
607.98	51625.20
608.13	51653.28
608.29	51393.48
608.44	51475.40
608.60	51168.79
608.75	51543.28
608.91	50906.65
609.06	51152.41
609.22	51533.92
609.37	50642.17
609.53	51395.82
609.68	51606.47
609.84	51222.62
609.99	51510.51
610.15	51386.46
610.30	51480.08
610.46	51203.90
610.61	51129.00
610.76	51215.60
610.92	51075.17
611.07	51171.13
611.23	51112.62
611.38	50857.50
611.54	51274.12
611.69	51370.08
611.84	51604.13
612.00	51217.94
612.15	51114.96
612.31	51129.00
612.46	51192.20
612.62	51241.35
612.77	50946.44
612.92	51332.63
613.08	50946.44
613.23	50951.12
613.39	50904.31
613.54	51105.60
613.69	50960.48
613.85	51220.28
614.00	51351.35
614.15	51231.99
614.31	51042.40
614.46	51121.98
614.62	51133.68
614.77	51173.47
614.92	51124.32
615.08	50967.51
615.23	51248.37
615.38	51152.41
615.54	51007.29
615.69	51030.70
615.84	50798.99
616.00	51075.17
616.15	50681.96
616.30	50960.48
616.46	50642.17
616.61	50644.51
616.76	50918.35
616.92	50468.97
617.07	50710.05
617.22	50920.70
617.37	50670.26
617.53	50939.42
617.68	50841.12
617.83	50674.94
617.99	50674.94
618.14	50843.46
618.29	50625.79
618.45	50614.08
618.60	50564.93
618.75	50344.92
618.90	50548.55
619.06	50445.57
619.21	50447.91
619.36	50475.99
619.51	50461.95
619.67	50326.20
619.82	50342.58
619.97	50593.02
620.12	49991.50
620.28	49813.62
620.43	50099.17
620.58	50230.24
620.73	50131.93
620.89	50061.72
621.04	50288.75
621.19	50277.05
621.34	50323.86
621.49	50064.06
621.65	50326.20
621.80	50855.16
621.95	50408.12
622.10	50354.29
622.25	50028.95
622.41	50122.57
622.56	49900.22
622.71	50082.78
622.86	50033.63
623.01	50190.45
623.16	49895.54
623.32	49940.01
623.47	50227.90
623.62	50183.43
623.77	50429.18
623.92	50499.40
624.07	50216.19
624.23	50075.76
624.38	50164.70
624.53	49855.75
624.68	49752.77
624.83	49883.84
624.98	49883.84
625.13	49593.61
625.29	49558.50
625.44	49586.59
625.59	49333.81
625.74	49530.42
625.89	49612.34
626.04	49691.91
626.19	49970.44
626.34	49415.73
626.49	49563.18
626.65	49279.98
626.80	49277.64
626.95	49146.57
627.10	49359.56
627.25	49350.20
627.40	49322.11
627.55	49221.47
627.70	48863.36
627.85	49371.26
628.00	49380.62
628.15	49476.58
628.30	49418.07
628.45	49228.49
628.60	49006.14
628.76	49167.63
628.91	49322.11
629.06	48828.26
629.21	49052.95
629.36	49162.95
629.51	49043.59
629.66	49275.30
629.81	48765.06
629.96	48938.26
630.11	49242.53
630.26	49029.54
630.41	48933.58
630.56	48638.67
630.71	49125.50
630.86	48964.01
631.01	48673.78
631.16	48556.75
631.31	48594.20
631.46	48397.60
631.61	49020.18
631.76	48622.29
631.91	48390.58
632.06	48657.40
632.21	48666.76
632.36	48662.08
632.51	48416.32
632.66	48617.61
632.81	48004.39
632.96	48559.09
633.10	48353.13
633.25	48353.13
633.40	48502.92
633.55	48264.19
633.70	48193.97
633.85	48311.00
634.00	48488.88
634.15	48479.52
634.30	48582.50
634.45	48645.69
634.60	48456.11
634.75	48495.90
634.90	48442.07
635.05	48325.04
635.19	47980.98
635.34	48222.06
635.49	47653.31
635.64	48439.73
635.79	48435.05
635.94	48121.41
636.09	48219.72
636.24	47805.44
636.39	47739.91
636.53	48430.36
636.68	48074.60
636.83	47749.27
636.98	48151.84
637.13	47899.06
637.28	47936.51
637.43	48215.04
637.57	47948.21
637.72	47973.96
637.87	48172.91
638.02	48062.90
638.17	47894.38
638.32	47770.33
638.46	47615.86
638.61	47550.32
638.76	47681.39
638.91	47847.57
639.06	47531.60
639.20	47578.41
639.35	47578.41
639.50	47196.90
639.65	47657.99
639.80	47662.67
639.94	47430.96
640.09	47772.67
640.24	47555.00
640.39	47672.03
640.54	47550.32
640.68	47674.37
640.83	47524.58
640.98	47065.83
641.13	47430.96
641.27	47320.95
641.42	47077.54
641.57	46972.21
641.72	46749.86
641.86	46454.95
642.01	46876.25
642.16	46972.21
642.31	46939.44
642.45	47358.40
642.60	46873.91
642.75	46740.50
642.90	46958.17
643.04	46876.25
643.19	46644.54
643.34	46609.43
643.48	46841.14
643.63	46827.10
643.78	46766.24
643.93	46679.64
644.07	46513.47
644.22	46871.57
644.37	46660.92
644.51	46852.84
644.66	46571.98
644.81	46284.09
644.95	46752.20
645.10	46382.40
645.25	46473.68
645.39	46859.87
645.54	46366.01
645.69	46808.37
645.83	46499.42
645.98	46674.96
646.13	46719.43
646.27	46333.24
646.42	46078.13
646.57	46492.40
646.71	46026.63
646.86	46763.90
647.00	46738.16
647.15	46562.62
647.30	46426.87
647.44	46693.69
647.59	46075.79
647.74	46314.52
647.88	46237.28
648.03	45925.99
648.17	46124.94
648.32	46071.10
648.47	46426.87
648.61	45734.07
648.76	46389.42
648.90	46248.99
649.05	45925.99
649.20	46490.06
649.34	45986.85
649.49	46036.00
649.63	45785.56
649.78	46185.79
649.92	45544.48
650.07	46424.53
650.21	45296.39
650.36	45661.51
650.51	45535.12
650.65	45574.91
650.80	45467.25
650.94	45588.95
651.09	45408.73
651.23	45162.98
651.38	45804.28
651.52	45563.21
651.67	45801.94
651.81	45776.20
651.96	45839.39
652.10	45542.14
652.25	45209.79
652.39	45689.60
652.54	45207.45
652.68	45694.28
652.83	45457.88
652.97	45411.07
653.12	45052.97
653.26	44942.97
653.41	45326.81
653.55	45167.66
653.70	45467.25
653.84	45783.22
653.99	45322.13
654.13	45530.44
654.27	45310.43
654.42	45104.46
654.56	44645.72
654.71	44989.78
654.85	44830.62
655.00	45083.40
655.14	44912.54
655.29	44706.57
655.43	45097.44
655.57	44636.36
655.72	44868.07
655.86	45434.48
656.01	45195.74
656.15	44949.99
656.30	44634.02
656.44	44643.38
656.58	44884.45
656.73	44746.36
656.87	44332.09
657.01	44587.21
657.16	44589.55
657.30	44425.71
657.45	44048.88
657.59	43971.64
657.73	44161.23
657.88	44189.31
658.02	44091.01
658.16	44514.65
658.31	44364.85
658.45	44559.12
658.60	44030.16
658.74	44500.61
658.88	43728.23
659.03	44142.50
659.17	43533.96
659.31	44311.02
659.46	43335.02
659.60	43473.11
659.74	43976.33
659.89	43566.73
660.03	43969.30
660.17	43852.28
660.32	43557.37
660.46	44062.93
660.60	43728.23
660.74	43798.44
660.89	43725.89
661.03	43540.99
661.17	43770.36
661.32	43072.88
661.46	43243.74
661.60	42642.22
661.74	43494.18
661.89	42920.74
662.03	42759.25
662.17	42623.50
662.31	42569.66
662.46	43365.45
662.60	42782.65
662.74	42401.14
662.88	42696.05
663.03	43182.88
663.17	43227.35
663.31	42810.74
663.45	42927.77
663.60	42579.03
663.74	42698.39
663.88	42295.82
664.02	42043.04
664.17	42061.77
664.31	42000.91
664.45	42307.52
664.59	42525.19
664.73	42225.60
664.88	42373.06
665.02	41596.00
665.16	42047.72
665.30	42131.98
665.44	42679.67
665.59	41750.48
665.73	41975.17
665.87	41202.79
666.01	41603.02
666.15	41373.65
666.29	41759.84
666.44	41570.25
666.58	41010.87
666.72	41179.39
666.86	40994.48
667.00	41399.40
667.14	41137.26
667.28	41282.37
667.43	40648.08
667.57	41141.94
667.71	41895.59
667.85	41769.20
667.99	41418.12
668.13	41017.89
668.27	40961.72
668.41	40961.72
668.56	40566.16
668.70	40479.57
668.84	40423.39
668.98	40362.54
669.12	40018.48
669.26	40671.49
669.40	40371.90
669.54	40470.20
669.68	40378.92
669.82	40119.12
669.96	40282.96
670.10	40308.71
670.25	40552.12
670.39	40264.24
670.53	39978.69
670.67	39896.77
670.81	40030.18
670.95	39676.76
671.09	39407.60
671.23	39636.97
671.37	39173.55
671.51	38920.77
671.65	39009.71
671.79	38808.42
671.93	39182.91
672.07	39449.73
672.21	39335.04
672.35	39632.29
672.49	38911.41
672.63	39433.35
672.77	39335.04
672.91	38892.68
673.05	38487.77
673.19	39035.45
673.33	38562.67
673.47	38787.36
673.61	38738.21
673.75	38244.35
673.89	38178.82
674.03	38089.88
674.17	38417.55
674.31	38209.25
674.45	38492.45
674.59	37902.64
674.73	38181.16
674.87	37979.87
675.01	37787.95
675.15	37947.11
675.29	37991.58
675.43	37677.94
675.56	37394.74
675.70	37640.50
675.84	37413.46
675.98	36322.77
676.12	37120.90
676.26	37434.53
676.40	37200.47
676.54	36762.79
676.68	36467.89
676.82	36123.83
676.96	36772.16
677.10	36503.00
677.23	36648.11
677.37	36507.68
677.51	36825.99
677.65	36512.36
677.79	35871.05
677.93	35693.17
678.07	36266.60
678.21	35519.97
678.34	35117.40
678.48	35126.76
678.62	35213.36
678.76	34953.56
678.90	35171.23
679.04	34862.28
679.18	35082.29
679.31	34714.83
679.45	35234.42
679.59	35061.22
679.73	35168.89
679.87	34909.09
680.00	34707.80
680.14	34803.77
680.28	34518.22
680.42	34242.04
680.56	34115.65
680.70	33703.71
680.83	33336.25
680.97	33141.99
681.11	33680.31
681.25	33544.56
681.39	33446.26
681.52	33530.51
681.66	33502.43
681.80	33284.76
681.94	33010.92
682.07	33387.74
682.21	33376.04
682.35	32863.46
682.49	32657.49
682.62	32563.87
682.76	32711.33
682.90	32687.92
683.04	32444.51
683.17	32409.40
683.31	31983.42
683.45	32041.93
683.59	31903.84
683.72	31913.20
683.86	31737.66
684.00	31431.05
684.13	31620.64
684.27	31648.72
684.41	31545.74
684.55	31409.99
684.68	31489.57
684.82	31391.26
684.96	31440.42
685.09	30693.79
685.23	30850.60
685.37	30607.19
685.50	30366.11
685.64	30249.08
685.78	30258.45
685.91	30410.58
686.05	30043.12
686.19	29914.39
686.32	30176.53
686.46	29504.79
686.60	29762.25
686.73	29827.79
686.87	29715.44
687.01	30302.92
687.14	29516.50
687.28	30047.80
687.42	29383.09
687.55	29336.27
687.69	29640.54
687.82	29102.22
687.96	29085.84
688.10	29050.73
688.23	28353.25
688.37	28409.42
688.50	28297.08
688.64	28477.30
688.78	28130.90
688.91	28119.20
689.05	28357.93
689.18	28400.06
689.32	27557.47
689.46	27835.99
689.59	28077.07
689.73	27784.50
689.86	27613.64
690.00	27646.41
690.13	27648.75
690.27	27690.88
690.41	27442.78
690.54	26925.52
690.68	26939.57
690.81	27110.43
690.95	26771.05
691.08	26984.04
691.22	26647.00
691.35	26412.95
691.49	26438.69
691.62	26494.86
691.76	26195.28
691.89	26363.79
692.03	26349.75
692.16	25626.53
692.30	26134.42
692.43	26265.49
692.57	26139.10
692.70	25951.86
692.84	25825.47
692.97	25745.89
693.11	25153.74
693.24	25025.01
693.38	25205.23
693.51	25408.86
693.65	25441.62
693.78	24362.64
693.92	24795.64
694.05	25057.78
694.19	24842.45
694.32	24716.06
694.45	24329.87
694.59	24699.67
694.72	24533.50
694.86	24470.30
694.99	24254.97
695.13	24119.22
695.26	24147.31
695.39	23435.78
695.53	23831.33
695.66	23398.34
695.80	23461.53
695.93	23007.47
696.07	23197.05
696.20	23466.21
696.33	22792.14
696.47	23112.79
696.60	22934.91
696.73	22902.14
696.87	22405.95
697.00	23044.91
697.14	22813.20
697.27	22438.72
697.40	22534.68
697.54	22766.39
697.67	21965.93
697.80	22459.78
697.94	22176.58
698.07	21832.52
698.21	21619.53
698.34	21673.36
698.47	21874.65
698.61	21404.20
698.74	21401.86
698.87	21493.14
699.01	21153.76
699.14	20863.54
699.27	21212.28
699.40	21184.19
699.54	21022.69
699.67	21053.12
699.80	20765.23
699.94	20613.10
700.07	20903.32
700.20	20416.49
700.34	20334.57
700.47	20458.62
700.60	20645.87
700.73	20245.63
700.87	20023.28
701.00	20016.26
701.13	19866.47
701.26	19693.27
701.40	19690.93
701.53	19009.83
701.66	19609.01
701.79	19569.22
701.93	19403.04
702.06	19218.14
702.19	19108.13
702.32	19276.65
702.46	19559.86
702.59	18939.62
702.72	19051.96
702.85	19124.52
702.99	18845.99
703.12	18799.18
703.25	18766.42
703.38	18647.05
703.51	18031.49
703.65	18244.48
703.78	18216.39
703.91	17970.63
704.04	17926.16
704.17	17813.82
704.31	18169.58
704.44	17905.10
704.57	17968.29
704.70	17858.29
704.83	17659.34
704.96	17776.37
705.10	17549.34
705.23	18082.98
>>>>>End Processed Spectral Data<<<<<
