SpectraSuite Data File
++++++++++++++++++++++++++++++++++++
Date: Tue Oct 01 18:27:29 GMT-05:00 2013
User: stostad
Dark Spectrum Present: No
Reference Spectrum Present: No
Number of Sampled Component Spectra: 1
Spectrometers: USB2+H05261
Integration Time (usec): 100000 (USB2+H05261)
Spectra Averaged: 1 (USB2+H05261)
Boxcar Smoothing: 0 (USB2+H05261)
Correct for Electrical Dark: No (USB2+H05261)
Strobe/Lamp Enabled: No (USB2+H05261)
Correct for Detector Non-linearity: No (USB2+H05261)
Correct for Stray Light: No (USB2+H05261)
Number of Pixels in Processed Spectrum: 2048
>>>>>Begin Processed Spectral Data<<<<<
365.73	86.60
365.92	86.60
366.12	86.60
366.32	0.00
366.52	0.00
366.72	11.70
366.91	0.00
367.11	0.00
367.31	0.00
367.51	0.00
367.70	0.00
367.90	0.00
368.10	30.43
368.30	0.00
368.49	35.11
368.69	25.75
368.89	0.00
369.09	0.00
369.28	0.00
369.48	0.00
369.68	7.02
369.87	0.00
370.07	39.79
370.27	86.60
370.47	105.32
370.66	341.72
370.86	325.33
371.06	327.68
371.25	400.23
371.45	355.76
371.65	376.83
371.84	327.68
372.04	362.78
372.24	444.70
372.44	390.87
372.63	327.68
372.83	409.59
373.03	449.38
373.22	409.59
373.42	437.68
373.62	456.40
373.81	435.34
374.01	447.04
374.21	433.00
374.40	500.87
374.60	470.45
374.79	540.66
374.99	435.34
375.19	433.00
375.38	463.43
375.58	433.00
375.78	456.40
375.97	461.09
376.17	491.51
376.37	482.15
376.56	479.81
376.76	486.83
376.95	552.37
377.15	521.94
377.35	465.77
377.54	550.03
377.74	479.81
377.93	533.64
378.13	554.71
378.33	528.96
378.52	550.03
378.72	594.50
378.91	510.24
379.11	526.62
379.31	456.40
379.50	468.11
379.70	564.07
379.89	564.07
380.09	608.54
380.28	582.79
380.48	653.01
380.68	580.45
380.87	524.28
381.07	585.13
381.26	582.79
381.46	613.22
381.65	624.92
381.85	585.13
382.04	566.41
382.24	599.18
382.43	573.43
382.63	603.86
382.83	617.90
383.02	629.60
383.22	662.37
383.41	550.03
383.61	622.58
383.80	664.71
384.00	650.67
384.19	622.58
384.39	662.37
384.58	690.46
384.78	610.88
384.97	699.82
385.17	674.07
385.36	629.60
385.56	599.18
385.75	603.86
385.95	662.37
386.14	617.90
386.34	608.54
386.53	671.73
386.72	699.82
386.92	723.23
387.11	685.78
387.31	697.48
387.50	631.94
387.70	678.76
387.89	748.97
388.09	692.80
388.28	688.12
388.48	657.69
388.67	744.29
388.86	809.83
389.06	741.95
389.25	805.14
389.45	826.21
389.64	847.27
389.84	823.87
390.03	800.46
390.22	842.59
390.42	795.78
390.61	744.29
390.81	800.46
391.00	793.44
391.19	866.00
391.39	819.19
391.58	957.28
391.78	884.72
391.97	835.57
392.16	898.77
392.36	978.34
392.55	997.07
392.75	922.17
392.94	915.15
393.13	936.21
393.33	858.98
393.52	943.24
393.71	1013.45
393.91	919.83
394.10	978.34
394.29	919.83
394.49	971.32
394.68	997.07
394.88	1053.24
395.07	1053.24
395.26	952.60
395.46	1018.13
395.65	1135.16
395.84	1100.05
396.04	1123.46
396.23	1034.52
396.42	1083.67
396.62	1118.78
396.81	1043.88
397.00	1020.47
397.19	1156.22
397.39	1191.33
397.58	1137.50
397.77	1086.01
397.97	1188.99
398.16	1245.16
398.35	1188.99
398.55	1219.42
398.74	1111.75
398.93	1228.78
399.12	1116.44
399.32	1095.37
399.51	1130.48
399.70	1247.51
399.90	1238.14
400.09	1345.81
400.28	1296.66
400.47	1399.64
400.67	1336.45
400.86	1313.04
401.05	1268.57
401.24	1315.38
401.44	1409.00
401.63	1331.76
401.82	1411.34
402.01	1390.28
402.21	1493.26
402.40	1451.13
402.59	1460.49
402.78	1474.54
402.97	1483.90
403.17	1465.18
403.36	1561.14
403.55	1490.92
403.74	1589.22
403.93	1603.27
404.13	1621.99
404.32	1526.03
404.51	1490.92
404.70	1673.48
404.89	1626.67
405.09	1692.21
405.28	1612.63
405.47	1729.66
405.66	1638.38
405.85	1643.06
406.05	1715.61
406.24	1748.38
406.43	1753.06
406.62	1776.47
406.81	1830.30
407.00	1839.66
407.20	1727.32
407.39	1785.83
407.58	1947.33
407.77	1947.33
407.96	2005.84
408.15	1877.11
408.34	1916.90
408.54	1968.39
408.73	1996.48
408.92	2029.24
409.11	2043.29
409.30	2045.63
409.49	1991.80
409.68	2045.63
409.87	2078.40
410.07	2069.03
410.26	2162.66
410.45	2111.16
410.64	2167.34
410.83	2265.64
411.02	2143.93
411.21	2244.57
411.40	2267.98
411.59	2389.69
411.78	2256.28
411.98	2277.34
412.17	2319.47
412.36	2359.26
412.55	2324.15
412.74	2420.11
412.93	2478.63
413.12	2436.50
413.31	2553.52
413.50	2523.10
413.69	2635.44
413.88	2590.97
414.07	2579.27
414.26	2738.43
414.45	2686.94
414.64	2586.29
414.83	2698.64
415.02	2733.75
415.22	2810.98
415.41	2918.65
415.60	2813.32
415.79	2895.24
415.98	2979.50
416.17	2867.16
416.36	2937.37
416.55	2993.55
416.74	3026.31
416.93	3141.00
417.12	3026.31
417.31	3080.14
417.50	3016.95
417.69	3169.09
417.88	3192.49
418.07	3229.94
418.26	3094.19
418.45	3171.43
418.64	3335.26
418.83	3368.03
419.02	3295.47
419.21	3283.77
419.39	3344.63
419.58	3318.88
419.77	3176.11
419.96	3456.97
420.15	3508.46
420.34	3248.66
420.53	3482.72
420.72	3576.34
420.91	3433.57
421.10	3536.55
421.29	3658.26
421.48	3454.63
421.67	3646.55
421.86	3494.42
422.05	3588.04
422.24	3559.95
422.43	3534.21
422.61	3674.64
422.80	3684.00
422.99	3655.92
423.18	3728.47
423.37	3655.92
423.56	3735.50
423.75	3672.30
423.94	3646.55
424.13	3452.29
424.32	3548.25
424.50	3758.90
424.69	3763.58
424.88	3749.54
425.07	3693.37
425.26	3641.87
425.45	3679.32
425.64	3772.94
425.83	3667.62
426.01	3812.73
426.20	3648.90
426.39	3819.75
426.58	3648.90
426.77	3740.18
426.96	3843.16
427.15	3798.69
427.33	3904.01
427.52	4035.08
427.71	3960.19
427.90	3852.52
428.09	3957.85
428.28	4067.85
428.46	4058.49
428.65	4081.89
428.84	4145.09
429.03	4060.83
429.22	4051.47
429.40	4051.47
429.59	4088.92
429.78	3962.53
429.97	3857.20
430.16	3983.59
430.34	4138.07
430.53	4381.48
430.72	4266.80
430.91	4212.96
431.10	4236.37
431.28	4255.09
431.47	4367.44
431.66	4447.02
431.85	4397.87
432.03	4500.85
432.22	4430.63
432.41	4393.19
432.60	4479.79
432.79	4461.06
432.97	4437.66
433.16	4667.03
433.35	4503.19
433.54	4596.81
433.72	4545.32
433.91	4720.86
434.10	4596.81
434.28	4526.60
434.47	4795.76
434.66	4692.77
434.85	4784.06
435.03	4671.71
435.22	4753.63
435.41	4896.40
435.59	4884.70
435.78	4781.71
435.97	4870.65
436.16	4980.66
436.34	4798.10
436.53	4821.50
436.72	4973.64
436.90	4898.74
437.09	5029.81
437.28	4835.55
437.46	4961.94
437.65	5107.05
437.84	4940.87
438.02	5036.83
438.21	4992.36
438.40	5118.75
438.58	5270.89
438.77	5327.06
438.96	5172.58
439.14	5291.95
439.33	5308.34
439.52	5385.57
439.70	5357.49
439.89	5439.40
440.08	5537.71
440.26	5692.18
440.45	5657.07
440.63	5767.08
440.82	5703.89
441.01	5706.23
441.19	5870.06
441.38	5841.98
441.57	5731.97
441.75	5764.74
441.94	5944.96
442.12	6010.50
442.31	6162.63
442.50	6059.65
442.68	6059.65
442.87	6036.24
443.05	6153.27
443.24	6132.20
443.43	6113.48
443.61	6373.28
443.80	6296.04
443.98	6143.91
444.17	6050.28
444.35	6284.34
444.54	6394.34
444.73	6363.92
444.91	6504.35
445.10	6307.74
445.28	6160.29
445.47	6221.14
445.65	6214.12
445.84	6296.04
446.02	6511.37
446.21	6377.96
446.39	6345.19
446.58	6478.60
446.77	6333.49
446.95	6361.58
447.14	6401.37
447.32	6319.45
447.51	6377.96
447.69	6483.28
447.88	6537.12
448.06	6492.65
448.25	6392.00
448.43	6452.86
448.62	6471.58
448.80	6518.39
448.99	6649.46
449.17	6555.84
449.36	6628.40
449.54	6848.41
449.73	6726.70
449.91	6796.92
450.10	6731.38
450.28	7007.56
450.46	6988.84
450.65	6953.73
450.83	6937.35
451.02	6794.58
451.20	6930.33
451.39	7023.95
451.57	7019.27
451.76	7000.54
451.94	6827.34
452.13	6935.01
452.31	7215.87
452.49	6956.07
452.68	7274.38
452.86	7136.29
453.05	7288.43
453.23	7304.81
453.42	7356.30
453.60	7023.95
453.78	7180.76
453.97	7028.63
454.15	7241.62
454.34	7286.09
454.52	7440.56
454.70	7494.40
454.89	7485.03
455.07	7332.90
455.26	7435.88
455.44	7403.11
455.62	7438.22
455.81	7571.63
455.99	7627.81
456.17	7550.57
456.36	7545.89
456.54	7833.77
456.73	7716.75
456.91	7906.33
457.09	7798.66
457.28	8177.83
457.46	7777.60
457.64	7946.12
457.83	7990.59
458.01	7852.50
458.19	8154.43
458.38	7995.27
458.56	8231.66
458.74	8095.91
458.93	8140.38
459.11	8365.07
459.29	8276.13
459.48	8177.83
459.66	8306.56
459.84	8428.27
460.03	8423.59
460.21	8372.10
460.39	8397.84
460.57	8470.40
460.76	8301.88
460.94	8578.06
461.12	8681.05
461.31	8454.02
461.49	8636.58
461.67	8409.54
461.85	8901.06
462.04	8620.19
462.22	9261.50
462.40	8751.26
462.59	8809.78
462.77	8732.54
462.95	8748.92
463.13	8830.84
463.32	8734.88
463.50	8786.37
463.68	8957.23
463.86	9097.66
464.05	8933.82
464.23	8945.53
464.41	8971.27
464.59	8854.25
464.78	9097.66
464.96	9123.41
465.14	9004.04
465.32	9097.66
465.50	9254.48
465.69	9060.21
465.87	9123.41
466.05	9327.03
466.23	9411.29
466.41	9249.80
466.60	9540.02
466.78	9200.65
466.96	9273.20
467.14	9352.78
467.32	9579.81
467.51	9427.68
467.69	9268.52
467.87	9308.31
468.05	9565.77
468.23	9338.74
468.41	9469.81
468.60	9596.20
468.78	9703.86
468.96	9502.58
469.14	9626.62
469.32	9678.12
469.50	9530.66
469.69	9769.40
469.87	9994.09
470.05	10010.47
470.23	9804.50
470.41	10104.09
470.59	10141.54
470.77	10003.45
470.95	10249.21
471.14	10239.84
471.32	10031.54
471.50	10265.59
471.68	10352.19
471.86	10218.78
472.04	10314.74
472.22	10424.75
472.40	10476.24
472.58	10441.13
472.77	10457.51
472.95	10703.27
473.13	10909.24
473.31	10597.95
473.49	10630.71
473.67	10724.33
473.85	10600.29
474.03	11105.84
474.21	11190.10
474.39	11349.26
474.57	11316.49
474.75	11316.49
474.93	11534.16
475.12	11279.04
475.30	11335.21
475.48	11506.07
475.66	11585.65
475.84	11616.08
476.02	11770.55
476.20	11681.61
476.38	11838.43
476.56	12205.89
476.74	12152.06
476.92	12051.42
477.10	12198.87
477.28	12348.67
477.46	12416.54
477.64	12423.56
477.82	12343.99
478.00	12802.73
478.18	12865.92
478.36	12879.97
478.54	13083.59
478.72	13097.64
478.90	13429.99
479.08	13558.72
479.26	13334.03
479.44	13439.36
479.62	13776.39
479.80	13387.86
479.98	13940.23
480.16	13905.12
480.34	14012.79
480.52	14260.88
480.70	14178.97
480.88	14239.82
481.06	14347.48
481.24	14457.49
481.41	14480.89
481.59	14633.03
481.77	14665.80
481.95	14892.83
482.13	14895.17
482.31	15131.56
482.49	15484.98
482.67	15594.99
482.85	15557.54
483.03	15866.49
483.21	15637.12
483.39	15681.59
483.57	15768.19
483.74	16336.94
483.92	16320.56
484.10	16133.31
484.28	16624.83
484.46	16863.56
484.64	17135.06
484.82	16664.61
485.00	16851.86
485.18	17172.51
485.35	17523.59
485.53	17341.03
485.71	17240.39
485.89	17865.31
486.07	17926.16
486.25	17778.71
486.43	17877.01
486.61	18471.51
486.78	18380.23
486.96	18637.69
487.14	18686.84
487.32	18822.59
487.50	18911.53
487.68	19021.53
487.85	19466.24
488.03	19672.20
488.21	19690.93
488.39	19592.62
488.57	19824.34
488.75	20098.18
488.92	20465.64
489.10	20556.93
489.28	20547.56
489.46	20608.42
489.64	20774.60
489.81	21048.44
489.99	21376.11
490.17	20908.01
490.35	21596.12
490.53	21720.17
490.70	21818.47
490.88	21731.87
491.06	21671.02
491.24	21757.62
491.41	22141.47
491.59	22710.22
491.77	22565.10
491.95	22778.09
492.13	22602.55
492.30	22515.95
492.48	23183.01
492.66	23194.71
492.84	23426.42
493.01	23667.50
493.19	23103.43
493.37	23779.84
493.54	23957.72
493.72	23997.51
493.90	24149.65
494.08	24430.51
494.25	24297.10
494.43	24587.33
494.61	24163.69
494.79	24767.55
494.96	24830.74
495.14	25036.71
495.32	25378.43
495.49	25570.35
495.67	25289.49
495.85	25750.57
496.02	25663.97
496.20	25685.04
496.38	26295.92
496.55	26258.47
496.73	26689.13
496.91	26485.50
497.09	26588.49
497.26	26958.29
497.44	26740.62
497.62	27033.19
497.79	27402.99
497.97	27456.82
498.14	27573.85
498.32	27779.82
498.50	27686.20
498.67	27779.82
498.85	27653.43
499.03	28301.76
499.20	27859.40
499.38	28203.46
499.56	28620.07
499.73	28549.85
499.91	28381.34
500.08	28678.58
500.26	28800.29
500.44	29174.78
500.61	29076.48
500.79	29156.05
500.97	29331.59
501.14	29696.72
501.32	29390.11
501.49	29371.38
501.67	29628.84
501.84	29352.66
502.02	29731.83
502.20	29986.94
502.37	30356.75
502.55	30155.46
502.72	30213.98
502.90	30319.30
503.07	30504.20
503.25	30642.29
503.43	30700.81
503.60	30845.92
503.78	30792.09
503.95	30801.45
504.13	31115.08
504.30	31215.72
504.48	31384.24
504.65	31524.68
504.83	31515.31
505.01	31674.47
505.18	31613.62
505.36	31519.99
505.53	31679.15
505.71	32130.87
505.88	31981.08
506.06	31967.04
506.23	32584.94
506.41	32343.86
506.58	32428.12
506.76	32329.82
506.93	32655.15
507.11	32690.26
507.28	32933.68
507.46	32882.19
507.63	32767.50
507.81	33214.54
507.98	32847.08
508.16	33193.48
508.33	33483.70
508.50	33677.97
508.68	34146.08
508.85	34132.03
509.03	33907.34
509.20	34209.27
509.38	34127.35
509.55	34171.82
509.73	34323.96
509.90	34527.58
510.08	34419.92
510.25	34288.85
510.42	34415.24
510.60	34719.51
510.77	35138.46
510.95	35058.88
511.12	34670.36
511.30	34801.43
511.47	35108.04
511.64	35405.28
511.82	35634.66
511.99	35093.99
512.17	35594.87
512.34	35786.79
512.51	36006.80
512.69	35763.39
512.86	36041.91
513.04	36142.55
513.21	36353.20
513.38	36341.50
513.56	36533.42
513.73	36507.68
513.90	36933.65
514.08	36491.29
514.25	36861.10
514.43	36746.41
514.60	36943.02
514.77	37120.90
514.95	37212.18
515.12	37380.70
515.29	36840.03
515.47	37481.34
515.64	37673.26
515.81	37785.61
515.99	37715.39
516.16	37642.84
516.33	37476.66
516.51	37839.44
516.68	37947.11
516.85	38190.52
517.03	38164.78
517.20	38127.33
517.37	38356.70
517.54	38447.98
517.72	38618.84
517.89	38337.98
518.06	38831.83
518.24	38466.70
518.41	38787.36
518.58	38883.32
518.75	38782.68
518.93	39203.97
519.10	38953.54
519.27	39201.63
519.45	38785.02
519.62	39157.16
519.79	39433.35
519.96	39463.77
520.14	39770.38
520.31	39283.55
520.48	40219.77
520.65	39941.24
520.83	40032.52
521.00	40133.17
521.17	40189.34
521.34	40435.10
521.52	40467.86
521.69	40428.07
521.86	40332.11
522.03	40666.81
522.20	40678.51
522.38	40727.66
522.55	40601.27
522.72	40872.78
522.89	41090.44
523.07	40989.80
523.24	40849.37
523.41	40706.60
523.58	40697.24
523.75	41614.72
523.92	41523.44
524.10	41319.82
524.27	41333.86
524.44	41860.48
524.61	41900.27
524.78	41507.06
524.96	41909.63
525.13	42038.36
525.30	41677.92
525.47	42349.65
525.64	42164.75
525.81	42225.60
525.98	42373.06
526.16	42286.46
526.33	42361.36
526.50	42646.90
526.67	42291.14
526.84	43019.05
527.01	42792.01
527.18	42714.78
527.36	43086.92
527.53	43084.58
527.70	43360.76
527.87	43246.08
528.04	42885.64
528.21	43110.33
528.38	43189.91
528.55	43648.65
528.72	43405.23
528.89	43641.63
529.07	43512.90
529.24	43445.02
529.41	43786.74
529.58	43732.91
529.75	43913.13
529.92	43363.11
530.09	43903.77
530.26	44098.03
530.43	43908.45
530.60	43775.04
530.77	44062.93
530.94	44409.32
531.11	44006.75
531.28	44397.62
531.46	44652.74
531.63	44430.39
531.80	44474.86
531.97	44659.76
532.14	44531.03
532.31	44645.72
532.48	44648.06
532.65	44947.65
532.82	45020.20
532.99	45113.83
533.16	45184.04
533.33	45120.85
533.50	44825.94
533.67	45228.51
533.84	44580.18
534.01	45305.75
534.18	44931.26
534.35	45923.65
534.52	45357.24
534.69	45514.06
534.86	45701.30
535.03	45532.78
535.20	45329.16
535.37	45940.04
535.54	45895.56
535.71	45390.01
535.88	46274.73
536.05	46419.84
536.22	46120.26
536.38	46396.44
536.55	46206.86
536.72	46080.47
536.89	45588.95
537.06	46010.25
537.23	46628.15
537.40	46178.77
537.57	46323.88
537.74	46761.56
537.91	46522.83
538.08	46623.47
538.25	45914.29
538.42	46260.69
538.59	46756.88
538.75	46705.39
538.92	46803.69
539.09	47243.71
539.26	46876.25
539.43	47140.73
539.60	47077.54
539.77	46880.93
539.94	47208.61
540.11	47346.70
540.28	47547.98
540.44	47391.17
540.61	47391.17
540.78	47241.37
540.95	47281.16
541.12	47234.35
541.29	47480.11
541.46	47519.90
541.62	47452.02
541.79	47702.46
541.96	47356.06
542.13	47590.11
542.30	47817.14
542.47	48051.20
542.63	47866.30
542.80	47690.76
542.97	48055.88
543.14	47793.74
543.31	48109.71
543.48	48385.89
543.64	48732.29
543.81	48858.68
543.98	48729.95
544.15	48800.17
544.32	48612.93
544.48	48439.73
544.65	48652.72
544.82	48622.29
544.99	48919.54
545.16	49191.04
545.32	48746.34
545.49	49099.76
545.66	49338.49
545.83	48786.13
546.00	49329.13
546.16	49294.02
546.33	48879.75
546.50	49389.98
546.67	49499.99
546.83	48694.85
547.00	48884.43
547.17	49090.40
547.34	49057.63
547.50	48994.43
547.67	49148.91
547.84	49282.32
548.00	49647.44
548.17	49822.98
548.34	49989.16
548.51	50061.72
548.67	50035.97
548.84	49741.06
549.01	49738.72
549.18	49301.04
549.34	49659.15
549.51	49762.13
549.68	50031.29
549.84	50052.36
550.01	50202.15
550.18	49996.18
550.34	49902.56
550.51	50050.02
550.68	49916.61
550.84	49628.72
551.01	50052.36
551.18	49785.54
551.34	49944.69
551.51	50485.36
551.68	50277.05
551.84	50433.86
552.01	50174.06
552.18	49975.12
552.34	49914.26
552.51	50197.47
552.68	50211.51
552.84	50426.84
553.01	50492.38
553.18	50396.42
553.34	50824.73
553.51	50426.84
553.67	50525.14
553.84	51009.64
554.01	50511.10
554.17	50656.21
554.34	50784.94
554.51	50960.48
554.67	51377.10
554.84	50997.93
555.00	50869.20
555.17	50700.68
555.33	50714.73
555.50	50623.45
555.67	50356.63
555.83	50890.27
556.00	50857.50
556.16	51489.45
556.33	50604.72
556.50	51105.60
556.66	51264.75
556.83	50754.52
556.99	51138.36
557.16	50836.44
557.32	50843.46
557.49	51206.24
557.65	51140.71
557.82	51323.27
557.98	51299.86
558.15	51442.63
558.32	51491.79
558.48	51192.20
558.65	51290.50
558.81	51437.95
558.98	51353.69
559.14	51257.73
559.31	51100.92
559.47	51749.24
559.64	51585.41
559.80	51449.66
559.97	51433.27
560.13	51311.56
560.30	51323.27
560.46	51257.73
560.63	51707.12
560.79	51749.24
560.96	51763.29
561.12	52107.35
561.29	52046.49
561.45	51800.74
561.61	51758.61
561.78	51672.01
561.94	51367.74
562.11	51770.31
562.27	51700.09
562.44	51700.09
562.60	52055.85
562.77	51903.72
562.93	51515.19
563.10	52119.05
563.26	51793.71
563.42	52177.56
563.59	51709.46
563.75	51856.91
563.92	52060.54
564.08	52016.07
564.24	52044.15
564.41	52065.22
564.57	51859.25
564.74	52081.60
564.90	51889.68
565.07	52065.22
565.23	52086.28
565.39	51955.21
565.56	52229.05
565.72	51868.61
565.88	52051.17
566.05	52332.04
566.21	52222.03
566.38	52116.71
566.54	52287.57
566.70	52420.98
566.87	52240.76
567.03	51934.15
567.19	52289.91
567.36	51894.36
567.52	52090.96
567.68	52416.30
567.85	52189.27
568.01	52435.02
568.17	52144.80
568.34	52224.37
568.50	52037.13
568.66	52018.41
568.83	52240.76
568.99	52135.43
569.15	52301.61
569.32	52367.15
569.48	52072.24
569.64	52425.66
569.81	52509.92
569.97	52437.36
570.13	52526.30
570.30	52013.73
570.46	52383.53
570.62	51952.87
570.78	52144.80
570.95	52631.63
571.11	52507.58
571.27	52526.30
571.43	52559.07
571.60	52692.48
571.76	52446.72
571.92	52451.41
572.09	52346.08
572.25	52676.10
572.41	52673.76
572.57	52783.76
572.74	52643.33
572.90	52566.09
573.06	52474.81
573.22	52512.26
573.38	52947.60
573.55	52699.50
573.71	52884.40
573.87	52701.84
574.03	52327.36
574.20	52439.70
574.36	52575.45
574.52	52795.46
574.68	52659.71
574.84	52905.47
575.01	53097.39
575.17	53041.22
575.33	52603.54
575.49	52573.11
575.65	52732.27
575.82	52732.27
575.98	52420.98
576.14	52732.27
576.30	52956.96
576.46	52645.67
576.62	52664.39
576.79	53029.52
576.95	52814.19
577.11	52589.50
577.27	52793.12
577.43	52825.89
577.59	52758.02
577.75	52617.58
577.92	52266.50
578.08	52968.66
578.24	52699.50
578.40	52875.04
578.56	53083.35
578.72	52975.69
578.88	53109.10
579.04	52746.31
579.21	53045.90
579.37	52853.98
579.53	52966.32
579.69	52949.94
579.85	52905.47
580.01	53106.76
580.17	52734.61
580.33	52809.51
580.49	52961.64
580.65	52935.90
580.82	52846.96
580.98	52863.34
581.14	52851.64
581.30	53006.11
581.46	52928.87
581.62	53146.54
581.78	52736.95
581.94	53226.12
582.10	52786.10
582.26	52828.23
582.42	52835.25
582.58	52971.00
582.74	52973.34
582.90	52868.02
583.06	52807.17
583.22	52706.52
583.38	53057.60
583.54	53052.92
583.70	53294.00
583.86	53226.12
584.02	53155.91
584.18	53427.41
584.34	52875.04
584.50	53111.44
584.66	52978.03
584.82	53120.80
584.98	53221.44
585.14	52996.75
585.30	53073.99
585.46	53294.00
585.62	53235.48
585.78	53233.14
585.94	52891.43
586.10	52980.37
586.26	52818.87
586.42	53151.23
586.58	52978.03
586.74	52837.59
586.90	52966.32
587.06	53249.53
587.22	53485.92
587.38	53104.41
587.54	53254.21
587.70	53303.36
587.86	53249.53
588.02	53078.67
588.18	53137.18
588.34	53240.17
588.49	53464.86
588.65	53301.02
588.81	53425.07
588.97	53415.71
589.13	53443.79
589.29	53521.03
589.45	53504.65
589.61	53432.09
589.77	53357.19
589.93	53298.68
590.08	53088.03
590.24	53521.03
590.40	53279.96
590.56	53294.00
590.72	53546.78
590.88	53392.30
591.04	53621.67
591.20	53616.99
591.35	53783.17
591.51	53687.21
591.67	53457.84
591.83	53315.06
591.99	53413.37
592.15	53404.00
592.31	53600.61
592.46	53378.26
592.62	53609.97
592.78	53858.07
592.94	53432.09
593.10	53361.87
593.26	53401.66
593.41	53474.22
593.57	53429.75
593.73	53268.25
593.89	53415.71
594.05	53640.40
594.20	53567.84
594.36	53808.92
594.52	53689.55
594.68	53609.97
594.84	53572.52
594.99	53654.44
595.15	53537.41
595.31	53757.42
595.47	53661.46
595.62	53652.10
595.78	53191.01
595.94	53565.50
596.10	53514.01
596.25	53771.47
596.41	53663.80
596.57	53867.43
596.73	53616.99
596.88	53874.45
597.04	53441.45
597.20	53446.13
597.36	53506.99
597.51	53528.05
597.67	53818.28
597.83	53881.47
597.99	53825.30
598.14	53694.23
598.30	53469.54
598.46	53495.28
598.61	54000.84
598.77	53755.08
598.93	53778.49
599.09	53631.04
599.24	53689.55
599.40	53642.74
599.56	53518.69
599.71	53333.79
599.87	53848.71
600.03	54141.27
600.18	53759.76
600.34	54064.03
600.50	53942.33
600.65	53675.51
600.81	53855.73
600.97	54005.52
601.12	53535.07
601.28	53680.19
601.44	53478.90
601.59	53609.97
601.75	53818.28
601.91	53748.06
602.06	53820.62
602.22	53886.15
602.37	53986.80
602.53	53804.24
602.69	53921.26
602.84	53574.86
603.00	53677.85
603.16	53570.18
603.31	53563.16
603.47	54057.01
603.62	53963.39
603.78	53909.56
603.94	53523.37
604.09	53939.99
604.25	53684.87
604.40	53818.28
604.56	53780.83
604.71	53645.08
604.87	53783.17
605.03	53546.78
605.18	53741.04
605.34	53710.61
605.49	53439.11
605.65	53584.22
605.80	53790.19
605.96	53820.62
606.12	53708.27
606.27	54064.03
606.43	53801.89
606.58	53626.35
606.74	53291.66
606.89	53422.73
607.05	53577.20
607.20	53897.86
607.36	53392.30
607.51	53607.63
607.67	53797.21
607.82	53528.05
607.98	53661.46
608.13	53607.63
608.29	53467.20
608.44	53336.13
608.60	53251.87
608.75	53425.07
608.91	53209.74
609.06	53165.27
609.22	53432.09
609.37	53006.11
609.53	53141.86
609.68	53455.50
609.84	53481.24
609.99	53301.02
610.15	53579.54
610.30	53595.93
610.46	53191.01
610.61	53038.88
610.76	53083.35
610.92	52971.00
611.07	53272.93
611.23	53251.87
611.38	53375.92
611.54	53703.59
611.69	53411.02
611.84	53448.47
612.00	53631.04
612.15	53294.00
612.31	53034.20
612.46	53450.81
612.62	53235.48
612.77	53022.50
612.92	53364.21
613.08	53188.67
613.23	53270.59
613.39	53081.01
613.54	53015.47
613.69	53188.67
613.85	53310.38
614.00	53352.51
614.15	53242.51
614.31	53277.61
614.46	53219.10
614.62	53205.06
614.77	52931.22
614.92	53284.64
615.08	52818.87
615.23	53368.90
615.38	53258.89
615.54	52643.33
615.69	52882.06
615.84	53125.48
616.00	53188.67
616.15	53207.40
616.30	53261.23
616.46	53132.50
616.61	52664.39
616.76	52612.90
616.92	52804.83
617.07	52954.62
617.22	52453.75
617.37	52755.68
617.53	52963.98
617.68	53071.65
617.83	53006.11
617.99	52910.15
618.14	52893.77
618.29	52823.55
618.45	52622.26
618.60	52750.99
618.75	52879.72
618.90	52580.13
619.06	52589.50
619.21	52509.92
619.36	52535.66
619.51	52289.91
619.67	52470.13
619.82	52706.52
619.97	52882.06
620.12	52296.93
620.28	52140.11
620.43	52257.14
620.58	52591.84
620.73	52315.65
620.89	52355.44
621.04	52512.26
621.19	52437.36
621.34	52484.17
621.49	52460.77
621.65	52467.79
621.80	52591.84
621.95	52577.79
622.10	52128.41
622.25	52411.62
622.41	51955.21
622.56	52444.38
622.71	52416.30
622.86	52065.22
623.01	52212.67
623.16	52161.18
623.32	52442.04
623.47	52334.38
623.62	52385.87
623.77	52399.91
623.92	52477.15
624.07	52175.22
624.23	52348.42
624.38	52016.07
624.53	51760.95
624.68	51985.64
624.83	51915.42
624.98	51917.76
625.13	51711.80
625.29	51784.35
625.44	52147.14
625.59	52013.73
625.74	51997.34
625.89	51821.80
626.04	51892.02
626.19	51969.26
626.34	51784.35
626.49	51707.12
626.65	51625.20
626.80	51901.38
626.95	51199.22
627.10	51704.77
627.25	51409.87
627.40	51515.19
627.55	51695.41
627.70	51547.96
627.85	51793.71
628.00	51744.56
628.15	51327.95
628.30	51831.16
628.45	51861.59
628.60	51327.95
628.76	51430.93
628.91	51262.41
629.06	51220.28
629.21	51562.00
629.36	51447.32
629.51	51253.05
629.66	51353.69
629.81	51337.31
629.96	51147.73
630.11	51070.49
630.26	51189.86
630.41	51285.82
630.56	51281.14
630.71	51384.12
630.86	51416.89
631.01	50916.01
631.16	51075.17
631.31	50541.53
631.46	50457.27
631.61	51189.86
631.76	51110.28
631.91	51196.88
632.06	50990.91
632.21	50831.75
632.36	51063.47
632.51	50768.56
632.66	50696.00
632.81	50440.89
632.96	50890.27
633.10	50763.88
633.25	50358.97
633.40	50738.13
633.55	50848.14
633.70	50843.46
633.85	50611.74
634.00	51004.95
634.15	51150.07
634.30	50974.53
634.45	50773.24
634.60	50667.92
634.75	50696.00
634.90	50255.98
635.05	50677.28
635.19	50403.44
635.34	50553.23
635.49	50546.21
635.64	50557.91
635.79	50862.18
635.94	50578.98
636.09	50337.90
636.24	50237.26
636.39	50113.21
636.53	50553.23
636.68	50213.85
636.83	50401.10
636.98	50096.83
637.13	50412.80
637.28	50438.54
637.43	50192.79
637.57	50340.24
637.72	50293.43
637.87	49968.10
638.02	50478.33
638.17	50389.39
638.32	50321.52
638.46	50181.09
638.61	50052.36
638.76	50061.72
638.91	49825.32
639.06	49951.71
639.20	49612.34
639.35	49918.95
639.50	49635.74
639.65	49593.61
639.80	50204.49
639.94	49556.16
640.09	49778.51
640.24	49780.85
640.39	49617.02
640.54	49907.24
640.68	49797.24
640.83	49654.47
640.98	49347.86
641.13	49244.87
641.27	49865.11
641.42	49642.76
641.57	49521.05
641.72	49624.04
641.86	49518.71
642.01	48928.90
642.16	49373.60
642.31	49237.85
642.45	49270.62
642.60	49584.25
642.75	49177.00
642.90	49191.04
643.04	49188.70
643.19	49523.40
643.34	49249.55
643.48	49207.42
643.63	49057.63
643.78	49656.81
643.93	49141.89
644.07	48868.05
644.22	49315.09
644.37	49064.65
644.51	48816.55
644.66	49509.35
644.81	49448.50
644.95	49237.85
645.10	49130.19
645.25	49095.08
645.39	49059.97
645.54	48900.81
645.69	48971.03
645.83	48755.70
645.98	48940.60
646.13	48949.96
646.27	48870.39
646.42	48685.48
646.57	49104.44
646.71	48989.75
646.86	49123.16
647.00	49081.03
647.15	48954.64
647.30	48877.41
647.44	49242.53
647.59	48886.77
647.74	48816.55
647.88	48767.40
648.03	48505.26
648.17	48428.02
648.32	48512.28
648.47	48371.85
648.61	48500.58
648.76	48708.89
648.90	48935.92
649.05	48945.28
649.20	48629.31
649.34	48807.19
649.49	48629.31
649.63	48683.14
649.78	49006.14
649.92	48519.31
650.07	48821.23
650.21	48528.67
650.36	48303.98
650.51	48161.20
650.65	48254.82
650.80	48264.19
650.94	48128.44
651.09	48058.22
651.23	47826.51
651.38	47878.00
651.52	48165.88
651.67	48048.86
651.81	48610.59
651.96	48329.72
652.10	48076.94
652.25	47943.53
652.39	47917.79
652.54	47917.79
652.68	48032.47
652.83	48271.21
652.97	48287.59
653.12	48074.60
653.26	47672.03
653.41	47849.91
653.55	48067.58
653.70	47814.80
653.84	48133.12
653.99	47995.03
654.13	47714.16
654.27	47870.98
654.42	47576.07
654.56	47800.76
654.71	47620.54
654.85	47784.38
655.00	47452.02
655.14	47662.67
655.29	47421.59
655.43	47208.61
655.57	47412.23
655.72	47683.73
655.86	47676.71
656.01	47297.55
656.15	47196.90
656.30	47262.44
656.44	47339.68
656.58	47110.30
656.73	46941.78
656.87	47138.39
657.01	47075.19
657.16	46967.53
657.30	46766.24
657.45	46787.31
657.59	46644.54
657.73	46602.41
657.88	46597.73
658.02	46742.84
658.16	47154.77
658.31	47433.30
658.45	47016.68
658.60	46962.85
658.74	46768.58
658.88	46749.86
659.03	46424.53
659.17	46389.42
659.31	46443.25
659.46	46209.20
659.60	46260.69
659.74	46054.72
659.89	46504.10
660.03	46153.02
660.17	46480.70
660.32	45972.80
660.46	46511.13
660.60	46305.16
660.74	45846.41
660.89	46429.21
661.03	46356.65
661.17	45949.40
661.32	45944.72
661.46	45696.62
661.60	45879.18
661.74	45897.91
661.89	45654.49
662.03	45565.55
662.17	45432.14
662.31	45347.88
662.46	45933.01
662.60	45549.17
662.74	45743.43
662.88	45619.38
663.03	45769.18
663.17	45694.28
663.31	45869.82
663.45	45312.77
663.60	45109.14
663.74	45076.38
663.88	44624.65
664.02	44573.16
664.17	44905.52
664.31	44823.60
664.45	44872.75
664.59	45167.66
664.73	45097.44
664.88	45038.93
665.02	44479.54
665.16	44795.51
665.30	44865.73
665.44	44985.10
665.59	44512.31
665.73	44360.17
665.87	44554.44
666.01	44374.22
666.15	44315.70
666.29	44020.80
666.44	43983.35
666.58	44067.61
666.72	43906.11
666.86	44074.63
667.00	44165.91
667.14	44091.01
667.28	43824.19
667.43	43746.95
667.57	43901.43
667.71	43983.35
667.85	44261.87
667.99	43966.96
668.13	44046.54
668.27	43328.00
668.41	43601.84
668.56	43196.93
668.70	43091.60
668.84	43206.29
668.98	43014.37
669.12	43372.47
669.26	42674.99
669.40	43119.69
669.54	42873.93
669.68	43196.93
669.82	42527.53
669.96	42803.72
670.10	42770.95
670.25	43098.62
670.39	42752.23
670.53	42632.86
670.67	42251.35
670.81	42223.26
670.95	41956.44
671.09	41792.61
671.23	41968.15
671.37	41687.28
671.51	42024.32
671.65	41612.38
671.79	41844.10
671.93	42089.85
672.07	42511.15
672.21	42026.66
672.35	41518.76
672.49	41752.82
672.63	41701.32
672.77	41890.91
672.91	41734.09
673.05	40905.54
673.19	41338.54
673.33	41429.82
673.47	41350.24
673.61	41228.54
673.75	40886.82
673.89	40758.09
674.03	40301.68
674.17	40631.70
674.31	40870.43
674.45	40992.14
674.59	40645.74
674.73	40898.52
674.87	40280.62
675.01	40364.88
675.15	40318.07
675.29	40250.19
675.43	40135.51
675.56	39913.16
675.70	40055.93
675.84	39707.19
675.98	38398.83
676.12	39524.63
676.26	40046.57
676.40	39435.69
676.54	39253.12
676.68	39201.63
676.82	38707.78
676.96	38927.79
677.10	39210.99
677.23	39475.48
677.37	38902.04
677.51	38824.81
677.65	38768.63
677.79	38106.26
677.93	38263.08
678.07	38415.21
678.21	37436.87
678.34	37600.71
678.48	37612.41
678.62	37830.08
678.76	37387.72
678.90	36961.74
679.04	37581.98
679.18	37134.94
679.31	37249.63
679.45	37078.77
679.59	37130.26
679.73	37207.50
679.87	37387.72
680.00	37387.72
680.14	37298.78
680.28	36900.89
680.42	36666.83
680.56	36402.35
680.70	36100.42
680.83	36126.17
680.97	35555.08
681.11	36074.68
681.25	35732.96
681.39	35543.38
681.52	35896.80
681.66	35803.17
681.80	35377.20
681.94	35812.54
682.07	35611.25
682.21	35576.14
682.35	35012.07
682.49	34852.92
682.62	34714.83
682.76	34595.46
682.90	34726.53
683.04	34515.88
683.17	34279.49
683.31	34279.49
683.45	34466.73
683.59	34096.92
683.72	33804.36
683.86	34040.75
684.00	33387.74
684.13	33619.46
684.27	33429.87
684.41	33872.23
684.55	34061.82
684.68	33825.42
684.82	33851.17
684.96	33825.42
685.09	33446.26
685.23	32978.15
685.37	33027.30
685.50	32917.29
685.64	32835.38
685.78	32486.64
685.91	32411.74
686.05	32414.08
686.19	32400.04
686.32	31981.08
686.46	31889.80
686.60	31604.25
686.73	32168.32
686.87	31878.10
687.01	32243.22
687.14	31952.99
687.28	31683.83
687.42	31630.00
687.55	31786.82
687.69	31634.68
687.82	31658.09
687.96	31330.41
688.10	30808.47
688.23	30408.24
688.37	30651.66
688.50	30998.06
688.64	30817.83
688.78	30185.89
688.91	30368.45
689.05	30143.76
689.18	30267.81
689.32	29909.71
689.46	29734.17
689.59	29951.84
689.73	29479.05
689.86	29909.71
690.00	29647.57
690.13	29783.32
690.27	30043.12
690.41	29593.73
690.54	29008.60
690.68	28985.19
690.81	28900.94
690.95	29120.95
691.08	28889.23
691.22	28680.92
691.35	28432.83
691.49	28568.58
691.62	27936.63
691.76	28025.57
691.89	28453.89
692.03	28063.02
692.16	28514.75
692.30	28250.27
692.43	28531.13
692.57	27988.13
692.70	27725.99
692.84	27798.54
692.97	27353.84
693.11	27204.05
693.24	26698.49
693.38	27072.98
693.51	26632.96
693.65	27014.46
693.78	26677.43
693.92	26464.44
694.05	26766.37
694.19	25940.16
694.32	26405.92
694.45	26405.92
694.59	26185.91
694.72	26214.00
694.86	26118.04
694.99	26115.70
695.13	26122.72
695.26	25848.88
695.39	25462.69
695.53	25511.84
695.66	25638.23
695.80	25135.01
695.93	25083.52
696.07	24456.26
696.20	25092.88
696.33	24694.99
696.47	24819.04
696.60	24720.74
696.73	24685.63
696.87	24627.12
697.00	24610.73
697.14	24257.31
697.27	24173.05
697.40	24568.60
697.54	24552.22
697.67	24034.96
697.80	24212.84
697.94	23946.02
698.07	23707.29
698.21	23407.70
698.34	23185.35
698.47	22967.68
698.61	23098.75
698.74	22918.53
698.87	22705.54
699.01	22934.91
699.14	22712.56
699.27	22593.19
699.40	22738.30
699.54	22347.44
699.67	22473.82
699.80	22286.58
699.94	22228.07
700.07	22382.54
700.20	21921.46
700.34	22237.43
700.47	22043.17
700.60	21869.97
700.73	21921.46
700.87	21743.58
701.00	21483.78
701.13	21460.37
701.26	21198.23
701.40	21219.30
701.53	21521.23
701.66	21191.21
701.79	20872.90
701.93	20779.28
702.06	20704.38
702.19	20566.29
702.32	20709.06
702.46	20936.09
702.59	20783.96
702.72	20365.00
702.85	20437.56
702.99	20692.68
703.12	20135.63
703.25	20107.54
703.38	20163.72
703.51	19641.78
703.65	19438.15
703.78	19775.19
703.91	19384.32
704.04	19262.61
704.17	19452.19
704.31	19187.71
704.44	19396.02
704.57	19037.92
704.70	19126.86
704.83	19396.02
704.96	19054.30
705.10	18860.04
705.23	18677.48
>>>>>End Processed Spectral Data<<<<<
