SpectraSuite Data File
++++++++++++++++++++++++++++++++++++
Date: Fri Oct 04 11:39:21 GMT-05:00 2013
User: price-jones
Dark Spectrum Present: No
Reference Spectrum Present: No
Number of Sampled Component Spectra: 1
Spectrometers: USB2+H05261
Integration Time (usec): 100000 (USB2+H05261)
Spectra Averaged: 1 (USB2+H05261)
Boxcar Smoothing: 0 (USB2+H05261)
Correct for Electrical Dark: No (USB2+H05261)
Strobe/Lamp Enabled: No (USB2+H05261)
Correct for Detector Non-linearity: No (USB2+H05261)
Correct for Stray Light: No (USB2+H05261)
Number of Pixels in Processed Spectrum: 2048
>>>>>Begin Processed Spectral Data<<<<<
365.73	18.72
365.92	18.72
366.12	18.72
366.32	18.72
366.52	0.00
366.72	0.00
366.91	0.00
367.11	0.00
367.31	0.00
367.51	7.02
367.70	0.00
367.90	9.36
368.10	0.00
368.30	0.00
368.49	0.00
368.69	0.00
368.89	0.00
369.09	0.00
369.28	0.00
369.48	0.00
369.68	21.06
369.87	0.00
370.07	0.00
370.27	84.26
370.47	131.07
370.66	173.20
370.86	189.58
371.06	318.31
371.25	358.10
371.45	243.42
371.65	332.36
371.84	227.03
372.04	285.55
372.24	330.02
372.44	259.80
372.63	290.23
372.83	386.19
373.03	264.48
373.22	294.91
373.42	238.73
373.62	372.15
373.81	334.70
374.01	351.08
374.21	414.27
374.40	332.36
374.60	395.55
374.79	395.55
374.99	369.80
375.19	416.62
375.38	379.17
375.58	369.80
375.78	430.66
375.97	397.89
376.17	348.74
376.37	379.17
376.56	407.25
376.76	411.93
376.95	425.98
377.15	428.32
377.35	430.66
377.54	468.11
377.74	381.51
377.93	362.78
378.13	407.25
378.33	428.32
378.52	386.19
378.72	475.13
378.91	447.04
379.11	477.47
379.31	440.02
379.50	395.55
379.70	507.90
379.89	458.74
380.09	400.23
380.28	418.96
380.48	407.25
380.68	454.06
380.87	454.06
381.07	444.70
381.26	430.66
381.46	444.70
381.65	477.47
381.85	433.00
382.04	433.00
382.24	470.45
382.43	475.13
382.63	400.23
382.83	470.45
383.02	397.89
383.22	500.87
383.41	491.51
383.61	486.83
383.80	421.30
384.00	423.64
384.19	489.17
384.39	524.28
384.58	540.66
384.78	587.47
384.97	465.77
385.17	533.64
385.36	545.34
385.56	573.43
385.75	510.24
385.95	582.79
386.14	465.77
386.34	512.58
386.53	617.90
386.72	512.58
386.92	580.45
387.11	510.24
387.31	571.09
387.50	538.32
387.70	533.64
387.89	589.82
388.09	514.92
388.28	526.62
388.48	517.26
388.67	657.69
388.86	458.74
389.06	554.71
389.25	566.41
389.45	643.65
389.64	580.45
389.84	592.16
390.03	648.33
390.22	643.65
390.42	521.94
390.61	528.96
390.81	645.99
391.00	667.05
391.19	695.14
391.39	725.57
391.58	669.39
391.78	685.78
391.97	725.57
392.16	606.20
392.36	706.84
392.55	772.38
392.75	704.50
392.94	678.76
393.13	699.82
393.33	608.54
393.52	713.86
393.71	786.42
393.91	688.12
394.10	777.06
394.29	763.01
394.49	695.14
394.68	786.42
394.88	812.17
395.07	697.48
395.26	798.12
395.46	690.46
395.65	786.42
395.84	786.42
396.04	917.49
396.23	809.83
396.42	840.25
396.62	821.53
396.81	812.17
397.00	798.12
397.19	837.91
397.39	851.96
397.58	863.66
397.77	875.36
397.97	840.25
398.16	870.68
398.35	866.00
398.55	910.47
398.74	950.26
398.93	1001.75
399.12	999.41
399.32	891.74
399.51	954.94
399.70	905.79
399.90	997.07
400.09	1025.15
400.28	929.19
400.47	999.41
400.67	1027.50
400.86	1114.10
401.05	1078.99
401.24	1004.09
401.44	1050.90
401.63	1041.54
401.82	1125.80
402.01	1011.11
402.21	1144.52
402.40	1128.14
402.59	1083.67
402.78	1053.24
402.97	1137.50
403.17	1160.91
403.36	1144.52
403.55	1181.97
403.74	1301.34
403.93	1228.78
404.13	1275.59
404.32	1191.33
404.51	1261.55
404.70	1327.08
404.89	1306.02
405.09	1296.66
405.28	1228.78
405.47	1320.06
405.66	1263.89
405.85	1334.11
406.05	1357.51
406.24	1357.51
406.43	1343.47
406.62	1378.58
406.81	1409.00
407.00	1306.02
407.20	1343.47
407.39	1348.15
407.58	1579.86
407.77	1502.62
407.96	1465.18
408.15	1521.35
408.34	1523.69
408.54	1406.66
408.73	1416.02
408.92	1636.03
409.11	1640.72
409.30	1610.29
409.49	1617.31
409.68	1586.88
409.87	1668.80
410.07	1750.72
410.26	1710.93
410.45	1661.78
410.64	1687.53
410.83	1729.66
411.02	1710.93
411.21	1781.15
411.40	1795.19
411.59	1811.57
411.78	1788.17
411.98	1778.81
412.17	1867.75
412.36	1909.88
412.55	1909.88
412.74	2022.22
412.93	2047.97
413.12	1930.94
413.31	2024.56
413.50	2064.35
413.69	2036.27
413.88	2134.57
414.07	2174.36
414.26	2216.49
414.45	2078.40
414.64	2174.36
414.83	2338.20
415.02	2225.85
415.22	2202.44
415.41	2225.85
415.60	2160.31
415.79	2328.83
415.98	2377.98
416.17	2375.64
416.36	2361.60
416.55	2415.43
416.74	2403.73
416.93	2394.37
417.12	2471.61
417.31	2485.65
417.50	2464.58
417.69	2600.34
417.88	2480.97
418.07	2457.56
418.26	2684.59
418.45	2668.21
418.64	2738.43
418.83	2679.91
419.02	2614.38
419.21	2710.34
419.39	2832.05
419.58	2775.88
419.77	2703.32
419.96	2827.37
420.15	2759.49
420.34	2768.85
420.53	2832.05
420.72	2827.37
420.91	2895.24
421.10	2878.86
421.29	2895.24
421.48	2855.45
421.67	2895.24
421.86	2850.77
422.05	2956.10
422.24	3002.91
422.43	2972.48
422.61	2892.90
422.80	3173.77
422.99	3047.38
423.18	3038.02
423.37	3056.74
423.56	2960.78
423.75	3033.33
423.94	2956.10
424.13	2806.30
424.32	2970.14
424.50	3033.33
424.69	3115.25
424.88	3098.87
425.07	3030.99
425.26	3173.77
425.45	3077.80
425.64	3115.25
425.83	3131.64
426.01	3080.14
426.20	3131.64
426.39	3080.14
426.58	3110.57
426.77	3148.02
426.96	3126.96
427.15	3190.15
427.33	3218.24
427.52	3267.39
427.71	3272.07
427.90	3220.58
428.09	3342.28
428.28	3185.47
428.46	3407.82
428.65	3325.90
428.84	3213.56
429.03	3515.48
429.22	3353.99
429.40	3419.52
429.59	3349.31
429.78	3428.88
429.97	3276.75
430.16	3215.90
430.34	3541.23
430.53	3485.06
430.72	3691.02
430.91	3295.47
431.10	3487.40
431.28	3623.15
431.47	3648.90
431.66	3581.02
431.85	3548.25
432.03	3763.58
432.22	3808.05
432.41	3662.94
432.60	3871.25
432.79	3613.79
432.97	3763.58
433.16	3662.94
433.35	3747.20
433.54	3786.99
433.72	3700.39
433.91	3803.37
434.10	3896.99
434.28	3911.04
434.47	3880.61
434.66	3899.33
434.85	3920.40
435.03	3976.57
435.22	4124.02
435.41	4503.19
435.59	4362.76
435.78	4344.03
435.97	4140.41
436.16	4234.03
436.34	4114.66
436.53	4112.32
436.72	4161.47
436.90	4100.62
437.09	4159.13
437.28	4203.60
437.46	4107.64
437.65	4283.18
437.84	4304.25
438.02	4173.18
438.21	4320.63
438.40	4287.86
438.58	4294.88
438.77	4299.56
438.96	4470.42
439.14	4486.81
439.33	4557.02
439.52	4505.53
439.70	4449.36
439.89	4491.49
440.08	4603.83
440.26	4521.92
440.45	4634.26
440.63	4681.07
440.82	4723.20
441.01	4695.11
441.19	4716.18
441.38	4877.68
441.57	4636.60
441.75	4973.64
441.94	5034.49
442.12	4835.55
442.31	5102.37
442.50	4940.87
442.68	5074.28
442.87	4964.28
443.05	5022.79
443.24	5088.32
443.43	5277.91
443.61	5097.69
443.80	5364.51
443.98	5198.33
444.17	4865.97
444.35	5383.23
444.54	5338.76
444.73	5193.65
444.91	5156.20
445.10	5324.72
445.28	5153.86
445.47	5085.98
445.65	5193.65
445.84	5217.05
446.02	5252.16
446.21	5369.19
446.39	5266.21
446.58	5313.02
446.77	5287.27
446.95	5163.22
447.14	5320.04
447.32	5254.50
447.51	5406.64
447.69	5291.95
447.88	5423.02
448.06	5378.55
448.25	5341.10
448.43	5334.08
448.62	5397.28
448.80	5474.51
448.99	5448.77
449.17	5554.09
449.36	5317.70
449.54	5486.22
449.73	5591.54
449.91	5671.12
450.10	5675.80
450.28	5696.86
450.46	5511.96
450.65	5575.16
450.83	5795.17
451.02	5607.92
451.20	5636.01
451.39	5872.40
451.57	5640.69
451.76	5619.63
451.94	5685.16
452.13	5795.17
452.31	5839.64
452.49	5774.10
452.68	5783.46
452.86	5846.66
453.05	5865.38
453.23	5909.85
453.42	6045.60
453.60	5879.43
453.78	5902.83
453.97	5881.77
454.15	5980.07
454.34	6069.01
454.52	6033.90
454.70	5947.30
454.89	6171.99
455.07	6010.50
455.26	6071.35
455.44	6410.73
455.62	6045.60
455.81	6221.14
455.99	6204.76
456.17	6279.66
456.36	6324.13
456.54	6396.68
456.73	6417.75
456.91	6490.31
457.09	6487.96
457.28	6614.35
457.46	6548.82
457.64	6551.16
457.83	6553.50
458.01	6492.65
458.19	6649.46
458.38	6480.94
458.56	6722.02
458.74	6700.95
458.93	6654.14
459.11	6773.51
459.29	6817.98
459.48	6796.92
459.66	6677.55
459.84	6841.39
460.03	6956.07
460.21	6740.74
460.39	6942.03
460.57	6654.14
460.76	6867.13
460.94	6998.20
461.12	6979.48
461.31	6935.01
461.49	6958.41
461.67	6944.37
461.85	7169.06
462.04	7129.27
462.22	7648.87
462.40	7187.79
462.59	7206.51
462.77	7279.07
462.95	7077.78
463.13	7176.08
463.32	7321.20
463.50	7208.85
463.68	7368.01
463.86	7330.56
464.05	7265.02
464.23	7234.60
464.41	7559.93
464.59	7166.72
464.78	7424.18
464.96	7314.17
465.14	7431.20
465.32	7585.68
465.50	7581.00
465.69	7480.35
465.87	7693.34
466.05	7494.40
466.23	7487.37
466.41	7616.10
466.60	7833.77
466.78	7782.28
466.96	7644.19
467.14	7578.65
467.32	7740.15
467.51	7838.45
467.69	7566.95
467.87	7822.07
468.05	7751.85
468.23	7721.43
468.41	7747.17
468.60	7815.05
468.78	7908.67
468.96	7960.16
469.14	8070.17
469.32	8100.59
469.50	7887.61
469.69	8077.19
469.87	8147.40
470.05	8175.49
470.23	8255.07
470.41	8114.64
470.59	8212.94
470.77	7925.05
470.95	8271.45
471.14	8432.95
471.32	8271.45
471.50	8531.25
471.68	8484.44
471.86	8545.30
472.04	8395.50
472.22	8667.00
472.40	8638.92
472.58	8720.84
472.77	8840.20
472.95	8898.72
473.13	8968.93
473.31	8716.16
473.49	8830.84
473.67	8947.87
473.85	8865.95
474.03	9146.81
474.21	8922.12
474.39	8950.21
474.57	9320.01
474.75	9167.88
474.93	9425.34
475.12	9376.19
475.30	9277.88
475.48	9228.73
475.66	9352.78
475.84	9298.95
476.02	9584.49
476.20	9607.90
476.38	9699.18
476.56	9851.31
476.74	9689.82
476.92	9760.03
477.10	9750.67
477.28	9935.57
477.46	10043.24
477.64	10106.43
477.82	10406.02
478.00	10375.59
478.18	10628.37
478.36	10427.09
478.54	10455.17
478.72	10565.18
478.90	10693.91
479.08	10684.55
479.26	10892.85
479.44	11030.94
479.62	11002.86
479.80	11075.42
479.98	11239.25
480.16	11398.41
480.34	11208.83
480.52	11463.94
480.70	11421.81
480.88	11286.06
481.06	11545.86
481.24	11587.99
481.41	11843.11
481.59	12084.19
481.77	11908.65
481.95	11845.45
482.13	11988.22
482.31	12051.42
482.49	12407.18
482.67	12313.56
482.85	12812.09
483.03	12535.91
483.21	12805.07
483.39	12910.40
483.57	13015.72
483.74	13207.64
483.92	13188.92
484.10	13041.46
484.28	13366.80
484.46	13591.49
484.64	13685.11
484.82	13462.76
485.00	13605.53
485.18	13989.38
485.35	14129.81
485.53	13907.46
485.71	14284.29
485.89	14319.40
486.07	14148.54
486.25	14310.04
486.43	14670.48
486.61	14792.19
486.78	15082.41
486.96	15080.07
487.14	15218.16
487.32	14967.73
487.50	15220.50
487.68	15470.94
487.85	15726.06
488.03	15756.49
488.21	15953.09
488.39	15927.35
488.57	15744.78
488.75	16102.89
488.92	16449.28
489.10	16547.59
489.28	16432.90
489.46	16589.72
489.64	16432.90
489.81	16844.84
489.99	16975.91
490.17	17191.23
490.35	17209.96
490.53	17270.81
490.70	17451.03
490.88	17415.93
491.06	17635.94
491.24	17500.19
491.41	17813.82
491.59	18157.88
491.77	17797.43
491.95	18141.49
492.13	18443.42
492.30	18656.41
492.48	18508.96
492.66	18333.42
492.84	18611.94
493.01	19068.34
493.19	18850.67
493.37	18941.96
493.54	19400.70
493.72	19534.11
493.90	19318.78
494.08	19323.46
494.25	19889.87
494.43	19655.82
494.61	19704.97
494.79	20369.68
494.96	19894.55
495.14	20135.63
495.32	20545.22
495.49	20276.06
495.67	20648.21
495.85	20812.04
496.02	20568.63
496.20	20856.51
496.38	21113.97
496.55	20858.85
496.73	21434.63
496.91	21387.82
497.09	21144.40
497.26	21685.06
497.44	21296.53
497.62	21689.74
497.79	21771.66
497.97	21736.56
498.14	22164.87
498.32	22265.52
498.50	22071.25
498.67	22508.93
498.85	22307.65
499.03	22106.36
499.20	22860.01
499.38	22438.72
499.56	23026.19
499.73	23082.36
499.91	23019.17
500.08	22806.18
500.26	22843.63
500.44	23309.40
500.61	23651.11
500.79	23222.80
500.97	23243.86
501.14	23583.24
501.32	23798.57
501.49	23686.22
501.67	23800.91
501.84	23917.93
502.02	23924.96
502.20	24002.19
502.37	23868.78
502.55	24086.45
502.72	24416.47
502.90	24247.95
503.07	23929.64
503.25	24505.41
503.43	24437.53
503.60	24510.09
503.78	24432.85
503.95	24723.08
504.13	24788.61
504.30	24694.99
504.48	24985.22
504.65	25291.83
504.83	25490.77
505.01	25453.33
505.18	25455.67
505.36	25486.09
505.53	25539.93
505.71	25846.54
505.88	25729.51
506.06	25282.47
506.23	25872.28
506.41	25940.16
506.58	25783.34
506.76	25804.41
506.93	25883.98
507.11	26096.97
507.28	26412.95
507.46	26345.07
507.63	26630.62
507.81	26380.18
507.98	26525.29
508.16	26359.11
508.33	26473.80
508.50	26476.14
508.68	26705.51
508.85	26993.40
509.03	27346.82
509.20	26972.33
509.38	27508.32
509.55	27339.80
509.73	27234.47
509.90	27505.98
510.08	27276.60
510.25	27501.29
510.42	27864.08
510.60	28114.52
510.77	27978.76
510.95	28521.77
511.12	28105.15
511.30	27892.16
511.47	28098.13
511.64	28854.12
511.82	28622.41
511.99	28435.17
512.17	28584.96
512.34	28458.57
512.51	28510.07
512.69	29127.97
512.86	28671.56
513.04	29312.87
513.21	28802.63
513.38	29450.96
513.56	29179.46
513.73	28903.28
513.90	29373.72
514.08	29474.37
514.25	29247.33
514.43	29802.04
514.60	29935.45
514.77	30080.56
514.95	30143.76
515.12	29778.64
515.29	29851.19
515.47	29535.22
515.64	30101.63
515.81	30410.58
515.99	30265.47
516.16	30265.47
516.33	30586.12
516.51	30930.18
516.68	30384.83
516.85	30312.28
517.03	30724.21
517.20	30480.80
517.37	30927.84
517.54	30981.67
517.72	30686.76
517.89	31136.15
518.06	30742.94
518.24	30967.63
518.41	30888.05
518.58	31042.53
518.75	30771.02
518.93	31417.01
519.10	31454.46
519.27	31445.10
519.45	31566.81
519.62	31679.15
519.79	31412.33
519.96	31723.62
520.14	31742.35
520.31	32184.71
520.48	31981.08
520.65	31957.67
520.83	32306.41
521.00	32051.30
521.17	31775.11
521.34	32180.03
521.52	32472.59
521.69	32130.87
521.86	32788.56
522.03	32474.93
522.20	32840.06
522.38	32673.88
522.55	32814.31
522.72	32830.69
522.89	33055.39
523.07	33338.59
523.24	33390.08
523.41	33275.40
523.58	33244.97
523.75	33467.32
523.92	33031.98
524.10	33362.00
524.27	33579.67
524.44	33418.17
524.61	33825.42
524.78	33769.25
524.96	33750.52
525.13	33371.36
525.30	33724.78
525.47	33996.28
525.64	34073.52
525.81	34429.28
525.98	34377.79
526.16	34157.78
526.33	34227.99
526.50	34792.06
526.67	34092.24
526.84	34384.81
527.01	33879.25
527.18	34235.02
527.36	34719.51
527.53	35002.71
527.70	35000.37
527.87	34866.96
528.04	34897.39
528.21	34883.34
528.38	34656.31
528.55	34607.16
528.72	34789.72
528.89	35323.36
529.07	35007.39
529.24	35084.63
529.41	35196.98
529.58	34838.87
529.75	35173.57
529.92	35569.12
530.09	35040.16
530.26	35007.39
530.43	35585.50
530.60	35145.48
530.77	35555.08
530.94	35306.98
531.11	35564.44
531.28	35704.87
531.46	35526.99
531.63	35679.13
531.80	35690.83
531.97	35833.60
532.14	36163.62
532.31	35817.22
532.48	35924.88
532.65	36226.81
532.82	35517.63
532.99	36158.94
533.16	36025.53
533.33	36336.82
533.50	37095.15
533.67	36893.86
533.84	36135.53
534.01	36605.98
534.18	36421.08
534.35	36524.06
534.52	36568.53
534.69	36872.80
534.86	36683.22
535.03	36149.57
535.20	37003.87
535.37	37092.81
535.54	37205.16
535.71	36367.24
535.88	37331.54
536.05	36980.46
536.22	37345.59
536.38	37263.67
536.55	37132.60
536.72	37273.03
536.89	37078.77
537.06	37612.41
537.23	37504.74
537.40	37357.29
537.57	37806.67
537.74	37584.32
537.91	37940.08
538.08	37610.07
538.25	37797.31
538.42	37811.35
538.59	37708.37
538.75	37560.92
538.92	37495.38
539.09	38139.03
539.26	38206.90
539.43	37759.86
539.60	38223.29
539.77	38354.36
539.94	38033.71
540.11	38550.96
540.28	38380.10
540.44	38284.14
540.61	38157.75
540.78	38504.15
540.95	38930.13
541.12	39063.54
541.29	38979.28
541.46	38862.26
541.62	38546.28
541.79	38953.54
541.96	38808.42
542.13	38902.04
542.30	39182.91
542.47	39318.66
542.63	39248.44
542.80	39676.76
542.97	39454.41
543.14	39765.70
543.31	39311.64
543.48	39328.02
543.64	40004.44
543.81	40177.64
543.98	39700.17
544.15	40479.57
544.32	39992.73
544.48	40526.38
544.65	39845.28
544.82	39789.11
544.99	39976.35
545.16	40032.52
545.32	39971.67
545.49	40732.34
545.66	40903.20
545.83	41123.21
546.00	41249.60
546.16	40748.73
546.33	40289.98
546.50	40126.14
546.67	40259.55
546.83	39845.28
547.00	40362.54
547.17	40327.43
547.34	40250.19
547.50	40575.53
547.67	40730.00
547.84	40769.79
548.00	40545.10
548.17	40690.21
548.34	40313.39
548.51	40872.78
548.67	40954.69
548.84	40428.07
549.01	40652.76
549.18	40165.93
549.34	40603.61
549.51	40786.18
549.68	40737.02
549.84	40439.78
550.01	40856.39
550.18	40678.51
550.34	40905.54
550.51	41186.41
550.68	41366.63
550.84	40622.34
551.01	40807.24
551.18	41123.21
551.34	40762.77
551.51	40914.90
551.68	40364.88
551.84	41027.25
552.01	40931.29
552.18	41282.37
552.34	41235.56
552.51	41329.18
552.68	40896.18
552.84	41038.95
553.01	41172.36
553.18	41390.03
553.34	41134.92
553.51	41071.72
553.67	41867.50
553.84	41954.10
554.01	41544.51
554.17	41507.06
554.34	41979.85
554.51	41539.83
554.67	41605.36
554.84	41813.67
555.00	41996.23
555.17	41698.98
555.33	41654.51
555.50	41862.82
555.67	41748.14
555.83	41392.37
556.00	41696.64
556.16	42174.11
556.33	41720.05
556.50	41879.21
556.66	41701.32
556.83	42106.24
556.99	41869.84
557.16	42085.17
557.32	42000.91
557.49	42029.00
557.65	41631.11
557.82	41820.69
557.98	41970.49
558.15	41645.15
558.32	42464.34
558.48	42059.43
558.65	42349.65
558.81	42436.25
558.98	42000.91
559.14	42251.35
559.31	41907.29
559.47	42000.91
559.64	42026.66
559.80	42422.21
559.97	42653.92
560.13	42403.49
560.30	42700.73
560.46	42529.87
560.63	42387.10
560.79	42124.96
560.96	42579.03
561.12	42160.07
561.29	42438.59
561.45	42859.89
561.61	42838.83
561.78	42469.02
561.94	42876.27
562.11	42976.92
562.27	42595.41
562.44	42653.92
562.60	42199.86
562.77	43098.62
562.93	42412.85
563.10	43384.17
563.26	42728.82
563.42	43173.52
563.59	42623.50
563.75	42539.24
563.92	43229.69
564.08	42672.65
564.24	42813.08
564.41	42260.71
564.57	42593.07
564.74	42728.82
564.90	42850.53
565.07	43063.52
565.23	43203.95
565.39	42574.34
565.56	42693.71
565.72	42782.65
565.88	43199.27
566.05	42841.17
566.21	42747.54
566.38	42850.53
566.54	43122.03
566.70	43185.22
566.87	42979.26
567.03	42927.77
567.19	43049.47
567.36	42525.19
567.52	42948.83
567.68	42829.46
567.85	43072.88
568.01	43159.48
568.17	43346.72
568.34	43353.74
568.50	43040.11
568.66	43023.73
568.83	43328.00
568.99	42845.85
569.15	43353.74
569.32	43320.98
569.48	42700.73
569.64	43604.18
569.81	42841.17
569.97	43573.75
570.13	42965.21
570.30	43208.63
570.46	43210.97
570.62	43168.84
570.78	43210.97
570.95	42518.17
571.11	43470.77
571.27	43030.75
571.43	43164.16
571.60	42766.27
571.76	43372.47
571.92	43140.75
572.09	43824.19
572.25	43318.64
572.41	43318.64
572.57	43597.16
572.74	43377.15
572.90	43217.99
573.06	43810.15
573.22	43838.23
573.38	43313.95
573.55	43512.90
573.71	44025.48
573.87	43531.62
574.03	43178.20
574.20	43056.50
574.36	42993.30
574.52	43531.62
574.68	43650.99
574.84	43613.54
575.01	43906.11
575.17	43503.54
575.33	43299.91
575.49	43229.69
575.65	43433.32
575.82	43643.97
575.98	43335.02
576.14	43339.70
576.30	43639.29
576.46	43302.25
576.62	43416.94
576.79	43868.66
576.95	43501.20
577.11	43653.33
577.27	43166.50
577.43	43768.02
577.59	44048.88
577.75	43522.26
577.92	43028.41
578.08	43384.17
578.24	43473.11
578.40	43480.13
578.56	43234.38
578.72	44044.20
578.88	43768.02
579.04	43653.33
579.21	43737.59
579.37	43599.50
579.53	43377.15
579.69	43517.58
579.85	43662.69
580.01	43618.22
580.17	43107.99
580.33	43480.13
580.49	43360.76
580.65	43849.94
580.82	43674.40
580.98	43592.48
581.14	43529.28
581.30	44081.65
581.46	43533.96
581.62	43662.69
581.78	43459.07
581.94	43824.19
582.10	43665.03
582.26	44184.63
582.42	44020.80
582.58	44004.41
582.74	43648.65
582.90	43622.90
583.06	44069.95
583.22	43290.55
583.38	43952.92
583.54	43517.58
583.70	43430.98
583.86	43419.28
584.02	43351.40
584.18	43480.13
584.34	44201.02
584.50	43510.56
584.66	43716.53
584.82	43559.71
584.98	44044.20
585.14	43536.30
585.30	43592.48
585.46	43533.96
585.62	43456.73
585.78	44390.60
585.94	43826.53
586.10	43697.80
586.26	44072.29
586.42	44018.46
586.58	44715.93
586.74	43655.67
586.90	43819.51
587.06	43522.26
587.22	43910.79
587.38	43550.35
587.54	43779.72
587.70	44172.93
587.86	43688.44
588.02	44301.66
588.18	44278.25
588.34	44191.65
588.49	44357.83
588.65	43714.19
588.81	43697.80
588.97	44292.30
589.13	43845.26
589.29	43662.69
589.45	44318.04
589.61	44231.44
589.77	44423.37
589.93	44348.47
590.08	44046.54
590.24	43920.15
590.40	44360.17
590.56	44203.36
590.72	43866.32
590.88	43625.25
591.04	43976.33
591.20	43959.94
591.35	44435.07
591.51	44259.53
591.67	44425.71
591.83	44376.56
591.99	44224.42
592.15	44016.11
592.31	44112.08
592.46	44177.61
592.62	44058.24
592.78	43908.45
592.94	44376.56
593.10	44264.21
593.26	44360.17
593.41	44250.17
593.57	44418.69
593.73	44477.20
593.89	44669.12
594.05	44556.78
594.20	44107.40
594.36	44652.74
594.52	44362.51
594.68	44147.18
594.84	44149.53
594.99	44514.65
595.15	44545.08
595.31	44718.28
595.47	44233.78
595.62	44552.10
595.78	43948.24
595.94	43697.80
596.10	43718.87
596.25	44196.34
596.41	44034.84
596.57	43889.73
596.73	44416.35
596.88	44304.00
597.04	44292.30
597.20	44563.80
597.36	44313.36
597.51	44605.93
597.67	43976.33
597.83	44072.29
597.99	44222.08
598.14	44254.85
598.30	44596.57
598.46	44399.96
598.61	44079.31
598.77	43927.17
598.93	44116.76
599.09	44608.27
599.24	44790.83
599.40	44371.88
599.56	44430.39
599.71	44275.91
599.87	44587.21
600.03	44329.75
600.18	44341.45
600.34	44252.51
600.50	43990.37
600.65	44144.84
600.81	44495.92
600.97	44954.67
601.12	44802.53
601.28	44669.12
601.44	44474.86
601.59	44634.02
601.75	44280.60
601.91	43908.45
602.06	44053.56
602.22	44807.22
602.37	44079.31
602.53	44458.48
602.69	44353.15
602.84	44341.45
603.00	44451.45
603.16	44680.83
603.31	43969.30
603.47	44320.38
603.62	44313.36
603.78	44009.09
603.94	44095.69
604.09	44306.34
604.25	44081.65
604.40	44053.56
604.56	44203.36
604.71	44343.79
604.87	43847.60
605.03	43880.36
605.18	44360.17
605.34	44074.63
605.49	44116.76
605.65	44142.50
605.80	43842.92
605.96	43892.07
606.12	43908.45
606.27	43746.95
606.43	43742.27
606.58	44170.59
606.74	44619.97
606.89	44378.90
607.05	44268.89
607.20	44055.90
607.36	44081.65
607.51	44067.61
607.67	43842.92
607.82	44004.41
607.98	43753.97
608.13	44098.03
608.29	44069.95
608.44	43966.96
608.60	44240.81
608.75	44261.87
608.91	44002.07
609.06	43861.64
609.22	44341.45
609.37	43770.36
609.53	44088.67
609.68	43917.81
609.84	43887.39
609.99	44540.39
610.15	43845.26
610.30	44065.27
610.46	44619.97
610.61	44582.52
610.76	44657.42
610.92	44837.64
611.07	44610.61
611.23	44449.11
611.38	44722.96
611.54	44493.58
611.69	44444.43
611.84	43969.30
612.00	44491.24
612.15	44109.74
612.31	44098.03
612.46	43950.58
612.62	44088.67
612.77	44243.15
612.92	44643.38
613.08	43959.94
613.23	43779.72
613.39	43910.79
613.54	43379.49
613.69	43906.11
613.85	43470.77
614.00	43632.27
614.15	43798.44
614.31	43510.56
614.46	43739.93
614.62	43435.66
614.77	43775.04
614.92	43313.95
615.08	43526.94
615.23	43489.49
615.38	43377.15
615.54	42932.45
615.69	42787.33
615.84	43093.94
616.00	43208.63
616.15	43374.81
616.30	43636.95
616.46	43482.47
616.61	43466.09
616.76	43438.00
616.92	43157.14
617.07	43143.09
617.22	42466.68
617.37	42649.24
617.53	43084.58
617.68	42890.32
617.83	42988.62
617.99	42660.94
618.14	42714.78
618.29	43253.10
618.45	42724.14
618.60	42614.13
618.75	43026.07
618.90	42380.08
619.06	42843.51
619.21	43061.18
619.36	42887.98
619.51	41872.18
619.67	41916.65
619.82	42043.04
619.97	42490.09
620.12	42511.15
620.28	42286.46
620.43	42644.56
620.58	42827.12
620.73	42770.95
620.89	42644.56
621.04	42368.38
621.19	42340.29
621.34	42614.13
621.49	42153.05
621.65	42195.18
621.80	42178.79
621.95	42146.03
622.10	42087.51
622.25	42139.00
622.41	42380.08
622.56	42260.71
622.71	42113.26
622.86	42113.26
623.01	42220.92
623.16	42401.14
623.32	42525.19
623.47	42007.94
623.62	42164.75
623.77	41886.23
623.92	42052.41
624.07	41937.72
624.23	41961.12
624.38	42359.02
624.53	41509.40
624.68	41940.06
624.83	42183.48
624.98	42005.59
625.13	41614.72
625.29	42281.78
625.44	41804.31
625.59	41546.85
625.74	41436.84
625.89	41359.61
626.04	41352.58
626.19	41254.28
626.34	41724.73
626.49	41486.00
626.65	41359.61
626.80	42087.51
626.95	41312.80
627.10	41333.86
627.25	41621.75
627.40	41214.49
627.55	40954.69
627.70	41481.31
627.85	41127.89
628.00	40875.12
628.15	40872.78
628.30	41053.00
628.45	41273.01
628.60	40917.25
628.76	41308.11
628.91	41539.83
629.06	41256.62
629.21	41244.92
629.36	40980.44
629.51	41081.08
629.66	40629.36
629.81	40542.76
629.96	40531.06
630.11	40404.67
630.26	40924.27
630.41	41078.74
630.56	40760.43
630.71	41050.66
630.86	40612.98
631.01	41378.33
631.16	41371.31
631.31	40687.87
631.46	40439.78
631.61	40765.11
631.76	40879.80
631.91	40517.01
632.06	40292.32
632.21	40423.39
632.36	40215.08
632.51	40304.02
632.66	40072.31
632.81	40236.15
632.96	40659.79
633.10	40224.45
633.25	40643.40
633.40	40432.75
633.55	40259.55
633.70	40334.45
633.85	40020.82
634.00	40177.64
634.15	40030.18
634.30	40065.29
634.45	40292.32
634.60	39988.05
634.75	39866.34
634.90	39498.88
635.05	40046.57
635.19	39873.37
635.34	40194.02
635.49	40615.32
635.64	39688.46
635.79	39620.59
635.94	39861.66
636.09	39868.69
636.24	39749.32
636.39	39913.16
636.53	39597.18
636.68	39318.66
636.83	40065.29
636.98	40074.65
637.13	39564.42
637.28	39494.20
637.43	39913.16
637.57	39880.39
637.72	39812.51
637.87	39480.16
638.02	39594.84
638.17	39550.37
638.32	39164.18
638.46	39592.50
638.61	39358.45
638.76	39299.94
638.91	39131.42
639.06	39377.17
639.20	39330.36
639.35	39562.08
639.50	38944.17
639.65	39398.24
639.80	39381.85
639.94	39330.36
640.09	39213.34
640.24	39267.17
640.39	38778.00
640.54	38391.81
640.68	39093.97
640.83	38871.62
640.98	38555.64
641.13	38651.61
641.27	38845.87
641.42	38759.27
641.57	39302.28
641.72	39035.45
641.86	39311.64
642.01	39000.35
642.16	38902.04
642.31	38391.81
642.45	38700.76
642.60	38703.10
642.75	39056.52
642.90	38621.18
643.04	38436.28
643.19	38850.55
643.34	38422.23
643.48	38707.78
643.63	38888.00
643.78	38883.32
643.93	39009.71
644.07	38756.93
644.22	38506.49
644.37	38384.79
644.51	38583.73
644.66	38792.04
644.81	38457.34
644.95	38621.18
645.10	37904.98
645.25	38532.24
645.39	37963.49
645.54	38675.01
645.69	38590.75
645.83	38527.56
645.98	38038.39
646.13	38579.05
646.27	38134.35
646.42	38417.55
646.57	38497.13
646.71	38672.67
646.86	38129.67
647.00	38143.71
647.15	38272.44
647.30	37502.40
647.44	37851.14
647.59	38148.39
647.74	37806.67
647.88	38014.98
648.03	38321.59
648.17	38567.35
648.32	37844.12
648.47	38286.48
648.61	37769.22
648.76	38249.03
648.90	37682.62
649.05	37979.87
649.20	37839.44
649.34	37762.20
649.49	37581.98
649.63	37439.21
649.78	37876.89
649.92	37647.52
650.07	37865.19
650.21	37420.48
650.36	37750.50
650.51	37621.77
650.65	38073.49
650.80	37811.35
650.94	37340.91
651.09	36938.33
651.23	37303.46
651.38	37832.42
651.52	37244.94
651.67	37338.57
651.81	37160.69
651.96	37411.12
652.10	37113.87
652.25	37364.31
652.39	37563.26
652.54	37413.46
652.68	37532.83
652.83	37542.19
652.97	37406.44
653.12	37619.43
653.26	36807.26
653.41	37488.36
653.55	36905.57
653.70	37038.98
653.84	37095.15
653.99	37338.57
654.13	37331.54
654.27	36584.91
654.42	37209.84
654.56	37572.62
654.71	37109.19
654.85	36921.95
655.00	37244.94
655.14	37202.82
655.29	36797.90
655.43	36769.82
655.57	36561.51
655.72	36484.27
655.86	36624.70
656.01	36570.87
656.15	36266.60
656.30	36666.83
656.44	36453.84
656.58	36357.88
656.73	36081.70
656.87	36392.99
657.01	36362.56
657.16	36666.83
657.30	36395.33
657.45	36545.12
657.59	36343.84
657.73	36203.41
657.88	36336.82
658.02	36025.53
658.16	36208.09
658.31	36027.87
658.45	35857.01
658.60	35810.20
658.74	35831.26
658.88	36215.11
659.03	36187.02
659.17	35749.34
659.31	35838.28
659.46	35887.43
659.60	36093.40
659.74	36053.61
659.89	35910.84
660.03	35978.72
660.17	35718.92
660.32	35498.91
660.46	35803.17
660.60	35384.22
660.74	35250.81
660.89	35442.73
661.03	34920.79
661.17	35173.57
661.32	35159.53
661.46	34923.13
661.60	35416.99
661.74	35426.35
661.89	35178.25
662.03	35751.68
662.17	35442.73
662.31	35079.95
662.46	35061.22
662.60	35175.91
662.74	34815.47
662.88	34920.79
663.03	35108.04
663.17	34930.16
663.31	34586.10
663.45	34707.80
663.60	34646.95
663.74	34630.57
663.88	34820.15
664.02	34389.49
664.17	34892.71
664.31	34511.20
664.45	34338.00
664.59	34740.57
664.73	34679.72
664.88	34352.04
665.02	33780.95
665.16	33912.02
665.30	34284.17
665.44	33951.81
665.59	33490.73
665.73	33853.51
665.87	33656.90
666.01	34132.03
666.15	34167.14
666.29	33497.75
666.44	33928.41
666.58	33923.72
666.72	33926.07
666.86	34117.99
667.00	33853.51
667.14	33558.60
667.28	33298.80
667.43	33371.36
667.57	33467.32
667.71	33474.34
667.85	33067.09
667.99	33270.72
668.13	32975.81
668.27	32797.93
668.41	33078.79
668.56	33102.20
668.70	33170.07
668.84	32987.51
668.98	33104.54
669.12	32999.21
669.26	32966.45
669.40	32823.67
669.54	32598.98
669.68	32708.99
669.82	32458.55
669.96	32793.25
670.10	32212.79
670.25	32620.05
670.39	32460.89
670.53	31768.09
670.67	32425.78
670.81	32280.67
670.95	32374.29
671.09	32105.13
671.23	32077.04
671.37	31903.84
671.51	32126.19
671.65	32360.25
671.79	32053.64
671.93	31857.03
672.07	31770.43
672.21	31747.03
672.35	31344.45
672.49	31519.99
672.63	31363.18
672.77	31089.34
672.91	31129.12
673.05	31363.18
673.19	31204.02
673.33	31346.79
673.47	31110.40
673.61	30642.29
673.75	31241.47
673.89	30712.51
674.03	30810.81
674.17	31112.74
674.31	30380.15
674.45	30415.26
674.59	30799.11
674.73	30396.54
674.87	30401.22
675.01	30504.20
675.15	30242.06
675.29	30593.14
675.43	30518.25
675.56	30471.43
675.70	30225.68
675.84	30684.42
675.98	29420.53
676.12	30169.51
676.26	29965.88
676.40	30160.14
676.54	30075.88
676.68	29680.33
676.82	29425.22
676.96	29647.57
677.10	29649.91
677.23	29249.67
677.37	28950.09
677.51	29099.88
677.65	29123.29
677.79	29078.82
677.93	29041.37
678.07	28685.61
678.21	28687.95
678.34	28772.21
678.48	28381.34
678.62	28727.74
678.76	28390.70
678.90	28100.47
679.04	28079.41
679.18	28032.60
679.31	27964.72
679.45	27981.10
679.59	27997.49
679.73	27484.91
679.87	27534.06
680.00	27550.45
680.14	27737.69
680.28	27524.70
680.42	27414.69
680.56	27030.85
680.70	27117.45
680.83	27257.88
680.97	27068.30
681.11	27236.81
681.25	27131.49
681.39	27190.00
681.52	27077.66
681.66	27016.80
681.80	26670.40
681.94	26623.59
682.07	26621.25
682.21	26349.75
682.35	25888.67
682.49	25888.67
682.62	25820.79
682.76	25671.00
682.90	26155.49
683.04	26171.87
683.17	25879.30
683.31	25617.16
683.45	25972.92
683.59	25912.07
683.72	25685.04
683.86	25333.96
684.00	25528.22
684.13	25607.80
684.27	25369.07
684.41	25579.71
684.55	25432.26
684.68	25245.02
684.82	24704.35
684.96	24683.29
685.09	24802.66
685.23	24732.44
685.37	24666.91
685.50	24812.02
685.64	24507.75
685.78	24734.78
685.91	24397.74
686.05	24552.22
686.19	24439.87
686.32	24161.35
686.46	23655.79
686.60	23606.64
686.73	23716.65
686.87	23768.14
687.01	24044.32
687.14	23807.93
687.28	23660.48
687.42	23658.14
687.55	23506.00
687.69	23749.42
687.82	23445.15
687.96	23410.04
688.10	23367.91
688.23	22948.95
688.37	23103.43
688.50	23166.62
688.64	22780.43
688.78	22759.37
688.91	22469.14
689.05	22380.20
689.18	22188.28
689.32	22146.15
689.46	22398.93
689.59	22424.67
689.73	22317.01
689.86	22026.78
690.00	21640.59
690.13	21851.24
690.27	21776.34
690.41	21640.59
690.54	21696.77
690.68	21858.26
690.81	21460.37
690.95	21575.06
691.08	21343.35
691.22	21408.88
691.35	21296.53
691.49	20863.54
691.62	21090.57
691.76	20774.60
691.89	20697.36
692.03	20711.40
692.16	20573.31
692.30	20795.66
692.43	20496.07
692.57	20177.76
692.70	20343.94
692.84	19992.86
692.97	20355.64
693.11	20177.76
693.24	20133.29
693.38	20299.47
693.51	20088.82
693.65	19941.36
693.78	20034.99
693.92	19845.40
694.05	20018.60
694.19	19442.83
694.32	19379.64
694.45	19578.58
694.59	19491.98
694.72	18878.76
694.86	19524.75
694.99	18944.30
695.13	18719.60
695.26	18993.45
695.39	18611.94
695.53	19257.93
695.66	18719.60
695.80	18693.86
695.93	18684.50
696.07	18616.62
696.20	18319.37
696.33	18427.04
696.47	18335.76
696.60	18127.45
696.73	18317.03
696.87	18029.15
697.00	18190.64
697.14	18024.47
697.27	18122.77
697.40	17774.03
697.54	17514.23
697.67	17561.04
697.80	17507.21
697.94	17614.87
698.07	17357.41
698.21	17266.13
698.34	17160.81
698.47	17310.60
698.61	17095.27
698.74	17090.59
698.87	17212.30
699.01	17027.40
699.14	16865.90
699.27	17256.77
699.40	16889.31
699.54	16547.59
699.67	16648.23
699.80	16311.19
699.94	15922.66
700.07	16205.87
700.20	15826.70
700.34	15763.51
700.47	15920.32
700.60	16203.53
700.73	15997.56
700.87	16114.59
701.00	15864.15
701.13	15344.55
701.26	15747.12
701.40	15704.99
701.53	15473.28
701.66	15749.46
701.79	15316.47
701.93	15435.83
702.06	15508.39
702.19	15133.90
702.32	15229.87
702.46	15112.84
702.59	15082.41
702.72	14810.91
702.85	14824.95
702.99	14733.67
703.12	14642.39
703.25	14504.30
703.38	14567.49
703.51	14773.46
703.65	14593.24
703.78	14452.81
703.91	14712.61
704.04	14527.71
704.17	14253.86
704.31	14406.00
704.44	14064.28
704.57	14146.20
704.70	14003.43
704.83	13907.46
704.96	13767.03
705.10	13678.09
705.23	13586.81
>>>>>End Processed Spectral Data<<<<<
