SpectraSuite Data File
++++++++++++++++++++++++++++++++++++
Date: Tue Oct 01 18:27:28 GMT-05:00 2013
User: stostad
Dark Spectrum Present: No
Reference Spectrum Present: No
Number of Sampled Component Spectra: 1
Spectrometers: USB2+H05261
Integration Time (usec): 100000 (USB2+H05261)
Spectra Averaged: 1 (USB2+H05261)
Boxcar Smoothing: 0 (USB2+H05261)
Correct for Electrical Dark: No (USB2+H05261)
Strobe/Lamp Enabled: No (USB2+H05261)
Correct for Detector Non-linearity: No (USB2+H05261)
Correct for Stray Light: No (USB2+H05261)
Number of Pixels in Processed Spectrum: 2048
>>>>>Begin Processed Spectral Data<<<<<
365.73	0.00
365.92	0.00
366.12	0.00
366.32	0.00
366.52	0.00
366.72	11.70
366.91	0.00
367.11	0.00
367.31	0.00
367.51	0.00
367.70	4.68
367.90	0.00
368.10	0.00
368.30	0.00
368.49	0.00
368.69	39.79
368.89	44.47
369.09	0.00
369.28	7.02
369.48	0.00
369.68	30.43
369.87	7.02
370.07	0.00
370.27	0.00
370.47	93.62
370.66	299.59
370.86	337.04
371.06	339.38
371.25	318.31
371.45	290.23
371.65	395.55
371.84	315.97
372.04	280.86
372.24	311.29
372.44	360.44
372.63	397.89
372.83	353.42
373.03	386.19
373.22	369.80
373.42	402.57
373.62	315.97
373.81	437.68
374.01	519.60
374.21	444.70
374.40	409.59
374.60	472.79
374.79	442.36
374.99	418.96
375.19	507.90
375.38	461.09
375.58	456.40
375.78	421.30
375.97	470.45
376.17	510.24
376.37	411.93
376.56	500.87
376.76	456.40
376.95	456.40
377.15	472.79
377.35	500.87
377.54	475.13
377.74	433.00
377.93	444.70
378.13	491.51
378.33	484.49
378.52	477.47
378.72	503.22
378.91	578.11
379.11	447.04
379.31	489.17
379.50	437.68
379.70	484.49
379.89	489.17
380.09	425.98
380.28	533.64
380.48	571.09
380.68	552.37
380.87	550.03
381.07	507.90
381.26	564.07
381.46	608.54
381.65	543.00
381.85	528.96
382.04	512.58
382.24	493.85
382.43	535.98
382.63	482.15
382.83	603.86
383.02	580.45
383.22	643.65
383.41	599.18
383.61	599.18
383.80	538.32
384.00	596.84
384.19	566.41
384.39	596.84
384.58	454.06
384.78	578.11
384.97	557.05
385.17	671.73
385.36	624.92
385.56	669.39
385.75	599.18
385.95	648.33
386.14	660.03
386.34	631.94
386.53	720.88
386.72	594.50
386.92	699.82
387.11	753.65
387.31	730.25
387.50	657.69
387.70	608.54
387.89	643.65
388.09	688.12
388.28	681.10
388.48	631.94
388.67	704.50
388.86	730.25
389.06	781.74
389.25	798.12
389.45	690.46
389.64	688.12
389.84	739.61
390.03	727.91
390.22	798.12
390.42	725.57
390.61	650.67
390.81	760.67
391.00	802.80
391.19	858.98
391.39	793.44
391.58	732.59
391.78	833.23
391.97	770.04
392.16	765.36
392.36	805.14
392.55	807.48
392.75	889.40
392.94	753.65
393.13	903.45
393.33	842.59
393.52	887.06
393.71	847.27
393.91	861.32
394.10	933.87
394.29	877.70
394.49	884.72
394.68	898.77
394.88	894.08
395.07	910.47
395.26	905.79
395.46	929.19
395.65	1008.77
395.84	915.15
396.04	957.28
396.23	1025.15
396.42	983.02
396.62	936.21
396.81	964.30
397.00	961.96
397.19	1039.20
397.39	1029.84
397.58	1088.35
397.77	1039.20
397.97	992.39
398.16	1076.65
398.35	1160.91
398.55	1186.65
398.74	997.07
398.93	1181.97
399.12	1015.79
399.32	1177.29
399.51	1118.78
399.70	1116.44
399.90	1071.97
400.09	1203.04
400.28	1207.72
400.47	1167.93
400.67	1256.87
400.86	1165.59
401.05	1158.57
401.24	1203.04
401.44	1280.27
401.63	1221.76
401.82	1287.29
402.01	1242.82
402.21	1207.72
402.40	1320.06
402.59	1149.20
402.78	1308.36
402.97	1310.70
403.17	1331.76
403.36	1397.30
403.55	1362.19
403.74	1455.81
403.93	1455.81
404.13	1364.53
404.32	1432.41
404.51	1486.24
404.70	1483.90
404.89	1465.18
405.09	1614.97
405.28	1528.37
405.47	1486.24
405.66	1526.03
405.85	1570.50
406.05	1703.91
406.24	1544.75
406.43	1596.25
406.62	1584.54
406.81	1746.04
407.00	1584.54
407.20	1659.44
407.39	1675.82
407.58	1638.38
407.77	1732.00
407.96	1673.48
408.15	1774.13
408.34	1746.04
408.54	1727.32
408.73	1813.92
408.92	1921.58
409.11	1806.89
409.30	1811.57
409.49	1886.47
409.68	1839.66
409.87	1797.53
410.07	1926.26
410.26	1891.15
410.45	2029.24
410.64	1961.37
410.83	2059.67
411.02	2043.29
411.21	2045.63
411.40	2087.76
411.59	2136.91
411.78	2029.24
411.98	2115.84
412.17	2129.89
412.36	2087.76
412.55	2141.59
412.74	2139.25
412.93	2132.23
413.12	2289.04
413.31	2335.85
413.50	2317.13
413.69	2319.47
413.88	2436.50
414.07	2408.41
414.26	2427.14
414.45	2527.78
414.64	2626.08
414.83	2499.69
415.02	2537.14
415.22	2649.49
415.41	2656.51
415.60	2689.28
415.79	2637.78
415.98	2644.81
416.17	2691.62
416.36	2715.02
416.55	2864.82
416.74	2689.28
416.93	2862.48
417.12	2862.48
417.31	2897.58
417.50	2836.73
417.69	2981.84
417.88	2918.65
418.07	2925.67
418.26	2960.78
418.45	3068.44
418.64	3023.97
418.83	3091.85
419.02	3155.04
419.21	3021.63
419.39	3185.47
419.58	3045.04
419.77	3159.72
419.96	3155.04
420.15	3279.09
420.34	3122.27
420.53	3272.07
420.72	3375.05
420.91	3339.94
421.10	3201.85
421.29	3365.69
421.48	3162.06
421.67	3279.09
421.86	3260.37
422.05	3297.81
422.24	3363.35
422.43	3276.75
422.61	3475.70
422.80	3492.08
422.99	3508.46
423.18	3433.57
423.37	3478.04
423.56	3489.74
423.75	3461.65
423.94	3365.69
424.13	3190.15
424.32	3267.39
424.50	3456.97
424.69	3447.61
424.88	3557.61
425.07	3403.14
425.26	3548.25
425.45	3515.48
425.64	3447.61
425.83	3494.42
426.01	3492.08
426.20	3611.45
426.39	3552.93
426.58	3576.34
426.77	3585.70
426.96	3449.95
427.15	3581.02
427.33	3705.07
427.52	3754.22
427.71	3723.79
427.90	3702.73
428.09	3737.84
428.28	3705.07
428.46	3733.15
428.65	3735.50
428.84	3768.26
429.03	3847.84
429.22	3836.14
429.40	3805.71
429.59	3864.22
429.78	3695.71
429.97	3667.62
430.16	3770.60
430.34	3899.33
430.53	3950.82
430.72	3950.82
430.91	3927.42
431.10	3889.97
431.28	4053.81
431.47	4021.04
431.66	4107.64
431.85	3913.38
432.03	4131.05
432.22	4227.01
432.41	4203.60
432.60	4238.71
432.79	4046.79
432.97	4252.75
433.16	4198.92
433.35	4140.41
433.54	4320.63
433.72	4222.33
433.91	4346.37
434.10	4362.76
434.28	4287.86
434.47	4212.96
434.66	4383.82
434.85	4470.42
435.03	4428.29
435.22	4418.93
435.41	4709.16
435.59	4505.53
435.78	4531.28
435.97	4592.13
436.16	4552.34
436.34	4580.43
436.53	4519.57
436.72	4814.48
436.90	4519.57
437.09	4631.92
437.28	4599.15
437.46	4629.58
437.65	4718.52
437.84	4723.20
438.02	4713.84
438.21	4617.88
438.40	4774.69
438.58	4961.94
438.77	4912.78
438.96	4994.70
439.14	4971.30
439.33	5097.69
439.52	5039.17
439.70	4926.83
439.89	5132.79
440.08	5240.46
440.26	5125.77
440.45	5366.85
440.63	5151.52
440.82	5364.51
441.01	5224.08
441.19	5406.64
441.38	5392.59
441.57	5439.40
441.75	5392.59
441.94	5483.88
442.12	5619.63
442.31	5511.96
442.50	5647.71
442.68	5570.48
442.87	5671.12
443.05	5701.54
443.24	5837.30
443.43	5785.80
443.61	5696.86
443.80	5870.06
443.98	5685.16
444.17	5596.22
444.35	5680.48
444.54	5849.00
444.73	6031.56
444.91	5827.93
445.10	5722.61
445.28	5699.20
445.47	5797.51
445.65	5771.76
445.84	5856.02
446.02	5956.66
446.21	5919.21
446.39	6040.92
446.58	6005.81
446.77	5893.47
446.95	5827.93
447.14	5956.66
447.32	6146.25
447.51	6061.99
447.69	5776.44
447.88	6001.13
448.06	5961.34
448.25	6008.16
448.43	5961.34
448.62	6076.03
448.80	6022.20
448.99	5982.41
449.17	6225.82
449.36	6204.76
449.54	6183.70
449.73	6221.14
449.91	6298.38
450.10	6263.27
450.28	6415.41
450.46	6293.70
450.65	6511.37
450.83	6415.41
451.02	6284.34
451.20	6452.86
451.39	6499.67
451.57	6506.69
451.76	6195.40
451.94	6478.60
452.13	6527.75
452.31	6593.29
452.49	6462.22
452.68	6464.56
452.86	6682.23
453.05	6614.35
453.23	6693.93
453.42	6490.31
453.60	6675.21
453.78	6567.54
453.97	6743.08
454.15	6796.92
454.34	6857.77
454.52	7000.54
454.70	6899.90
454.89	6778.19
455.07	6808.62
455.26	7133.95
455.44	7145.66
455.62	6820.32
455.81	7059.06
455.99	7023.95
456.17	7222.89
456.36	7075.44
456.54	7176.08
456.73	7140.97
456.91	7405.46
457.09	7428.86
457.28	7435.88
457.46	7463.97
457.64	7543.55
457.83	7442.90
458.01	7281.41
458.19	7421.84
458.38	7531.84
458.56	7571.63
458.74	7496.74
458.93	7618.44
459.11	7581.00
459.29	7440.56
459.48	7836.11
459.66	7786.96
459.84	7733.13
460.03	7768.24
460.21	7688.66
460.39	7730.79
460.57	7651.21
460.76	7779.94
460.94	7880.58
461.12	7742.49
461.31	8084.21
461.49	7840.79
461.67	7953.14
461.85	8004.63
462.04	7978.89
462.22	8594.45
462.40	8152.09
462.59	8203.58
462.77	8044.42
462.95	8311.24
463.13	8079.53
463.32	8402.52
463.50	8262.09
463.68	8465.72
463.86	8315.92
464.05	8203.58
464.23	8308.90
464.41	8421.25
464.59	8243.37
464.78	8395.50
464.96	8336.99
465.14	8236.35
465.32	8702.11
465.50	8610.83
465.69	8622.53
465.87	8585.08
466.05	8533.59
466.23	8381.46
466.41	8519.55
466.60	8769.99
466.78	8346.35
466.96	8697.43
467.14	8531.25
467.32	8777.01
467.51	8739.56
467.69	8578.06
467.87	8929.14
468.05	8908.08
468.23	8922.12
468.41	8833.18
468.60	8992.34
468.78	9060.21
468.96	8760.63
469.14	8947.87
469.32	9053.19
469.50	8844.88
469.69	9151.49
469.87	9165.54
470.05	9228.73
470.23	9048.51
470.41	9329.38
470.59	9224.05
470.77	9142.13
470.95	9317.67
471.14	9444.06
471.32	9336.40
471.50	9675.77
471.68	9703.86
471.86	9540.02
472.04	9699.18
472.22	9568.11
472.40	9795.14
472.58	9806.84
472.77	9820.89
472.95	9895.78
473.13	10040.90
473.31	10050.26
473.49	9947.28
473.67	9947.28
473.85	10253.89
474.03	10312.40
474.21	10139.20
474.39	10380.28
474.57	10473.90
474.75	10548.79
474.93	10583.90
475.12	10511.35
475.30	10764.12
475.48	10504.32
475.66	10829.66
475.84	10869.45
476.02	10888.17
476.20	10635.39
476.38	11246.27
476.56	11040.31
476.74	11084.78
476.92	11080.10
477.10	11206.48
477.28	11417.13
477.46	11187.76
477.64	11756.51
477.82	11782.26
478.00	11854.81
478.18	12013.97
478.36	11913.33
478.54	12030.35
478.72	12032.69
478.90	12339.30
479.08	12163.76
479.26	12381.43
479.44	12320.58
479.62	12610.81
479.80	12329.94
479.98	12627.19
480.16	12959.55
480.34	13011.04
480.52	12957.21
480.70	13081.25
480.88	13198.28
481.06	13135.09
481.24	13116.36
481.41	13207.64
481.59	13792.78
481.77	13664.05
481.95	13802.14
482.13	13755.33
482.31	13841.93
482.49	14092.37
482.67	14328.76
482.85	14408.34
483.03	14647.07
483.21	14588.56
483.39	14853.04
483.57	14733.67
483.74	14698.56
483.92	15066.03
484.10	15089.43
484.28	15269.66
484.46	15293.06
484.64	15644.14
484.82	15461.58
485.00	15749.46
485.18	16027.99
485.35	16348.64
485.53	16121.61
485.71	16217.57
485.89	16578.01
486.07	16320.56
486.25	16437.58
486.43	16636.53
486.61	17001.65
486.78	17081.23
486.96	17200.60
487.14	17455.72
487.32	17139.74
487.50	17727.22
487.68	17561.04
487.85	18026.81
488.03	17958.93
488.21	18019.78
488.39	18221.07
488.57	17989.36
488.75	18590.88
488.92	18663.43
489.10	18785.14
489.28	18581.51
489.46	18986.43
489.64	19220.48
489.81	19400.70
489.99	19431.13
490.17	19641.78
490.35	20107.54
490.53	20011.58
490.70	19812.63
490.88	20161.37
491.06	20166.06
491.24	20262.02
491.41	20362.66
491.59	20369.68
491.77	20477.35
491.95	21006.31
492.13	21022.69
492.30	21221.64
492.48	21060.14
492.66	21331.64
492.84	21699.11
493.01	21986.99
493.19	21884.01
493.37	22080.61
493.54	21741.24
493.72	22284.24
493.90	22188.28
494.08	22590.85
494.25	22314.67
494.43	22490.21
494.61	22768.73
494.79	22998.10
494.96	23087.04
495.14	22977.04
495.32	23335.14
495.49	23538.77
495.67	23403.02
495.85	23295.35
496.02	23501.32
496.20	23927.30
496.38	24011.56
496.55	24060.71
496.73	24683.29
496.91	24247.95
497.09	24755.85
497.26	24929.05
497.44	24584.99
497.62	25198.21
497.79	25130.33
497.97	25319.92
498.14	25259.06
498.32	25242.68
498.50	25521.20
498.67	25984.63
498.85	25565.67
499.03	25893.35
499.20	26080.59
499.38	26356.77
499.56	26176.55
499.73	26281.88
499.91	26274.85
500.08	26902.12
500.26	26410.60
500.44	26368.48
500.61	27014.46
500.79	26616.57
500.97	27412.35
501.14	27335.12
501.32	27445.12
501.49	27225.11
501.67	27278.94
501.84	27552.79
502.02	27630.02
502.20	28009.19
502.37	27623.00
502.55	27878.12
502.72	28346.23
502.90	28130.90
503.07	28004.51
503.25	28336.87
503.43	28393.04
503.60	28470.28
503.78	28596.67
503.95	28591.98
504.13	29008.60
504.30	29001.58
504.48	28704.33
504.65	29109.24
504.83	29764.59
505.01	29338.62
505.18	29256.70
505.36	29591.39
505.53	29273.08
505.71	29736.51
505.88	29759.91
506.06	29469.69
506.23	29799.70
506.41	29818.42
506.58	30054.82
506.76	29972.90
506.93	30312.28
507.11	30108.65
507.28	30469.09
507.46	30110.99
507.63	30677.40
507.81	30782.73
507.98	30520.59
508.16	30333.34
508.33	31000.40
508.50	31023.80
508.68	31194.66
508.85	31604.25
509.03	31295.30
509.20	31321.05
509.38	31351.48
509.55	31674.47
509.73	31625.32
509.90	32182.37
510.08	32163.64
510.25	32102.79
510.42	31725.96
510.60	32135.56
510.77	32039.59
510.95	32409.40
511.12	32102.79
511.30	32821.33
511.47	32484.30
511.64	32538.13
511.82	32945.38
511.99	32460.89
512.17	32879.85
512.34	32989.85
512.51	33212.20
512.69	33291.78
512.86	33158.37
513.04	33935.43
513.21	33853.51
513.38	33565.62
513.56	33701.37
513.73	33436.89
513.90	33560.94
514.08	34108.63
514.25	33535.20
514.43	34117.99
514.60	34169.48
514.77	34251.40
514.95	34660.99
515.12	34333.32
515.29	34052.45
515.47	34724.19
515.64	35220.38
515.81	34689.08
515.99	34668.02
516.16	34766.32
516.33	34873.98
516.51	35285.92
516.68	34611.84
516.85	35328.05
517.03	35782.11
517.20	35356.13
517.37	35522.31
517.54	35873.39
517.72	35826.58
517.89	35402.94
518.06	35665.08
518.24	36079.36
518.41	35374.86
518.58	35941.27
518.75	36006.80
518.93	36229.15
519.10	35959.99
519.27	36053.61
519.45	36336.82
519.62	36538.10
519.79	36266.60
519.96	36325.11
520.14	36708.96
520.31	36449.16
520.48	37134.94
520.65	36620.02
520.83	36603.64
521.00	37156.00
521.17	37141.96
521.34	36835.35
521.52	37165.37
521.69	37783.27
521.86	37441.55
522.03	37567.94
522.20	37890.93
522.38	37656.88
522.55	37720.07
522.72	37766.88
522.89	37996.26
523.07	38082.86
523.24	37895.61
523.41	38340.32
523.58	38160.09
523.75	38609.48
523.92	38218.61
524.10	38155.41
524.27	38672.67
524.44	38579.05
524.61	39016.73
524.78	38934.81
524.96	38796.72
525.13	38635.22
525.30	39473.13
525.47	39276.53
525.64	39208.65
525.81	39431.01
525.98	39229.72
526.16	39079.92
526.33	38976.94
526.50	39552.71
526.67	39466.11
526.84	39922.52
527.01	39543.35
527.18	39625.27
527.36	39622.93
527.53	39763.36
527.70	39974.01
527.87	39938.90
528.04	39613.57
528.21	40107.42
528.38	40552.12
528.55	40219.77
528.72	40095.72
528.89	40495.95
529.07	40140.19
529.24	40533.40
529.41	40287.64
529.58	40575.53
529.75	40659.79
529.92	40596.59
530.09	40678.51
530.26	41151.30
530.43	40877.46
530.60	40407.01
530.77	40718.30
530.94	41155.98
531.11	41060.02
531.28	41612.38
531.46	41347.90
531.63	41539.83
531.80	41357.27
531.97	41584.30
532.14	41621.75
532.31	41537.49
532.48	41303.43
532.65	41853.46
532.82	41635.79
532.99	41818.35
533.16	41846.44
533.33	41876.86
533.50	42012.62
533.67	41818.35
533.84	41549.19
534.01	41963.46
534.18	42377.74
534.35	42225.60
534.52	42457.32
534.69	42377.74
534.86	42548.60
535.03	41890.91
535.20	41916.65
535.37	42288.80
535.54	42344.97
535.71	42323.91
535.88	42670.31
536.05	43313.95
536.22	42951.17
536.38	43091.60
536.55	42918.40
536.72	42803.72
536.89	42644.56
537.06	42698.39
537.23	43342.04
537.40	43161.82
537.57	43824.19
537.74	43152.46
537.91	43658.01
538.08	43571.41
538.25	43339.70
538.42	43454.39
538.59	43882.70
538.75	43267.14
538.92	43489.49
539.09	43894.41
539.26	44058.24
539.43	44170.59
539.60	43833.55
539.77	44165.91
539.94	44332.09
540.11	43765.68
540.28	44121.44
540.44	44210.38
540.61	43901.43
540.78	43847.60
540.95	44329.75
541.12	44617.63
541.29	44182.29
541.46	44039.52
541.62	44786.15
541.79	44591.89
541.96	44067.61
542.13	44215.06
542.30	44608.27
542.47	44385.92
542.63	44650.40
542.80	44839.98
542.97	45420.44
543.14	45385.33
543.31	45467.25
543.48	45439.16
543.64	45368.94
543.81	45298.73
543.98	45813.65
544.15	45450.86
544.32	45425.12
544.48	45612.36
544.65	45619.38
544.82	45654.49
544.99	45638.11
545.16	45696.62
545.32	45324.47
545.49	45921.31
545.66	45855.78
545.83	45956.42
546.00	45710.66
546.16	46169.41
546.33	45174.68
546.50	45635.77
546.67	46019.61
546.83	45509.38
547.00	46148.34
547.17	46026.63
547.34	46391.76
547.50	46066.42
547.67	45911.95
547.84	45853.44
548.00	46174.09
548.17	46518.15
548.34	46307.50
548.51	46761.56
548.67	46782.63
548.84	46504.10
549.01	46410.48
549.18	46483.04
549.34	46476.02
549.51	46689.01
549.68	46522.83
549.84	46810.71
550.01	46948.81
550.18	46789.65
550.34	47327.97
550.51	46916.04
550.68	46398.78
550.84	46553.26
551.01	46939.44
551.18	46663.26
551.34	46782.63
551.51	47054.13
551.68	47557.35
551.84	47416.91
552.01	46909.02
552.18	46773.27
552.34	47075.19
552.51	47028.38
552.68	46972.21
552.84	47555.00
553.01	47723.52
553.18	47690.76
553.34	47625.22
553.51	47470.75
553.67	47180.52
553.84	47562.03
554.01	47461.38
554.17	46979.23
554.34	47522.24
554.51	48016.09
554.67	48149.50
554.84	47772.67
555.00	47833.53
555.17	47922.47
555.33	47543.30
555.50	47512.88
555.67	47730.54
555.83	47597.13
556.00	48252.48
556.16	48715.91
556.33	48261.85
556.50	48137.80
556.66	48196.31
556.83	47838.21
556.99	47999.71
557.16	48067.58
557.32	48336.74
557.49	48140.14
557.65	48289.93
557.82	48500.58
557.98	48531.01
558.15	48580.16
558.32	48392.92
558.48	48151.84
558.65	48390.58
558.81	48182.27
558.98	48189.29
559.14	47957.58
559.31	48222.06
559.47	48626.97
559.64	48516.96
559.80	48699.53
559.97	48367.17
560.13	48402.28
560.30	48385.89
560.46	48697.19
560.63	48430.36
560.79	48769.74
560.96	48708.89
561.12	48741.66
561.29	49006.14
561.45	48891.45
561.61	48865.70
561.78	48360.15
561.94	49006.14
562.11	48612.93
562.27	48633.99
562.44	48755.70
562.60	49120.82
562.77	48545.05
562.93	48816.55
563.10	49497.65
563.26	48938.26
563.42	49408.71
563.59	48533.35
563.75	48924.22
563.92	49186.36
564.08	49212.10
564.24	48938.26
564.41	49090.40
564.57	49160.61
564.74	49141.89
564.90	48854.00
565.07	48924.22
565.23	49102.10
565.39	49160.61
565.56	48884.43
565.72	48971.03
565.88	48975.71
566.05	49635.74
566.21	49357.22
566.38	49230.83
566.54	49148.91
566.70	49619.36
566.87	49237.85
567.03	49291.68
567.19	49277.64
567.36	49202.74
567.52	48779.10
567.68	49883.84
567.85	49558.50
568.01	49806.60
568.17	49488.29
568.34	49415.73
568.50	49588.93
568.66	49240.19
568.83	49406.37
568.99	49043.59
569.15	49272.96
569.32	49638.08
569.48	49401.69
569.64	49450.84
569.81	49645.10
569.97	49392.33
570.13	49511.69
570.30	49567.87
570.46	49394.67
570.62	49385.30
570.78	49698.94
570.95	49485.95
571.11	49635.74
571.27	49720.00
571.43	49748.09
571.60	49825.32
571.76	49443.82
571.92	49694.25
572.09	49790.22
572.25	49675.53
572.41	49790.22
572.57	49956.39
572.74	50153.00
572.90	49801.92
573.06	49703.62
573.22	49581.91
573.38	49928.31
573.55	49443.82
573.71	49961.08
573.87	50085.12
574.03	49333.81
574.20	49862.77
574.36	49755.11
574.52	49846.39
574.68	49661.49
574.84	50197.47
575.01	50141.30
575.17	50211.51
575.33	49727.02
575.49	49336.15
575.65	49855.75
575.82	49900.22
575.98	49624.04
576.14	49940.01
576.30	50050.02
576.46	50061.72
576.62	49818.30
576.79	49628.72
576.95	49710.64
577.11	49860.43
577.27	49890.86
577.43	49982.14
577.59	49698.94
577.75	49928.31
577.92	49734.04
578.08	49801.92
578.24	50068.74
578.40	50195.13
578.56	50000.86
578.72	49792.56
578.88	49911.92
579.04	50246.62
579.21	49820.64
579.37	49947.03
579.53	49982.14
579.69	49858.09
579.85	50375.35
580.01	50270.03
580.17	50155.34
580.33	50272.37
580.49	50223.22
580.65	49890.86
580.82	49979.80
580.98	49600.63
581.14	49773.83
581.30	50248.96
581.46	49773.83
581.62	49932.99
581.78	50234.92
581.94	50618.77
582.10	50021.93
582.26	49832.35
582.42	50260.66
582.58	49914.26
582.74	49624.04
582.90	50080.44
583.06	49937.67
583.22	50225.56
583.38	50286.41
583.54	50475.99
583.70	50518.12
583.86	50216.19
584.02	50045.33
584.18	50548.55
584.34	50225.56
584.50	50192.79
584.66	50014.91
584.82	50040.65
584.98	50237.26
585.14	50178.75
585.30	50003.20
585.46	50230.24
585.62	50092.15
585.78	50021.93
585.94	50103.85
586.10	49996.18
586.26	49904.90
586.42	49647.44
586.58	50265.34
586.74	49989.16
586.90	50071.08
587.06	50361.31
587.22	50632.81
587.38	50176.40
587.54	50581.32
587.70	50445.57
587.86	50450.25
588.02	50258.32
588.18	50323.86
588.34	50506.42
588.49	50389.39
588.65	50225.56
588.81	50504.08
588.97	50820.05
589.13	50405.78
589.29	50588.34
589.45	50534.51
589.61	50597.70
589.77	50578.98
589.93	50520.46
590.08	50705.37
590.24	50424.50
590.40	50728.77
590.56	50632.81
590.72	50674.94
590.88	50632.81
591.04	50475.99
591.20	50817.71
591.35	50389.39
591.51	50586.00
591.67	50534.51
591.83	50646.85
591.99	50461.95
592.15	50850.48
592.31	50953.46
592.46	50550.89
592.62	50663.24
592.78	50955.80
592.94	50911.33
593.10	50621.11
593.26	50630.47
593.41	50894.95
593.57	50504.08
593.73	50820.05
593.89	50717.07
594.05	50719.41
594.20	50810.69
594.36	50890.27
594.52	50932.40
594.68	50827.07
594.84	50700.68
594.99	50892.61
595.15	50403.44
595.31	51224.96
595.47	50546.21
595.62	50934.74
595.78	50684.30
595.94	50710.05
596.10	50908.99
596.25	51056.45
596.41	50983.89
596.57	50885.59
596.73	50862.18
596.88	50520.46
597.04	50941.76
597.20	50688.98
597.36	50597.70
597.51	51002.61
597.67	50775.58
597.83	51023.68
597.99	50962.82
598.14	50993.25
598.30	50794.31
598.46	51110.28
598.61	51166.45
598.77	50869.20
598.93	50967.51
599.09	50932.40
599.24	51042.40
599.40	50885.59
599.56	50794.31
599.71	50848.14
599.87	51217.94
600.03	50857.50
600.18	51297.52
600.34	51133.68
600.50	51325.61
600.65	51065.81
600.81	51189.86
600.97	50724.09
601.12	50939.42
601.28	50674.94
601.44	50548.55
601.59	50916.01
601.75	50777.92
601.91	51208.58
602.06	51143.05
602.22	51121.98
602.37	51023.68
602.53	50958.14
602.69	51189.86
602.84	50911.33
603.00	50567.27
603.16	50901.97
603.31	51009.64
603.47	50990.91
603.62	51004.95
603.78	51395.82
603.94	50920.70
604.09	51393.48
604.25	51028.36
604.40	50934.74
604.56	51072.83
604.71	51065.81
604.87	50864.52
605.03	50674.94
605.18	50925.38
605.34	50979.21
605.49	50700.68
605.65	50976.87
605.80	50951.12
605.96	51152.41
606.12	50878.57
606.27	51159.43
606.43	50775.58
606.58	50974.53
606.74	50817.71
606.89	50555.57
607.05	50611.74
607.20	50855.16
607.36	50843.46
607.51	50983.89
607.67	50976.87
607.82	50958.14
607.98	51004.95
608.13	50534.51
608.29	50532.17
608.44	50773.24
608.60	50588.34
608.75	50447.91
608.91	50550.89
609.06	50253.64
609.22	50630.47
609.37	50644.51
609.53	50906.65
609.68	50866.86
609.84	50651.53
609.99	50724.09
610.15	50567.27
610.30	50731.11
610.46	50232.58
610.61	50581.32
610.76	50335.56
610.92	50113.21
611.07	50319.18
611.23	50405.78
611.38	50328.54
611.54	50752.18
611.69	50447.91
611.84	50333.22
612.00	50471.31
612.15	50405.78
612.31	50782.60
612.46	50330.88
612.62	50398.76
612.77	50028.95
612.92	50277.05
613.08	50211.51
613.23	50316.84
613.39	50564.93
613.54	50284.07
613.69	50625.79
613.85	50094.49
614.00	50408.12
614.15	50239.60
614.31	50473.65
614.46	50632.81
614.62	49872.14
614.77	50274.71
614.92	50047.68
615.08	50066.40
615.23	50220.87
615.38	50452.59
615.54	50398.76
615.69	50377.69
615.84	49989.16
616.00	50485.36
616.15	49813.62
616.30	50387.05
616.46	49790.22
616.61	49675.53
616.76	50024.27
616.92	49518.71
617.07	49705.96
617.22	49813.62
617.37	49523.40
617.53	50246.62
617.68	50129.59
617.83	49968.10
617.99	50141.30
618.14	49806.60
618.29	49762.13
618.45	49769.15
618.60	49834.69
618.75	49572.55
618.90	49673.19
619.06	49408.71
619.21	49371.26
619.36	49350.20
619.51	49504.67
619.67	49937.67
619.82	49497.65
619.97	50028.95
620.12	49315.09
620.28	49125.50
620.43	49516.37
620.58	49366.58
620.73	49148.91
620.89	49464.88
621.04	49698.94
621.19	49289.34
621.34	49579.57
621.49	49216.78
621.65	49411.05
621.80	49785.54
621.95	49635.74
622.10	49425.09
622.25	49329.13
622.41	49074.01
622.56	49270.62
622.71	49343.17
622.86	49024.86
623.01	48804.85
623.16	49041.24
623.32	48802.51
623.47	49476.58
623.62	49378.28
623.77	49628.72
623.92	49610.00
624.07	48839.96
624.23	49354.88
624.38	48999.12
624.53	48776.76
624.68	49095.08
624.83	48828.26
624.98	48863.36
625.13	48947.62
625.29	48903.15
625.44	48830.60
625.59	48451.43
625.74	48870.39
625.89	48938.26
626.04	48964.01
626.19	49031.88
626.34	48807.19
626.49	48254.82
626.65	48657.40
626.80	48364.83
626.95	48296.95
627.10	48060.56
627.25	48339.08
627.40	48444.41
627.55	48493.56
627.70	48191.63
627.85	48643.35
628.00	48453.77
628.15	48404.62
628.30	48502.92
628.45	48491.22
628.60	48170.57
628.76	48203.33
628.91	48523.99
629.06	48535.69
629.21	48203.33
629.36	48523.99
629.51	48018.43
629.66	48243.12
629.81	48088.65
629.96	48224.40
630.11	47980.98
630.26	47852.25
630.41	47980.98
630.56	47435.64
630.71	48102.69
630.86	47861.61
631.01	48095.67
631.16	47714.16
631.31	47435.64
631.46	47594.79
631.61	47669.69
631.76	47927.15
631.91	47784.38
632.06	47599.47
632.21	47239.03
632.36	47896.72
632.51	47524.58
632.66	47430.96
632.81	47388.83
632.96	47753.95
633.10	47114.98
633.25	47529.26
633.40	47323.29
633.55	47587.77
633.70	47290.52
633.85	47386.49
634.00	47683.73
634.15	47697.78
634.30	47517.56
634.45	47327.97
634.60	47662.67
634.75	47648.63
634.90	47189.88
635.05	47494.15
635.19	47220.31
635.34	47026.04
635.49	47524.58
635.64	47009.66
635.79	47213.29
635.94	47290.52
636.09	47320.95
636.24	47124.35
636.39	47112.64
636.53	47199.24
636.68	47299.89
636.83	47529.26
636.98	47082.22
637.13	46817.74
637.28	47311.59
637.43	46960.51
637.57	47079.88
637.72	46632.83
637.87	46852.84
638.02	47283.50
638.17	47206.26
638.32	46560.28
638.46	47196.90
638.61	46951.15
638.76	46602.41
638.91	46539.21
639.06	46555.60
639.20	46990.94
639.35	46440.91
639.50	46679.64
639.65	46782.63
639.80	46614.11
639.94	46192.81
640.09	46253.67
640.24	46590.70
640.39	46515.81
640.54	46108.55
640.68	46656.24
640.83	46520.49
640.98	45956.42
641.13	45874.50
641.27	46752.20
641.42	46134.30
641.57	45890.88
641.72	45968.12
641.86	45935.35
642.01	46279.41
642.16	45787.90
642.31	45827.69
642.45	46363.67
642.60	46047.70
642.75	45975.14
642.90	46204.52
643.04	45853.44
643.19	45965.78
643.34	45385.33
643.48	45579.59
643.63	45436.82
643.78	45930.67
643.93	45911.95
644.07	45462.57
644.22	45500.01
644.37	45769.18
644.51	45755.13
644.66	45832.37
644.81	45387.67
644.95	45811.31
645.10	45567.89
645.25	45635.77
645.39	45642.79
645.54	45989.19
645.69	45638.11
645.83	45968.12
645.98	45811.31
646.13	45457.88
646.27	44966.37
646.42	45254.26
646.57	45792.58
646.71	45612.36
646.86	45265.96
647.00	45680.24
647.15	45436.82
647.30	45558.53
647.44	45680.24
647.59	45668.53
647.74	45242.56
647.88	44942.97
648.03	44870.41
648.17	45394.69
648.32	45022.54
648.47	45413.41
648.61	45067.02
648.76	45090.42
648.90	45205.11
649.05	44935.95
649.20	45446.18
649.34	45263.62
649.49	44835.30
649.63	45453.20
649.78	45170.00
649.92	44828.28
650.07	45195.74
650.21	44879.77
650.36	44992.12
650.51	44634.02
650.65	44863.39
650.80	44868.07
650.94	45106.80
651.09	44273.57
651.23	44744.02
651.38	44896.16
651.52	44875.09
651.67	44535.71
651.81	44769.77
651.96	44928.92
652.10	44559.12
652.25	44582.52
652.39	44568.48
652.54	44191.65
652.68	44406.98
652.83	44587.21
652.97	44781.47
653.12	44109.74
653.26	43826.53
653.41	44336.77
653.55	44870.41
653.70	44818.92
653.84	45155.96
653.99	44664.44
654.13	44641.04
654.27	44505.29
654.42	44116.76
654.56	44175.27
654.71	44383.58
654.85	44081.65
655.00	43849.94
655.14	43894.41
655.29	43915.47
655.43	44275.91
655.57	43489.49
655.72	44177.61
655.86	43899.09
656.01	44439.75
656.15	43983.35
656.30	43704.82
656.44	43861.64
656.58	43632.27
656.73	43721.21
656.87	43625.25
657.01	43360.76
657.16	43779.72
657.30	43543.33
657.45	43150.12
657.59	43409.92
657.73	43044.79
657.88	43147.78
658.02	43140.75
658.16	43524.60
658.31	43110.33
658.45	43234.38
658.60	43716.53
658.74	43215.65
658.88	43016.71
659.03	42756.91
659.17	42983.94
659.31	43456.73
659.46	42801.38
659.60	42780.31
659.74	42335.61
659.89	42918.40
660.03	42148.37
660.17	42916.06
660.32	42885.64
660.46	43182.88
660.60	42387.10
660.74	43019.05
660.89	43379.49
661.03	42473.70
661.17	42876.27
661.32	42195.18
661.46	42356.67
661.60	41996.23
661.74	42185.82
661.89	42199.86
662.03	42141.35
662.17	41586.64
662.31	41752.82
662.46	42375.40
662.60	41823.03
662.74	42003.25
662.88	41830.05
663.03	42033.68
663.17	42433.91
663.31	41778.56
663.45	41792.61
663.60	41701.32
663.74	41455.57
663.88	41212.15
664.02	41434.50
664.17	41500.04
664.31	40987.46
664.45	41537.49
664.59	41165.34
664.73	41111.51
664.88	41504.72
665.02	40556.80
665.16	41336.20
665.30	41322.16
665.44	40928.95
665.59	40837.67
665.73	40802.56
665.87	40776.81
666.01	41230.88
666.15	40610.64
666.29	40671.49
666.44	40751.07
666.58	40346.15
666.72	40376.58
666.86	40236.15
667.00	40479.57
667.14	40212.74
667.28	40627.02
667.43	40376.58
667.57	40130.83
667.71	40472.54
667.85	40481.91
667.99	40353.18
668.13	40156.57
668.27	40203.38
668.41	39892.09
668.56	39693.15
668.70	39716.55
668.84	39826.56
668.98	39538.67
669.12	39395.90
669.26	39454.41
669.40	39358.45
669.54	39627.61
669.68	39728.25
669.82	39386.54
669.96	39538.67
670.10	39330.36
670.25	39847.62
670.39	39206.31
670.53	38962.90
670.67	38829.49
670.81	39201.63
670.95	38749.91
671.09	38359.04
671.23	38462.02
671.37	38955.88
671.51	38211.59
671.65	38361.38
671.79	38277.12
671.93	38401.17
672.07	38562.67
672.21	38508.83
672.35	38216.27
672.49	38567.35
672.63	38419.89
672.77	38424.57
672.91	38054.77
673.05	37659.22
673.19	37977.53
673.33	37787.95
673.47	37813.70
673.61	37675.60
673.75	37553.90
673.89	37495.38
674.03	37383.04
674.17	37099.83
674.31	37614.75
674.45	37457.93
674.59	37188.77
674.73	37064.72
674.87	36863.44
675.01	36582.57
675.15	37102.17
675.29	36928.97
675.43	37020.25
675.56	36678.54
675.70	36465.55
675.84	36416.40
675.98	35323.36
676.12	36404.69
676.26	36261.92
676.40	36329.80
676.54	35620.61
676.68	35498.91
676.82	35274.21
676.96	35559.76
677.10	35709.55
677.23	36011.48
677.37	35770.41
677.51	35751.68
677.65	35421.67
677.79	35222.72
677.93	35290.60
678.07	34883.34
678.21	34443.32
678.34	34450.35
678.48	34270.12
678.62	34136.71
678.76	34085.22
678.90	34323.96
679.04	34239.70
679.18	34174.16
679.31	34029.05
679.45	34057.14
679.59	34274.80
679.73	34213.95
679.87	33968.19
680.00	33872.23
680.14	33383.06
680.28	33479.02
680.42	33694.35
680.56	33261.35
680.70	32767.50
680.83	32641.11
680.97	32451.53
681.11	32584.94
681.25	32767.50
681.39	32662.18
681.52	32797.93
681.66	32842.40
681.80	32332.16
681.94	33013.26
682.07	32411.74
682.21	32116.83
682.35	32058.32
682.49	31875.76
682.62	32070.02
682.76	31599.57
682.90	31604.25
683.04	31414.67
683.17	31255.51
683.31	31056.57
683.45	31295.30
683.59	30981.67
683.72	30979.33
683.86	30731.23
684.00	30649.32
684.13	30876.35
684.27	30895.07
684.41	30726.55
684.55	30764.00
684.68	30455.05
684.82	30670.38
684.96	30232.70
685.09	30307.60
685.23	29944.81
685.37	29996.31
685.50	29638.20
685.64	29638.20
685.78	29708.42
685.91	29556.28
686.05	29226.27
686.19	28772.21
686.32	28830.72
686.46	29221.59
686.60	29202.86
686.73	29392.45
686.87	29179.46
687.01	29102.22
687.14	28877.53
687.28	28945.41
687.42	28652.84
687.55	28758.16
687.69	28540.49
687.82	28212.82
687.96	28580.28
688.10	27950.68
688.23	28079.41
688.37	27995.15
688.50	27714.28
688.64	27730.67
688.78	27585.55
688.91	27618.32
689.05	27501.29
689.18	27489.59
689.32	26979.36
689.46	27288.31
689.59	27014.46
689.73	27208.73
689.86	26974.67
690.00	26974.67
690.13	27246.18
690.27	26815.52
690.41	26820.20
690.54	26050.16
690.68	26377.84
690.81	26132.08
690.95	26092.29
691.08	25671.00
691.22	26017.40
691.35	25776.32
691.49	25855.90
691.62	25638.23
691.76	25785.68
691.89	25638.23
692.03	25745.89
692.16	25467.37
692.30	25425.24
692.43	25111.61
692.57	25312.89
692.70	25329.28
692.84	25486.09
692.97	24549.88
693.11	24510.09
693.24	24374.34
693.38	24261.99
693.51	24128.58
693.65	24875.21
693.78	24339.23
693.92	24070.07
694.05	24238.59
694.19	23889.85
694.32	24074.75
694.45	23618.35
694.59	23807.93
694.72	23506.00
694.86	24095.82
694.99	23573.88
695.13	23520.04
695.26	23482.59
695.39	23367.91
695.53	22939.59
695.66	22747.67
695.80	22986.40
695.93	22497.23
696.07	22366.16
696.20	22235.09
696.33	22431.69
696.47	22338.07
696.60	22387.22
696.73	22441.06
696.87	22125.08
697.00	22405.95
697.14	21923.80
697.27	21741.24
697.40	22094.66
697.54	21837.20
697.67	21535.27
697.80	21720.17
697.94	21518.89
698.07	21425.26
698.21	21317.60
698.34	21043.76
698.47	20706.72
698.61	21060.14
698.74	20758.21
698.87	20793.32
699.01	20798.00
699.14	20528.84
699.27	20744.17
699.40	20725.44
699.54	20402.45
699.67	20477.35
699.80	20269.04
699.94	20058.39
700.07	20187.12
700.20	20149.67
700.34	20030.30
700.47	19840.72
700.60	19910.94
700.73	19686.25
700.87	19351.55
701.00	19517.73
701.13	19119.84
701.26	19351.55
701.40	19449.85
701.53	18808.54
701.66	19042.60
701.79	18911.53
701.93	18750.03
702.06	18764.07
702.19	18691.52
702.32	19152.60
702.46	18656.41
702.59	18759.39
702.72	18209.37
702.85	18277.24
702.99	18368.52
703.12	18256.18
703.25	18092.34
703.38	17907.44
703.51	17778.71
703.65	17741.26
703.78	17827.86
703.91	17177.19
704.04	17390.18
704.17	17755.30
704.31	17528.27
704.44	17495.50
704.57	17575.08
704.70	17394.86
704.83	17228.68
704.96	17277.83
705.10	17427.63
705.23	16968.88
>>>>>End Processed Spectral Data<<<<<
