SpectraSuite Data File
++++++++++++++++++++++++++++++++++++
Date: Tue Oct 01 18:27:29 GMT-05:00 2013
User: stostad
Dark Spectrum Present: No
Reference Spectrum Present: No
Number of Sampled Component Spectra: 1
Spectrometers: USB2+H05261
Integration Time (usec): 100000 (USB2+H05261)
Spectra Averaged: 1 (USB2+H05261)
Boxcar Smoothing: 0 (USB2+H05261)
Correct for Electrical Dark: No (USB2+H05261)
Strobe/Lamp Enabled: No (USB2+H05261)
Correct for Detector Non-linearity: No (USB2+H05261)
Correct for Stray Light: No (USB2+H05261)
Number of Pixels in Processed Spectrum: 2048
>>>>>Begin Processed Spectral Data<<<<<
365.73	30.43
365.92	30.43
366.12	30.43
366.32	23.41
366.52	0.00
366.72	18.72
366.91	9.36
367.11	0.00
367.31	0.00
367.51	0.00
367.70	0.00
367.90	0.00
368.10	16.38
368.30	0.00
368.49	0.00
368.69	46.81
368.89	0.00
369.09	0.00
369.28	0.00
369.48	0.00
369.68	0.00
369.87	28.09
370.07	39.79
370.27	39.79
370.47	44.47
370.66	299.59
370.86	266.82
371.06	278.52
371.25	330.02
371.45	322.99
371.65	379.17
371.84	353.42
372.04	383.85
372.24	358.10
372.44	393.21
372.63	437.68
372.83	414.27
373.03	372.15
373.22	348.74
373.42	351.08
373.62	348.74
373.81	393.21
374.01	397.89
374.21	496.19
374.40	442.36
374.60	435.34
374.79	442.36
374.99	421.30
375.19	503.22
375.38	500.87
375.58	421.30
375.78	489.17
375.97	489.17
376.17	514.92
376.37	564.07
376.56	524.28
376.76	477.47
376.95	470.45
377.15	571.09
377.35	451.72
377.54	512.58
377.74	423.64
377.93	519.60
378.13	486.83
378.33	538.32
378.52	521.94
378.72	535.98
378.91	512.58
379.11	493.85
379.31	610.88
379.50	507.90
379.70	589.82
379.89	557.05
380.09	571.09
380.28	517.26
380.48	566.41
380.68	559.39
380.87	545.34
381.07	468.11
381.26	582.79
381.46	580.45
381.65	517.26
381.85	550.03
382.04	627.26
382.24	587.47
382.43	615.56
382.63	559.39
382.83	662.37
383.02	603.86
383.22	711.52
383.41	594.50
383.61	664.71
383.80	631.94
384.00	648.33
384.19	601.52
384.39	629.60
384.58	578.11
384.78	657.69
384.97	664.71
385.17	622.58
385.36	695.14
385.56	641.31
385.75	599.18
385.95	636.63
386.14	816.85
386.34	664.71
386.53	697.48
386.72	664.71
386.92	678.76
387.11	716.20
387.31	674.07
387.50	702.16
387.70	620.24
387.89	685.78
388.09	732.59
388.28	828.55
388.48	706.84
388.67	746.63
388.86	765.36
389.06	828.55
389.25	727.91
389.45	739.61
389.64	711.52
389.84	751.31
390.03	856.64
390.22	779.40
390.42	734.93
390.61	828.55
390.81	734.93
391.00	763.01
391.19	856.64
391.39	777.06
391.58	828.55
391.78	840.25
391.97	821.53
392.16	826.21
392.36	901.11
392.55	957.28
392.75	877.70
392.94	959.62
393.13	938.55
393.33	910.47
393.52	971.32
393.71	905.79
393.91	947.92
394.10	905.79
394.29	966.64
394.49	887.06
394.68	968.98
394.88	908.13
395.07	990.05
395.26	994.73
395.46	1011.11
395.65	994.73
395.84	1013.45
396.04	1043.88
396.23	1027.50
396.42	1025.15
396.62	1139.84
396.81	997.07
397.00	1025.15
397.19	1107.07
397.39	1076.65
397.58	1135.16
397.77	1219.42
397.97	1116.44
398.16	1123.46
398.35	1132.82
398.55	1214.74
398.74	1188.99
398.93	1196.01
399.12	1156.22
399.32	1217.08
399.51	1149.20
399.70	1252.19
399.90	1224.10
400.09	1238.14
400.28	1273.25
400.47	1341.13
400.67	1327.08
400.86	1458.15
401.05	1345.81
401.24	1238.14
401.44	1315.38
401.63	1444.11
401.82	1306.02
402.01	1275.59
402.21	1336.45
402.40	1289.64
402.59	1493.26
402.78	1467.52
402.97	1409.00
403.17	1467.52
403.36	1488.58
403.55	1427.73
403.74	1486.24
403.93	1614.97
404.13	1633.69
404.32	1537.73
404.51	1488.58
404.70	1530.71
404.89	1661.78
405.09	1675.82
405.28	1589.22
405.47	1633.69
405.66	1671.14
405.85	1696.89
406.05	1715.61
406.24	1717.95
406.43	1797.53
406.62	1739.02
406.81	1825.62
407.00	1757.74
407.20	1795.19
407.39	1799.87
407.58	1806.89
407.77	1820.94
407.96	1827.96
408.15	1879.45
408.34	1933.28
408.54	1811.57
408.73	1937.96
408.92	1956.69
409.11	1956.69
409.30	1977.75
409.49	2010.52
409.68	1935.62
409.87	1844.34
410.07	2024.56
410.26	2134.57
410.45	2054.99
410.64	2150.95
410.83	2073.71
411.02	2059.67
411.21	2277.34
411.40	2172.02
411.59	2228.19
411.78	2165.00
411.98	2237.55
412.17	2394.37
412.36	2363.94
412.55	2380.32
412.74	2408.41
412.93	2448.20
413.12	2305.43
413.31	2527.78
413.50	2459.90
413.69	2509.05
413.88	2544.16
414.07	2609.70
414.26	2602.68
414.45	2616.72
414.64	2651.83
414.83	2726.72
415.02	2759.49
415.22	2665.87
415.41	2623.74
415.60	2862.48
415.79	2806.30
415.98	2911.63
416.17	2860.13
416.36	2841.41
416.55	2867.16
416.74	2923.33
416.93	2888.22
417.12	2951.42
417.31	3009.93
417.50	2953.76
417.69	3089.51
417.88	3042.70
418.07	3061.42
418.26	3094.19
418.45	2995.89
418.64	3131.64
418.83	3272.07
419.02	3246.32
419.21	3265.05
419.39	3412.50
419.58	3194.83
419.77	3297.81
419.96	3293.13
420.15	3447.61
420.34	3318.88
420.53	3365.69
420.72	3372.71
420.91	3358.67
421.10	3405.48
421.29	3529.53
421.48	3424.20
421.67	3590.38
421.86	3452.29
422.05	3627.83
422.24	3571.66
422.43	3440.59
422.61	3723.79
422.80	3574.00
422.99	3686.34
423.18	3529.53
423.37	3803.37
423.56	3599.74
423.75	3557.61
423.94	3700.39
424.13	3297.81
424.32	3552.93
424.50	3686.34
424.69	3714.43
424.88	3824.44
425.07	3777.62
425.26	3684.00
425.45	3691.02
425.64	3644.21
425.83	3627.83
426.01	3719.11
426.20	3595.06
426.39	3728.47
426.58	3679.32
426.77	3627.83
426.96	3789.33
427.15	3798.69
427.33	3819.75
427.52	3904.01
427.71	3878.27
427.90	3936.78
428.09	3911.04
428.28	3943.80
428.46	3878.27
428.65	3882.95
428.84	4046.79
429.03	4152.11
429.22	4032.74
429.40	4058.49
429.59	4109.98
429.78	3885.29
429.97	3976.57
430.16	4016.36
430.34	4072.53
430.53	4236.37
430.72	4117.00
430.91	4072.53
431.10	4117.00
431.28	4149.77
431.47	4388.50
431.66	4322.97
431.85	4210.62
432.03	4341.69
432.22	4587.45
432.41	4430.63
432.60	4367.44
432.79	4358.08
432.97	4383.82
433.16	4423.61
433.35	4411.91
433.54	4449.36
433.72	4540.64
433.91	4561.70
434.10	4667.03
434.28	4435.32
434.47	4514.89
434.66	4575.75
434.85	4671.71
435.03	4812.14
435.22	4641.28
435.41	4709.16
435.59	4835.55
435.78	4784.06
435.97	4777.03
436.16	4821.50
436.34	4807.46
436.53	4791.08
436.72	4947.89
436.90	4816.82
437.09	4961.94
437.28	4931.51
437.46	4901.08
437.65	5022.79
437.84	5163.22
438.02	4863.63
438.21	5102.37
438.40	4983.00
438.58	5137.48
438.77	5221.74
438.96	5109.39
439.14	5392.59
439.33	5331.74
439.52	5266.21
439.70	5313.02
439.89	5483.88
440.08	5427.70
440.26	5750.70
440.45	5465.15
440.63	5558.77
440.82	5596.22
441.01	5640.69
441.19	5720.27
441.38	5809.21
441.57	5502.60
441.75	5746.02
441.94	6052.63
442.12	5811.55
442.31	5909.85
442.50	5970.71
442.68	5846.66
442.87	6169.65
443.05	6076.03
443.24	6118.16
443.43	6106.46
443.61	6113.48
443.80	6216.46
443.98	6069.01
444.17	5764.74
444.35	6207.10
444.54	6256.25
444.73	6274.98
444.91	6228.17
445.10	6242.21
445.28	6209.44
445.47	6176.67
445.65	6237.53
445.84	6085.39
446.02	6251.57
446.21	6356.90
446.39	6174.33
446.58	6403.71
446.77	6260.93
446.95	6305.40
447.14	6249.23
447.32	6478.60
447.51	6494.99
447.69	6345.19
447.88	6368.60
448.06	6436.47
448.25	6396.68
448.43	6431.79
448.62	6637.76
448.80	6455.20
448.99	6560.52
449.17	6579.25
449.36	6541.80
449.54	6789.89
449.73	6775.85
449.91	6663.51
450.10	6825.00
450.28	6717.34
450.46	6752.45
450.65	6750.10
450.83	6796.92
451.02	6834.36
451.20	6857.77
451.39	6768.83
451.57	6768.83
451.76	6743.08
451.94	6686.91
452.13	6932.67
452.31	6825.00
452.49	6883.52
452.68	6883.52
452.86	6960.75
453.05	7030.97
453.23	7276.73
453.42	6993.52
453.60	6932.67
453.78	7005.22
453.97	7194.81
454.15	7201.83
454.34	7061.40
454.52	7059.06
454.70	7248.64
454.89	7424.18
455.07	7236.94
455.26	7360.98
455.44	7571.63
455.62	7433.54
455.81	7482.69
455.99	7452.27
456.17	7503.76
456.36	7609.08
456.54	7686.32
456.73	7756.54
456.91	7882.92
457.09	7878.24
457.28	7948.46
457.46	7592.70
457.64	7878.24
457.83	7669.94
458.01	7894.63
458.19	7929.74
458.38	7742.49
458.56	8140.38
458.74	8046.76
458.93	8065.49
459.11	7969.52
459.29	8250.39
459.48	8044.42
459.66	8030.38
459.84	8379.12
460.03	8418.91
460.21	8072.51
460.39	8367.42
460.57	8217.62
460.76	8287.84
460.94	8456.36
461.12	8177.83
461.31	8325.29
461.49	8294.86
461.67	8358.05
461.85	8564.02
462.04	8549.98
462.22	8980.64
462.40	8606.15
462.59	8636.58
462.77	8554.66
462.95	8849.57
463.13	8690.41
463.32	8667.00
463.50	8718.50
463.68	8936.17
463.86	8629.56
464.05	8772.33
464.23	8730.20
464.41	8947.87
464.59	8706.79
464.78	9067.24
464.96	9008.72
465.14	9144.47
465.32	9083.62
465.50	9078.94
465.69	8961.91
465.87	8933.82
466.05	9083.62
466.23	8919.78
466.41	9090.64
466.60	9369.16
466.78	9048.51
466.96	8968.93
467.14	9226.39
467.32	9200.65
467.51	9310.65
467.69	9200.65
467.87	9378.53
468.05	9497.89
468.23	9301.29
468.41	9266.18
468.60	9408.95
468.78	9598.54
468.96	9554.07
469.14	9558.75
469.32	9745.99
469.50	9607.90
469.69	9830.25
469.87	9598.54
470.05	9710.88
470.23	9605.56
470.41	9614.92
470.59	9750.67
470.77	9923.87
470.95	9958.98
471.14	9982.38
471.32	9888.76
471.50	10087.71
471.68	10036.22
471.86	10125.16
472.04	10366.23
472.22	10471.56
472.40	10312.40
472.58	10363.89
472.77	10216.44
472.95	10607.31
473.13	10768.80
473.31	10333.47
473.49	10422.41
473.67	10661.14
473.85	10764.12
474.03	10911.58
474.21	10850.72
474.39	11075.42
474.57	11077.76
474.75	11176.06
474.93	11229.89
475.12	10944.34
475.30	11030.94
475.48	11269.68
475.66	11433.52
475.84	11407.77
476.02	11506.07
476.20	11688.64
476.38	11775.24
476.56	11894.60
476.74	11932.05
476.92	11763.53
477.10	11782.26
477.28	11960.14
477.46	11992.90
477.64	12453.99
477.82	12224.62
478.00	12587.40
478.18	12779.32
478.36	12917.42
478.54	12861.24
478.72	12751.24
478.90	13011.04
479.08	12807.41
479.26	13177.22
479.44	13233.39
479.62	13568.09
479.80	13446.38
479.98	13493.19
480.16	13748.31
480.34	13944.91
480.52	13907.46
480.70	13930.87
480.88	13448.72
481.06	13760.01
481.24	14075.98
481.41	14298.33
481.59	14523.02
481.77	14628.35
481.95	14705.59
482.13	14445.79
482.31	14782.82
482.49	15288.38
482.67	15119.86
482.85	15262.63
483.03	15510.73
483.21	15716.70
483.39	15880.53
483.57	15712.02
483.74	15871.17
483.92	16451.63
484.10	16166.08
484.28	16123.95
484.46	16484.39
484.64	16606.10
484.82	16315.87
485.00	16690.36
485.18	16989.95
485.35	17153.79
485.53	17188.89
485.71	17027.40
485.89	17635.94
486.07	17331.67
486.25	17701.47
486.43	17867.65
486.61	17998.72
486.78	18181.28
486.96	18029.15
487.14	18338.10
487.32	18548.75
487.50	18511.30
487.68	18892.80
487.85	19112.81
488.03	19143.24
488.21	19419.42
488.39	19208.78
488.57	19716.67
488.75	19789.23
488.92	19990.52
489.10	20098.18
489.28	20322.87
489.46	20662.25
489.64	20032.65
489.81	20737.15
489.99	20718.42
490.17	20823.75
490.35	21390.16
490.53	21308.24
490.70	21329.30
490.88	21387.82
491.06	21376.11
491.24	21401.86
491.41	21858.26
491.59	21926.14
491.77	22169.55
491.95	22136.79
492.13	21968.27
492.30	22492.55
492.48	22679.79
492.66	22654.05
492.84	22988.74
493.01	23124.49
493.19	23030.87
493.37	23201.73
493.54	23314.08
493.72	23850.06
493.90	23828.99
494.08	24208.16
494.25	24049.00
494.43	24219.86
494.61	24130.92
494.79	24226.89
494.96	24697.33
495.14	24826.06
495.32	25020.33
495.49	25013.31
495.67	24837.76
495.85	25343.32
496.02	24947.77
496.20	25392.47
496.38	25640.57
496.55	26036.12
496.73	26286.56
496.91	26167.19
497.09	26244.43
497.26	26228.04
497.44	26637.64
497.62	26525.29
497.79	26616.57
497.97	26998.08
498.14	27035.53
498.32	26920.84
498.50	26691.47
498.67	27489.59
498.85	27321.07
499.03	27660.45
499.20	27782.16
499.38	27653.43
499.56	27999.83
499.73	27920.25
499.91	28037.28
500.08	28304.10
500.26	27761.09
500.44	28496.02
500.61	28528.79
500.79	28177.71
500.97	28973.49
501.14	28992.22
501.32	29195.84
501.49	28992.22
501.67	29153.71
501.84	29427.56
502.02	29408.83
502.20	29736.51
502.37	29706.08
502.55	29628.84
502.72	29944.81
502.90	29876.94
503.07	29586.71
503.25	29750.55
503.43	30012.69
503.60	30408.24
503.78	30649.32
503.95	30185.89
504.13	30085.25
504.30	31005.08
504.48	30885.71
504.65	31061.25
504.83	31398.29
505.01	31037.84
505.18	30717.19
505.36	31253.17
505.53	31395.95
505.71	31840.65
505.88	31618.30
506.06	31590.21
506.23	32215.13
506.41	31564.46
506.58	31852.35
506.76	31735.32
506.93	31950.65
507.11	32208.11
507.28	32142.58
507.46	32229.18
507.63	32308.76
507.81	32496.00
507.98	32446.85
508.16	32826.01
508.33	32753.46
508.50	32982.83
508.68	32767.50
508.85	33312.84
509.03	33565.62
509.20	33230.93
509.38	33649.88
509.55	33780.95
509.73	33809.04
509.90	34010.32
510.08	34169.48
510.25	33656.90
510.42	34326.30
510.60	34227.99
510.77	34412.90
510.95	34373.11
511.12	34323.96
511.30	34543.97
511.47	34518.22
511.64	34845.90
511.82	35192.30
511.99	34752.27
512.17	34967.60
512.34	34890.37
512.51	35391.24
512.69	35358.47
512.86	35356.13
513.04	35791.47
513.21	35339.75
513.38	35777.43
513.56	35772.75
513.73	35866.37
513.90	35583.16
514.08	36222.13
514.25	36065.31
514.43	36465.55
514.60	36275.96
514.77	36753.43
514.95	36596.62
515.12	36545.12
515.29	36294.69
515.47	36472.57
515.64	37167.71
515.81	37062.38
515.99	36959.40
516.16	36910.25
516.33	37186.43
516.51	37439.21
516.68	37146.64
516.85	37303.46
517.03	37827.74
517.20	37993.92
517.37	37617.09
517.54	37846.46
517.72	37762.20
517.89	37699.01
518.06	38054.77
518.24	38141.37
518.41	38071.15
518.58	37839.44
518.75	37961.15
518.93	38234.99
519.10	38024.34
519.27	38492.45
519.45	38754.59
519.62	38604.80
519.79	38864.60
519.96	38550.96
520.14	38937.15
520.31	38525.22
520.48	39248.44
520.65	38827.15
520.83	39178.23
521.00	39459.09
521.17	39573.78
521.34	39234.40
521.52	39681.44
521.69	39807.83
521.86	39667.40
522.03	39714.21
522.20	39849.96
522.38	39974.01
522.55	40086.36
522.72	40093.38
522.89	40252.53
523.07	40945.33
523.24	39931.88
523.41	40788.52
523.58	40287.64
523.75	40802.56
523.92	40636.38
524.10	40964.06
524.27	40875.12
524.44	40959.38
524.61	40961.72
524.78	40952.35
524.96	41078.74
525.13	41750.48
525.30	41734.09
525.47	41881.55
525.64	41478.97
525.81	42010.28
525.98	41258.96
526.16	41717.71
526.33	41656.85
526.50	41816.01
526.67	41830.05
526.84	42351.99
527.01	42192.84
527.18	42267.73
527.36	42183.48
527.53	42007.94
527.70	42148.37
527.87	42698.39
528.04	42623.50
528.21	42600.09
528.38	42726.48
528.55	42672.65
528.72	42602.43
528.89	42869.25
529.07	42527.53
529.24	42850.53
529.41	42756.91
529.58	42815.42
529.75	42696.05
529.92	43264.80
530.09	43302.25
530.26	43484.81
530.43	43105.65
530.60	42859.89
530.77	43381.83
530.94	43438.00
531.11	43461.41
531.28	43709.50
531.46	43798.44
531.63	43840.57
531.80	43498.86
531.97	44149.53
532.14	44208.04
532.31	43847.60
532.48	44308.68
532.65	44236.12
532.82	44261.87
532.99	45052.97
533.16	44079.31
533.33	44612.95
533.50	44711.25
533.67	44252.51
533.84	43828.87
534.01	44615.29
534.18	44917.22
534.35	45020.20
534.52	44825.94
534.69	45518.74
534.86	45209.79
535.03	44563.80
535.20	44872.75
535.37	44973.39
535.54	45141.91
535.71	45097.44
535.88	45549.17
536.05	45432.14
536.22	45514.06
536.38	45502.35
536.55	45319.79
536.72	45539.80
536.89	45017.86
537.06	45846.41
537.23	45783.22
537.40	45918.97
537.57	45801.94
537.74	45769.18
537.91	45956.42
538.08	45811.31
538.25	45411.07
538.42	45614.70
538.59	46108.55
538.75	46066.42
538.92	46340.27
539.09	46270.05
539.26	46244.30
539.43	46253.67
539.60	46218.56
539.77	45930.67
539.94	46415.16
540.11	46649.22
540.28	46579.00
540.44	46574.32
540.61	46808.37
540.78	46588.36
540.95	46827.10
541.12	46721.77
541.29	46270.05
541.46	46817.74
541.62	46717.09
541.79	46876.25
541.96	46714.75
542.13	47021.36
542.30	46930.08
542.47	47152.43
542.63	47515.22
542.80	47023.70
542.97	47281.16
543.14	47892.04
543.31	47461.38
543.48	47555.00
543.64	47887.36
543.81	47992.68
543.98	47580.75
544.15	47849.91
544.32	47899.06
544.48	48175.25
544.65	47978.64
544.82	47915.45
544.99	47686.07
545.16	48142.48
545.32	48048.86
545.49	48341.42
545.66	48456.11
545.83	48346.11
546.00	48554.41
546.16	48245.46
546.33	47976.30
546.50	48339.08
546.67	48741.66
546.83	48439.73
547.00	48367.17
547.17	48552.07
547.34	48514.62
547.50	48552.07
547.67	49202.74
547.84	48666.76
548.00	48650.38
548.17	49441.48
548.34	49167.63
548.51	49628.72
548.67	49132.53
548.84	48760.38
549.01	48802.51
549.18	48968.69
549.34	48809.53
549.51	49200.40
549.68	49371.26
549.84	49439.14
550.01	49680.21
550.18	48910.17
550.34	49230.83
550.51	49113.80
550.68	49186.36
550.84	49392.33
551.01	49415.73
551.18	49291.68
551.34	49450.84
551.51	49923.63
551.68	49626.38
551.84	49602.97
552.01	49785.54
552.18	49474.24
552.34	49205.08
552.51	50099.17
552.68	49069.33
552.84	49797.24
553.01	49787.88
553.18	49652.12
553.34	49698.94
553.51	49626.38
553.67	49537.44
553.84	49932.99
554.01	49839.37
554.17	49818.30
554.34	49921.29
554.51	50440.89
554.67	50370.67
554.84	50468.97
555.00	50380.03
555.17	50092.15
555.33	49972.78
555.50	49890.86
555.67	49977.46
555.83	50302.79
556.00	50349.60
556.16	50784.94
556.33	50719.41
556.50	50803.67
556.66	50656.21
556.83	50277.05
556.99	50827.07
557.16	50145.98
557.32	50651.53
557.49	50773.24
557.65	50679.62
557.82	50742.81
557.98	50616.43
558.15	50674.94
558.32	51168.79
558.48	50878.57
558.65	50679.62
558.81	50436.20
558.98	51035.38
559.14	50848.14
559.31	50693.66
559.47	50815.37
559.64	51011.98
559.80	51206.24
559.97	51030.70
560.13	50726.43
560.30	50918.35
560.46	50841.12
560.63	50899.63
560.79	50742.81
560.96	51199.22
561.12	51444.98
561.29	51337.31
561.45	51360.72
561.61	51346.67
561.78	51098.58
561.94	51011.98
562.11	51028.36
562.27	51229.65
562.44	51110.28
562.60	51398.16
562.77	51480.08
562.93	51456.68
563.10	51508.17
563.26	51480.08
563.42	51409.87
563.59	50979.21
563.75	51641.58
563.92	51519.87
564.08	51297.52
564.24	51463.70
564.41	51334.97
564.57	51510.51
564.74	51306.88
564.90	51409.87
565.07	51267.09
565.23	51667.33
565.39	51288.16
565.56	51515.19
565.72	51543.28
565.88	51473.06
566.05	51477.74
566.21	51587.75
566.38	51618.17
566.54	51847.55
566.70	51817.12
566.87	51433.27
567.03	51660.30
567.19	51309.22
567.36	51339.65
567.52	51185.18
567.68	51604.13
567.85	51681.37
568.01	52095.64
568.17	51714.14
568.34	51920.10
568.50	51557.32
568.66	51608.81
568.83	51473.06
568.99	51641.58
569.15	51915.42
569.32	51854.57
569.48	51655.62
569.64	52121.39
569.81	51906.06
569.97	51817.12
570.13	51817.12
570.30	51920.10
570.46	51749.24
570.62	51847.55
570.78	51770.31
570.95	51681.37
571.11	52095.64
571.27	52037.13
571.43	51955.21
571.60	52238.42
571.76	51833.50
571.92	51767.97
572.09	51962.23
572.25	52198.63
572.41	51870.95
572.57	51826.48
572.74	51955.21
572.90	52081.60
573.06	52109.69
573.22	52273.52
573.38	51936.49
573.55	52348.42
573.71	52200.97
573.87	52168.20
574.03	51877.97
574.20	51779.67
574.36	51983.30
574.52	52086.28
574.68	52119.05
574.84	52156.50
575.01	51964.57
575.17	52093.30
575.33	51992.66
575.49	51810.10
575.65	52053.51
575.82	52236.08
575.98	51896.70
576.14	52130.75
576.30	52266.50
576.46	52301.61
576.62	52334.38
576.79	52353.10
576.95	52196.29
577.11	52020.75
577.27	52303.95
577.43	52266.50
577.59	52142.45
577.75	52432.68
577.92	51854.57
578.08	52147.14
578.24	52364.81
578.40	52212.67
578.56	52317.99
578.72	52027.77
578.88	52458.43
579.04	52163.52
579.21	52044.15
579.37	52355.44
579.53	52589.50
579.69	52268.84
579.85	52676.10
580.01	52350.76
580.17	52303.95
580.33	52479.49
580.49	52177.56
580.65	52200.97
580.82	52406.94
580.98	52259.48
581.14	52142.45
581.30	51973.94
581.46	52420.98
581.62	52472.47
581.78	52303.95
581.94	52638.65
582.10	52390.55
582.26	52395.23
582.42	52226.71
582.58	52245.44
582.74	52271.18
582.90	52121.39
583.06	52739.29
583.22	52416.30
583.38	52573.11
583.54	52774.40
583.70	52589.50
583.86	52568.43
584.02	52355.44
584.18	52640.99
584.34	52538.01
584.50	52727.59
584.66	52521.62
584.82	52095.64
584.98	52460.77
585.14	52779.08
585.30	52615.24
585.46	52509.92
585.62	52329.70
585.78	52680.78
585.94	52392.89
586.10	52158.84
586.26	52336.72
586.42	52280.55
586.58	52643.33
586.74	52313.31
586.90	52521.62
587.06	52336.72
587.22	52804.83
587.38	52619.92
587.54	52879.72
587.70	52734.61
587.86	52402.25
588.02	52472.47
588.18	52388.21
588.34	52530.98
588.49	52376.51
588.65	52325.02
588.81	52701.84
588.97	53179.31
589.13	52858.66
589.29	52746.31
589.45	52818.87
589.61	53006.11
589.77	52835.25
589.93	52683.12
590.08	52704.18
590.24	52861.00
590.40	52879.72
590.56	53092.71
590.72	52851.64
590.88	52903.13
591.04	52832.91
591.20	53027.18
591.35	53144.20
591.51	53123.14
591.67	52774.40
591.83	52917.17
591.99	52743.97
592.15	53123.14
592.31	52961.64
592.46	52989.73
592.62	53139.52
592.78	53263.57
592.94	53305.70
593.10	53198.04
593.26	52982.71
593.41	53127.82
593.57	52999.09
593.73	52949.94
593.89	52846.96
594.05	52917.17
594.20	53099.73
594.36	53418.05
594.52	52952.28
594.68	53029.52
594.84	53013.13
594.99	53375.92
595.15	53031.86
595.31	53099.73
595.47	52783.76
595.62	52928.87
595.78	52671.42
595.94	53027.18
596.10	52973.34
596.25	53439.11
596.41	53478.90
596.57	53406.34
596.73	53521.03
596.88	53134.84
597.04	53120.80
597.20	53162.93
597.36	53036.54
597.51	52746.31
597.67	53064.63
597.83	52980.37
597.99	53048.24
598.14	53001.43
598.30	53279.96
598.46	52942.92
598.61	53326.77
598.77	53043.56
598.93	53354.85
599.09	53027.18
599.24	53176.97
599.40	53052.92
599.56	53258.89
599.71	53088.03
599.87	53698.91
600.03	53324.43
600.18	53099.73
600.34	53429.75
600.50	53361.87
600.65	52947.60
600.81	53167.61
600.97	53233.14
601.12	53064.63
601.28	52807.17
601.44	52729.93
601.59	53296.34
601.75	53481.24
601.91	53453.15
602.06	53469.54
602.22	53495.28
602.37	53570.18
602.53	53123.14
602.69	53277.61
602.84	52992.07
603.00	53387.62
603.16	53235.48
603.31	53336.13
603.47	53165.27
603.62	53022.50
603.78	53343.15
603.94	53326.77
604.09	53319.74
604.25	53162.93
604.40	53326.77
604.56	53151.23
604.71	53230.80
604.87	53275.27
605.03	53062.29
605.18	52954.62
605.34	52835.25
605.49	52917.17
605.65	53404.00
605.80	53359.53
605.96	53095.05
606.12	53415.71
606.27	53439.11
606.43	52907.81
606.58	52996.75
606.74	52966.32
606.89	53076.33
607.05	53010.79
607.20	52928.87
607.36	52971.00
607.51	53111.44
607.67	53305.70
607.82	53219.10
607.98	53064.63
608.13	53078.67
608.29	52868.02
608.44	53081.01
608.60	52963.98
608.75	52793.12
608.91	52423.32
609.06	52598.86
609.22	52774.40
609.37	52493.54
609.53	52875.04
609.68	52839.93
609.84	52743.97
609.99	53310.38
610.15	52818.87
610.30	52858.66
610.46	52753.33
610.61	52652.69
610.76	52222.03
610.92	52467.79
611.07	52617.58
611.23	52711.20
611.38	52568.43
611.54	52750.99
611.69	52605.88
611.84	52685.46
612.00	52938.24
612.15	52835.25
612.31	52886.74
612.46	52371.83
612.62	52849.30
612.77	52222.03
612.92	52458.43
613.08	52287.57
613.23	52622.26
613.39	52514.60
613.54	52479.49
613.69	52701.84
613.85	52781.42
614.00	52610.56
614.15	53017.82
614.31	52605.88
614.46	52577.79
614.62	52477.15
614.77	52430.34
614.92	52498.22
615.08	52530.98
615.23	52229.05
615.38	52687.80
615.54	52610.56
615.69	52486.51
615.84	52179.90
616.00	52718.23
616.15	52615.24
616.30	52776.74
616.46	52301.61
616.61	52105.01
616.76	52079.26
616.92	51859.25
617.07	51903.72
617.22	52013.73
617.37	52100.32
617.53	52392.89
617.68	52282.89
617.83	52308.63
617.99	52568.43
618.14	52238.42
618.29	52406.94
618.45	51849.89
618.60	51803.08
618.75	51859.25
618.90	51835.84
619.06	52011.38
619.21	51887.34
619.36	52287.57
619.51	51868.61
619.67	51758.61
619.82	51892.02
619.97	52378.85
620.12	51824.14
620.28	51622.86
620.43	52147.14
620.58	52163.52
620.73	51655.62
620.89	51611.15
621.04	51847.55
621.19	51372.42
621.34	51704.77
621.49	51894.36
621.65	52097.98
621.80	52233.74
621.95	52112.03
622.10	51835.84
622.25	51854.57
622.41	51545.62
622.56	51704.77
622.71	51835.84
622.86	51634.56
623.01	51718.82
623.16	51646.26
623.32	51707.12
623.47	51435.61
623.62	51672.01
623.77	51714.14
623.92	51587.75
624.07	51540.94
624.23	51550.30
624.38	51716.48
624.53	51454.34
624.68	51215.60
624.83	51461.36
624.98	51346.67
625.13	51033.04
625.29	50932.40
625.44	51452.00
625.59	51536.26
625.74	51592.43
625.89	51016.66
626.04	51145.39
626.19	51220.28
626.34	51391.14
626.49	51199.22
626.65	51084.53
626.80	51323.27
626.95	50684.30
627.10	50948.78
627.25	50749.84
627.40	51313.90
627.55	50784.94
627.70	51161.77
627.85	50925.38
628.00	51023.68
628.15	50951.12
628.30	50934.74
628.45	50801.33
628.60	50894.95
628.76	51112.62
628.91	50815.37
629.06	50827.07
629.21	50871.54
629.36	50550.89
629.51	50721.75
629.66	50642.17
629.81	50323.86
629.96	50417.48
630.11	50885.59
630.26	50810.69
630.41	50438.54
630.56	50368.33
630.71	50548.55
630.86	50255.98
631.01	50237.26
631.16	50094.49
631.31	50288.75
631.46	50035.97
631.61	50017.25
631.76	50492.38
631.91	50127.25
632.06	50251.30
632.21	50422.16
632.36	50410.46
632.51	50436.20
632.66	50122.57
632.81	50024.27
632.96	50103.85
633.10	50248.96
633.25	50089.80
633.40	49825.32
633.55	50005.55
633.70	50164.70
633.85	50038.31
634.00	50281.73
634.15	50475.99
634.30	50178.75
634.45	50185.77
634.60	50127.25
634.75	50068.74
634.90	49698.94
635.05	49811.28
635.19	49593.61
635.34	50330.88
635.49	49837.03
635.64	49832.35
635.79	49947.03
635.94	49815.96
636.09	50136.62
636.24	49918.95
636.39	49399.35
636.53	49820.64
636.68	49986.82
636.83	49961.08
636.98	50174.06
637.13	49476.58
637.28	49668.51
637.43	49649.78
637.57	49970.44
637.72	49825.32
637.87	49645.10
638.02	49886.18
638.17	50160.02
638.32	49553.82
638.46	49628.72
638.61	49289.34
638.76	49474.24
638.91	49385.30
639.06	49195.72
639.20	49160.61
639.35	49389.98
639.50	48699.53
639.65	49303.38
639.80	49535.10
639.94	49186.36
640.09	49125.50
640.24	48687.82
640.39	49088.06
640.54	49340.83
640.68	49289.34
640.83	49535.10
640.98	49036.56
641.13	49120.82
641.27	49169.97
641.42	48921.88
641.57	48924.22
641.72	48603.56
641.86	48718.25
642.01	48453.77
642.16	48594.20
642.31	48814.21
642.45	48760.38
642.60	48601.22
642.75	48928.90
642.90	48907.83
643.04	48748.68
643.19	48767.40
643.34	48680.80
643.48	48526.33
643.63	48694.85
643.78	48456.11
643.93	48638.67
644.07	48402.28
644.22	48664.42
644.37	48105.03
644.51	48575.48
644.66	48533.35
644.81	48435.05
644.95	48481.86
645.10	48371.85
645.25	48268.87
645.39	48200.99
645.54	48575.48
645.69	48320.36
645.83	48535.69
645.98	48751.02
646.13	48018.43
646.27	48102.69
646.42	47732.89
646.57	48397.60
646.71	48112.05
646.86	48350.79
647.00	48416.32
647.15	48388.24
647.30	48437.39
647.44	48170.57
647.59	48278.23
647.74	47988.00
647.88	47870.98
648.03	47847.57
648.17	48119.07
648.32	47894.38
648.47	47913.11
648.61	47765.65
648.76	48336.74
648.90	48114.39
649.05	47950.56
649.20	48121.41
649.34	48179.93
649.49	47423.93
649.63	47985.66
649.78	47938.85
649.92	47526.92
650.07	47875.66
650.21	47433.30
650.36	47360.74
650.51	47330.31
650.65	47711.82
650.80	47510.53
650.94	47274.14
651.09	47208.61
651.23	47150.09
651.38	47283.50
651.52	47435.64
651.67	47700.12
651.81	47545.64
651.96	47765.65
652.10	47662.67
652.25	47110.30
652.39	47693.10
652.54	46953.49
652.68	47363.08
652.83	47430.96
652.97	47379.46
653.12	46850.50
653.26	47306.91
653.41	47246.05
653.55	47606.50
653.70	47744.59
653.84	47409.89
653.99	47320.95
654.13	47569.05
654.27	47016.68
654.42	47302.23
654.56	47157.11
654.71	47105.62
654.85	46412.82
655.00	46920.72
655.14	46829.44
655.29	46342.61
655.43	46588.36
655.57	46218.56
655.72	46415.16
655.86	47161.79
656.01	46490.06
656.15	46766.24
656.30	46726.46
656.44	46705.39
656.58	46267.71
656.73	46527.51
656.87	46281.75
657.01	46237.28
657.16	46445.59
657.30	46321.54
657.45	46176.43
657.59	46354.31
657.73	46239.62
657.88	46213.88
658.02	46209.20
658.16	46508.79
658.31	46539.21
658.45	46487.72
658.60	46176.43
658.74	46024.29
658.88	46485.38
659.03	45757.47
659.17	45755.13
659.31	45815.99
659.46	45418.10
659.60	45474.27
659.74	45694.28
659.89	45612.36
660.03	45411.07
660.17	45385.33
660.32	45406.39
660.46	45935.35
660.60	45076.38
660.74	45544.48
660.89	45574.91
661.03	45315.11
661.17	45446.18
661.32	44999.14
661.46	44999.14
661.60	44678.49
661.74	45125.53
661.89	45034.25
662.03	44549.76
662.17	44715.93
662.31	44568.48
662.46	45223.83
662.60	44973.39
662.74	44350.81
662.88	45031.91
663.03	44687.85
663.17	45312.77
663.31	44788.49
663.45	44584.86
663.60	44414.01
663.74	44175.27
663.88	44046.54
664.02	44231.44
664.17	44275.91
664.31	44154.21
664.45	44006.75
664.59	44357.83
664.73	44058.24
664.88	44458.48
665.02	43880.36
665.16	44105.06
665.30	44306.34
665.44	44161.23
665.59	43861.64
665.73	43789.08
665.87	43491.83
666.01	43887.39
666.15	43187.56
666.29	43496.52
666.44	43445.02
666.58	42981.60
666.72	43332.68
666.86	43393.53
667.00	43292.89
667.14	42749.88
667.28	43318.64
667.43	42642.22
667.57	43234.38
667.71	42990.96
667.85	43143.09
667.99	43480.13
668.13	42923.08
668.27	42504.13
668.41	42560.30
668.56	41930.70
668.70	42569.66
668.84	42564.98
668.98	42190.50
669.12	41951.76
669.26	42485.40
669.40	41935.38
669.54	42148.37
669.68	42445.62
669.82	41729.41
669.96	42089.85
670.10	42478.38
670.25	42218.58
670.39	41914.31
670.53	42075.81
670.67	41783.24
670.81	41741.11
670.95	41584.30
671.09	41038.95
671.23	40493.61
671.37	41476.63
671.51	40732.34
671.65	41134.92
671.79	40830.65
671.93	41258.96
672.07	41481.31
672.21	41050.66
672.35	40673.83
672.49	40989.80
672.63	40879.80
672.77	40722.98
672.91	40664.47
673.05	40842.35
673.19	40643.40
673.33	40524.04
673.47	40608.29
673.61	40493.61
673.75	40477.22
673.89	40044.23
674.03	40165.93
674.17	40329.77
674.31	40151.89
674.45	40025.50
674.59	39585.48
674.73	40081.67
674.87	39714.21
675.01	39426.32
675.15	39744.64
675.29	39826.56
675.43	39400.58
675.56	39077.58
675.70	39461.43
675.84	38962.90
675.98	37848.80
676.12	38932.47
676.26	39220.36
676.40	38780.34
676.54	38785.02
676.68	38663.31
676.82	38139.03
676.96	38373.08
677.10	38361.38
677.23	38096.90
677.37	38340.32
677.51	38403.51
677.65	38307.55
677.79	37525.81
677.93	37846.46
678.07	37479.00
678.21	37102.17
678.34	36697.26
678.48	37064.72
678.62	36671.51
678.76	36725.35
678.90	36950.04
679.04	36608.32
679.18	36973.44
679.31	36315.75
679.45	36613.00
679.59	36474.91
679.73	36561.51
679.87	36559.17
680.00	36891.52
680.14	36158.94
680.28	35875.73
680.42	35648.70
680.56	35690.83
680.70	35534.01
680.83	35555.08
680.97	35157.19
681.11	35566.78
681.25	34899.73
681.39	35674.45
681.52	34843.56
681.66	34923.13
681.80	34799.08
681.94	34927.81
682.07	35372.52
682.21	34239.70
682.35	34506.52
682.49	34543.97
682.62	34284.17
682.76	34181.18
682.90	33982.24
683.04	33965.85
683.17	33837.12
683.31	33638.18
683.45	33965.85
683.59	33315.19
683.72	32662.18
683.86	33350.29
684.00	32788.56
684.13	33053.05
684.27	33034.32
684.41	33504.77
684.55	33090.49
684.68	33097.52
684.82	32966.45
684.96	32589.62
685.09	32629.41
685.23	32304.07
685.37	32084.06
685.50	31782.13
685.64	32271.31
685.78	31784.48
685.91	31702.56
686.05	31924.91
686.19	31512.97
686.32	31435.74
686.46	30909.11
686.60	31211.04
686.73	31648.72
686.87	31299.98
687.01	31276.58
687.14	30895.07
687.28	31218.07
687.42	31189.98
687.55	31049.55
687.69	31063.59
687.82	30361.43
687.96	30286.53
688.10	30331.00
688.23	30075.88
688.37	29848.85
688.50	29905.02
688.64	29947.15
688.78	29486.07
688.91	29570.33
689.05	29830.13
689.18	29687.36
689.32	29263.72
689.46	29579.69
689.59	29605.44
689.73	29563.31
689.86	29209.89
690.00	29092.86
690.13	29308.19
690.27	28943.06
690.41	28823.70
690.54	28570.92
690.68	28306.44
690.81	28643.48
690.95	28570.92
691.08	28154.30
691.22	28617.73
691.35	28091.11
691.49	28107.49
691.62	28025.57
691.76	27850.03
691.89	27725.99
692.03	27243.84
692.16	27618.32
692.30	27948.34
692.43	27421.72
692.57	27204.05
692.70	27309.37
692.84	26932.54
692.97	26754.66
693.11	26747.64
693.24	26298.26
693.38	26199.96
693.51	26377.84
693.65	25914.41
693.78	26167.19
693.92	26080.59
694.05	26148.46
694.19	25795.04
694.32	25949.52
694.45	26005.69
694.59	25668.66
694.72	25841.85
694.86	25696.74
694.99	25584.40
695.13	25500.14
695.26	25645.25
695.39	25017.99
695.53	25036.71
695.66	24533.50
695.80	24503.07
695.93	24734.78
696.07	24357.96
696.20	24074.75
696.33	24072.41
696.47	23651.11
696.60	24236.25
696.73	23910.91
696.87	24217.52
697.00	23779.84
697.14	23742.39
697.27	23513.02
697.40	23796.23
697.54	23924.96
697.67	23379.61
697.80	23718.99
697.94	23461.53
698.07	23199.39
698.21	22455.10
698.34	22628.30
698.47	22604.89
698.61	22335.73
698.74	21961.25
698.87	22530.00
699.01	22525.32
699.14	22286.58
699.27	22366.16
699.40	22356.80
699.54	21575.06
699.67	22001.04
699.80	21982.31
699.94	21818.47
700.07	22050.19
700.20	21652.30
700.34	21291.85
700.47	21797.41
700.60	21607.83
700.73	21226.32
700.87	21008.65
701.00	20865.88
701.13	21048.44
701.26	20954.82
701.40	20837.79
701.53	20596.71
701.66	20475.01
701.79	20414.15
701.93	20240.95
702.06	20215.21
702.19	20173.08
702.32	20451.60
702.46	20339.26
702.59	20439.90
702.72	19964.77
702.85	20039.67
702.99	19728.38
703.12	19974.13
703.25	19779.87
703.38	19370.27
703.51	19426.45
703.65	19096.43
703.78	18551.09
703.91	19122.18
704.04	18803.86
704.17	18672.79
704.31	18899.83
704.44	19026.21
704.57	19061.32
704.70	18764.07
704.83	18625.98
704.96	18410.65
705.10	18232.77
705.23	18377.89
>>>>>End Processed Spectral Data<<<<<
