SpectraSuite Data File
++++++++++++++++++++++++++++++++++++
Date: Fri Oct 04 11:39:40 GMT-05:00 2013
User: price-jones
Dark Spectrum Present: No
Reference Spectrum Present: No
Number of Sampled Component Spectra: 1
Spectrometers: USB2+H05261
Integration Time (usec): 100000 (USB2+H05261)
Spectra Averaged: 1 (USB2+H05261)
Boxcar Smoothing: 0 (USB2+H05261)
Correct for Electrical Dark: No (USB2+H05261)
Strobe/Lamp Enabled: No (USB2+H05261)
Correct for Detector Non-linearity: No (USB2+H05261)
Correct for Stray Light: No (USB2+H05261)
Number of Pixels in Processed Spectrum: 2048
>>>>>Begin Processed Spectral Data<<<<<
365.73	138.09
365.92	138.09
366.12	138.09
366.32	0.00
366.52	0.00
366.72	51.49
366.91	0.00
367.11	0.00
367.31	0.00
367.51	0.00
367.70	0.00
367.90	0.00
368.10	0.00
368.30	0.00
368.49	0.00
368.69	21.06
368.89	7.02
369.09	65.54
369.28	37.45
369.48	0.00
369.68	0.00
369.87	0.00
370.07	0.00
370.27	0.00
370.47	95.96
370.66	250.44
370.86	344.06
371.06	344.06
371.25	386.19
371.45	308.95
371.65	283.20
371.84	411.93
372.04	369.80
372.24	383.85
372.44	365.12
372.63	409.59
372.83	430.66
373.03	409.59
373.22	416.62
373.42	463.43
373.62	442.36
373.81	461.09
374.01	409.59
374.21	442.36
374.40	465.77
374.60	498.53
374.79	444.70
374.99	514.92
375.19	524.28
375.38	540.66
375.58	430.66
375.78	470.45
375.97	484.49
376.17	475.13
376.37	454.06
376.56	559.39
376.76	510.24
376.95	491.51
377.15	589.82
377.35	521.94
377.54	547.69
377.74	557.05
377.93	543.00
378.13	514.92
378.33	571.09
378.52	587.47
378.72	601.52
378.91	493.85
379.11	535.98
379.31	540.66
379.50	505.56
379.70	585.13
379.89	613.22
380.09	535.98
380.28	538.32
380.48	620.24
380.68	613.22
380.87	561.73
381.07	538.32
381.26	662.37
381.46	603.86
381.65	716.20
381.85	706.84
382.04	617.90
382.24	622.58
382.43	690.46
382.63	608.54
382.83	617.90
383.02	685.78
383.22	624.92
383.41	655.35
383.61	631.94
383.80	671.73
384.00	662.37
384.19	657.69
384.39	697.48
384.58	617.90
384.78	676.41
384.97	685.78
385.17	650.67
385.36	713.86
385.56	671.73
385.75	730.25
385.95	615.56
386.14	657.69
386.34	711.52
386.53	709.18
386.72	739.61
386.92	727.91
387.11	725.57
387.31	777.06
387.50	748.97
387.70	667.05
387.89	692.80
388.09	741.95
388.28	713.86
388.48	779.40
388.67	816.85
388.86	849.61
389.06	772.38
389.25	882.38
389.45	795.78
389.64	793.44
389.84	931.53
390.03	821.53
390.22	854.30
390.42	791.10
390.61	884.72
390.81	784.08
391.00	889.40
391.19	870.68
391.39	816.85
391.58	903.45
391.78	870.68
391.97	868.34
392.16	910.47
392.36	980.68
392.55	898.77
392.75	992.39
392.94	922.17
393.13	938.55
393.33	910.47
393.52	976.00
393.71	976.00
393.91	1008.77
394.10	943.24
394.29	952.60
394.49	990.05
394.68	1001.75
394.88	1011.11
395.07	943.24
395.26	1032.18
395.46	1043.88
395.65	1146.86
395.84	1093.03
396.04	1170.27
396.23	1057.92
396.42	1139.84
396.62	1121.12
396.81	1118.78
397.00	1121.12
397.19	1046.22
397.39	1200.69
397.58	1104.73
397.77	1132.82
397.97	1238.14
398.16	1118.78
398.35	1137.50
398.55	1177.29
398.74	1254.53
398.93	1327.08
399.12	1219.42
399.32	1107.07
399.51	1158.57
399.70	1270.91
399.90	1306.02
400.09	1270.91
400.28	1306.02
400.47	1338.79
400.67	1380.92
400.86	1350.49
401.05	1336.45
401.24	1275.59
401.44	1448.79
401.63	1380.92
401.82	1411.34
402.01	1462.83
402.21	1399.64
402.40	1483.90
402.59	1444.11
402.78	1373.89
402.97	1584.54
403.17	1479.22
403.36	1453.47
403.55	1582.20
403.74	1570.50
403.93	1537.73
404.13	1638.38
404.32	1540.07
404.51	1549.43
404.70	1589.22
404.89	1577.52
405.09	1621.99
405.28	1650.08
405.47	1624.33
405.66	1671.14
405.85	1668.80
406.05	1689.87
406.24	1783.49
406.43	1748.38
406.62	1872.43
406.81	1767.10
407.00	1776.47
407.20	1767.10
407.39	1858.39
407.58	1907.54
407.77	1856.04
407.96	1933.28
408.15	1907.54
408.34	1811.57
408.54	1994.14
408.73	1980.09
408.92	1881.79
409.11	1973.07
409.30	1937.96
409.49	2052.65
409.68	2036.27
409.87	2064.35
410.07	2052.65
410.26	2125.21
410.45	2106.48
410.64	2125.21
410.83	2265.64
411.02	2083.08
411.21	2197.76
411.40	2256.28
411.59	2256.28
411.78	2277.34
411.98	2305.43
412.17	2267.98
412.36	2141.59
412.55	2385.01
412.74	2394.37
412.93	2504.37
413.12	2417.77
413.31	2345.22
413.50	2469.27
413.69	2457.56
413.88	2614.38
414.07	2523.10
414.26	2438.84
414.45	2567.57
414.64	2635.44
414.83	2803.96
415.02	2782.90
415.22	2675.23
415.41	2846.09
415.60	2871.84
415.79	2815.66
415.98	2860.13
416.17	2801.62
416.36	2986.52
416.55	2939.71
416.74	3030.99
416.93	2857.79
417.12	2904.60
417.31	3070.78
417.50	3084.83
417.69	3143.34
417.88	3176.11
418.07	3197.17
418.26	3295.47
418.45	3241.64
418.64	3328.24
418.83	3300.16
419.02	3346.97
419.21	3435.91
419.39	3332.92
419.58	3286.11
419.77	3293.13
419.96	3353.99
420.15	3431.23
420.34	3389.10
420.53	3368.03
420.72	3510.80
420.91	3424.20
421.10	3588.04
421.29	3592.72
421.48	3442.93
421.67	3611.45
421.86	3646.55
422.05	3667.62
422.24	3538.89
422.43	3562.30
422.61	3686.34
422.80	3819.75
422.99	3686.34
423.18	3644.21
423.37	3590.38
423.56	3698.05
423.75	3627.83
423.94	3632.51
424.13	3520.17
424.32	3646.55
424.50	3786.99
424.69	3765.92
424.88	3838.48
425.07	3702.73
425.26	3805.71
425.45	3744.86
425.64	3796.35
425.83	3735.50
426.01	3765.92
426.20	3751.88
426.39	3740.18
426.58	3726.13
426.77	3782.31
426.96	3904.01
427.15	3808.05
427.33	3936.78
427.52	3901.67
427.71	3934.44
427.90	3992.95
428.09	3950.82
428.28	3948.48
428.46	3950.82
428.65	3899.33
428.84	4142.75
429.03	4091.26
429.22	3990.61
429.40	4142.75
429.59	4170.83
429.78	4093.60
429.97	3857.20
430.16	4060.83
430.34	4280.84
430.53	4229.35
430.72	4325.31
430.91	4329.99
431.10	4145.09
431.28	4304.25
431.47	4383.82
431.66	4465.74
431.85	4280.84
432.03	4468.08
432.22	4472.76
432.41	4393.19
432.60	4496.17
432.79	4337.01
432.97	4421.27
433.16	4454.04
433.35	4631.92
433.54	4643.62
433.72	4538.30
433.91	4599.15
434.10	4540.64
434.28	4592.13
434.47	4739.58
434.66	4580.43
434.85	4739.58
435.03	4800.44
435.22	5057.90
435.41	5151.52
435.59	5233.44
435.78	5083.64
435.97	4997.04
436.16	4786.40
436.34	4912.78
436.53	4798.10
436.72	5039.17
436.90	4786.40
437.09	4978.32
437.28	4877.68
437.46	4896.40
437.65	5004.07
437.84	5107.05
438.02	5053.22
438.21	4978.32
438.40	5151.52
438.58	5268.55
438.77	5364.51
438.96	5188.97
439.14	5221.74
439.33	5390.25
439.52	5453.45
439.70	5530.69
439.89	5509.62
440.08	5572.82
440.26	5383.23
440.45	5577.50
440.63	5736.65
440.82	5640.69
441.01	5746.02
441.19	5753.04
441.38	5923.90
441.57	5797.51
441.75	5818.57
441.94	5724.95
442.12	5959.00
442.31	5984.75
442.50	5930.92
442.68	6003.47
442.87	6113.48
443.05	6139.23
443.24	6289.02
443.43	5937.94
443.61	6160.29
443.80	6375.62
443.98	6127.52
444.17	6045.60
444.35	6040.92
444.54	6469.24
444.73	6277.32
444.91	6230.51
445.10	6160.29
445.28	6225.82
445.47	6190.72
445.65	6155.61
445.84	6279.66
446.02	6424.77
446.21	6314.77
446.39	6221.14
446.58	6394.34
446.77	6354.55
446.95	6363.92
447.14	6420.09
447.32	6516.05
447.51	6462.22
447.69	6347.53
447.88	6499.67
448.06	6305.40
448.25	6420.09
448.43	6319.45
448.62	6312.42
448.80	6604.99
448.99	6633.08
449.17	6415.41
449.36	6420.09
449.54	6642.44
449.73	6768.83
449.91	6637.76
450.10	6764.15
450.28	6813.30
450.46	6654.14
450.65	6553.50
450.83	6789.89
451.02	6654.14
451.20	6967.77
451.39	7033.31
451.57	6834.36
451.76	6691.59
451.94	6733.72
452.13	6902.24
452.31	6979.48
452.49	6743.08
452.68	7105.87
452.86	6923.30
453.05	7021.61
453.23	7080.12
453.42	7075.44
453.60	6984.16
453.78	7183.10
453.97	6958.41
454.15	7124.59
454.34	7171.40
454.52	7115.23
454.70	7297.79
454.89	7283.75
455.07	7321.20
455.26	7274.38
455.44	7485.03
455.62	7318.86
455.81	7335.24
455.99	7339.92
456.17	7382.05
456.36	7536.52
456.54	7557.59
456.73	7543.55
456.91	7829.09
457.09	7733.13
457.28	7838.45
457.46	7744.83
457.64	7758.88
457.83	7742.49
458.01	7719.09
458.19	7899.31
458.38	7789.30
458.56	7988.25
458.74	7953.14
458.93	8053.78
459.11	7983.57
459.29	8086.55
459.48	8009.31
459.66	7988.25
459.84	8079.53
460.03	8269.11
460.21	8051.44
460.39	8243.37
460.57	7981.23
460.76	8149.75
460.94	8072.51
461.12	8182.51
461.31	8294.86
461.49	8224.64
461.67	8414.23
461.85	8425.93
462.04	8217.62
462.22	9057.87
462.40	8435.29
462.59	8596.79
462.77	8608.49
462.95	8418.91
463.13	8540.61
463.32	8582.74
463.50	8889.35
463.68	8709.13
463.86	8737.22
464.05	8564.02
464.23	8655.30
464.41	8723.18
464.59	8554.66
464.78	8769.99
464.96	8587.43
465.14	8814.46
465.32	9004.04
465.50	8940.85
465.69	8910.42
465.87	8868.29
466.05	8919.78
466.23	8821.48
466.41	8990.00
466.60	9296.61
466.78	9090.64
466.96	8945.53
467.14	9114.05
467.32	8954.89
467.51	9198.31
467.69	9011.06
467.87	9081.28
468.05	9390.23
468.23	9107.02
468.41	8971.27
468.60	9118.73
468.78	9254.48
468.96	9282.56
469.14	9334.06
469.32	9509.60
469.50	9200.65
469.69	9626.62
469.87	9643.01
470.05	9753.01
470.23	9434.70
470.41	9504.92
470.59	9724.93
470.77	9699.18
470.95	9713.22
471.14	9832.59
471.32	9638.33
471.50	9928.55
471.68	10092.39
471.86	10029.20
472.04	9980.04
472.22	10120.48
472.40	10008.13
472.58	10284.31
472.77	10244.52
472.95	10186.01
473.13	10583.90
473.31	10265.59
473.49	10274.95
473.67	10258.57
473.85	10338.15
474.03	10654.12
474.21	10377.94
474.39	10562.84
474.57	10523.05
474.75	10736.04
474.93	10946.69
475.12	10881.15
475.30	11096.48
475.48	10925.62
475.66	11122.23
475.84	11171.38
476.02	11077.76
476.20	11262.66
476.38	11487.35
476.56	11613.74
476.74	11702.68
476.92	11496.71
477.10	11632.46
477.28	11700.34
477.46	11658.21
477.64	11681.61
477.82	12102.91
478.00	11901.62
478.18	12318.24
478.36	12400.16
478.54	12414.20
478.72	12510.16
478.90	12617.83
479.08	12685.70
479.26	12718.47
479.44	12931.46
479.62	12912.74
479.80	13125.72
479.98	13329.35
480.16	13118.70
480.34	13294.24
480.52	13406.59
480.70	13661.71
480.88	13383.18
481.06	13642.98
481.24	13540.00
481.41	13837.25
481.59	14092.37
481.77	14029.17
481.95	14249.18
482.13	14478.55
482.31	14061.94
482.49	14569.83
482.67	14754.74
482.85	14801.55
483.03	15147.95
483.21	15110.50
483.39	15297.74
483.57	14909.21
483.74	15351.57
483.92	15428.81
484.10	15353.91
484.28	15873.51
484.46	16168.42
484.64	16145.02
484.82	15721.38
485.00	15939.05
485.18	16482.05
485.35	16842.50
485.53	16753.55
485.71	16610.78
485.89	16805.05
486.07	17186.55
486.25	17043.78
486.43	17170.17
486.61	17287.20
486.78	17420.61
486.96	17605.51
487.14	17921.48
487.32	17851.27
487.50	18045.53
487.68	17958.93
487.85	18312.35
488.03	18647.05
488.21	18691.52
488.39	18750.03
488.57	18721.95
488.75	18845.99
488.92	19126.86
489.10	19283.67
489.28	19470.92
489.46	19611.35
489.64	19559.86
489.81	19941.36
489.99	19913.28
490.17	19599.65
490.35	20257.34
490.53	20018.60
490.70	20339.26
490.88	20652.89
491.06	20812.04
491.24	20772.25
491.41	20966.52
491.59	21062.48
491.77	21266.11
491.95	21083.55
492.13	21511.86
492.30	21589.10
492.48	21511.86
492.66	21525.91
492.84	21565.70
493.01	21949.54
493.19	21970.61
493.37	22298.28
493.54	22370.84
493.72	22314.67
493.90	22532.34
494.08	22499.57
494.25	23150.24
494.43	23077.68
494.61	23557.49
494.79	23660.48
494.96	23112.79
495.14	23463.87
495.32	23634.73
495.49	23962.40
495.67	23885.17
495.85	24437.53
496.02	24067.73
496.20	24222.20
496.38	24217.52
496.55	24552.22
496.73	25085.86
496.91	24533.50
497.09	25008.62
497.26	25132.67
497.44	25249.70
497.62	25029.69
497.79	25481.41
497.97	25619.50
498.14	25750.57
498.32	25984.63
498.50	25841.85
498.67	26183.57
498.85	26033.78
499.03	25954.20
499.20	26106.34
499.38	26518.27
499.56	26792.11
499.73	26911.48
499.91	26977.01
500.08	27098.72
500.26	26700.83
500.44	26962.97
500.61	27260.22
500.79	27288.31
500.97	27468.53
501.14	27562.15
501.32	27395.97
501.49	27395.97
501.67	27297.67
501.84	27648.75
502.02	27487.25
502.20	27850.03
502.37	28233.88
502.55	27981.10
502.72	28151.96
502.90	28250.27
503.07	28444.53
503.25	28355.59
503.43	28299.42
503.60	28507.72
503.78	28549.85
503.95	28690.29
504.13	29001.58
504.30	28746.46
504.48	28847.10
504.65	29090.52
504.83	29221.59
505.01	29640.54
505.18	29890.98
505.36	29930.77
505.53	29584.37
505.71	29797.36
505.88	29825.45
506.06	29706.08
506.23	30223.34
506.41	30026.73
506.58	29881.62
506.76	29867.58
506.93	30546.33
507.11	30188.23
507.28	30082.91
507.46	30487.82
507.63	30670.38
507.81	31136.15
507.98	30635.27
508.16	30785.07
508.33	30939.54
508.50	31028.48
508.68	31299.98
508.85	31110.40
509.03	31323.39
509.20	31271.90
509.38	31885.12
509.55	31845.33
509.73	31618.30
509.90	31655.75
510.08	31597.23
510.25	32158.96
510.42	31824.26
510.60	32526.42
510.77	32292.37
510.95	32121.51
511.12	32144.92
511.30	32163.64
511.47	32540.47
511.64	32460.89
511.82	33062.41
511.99	32790.91
512.17	33106.88
512.34	33184.12
512.51	33151.35
512.69	33259.01
512.86	33308.16
513.04	34082.88
513.21	33404.13
513.38	33415.83
513.56	33275.40
513.73	33123.26
513.90	33567.96
514.08	33362.00
514.25	33619.46
514.43	34115.65
514.60	34445.66
514.77	34326.30
514.95	34251.40
515.12	34171.82
515.29	34017.35
515.47	34354.38
515.64	34522.90
515.81	34150.76
515.99	34834.19
516.16	34712.49
516.33	34595.46
516.51	34902.07
516.68	35098.67
516.85	34487.79
517.03	35344.43
517.20	35098.67
517.37	35431.03
517.54	35241.45
517.72	35737.64
517.89	35192.30
518.06	35330.39
518.24	35337.41
518.41	35821.90
518.58	35910.84
518.75	35714.23
518.93	36077.02
519.10	35732.96
519.27	36299.37
519.45	36222.13
519.62	35983.40
519.79	36156.60
519.96	36584.91
520.14	36671.51
520.31	36142.55
520.48	36968.76
520.65	36397.67
520.83	36875.14
521.00	36561.51
521.17	36879.82
521.34	36856.42
521.52	37163.03
521.69	37076.43
521.86	37500.06
522.03	37652.20
522.20	37460.27
522.38	37076.43
522.55	37261.33
522.72	37699.01
522.89	37495.38
523.07	37834.76
523.24	37720.07
523.41	38328.61
523.58	37659.22
523.75	38314.57
523.92	37858.17
524.10	38115.62
524.27	37935.40
524.44	38073.49
524.61	38450.32
524.78	38471.39
524.96	38494.79
525.13	38593.09
525.30	38251.38
525.47	38553.30
525.64	38675.01
525.81	38880.98
525.98	39033.11
526.16	38953.54
526.33	38775.66
526.50	39262.49
526.67	38958.22
526.84	38827.15
527.01	39023.75
527.18	38995.67
527.36	39178.23
527.53	39185.25
527.70	39241.42
527.87	39913.16
528.04	39550.37
528.21	40004.44
528.38	39531.65
528.55	39543.35
528.72	40069.97
528.89	39782.09
529.07	39363.13
529.24	39922.52
529.41	40191.68
529.58	39517.60
529.75	40030.18
529.92	40091.04
530.09	40158.91
530.26	40105.08
530.43	40559.14
530.60	39959.97
530.77	40664.47
530.94	40837.67
531.11	40392.97
531.28	40612.98
531.46	40809.58
531.63	40802.56
531.80	40582.55
531.97	40861.07
532.14	40978.10
532.31	40973.42
532.48	41172.36
532.65	40577.87
532.82	40725.32
532.99	41397.06
533.16	41118.53
533.33	40952.35
533.50	41729.41
533.67	41619.41
533.84	41270.67
534.01	41509.40
534.18	41146.62
534.35	41390.03
534.52	41390.03
534.69	41659.20
534.86	41752.82
535.03	41581.96
535.20	41874.52
535.37	41766.86
535.54	41661.54
535.71	41808.99
535.88	41764.52
536.05	41563.23
536.22	42232.63
536.38	42171.77
536.55	41766.86
536.72	41823.03
536.89	41961.12
537.06	41886.23
537.23	42131.98
537.40	42234.97
537.57	41958.78
537.74	42426.89
537.91	42789.67
538.08	42876.27
538.25	42831.80
538.42	42777.97
538.59	43035.43
538.75	42579.03
538.92	42600.09
539.09	43084.58
539.26	42946.49
539.43	43438.00
539.60	43103.31
539.77	42607.11
539.94	43349.06
540.11	43150.12
540.28	43456.73
540.44	43075.22
540.61	43122.03
540.78	43072.88
540.95	43648.65
541.12	43522.26
541.29	43620.56
541.46	43938.88
541.62	43828.87
541.79	43840.57
541.96	43793.76
542.13	43634.61
542.30	43622.90
542.47	43941.22
542.63	44105.06
542.80	44296.98
542.97	44493.58
543.14	44509.97
543.31	44182.29
543.48	44493.58
543.64	45111.49
543.81	44619.97
543.98	44919.56
544.15	44512.31
544.32	45137.23
544.48	44884.45
544.65	44451.45
544.82	45027.23
544.99	44275.91
545.16	45071.70
545.32	44535.71
545.49	45521.08
545.66	45855.78
545.83	46199.83
546.00	46370.69
546.16	45666.19
546.33	44891.48
546.50	44348.47
546.67	44842.32
546.83	44584.86
547.00	45301.07
547.17	45050.63
547.34	45134.89
547.50	44933.60
547.67	45497.67
547.84	44816.58
548.00	45591.30
548.17	45467.25
548.34	45277.66
548.51	45694.28
548.67	45460.23
548.84	45385.33
549.01	45738.75
549.18	45357.24
549.34	45801.94
549.51	45485.97
549.68	46043.02
549.84	45600.66
550.01	45670.87
550.18	45380.65
550.34	46120.26
550.51	45500.01
550.68	45858.12
550.84	45790.24
551.01	46003.23
551.18	45659.17
551.34	45591.30
551.51	46277.07
551.68	45874.50
551.84	46014.93
552.01	45680.24
552.18	45872.16
552.34	45853.44
552.51	46380.06
552.68	45998.55
552.84	46099.19
553.01	46146.00
553.18	45947.06
553.34	46239.62
553.51	46305.16
553.67	46298.14
553.84	46703.05
554.01	46349.63
554.17	46389.42
554.34	46003.23
554.51	46227.92
554.67	46597.73
554.84	46667.94
555.00	46089.83
555.17	46204.52
555.33	46483.04
555.50	46806.03
555.67	46305.16
555.83	46368.35
556.00	46312.18
556.16	46831.78
556.33	46422.19
556.50	46305.16
556.66	46871.57
556.83	46740.50
556.99	46934.76
557.16	46962.85
557.32	46902.00
557.49	46850.50
557.65	46768.58
557.82	46639.86
557.98	47152.43
558.15	46752.20
558.32	46876.25
558.48	46520.49
558.65	46955.83
558.81	46934.76
558.98	47058.81
559.14	46873.91
559.31	46459.63
559.47	46756.88
559.64	47119.66
559.80	47028.38
559.97	47353.72
560.13	46899.65
560.30	47012.00
560.46	47028.38
560.63	47285.84
560.79	46707.73
560.96	47023.70
561.12	47187.54
561.29	46848.16
561.45	47267.12
561.61	47253.08
561.78	47234.35
561.94	47625.22
562.11	47627.56
562.27	47243.71
562.44	46782.63
562.60	47201.58
562.77	47271.80
562.93	47503.51
563.10	47393.51
563.26	47522.24
563.42	47620.54
563.59	47260.10
563.75	47400.53
563.92	48093.33
564.08	47334.99
564.24	47512.88
564.41	47152.43
564.57	47124.35
564.74	47377.12
564.90	47842.89
565.07	47271.80
565.23	47517.56
565.39	47384.15
565.56	47632.24
565.72	47201.58
565.88	47386.49
566.05	47133.71
566.21	47716.50
566.38	47075.19
566.54	47639.26
566.70	47592.45
566.87	47805.44
567.03	47632.24
567.19	48109.71
567.36	47779.70
567.52	47643.94
567.68	47454.36
567.85	47562.03
568.01	47578.41
568.17	47217.97
568.34	47510.53
568.50	47849.91
568.66	47632.24
568.83	48334.40
568.99	47363.08
569.15	47318.61
569.32	47449.68
569.48	47576.07
569.64	47838.21
569.81	47903.74
569.97	47461.38
570.13	47962.26
570.30	47461.38
570.46	47639.26
570.62	47653.31
570.78	47665.01
570.95	47606.50
571.11	47777.36
571.27	47241.37
571.43	47636.92
571.60	47901.40
571.76	47643.94
571.92	47592.45
572.09	47826.51
572.25	47938.85
572.41	48079.28
572.57	47929.49
572.74	47721.18
572.90	47358.40
573.06	47812.46
573.22	47980.98
573.38	47889.70
573.55	47796.08
573.71	48296.95
573.87	48116.73
574.03	47608.84
574.20	47859.27
574.36	47863.96
574.52	47428.62
574.68	47608.84
574.84	47723.52
575.01	48037.16
575.17	48292.27
575.33	47641.60
575.49	47821.83
575.65	48299.30
575.82	47913.11
575.98	47662.67
576.14	47721.18
576.30	47594.79
576.46	48025.45
576.62	47819.49
576.79	48161.20
576.95	47587.77
577.11	48271.21
577.27	47875.66
577.43	47665.01
577.59	47821.83
577.75	48025.45
577.92	47903.74
578.08	48109.71
578.24	47854.59
578.40	47700.12
578.56	47826.51
578.72	47744.59
578.88	48240.78
579.04	48179.93
579.21	48053.54
579.37	47990.34
579.53	48011.41
579.69	47758.63
579.85	47718.84
580.01	47927.15
580.17	47667.35
580.33	47562.03
580.49	48006.73
580.65	47920.13
580.82	48168.22
580.98	48046.52
581.14	47908.43
581.30	47964.60
581.46	47721.18
581.62	47606.50
581.78	47728.20
581.94	47922.47
582.10	47789.06
582.26	47938.85
582.42	48004.39
582.58	48320.36
582.74	47943.53
582.90	48388.24
583.06	47819.49
583.22	47962.26
583.38	47772.67
583.54	47955.24
583.70	47639.26
583.86	47894.38
584.02	47973.96
584.18	48245.46
584.34	48495.90
584.50	48133.12
584.66	47728.20
584.82	47386.49
584.98	48069.92
585.14	48034.81
585.30	47660.33
585.46	47796.08
585.62	47665.01
585.78	48163.54
585.94	47760.97
586.10	47934.17
586.26	48044.18
586.42	48217.38
586.58	48095.67
586.74	48217.38
586.90	47442.66
587.06	47847.57
587.22	47653.31
587.38	48114.39
587.54	48247.80
587.70	48343.77
587.86	47999.71
588.02	48488.88
588.18	48119.07
588.34	48465.47
588.49	47901.40
588.65	47599.47
588.81	48032.47
588.97	48037.16
589.13	48102.69
589.29	48116.73
589.45	48156.52
589.61	48116.73
589.77	48289.93
589.93	48500.58
590.08	48383.55
590.24	48341.42
590.40	48421.00
590.56	48402.28
590.72	47718.84
590.88	47770.33
591.04	47810.12
591.20	48299.30
591.35	48353.13
591.51	49041.24
591.67	48793.15
591.83	48383.55
591.99	48437.39
592.15	48413.98
592.31	48701.87
592.46	47971.62
592.62	48009.07
592.78	48112.05
592.94	48247.80
593.10	48027.79
593.26	48161.20
593.41	48493.56
593.57	48692.50
593.73	48327.38
593.89	48287.59
594.05	48240.78
594.20	47973.96
594.36	48109.71
594.52	48399.94
594.68	48083.97
594.84	47866.30
594.99	48364.83
595.15	48390.58
595.31	48413.98
595.47	48531.01
595.62	48325.04
595.78	48191.63
595.94	47861.61
596.10	48140.14
596.25	48325.04
596.41	48100.35
596.57	48488.88
596.73	48591.86
596.88	48088.65
597.04	48315.68
597.20	48655.06
597.36	48292.27
597.51	48484.20
597.67	48348.45
597.83	47892.04
597.99	48245.46
598.14	48245.46
598.30	48046.52
598.46	48179.93
598.61	48413.98
598.77	48149.50
598.93	48371.85
599.09	48158.86
599.24	48568.46
599.40	48439.73
599.56	48521.65
599.71	48163.54
599.87	48512.28
600.03	48285.25
600.18	47868.64
600.34	48238.44
600.50	48346.11
600.65	48343.77
600.81	48388.24
600.97	48374.19
601.12	48509.94
601.28	48559.09
601.44	48353.13
601.59	48378.87
601.75	47988.00
601.91	47938.85
602.06	48268.87
602.22	48364.83
602.37	48126.10
602.53	48336.74
602.69	48062.90
602.84	48034.81
603.00	48280.57
603.16	48236.10
603.31	48512.28
603.47	48374.19
603.62	48032.47
603.78	47840.55
603.94	48140.14
604.09	48184.61
604.25	48016.09
604.40	47938.85
604.56	47880.34
604.71	48444.41
604.87	47728.20
605.03	48006.73
605.18	48371.85
605.34	48570.80
605.49	47569.05
605.65	47950.56
605.80	47714.16
605.96	47845.23
606.12	47789.06
606.27	47955.24
606.43	47966.94
606.58	47966.94
606.74	47906.08
606.89	47753.95
607.05	48203.33
607.20	47758.63
607.36	47856.93
607.51	47482.45
607.67	47599.47
607.82	47744.59
607.98	47819.49
608.13	47232.01
608.29	47817.14
608.44	47793.74
608.60	48034.81
608.75	48079.28
608.91	47580.75
609.06	47657.99
609.22	48030.13
609.37	48025.45
609.53	47590.11
609.68	47547.98
609.84	47672.03
609.99	47751.61
610.15	48067.58
610.30	47973.96
610.46	48004.39
610.61	47995.03
610.76	48322.70
610.92	48650.38
611.07	48226.74
611.23	48212.70
611.38	48535.69
611.54	48098.01
611.69	47964.60
611.84	47646.29
612.00	47533.94
612.15	47473.09
612.31	48046.52
612.46	47147.75
612.62	47700.12
612.77	47445.00
612.92	47730.54
613.08	47334.99
613.23	47377.12
613.39	47208.61
613.54	47342.02
613.69	47358.40
613.85	47122.01
614.00	46904.34
614.15	47215.63
614.31	46941.78
614.46	47187.54
614.62	46864.55
614.77	47201.58
614.92	47419.25
615.08	47262.44
615.23	47119.66
615.38	46672.62
615.54	46663.26
615.69	46820.08
615.84	46719.43
616.00	47232.01
616.15	46504.10
616.30	46541.55
616.46	46632.83
616.61	46829.44
616.76	47105.62
616.92	46953.49
617.07	46492.40
617.22	46693.69
617.37	46639.86
617.53	46494.74
617.68	46344.95
617.83	46213.88
617.99	46595.38
618.14	46316.86
618.29	46548.57
618.45	46412.82
618.60	46504.10
618.75	46344.95
618.90	46424.53
619.06	46674.96
619.21	46382.40
619.36	46742.84
619.51	45989.19
619.67	46143.66
619.82	45965.78
619.97	46202.18
620.12	45827.69
620.28	46007.91
620.43	46333.24
620.58	46288.77
620.73	46073.45
620.89	46160.05
621.04	46103.87
621.19	46153.02
621.34	46220.90
621.49	45516.40
621.65	46047.70
621.80	45780.88
621.95	45560.87
622.10	45797.26
622.25	46012.59
622.41	45668.53
622.56	45567.89
622.71	46005.57
622.86	45642.79
623.01	45844.07
623.16	45551.51
623.32	45893.22
623.47	45675.55
623.62	45394.69
623.77	45448.52
623.92	45595.98
624.07	45595.98
624.23	45427.46
624.38	45270.64
624.53	45010.84
624.68	45338.52
624.83	45652.15
624.98	45329.16
625.13	45233.19
625.29	45549.17
625.44	45310.43
625.59	45097.44
625.74	45078.72
625.89	45099.78
626.04	45059.99
626.19	44818.92
626.34	44830.62
626.49	45081.06
626.65	44942.97
626.80	45015.52
626.95	44797.85
627.10	44671.46
627.25	44830.62
627.40	44877.43
627.55	44636.36
627.70	45619.38
627.85	44488.90
628.00	44566.14
628.15	44381.24
628.30	44495.92
628.45	44858.71
628.60	44315.70
628.76	44566.14
628.91	44821.26
629.06	44357.83
629.21	44732.32
629.36	44502.95
629.51	44289.96
629.66	44566.14
629.81	44208.04
629.96	44357.83
630.11	44247.83
630.26	44105.06
630.41	44156.55
630.56	44327.41
630.71	44622.31
630.86	44669.12
631.01	44502.95
631.16	44720.62
631.31	44292.30
631.46	44023.14
631.61	44390.60
631.76	43969.30
631.91	43861.64
632.06	43538.65
632.21	43548.01
632.36	44212.72
632.51	43641.63
632.66	44004.41
632.81	43531.62
632.96	44030.16
633.10	43676.74
633.25	43803.13
633.40	43491.83
633.55	43566.73
633.70	43576.09
633.85	43538.65
634.00	43452.05
634.15	43440.34
634.30	43161.82
634.45	43054.15
634.60	43622.90
634.75	43548.01
634.90	43594.82
635.05	43484.81
635.19	43206.29
635.34	43606.52
635.49	43201.61
635.64	43459.07
635.79	43487.15
635.94	43159.48
636.09	42717.12
636.24	42990.96
636.39	43173.52
636.53	43000.32
636.68	42838.83
636.83	43285.87
636.98	42848.19
637.13	42642.22
637.28	43412.26
637.43	43225.01
637.57	43199.27
637.72	42948.83
637.87	43026.07
638.02	42810.74
638.17	43044.79
638.32	42639.88
638.46	42602.43
638.61	42471.36
638.76	42206.88
638.91	42534.56
639.06	42721.80
639.20	42445.62
639.35	43150.12
639.50	42614.13
639.65	42843.51
639.80	42658.60
639.94	42462.00
640.09	42323.91
640.24	42457.32
640.39	42267.73
640.54	42518.17
640.68	42408.17
640.83	42333.27
640.98	42422.21
641.13	41713.03
641.27	42581.37
641.42	42096.88
641.57	42265.39
641.72	42101.56
641.86	41755.16
642.01	41914.31
642.16	42057.09
642.31	41846.44
642.45	42251.35
642.60	41944.74
642.75	41668.56
642.90	41574.94
643.04	41626.43
643.19	41886.23
643.34	41792.61
643.48	42251.35
643.63	41989.21
643.78	41713.03
643.93	41862.82
644.07	41766.86
644.22	41792.61
644.37	41378.33
644.51	41710.69
644.66	41581.96
644.81	41368.97
644.95	41642.81
645.10	41408.76
645.25	41787.92
645.39	41422.80
645.54	41872.18
645.69	41275.35
645.83	41455.57
645.98	41340.88
646.13	41591.32
646.27	41495.36
646.42	41212.15
646.57	41258.96
646.71	41560.89
646.86	40978.10
647.00	40999.16
647.15	41200.45
647.30	40715.96
647.44	41008.53
647.59	41071.72
647.74	40830.65
647.88	41542.17
648.03	40935.97
648.17	40938.31
648.32	41422.80
648.47	40987.46
648.61	40900.86
648.76	41249.60
648.90	40676.17
649.05	40722.98
649.20	41069.38
649.34	40526.38
649.49	40446.80
649.63	40254.87
649.78	40334.45
649.92	40437.44
650.07	41001.50
650.21	40509.99
650.36	40648.08
650.51	40512.33
650.65	40737.02
650.80	40914.90
650.94	40690.21
651.09	40652.76
651.23	40023.16
651.38	40336.79
651.52	40135.51
651.67	40088.70
651.81	40112.10
651.96	40500.63
652.10	39639.31
652.25	40634.04
652.39	40575.53
652.54	40416.37
652.68	40013.80
652.83	40229.13
652.97	40259.55
653.12	40547.44
653.26	40079.33
653.41	40058.27
653.55	40011.46
653.70	39555.05
653.84	39826.56
653.99	39899.11
654.13	39842.94
654.27	39821.87
654.42	39913.16
654.56	39936.56
654.71	40315.73
654.85	39735.27
655.00	39636.97
655.14	39812.51
655.29	39381.85
655.43	39908.47
655.57	39754.00
655.72	39381.85
655.86	39339.72
656.01	39606.55
656.15	38934.81
656.30	39192.27
656.44	39278.87
656.58	39208.65
656.73	39201.63
656.87	39384.19
657.01	39543.35
657.16	39796.13
657.30	39468.45
657.45	39541.01
657.59	39423.98
657.73	38883.32
657.88	39147.80
658.02	38679.69
658.16	38862.26
658.31	38815.44
658.45	38873.96
658.60	38778.00
658.74	38550.96
658.88	38951.20
659.03	38768.63
659.17	38967.58
659.31	38742.89
659.46	38113.28
659.60	38806.08
659.74	38742.89
659.89	38595.43
660.03	38450.32
660.17	38155.41
660.32	38022.00
660.46	38199.88
660.60	38515.86
660.74	38265.42
660.89	38513.52
661.03	37750.50
661.17	37933.06
661.32	37797.31
661.46	38045.41
661.60	38005.62
661.74	37998.60
661.89	38022.00
662.03	38127.33
662.17	37614.75
662.31	38045.41
662.46	37713.05
662.60	37703.69
662.74	37504.74
662.88	37420.48
663.03	37289.42
663.17	37516.45
663.31	37167.71
663.45	37315.16
663.60	37570.28
663.74	37273.03
663.88	36959.40
664.02	36912.59
664.17	37083.45
664.31	37109.19
664.45	36879.82
664.59	36903.23
664.73	36989.83
664.88	37081.11
665.02	36353.20
665.16	36678.54
665.30	36418.74
665.44	36926.63
665.59	36381.29
665.73	36624.70
665.87	36247.88
666.01	36584.91
666.15	36493.63
666.29	36130.85
666.44	36570.87
666.58	36025.53
666.72	36332.14
666.86	36245.54
667.00	36308.73
667.14	36079.36
667.28	35971.69
667.43	35899.14
667.57	35459.12
667.71	35709.55
667.85	35597.21
667.99	35772.75
668.13	35646.36
668.27	35416.99
668.41	35665.08
668.56	35938.93
668.70	35627.63
668.84	35484.86
668.98	35374.86
669.12	35262.51
669.26	35744.66
669.40	35077.61
669.54	35077.61
669.68	35091.65
669.82	35370.18
669.96	35051.86
670.10	34920.79
670.25	34951.22
670.39	34848.24
670.53	34581.42
670.67	34700.78
670.81	34588.44
670.95	34855.26
671.09	34281.83
671.23	34616.52
671.37	34607.16
671.51	34288.85
671.65	34651.63
671.79	34007.98
671.93	34176.50
672.07	34235.02
672.21	33832.44
672.35	33570.30
672.49	33626.48
672.63	33666.27
672.77	33560.94
672.91	33773.93
673.05	33495.41
673.19	33738.82
673.33	33504.77
673.47	33603.07
673.61	33214.54
673.75	33755.21
673.89	33460.30
674.03	33467.32
674.17	32793.25
674.31	32889.21
674.45	32926.66
674.59	33170.07
674.73	32706.65
674.87	33179.43
675.01	32226.84
675.15	32987.51
675.29	32189.39
675.43	32306.41
675.56	32371.95
675.70	32788.56
675.84	32393.01
675.98	31702.56
676.12	32051.30
676.26	32240.88
676.40	32561.53
676.54	32102.79
676.68	31761.07
676.82	31075.29
676.96	31421.69
677.10	31285.94
677.23	31386.58
677.37	31072.95
677.51	31016.78
677.65	30871.67
677.79	31014.44
677.93	31157.21
678.07	30752.30
678.21	30064.18
678.34	30543.99
678.48	30508.88
678.62	30785.07
678.76	30487.82
678.90	30256.11
679.04	30410.58
679.18	29972.90
679.31	30008.01
679.45	30005.67
679.59	29862.90
679.73	29460.32
679.87	29523.52
680.00	29577.35
680.14	29535.22
680.28	29170.10
680.42	29385.43
680.56	29355.00
680.70	29340.96
680.83	28804.97
680.97	29177.12
681.11	29184.14
681.25	29310.53
681.39	28943.06
681.52	29296.49
681.66	28718.37
681.80	28327.50
681.94	28376.66
682.07	28327.50
682.21	28297.08
682.35	28212.82
682.49	28142.60
682.62	27777.48
682.76	28063.02
682.90	27990.47
683.04	27782.16
683.17	27824.29
683.31	27637.05
683.45	27721.30
683.59	27623.00
683.72	27501.29
683.86	27283.62
684.00	27014.46
684.13	27297.67
684.27	27206.39
684.41	26977.01
684.55	26993.40
684.68	26572.10
684.82	26654.02
684.96	26405.92
685.09	26167.19
685.23	26389.54
685.37	26008.03
685.50	26174.21
685.64	26436.35
685.78	26637.64
685.91	26309.96
686.05	26115.70
686.19	25776.32
686.32	25944.84
686.46	25420.56
686.60	25514.18
686.73	25607.80
686.87	25125.65
687.01	25303.53
687.14	25259.06
687.28	25102.25
687.42	25226.29
687.55	25083.52
687.69	24931.39
687.82	24751.17
687.96	24751.17
688.10	25090.54
688.23	24954.79
688.37	24570.94
688.50	24435.19
688.64	24379.02
688.78	24500.73
688.91	24247.95
689.05	24254.97
689.18	23803.25
689.32	23548.13
689.46	23484.94
689.59	23461.53
689.73	23840.70
689.86	23484.94
690.00	23243.86
690.13	23646.43
690.27	23426.42
690.41	23276.63
690.54	23332.80
690.68	22984.06
690.81	23190.03
690.95	22881.08
691.08	22661.07
691.22	22932.57
691.35	22965.34
691.49	23218.11
691.62	22466.80
691.76	22366.16
691.89	22197.64
692.03	22075.93
692.16	21916.78
692.30	21867.63
692.43	21846.56
692.57	22050.19
692.70	22045.51
692.84	21715.49
692.97	21715.49
693.11	21951.88
693.24	21666.34
693.38	21474.42
693.51	21263.77
693.65	21245.04
693.78	21579.74
693.92	21324.62
694.05	21333.98
694.19	21057.80
694.32	21090.57
694.45	20912.69
694.59	20400.11
694.72	20409.47
694.86	20449.26
694.99	20212.87
695.13	20233.93
695.26	20187.12
695.39	19999.88
695.53	20556.93
695.66	20046.69
695.80	20219.89
695.93	19955.41
696.07	19730.72
696.20	20025.62
696.33	19810.29
696.47	19789.23
696.60	19407.72
696.73	19365.59
696.87	19431.13
697.00	19026.21
697.14	19243.88
697.27	18429.38
697.40	18750.03
697.54	18654.07
697.67	18864.72
697.80	18714.92
697.94	18483.21
698.07	18471.51
698.21	18541.72
698.34	18621.30
698.47	18565.13
698.61	18370.86
698.74	18106.38
698.87	18148.51
699.01	18235.11
699.14	17951.91
699.27	18012.76
699.40	17752.96
699.54	17537.63
699.67	17738.92
699.80	17256.77
699.94	17167.83
700.07	17565.72
700.20	17383.16
700.34	17160.81
700.47	17116.34
700.60	17163.15
700.73	17205.28
700.87	17029.74
701.00	16823.77
701.13	17013.35
701.26	16964.20
701.40	17025.06
701.53	16629.51
701.66	16734.83
701.79	16489.07
701.93	16538.23
702.06	16243.32
702.19	16367.37
702.32	16130.97
702.46	15854.79
702.59	16060.76
702.72	15896.92
702.85	15840.75
702.99	15779.89
703.12	15934.37
703.25	15833.72
703.38	15566.90
703.51	15475.62
703.65	15791.59
703.78	15080.07
703.91	15300.08
704.04	15704.99
704.17	15360.94
704.31	15002.83
704.44	15129.22
704.57	15176.03
704.70	15035.60
704.83	14565.15
704.96	15026.24
705.10	14544.09
705.23	14607.28
>>>>>End Processed Spectral Data<<<<<
