SpectraSuite Data File
++++++++++++++++++++++++++++++++++++
Date: Tue Oct 01 18:27:27 GMT-05:00 2013
User: stostad
Dark Spectrum Present: No
Reference Spectrum Present: No
Number of Sampled Component Spectra: 1
Spectrometers: USB2+H05261
Integration Time (usec): 100000 (USB2+H05261)
Spectra Averaged: 1 (USB2+H05261)
Boxcar Smoothing: 0 (USB2+H05261)
Correct for Electrical Dark: No (USB2+H05261)
Strobe/Lamp Enabled: No (USB2+H05261)
Correct for Detector Non-linearity: No (USB2+H05261)
Correct for Stray Light: No (USB2+H05261)
Number of Pixels in Processed Spectrum: 2048
>>>>>Begin Processed Spectral Data<<<<<
365.73	98.30
365.92	98.30
366.12	98.30
366.32	0.00
366.52	16.38
366.72	2.34
366.91	0.00
367.11	0.00
367.31	14.04
367.51	0.00
367.70	0.00
367.90	0.00
368.10	0.00
368.30	0.00
368.49	0.00
368.69	18.72
368.89	0.00
369.09	0.00
369.28	0.00
369.48	0.00
369.68	46.81
369.87	72.56
370.07	44.47
370.27	133.41
370.47	98.30
370.66	276.18
370.86	229.37
371.06	283.20
371.25	353.42
371.45	341.72
371.65	245.76
371.84	308.95
372.04	332.36
372.24	383.85
372.44	421.30
372.63	397.89
372.83	358.10
373.03	362.78
373.22	409.59
373.42	386.19
373.62	402.57
373.81	418.96
374.01	447.04
374.21	482.15
374.40	430.66
374.60	463.43
374.79	430.66
374.99	535.98
375.19	486.83
375.38	428.32
375.58	463.43
375.78	486.83
375.97	484.49
376.17	489.17
376.37	461.09
376.56	493.85
376.76	505.56
376.95	561.73
377.15	510.24
377.35	496.19
377.54	435.34
377.74	475.13
377.93	493.85
378.13	517.26
378.33	496.19
378.52	472.79
378.72	465.77
378.91	517.26
379.11	456.40
379.31	540.66
379.50	592.16
379.70	557.05
379.89	550.03
380.09	498.53
380.28	498.53
380.48	538.32
380.68	559.39
380.87	484.49
381.07	545.34
381.26	594.50
381.46	552.37
381.65	582.79
381.85	479.81
382.04	550.03
382.24	538.32
382.43	587.47
382.63	615.56
382.83	540.66
383.02	610.88
383.22	601.52
383.41	535.98
383.61	580.45
383.80	624.92
384.00	514.92
384.19	561.73
384.39	559.39
384.58	599.18
384.78	629.60
384.97	631.94
385.17	634.29
385.36	596.84
385.56	578.11
385.75	636.63
385.95	716.20
386.14	683.44
386.34	624.92
386.53	653.01
386.72	627.26
386.92	704.50
387.11	643.65
387.31	681.10
387.50	624.92
387.70	683.44
387.89	692.80
388.09	648.33
388.28	645.99
388.48	709.18
388.67	744.29
388.86	671.73
389.06	688.12
389.25	784.08
389.45	746.63
389.64	753.65
389.84	812.17
390.03	746.63
390.22	816.85
390.42	814.51
390.61	732.59
390.81	638.97
391.00	772.38
391.19	779.40
391.39	819.19
391.58	725.57
391.78	821.53
391.97	837.91
392.16	781.74
392.36	842.59
392.55	896.43
392.75	809.83
392.94	849.61
393.13	866.00
393.33	814.51
393.52	828.55
393.71	931.53
393.91	880.04
394.10	947.92
394.29	894.08
394.49	858.98
394.68	926.85
394.88	863.66
395.07	971.32
395.26	947.92
395.46	980.68
395.65	1053.24
395.84	957.28
396.04	1034.52
396.23	992.39
396.42	1006.43
396.62	992.39
396.81	973.66
397.00	1060.26
397.19	1018.13
397.39	1039.20
397.58	1050.90
397.77	1074.31
397.97	1102.39
398.16	980.68
398.35	1153.88
398.55	1165.59
398.74	1062.60
398.93	1165.59
399.12	1146.86
399.32	1071.97
399.51	1097.71
399.70	1207.72
399.90	1165.59
400.09	1205.38
400.28	1158.57
400.47	1114.10
400.67	1200.69
400.86	1221.76
401.05	1345.81
401.24	1235.80
401.44	1355.17
401.63	1249.85
401.82	1399.64
402.01	1327.08
402.21	1228.78
402.40	1324.74
402.59	1252.19
402.78	1329.42
402.97	1404.32
403.17	1357.51
403.36	1322.40
403.55	1313.04
403.74	1540.07
403.93	1504.96
404.13	1462.83
404.32	1511.99
404.51	1497.94
404.70	1558.80
404.89	1519.01
405.09	1629.01
405.28	1556.46
405.47	1598.59
405.66	1586.88
405.85	1607.95
406.05	1582.20
406.24	1596.25
406.43	1680.50
406.62	1675.82
406.81	1694.55
407.00	1589.22
407.20	1717.95
407.39	1664.12
407.58	1769.44
407.77	1661.78
407.96	1823.28
408.15	1823.28
408.34	1844.34
408.54	1811.57
408.73	1884.13
408.92	1914.56
409.11	1980.09
409.30	1905.20
409.49	1783.49
409.68	1933.28
409.87	1886.47
410.07	1966.05
410.26	1956.69
410.45	1970.73
410.64	2008.18
410.83	2073.71
411.02	2083.08
411.21	2239.89
411.40	2195.42
411.59	2211.81
411.78	2118.18
411.98	2239.89
412.17	2221.17
412.36	2279.68
412.55	2225.85
412.74	2249.25
412.93	2312.45
413.12	2272.66
413.31	2415.43
413.50	2317.13
413.69	2408.41
413.88	2469.27
414.07	2544.16
414.26	2462.24
414.45	2565.23
414.64	2684.59
414.83	2471.61
415.02	2537.14
415.22	2597.99
415.41	2647.15
415.60	2743.11
415.79	2689.28
415.98	2808.64
416.17	2850.77
416.36	2761.83
416.55	2710.34
416.74	2789.92
416.93	2785.24
417.12	2899.92
417.31	3002.91
417.50	2965.46
417.69	2937.37
417.88	2991.20
418.07	2988.86
418.26	3005.25
418.45	3005.25
418.64	3222.92
418.83	3098.87
419.02	3030.99
419.21	3028.65
419.39	3124.62
419.58	3122.27
419.77	3119.93
419.96	3143.34
420.15	3265.05
420.34	3290.79
420.53	3152.70
420.72	3318.88
420.91	3330.58
421.10	3386.76
421.29	3473.36
421.48	3314.20
421.67	3403.14
421.86	3358.67
422.05	3309.52
422.24	3508.46
422.43	3288.45
422.61	3396.12
422.80	3473.36
422.99	3454.63
423.18	3445.27
423.37	3541.23
423.56	3435.91
423.75	3426.54
423.94	3524.85
424.13	3304.84
424.32	3398.46
424.50	3583.36
424.69	3574.00
424.88	3557.61
425.07	3627.83
425.26	3499.10
425.45	3407.82
425.64	3557.61
425.83	3449.95
426.01	3613.79
426.20	3604.42
426.39	3604.42
426.58	3492.08
426.77	3585.70
426.96	3618.47
427.15	3651.24
427.33	3655.92
427.52	3815.07
427.71	3840.82
427.90	3744.86
428.09	3709.75
428.28	3719.11
428.46	3866.56
428.65	3889.97
428.84	3974.23
429.03	4002.32
429.22	3819.75
429.40	3950.82
429.59	3962.53
429.78	3712.09
429.97	3794.01
430.16	3691.02
430.34	4086.58
430.53	4098.28
430.72	3983.59
430.91	4016.36
431.10	4025.72
431.28	4039.76
431.47	4074.87
431.66	4175.52
431.85	4039.76
432.03	4325.31
432.22	4393.19
432.41	4339.35
432.60	4304.25
432.79	4112.32
432.97	4299.56
433.16	4205.94
433.35	4287.86
433.54	4407.23
433.72	4402.55
433.91	4351.06
434.10	4390.84
434.28	4428.29
434.47	4344.03
434.66	4393.19
434.85	4402.55
435.03	4538.30
435.22	4400.21
435.41	4667.03
435.59	4697.46
435.78	4685.75
435.97	4638.94
436.16	4545.32
436.34	4571.07
436.53	4695.11
436.72	4861.29
436.90	4650.64
437.09	4699.80
437.28	4589.79
437.46	4809.80
437.65	4704.48
437.84	4901.08
438.02	4798.10
438.21	4917.47
438.40	4800.44
438.58	5015.77
438.77	5090.67
438.96	4891.72
439.14	5095.35
439.33	5036.83
439.52	5139.82
439.70	5114.07
439.89	5095.35
440.08	5212.37
440.26	5289.61
440.45	5263.86
440.63	5329.40
440.82	5451.11
441.01	5284.93
441.19	5423.02
441.38	5497.92
441.57	5364.51
441.75	5621.97
441.94	5678.14
442.12	5713.25
442.31	5767.08
442.50	5837.30
442.68	5804.53
442.87	5748.36
443.05	5778.78
443.24	5984.75
443.43	5905.17
443.61	6040.92
443.80	6097.10
443.98	5816.23
444.17	5624.31
444.35	5947.30
444.54	5940.28
444.73	5884.11
444.91	6076.03
445.10	6019.86
445.28	6129.86
445.47	6076.03
445.65	5956.66
445.84	5975.39
446.02	6179.01
446.21	6108.80
446.39	6008.16
446.58	6141.57
446.77	6176.67
446.95	5921.56
447.14	6108.80
447.32	6174.33
447.51	6106.46
447.69	5959.00
447.88	6118.16
448.06	6195.40
448.25	6003.47
448.43	6190.72
448.62	6099.44
448.80	6239.87
448.99	6216.46
449.17	6239.87
449.36	6314.77
449.54	6466.90
449.73	6347.53
449.91	6480.94
450.10	6485.62
450.28	6532.44
450.46	6356.90
450.65	6551.16
450.83	6523.07
451.02	6429.45
451.20	6567.54
451.39	6434.13
451.57	6527.75
451.76	6651.80
451.94	6494.99
452.13	6590.95
452.31	6647.12
452.49	6860.11
452.68	6855.43
452.86	6642.44
453.05	6904.58
453.23	6846.07
453.42	6604.99
453.60	6853.09
453.78	6878.83
453.97	6715.00
454.15	6810.96
454.34	6946.71
454.52	7138.63
454.70	6923.30
454.89	7014.59
455.07	7091.82
455.26	7105.87
455.44	7213.53
455.62	7192.47
455.81	6867.13
455.99	7239.28
456.17	7370.35
456.36	7325.88
456.54	7283.75
456.73	7368.01
456.91	7641.85
457.09	7400.77
457.28	7588.02
457.46	7564.61
457.64	7707.38
457.83	7660.57
458.01	7456.95
458.19	7541.21
458.38	7501.42
458.56	7555.25
458.74	7761.22
458.93	7531.84
459.11	7712.07
459.29	7864.20
459.48	8051.44
459.66	7925.05
459.84	7817.39
460.03	7962.50
460.21	8049.10
460.39	8107.62
460.57	7896.97
460.76	7950.80
460.94	8107.62
461.12	8187.19
461.31	8131.02
461.49	8028.04
461.67	7988.25
461.85	8283.16
462.04	8297.20
462.22	8645.94
462.40	8241.03
462.59	8245.71
462.77	8353.37
462.95	8521.89
463.13	8325.29
463.32	8252.73
463.50	8540.61
463.68	8404.86
463.86	8610.83
464.05	8470.40
464.23	8526.57
464.41	8552.32
464.59	8608.49
464.78	8697.43
464.96	8540.61
465.14	8706.79
465.32	8786.37
465.50	8678.71
465.69	8643.60
465.87	8753.60
466.05	8805.10
466.23	8947.87
466.41	8835.52
466.60	9062.55
466.78	8699.77
466.96	8945.53
467.14	8697.43
467.32	8891.70
467.51	9200.65
467.69	8657.64
467.87	8910.42
468.05	9036.81
468.23	8961.91
468.41	8957.23
468.60	9305.97
468.78	9123.41
468.96	9069.58
469.14	9240.44
469.32	9224.05
469.50	9064.89
469.69	9497.89
469.87	9287.25
470.05	9338.74
470.23	9483.85
470.41	9378.53
470.59	9671.09
470.77	9558.75
470.95	9469.81
471.14	9923.87
471.32	9362.14
471.50	9748.33
471.68	9671.09
471.86	9738.97
472.04	9823.23
472.22	10061.96
472.40	9731.95
472.58	9879.40
472.77	9912.17
472.95	10296.02
473.13	10401.34
473.31	10228.14
473.49	10251.55
473.67	10422.41
473.85	10319.42
474.03	10354.53
474.21	10506.66
474.39	10576.88
474.57	10843.70
474.75	10686.89
474.93	10555.82
475.12	10689.23
475.30	11014.56
475.48	10787.53
475.66	11019.24
475.84	11124.57
476.02	11400.75
476.20	11152.65
476.38	11257.98
476.56	11524.80
476.74	11323.51
476.92	11445.22
477.10	11389.05
477.28	11501.39
477.46	11566.93
477.64	11747.15
477.82	11988.22
478.00	12290.15
478.18	12121.63
478.36	12271.43
478.54	12360.37
478.72	12421.22
478.90	12500.80
479.08	12360.37
479.26	12758.26
479.44	12676.34
479.62	12807.41
479.80	12982.95
479.98	13034.44
480.16	13444.04
480.34	13444.04
480.52	13451.06
480.70	13212.32
480.88	13371.48
481.06	13362.12
481.24	13556.38
481.41	13626.60
481.59	13891.08
481.77	14090.02
481.95	14225.78
482.13	14015.13
482.31	14160.24
482.49	14551.11
482.67	14300.67
482.85	14822.61
483.03	14944.32
483.21	15131.56
483.39	14963.04
483.57	15194.76
483.74	15473.28
483.92	15356.25
484.10	15264.97
484.28	15758.83
484.46	15939.05
484.64	16053.73
484.82	15831.38
485.00	15899.26
485.18	16435.24
485.35	16702.06
485.53	16657.59
485.71	16802.71
485.89	16830.79
486.07	16877.60
486.25	17032.08
486.43	16760.58
486.61	17373.80
486.78	17326.99
486.96	17319.96
487.14	17858.29
487.32	17610.19
487.50	18108.72
487.68	18057.23
487.85	18298.31
488.03	18604.92
488.21	18520.66
488.39	18483.21
488.57	18518.32
488.75	19138.56
488.92	19136.22
489.10	19765.82
489.28	19365.59
489.46	19410.06
489.64	19604.33
489.81	19669.86
489.99	19756.46
490.17	20177.76
490.35	20395.43
490.53	20360.32
490.70	20739.49
490.88	20568.63
491.06	20709.06
491.24	20512.46
491.41	21139.72
491.59	21575.06
491.77	21383.13
491.95	21518.89
492.13	21666.34
492.30	21689.74
492.48	21741.24
492.66	21844.22
492.84	21699.11
493.01	22441.06
493.19	22328.71
493.37	22544.04
493.54	22309.99
493.72	22902.14
493.90	22796.82
494.08	23194.71
494.25	23363.23
494.43	23253.22
494.61	23428.76
494.79	23068.32
494.96	23349.18
495.14	23955.38
495.32	23974.11
495.49	23971.77
495.67	24023.26
495.85	24393.06
496.02	24397.74
496.20	24409.45
496.38	24575.62
496.55	24594.35
496.73	25156.08
496.91	24819.04
497.09	25476.73
497.26	25294.17
497.44	25177.14
497.62	25537.59
497.79	25930.80
497.97	25453.33
498.14	26218.68
498.32	26106.34
498.50	26260.81
498.67	25998.67
498.85	26515.93
499.03	26504.23
499.20	26850.63
499.38	26972.33
499.56	27002.76
499.73	26794.45
499.91	26843.60
500.08	27239.15
500.26	26977.01
500.44	27243.84
500.61	27566.83
500.79	27257.88
500.97	27704.92
501.14	27910.89
501.32	27814.93
501.49	27545.76
501.67	28294.74
501.84	28519.43
502.02	28348.57
502.20	28210.48
502.37	28718.37
502.55	28804.97
502.72	28531.13
502.90	28383.68
503.07	28477.30
503.25	28842.42
503.43	28781.57
503.60	29448.62
503.78	28980.51
503.95	29422.87
504.13	29429.90
504.30	29535.22
504.48	29474.37
504.65	29551.60
504.83	29860.55
505.01	30094.61
505.18	29701.40
505.36	30576.76
505.53	30015.03
505.71	30185.89
505.88	30181.21
506.06	30279.51
506.23	30766.34
506.41	30426.96
506.58	30773.36
506.76	30766.34
506.93	31084.65
507.11	30700.81
507.28	31131.47
507.46	31070.61
507.63	31377.22
507.81	31314.03
507.98	31201.68
508.16	31180.62
508.33	31728.30
508.50	31615.96
508.68	31742.35
508.85	32123.85
509.03	31660.43
509.20	32217.47
509.38	32514.72
509.55	32444.51
509.73	32678.56
509.90	32842.40
510.08	32713.67
510.25	32519.40
510.42	32627.07
510.60	33046.02
510.77	33088.15
510.95	33048.36
511.12	32971.13
511.30	33486.04
511.47	33432.21
511.64	33418.17
511.82	33474.34
511.99	33460.30
512.17	33574.98
512.34	33556.26
512.51	33844.15
512.69	34211.61
512.86	34333.32
513.04	34450.35
513.21	34209.27
513.38	34230.33
513.56	34677.38
513.73	34646.95
513.90	34492.47
514.08	35033.14
514.25	35239.11
514.43	34740.57
514.60	34848.24
514.77	34562.69
514.95	35370.18
515.12	34892.71
515.29	35194.64
515.47	35821.90
515.64	35739.98
515.81	35669.76
515.99	35583.16
516.16	35917.86
516.33	35768.07
516.51	35934.24
516.68	36348.52
516.85	36287.67
517.03	36622.36
517.20	36503.00
517.37	36596.62
517.54	35981.06
517.72	36589.59
517.89	36304.05
518.06	36666.83
518.24	36823.65
518.41	36481.93
518.58	37228.56
518.75	36538.10
518.93	36910.25
519.10	36992.17
519.27	37113.87
519.45	37069.40
519.62	37514.11
519.79	37441.55
519.96	37860.51
520.14	37528.15
520.31	37560.92
520.48	37464.96
520.65	37237.92
520.83	38192.86
521.00	38054.77
521.17	37926.04
521.34	38169.46
521.52	38389.47
521.69	38036.05
521.86	38195.20
522.03	38396.49
522.20	38532.24
522.38	38951.20
522.55	38782.68
522.72	38944.17
522.89	38742.89
523.07	39192.27
523.24	38623.52
523.41	38990.98
523.58	38735.87
523.75	39297.59
523.92	39105.67
524.10	39386.54
524.27	39566.76
524.44	39634.63
524.61	39812.51
524.78	39281.21
524.96	39716.55
525.13	39985.71
525.30	39966.99
525.47	40346.15
525.64	40573.19
525.81	40037.20
525.98	39934.22
526.16	40278.28
526.33	40341.47
526.50	40587.23
526.67	40280.62
526.84	40556.80
527.01	40418.71
527.18	40847.03
527.36	40765.11
527.53	40961.72
527.70	40935.97
527.87	41170.02
528.04	40830.65
528.21	41378.33
528.38	40910.22
528.55	40893.84
528.72	41027.25
528.89	41160.66
529.07	41006.19
529.24	41256.62
529.41	41429.82
529.58	41790.27
529.75	41535.15
529.92	42253.69
530.09	41457.91
530.26	41698.98
530.43	41787.92
530.60	41493.02
530.77	41551.53
530.94	41996.23
531.11	41935.38
531.28	42354.33
531.46	42267.73
531.63	42302.84
531.80	42117.94
531.97	42562.64
532.14	42873.93
532.31	42646.90
532.48	42197.52
532.65	42487.74
532.82	42588.39
532.99	42913.72
533.16	42831.80
533.33	43143.09
533.50	43250.76
533.67	42932.45
533.84	42443.27
534.01	43005.00
534.18	43379.49
534.35	43587.80
534.52	43021.39
534.69	43927.17
534.86	43730.57
535.03	42817.76
535.20	43005.00
535.37	43526.94
535.54	43901.43
535.71	43459.07
535.88	43672.06
536.05	43697.80
536.22	44177.61
536.38	43990.37
536.55	43859.30
536.72	43917.81
536.89	43337.36
537.06	43969.30
537.23	43798.44
537.40	44531.03
537.57	44519.33
537.74	43810.15
537.91	44673.81
538.08	43763.34
538.25	43962.28
538.42	44278.25
538.59	44966.37
538.75	44561.46
538.92	44381.24
539.09	44844.66
539.26	45052.97
539.43	44484.22
539.60	44839.98
539.77	44865.73
539.94	44725.30
540.11	45181.70
540.28	44856.37
540.44	45003.82
540.61	45422.78
540.78	45118.51
540.95	45294.05
541.12	45294.05
541.29	45294.05
541.46	45193.40
541.62	44992.12
541.79	45738.75
541.96	45188.72
542.13	45387.67
542.30	45918.97
542.47	45720.02
542.63	46003.23
542.80	46101.53
542.97	45813.65
543.14	45780.88
543.31	45748.11
543.48	46305.16
543.64	46703.05
543.81	46763.90
543.98	46564.96
544.15	46319.20
544.32	46892.63
544.48	46784.97
544.65	46520.49
544.82	46791.99
544.99	46405.80
545.16	46696.03
545.32	46597.73
545.49	47274.14
545.66	47180.52
545.83	46628.15
546.00	46855.18
546.16	46965.19
546.33	46277.07
546.50	46557.94
546.67	47243.71
546.83	46604.75
547.00	46623.47
547.17	47117.32
547.34	47353.72
547.50	47239.03
547.67	47470.75
547.84	47276.48
548.00	47084.56
548.17	47489.47
548.34	47475.43
548.51	48100.35
548.67	47346.70
548.84	47505.85
549.01	47292.86
549.18	47407.55
549.34	47208.61
549.51	47395.85
549.68	47576.07
549.84	47653.31
550.01	47885.02
550.18	47545.64
550.34	47941.19
550.51	47796.08
550.68	47824.17
550.84	47714.16
551.01	47648.63
551.18	47842.89
551.34	47938.85
551.51	47997.37
551.68	48346.11
551.84	48039.50
552.01	47878.00
552.18	47976.30
552.34	48030.13
552.51	48299.30
552.68	48062.90
552.84	47971.62
553.01	48739.32
553.18	48432.71
553.34	48580.16
553.51	48395.26
553.67	48418.66
553.84	48893.79
554.01	48418.66
554.17	48615.27
554.34	48360.15
554.51	48842.30
554.67	48919.54
554.84	48959.33
555.00	48786.13
555.17	48540.37
555.33	48982.73
555.50	48491.22
555.67	48502.92
555.83	48844.64
556.00	49038.90
556.16	49542.12
556.33	48999.12
556.50	49134.87
556.66	49453.18
556.83	48870.39
556.99	49382.96
557.16	49048.27
557.32	48746.34
557.49	49364.24
557.65	49177.00
557.82	49397.01
557.98	49155.93
558.15	49205.08
558.32	49429.77
558.48	49401.69
558.65	49450.84
558.81	49453.18
558.98	49279.98
559.14	49338.49
559.31	49439.14
559.47	49439.14
559.64	49776.17
559.80	49453.18
559.97	49631.06
560.13	49450.84
560.30	49556.16
560.46	49509.35
560.63	49249.55
560.79	49612.34
560.96	50035.97
561.12	49738.72
561.29	49670.85
561.45	49628.72
561.61	49867.45
561.78	49560.84
561.94	49525.74
562.11	50045.33
562.27	49464.88
562.44	49893.20
562.60	49696.59
562.77	49932.99
562.93	50045.33
563.10	50586.00
563.26	49748.09
563.42	50511.10
563.59	49581.91
563.75	50026.61
563.92	50169.38
564.08	49860.43
564.24	49602.97
564.41	50050.02
564.57	50045.33
564.74	49553.82
564.90	50305.13
565.07	50248.96
565.23	50340.24
565.39	49909.58
565.56	50071.08
565.72	50080.44
565.88	50344.92
566.05	50024.27
566.21	50417.48
566.38	50623.45
566.54	50248.96
566.70	50447.91
566.87	50679.62
567.03	49975.12
567.19	50321.52
567.36	50408.12
567.52	50279.39
567.68	50361.31
567.85	50567.27
568.01	50681.96
568.17	50225.56
568.34	50567.27
568.50	50099.17
568.66	49837.03
568.83	50525.14
568.99	49965.76
569.15	50288.75
569.32	50787.28
569.48	50466.63
569.64	50628.13
569.81	50248.96
569.97	50410.46
570.13	50487.70
570.30	50295.77
570.46	50307.47
570.62	50277.05
570.78	50520.46
570.95	50483.01
571.11	50653.87
571.27	50483.01
571.43	50665.58
571.60	50674.94
571.76	50337.90
571.92	50391.73
572.09	50726.43
572.25	50457.27
572.41	50693.66
572.57	50773.24
572.74	51091.55
572.90	50693.66
573.06	50667.92
573.22	51011.98
573.38	50911.33
573.55	50789.62
573.71	50979.21
573.87	50560.25
574.03	50361.31
574.20	50822.39
574.36	50522.80
574.52	50749.84
574.68	50600.04
574.84	50880.91
575.01	50925.38
575.17	51049.42
575.33	50770.90
575.49	50447.91
575.65	50920.70
575.82	50981.55
575.98	50405.78
576.14	50876.22
576.30	51056.45
576.46	50862.18
576.62	50908.99
576.79	50756.86
576.95	50827.07
577.11	50777.92
577.27	50960.48
577.43	50855.16
577.59	50906.65
577.75	50705.37
577.92	50471.31
578.08	50740.47
578.24	50646.85
578.40	51072.83
578.56	50829.41
578.72	50632.81
578.88	51171.13
579.04	51173.47
579.21	50913.67
579.37	50890.27
579.53	51065.81
579.69	50604.72
579.85	51044.74
580.01	51278.80
580.17	50906.65
580.33	51086.87
580.49	50976.87
580.65	50901.97
580.82	50885.59
580.98	50916.01
581.14	50576.64
581.30	51180.49
581.46	50710.05
581.62	50824.73
581.78	51072.83
581.94	51299.86
582.10	51175.81
582.26	50948.78
582.42	50733.45
582.58	51051.76
582.74	50618.77
582.90	51084.53
583.06	50899.63
583.22	51000.27
583.38	51201.56
583.54	51337.31
583.70	50937.08
583.86	51473.06
584.02	50972.19
584.18	51180.49
584.34	51363.06
584.50	51278.80
584.66	50953.46
584.82	51028.36
584.98	51391.14
585.14	51061.13
585.30	50829.41
585.46	51119.64
585.62	51007.29
585.78	51150.07
585.94	51051.76
586.10	51107.94
586.26	51021.34
586.42	50705.37
586.58	50986.23
586.74	50824.73
586.90	51119.64
587.06	51196.88
587.22	51231.99
587.38	51161.77
587.54	51271.78
587.70	51466.04
587.86	51297.52
588.02	51229.65
588.18	51166.45
588.34	50948.78
588.49	51201.56
588.65	51185.18
588.81	51356.03
588.97	51437.95
589.13	51337.31
589.29	51786.69
589.45	51789.03
589.61	51374.76
589.77	51346.67
589.93	51339.65
590.08	51224.96
590.24	51690.73
590.40	51655.62
590.56	52083.94
590.72	51641.58
590.88	51334.97
591.04	51246.03
591.20	51868.61
591.35	51833.50
591.51	51971.60
591.67	51709.46
591.83	51543.28
591.99	51393.48
592.15	51746.90
592.31	51845.21
592.46	51501.15
592.62	51847.55
592.78	51569.02
592.94	51805.42
593.10	51550.30
593.26	51370.08
593.41	51709.46
593.57	51812.44
593.73	51793.71
593.89	51625.20
594.05	51508.17
594.20	51545.62
594.36	51758.61
594.52	51531.57
594.68	51959.89
594.84	51643.92
594.99	51915.42
595.15	51547.96
595.31	51774.99
595.47	52018.41
595.62	51444.98
595.78	51805.42
595.94	51540.94
596.10	51798.40
596.25	52018.41
596.41	52069.90
596.57	51564.34
596.73	52090.96
596.88	52041.81
597.04	51650.94
597.20	51910.74
597.36	51632.22
597.51	52067.56
597.67	51433.27
597.83	51648.60
597.99	51917.76
598.14	51964.57
598.30	52299.27
598.46	52126.07
598.61	52107.35
598.77	51978.62
598.93	52013.73
599.09	51849.89
599.24	51957.55
599.40	51756.27
599.56	51990.32
599.71	51786.69
599.87	52186.92
600.03	52168.20
600.18	51756.27
600.34	51501.15
600.50	52067.56
600.65	51767.97
600.81	51798.40
600.97	51870.95
601.12	51817.12
601.28	51564.34
601.44	51969.26
601.59	52128.41
601.75	52025.43
601.91	52133.09
602.06	52140.11
602.22	52069.90
602.37	51688.39
602.53	52032.45
602.69	51866.27
602.84	51847.55
603.00	51604.13
603.16	51744.56
603.31	51700.09
603.47	51704.77
603.62	51562.00
603.78	51648.60
603.94	51856.91
604.09	52062.88
604.25	51934.15
604.40	51962.23
604.56	51941.17
604.71	51646.26
604.87	51494.13
605.03	51721.16
605.18	51611.15
605.34	51969.26
605.49	51587.75
605.65	51938.83
605.80	51798.40
605.96	51971.60
606.12	51847.55
606.27	52009.04
606.43	51592.43
606.58	52046.49
606.74	51517.53
606.89	51639.24
607.05	51639.24
607.20	51758.61
607.36	51716.48
607.51	51903.72
607.67	51819.46
607.82	51873.29
607.98	51732.86
608.13	51679.03
608.29	51538.60
608.44	51461.36
608.60	51526.89
608.75	51487.10
608.91	51363.06
609.06	51423.91
609.22	51760.95
609.37	51372.42
609.53	51466.04
609.68	51452.00
609.84	51419.23
609.99	51601.79
610.15	51746.90
610.30	51674.35
610.46	51594.77
610.61	51072.83
610.76	51117.30
610.92	51405.19
611.07	51264.75
611.23	51285.82
611.38	51409.87
611.54	51196.88
611.69	51311.56
611.84	51475.40
612.00	51777.33
612.15	51543.28
612.31	51414.55
612.46	51243.69
612.62	51332.63
612.77	51037.72
612.92	51337.31
613.08	51213.26
613.23	51227.31
613.39	51440.29
613.54	51154.75
613.69	51414.55
613.85	51189.86
614.00	51339.65
614.15	51269.43
614.31	50871.54
614.46	51412.21
614.62	50782.60
614.77	51107.94
614.92	51084.53
615.08	51227.31
615.23	51161.77
615.38	51318.59
615.54	51000.27
615.69	51220.28
615.84	50923.04
616.00	51274.12
616.15	50944.10
616.30	51126.66
616.46	50918.35
616.61	50768.56
616.76	50850.48
616.92	50583.66
617.07	50541.53
617.22	50122.57
617.37	50972.19
617.53	51147.73
617.68	50960.48
617.83	50981.55
617.99	51028.36
618.14	50667.92
618.29	50906.65
618.45	50642.17
618.60	50883.25
618.75	50370.67
618.90	50513.44
619.06	50564.93
619.21	50412.80
619.36	50731.11
619.51	50223.22
619.67	50403.44
619.82	50433.86
619.97	50686.64
620.12	50174.06
620.28	50349.60
620.43	50546.21
620.58	50384.71
620.73	50405.78
620.89	50370.67
621.04	50127.25
621.19	50508.76
621.34	50349.60
621.49	50581.32
621.65	50307.47
621.80	50951.12
621.95	50234.92
622.10	50361.31
622.25	49979.80
622.41	49844.05
622.56	50181.09
622.71	50380.03
622.86	50150.66
623.01	50569.61
623.16	50588.34
623.32	50010.23
623.47	49900.22
623.62	50068.74
623.77	50768.56
623.92	50373.01
624.07	50115.55
624.23	50188.11
624.38	50188.11
624.53	50066.40
624.68	50052.36
624.83	49975.12
624.98	50024.27
625.13	49720.00
625.29	49998.52
625.44	49771.49
625.59	49687.23
625.74	49867.45
625.89	49595.95
626.04	49872.14
626.19	49659.15
626.34	49989.16
626.49	50113.21
626.65	49422.75
626.80	49308.07
626.95	49244.87
627.10	49074.01
627.25	49301.04
627.40	49340.83
627.55	49881.50
627.70	49265.94
627.85	49773.83
628.00	49490.63
628.15	49481.27
628.30	49343.17
628.45	49287.00
628.60	49130.19
628.76	49310.41
628.91	49242.53
629.06	49045.93
629.21	48886.77
629.36	48900.81
629.51	48931.24
629.66	49003.80
629.81	48830.60
629.96	49317.43
630.11	49148.91
630.26	49251.89
630.41	49155.93
630.56	49319.77
630.71	48797.83
630.86	49230.83
631.01	48837.62
631.16	48718.25
631.31	48322.70
631.46	48402.28
631.61	49003.80
631.76	49069.33
631.91	48851.66
632.06	48463.13
632.21	48774.42
632.36	48722.93
632.51	48802.51
632.66	48636.33
632.81	48472.49
632.96	48664.42
633.10	48736.98
633.25	48648.03
633.40	48467.81
633.55	48395.26
633.70	48692.50
633.85	48643.35
634.00	48755.70
634.15	48516.96
634.30	48809.53
634.45	48603.56
634.60	48357.81
634.75	48395.26
634.90	47950.56
635.05	48842.30
635.19	48186.95
635.34	48357.81
635.49	48177.59
635.64	48203.33
635.79	48416.32
635.94	48376.53
636.09	48217.38
636.24	48278.23
636.39	48184.61
636.53	48095.67
636.68	48542.71
636.83	48168.22
636.98	48392.92
637.13	47917.79
637.28	48449.09
637.43	48318.02
637.57	47950.56
637.72	47852.25
637.87	48086.31
638.02	48236.10
638.17	48058.22
638.32	48009.07
638.46	48215.04
638.61	47772.67
638.76	47784.38
638.91	48023.11
639.06	47257.76
639.20	47744.59
639.35	47744.59
639.50	47255.42
639.65	47538.62
639.80	47934.17
639.94	47873.32
640.09	47662.67
640.24	47346.70
640.39	47615.86
640.54	47655.65
640.68	47569.05
640.83	47484.79
640.98	47295.21
641.13	47070.51
641.27	47796.08
641.42	47569.05
641.57	47070.51
641.72	47014.34
641.86	47150.09
642.01	46852.84
642.16	47189.88
642.31	46630.49
642.45	47316.27
642.60	47168.82
642.75	47079.88
642.90	47386.49
643.04	47145.41
643.19	46674.96
643.34	47145.41
643.48	47063.49
643.63	46801.35
643.78	46967.53
643.93	46515.81
644.07	46843.48
644.22	47271.80
644.37	46733.48
644.51	46937.10
644.66	46834.12
644.81	46567.30
644.95	47051.79
645.10	46710.07
645.25	46859.87
645.39	47079.88
645.54	46747.52
645.69	46754.54
645.83	46813.05
645.98	46660.92
646.13	46408.14
646.27	46546.23
646.42	46192.81
646.57	46358.99
646.71	46527.51
646.86	46571.98
647.00	46925.40
647.15	46609.43
647.30	46485.38
647.44	46562.62
647.59	46670.28
647.74	46700.71
647.88	46483.04
648.03	46298.14
648.17	45970.46
648.32	46157.70
648.47	46263.03
648.61	45837.05
648.76	46387.08
648.90	46424.53
649.05	46721.77
649.20	46120.26
649.34	46412.82
649.49	46188.13
649.63	46279.41
649.78	46307.50
649.92	45996.21
650.07	46497.08
650.21	46075.79
650.36	46270.05
650.51	45727.05
650.65	45574.91
650.80	45890.88
650.94	45675.55
651.09	45265.96
651.23	45790.24
651.38	45766.84
651.52	45631.08
651.67	45993.87
651.81	45937.69
651.96	45970.46
652.10	45752.79
652.25	45514.06
652.39	45481.29
652.54	45654.49
652.68	45317.45
652.83	45743.43
652.97	45530.44
653.12	45387.67
653.26	45399.37
653.41	45691.94
653.55	45535.12
653.70	45780.88
653.84	46223.24
653.99	45907.27
654.13	45713.00
654.27	45895.56
654.42	45347.88
654.56	45006.16
654.71	45125.53
654.85	44687.85
655.00	45074.04
655.14	45425.12
655.29	45223.83
655.43	45043.61
655.57	44739.34
655.72	44940.63
655.86	45186.38
656.01	45172.34
656.15	45226.17
656.30	45008.50
656.44	44563.80
656.58	44680.83
656.73	44474.86
656.87	44505.29
657.01	45155.96
657.16	44776.79
657.30	44484.22
657.45	44619.97
657.59	44612.95
657.73	44645.72
657.88	44156.55
658.02	44278.25
658.16	44453.79
658.31	44772.11
658.45	44470.18
658.60	44161.23
658.74	44580.18
658.88	44575.50
659.03	44245.49
659.17	43861.64
659.31	44322.72
659.46	43669.72
659.60	44186.97
659.74	43810.15
659.89	43798.44
660.03	44116.76
660.17	43997.39
660.32	43854.62
660.46	44142.50
660.60	43779.72
660.74	43908.45
660.89	44102.71
661.03	43791.42
661.17	43594.82
661.32	43812.49
661.46	43423.96
661.60	43082.24
661.74	43445.02
661.89	43358.42
662.03	42918.40
662.17	42953.51
662.31	42789.67
662.46	43503.54
662.60	42958.19
662.74	43028.41
662.88	43077.56
663.03	43000.32
663.17	43215.65
663.31	42717.12
663.45	43243.74
663.60	43185.22
663.74	42777.97
663.88	42061.77
664.02	42227.95
664.17	42864.57
664.31	42532.22
664.45	42174.11
664.59	41949.42
664.73	42557.96
664.88	42298.16
665.02	41921.34
665.16	42108.58
665.30	42057.09
665.44	42600.09
665.59	42143.69
665.73	42136.66
665.87	41610.04
666.01	41734.09
666.15	41710.69
666.29	41336.20
666.44	41762.18
666.58	41170.02
666.72	41350.24
666.86	41614.72
667.00	41895.59
667.14	40919.59
667.28	41305.77
667.43	40837.67
667.57	41478.97
667.71	41530.47
667.85	41647.49
667.99	40971.08
668.13	41333.86
668.27	40964.06
668.41	40926.61
668.56	40926.61
668.70	40762.77
668.84	41095.13
668.98	40224.45
669.12	40465.52
669.26	40825.96
669.40	40587.23
669.54	40339.13
669.68	40500.63
669.82	40226.79
669.96	40439.78
670.10	40212.74
670.25	40500.63
670.39	40030.18
670.53	39999.76
670.67	40149.55
670.81	40329.77
670.95	39828.90
671.09	39316.32
671.23	39138.44
671.37	39810.17
671.51	39218.02
671.65	38871.62
671.79	39182.91
671.93	39295.25
672.07	39782.09
672.21	39538.67
672.35	39297.59
672.49	39356.11
672.63	39648.68
672.77	38663.31
672.91	39058.86
673.05	38948.85
673.19	39398.24
673.33	39019.07
673.47	38895.02
673.61	39012.05
673.75	38649.27
673.89	38319.25
674.03	38330.95
674.17	38405.85
674.31	38644.59
674.45	38349.68
674.59	37956.47
674.73	38263.08
674.87	38113.28
675.01	37694.33
675.15	37556.24
675.29	37916.68
675.43	37560.92
675.56	37156.00
675.70	37640.50
675.84	37553.90
675.98	36109.78
676.12	37343.25
676.26	37296.44
676.40	36973.44
676.54	36947.70
676.68	36847.05
676.82	36446.82
676.96	36975.78
677.10	36701.94
677.23	36402.35
677.37	37092.81
677.51	36596.62
677.65	36287.67
677.79	35920.20
677.93	36226.81
678.07	35704.87
678.21	35416.99
678.34	35580.82
678.48	35477.84
678.62	34778.02
678.76	34796.74
678.90	34801.43
679.04	35416.99
679.18	34960.58
679.31	35054.20
679.45	34941.86
679.59	35021.44
679.73	35037.82
679.87	35454.44
680.00	34560.35
680.14	34806.11
680.28	34738.23
680.42	34469.07
680.56	34026.71
680.70	33429.87
680.83	33743.50
680.97	33663.93
681.11	33734.14
681.25	33710.74
681.39	33462.64
681.52	33563.28
681.66	33818.40
681.80	33500.09
681.94	33450.94
682.07	33308.16
682.21	33247.31
682.35	33167.73
682.49	33268.37
682.62	33067.09
682.76	32926.66
682.90	32428.12
683.04	32048.96
683.17	32254.92
683.31	31681.49
683.45	32149.60
683.59	32077.04
683.72	31412.33
683.86	31587.87
684.00	31440.42
684.13	31901.50
684.27	31632.34
684.41	31508.29
684.55	31573.83
684.68	31178.28
684.82	31632.34
684.96	31091.68
685.09	31325.73
685.23	30581.44
685.37	30672.72
685.50	30511.22
685.64	30263.13
685.78	30012.69
685.91	30724.21
686.05	30176.53
686.19	29991.62
686.32	30309.94
686.46	29764.59
686.60	30043.12
686.73	29825.45
686.87	30199.93
687.01	30008.01
687.14	29993.97
687.28	29848.85
687.42	29385.43
687.55	29436.92
687.69	29455.64
687.82	29144.35
687.96	29296.49
688.10	29219.25
688.23	28931.36
688.37	28814.34
688.50	28425.81
688.64	28662.20
688.78	28194.09
688.91	28173.03
689.05	28739.44
689.18	28182.39
689.32	27627.68
689.46	27889.82
689.59	27307.03
689.73	27969.40
689.86	27679.18
690.00	27749.39
690.13	28292.40
690.27	27047.23
690.41	27438.10
690.54	26714.87
690.68	27278.94
690.81	27239.15
690.95	26792.11
691.08	26628.27
691.22	26539.33
691.35	26593.17
691.49	26356.77
691.62	26614.23
691.76	26321.66
691.89	26539.33
692.03	26153.15
692.16	26012.71
692.30	26455.08
692.43	26232.72
692.57	26103.99
692.70	26094.63
692.84	25893.35
692.97	25362.04
693.11	25216.93
693.24	25432.26
693.38	24975.86
693.51	25366.73
693.65	25142.03
693.78	25060.12
693.92	24996.92
694.05	24592.01
694.19	24664.57
694.32	24819.04
694.45	24397.74
694.59	24716.06
694.72	24739.46
694.86	24327.53
694.99	24374.34
695.13	24301.78
695.26	23946.02
695.39	23873.46
695.53	23768.14
695.66	23290.67
695.80	23061.30
695.93	23000.44
696.07	23592.60
696.20	22995.76
696.33	23126.83
696.47	22843.63
696.60	23171.30
696.73	23328.12
696.87	22773.41
697.00	22974.70
697.14	22403.61
697.27	22759.37
697.40	22808.52
697.54	22387.22
697.67	22469.14
697.80	22445.74
697.94	22150.83
698.07	21928.48
698.21	21586.76
698.34	21617.19
698.47	21645.27
698.61	20917.37
698.74	21439.31
698.87	21200.57
699.01	21315.26
699.14	20973.54
699.27	21240.36
699.40	21069.50
699.54	20943.11
699.67	20659.91
699.80	21125.68
699.94	21020.35
700.07	20702.04
700.20	20463.30
700.34	20802.68
700.47	20437.56
700.60	20435.22
700.73	20002.22
700.87	19847.74
701.00	19950.73
701.13	19812.63
701.26	19927.32
701.40	19637.09
701.53	19440.49
701.66	19826.68
701.79	19536.45
701.93	19328.14
702.06	19534.11
702.19	19176.01
702.32	19367.93
702.46	19386.66
702.59	19037.92
702.72	18974.72
702.85	19314.10
702.99	19073.03
703.12	18691.52
703.25	18864.72
703.38	18277.24
703.51	18366.18
703.65	18333.42
703.78	18113.41
703.91	17916.80
704.04	17853.61
704.17	18101.70
704.31	17921.48
704.44	18113.41
704.57	18052.55
704.70	18185.96
704.83	17692.11
704.96	17891.06
705.10	17589.13
705.23	17598.49
>>>>>End Processed Spectral Data<<<<<
