SpectraSuite Data File
++++++++++++++++++++++++++++++++++++
Date: Fri Oct 04 11:39:22 GMT-05:00 2013
User: price-jones
Dark Spectrum Present: No
Reference Spectrum Present: No
Number of Sampled Component Spectra: 1
Spectrometers: USB2+H05261
Integration Time (usec): 100000 (USB2+H05261)
Spectra Averaged: 1 (USB2+H05261)
Boxcar Smoothing: 0 (USB2+H05261)
Correct for Electrical Dark: No (USB2+H05261)
Strobe/Lamp Enabled: No (USB2+H05261)
Correct for Detector Non-linearity: No (USB2+H05261)
Correct for Stray Light: No (USB2+H05261)
Number of Pixels in Processed Spectrum: 2048
>>>>>Begin Processed Spectral Data<<<<<
365.73	25.75
365.92	25.75
366.12	25.75
366.32	0.00
366.52	16.38
366.72	0.00
366.91	0.00
367.11	0.00
367.31	0.00
367.51	0.00
367.70	23.41
367.90	0.00
368.10	0.00
368.30	0.00
368.49	0.00
368.69	9.36
368.89	0.00
369.09	0.00
369.28	0.00
369.48	37.45
369.68	0.00
369.87	30.43
370.07	0.00
370.27	98.30
370.47	63.19
370.66	198.95
370.86	234.05
371.06	280.86
371.25	294.91
371.45	177.88
371.65	374.49
371.84	280.86
372.04	269.16
372.24	341.72
372.44	325.33
372.63	362.78
372.83	374.49
373.03	334.70
373.22	278.52
373.42	297.25
373.62	407.25
373.81	407.25
374.01	348.74
374.21	376.83
374.40	386.19
374.60	428.32
374.79	360.44
374.99	393.21
375.19	358.10
375.38	461.09
375.58	409.59
375.78	477.47
375.97	437.68
376.17	407.25
376.37	372.15
376.56	433.00
376.76	334.70
376.95	500.87
377.15	479.81
377.35	430.66
377.54	575.77
377.74	440.02
377.93	442.36
378.13	421.30
378.33	477.47
378.52	479.81
378.72	418.96
378.91	397.89
379.11	411.93
379.31	376.83
379.50	430.66
379.70	447.04
379.89	479.81
380.09	514.92
380.28	421.30
380.48	528.96
380.68	447.04
380.87	454.06
381.07	484.49
381.26	512.58
381.46	493.85
381.65	507.90
381.85	498.53
382.04	449.38
382.24	514.92
382.43	468.11
382.63	433.00
382.83	552.37
383.02	524.28
383.22	582.79
383.41	531.30
383.61	543.00
383.80	559.39
384.00	496.19
384.19	568.75
384.39	561.73
384.58	528.96
384.78	573.43
384.97	615.56
385.17	643.65
385.36	528.96
385.56	599.18
385.75	528.96
385.95	592.16
386.14	620.24
386.34	629.60
386.53	617.90
386.72	592.16
386.92	615.56
387.11	697.48
387.31	645.99
387.50	498.53
387.70	617.90
387.89	557.05
388.09	603.86
388.28	580.45
388.48	575.77
388.67	699.82
388.86	615.56
389.06	643.65
389.25	664.71
389.45	636.63
389.64	678.76
389.84	777.06
390.03	744.29
390.22	706.84
390.42	678.76
390.61	667.05
390.81	688.12
391.00	631.94
391.19	755.99
391.39	753.65
391.58	718.54
391.78	723.23
391.97	772.38
392.16	847.27
392.36	753.65
392.55	779.40
392.75	861.32
392.94	674.07
393.13	755.99
393.33	695.14
393.52	772.38
393.71	936.21
393.91	746.63
394.10	833.23
394.29	873.02
394.49	833.23
394.68	903.45
394.88	938.55
395.07	856.64
395.26	866.00
395.46	877.70
395.65	929.19
395.84	889.40
396.04	959.62
396.23	866.00
396.42	866.00
396.62	938.55
396.81	919.83
397.00	943.24
397.19	947.92
397.39	968.98
397.58	889.40
397.77	1008.77
397.97	940.90
398.16	1064.94
398.35	1057.92
398.55	1020.47
398.74	1046.22
398.93	1064.94
399.12	1153.88
399.32	987.71
399.51	1020.47
399.70	1160.91
399.90	1057.92
400.09	1184.31
400.28	1160.91
400.47	1151.54
400.67	1135.16
400.86	1078.99
401.05	1191.33
401.24	1146.86
401.44	1217.08
401.63	1240.48
401.82	1263.89
402.01	1174.95
402.21	1139.84
402.40	1224.10
402.59	1252.19
402.78	1308.36
402.97	1301.34
403.17	1299.00
403.36	1224.10
403.55	1301.34
403.74	1359.85
403.93	1432.41
404.13	1369.21
404.32	1394.96
404.51	1366.87
404.70	1458.15
404.89	1371.55
405.09	1563.48
405.28	1411.34
405.47	1582.20
405.66	1502.62
405.85	1448.79
406.05	1441.77
406.24	1488.58
406.43	1556.46
406.62	1544.75
406.81	1668.80
407.00	1619.65
407.20	1514.33
407.39	1582.20
407.58	1586.88
407.77	1713.27
407.96	1788.17
408.15	1739.02
408.34	1678.16
408.54	1724.97
408.73	1692.21
408.92	1638.38
409.11	1736.68
409.30	1792.85
409.49	1788.17
409.68	1795.19
409.87	1874.77
410.07	1781.15
410.26	1846.68
410.45	1907.54
410.64	1844.34
410.83	1994.14
411.02	1916.90
411.21	1912.22
411.40	1984.77
411.59	2033.93
411.78	2040.95
411.98	1984.77
412.17	2040.95
412.36	2183.72
412.55	2237.55
412.74	2260.96
412.93	2078.40
413.12	2235.21
413.31	2260.96
413.50	2228.19
413.69	2310.11
413.88	2263.30
414.07	2377.98
414.26	2441.18
414.45	2342.88
414.64	2441.18
414.83	2490.33
415.02	2487.99
415.22	2590.97
415.41	2506.71
415.60	2527.78
415.79	2572.25
415.98	2623.74
416.17	2637.78
416.36	2637.78
416.55	2700.98
416.74	2724.38
416.93	2684.59
417.12	2778.22
417.31	2787.58
417.50	2766.51
417.69	2841.41
417.88	2904.60
418.07	2864.82
418.26	2918.65
418.45	2890.56
418.64	2918.65
418.83	2913.97
419.02	2932.69
419.21	3073.12
419.39	3047.38
419.58	3059.08
419.77	3080.14
419.96	2998.23
420.15	3112.91
420.34	3110.57
420.53	3141.00
420.72	3124.62
420.91	3190.15
421.10	3269.73
421.29	3293.13
421.48	3157.38
421.67	3239.30
421.86	3267.39
422.05	3325.90
422.24	3288.45
422.43	3428.88
422.61	3243.98
422.80	3328.24
422.99	3363.35
423.18	3403.14
423.37	3442.93
423.56	3440.59
423.75	3389.10
423.94	3339.94
424.13	3133.98
424.32	3155.04
424.50	3449.95
424.69	3449.95
424.88	3466.33
425.07	3368.03
425.26	3307.18
425.45	3501.44
425.64	3508.46
425.83	3393.78
426.01	3468.67
426.20	3466.33
426.39	3426.54
426.58	3571.66
426.77	3431.23
426.96	3520.17
427.15	3468.67
427.33	3482.72
427.52	3487.40
427.71	3503.78
427.90	3620.81
428.09	3662.94
428.28	3592.72
428.46	3775.28
428.65	3873.59
428.84	3808.05
429.03	3831.46
429.22	3634.85
429.40	3761.24
429.59	3751.88
429.78	3630.17
429.97	3604.42
430.16	3730.81
430.34	3796.35
430.53	3922.74
430.72	3896.99
430.91	3971.89
431.10	3913.38
431.28	4009.34
431.47	4011.68
431.66	4161.47
431.85	3843.16
432.03	4149.77
432.22	4215.30
432.41	4060.83
432.60	4180.20
432.79	4037.42
432.97	4126.36
433.16	4095.94
433.35	4191.90
433.54	4098.28
433.72	4273.82
433.91	4114.66
434.10	4222.33
434.28	4287.86
434.47	4241.05
434.66	4409.57
434.85	4365.10
435.03	4451.70
435.22	4741.93
435.41	4837.89
435.59	4809.80
435.78	4739.58
435.97	4631.92
436.16	4538.30
436.34	4442.34
436.53	4540.64
436.72	4718.52
436.90	4496.17
437.09	4594.47
437.28	4444.68
437.46	4603.83
437.65	4634.26
437.84	4702.14
438.02	4629.58
438.21	4685.75
438.40	4718.52
438.58	4882.36
438.77	4793.42
438.96	4865.97
439.14	4875.34
439.33	4875.34
439.52	5055.56
439.70	5004.07
439.89	5254.50
440.08	4931.51
440.26	5261.52
440.45	5214.71
440.63	5090.67
440.82	5170.24
441.01	5231.10
441.19	5327.06
441.38	5437.06
441.57	5437.06
441.75	5446.43
441.94	5439.40
442.12	5535.37
442.31	5514.30
442.50	5755.38
442.68	5591.54
442.87	5600.90
443.05	5621.97
443.24	5633.67
443.43	5483.88
443.61	5734.31
443.80	5696.86
443.98	5661.76
444.17	5446.43
444.35	5792.83
444.54	5853.68
444.73	5811.55
444.91	5717.93
445.10	5818.57
445.28	5682.82
445.47	5853.68
445.65	5797.51
445.84	5856.02
446.02	5884.11
446.21	5844.32
446.39	5865.38
446.58	6045.60
446.77	5825.59
446.95	5909.85
447.14	5809.21
447.32	5888.79
447.51	5966.03
447.69	5757.72
447.88	6001.13
448.06	5893.47
448.25	5940.28
448.43	5933.26
448.62	5923.90
448.80	6052.63
448.99	6038.58
449.17	6045.60
449.36	6162.63
449.54	6223.48
449.73	6218.80
449.91	6181.35
450.10	6207.10
450.28	6300.72
450.46	6169.65
450.65	6352.21
450.83	6150.93
451.02	6193.06
451.20	6466.90
451.39	6464.56
451.57	6258.59
451.76	6239.87
451.94	6422.43
452.13	6417.75
452.31	6429.45
452.49	6384.98
452.68	6387.32
452.86	6340.51
453.05	6541.80
453.23	6595.63
453.42	6492.65
453.60	6656.48
453.78	6607.33
453.97	6473.92
454.15	6509.03
454.34	6553.50
454.52	6775.85
454.70	6679.89
454.89	6729.04
455.07	6668.19
455.26	6820.32
455.44	7040.33
455.62	6789.89
455.81	6813.30
455.99	7056.72
456.17	6771.17
456.36	7056.72
456.54	7178.42
456.73	7213.53
456.91	7368.01
457.09	7166.72
457.28	7115.23
457.46	7211.19
457.64	7405.46
457.83	7403.11
458.01	7283.75
458.19	7396.09
458.38	7288.43
458.56	7396.09
458.74	7363.33
458.93	7180.76
459.11	7501.42
459.29	7440.56
459.48	7665.25
459.66	7449.93
459.84	7606.74
460.03	7742.49
460.21	7599.72
460.39	7634.83
460.57	7428.86
460.76	7620.78
460.94	7751.85
461.12	7770.58
461.31	7674.62
461.49	7688.66
461.67	7676.96
461.85	7770.58
462.04	7960.16
462.22	8044.42
462.40	8102.93
462.59	7880.58
462.77	8011.65
462.95	7946.12
463.13	8037.40
463.32	8140.38
463.50	8166.13
463.68	8187.19
463.86	8006.97
464.05	8112.30
464.23	8121.66
464.41	8124.00
464.59	7962.50
464.78	8196.56
464.96	8107.62
465.14	8243.37
465.32	8210.60
465.50	8362.73
465.69	8482.10
465.87	8121.66
466.05	8297.20
466.23	8280.82
466.41	8304.22
466.60	8659.98
466.78	8355.71
466.96	8390.82
467.14	8407.20
467.32	8395.50
467.51	8748.92
467.69	8526.57
467.87	8769.99
468.05	8585.08
468.23	8664.66
468.41	8613.17
468.60	8905.74
468.78	8812.12
468.96	8847.22
469.14	8716.16
469.32	8964.25
469.50	8805.10
469.69	9004.04
469.87	9064.89
470.05	9092.98
470.23	9137.45
470.41	8875.31
470.59	9167.88
470.77	9067.24
470.95	9291.93
471.14	9371.50
471.32	9242.78
471.50	9572.79
471.68	9373.85
471.86	9312.99
472.04	9439.38
472.22	9671.09
472.40	9474.49
472.58	9544.70
472.77	9586.83
472.95	9741.31
473.13	9954.30
473.31	9563.43
473.49	9912.17
473.67	9785.78
473.85	9797.48
474.03	9958.98
474.21	9926.21
474.39	10186.01
474.57	10139.20
474.75	10113.45
474.93	10218.78
475.12	10115.80
475.30	10422.41
475.48	10303.04
475.66	10368.57
475.84	10401.34
476.02	10530.07
476.20	10703.27
476.38	10567.52
476.56	11089.46
476.74	10963.07
476.92	11213.51
477.10	10902.22
477.28	11047.33
477.46	11033.29
477.64	11019.24
477.82	11391.39
478.00	11440.54
478.18	11576.29
478.36	11606.72
478.54	11751.83
478.72	11702.68
478.90	11936.73
479.08	11950.78
479.26	12091.21
479.44	12018.65
479.62	12147.38
479.80	12479.74
479.98	12299.52
480.16	12772.30
480.34	12592.08
480.52	12755.92
480.70	12847.20
480.88	12695.07
481.06	12802.73
481.24	12936.14
481.41	13212.32
481.59	12975.93
481.77	13341.05
481.95	13504.89
482.13	13408.93
482.31	13692.13
482.49	13687.45
482.67	13905.12
482.85	14019.81
483.03	14258.54
483.21	14359.19
483.39	14274.93
483.57	14438.76
483.74	14555.79
483.92	14569.83
484.10	14455.15
484.28	14792.19
484.46	15056.67
484.64	15550.52
484.82	15140.93
485.00	15419.45
485.18	15616.05
485.35	15730.74
485.53	15833.72
485.71	15903.94
485.89	16269.06
486.07	16182.46
486.25	16299.49
486.43	16161.40
486.61	16271.40
486.78	16762.92
486.96	16566.31
487.14	16992.29
487.32	16858.88
487.50	17247.41
487.68	16961.86
487.85	17362.09
488.03	17387.84
488.21	17666.36
488.39	17949.57
488.57	17949.57
488.75	18108.72
488.92	18295.97
489.10	18457.46
489.28	18370.86
489.46	18799.18
489.64	18511.30
489.81	19073.03
489.99	18860.04
490.17	18885.78
490.35	19115.16
490.53	19220.48
490.70	19522.41
490.88	19417.08
491.06	19742.42
491.24	19735.40
491.41	19878.17
491.59	19880.51
491.77	20109.88
491.95	20538.20
492.13	20676.29
492.30	20538.20
492.48	20669.27
492.66	20673.95
492.84	20493.73
493.01	21064.82
493.19	21455.69
493.37	21273.13
493.54	21310.58
493.72	21427.60
493.90	21259.09
494.08	21921.46
494.25	22001.04
494.43	21851.24
494.61	21968.27
494.79	22663.41
494.96	22448.08
495.14	22415.31
495.32	22838.95
495.49	22923.21
495.67	22960.66
495.85	22984.06
496.02	22988.74
496.20	23363.23
496.38	23489.62
496.55	23232.16
496.73	23953.04
496.91	23810.27
497.09	24189.44
497.26	24271.36
497.44	24081.77
497.62	23946.02
497.79	24477.32
497.97	24620.10
498.14	24830.74
498.32	24922.02
498.50	24861.17
498.67	25120.97
498.85	25078.84
499.03	25139.69
499.20	25043.73
499.38	25586.74
499.56	25586.74
499.73	25507.16
499.91	25701.42
500.08	25804.41
500.26	25855.90
500.44	25944.84
500.61	25846.54
500.79	26195.28
500.97	26178.89
501.14	26403.58
501.32	26497.20
501.49	26651.68
501.67	26555.72
501.84	26345.07
502.02	26817.86
502.20	26600.19
502.37	27089.36
502.55	27051.91
502.72	27206.39
502.90	26792.11
503.07	27239.15
503.25	27484.91
503.43	27381.93
503.60	27365.54
503.78	28025.57
503.95	27817.27
504.13	28088.77
504.30	27737.69
504.48	27983.44
504.65	28065.36
504.83	28308.78
505.01	28577.94
505.18	28421.13
505.36	28676.24
505.53	28430.49
505.71	28589.64
505.88	28790.93
506.06	28343.89
506.23	29139.67
506.41	28973.49
506.58	29387.77
506.76	29111.58
506.93	29275.42
507.11	29015.62
507.28	29432.24
507.46	29516.50
507.63	29764.59
507.81	29926.09
507.98	29663.95
508.16	29748.21
508.33	29970.56
508.50	29942.47
508.68	29909.71
508.85	30279.51
509.03	30162.48
509.20	30232.70
509.38	30623.57
509.55	30426.96
509.73	30827.20
509.90	30787.41
510.08	30820.17
510.25	30815.49
510.42	30892.73
510.60	31442.76
510.77	31545.74
510.95	31625.32
511.12	31110.40
511.30	31274.24
511.47	31473.18
511.64	31693.19
511.82	31672.13
511.99	31938.95
512.17	32151.94
512.34	31908.52
512.51	32041.93
512.69	32388.33
512.86	32149.60
513.04	32531.11
513.21	32512.38
513.38	32496.00
513.56	32514.72
513.73	32507.70
513.90	32638.77
514.08	32154.28
514.25	33149.01
514.43	33165.39
514.60	32739.41
514.77	33043.68
514.95	33359.66
515.12	32957.08
515.29	33193.48
515.47	33324.55
515.64	33802.02
515.81	33659.24
515.99	33977.56
516.16	33738.82
516.33	33769.25
516.51	33862.87
516.68	34141.39
516.85	34012.66
517.03	33963.51
517.20	34117.99
517.37	34197.57
517.54	34583.76
517.72	34464.39
517.89	34270.12
518.06	34387.15
518.24	34368.43
518.41	34440.98
518.58	35093.99
518.75	34642.27
518.93	35306.98
519.10	35133.78
519.27	35126.76
519.45	34672.70
519.62	35185.27
519.79	35421.67
519.96	35534.01
520.14	35545.72
520.31	35386.56
520.48	35929.56
520.65	35807.86
520.83	35707.21
521.00	35814.88
521.17	35515.29
521.34	35784.45
521.52	35967.01
521.69	36430.44
521.86	36273.62
522.03	36414.05
522.20	36519.38
522.38	36746.41
522.55	36409.37
522.72	36613.00
522.89	37008.55
523.07	37212.18
523.24	36542.78
523.41	37170.05
523.58	36999.19
523.75	37553.90
523.92	36861.10
524.10	37123.24
524.27	37694.33
524.44	37914.34
524.61	37486.02
524.78	37771.57
524.96	37682.62
525.13	37479.00
525.30	37649.86
525.47	37806.67
525.64	37764.54
525.81	37691.99
525.98	38176.48
526.16	38101.58
526.33	37970.51
526.50	38543.94
526.67	37848.80
526.84	37986.89
527.01	37766.88
527.18	38059.45
527.36	38665.65
527.53	38792.04
527.70	39100.99
527.87	39005.03
528.04	38792.04
528.21	38789.70
528.38	38728.84
528.55	39000.35
528.72	39175.89
528.89	39047.16
529.07	38972.26
529.24	39236.74
529.41	39234.40
529.58	38974.60
529.75	39526.97
529.92	39508.24
530.09	39260.15
530.26	39672.08
530.43	39711.87
530.60	39313.98
530.77	39400.58
530.94	39309.30
531.11	39749.32
531.28	39482.50
531.46	39601.86
531.63	40116.78
531.80	40020.82
531.97	40334.45
532.14	40114.44
532.31	39723.57
532.48	39885.07
532.65	40643.40
532.82	40336.79
532.99	40259.55
533.16	40378.92
533.33	40706.60
533.50	40505.31
533.67	40765.11
533.84	40313.39
534.01	40727.66
534.18	40477.22
534.35	40865.75
534.52	40704.26
534.69	41214.49
534.86	41172.36
535.03	40699.58
535.20	41174.70
535.37	41053.00
535.54	41322.16
535.71	40884.48
535.88	40856.39
536.05	41155.98
536.22	41778.56
536.38	41750.48
536.55	41310.46
536.72	41588.98
536.89	41586.64
537.06	41137.26
537.23	41670.90
537.40	41808.99
537.57	42045.38
537.74	41289.39
537.91	42029.00
538.08	41958.78
538.25	42000.91
538.42	41860.48
538.59	42508.81
538.75	41890.91
538.92	42122.62
539.09	42377.74
539.26	42321.57
539.43	42749.88
539.60	42499.45
539.77	42684.35
539.94	42466.68
540.11	42314.55
540.28	42777.97
540.44	42895.00
540.61	42850.53
540.78	42511.15
540.95	43269.48
541.12	43093.94
541.29	43159.48
541.46	43292.89
541.62	43267.14
541.79	43267.14
541.96	43587.80
542.13	42876.27
542.30	43159.48
542.47	43639.29
542.63	43449.70
542.80	43831.21
542.97	44020.80
543.14	44215.06
543.31	43400.55
543.48	43688.44
543.64	44519.33
543.81	44025.48
543.98	44371.88
544.15	44304.00
544.32	44699.55
544.48	45038.93
544.65	44128.46
544.82	44402.30
544.99	43571.41
545.16	44498.26
545.32	44163.57
545.49	45102.12
545.66	45303.41
545.83	45443.84
546.00	45282.34
546.16	45380.65
546.33	44430.39
546.50	43938.88
546.67	44542.74
546.83	44385.92
547.00	44278.25
547.17	44774.45
547.34	44957.01
547.50	44744.02
547.67	45045.95
547.84	44966.37
548.00	45052.97
548.17	44669.12
548.34	44928.92
548.51	45029.57
548.67	45272.98
548.84	45436.82
549.01	45029.57
549.18	45139.57
549.34	44758.06
549.51	44935.95
549.68	45390.01
549.84	44858.71
550.01	45336.18
550.18	44870.41
550.34	44989.78
550.51	45883.86
550.68	45914.29
550.84	45214.47
551.01	45694.28
551.18	45067.02
551.34	45340.86
551.51	45532.78
551.68	45907.27
551.84	45855.78
552.01	45343.20
552.18	45642.79
552.34	45315.11
552.51	46014.93
552.68	45584.27
552.84	45705.98
553.01	45860.46
553.18	46124.94
553.34	45825.35
553.51	46050.04
553.67	46092.17
553.84	46513.47
554.01	45944.72
554.17	45886.20
554.34	46073.45
554.51	45820.67
554.67	46366.01
554.84	46178.77
555.00	46197.49
555.17	46225.58
555.33	46197.49
555.50	46707.73
555.67	46382.40
555.83	45909.61
556.00	46171.75
556.16	46817.74
556.33	46059.40
556.50	46277.07
556.66	46777.95
556.83	46567.30
556.99	46679.64
557.16	46560.28
557.32	46557.94
557.49	46597.73
557.65	45935.35
557.82	46373.03
557.98	46534.53
558.15	46703.05
558.32	46822.42
558.48	46880.93
558.65	46967.53
558.81	46855.18
558.98	46937.10
559.14	46817.74
559.31	46735.82
559.47	46574.32
559.64	47009.66
559.80	46829.44
559.97	46843.48
560.13	46749.86
560.30	47019.02
560.46	47255.42
560.63	47260.10
560.79	47484.79
560.96	47192.22
561.12	47124.35
561.29	47543.30
561.45	47332.65
561.61	47334.99
561.78	47215.63
561.94	47356.06
562.11	47236.69
562.27	47363.08
562.44	47573.73
562.60	47217.97
562.77	47281.16
562.93	46768.58
563.10	47421.59
563.26	47189.88
563.42	47746.93
563.59	47367.76
563.75	47157.11
563.92	47632.24
564.08	47093.92
564.24	46911.36
564.41	47477.77
564.57	47133.71
564.74	47327.97
564.90	47643.94
565.07	47393.51
565.23	47641.60
565.39	47538.62
565.56	47927.15
565.72	47140.73
565.88	47412.23
566.05	47409.89
566.21	47157.11
566.38	47552.66
566.54	47643.94
566.70	47758.63
566.87	47861.61
567.03	48067.58
567.19	48074.60
567.36	47730.54
567.52	47952.90
567.68	47545.64
567.85	47615.86
568.01	47693.10
568.17	47725.86
568.34	47948.21
568.50	47983.32
568.66	47503.51
568.83	48147.16
568.99	47700.12
569.15	47636.92
569.32	47721.18
569.48	47557.35
569.64	47842.89
569.81	47810.12
569.97	47878.00
570.13	47854.59
570.30	47796.08
570.46	47889.70
570.62	47915.45
570.78	47789.06
570.95	47468.40
571.11	47648.63
571.27	47955.24
571.43	47770.33
571.60	47412.23
571.76	47543.30
571.92	48013.75
572.09	47861.61
572.25	47842.89
572.41	48004.39
572.57	47849.91
572.74	48051.20
572.90	47632.24
573.06	47714.16
573.22	48032.47
573.38	47976.30
573.55	48186.95
573.71	48409.30
573.87	48446.75
574.03	48140.14
574.20	48215.04
574.36	47856.93
574.52	47976.30
574.68	47875.66
574.84	47938.85
575.01	48247.80
575.17	48144.82
575.33	48053.54
575.49	48004.39
575.65	48168.22
575.82	48046.52
575.98	48219.72
576.14	47782.04
576.30	47941.19
576.46	48226.74
576.62	48444.41
576.79	48130.78
576.95	48013.75
577.11	48355.47
577.27	48437.39
577.43	48264.19
577.59	48327.38
577.75	48121.41
577.92	47824.17
578.08	47868.64
578.24	48355.47
578.40	48348.45
578.56	48144.82
578.72	48601.22
578.88	48673.78
579.04	48851.66
579.21	48500.58
579.37	48357.81
579.53	48289.93
579.69	48133.12
579.85	47997.37
580.01	48102.69
580.17	48561.44
580.33	48364.83
580.49	48200.99
580.65	48545.05
580.82	48453.77
580.98	48264.19
581.14	48535.69
581.30	48165.88
581.46	48219.72
581.62	48179.93
581.78	48067.58
581.94	48732.29
582.10	48294.61
582.26	48378.87
582.42	48285.25
582.58	48362.49
582.74	48713.57
582.90	48451.43
583.06	48528.67
583.22	48083.97
583.38	48306.32
583.54	48107.37
583.70	48215.04
583.86	48086.31
584.02	48247.80
584.18	48573.14
584.34	48240.78
584.50	48374.19
584.66	48512.28
584.82	48116.73
584.98	48507.60
585.14	48212.70
585.30	48196.31
585.46	48395.26
585.62	48273.55
585.78	48549.73
585.94	48273.55
586.10	48329.72
586.26	48498.24
586.42	48868.05
586.58	48858.68
586.74	48858.68
586.90	48540.37
587.06	48411.64
587.22	48652.72
587.38	48556.75
587.54	48360.15
587.70	48615.27
587.86	48582.50
588.02	48664.42
588.18	49109.12
588.34	48552.07
588.49	48418.66
588.65	48217.38
588.81	48465.47
588.97	48435.05
589.13	48498.24
589.29	48573.14
589.45	48727.61
589.61	48790.81
589.77	48994.43
589.93	48657.40
590.08	48914.86
590.24	48765.06
590.40	49184.02
590.56	48830.60
590.72	48662.08
590.88	48598.88
591.04	48669.10
591.20	48971.03
591.35	48650.38
591.51	48985.07
591.67	48755.70
591.83	49064.65
591.99	48704.21
592.15	48858.68
592.31	49191.04
592.46	48870.39
592.62	48949.96
592.78	48954.64
592.94	48767.40
593.10	48739.32
593.26	49111.46
593.41	48926.56
593.57	48542.71
593.73	48849.32
593.89	49148.91
594.05	49202.74
594.20	49059.97
594.36	48971.03
594.52	48954.64
594.68	48631.65
594.84	48865.70
594.99	48996.77
595.15	49109.12
595.31	48832.94
595.47	48905.49
595.62	48959.33
595.78	49066.99
595.94	49027.20
596.10	48729.95
596.25	49160.61
596.41	48624.63
596.57	48900.81
596.73	49076.35
596.88	48861.02
597.04	49488.29
597.20	49361.90
597.36	49301.04
597.51	49127.84
597.67	49134.87
597.83	48879.75
597.99	49282.32
598.14	48608.25
598.30	48816.55
598.46	49038.90
598.61	49212.10
598.77	48762.72
598.93	48926.56
599.09	49460.20
599.24	49504.67
599.40	49553.82
599.56	49310.41
599.71	49162.95
599.87	49165.29
600.03	49015.50
600.18	49336.15
600.34	48776.76
600.50	49305.73
600.65	49062.31
600.81	49521.05
600.97	49329.13
601.12	49361.90
601.28	49507.01
601.44	48870.39
601.59	49146.57
601.75	49045.93
601.91	49010.82
602.06	48769.74
602.22	49041.24
602.37	48631.65
602.53	48933.58
602.69	49083.37
602.84	49219.13
603.00	49270.62
603.16	49162.95
603.31	49233.17
603.47	48708.89
603.62	49066.99
603.78	49165.29
603.94	48898.47
604.09	49177.00
604.25	49038.90
604.40	48830.60
604.56	49024.86
604.71	49244.87
604.87	49020.18
605.03	49022.52
605.18	49277.64
605.34	49350.20
605.49	48666.76
605.65	48884.43
605.80	48374.19
605.96	48715.91
606.12	48488.88
606.27	49294.02
606.43	48608.25
606.58	48835.28
606.74	49078.69
606.89	48954.64
607.05	48971.03
607.20	48940.60
607.36	48523.99
607.51	48498.24
607.67	48952.30
607.82	48905.49
607.98	48622.29
608.13	49116.14
608.29	48718.25
608.44	48928.90
608.60	48865.70
608.75	49081.03
608.91	49055.29
609.06	48584.84
609.22	49127.84
609.37	48200.99
609.53	48531.01
609.68	48161.20
609.84	48432.71
609.99	49059.97
610.15	48807.19
610.30	49083.37
610.46	48715.91
610.61	49184.02
610.76	49279.98
610.92	49366.58
611.07	49551.48
611.23	49420.41
611.38	49354.88
611.54	48968.69
611.69	48753.36
611.84	48807.19
612.00	48418.66
612.15	48636.33
612.31	48816.55
612.46	48488.88
612.62	48528.67
612.77	48765.06
612.92	48842.30
613.08	48694.85
613.23	48996.77
613.39	48568.46
613.54	48105.03
613.69	47962.26
613.85	48350.79
614.00	48252.48
614.15	48528.67
614.31	48215.04
614.46	48453.77
614.62	48451.43
614.77	48196.31
614.92	48004.39
615.08	48383.55
615.23	48210.35
615.38	48079.28
615.54	47683.73
615.69	47634.58
615.84	47962.26
616.00	48163.54
616.15	48135.46
616.30	48442.07
616.46	47948.21
616.61	47889.70
616.76	48130.78
616.92	48081.63
617.07	48037.16
617.22	47634.58
617.37	47473.09
617.53	48025.45
617.68	47468.40
617.83	47466.06
617.99	47285.84
618.14	47796.08
618.29	47695.44
618.45	47772.67
618.60	47657.99
618.75	47625.22
618.90	47672.03
619.06	47536.28
619.21	47398.19
619.36	47358.40
619.51	47398.19
619.67	47117.32
619.82	47430.96
619.97	47803.10
620.12	47210.95
620.28	47196.90
620.43	47480.11
620.58	47718.84
620.73	47313.93
620.89	47571.39
621.04	47760.97
621.19	47288.18
621.34	47327.97
621.49	47049.45
621.65	46887.95
621.80	47377.12
621.95	46927.74
622.10	46986.25
622.25	46852.84
622.41	46740.50
622.56	46920.72
622.71	47178.18
622.86	47356.06
623.01	47084.56
623.16	47063.49
623.32	46958.17
623.47	47082.22
623.62	47131.37
623.77	46990.94
623.92	47360.74
624.07	46937.10
624.23	46962.85
624.38	47494.15
624.53	46579.00
624.68	46761.56
624.83	47206.26
624.98	46408.14
625.13	46951.15
625.29	46639.86
625.44	46431.55
625.59	46696.03
625.74	46169.41
625.89	46141.32
626.04	45876.84
626.19	46628.15
626.34	46403.46
626.49	46356.65
626.65	46569.64
626.80	46770.93
626.95	46291.12
627.10	46089.83
627.25	46134.30
627.40	46108.55
627.55	45989.19
627.70	46033.66
627.85	46246.65
628.00	45230.85
628.15	46038.34
628.30	45633.42
628.45	45759.81
628.60	45792.58
628.76	46260.69
628.91	46092.17
629.06	46136.64
629.21	46363.67
629.36	46160.05
629.51	45727.05
629.66	45846.41
629.81	45991.53
629.96	45689.60
630.11	45296.39
630.26	45794.92
630.41	45675.55
630.56	45982.16
630.71	46010.25
630.86	45815.99
631.01	45797.26
631.16	45783.22
631.31	45666.19
631.46	45600.66
631.61	45731.73
631.76	45612.36
631.91	45530.44
632.06	45450.86
632.21	45085.74
632.36	45371.28
632.51	44912.54
632.66	45333.84
632.81	45450.86
632.96	45336.18
633.10	45123.19
633.25	45361.92
633.40	45123.19
633.55	45610.02
633.70	45289.37
633.85	45109.14
634.00	44931.26
634.15	45003.82
634.30	44704.23
634.45	44910.20
634.60	45071.70
634.75	44847.00
634.90	44715.93
635.05	45256.60
635.19	45488.31
635.34	45064.67
635.49	45247.24
635.64	44830.62
635.79	44652.74
635.94	44900.84
636.09	44741.68
636.24	44835.30
636.39	44509.97
636.53	44612.95
636.68	44376.56
636.83	43959.94
636.98	44910.20
637.13	44453.79
637.28	44697.21
637.43	44587.21
637.57	44580.18
637.72	44472.52
637.87	44453.79
638.02	44844.66
638.17	44561.46
638.32	44037.18
638.46	44563.80
638.61	44076.97
638.76	44205.70
638.91	44318.04
639.06	44311.02
639.20	44219.74
639.35	44540.39
639.50	43519.92
639.65	44357.83
639.80	44048.88
639.94	44233.78
640.09	43772.70
640.24	43819.51
640.39	44025.48
640.54	43728.23
640.68	44196.34
640.83	43955.26
640.98	44091.01
641.13	43100.97
641.27	44341.45
641.42	43784.40
641.57	43873.34
641.72	43997.39
641.86	43800.79
642.01	43882.70
642.16	43875.68
642.31	43325.66
642.45	43232.04
642.60	43587.80
642.75	43627.59
642.90	43697.80
643.04	43709.50
643.19	43587.80
643.34	43742.27
643.48	43180.54
643.63	43473.11
643.78	43700.14
643.93	43503.54
644.07	43690.78
644.22	43761.00
644.37	42726.48
644.51	43428.64
644.66	43512.90
644.81	43576.09
644.95	43473.11
645.10	43070.54
645.25	43402.89
645.39	43306.93
645.54	43180.54
645.69	43047.13
645.83	43292.89
645.98	42838.83
646.13	43117.35
646.27	43665.03
646.42	42983.94
646.57	43330.34
646.71	43538.65
646.86	43430.98
647.00	43042.45
647.15	42838.83
647.30	43267.14
647.44	42813.08
647.59	42871.59
647.74	42871.59
647.88	42876.27
648.03	42813.08
648.17	43220.33
648.32	42857.55
648.47	43035.43
648.61	42564.98
648.76	42841.17
648.90	42511.15
649.05	42487.74
649.20	42344.97
649.34	43147.78
649.49	42447.96
649.63	42124.96
649.78	42607.11
649.92	42122.62
650.07	42761.59
650.21	42974.58
650.36	42354.33
650.51	42445.62
650.65	42267.73
650.80	42569.66
650.94	42436.25
651.09	41633.45
651.23	42361.36
651.38	42131.98
651.52	41565.57
651.67	41937.72
651.81	42167.09
651.96	42251.35
652.10	41797.29
652.25	42146.03
652.39	42106.24
652.54	42454.98
652.68	42150.71
652.83	42281.78
652.97	42249.01
653.12	42239.65
653.26	42300.50
653.41	42073.47
653.55	41565.57
653.70	41411.10
653.84	42178.79
653.99	42099.22
654.13	41677.92
654.27	41858.14
654.42	41315.14
654.56	41687.28
654.71	41848.78
654.85	41411.10
655.00	41757.50
655.14	41378.33
655.29	41345.56
655.43	41525.78
655.57	41270.67
655.72	41261.30
655.86	41333.86
656.01	41359.61
656.15	40912.56
656.30	41453.23
656.44	41083.42
656.58	41500.04
656.73	40971.08
656.87	41144.28
657.01	41247.26
657.16	41361.95
657.30	41406.42
657.45	41415.78
657.59	41174.70
657.73	41050.66
657.88	41034.27
658.02	40926.61
658.16	41134.92
658.31	40334.45
658.45	40704.26
658.60	40868.09
658.74	40610.64
658.88	41050.66
659.03	40671.49
659.17	40818.94
659.31	40601.27
659.46	40556.80
659.60	40591.91
659.74	40552.12
659.89	40760.43
660.03	40547.44
660.17	40278.28
660.32	40374.24
660.46	40301.68
660.60	40079.33
660.74	40105.08
660.89	39966.99
661.03	39225.04
661.17	39864.00
661.32	39679.10
661.46	39810.17
661.60	39798.47
661.74	40395.31
661.89	39999.76
662.03	39885.07
662.17	39826.56
662.31	39159.50
662.46	39803.15
662.60	39793.79
662.74	39494.20
662.88	39445.05
663.03	39578.46
663.17	39026.09
663.31	38675.01
663.45	39526.97
663.60	39295.25
663.74	39044.82
663.88	39215.68
664.02	39468.45
664.17	39297.59
664.31	38700.76
664.45	38782.68
664.59	38946.51
664.73	38745.23
664.88	38916.09
665.02	38476.07
665.16	38508.83
665.30	38770.97
665.44	38494.79
665.59	38052.43
665.73	38391.81
665.87	38164.78
666.01	38572.03
666.15	38251.38
666.29	38637.56
666.44	38356.70
666.58	38005.62
666.72	38061.79
666.86	38050.09
667.00	38597.77
667.14	38162.43
667.28	38359.04
667.43	37783.27
667.57	37949.45
667.71	37467.30
667.85	37530.49
667.99	37589.00
668.13	37420.48
668.27	37130.26
668.41	37455.59
668.56	36973.44
668.70	37628.79
668.84	37216.86
668.98	37511.77
669.12	37361.97
669.26	37706.03
669.40	37649.86
669.54	36961.74
669.68	36781.52
669.82	36304.05
669.96	36381.29
670.10	36542.78
670.25	36662.15
670.39	36708.96
670.53	36685.56
670.67	36304.05
670.81	36891.52
670.95	36664.49
671.09	36519.38
671.23	36840.03
671.37	35959.99
671.51	36507.68
671.65	36582.57
671.79	36318.09
671.93	36203.41
672.07	35969.35
672.21	35775.09
672.35	35845.30
672.49	35978.72
672.63	35585.50
672.77	35517.63
672.91	35435.71
673.05	35466.14
673.19	35618.27
673.33	35349.11
673.47	35625.29
673.61	35246.13
673.75	35508.27
673.89	35115.06
674.03	34794.40
674.17	34698.44
674.31	34625.89
674.45	34691.42
674.59	34932.50
674.73	34698.44
674.87	34340.34
675.01	34630.57
675.15	34328.64
675.29	34487.79
675.43	34309.91
675.56	34141.39
675.70	34637.59
675.84	34452.69
675.98	33497.75
676.12	34497.16
676.26	34387.15
676.40	33874.57
676.54	34448.00
676.68	33930.75
676.82	33036.66
676.96	33584.35
677.10	33453.28
677.23	33132.62
677.37	33212.20
677.51	32830.69
677.65	32968.79
677.79	32863.46
677.93	33060.07
678.07	32952.40
678.21	32119.17
678.34	32332.16
678.48	32488.98
678.62	32304.07
678.76	32203.43
678.90	31842.99
679.04	32046.62
679.18	31782.13
679.31	31842.99
679.45	31737.66
679.59	31552.76
679.73	31381.90
679.87	31463.82
680.00	31232.11
680.14	31463.82
680.28	31318.71
680.42	31496.59
680.56	31269.56
680.70	31318.71
680.83	31058.91
680.97	30890.39
681.11	31026.14
681.25	31061.25
681.39	30834.22
681.52	31047.21
681.66	30724.21
681.80	30087.59
681.94	30590.80
682.07	30433.99
682.21	30075.88
682.35	29790.34
682.49	29441.60
682.62	29352.66
682.76	29614.80
682.90	29457.98
683.04	29420.53
683.17	29352.66
683.31	29392.45
683.45	29635.86
683.59	28889.23
683.72	29209.89
683.86	28907.96
684.00	28900.94
684.13	28758.16
684.27	28685.61
684.41	28517.09
684.55	28589.64
684.68	28339.21
684.82	28224.52
684.96	28187.07
685.09	27854.72
685.23	27957.70
685.37	28250.27
685.50	28006.85
685.64	28201.11
685.78	28063.02
685.91	27669.81
686.05	27482.57
686.19	27435.76
686.32	27674.49
686.46	27180.64
686.60	27241.50
686.73	27267.24
686.87	27016.80
687.01	26829.56
687.14	26560.40
687.28	27009.78
687.42	26586.15
687.55	26338.05
687.69	26593.17
687.82	26307.62
687.96	26464.44
688.10	26293.58
688.23	26466.78
688.37	26338.05
688.50	25912.07
688.64	25851.22
688.78	25998.67
688.91	25865.26
689.05	25816.11
689.18	25748.23
689.32	25151.40
689.46	25039.05
689.59	25301.19
689.73	25137.35
689.86	25106.93
690.00	25179.48
690.13	24868.19
690.27	24844.79
690.41	25184.16
690.54	24664.57
690.68	24751.17
690.81	24556.90
690.95	24573.28
691.08	24847.13
691.22	24561.58
691.35	23917.93
691.49	24341.57
691.62	24025.60
691.76	23828.99
691.89	23559.83
692.03	23419.40
692.16	23515.36
692.30	23250.88
692.43	23342.16
692.57	23318.76
692.70	23070.66
692.84	23449.83
692.97	22977.04
693.11	22848.31
693.24	22733.62
693.38	22534.68
693.51	22782.77
693.65	22742.99
693.78	22366.16
693.92	22389.56
694.05	22794.48
694.19	22422.33
694.32	22237.43
694.45	22054.87
694.59	21972.95
694.72	21682.72
694.86	22015.08
694.99	21699.11
695.13	21678.04
695.26	21481.44
695.39	21579.74
695.53	21488.46
695.66	21207.59
695.80	21476.76
695.93	21135.04
696.07	21160.78
696.20	21130.36
696.33	20917.37
696.47	20739.49
696.60	21137.38
696.73	20898.64
696.87	20781.62
697.00	20463.30
697.14	20835.45
697.27	20357.98
697.40	20144.99
697.54	20137.97
697.67	19906.26
697.80	20173.08
697.94	19639.44
698.07	19639.44
698.21	19508.37
698.34	19613.69
698.47	19772.85
698.61	19510.71
698.74	19515.39
698.87	19599.65
699.01	19494.32
699.14	19283.67
699.27	19283.67
699.40	18855.36
699.54	18834.29
699.67	19019.19
699.80	18628.32
699.94	18473.85
700.07	18490.23
700.20	18047.87
700.34	18211.71
700.47	18178.94
700.60	18593.22
700.73	18265.54
700.87	18319.37
701.00	17839.56
701.13	17933.18
701.26	17769.35
701.40	18059.57
701.53	17802.11
701.66	17624.23
701.79	17921.48
701.93	17680.41
702.06	17549.34
702.19	17376.14
702.32	17551.68
702.46	17561.04
702.59	17207.62
702.72	16938.46
702.85	17041.44
702.99	16870.58
703.12	16552.27
703.25	16601.42
703.38	17041.44
703.51	16877.60
703.65	16840.15
703.78	16798.02
703.91	16329.92
704.04	16308.85
704.17	16589.72
704.31	16187.14
704.44	16109.91
704.57	16072.46
704.70	15915.64
704.83	15974.16
704.96	15578.61
705.10	15620.74
705.23	15616.05
>>>>>End Processed Spectral Data<<<<<
