SpectraSuite Data File
++++++++++++++++++++++++++++++++++++
Date: Tue Oct 01 18:27:29 GMT-05:00 2013
User: stostad
Dark Spectrum Present: No
Reference Spectrum Present: No
Number of Sampled Component Spectra: 1
Spectrometers: USB2+H05261
Integration Time (usec): 100000 (USB2+H05261)
Spectra Averaged: 1 (USB2+H05261)
Boxcar Smoothing: 0 (USB2+H05261)
Correct for Electrical Dark: No (USB2+H05261)
Strobe/Lamp Enabled: No (USB2+H05261)
Correct for Detector Non-linearity: No (USB2+H05261)
Correct for Stray Light: No (USB2+H05261)
Number of Pixels in Processed Spectrum: 2048
>>>>>Begin Processed Spectral Data<<<<<
365.73	58.51
365.92	58.51
366.12	58.51
366.32	0.00
366.52	0.00
366.72	42.13
366.91	0.00
367.11	0.00
367.31	0.00
367.51	0.00
367.70	16.38
367.90	0.00
368.10	0.00
368.30	0.00
368.49	0.00
368.69	9.36
368.89	0.00
369.09	77.24
369.28	21.06
369.48	7.02
369.68	60.85
369.87	2.34
370.07	9.36
370.27	37.45
370.47	93.62
370.66	236.39
370.86	283.20
371.06	386.19
371.25	376.83
371.45	299.59
371.65	425.98
371.84	383.85
372.04	322.99
372.24	383.85
372.44	292.57
372.63	404.91
372.83	440.02
373.03	395.55
373.22	388.53
373.42	374.49
373.62	421.30
373.81	386.19
374.01	418.96
374.21	454.06
374.40	428.32
374.60	559.39
374.79	407.25
374.99	437.68
375.19	486.83
375.38	430.66
375.58	465.77
375.78	531.30
375.97	500.87
376.17	444.70
376.37	461.09
376.56	493.85
376.76	498.53
376.95	517.26
377.15	491.51
377.35	615.56
377.54	416.62
377.74	496.19
377.93	479.81
378.13	500.87
378.33	521.94
378.52	524.28
378.72	521.94
378.91	547.69
379.11	550.03
379.31	512.58
379.50	486.83
379.70	547.69
379.89	528.96
380.09	475.13
380.28	552.37
380.48	585.13
380.68	514.92
380.87	503.22
381.07	585.13
381.26	631.94
381.46	592.16
381.65	596.84
381.85	552.37
382.04	582.79
382.24	641.31
382.43	629.60
382.63	589.82
382.83	603.86
383.02	613.22
383.22	636.63
383.41	596.84
383.61	624.92
383.80	685.78
384.00	589.82
384.19	667.05
384.39	669.39
384.58	631.94
384.78	692.80
384.97	645.99
385.17	561.73
385.36	610.88
385.56	650.67
385.75	585.13
385.95	720.88
386.14	702.16
386.34	732.59
386.53	767.70
386.72	739.61
386.92	730.25
387.11	692.80
387.31	770.04
387.50	669.39
387.70	606.20
387.89	704.50
388.09	699.82
388.28	737.27
388.48	667.05
388.67	788.76
388.86	774.72
389.06	784.08
389.25	744.29
389.45	828.55
389.64	772.38
389.84	840.25
390.03	784.08
390.22	805.14
390.42	791.10
390.61	734.93
390.81	823.87
391.00	835.57
391.19	812.17
391.39	805.14
391.58	875.36
391.78	791.10
391.97	821.53
392.16	835.57
392.36	940.90
392.55	887.06
392.75	856.64
392.94	851.96
393.13	873.02
393.33	866.00
393.52	837.91
393.71	926.85
393.91	917.49
394.10	933.87
394.29	1013.45
394.49	915.15
394.68	1015.79
394.88	940.90
395.07	947.92
395.26	971.32
395.46	936.21
395.65	1034.52
395.84	943.24
396.04	1078.99
396.23	938.55
396.42	1111.75
396.62	1041.54
396.81	1095.37
397.00	1093.03
397.19	1128.14
397.39	1090.69
397.58	1027.50
397.77	1107.07
397.97	1228.78
398.16	1172.61
398.35	1172.61
398.55	1100.05
398.74	1165.59
398.93	1139.84
399.12	1172.61
399.32	1191.33
399.51	1158.57
399.70	1259.21
399.90	1193.67
400.09	1231.12
400.28	1362.19
400.47	1282.61
400.67	1252.19
400.86	1296.66
401.05	1291.98
401.24	1341.13
401.44	1291.98
401.63	1352.83
401.82	1380.92
402.01	1338.79
402.21	1324.74
402.40	1399.64
402.59	1409.00
402.78	1380.92
402.97	1313.04
403.17	1483.90
403.36	1430.07
403.55	1500.28
403.74	1530.71
403.93	1584.54
404.13	1509.65
404.32	1523.69
404.51	1486.24
404.70	1516.67
404.89	1516.67
405.09	1596.25
405.28	1593.90
405.47	1703.91
405.66	1724.97
405.85	1729.66
406.05	1696.89
406.24	1657.10
406.43	1710.93
406.62	1816.26
406.81	1760.08
407.00	1727.32
407.20	1687.53
407.39	1661.78
407.58	1884.13
407.77	1846.68
407.96	1905.20
408.15	1849.02
408.34	1783.49
408.54	1940.30
408.73	2031.58
408.92	2003.50
409.11	1895.83
409.30	1977.75
409.49	1994.14
409.68	2043.29
409.87	2066.69
410.07	2066.69
410.26	2054.99
410.45	2036.27
410.64	2022.22
410.83	2303.09
411.02	2169.68
411.21	2256.28
411.40	2251.60
411.59	2174.36
411.78	2211.81
411.98	2260.96
412.17	2305.43
412.36	2338.20
412.55	2417.77
412.74	2413.09
412.93	2457.56
413.12	2392.03
413.31	2452.88
413.50	2366.28
413.69	2480.97
413.88	2626.08
414.07	2595.65
414.26	2621.40
414.45	2602.68
414.64	2600.34
414.83	2579.27
415.02	2555.86
415.22	2836.73
415.41	2820.35
415.60	2663.53
415.79	2836.73
415.98	2869.50
416.17	2853.11
416.36	2928.01
416.55	2935.03
416.74	2949.08
416.93	2827.37
417.12	2930.35
417.31	3094.19
417.50	3110.57
417.69	3030.99
417.88	3129.30
418.07	3180.79
418.26	3084.83
418.45	3251.00
418.64	3258.03
418.83	3243.98
419.02	3316.54
419.21	3211.22
419.39	3321.22
419.58	3286.11
419.77	3258.03
419.96	3452.29
420.15	3328.24
420.34	3323.56
420.53	3382.07
420.72	3330.58
420.91	3585.70
421.10	3574.00
421.29	3531.87
421.48	3435.91
421.67	3552.93
421.86	3534.21
422.05	3503.78
422.24	3417.18
422.43	3618.47
422.61	3653.58
422.80	3620.81
422.99	3492.08
423.18	3531.87
423.37	3576.34
423.56	3695.71
423.75	3583.36
423.94	3510.80
424.13	3410.16
424.32	3475.70
424.50	3552.93
424.69	3644.21
424.88	3719.11
425.07	3517.83
425.26	3641.87
425.45	3620.81
425.64	3676.98
425.83	3815.07
426.01	3833.80
426.20	3768.26
426.39	3735.50
426.58	3695.71
426.77	3747.20
426.96	3838.48
427.15	3845.50
427.33	3859.54
427.52	3875.93
427.71	3808.05
427.90	3885.29
428.09	4077.21
428.28	3840.82
428.46	3960.19
428.65	4149.77
428.84	4102.96
429.03	4056.15
429.22	3901.67
429.40	4102.96
429.59	4060.83
429.78	3885.29
429.97	3981.25
430.16	3985.93
430.34	4175.52
430.53	4217.65
430.72	4348.72
430.91	4152.11
431.10	4201.26
431.28	4229.35
431.47	4332.33
431.66	4402.55
431.85	4231.69
432.03	4484.47
432.22	4461.06
432.41	4358.08
432.60	4264.46
432.79	4404.89
432.97	4631.92
433.16	4351.06
433.35	4484.47
433.54	4542.98
433.72	4517.23
433.91	4531.28
434.10	4533.62
434.28	4603.83
434.47	4702.14
434.66	4540.64
434.85	4610.86
435.03	4650.64
435.22	4685.75
435.41	4882.36
435.59	4807.46
435.78	4840.23
435.97	4833.21
436.16	4905.76
436.34	4744.27
436.53	4746.61
436.72	5018.11
436.90	4730.22
437.09	4880.02
437.28	4739.58
437.46	4875.34
437.65	4887.04
437.84	4821.50
438.02	5062.58
438.21	5102.37
438.40	5046.20
438.58	5104.71
438.77	5249.82
438.96	5167.90
439.14	5352.81
439.33	5329.40
439.52	5224.08
439.70	5394.93
439.89	5406.64
440.08	5479.19
440.26	5472.17
440.45	5643.03
440.63	5657.07
440.82	5636.01
441.01	5685.16
441.19	5678.14
441.38	5729.63
441.57	5802.19
441.75	5874.74
441.94	5935.60
442.12	5954.32
442.31	6181.35
442.50	6038.58
442.68	5970.71
442.87	6071.35
443.05	6012.84
443.24	6296.04
443.43	6064.33
443.61	6071.35
443.80	6321.79
443.98	5902.83
444.17	6005.81
444.35	6296.04
444.54	6253.91
444.73	6209.44
444.91	6307.74
445.10	6340.51
445.28	6305.40
445.47	6160.29
445.65	6036.24
445.84	6338.17
446.02	6324.13
446.21	6225.82
446.39	6282.00
446.58	6209.44
446.77	6214.12
446.95	6160.29
447.14	6249.23
447.32	6298.38
447.51	6422.43
447.69	6462.22
447.88	6312.42
448.06	6291.36
448.25	6340.51
448.43	6399.02
448.62	6363.92
448.80	6525.41
448.99	6523.07
449.17	6476.26
449.36	6506.69
449.54	6558.18
449.73	6700.95
449.91	6619.04
450.10	6609.67
450.28	6789.89
450.46	6740.74
450.65	6677.55
450.83	6944.37
451.02	6911.60
451.20	6899.90
451.39	6815.64
451.57	6670.53
451.76	6981.82
451.94	6841.39
452.13	7070.76
452.31	6970.12
452.49	6991.18
452.68	7084.80
452.86	6946.71
453.05	7117.57
453.23	7166.72
453.42	7007.56
453.60	7183.10
453.78	7054.37
453.97	7112.89
454.15	7255.66
454.34	7155.02
454.52	7323.54
454.70	7440.56
454.89	7267.36
455.07	7372.69
455.26	7293.11
455.44	7356.30
455.62	7440.56
455.81	7421.84
455.99	7522.48
456.17	7555.25
456.36	7510.78
456.54	7681.64
456.73	7756.54
456.91	7723.77
457.09	7892.29
457.28	7829.09
457.46	7918.03
457.64	7786.96
457.83	7913.35
458.01	7822.07
458.19	8088.89
458.38	7915.69
458.56	8049.10
458.74	7950.80
458.93	7896.97
459.11	8116.98
459.29	8229.32
459.48	8180.17
459.66	8140.38
459.84	8138.04
460.03	8421.25
460.21	8173.15
460.39	8180.17
460.57	8250.39
460.76	8346.35
460.94	8446.99
461.12	8358.05
461.31	8491.46
461.49	8318.26
461.67	8439.97
461.85	8627.21
462.04	8435.29
462.22	9062.55
462.40	8559.34
462.59	8484.44
462.77	8669.34
462.95	8809.78
463.13	8627.21
463.32	8835.52
463.50	8891.70
463.68	8704.45
463.86	8795.73
464.05	8872.97
464.23	8816.80
464.41	8830.84
464.59	8872.97
464.78	9226.39
464.96	9015.74
465.14	8835.52
465.32	8933.82
465.50	9067.24
465.69	9067.24
465.87	9071.92
466.05	9029.79
466.23	9039.15
466.41	9357.46
466.60	9301.29
466.78	9336.40
466.96	9130.43
467.14	9291.93
467.32	9202.99
467.51	9474.49
467.69	9198.31
467.87	9366.82
468.05	9554.07
468.23	9399.59
468.41	9481.51
468.60	9277.88
468.78	9465.13
468.96	9434.70
469.14	9577.47
469.32	9673.43
469.50	9570.45
469.69	9689.82
469.87	9664.07
470.05	9818.55
470.23	9811.53
470.41	9802.16
470.59	9783.44
470.77	9856.00
470.95	9975.36
471.14	10043.24
471.32	9748.33
471.50	10267.93
471.68	10164.95
471.86	10190.69
472.04	10139.20
472.22	10492.62
472.40	10401.34
472.58	10431.77
472.77	10228.14
472.95	10630.71
473.13	10768.80
473.31	10406.02
473.49	10560.50
473.67	10530.07
473.85	10663.48
474.03	11103.50
474.21	11005.20
474.39	10932.64
474.57	11248.61
474.75	11150.31
474.93	11049.67
475.12	11178.40
475.30	11211.17
475.48	11414.79
475.66	11538.84
475.84	11353.94
476.02	11566.93
476.20	11508.41
476.38	11829.07
476.56	11918.01
476.74	11758.85
476.92	12079.50
477.10	11957.80
477.28	11983.54
477.46	11983.54
477.64	12259.73
477.82	12500.80
478.00	12772.30
478.18	12732.51
478.36	12746.56
478.54	12739.54
478.72	12776.98
478.90	12978.27
479.08	13198.28
479.26	13191.26
479.44	13170.19
479.62	13413.61
479.80	13282.54
479.98	13554.04
480.16	13858.31
480.34	13675.75
480.52	13701.50
480.70	13916.83
480.88	13973.00
481.06	14040.87
481.24	14129.81
481.41	14609.62
481.59	14429.40
481.77	14478.55
481.95	14597.92
482.13	14827.29
482.31	14934.96
482.49	15054.33
482.67	15260.29
482.85	15173.69
483.03	15791.59
483.21	15541.16
483.39	15789.25
483.57	15435.83
483.74	16049.05
483.92	15978.84
484.10	16130.97
484.28	16533.54
484.46	16566.31
484.64	16996.97
484.82	16472.69
485.00	16732.49
485.18	17071.87
485.35	17177.19
485.53	17102.29
485.71	17502.53
485.89	17476.78
486.07	17549.34
486.25	17848.93
486.43	17982.34
486.61	18214.05
486.78	17841.90
486.96	18141.49
487.14	18511.30
487.32	18443.42
487.50	18408.31
487.68	18691.52
487.85	18890.46
488.03	19173.67
488.21	19552.84
488.39	19271.97
488.57	19405.38
488.75	19627.73
488.92	19995.20
489.10	20243.29
489.28	20191.80
489.46	20269.04
489.64	20283.08
489.81	20964.18
489.99	20601.40
490.17	21102.27
490.35	21481.44
490.53	21198.23
490.70	21486.12
490.88	21390.16
491.06	21341.00
491.24	21558.67
491.41	21972.95
491.59	22127.42
491.77	22188.28
491.95	22153.17
492.13	22537.02
492.30	22487.87
492.48	22623.62
492.66	22801.50
492.84	22934.91
493.01	22965.34
493.19	23136.20
493.37	23674.52
493.54	23491.96
493.72	23803.25
493.90	23770.48
494.08	23953.04
494.25	24238.59
494.43	24219.86
494.61	24650.52
494.79	24531.15
494.96	24304.12
495.14	24659.88
495.32	24910.32
495.49	25165.44
495.67	25378.43
495.85	25315.23
496.02	25591.42
496.20	25816.11
496.38	25846.54
496.55	25659.29
496.73	26094.63
496.91	26043.14
497.09	26068.89
497.26	26242.09
497.44	26398.90
497.62	26745.30
497.79	27019.14
497.97	26948.93
498.14	26841.26
498.32	27580.87
498.50	27351.50
498.67	27414.69
498.85	27171.28
499.03	27775.14
499.20	27782.16
499.38	27777.48
499.56	27997.49
499.73	27992.81
499.91	28081.75
500.08	28353.25
500.26	28254.95
500.44	28540.49
500.61	28360.27
500.79	28706.67
500.97	28514.75
501.14	29233.29
501.32	29338.62
501.49	29102.22
501.67	29134.99
501.84	29345.64
502.02	29275.42
502.20	29539.90
502.37	29685.01
502.55	29584.37
502.72	29905.02
502.90	30188.23
503.07	29699.06
503.25	29947.15
503.43	30389.52
503.60	30433.99
503.78	30684.42
503.95	30773.36
504.13	30415.26
504.30	30600.16
504.48	30618.89
504.65	30780.39
504.83	31012.10
505.01	31278.92
505.18	30878.69
505.36	31419.35
505.53	31281.26
505.71	31697.88
505.88	31484.89
506.06	31730.64
506.23	32315.78
506.41	32023.21
506.58	31763.41
506.76	31885.12
506.93	32587.28
507.11	32594.30
507.28	32479.61
507.46	32285.35
507.63	32474.93
507.81	33050.70
507.98	32418.76
508.16	32772.18
508.33	32755.80
508.50	33483.70
508.68	33373.70
508.85	33502.43
509.03	33336.25
509.20	33598.39
509.38	33415.83
509.55	33755.21
509.73	33813.72
509.90	34164.80
510.08	34026.71
510.25	34015.01
510.42	34089.90
510.60	34295.87
510.77	34490.13
510.95	34590.78
511.12	34295.87
511.30	34569.71
511.47	35021.44
511.64	34820.15
511.82	35084.63
511.99	35009.73
512.17	34948.88
512.34	35262.51
512.51	35648.70
512.69	35679.13
512.86	35505.93
513.04	35950.63
513.21	35903.82
513.38	35995.10
513.56	35831.26
513.73	35929.56
513.90	36182.34
514.08	36371.92
514.25	36362.56
514.43	36414.05
514.60	36617.68
514.77	36329.80
514.95	36404.69
515.12	36519.38
515.29	36280.64
515.47	37249.63
515.64	37553.90
515.81	36943.02
515.99	36980.46
516.16	37294.10
516.33	37195.79
516.51	37530.49
516.68	37509.43
516.85	37256.65
517.03	37666.24
517.20	37982.21
517.37	37579.64
517.54	38033.71
517.72	37631.13
517.89	38312.23
518.06	38106.26
518.24	38094.56
518.41	38309.89
518.58	38302.87
518.75	37949.45
518.93	38354.36
519.10	38162.43
519.27	38658.63
519.45	39117.37
519.62	38752.25
519.79	38597.77
519.96	38728.84
520.14	39047.16
520.31	38841.19
520.48	39412.28
520.65	39037.80
520.83	39475.48
521.00	39679.10
521.17	39447.39
521.34	39784.43
521.52	39477.82
521.69	39856.98
521.86	40102.74
522.03	39744.64
522.20	39800.81
522.38	40617.66
522.55	40488.93
522.72	40734.68
522.89	40233.81
523.07	40783.83
523.24	40165.93
523.41	40339.13
523.58	40545.10
523.75	40907.88
523.92	40877.46
524.10	41067.04
524.27	40762.77
524.44	40926.61
524.61	41230.88
524.78	41034.27
524.96	41368.97
525.13	41375.99
525.30	41502.38
525.47	41677.92
525.64	41993.89
525.81	41858.14
525.98	42047.72
526.16	41680.26
526.33	41628.77
526.50	42164.75
526.67	41724.73
526.84	42169.43
527.01	42106.24
527.18	42473.70
527.36	42185.82
527.53	42403.49
527.70	42838.83
527.87	42506.47
528.04	42553.28
528.21	42841.17
528.38	43019.05
528.55	42696.05
528.72	42895.00
528.89	42663.28
529.07	43040.11
529.24	42572.00
529.41	43566.73
529.58	42948.83
529.75	43047.13
529.92	43166.50
530.09	43901.43
530.26	43578.43
530.43	43622.90
530.60	43054.15
530.77	43098.62
530.94	43840.57
531.11	43768.02
531.28	43526.94
531.46	44264.21
531.63	44030.16
531.80	43917.81
531.97	44168.25
532.14	43997.39
532.31	43936.54
532.48	43995.05
532.65	44484.22
532.82	44472.52
532.99	44788.49
533.16	44046.54
533.33	44807.22
533.50	44687.85
533.67	44755.72
533.84	44257.19
534.01	44645.72
534.18	44718.28
534.35	45130.21
534.52	44921.90
534.69	45104.46
534.86	45036.59
535.03	45001.48
535.20	44755.72
535.37	45221.49
535.54	45324.47
535.71	45139.57
535.88	45083.40
536.05	45312.77
536.22	45661.51
536.38	45691.94
536.55	45162.98
536.72	45441.50
536.89	45382.99
537.06	45375.97
537.23	45748.11
537.40	45408.73
537.57	45785.56
537.74	45794.92
537.91	46349.63
538.08	46080.47
538.25	45549.17
538.42	45731.73
538.59	46464.32
538.75	46150.68
538.92	46300.48
539.09	46649.22
539.26	46443.25
539.43	46424.53
539.60	46265.37
539.77	46834.12
539.94	46979.23
540.11	46583.68
540.28	46438.57
540.44	46969.87
540.61	46883.27
540.78	46576.66
540.95	46773.27
541.12	47079.88
541.29	46951.15
541.46	46817.74
541.62	46869.23
541.79	47213.29
541.96	46897.31
542.13	47061.15
542.30	46993.28
542.47	47313.93
542.63	47248.39
542.80	47351.38
542.97	47845.23
543.14	47931.83
543.31	47620.54
543.48	47739.91
543.64	47849.91
543.81	48100.35
543.98	47730.54
544.15	47955.24
544.32	47978.64
544.48	48683.14
544.65	48292.27
544.82	48240.78
544.99	48072.26
545.16	48025.45
545.32	48133.12
545.49	48802.51
545.66	48432.71
545.83	48428.02
546.00	48793.15
546.16	48842.30
546.33	48411.64
546.50	48311.00
546.67	48322.70
546.83	48409.30
547.00	48861.02
547.17	48772.08
547.34	48774.42
547.50	48720.59
547.67	48823.58
547.84	48683.14
548.00	48966.35
548.17	49504.67
548.34	49006.14
548.51	49476.58
548.67	48973.37
548.84	49139.55
549.01	48800.17
549.18	48954.64
549.34	49020.18
549.51	49331.47
549.68	49263.60
549.84	49450.84
550.01	49439.14
550.18	49081.03
550.34	49092.74
550.51	49270.62
550.68	49537.44
550.84	48989.75
551.01	49537.44
551.18	49282.32
551.34	49488.29
551.51	49916.61
551.68	49956.39
551.84	49535.10
552.01	49619.36
552.18	49532.76
552.34	49467.22
552.51	49602.97
552.68	49588.93
552.84	49689.57
553.01	50265.34
553.18	49661.49
553.34	49947.03
553.51	49717.66
553.67	49801.92
553.84	50609.40
554.01	49991.50
554.17	50171.72
554.34	50403.44
554.51	50342.58
554.67	50672.60
554.84	50525.14
555.00	50370.67
555.17	50192.79
555.33	50436.20
555.50	50473.65
555.67	50150.66
555.83	50829.41
556.00	50361.31
556.16	50885.59
556.33	50777.92
556.50	50787.28
556.66	50286.41
556.83	50754.52
556.99	50789.62
557.16	50457.27
557.32	50609.40
557.49	51054.11
557.65	50639.83
557.82	50918.35
557.98	50981.55
558.15	51203.90
558.32	51435.61
558.48	50937.08
558.65	50988.57
558.81	50752.18
558.98	50468.97
559.14	51061.13
559.31	50923.04
559.47	50972.19
559.64	51313.90
559.80	51002.61
559.97	50843.46
560.13	51070.49
560.30	50808.35
560.46	51147.73
560.63	51096.24
560.79	51100.92
560.96	51288.16
561.12	51562.00
561.29	51009.64
561.45	51388.80
561.61	51367.74
561.78	51229.65
561.94	51370.08
562.11	51435.61
562.27	51054.11
562.44	51159.43
562.60	51440.29
562.77	51550.30
562.93	51566.68
563.10	51569.02
563.26	51674.35
563.42	51903.72
563.59	51510.51
563.75	51400.50
563.92	51363.06
564.08	51299.86
564.24	51641.58
564.41	51735.20
564.57	51559.66
564.74	51632.22
564.90	51800.74
565.07	51536.26
565.23	51484.76
565.39	51480.08
565.56	51601.79
565.72	51601.79
565.88	51601.79
566.05	51693.07
566.21	51744.56
566.38	51489.45
566.54	51536.26
566.70	51917.76
566.87	51999.68
567.03	51714.14
567.19	51622.86
567.36	51686.05
567.52	51461.36
567.68	51718.82
567.85	51896.70
568.01	51620.52
568.17	51704.77
568.34	51882.66
568.50	51735.20
568.66	51730.52
568.83	51697.75
568.99	51899.04
569.15	51920.10
569.32	51859.25
569.48	51707.12
569.64	51770.31
569.81	51590.09
569.97	52205.65
570.13	52177.56
570.30	51908.40
570.46	51952.87
570.62	51952.87
570.78	51927.13
570.95	51723.50
571.11	52339.06
571.27	52231.40
571.43	51803.08
571.60	52278.21
571.76	52156.50
571.92	52016.07
572.09	51840.53
572.25	52039.47
572.41	51945.85
572.57	52004.36
572.74	52615.24
572.90	51894.36
573.06	52266.50
573.22	52317.99
573.38	52266.50
573.55	52257.14
573.71	52198.63
573.87	52069.90
574.03	51840.53
574.20	52336.72
574.36	51840.53
574.52	52081.60
574.68	52261.82
574.84	52163.52
575.01	52336.72
575.17	52193.95
575.33	52158.84
575.49	52039.47
575.65	52376.51
575.82	52484.17
575.98	52039.47
576.14	52406.94
576.30	52526.30
576.46	52383.53
576.62	52444.38
576.79	52030.11
576.95	51910.74
577.11	51950.53
577.27	52069.90
577.43	52404.59
577.59	52184.58
577.75	52215.01
577.92	52165.86
578.08	52126.07
578.24	52257.14
578.40	52329.70
578.56	52615.24
578.72	52383.53
578.88	52488.85
579.04	52397.57
579.21	52224.37
579.37	52252.46
579.53	52215.01
579.69	52444.38
579.85	52439.70
580.01	52645.67
580.17	52456.09
580.33	52369.49
580.49	52428.00
580.65	52374.17
580.82	52371.83
580.98	52287.57
581.14	52006.70
581.30	52650.35
581.46	52236.08
581.62	52500.56
581.78	52645.67
581.94	52474.81
582.10	52418.64
582.26	52472.47
582.42	52186.92
582.58	52261.82
582.74	52186.92
582.90	52367.15
583.06	52538.01
583.22	52484.17
583.38	52713.55
583.54	52449.06
583.70	52779.08
583.86	52748.65
584.02	52533.32
584.18	52465.45
584.34	52425.66
584.50	52961.64
584.66	52615.24
584.82	52409.28
584.98	52528.64
585.14	52552.05
585.30	52516.94
585.46	52844.62
585.62	52640.99
585.78	52491.19
585.94	52523.96
586.10	52493.54
586.26	52303.95
586.42	52465.45
586.58	52369.49
586.74	52294.59
586.90	52467.79
587.06	52582.48
587.22	52877.38
587.38	52704.18
587.54	52715.89
587.70	52795.46
587.86	52680.78
588.02	52491.19
588.18	52612.90
588.34	52409.28
588.49	52650.35
588.65	52545.03
588.81	52664.39
588.97	53095.05
589.13	52828.23
589.29	52858.66
589.45	52905.47
589.61	52886.74
589.77	52896.11
589.93	52633.97
590.08	52870.36
590.24	53137.18
590.40	53020.16
590.56	53059.94
590.72	52765.04
590.88	52933.56
591.04	53006.11
591.20	53244.85
591.35	53017.82
591.51	53214.42
591.67	52790.78
591.83	53214.42
591.99	53132.50
592.15	52753.33
592.31	52931.22
592.46	52701.84
592.62	53198.04
592.78	53380.60
592.94	53261.23
593.10	52956.96
593.26	52996.75
593.41	52875.04
593.57	52928.87
593.73	52809.51
593.89	53176.97
594.05	53029.52
594.20	52966.32
594.36	53244.85
594.52	53364.21
594.68	53240.17
594.84	53073.99
594.99	53212.08
595.15	52884.40
595.31	53200.38
595.47	52917.17
595.62	53256.55
595.78	53305.70
595.94	52875.04
596.10	53139.52
596.25	53418.05
596.41	53226.12
596.57	53165.27
596.73	53261.23
596.88	52985.05
597.04	53322.08
597.20	53223.78
597.36	52980.37
597.51	52968.66
597.67	52872.70
597.83	52992.07
597.99	53471.88
598.14	53455.50
598.30	53413.37
598.46	53034.20
598.61	53315.06
598.77	52978.03
598.93	53319.74
599.09	53352.51
599.24	53111.44
599.40	53048.24
599.56	52863.34
599.71	53413.37
599.87	53305.70
600.03	53464.86
600.18	53558.48
600.34	53607.63
600.50	53294.00
600.65	53205.06
600.81	53174.63
600.97	53153.57
601.12	53139.52
601.28	53422.73
601.44	53193.36
601.59	53249.53
601.75	53254.21
601.91	53736.36
602.06	53614.65
602.22	53549.12
602.37	53319.74
602.53	53457.84
602.69	53415.71
602.84	52921.85
603.00	53148.88
603.16	53200.38
603.31	53333.79
603.47	53312.72
603.62	53183.99
603.78	53523.37
603.94	53408.68
604.09	53289.32
604.25	53312.72
604.40	53200.38
604.56	53165.27
604.71	53284.64
604.87	53303.36
605.03	53123.14
605.18	53020.16
605.34	53071.65
605.49	53237.83
605.65	53750.40
605.80	53132.50
605.96	53282.30
606.12	53251.87
606.27	53757.42
606.43	53523.37
606.58	53368.90
606.74	53141.86
606.89	52893.77
607.05	52914.83
607.20	53294.00
607.36	53050.58
607.51	53237.83
607.67	53387.62
607.82	53188.67
607.98	53006.11
608.13	53081.01
608.29	52870.36
608.44	53286.98
608.60	52933.56
608.75	52858.66
608.91	52769.72
609.06	52837.59
609.22	52875.04
609.37	52680.78
609.53	52971.00
609.68	52858.66
609.84	52870.36
609.99	52889.09
610.15	53354.85
610.30	52907.81
610.46	52633.97
610.61	52498.22
610.76	52683.12
610.92	52795.46
611.07	52839.93
611.23	52832.91
611.38	53172.29
611.54	52818.87
611.69	52842.27
611.84	52839.93
612.00	53038.88
612.15	52779.08
612.31	52853.98
612.46	52795.46
612.62	52720.57
612.77	52472.47
612.92	52905.47
613.08	52465.45
613.23	52750.99
613.39	52779.08
613.54	52392.89
613.69	52683.12
613.85	52706.52
614.00	53008.45
614.15	52870.36
614.31	52662.05
614.46	53003.77
614.62	52657.37
614.77	52378.85
614.92	52570.77
615.08	52746.31
615.23	52727.59
615.38	52861.00
615.54	52357.78
615.69	52437.36
615.84	52505.24
616.00	52896.11
616.15	52523.96
616.30	52741.63
616.46	52465.45
616.61	52271.18
616.76	52435.02
616.92	52097.98
617.07	52252.46
617.22	52088.62
617.37	52004.36
617.53	52610.56
617.68	52837.59
617.83	52376.51
617.99	52294.59
618.14	52278.21
618.29	52495.88
618.45	52229.05
618.60	52362.46
618.75	51894.36
618.90	52086.28
619.06	52371.83
619.21	52168.20
619.36	52322.68
619.51	52252.46
619.67	51899.04
619.82	52030.11
619.97	52453.75
620.12	51870.95
620.28	51805.42
620.43	51971.60
620.58	51803.08
620.73	51657.96
620.89	51763.29
621.04	52069.90
621.19	52048.83
621.34	51737.54
621.49	52350.76
621.65	52116.71
621.80	52060.54
621.95	51980.96
622.10	52023.09
622.25	51641.58
622.41	51716.48
622.56	51927.13
622.71	51910.74
622.86	51737.54
623.01	51672.01
623.16	51917.76
623.32	51686.05
623.47	51880.31
623.62	51959.89
623.77	51924.78
623.92	51894.36
624.07	51716.48
624.23	51889.68
624.38	51510.51
624.53	51653.28
624.68	51489.45
624.83	51466.04
624.98	51480.08
625.13	51236.67
625.29	51749.24
625.44	51433.27
625.59	51407.53
625.74	51746.90
625.89	51391.14
626.04	51260.07
626.19	51566.68
626.34	51463.70
626.49	51325.61
626.65	51297.52
626.80	51288.16
626.95	50738.13
627.10	50855.16
627.25	50885.59
627.40	51131.34
627.55	50824.73
627.70	50878.57
627.85	50967.51
628.00	51075.17
628.15	51133.68
628.30	51129.00
628.45	51210.92
628.60	50789.62
628.76	51302.20
628.91	50586.00
629.06	51299.86
629.21	50642.17
629.36	50667.92
629.51	50967.51
629.66	50834.10
629.81	50597.70
629.96	50677.28
630.11	50927.72
630.26	50897.29
630.41	50644.51
630.56	50630.47
630.71	50747.50
630.86	50602.38
631.01	50047.68
631.16	50473.65
631.31	50057.04
631.46	50225.56
631.61	50600.04
631.76	50810.69
631.91	50396.42
632.06	50433.86
632.21	50447.91
632.36	50583.66
632.51	50234.92
632.66	50321.52
632.81	50010.23
632.96	50387.05
633.10	49998.52
633.25	49932.99
633.40	50031.29
633.55	50300.45
633.70	50288.75
633.85	50176.40
634.00	50506.42
634.15	50398.76
634.30	50401.10
634.45	50452.59
634.60	49769.15
634.75	50255.98
634.90	50071.08
635.05	49778.51
635.19	49724.68
635.34	50614.08
635.49	49972.78
635.64	50068.74
635.79	49832.35
635.94	49764.47
636.09	50153.00
636.24	49752.77
636.39	49874.48
636.53	49780.85
636.68	49652.12
636.83	49701.28
636.98	49914.26
637.13	49921.29
637.28	50239.60
637.43	49865.11
637.57	49778.51
637.72	49640.42
637.87	49617.02
638.02	50120.23
638.17	49794.90
638.32	49853.41
638.46	49734.04
638.61	49593.61
638.76	49481.27
638.91	49294.02
639.06	49106.78
639.20	49357.22
639.35	49354.88
639.50	49308.07
639.65	49397.01
639.80	49771.49
639.94	49352.54
640.09	49020.18
640.24	49097.42
640.39	49230.83
640.54	49275.30
640.68	49499.99
640.83	49279.98
640.98	48863.36
641.13	48999.12
641.27	49427.43
641.42	48971.03
641.57	48992.09
641.72	48949.96
641.86	48886.77
642.01	48545.05
642.16	48949.96
642.31	48762.72
642.45	48751.02
642.60	49003.80
642.75	48570.80
642.90	48896.13
643.04	48736.98
643.19	48523.99
643.34	48804.85
643.48	48406.96
643.63	48594.20
643.78	48657.40
643.93	48875.07
644.07	48460.79
644.22	48676.12
644.37	48254.82
644.51	48477.18
644.66	48388.24
644.81	48842.30
644.95	49034.22
645.10	48399.94
645.25	48552.07
645.39	48282.91
645.54	48809.53
645.69	48182.27
645.83	48744.00
645.98	48385.89
646.13	48608.25
646.27	48437.39
646.42	48348.45
646.57	48617.61
646.71	48083.97
646.86	48519.31
647.00	48781.45
647.15	48381.21
647.30	48357.81
647.44	48460.79
647.59	47990.34
647.74	48062.90
647.88	47920.13
648.03	48156.52
648.17	47838.21
648.32	48198.65
648.47	48119.07
648.61	47351.38
648.76	48196.31
648.90	48079.28
649.05	48238.44
649.20	48308.66
649.34	48041.84
649.49	48053.54
649.63	47906.08
649.78	48051.20
649.92	47693.10
650.07	48044.18
650.21	47899.06
650.36	47978.64
650.51	47337.33
650.65	47353.72
650.80	47452.02
650.94	47344.36
651.09	47496.49
651.23	47449.68
651.38	47711.82
651.52	47655.65
651.67	47180.52
651.81	47959.92
651.96	47725.86
652.10	47201.58
652.25	47358.40
652.39	47627.56
652.54	47243.71
652.68	47475.43
652.83	47379.46
652.97	47349.04
653.12	47171.16
653.26	47248.39
653.41	47161.79
653.55	47632.24
653.70	47599.47
653.84	47487.13
653.99	47339.68
654.13	47597.13
654.27	47379.46
654.42	47262.44
654.56	47138.39
654.71	47133.71
654.85	46967.53
655.00	47147.75
655.14	46995.62
655.29	46756.88
655.43	46965.19
655.57	46571.98
655.72	46689.01
655.86	46794.33
656.01	47016.68
656.15	46756.88
656.30	46660.92
656.44	46277.07
656.58	46368.35
656.73	46691.35
656.87	46419.84
657.01	45998.55
657.16	46337.93
657.30	46630.49
657.45	46124.94
657.59	46199.83
657.73	45977.48
657.88	46595.38
658.02	46354.31
658.16	46302.82
658.31	46564.96
658.45	46574.32
658.60	46714.75
658.74	45942.38
658.88	45975.14
659.03	45787.90
659.17	45626.40
659.31	46265.37
659.46	45689.60
659.60	45446.18
659.74	45757.47
659.89	46066.42
660.03	45710.66
660.17	45558.53
660.32	45532.78
660.46	45736.41
660.60	45422.78
660.74	45345.54
660.89	45808.96
661.03	45378.31
661.17	45500.01
661.32	45361.92
661.46	44907.86
661.60	44854.03
661.74	44919.56
661.89	45652.15
662.03	45043.61
662.17	44884.45
662.31	44928.92
662.46	45432.14
662.60	44772.11
662.74	44680.83
662.88	44847.00
663.03	45464.91
663.17	45406.39
663.31	45165.32
663.45	44994.46
663.60	44416.35
663.74	44334.43
663.88	44238.47
664.02	44357.83
664.17	44711.25
664.31	44119.10
664.45	44282.94
664.59	43959.94
664.73	44348.47
664.88	44502.95
665.02	44357.83
665.16	44083.99
665.30	44687.85
665.44	44294.64
665.59	43899.09
665.73	43892.07
665.87	43711.84
666.01	43512.90
666.15	43398.21
666.29	43606.52
666.44	43646.31
666.58	42831.80
666.72	43487.15
666.86	43543.33
667.00	43325.66
667.14	43042.45
667.28	43091.60
667.43	42916.06
667.57	43222.67
667.71	43180.54
667.85	43517.58
667.99	43213.31
668.13	43079.90
668.27	43058.84
668.41	43070.54
668.56	42684.35
668.70	42887.98
668.84	42677.33
668.98	42426.89
669.12	42286.46
669.26	42277.10
669.40	42520.51
669.54	42944.15
669.68	42597.75
669.82	42110.92
669.96	42087.51
670.10	42382.42
670.25	42553.28
670.39	42117.94
670.53	42141.35
670.67	41743.45
670.81	41617.07
670.95	41621.75
671.09	41270.67
671.23	41223.86
671.37	41600.68
671.51	40837.67
671.65	40797.88
671.79	40692.55
671.93	41354.93
672.07	41560.89
672.21	41167.68
672.35	41090.44
672.49	41315.14
672.63	41474.29
672.77	41205.13
672.91	40622.34
673.05	40236.15
673.19	40587.23
673.33	40861.07
673.47	40299.34
673.61	40383.60
673.75	40222.11
673.89	40259.55
674.03	39936.56
674.17	40486.59
674.31	40137.85
674.45	39962.31
674.59	39779.74
674.73	40072.31
674.87	39768.04
675.01	39849.96
675.15	39810.17
675.29	39754.00
675.43	39541.01
675.56	39782.09
675.70	39384.19
675.84	39119.71
675.98	38169.46
676.12	39145.46
676.26	39342.06
676.40	38986.30
676.54	38497.13
676.68	38534.58
676.82	37935.40
676.96	38663.31
677.10	38829.49
677.23	38157.75
677.37	38806.08
677.51	38169.46
677.65	38321.59
677.79	38064.13
677.93	37883.91
678.07	37411.12
678.21	37099.83
678.34	37069.40
678.48	37038.98
678.62	36954.72
678.76	36608.32
678.90	36823.65
679.04	36868.12
679.18	36875.14
679.31	36727.69
679.45	36837.69
679.59	36587.25
679.73	36851.73
679.87	36666.83
680.00	36608.32
680.14	36767.48
680.28	36503.00
680.42	36259.58
680.56	35632.32
680.70	35318.68
680.83	35517.63
680.97	35243.79
681.11	35454.44
681.25	35131.44
681.39	35262.51
681.52	35185.27
681.66	35281.24
681.80	35182.93
681.94	34838.87
682.07	35035.48
682.21	34906.75
682.35	34316.93
682.49	34487.79
682.62	34497.16
682.76	34609.50
682.90	34480.77
683.04	34609.50
683.17	33930.75
683.31	33860.53
683.45	33876.91
683.59	33574.98
683.72	33354.97
683.86	33177.09
684.00	32835.38
684.13	32938.36
684.27	33289.44
684.41	33202.84
684.55	33441.57
684.68	33181.77
684.82	33392.42
684.96	32879.85
685.09	32704.31
685.23	32496.00
685.37	32540.47
685.50	32334.50
685.64	31931.93
685.78	32259.60
685.91	31899.16
686.05	31871.07
686.19	31505.95
686.32	31440.42
686.46	31426.37
686.60	31110.40
686.73	31697.88
686.87	31679.15
687.01	31527.02
687.14	31192.32
687.28	31328.07
687.42	31211.04
687.55	31077.63
687.69	31454.46
687.82	30661.02
687.96	30752.30
688.10	30651.66
688.23	30452.71
688.37	30504.20
688.50	30527.61
688.64	29582.03
688.78	29970.56
688.91	29680.33
689.05	29769.27
689.18	29631.18
689.32	29453.30
689.46	29902.68
689.59	29811.40
689.73	29270.74
689.86	29476.71
690.00	29209.89
690.13	29605.44
690.27	29123.29
690.41	29029.66
690.54	28098.13
690.68	28449.21
690.81	28362.61
690.95	28610.71
691.08	28114.52
691.22	28294.74
691.35	27690.88
691.49	28011.53
691.62	27889.82
691.76	28041.96
691.89	28081.75
692.03	28158.99
692.16	27585.55
692.30	27763.43
692.43	27608.96
692.57	27253.20
692.70	27704.92
692.84	27154.90
692.97	27009.78
693.11	26677.43
693.24	26614.23
693.38	26434.01
693.51	26286.56
693.65	26445.71
693.78	26260.81
693.92	25979.95
694.05	26506.57
694.19	26040.80
694.32	26019.74
694.45	25542.27
694.59	25930.80
694.72	25750.57
694.86	25649.93
694.99	25628.87
695.13	25624.18
695.26	25539.93
695.39	25230.98
695.53	25226.29
695.66	24802.66
695.80	24678.61
695.93	24521.79
696.07	24320.51
696.20	24128.58
696.33	24098.16
696.47	24233.91
696.60	24411.79
696.73	23859.42
696.87	23754.10
697.00	24386.04
697.14	24004.53
697.27	23562.17
697.40	23807.93
697.54	23882.83
697.67	23611.32
697.80	23211.09
697.94	23309.40
698.07	23007.47
698.21	22906.82
698.34	23206.41
698.47	22555.74
698.61	22199.98
698.74	22752.35
698.87	22679.79
699.01	22396.59
699.14	22434.03
699.27	22403.61
699.40	22483.19
699.54	22244.45
699.67	21673.36
699.80	22141.47
699.94	22029.12
700.07	21481.44
700.20	21701.45
700.34	21626.55
700.47	21848.90
700.60	21593.78
700.73	21514.20
700.87	21280.15
701.00	21113.97
701.13	20861.19
701.26	20837.79
701.40	20826.09
701.53	20996.95
701.66	20648.21
701.79	20755.87
701.93	20238.61
702.06	20465.64
702.19	20177.76
702.32	20629.48
702.46	20498.41
702.59	20060.73
702.72	19887.53
702.85	20196.48
702.99	19920.30
703.12	19887.53
703.25	19747.10
703.38	19763.48
703.51	19332.82
703.65	19470.92
703.78	19124.52
703.91	19150.26
704.04	18883.44
704.17	19089.41
704.31	18951.32
704.44	18939.62
704.57	19101.11
704.70	19096.43
704.83	18757.05
704.96	18892.80
705.10	18710.24
705.23	18270.22
>>>>>End Processed Spectral Data<<<<<
