SpectraSuite Data File
++++++++++++++++++++++++++++++++++++
Date: Fri Oct 04 11:42:12 GMT-05:00 2013
User: price-jones
Dark Spectrum Present: No
Reference Spectrum Present: No
Number of Sampled Component Spectra: 1
Spectrometers: USB2+H05261
Integration Time (usec): 100000 (USB2+H05261)
Spectra Averaged: 1 (USB2+H05261)
Boxcar Smoothing: 0 (USB2+H05261)
Correct for Electrical Dark: No (USB2+H05261)
Strobe/Lamp Enabled: No (USB2+H05261)
Correct for Detector Non-linearity: No (USB2+H05261)
Correct for Stray Light: No (USB2+H05261)
Number of Pixels in Processed Spectrum: 2048
>>>>>Begin Processed Spectral Data<<<<<
365.73	28.09
365.92	28.09
366.12	28.09
366.32	0.00
366.52	0.00
366.72	0.00
366.91	0.00
367.11	0.00
367.31	0.00
367.51	0.00
367.70	0.00
367.90	0.00
368.10	0.00
368.30	0.00
368.49	0.00
368.69	0.00
368.89	0.00
369.09	0.00
369.28	0.00
369.48	0.00
369.68	0.00
369.87	0.00
370.07	0.00
370.27	4.68
370.47	11.70
370.66	0.00
370.86	18.72
371.06	100.64
371.25	95.96
371.45	51.49
371.65	110.01
371.84	35.11
372.04	0.00
372.24	74.90
372.44	95.96
372.63	95.96
372.83	194.26
373.03	49.15
373.22	156.82
373.42	152.13
373.62	93.62
373.81	95.96
374.01	110.01
374.21	128.73
374.40	163.84
374.60	184.90
374.79	142.77
374.99	93.62
375.19	224.69
375.38	114.69
375.58	166.18
375.78	161.50
375.97	72.56
376.17	117.03
376.37	138.09
376.56	154.48
376.76	117.03
376.95	112.35
377.15	135.75
377.35	119.37
377.54	121.71
377.74	131.07
377.93	107.66
378.13	152.13
378.33	159.16
378.52	105.32
378.72	81.92
378.91	173.20
379.11	145.11
379.31	91.28
379.50	182.56
379.70	159.16
379.89	138.09
380.09	84.26
380.28	145.11
380.48	156.82
380.68	131.07
380.87	131.07
381.07	128.73
381.26	145.11
381.46	93.62
381.65	161.50
381.85	114.69
382.04	100.64
382.24	128.73
382.43	105.32
382.63	58.51
382.83	117.03
383.02	156.82
383.22	138.09
383.41	107.66
383.61	84.26
383.80	128.73
384.00	128.73
384.19	112.35
384.39	114.69
384.58	149.79
384.78	131.07
384.97	173.20
385.17	98.30
385.36	86.60
385.56	110.01
385.75	100.64
385.95	107.66
386.14	131.07
386.34	93.62
386.53	140.43
386.72	128.73
386.92	126.39
387.11	88.94
387.31	72.56
387.50	77.24
387.70	133.41
387.89	126.39
388.09	88.94
388.28	74.90
388.48	100.64
388.67	142.77
388.86	100.64
389.06	49.15
389.25	117.03
389.45	152.13
389.64	173.20
389.84	149.79
390.03	180.22
390.22	161.50
390.42	135.75
390.61	28.09
390.81	81.92
391.00	128.73
391.19	124.05
391.39	131.07
391.58	187.24
391.78	138.09
391.97	70.22
392.16	39.79
392.36	72.56
392.55	147.45
392.75	133.41
392.94	18.72
393.13	142.77
393.33	121.71
393.52	86.60
393.71	126.39
393.91	215.33
394.10	110.01
394.29	86.60
394.49	110.01
394.68	65.54
394.88	112.35
395.07	105.32
395.26	135.75
395.46	170.86
395.65	255.12
395.84	149.79
396.04	198.95
396.23	133.41
396.42	173.20
396.62	177.88
396.81	194.26
397.00	138.09
397.19	121.71
397.39	182.56
397.58	156.82
397.77	131.07
397.97	168.52
398.16	121.71
398.35	189.58
398.55	196.60
398.74	182.56
398.93	215.33
399.12	135.75
399.32	168.52
399.51	124.05
399.70	145.11
399.90	208.31
400.09	159.16
400.28	159.16
400.47	121.71
400.67	140.43
400.86	161.50
401.05	177.88
401.24	133.41
401.44	182.56
401.63	168.52
401.82	112.35
402.01	135.75
402.21	173.20
402.40	128.73
402.59	215.33
402.78	208.31
402.97	166.18
403.17	229.37
403.36	224.69
403.55	325.33
403.74	638.97
403.93	2036.27
404.13	4964.28
404.32	7412.48
404.51	6853.09
404.70	4198.92
404.89	1645.40
405.09	547.69
405.28	243.42
405.47	231.71
405.66	245.76
405.85	205.97
406.05	177.88
406.24	175.54
406.43	259.80
406.62	252.78
406.81	234.05
407.00	255.12
407.20	580.45
407.39	896.43
407.58	964.30
407.77	847.27
407.96	437.68
408.15	210.65
408.34	238.73
408.54	182.56
408.73	191.92
408.92	227.03
409.11	149.79
409.30	222.35
409.49	212.99
409.68	184.90
409.87	177.88
410.07	212.99
410.26	264.48
410.45	159.16
410.64	145.11
410.83	159.16
411.02	147.45
411.21	283.20
411.40	245.76
411.59	163.84
411.78	234.05
411.98	262.14
412.17	250.44
412.36	241.08
412.55	152.13
412.74	318.31
412.93	276.18
413.12	208.31
413.31	212.99
413.50	205.97
413.69	191.92
413.88	290.23
414.07	257.46
414.26	196.60
414.45	269.16
414.64	227.03
414.83	262.14
415.02	299.59
415.22	205.97
415.41	290.23
415.60	182.56
415.79	250.44
415.98	191.92
416.17	266.82
416.36	292.57
416.55	203.63
416.74	280.86
416.93	276.18
417.12	322.99
417.31	271.50
417.50	234.05
417.69	238.73
417.88	184.90
418.07	215.33
418.26	283.20
418.45	231.71
418.64	248.10
418.83	259.80
419.02	271.50
419.21	313.63
419.39	243.42
419.58	292.57
419.77	280.86
419.96	294.91
420.15	306.61
420.34	318.31
420.53	266.82
420.72	231.71
420.91	320.65
421.10	208.31
421.29	301.93
421.48	280.86
421.67	266.82
421.86	198.95
422.05	245.76
422.24	243.42
422.43	327.68
422.61	241.08
422.80	231.71
422.99	308.95
423.18	299.59
423.37	381.51
423.56	332.36
423.75	259.80
423.94	229.37
424.13	276.18
424.32	353.42
424.50	266.82
424.69	250.44
424.88	327.68
425.07	315.97
425.26	330.02
425.45	334.70
425.64	318.31
425.83	353.42
426.01	355.76
426.20	376.83
426.39	348.74
426.58	322.99
426.77	397.89
426.96	351.08
427.15	330.02
427.33	301.93
427.52	374.49
427.71	341.72
427.90	337.04
428.09	325.33
428.28	299.59
428.46	313.63
428.65	348.74
428.84	383.85
429.03	418.96
429.22	353.42
429.40	337.04
429.59	374.49
429.78	449.38
429.97	315.97
430.16	241.08
430.34	332.36
430.53	367.46
430.72	365.12
430.91	362.78
431.10	353.42
431.28	421.30
431.47	411.93
431.66	491.51
431.85	395.55
432.03	411.93
432.22	430.66
432.41	475.13
432.60	477.47
432.79	451.72
432.97	496.19
433.16	493.85
433.35	526.62
433.54	645.99
433.72	660.03
433.91	643.65
434.10	676.41
434.28	884.72
434.47	1018.13
434.66	1123.46
434.85	1317.72
435.03	3061.42
435.22	11967.16
435.41	30078.22
435.59	35899.14
435.78	24271.36
435.97	11506.07
436.16	4461.06
436.34	1556.46
436.53	901.11
436.72	664.71
436.90	601.52
437.09	617.90
437.28	582.79
437.46	559.39
437.65	500.87
437.84	491.51
438.02	510.24
438.21	461.09
438.40	482.15
438.58	440.02
438.77	421.30
438.96	505.56
439.14	500.87
439.33	451.72
439.52	475.13
439.70	442.36
439.89	437.68
440.08	454.06
440.26	407.25
440.45	573.43
440.63	519.60
440.82	486.83
441.01	482.15
441.19	428.32
441.38	458.74
441.57	376.83
441.75	552.37
441.94	505.56
442.12	433.00
442.31	470.45
442.50	449.38
442.68	454.06
442.87	411.93
443.05	533.64
443.24	418.96
443.43	440.02
443.61	543.00
443.80	535.98
443.98	463.43
444.17	528.96
444.35	521.94
444.54	521.94
444.73	465.77
444.91	564.07
445.10	442.36
445.28	451.72
445.47	381.51
445.65	463.43
445.84	514.92
446.02	442.36
446.21	430.66
446.39	468.11
446.58	418.96
446.77	442.36
446.95	409.59
447.14	451.72
447.32	493.85
447.51	486.83
447.69	404.91
447.88	454.06
448.06	416.62
448.25	521.94
448.43	416.62
448.62	344.06
448.80	433.00
448.99	510.24
449.17	472.79
449.36	470.45
449.54	447.04
449.73	430.66
449.91	472.79
450.10	503.22
450.28	557.05
450.46	538.32
450.65	486.83
450.83	383.85
451.02	386.19
451.20	528.96
451.39	411.93
451.57	491.51
451.76	486.83
451.94	500.87
452.13	486.83
452.31	433.00
452.49	484.49
452.68	503.22
452.86	430.66
453.05	512.58
453.23	510.24
453.42	369.80
453.60	428.32
453.78	437.68
453.97	425.98
454.15	418.96
454.34	543.00
454.52	437.68
454.70	456.40
454.89	444.70
455.07	468.11
455.26	444.70
455.44	510.24
455.62	521.94
455.81	526.62
455.99	505.56
456.17	451.72
456.36	430.66
456.54	470.45
456.73	435.34
456.91	421.30
457.09	440.02
457.28	543.00
457.46	482.15
457.64	433.00
457.83	468.11
458.01	458.74
458.19	475.13
458.38	451.72
458.56	521.94
458.74	510.24
458.93	470.45
459.11	425.98
459.29	454.06
459.48	418.96
459.66	540.66
459.84	411.93
460.03	512.58
460.21	463.43
460.39	482.15
460.57	437.68
460.76	486.83
460.94	484.49
461.12	456.40
461.31	365.12
461.49	362.78
461.67	411.93
461.85	500.87
462.04	430.66
462.22	557.05
462.40	433.00
462.59	491.51
462.77	428.32
462.95	444.70
463.13	425.98
463.32	444.70
463.50	496.19
463.68	442.36
463.86	456.40
464.05	402.57
464.23	348.74
464.41	533.64
464.59	491.51
464.78	489.17
464.96	447.04
465.14	351.08
465.32	416.62
465.50	472.79
465.69	507.90
465.87	484.49
466.05	472.79
466.23	386.19
466.41	484.49
466.60	512.58
466.78	449.38
466.96	468.11
467.14	454.06
467.32	447.04
467.51	498.53
467.69	461.09
467.87	454.06
468.05	472.79
468.23	489.17
468.41	454.06
468.60	372.15
468.78	482.15
468.96	423.64
469.14	435.34
469.32	362.78
469.50	404.91
469.69	456.40
469.87	404.91
470.05	397.89
470.23	472.79
470.41	390.87
470.59	374.49
470.77	500.87
470.95	444.70
471.14	514.92
471.32	461.09
471.50	383.85
471.68	423.64
471.86	425.98
472.04	418.96
472.22	454.06
472.40	433.00
472.58	428.32
472.77	421.30
472.95	442.36
473.13	386.19
473.31	470.45
473.49	386.19
473.67	470.45
473.85	428.32
474.03	461.09
474.21	365.12
474.39	390.87
474.57	479.81
474.75	433.00
474.93	311.29
475.12	337.04
475.30	400.23
475.48	461.09
475.66	475.13
475.84	430.66
476.02	407.25
476.20	400.23
476.38	383.85
476.56	472.79
476.74	477.47
476.92	402.57
477.10	482.15
477.28	414.27
477.46	435.34
477.64	458.74
477.82	498.53
478.00	397.89
478.18	519.60
478.36	545.34
478.54	538.32
478.72	447.04
478.90	430.66
479.08	521.94
479.26	514.92
479.44	475.13
479.62	585.13
479.80	531.30
479.98	620.24
480.16	643.65
480.34	699.82
480.52	699.82
480.70	655.35
480.88	774.72
481.06	645.99
481.24	805.14
481.41	770.04
481.59	856.64
481.77	919.83
481.95	926.85
482.13	1067.28
482.31	1055.58
482.49	1139.84
482.67	1245.16
482.85	1336.45
483.03	1322.40
483.21	1465.18
483.39	1584.54
483.57	1593.90
483.74	1825.62
483.92	1778.81
484.10	1968.39
484.28	2043.29
484.46	2200.10
484.64	2211.81
484.82	2293.72
485.00	2420.11
485.18	2541.82
485.35	2806.30
485.53	2757.15
485.71	2974.82
485.89	3192.49
486.07	3119.93
486.25	3192.49
486.43	3297.81
486.61	3164.40
486.78	3159.72
486.96	3222.92
487.14	3197.17
487.32	3293.13
487.50	3164.40
487.68	3068.44
487.85	3122.27
488.03	3178.45
488.21	3143.34
488.39	2972.48
488.57	2935.03
488.75	2946.73
488.92	3040.36
489.10	2726.72
489.28	2700.98
489.46	2686.94
489.64	2581.61
489.81	2574.59
489.99	2600.34
490.17	2466.92
490.35	2544.16
490.53	2513.74
490.70	2581.61
490.88	2532.46
491.06	2616.72
491.24	2651.83
491.41	2911.63
491.59	2588.63
491.77	2408.41
491.95	2499.69
492.13	2326.49
492.30	2267.98
492.48	2242.23
492.66	2136.91
492.84	2069.03
493.01	2179.04
493.19	2080.74
493.37	2113.50
493.54	2024.56
493.72	1977.75
493.90	1994.14
494.08	1926.26
494.25	1935.62
494.43	1912.22
494.61	1921.58
494.79	1898.17
494.96	1783.49
495.14	1795.19
495.32	1792.85
495.49	1619.65
495.67	1750.72
495.85	1701.57
496.02	1544.75
496.20	1678.16
496.38	1621.99
496.55	1549.43
496.73	1561.14
496.91	1385.60
497.09	1526.03
497.26	1558.80
497.44	1483.90
497.62	1488.58
497.79	1437.09
497.97	1460.49
498.14	1423.05
498.32	1308.36
498.50	1390.28
498.67	1207.72
498.85	1268.57
499.03	1146.86
499.20	1184.31
499.38	1118.78
499.56	1114.10
499.73	1130.48
499.91	1146.86
500.08	1001.75
500.26	1083.67
500.44	1050.90
500.61	926.85
500.79	884.72
500.97	990.05
501.14	912.81
501.32	922.17
501.49	887.06
501.67	837.91
501.84	929.19
502.02	720.88
502.20	835.57
502.37	741.95
502.55	842.59
502.72	702.16
502.90	720.88
503.07	697.48
503.25	763.01
503.43	713.86
503.60	599.18
503.78	667.05
503.95	606.20
504.13	638.97
504.30	606.20
504.48	535.98
504.65	601.52
504.83	587.47
505.01	573.43
505.18	533.64
505.36	470.45
505.53	554.71
505.71	596.84
505.88	528.96
506.06	528.96
506.23	538.32
506.41	538.32
506.58	585.13
506.76	517.26
506.93	535.98
507.11	491.51
507.28	472.79
507.46	503.22
507.63	470.45
507.81	514.92
507.98	418.96
508.16	400.23
508.33	472.79
508.50	528.96
508.68	477.47
508.85	540.66
509.03	484.49
509.20	486.83
509.38	578.11
509.55	578.11
509.73	510.24
509.90	458.74
510.08	503.22
510.25	547.69
510.42	461.09
510.60	538.32
510.77	517.26
510.95	435.34
511.12	390.87
511.30	447.04
511.47	428.32
511.64	531.30
511.82	414.27
511.99	475.13
512.17	491.51
512.34	463.43
512.51	463.43
512.69	465.77
512.86	383.85
513.04	456.40
513.21	397.89
513.38	433.00
513.56	421.30
513.73	456.40
513.90	339.38
514.08	367.46
514.25	463.43
514.43	358.10
514.60	414.27
514.77	367.46
514.95	390.87
515.12	365.12
515.29	397.89
515.47	430.66
515.64	381.51
515.81	414.27
515.99	475.13
516.16	395.55
516.33	348.74
516.51	402.57
516.68	409.59
516.85	402.57
517.03	386.19
517.20	344.06
517.37	442.36
517.54	390.87
517.72	322.99
517.89	339.38
518.06	294.91
518.24	383.85
518.41	433.00
518.58	383.85
518.75	355.76
518.93	393.21
519.10	372.15
519.27	344.06
519.45	425.98
519.62	400.23
519.79	365.12
519.96	372.15
520.14	362.78
520.31	353.42
520.48	383.85
520.65	404.91
520.83	360.44
521.00	411.93
521.17	397.89
521.34	365.12
521.52	362.78
521.69	411.93
521.86	353.42
522.03	397.89
522.20	416.62
522.38	379.17
522.55	330.02
522.72	322.99
522.89	339.38
523.07	468.11
523.24	390.87
523.41	360.44
523.58	374.49
523.75	351.08
523.92	362.78
524.10	381.51
524.27	388.53
524.44	451.72
524.61	454.06
524.78	379.17
524.96	362.78
525.13	379.17
525.30	416.62
525.47	519.60
525.64	454.06
525.81	444.70
525.98	458.74
526.16	395.55
526.33	294.91
526.50	423.64
526.67	444.70
526.84	411.93
527.01	444.70
527.18	456.40
527.36	526.62
527.53	500.87
527.70	589.82
527.87	503.22
528.04	514.92
528.21	472.79
528.38	440.02
528.55	465.77
528.72	491.51
528.89	491.51
529.07	528.96
529.24	437.68
529.41	550.03
529.58	510.24
529.75	550.03
529.92	519.60
530.09	547.69
530.26	638.97
530.43	535.98
530.60	557.05
530.77	528.96
530.94	669.39
531.11	594.50
531.28	543.00
531.46	568.75
531.63	608.54
531.80	674.07
531.97	760.67
532.14	791.10
532.31	1001.75
532.48	1135.16
532.65	1296.66
532.82	1441.77
532.99	1680.50
533.16	1909.88
533.33	2029.24
533.50	1916.90
533.67	1678.16
533.84	1479.22
534.01	1299.00
534.18	1256.87
534.35	1114.10
534.52	1165.59
534.69	1224.10
534.86	1275.59
535.03	1224.10
535.20	1299.00
535.37	1434.75
535.54	1495.60
535.71	1474.54
535.88	1680.50
536.05	1685.19
536.22	1827.96
536.38	2052.65
536.55	2218.83
536.72	2387.35
536.89	2607.36
537.06	2939.71
537.23	3258.03
537.40	3679.32
537.57	3826.78
537.74	4128.70
537.91	4299.56
538.08	4255.09
538.25	4404.89
538.42	4334.67
538.59	4681.07
538.75	4723.20
538.92	4924.49
539.09	5493.24
539.26	6146.25
539.43	6707.98
539.60	7669.94
539.77	8622.53
539.94	9633.64
540.11	10686.89
540.28	11843.11
540.44	12713.79
540.61	14104.07
540.78	16229.27
540.95	19080.05
541.12	23175.98
541.29	26391.88
541.46	28151.96
541.62	27817.27
541.79	26749.98
541.96	24657.54
542.13	22951.29
542.30	21399.52
542.47	20212.87
542.63	19082.39
542.80	18328.74
542.97	18071.28
543.14	18218.73
543.31	18258.52
543.48	18412.99
543.64	18520.66
543.81	18518.32
543.98	19122.18
544.15	18939.62
544.32	18972.38
544.48	18883.44
544.65	18483.21
544.82	18445.76
544.99	18391.93
545.16	19286.01
545.32	19758.80
545.49	30293.55
545.66	53137.18
545.83	62628.05
546.00	59604.08
546.16	46307.50
546.33	33221.56
546.50	24870.53
546.67	19337.51
546.83	17121.02
547.00	16444.60
547.17	15410.09
547.34	14637.71
547.50	14366.21
547.67	13734.26
547.84	13163.17
548.00	12372.07
548.17	12163.76
548.34	11587.99
548.51	11213.51
548.67	10820.30
548.84	10366.23
549.01	9703.86
549.18	9322.35
549.34	8762.97
549.51	8826.16
549.68	8245.71
549.84	7915.69
550.01	7742.49
550.18	7382.05
550.34	6864.79
550.51	6665.85
550.68	6408.39
550.84	5951.98
551.01	5675.80
551.18	5465.15
551.34	5078.96
551.51	4954.91
551.68	4784.06
551.84	4627.24
552.01	4395.53
552.18	4215.30
552.34	4035.08
552.51	3939.12
552.68	3700.39
552.84	3581.02
553.01	3459.31
553.18	3475.70
553.34	3414.84
553.51	3164.40
553.67	3061.42
553.84	2925.67
554.01	2799.28
554.17	2647.15
554.34	2483.31
554.51	2366.28
554.67	2176.70
554.84	2017.54
555.00	1954.35
555.17	1874.77
555.33	1774.13
555.50	1746.04
555.67	1593.90
555.83	1469.86
556.00	1530.71
556.16	1521.35
556.33	1418.36
556.50	1322.40
556.66	1224.10
556.83	1270.91
556.99	1186.65
557.16	1165.59
557.32	1137.50
557.49	1181.97
557.65	1074.31
557.82	1060.26
557.98	1074.31
558.15	1050.90
558.32	976.00
558.48	952.60
558.65	1011.11
558.81	882.38
558.98	816.85
559.14	903.45
559.31	767.70
559.47	861.32
559.64	873.02
559.80	887.06
559.97	842.59
560.13	851.96
560.30	826.21
560.46	854.30
560.63	828.55
560.79	795.78
560.96	772.38
561.12	744.29
561.29	835.57
561.45	891.74
561.61	781.74
561.78	940.90
561.94	833.23
562.11	816.85
562.27	741.95
562.44	730.25
562.60	812.17
562.77	683.44
562.93	800.46
563.10	751.31
563.26	805.14
563.42	774.72
563.59	702.16
563.75	739.61
563.92	704.50
564.08	746.63
564.24	704.50
564.41	657.69
564.57	627.26
564.74	706.84
564.90	770.04
565.07	727.91
565.23	653.01
565.39	641.31
565.56	596.84
565.72	669.39
565.88	660.03
566.05	603.86
566.21	627.26
566.38	702.16
566.54	617.90
566.70	678.76
566.87	655.35
567.03	571.09
567.19	681.10
567.36	664.71
567.52	709.18
567.68	676.41
567.85	676.41
568.01	634.29
568.17	739.61
568.34	685.78
568.50	739.61
568.66	741.95
568.83	685.78
568.99	629.60
569.15	624.92
569.32	585.13
569.48	622.58
569.64	580.45
569.81	540.66
569.97	526.62
570.13	547.69
570.30	496.19
570.46	505.56
570.62	468.11
570.78	566.41
570.95	491.51
571.11	528.96
571.27	528.96
571.43	489.17
571.60	407.25
571.76	407.25
571.92	514.92
572.09	496.19
572.25	461.09
572.41	486.83
572.57	397.89
572.74	496.19
572.90	486.83
573.06	451.72
573.22	521.94
573.38	589.82
573.55	507.90
573.71	535.98
573.87	587.47
574.03	599.18
574.20	547.69
574.36	533.64
574.52	587.47
574.68	580.45
574.84	615.56
575.01	685.78
575.17	730.25
575.33	741.95
575.49	774.72
575.65	805.14
575.82	856.64
575.98	898.77
576.14	1041.54
576.30	1886.47
576.46	6022.20
576.62	12470.37
576.79	14487.92
576.95	10167.29
577.11	6502.01
577.27	4580.43
577.43	2928.01
577.59	1980.09
577.75	1638.38
577.92	1446.45
578.08	1432.41
578.24	1338.79
578.40	2289.04
578.56	5497.92
578.72	11190.10
578.88	12975.93
579.04	9521.30
579.21	6380.30
579.37	4821.50
579.53	3782.31
579.69	3342.28
579.85	4074.87
580.01	4889.38
580.17	4795.76
580.33	4166.15
580.49	3590.38
580.65	3300.16
580.82	2806.30
580.98	2773.53
581.14	2801.62
581.30	2920.99
581.46	3112.91
581.62	3407.82
581.78	3571.66
581.94	3868.91
582.10	4250.41
582.26	4472.76
582.42	4505.53
582.58	4550.00
582.74	4547.66
582.90	4739.58
583.06	4926.83
583.22	4746.61
583.38	4730.22
583.54	4711.50
583.70	4833.21
583.86	4643.62
584.02	4671.71
584.18	4699.80
584.34	4367.44
584.50	4304.25
584.66	4337.01
584.82	4423.61
584.98	4348.72
585.14	4091.26
585.30	4091.26
585.46	4042.11
585.62	4063.17
585.78	3880.61
585.94	4074.87
586.10	3962.53
586.26	4332.33
586.42	4819.16
586.58	5643.03
586.74	6909.26
586.90	8266.77
587.06	9312.99
587.22	9254.48
587.38	8030.38
587.54	7103.53
587.70	5944.96
587.86	5195.99
588.02	4400.21
588.18	3810.39
588.34	3510.80
588.49	3325.90
588.65	3038.02
588.81	2918.65
588.97	2602.68
589.13	2661.19
589.29	2705.66
589.45	2649.49
589.61	2574.59
589.77	2679.91
589.93	2656.51
590.08	2806.30
590.24	2761.83
590.40	2972.48
590.56	3087.17
590.72	3063.76
590.88	3096.53
591.04	3269.73
591.20	3410.16
591.35	3485.06
591.51	3653.58
591.67	3749.54
591.83	4014.02
591.99	4463.40
592.15	4748.95
592.31	5207.69
592.46	5568.13
592.62	6291.36
592.78	6253.91
592.94	6757.13
593.10	6693.93
593.26	6368.60
593.41	5832.62
593.57	5315.36
593.73	4704.48
593.89	4109.98
594.05	3665.28
594.20	3304.84
594.36	2972.48
594.52	2708.00
594.68	2698.64
594.84	2661.19
594.99	2593.31
595.15	2459.90
595.31	2441.18
595.47	2377.98
595.62	2420.11
595.78	2422.45
595.94	2375.64
596.10	2483.31
596.25	2354.58
596.41	2452.88
596.57	2352.24
596.73	2275.00
596.88	2324.15
597.04	2340.54
597.20	2413.09
597.36	2483.31
597.51	2523.10
597.67	2600.34
597.83	2658.85
597.99	2902.26
598.14	2796.94
598.30	3180.79
598.46	3365.69
598.61	3536.55
598.77	3712.09
598.93	3925.08
599.09	4063.17
599.24	4119.34
599.40	4074.87
599.56	3957.85
599.71	3681.66
599.87	3641.87
600.03	3325.90
600.18	3019.29
600.34	2925.67
600.50	2703.32
600.65	2581.61
600.81	2448.20
600.97	2186.06
601.12	2073.71
601.28	2040.95
601.44	1886.47
601.59	1874.77
601.75	1746.04
601.91	1743.70
602.06	1827.96
602.22	1720.29
602.37	1629.01
602.53	1565.82
602.69	1507.30
602.84	1549.43
603.00	1530.71
603.16	1619.65
603.31	1678.16
603.47	1739.02
603.62	1703.91
603.78	1692.21
603.94	1717.95
604.09	1940.30
604.25	1842.00
604.40	1888.81
604.56	1746.04
604.71	1968.39
604.87	1860.73
605.03	1987.11
605.18	1877.11
605.34	2026.90
605.49	2087.76
605.65	2134.57
605.80	2092.44
605.96	2277.34
606.12	2328.83
606.27	2495.01
606.43	2497.35
606.58	2654.17
606.74	2693.96
606.89	2843.75
607.05	2981.84
607.20	3126.96
607.36	3295.47
607.51	3566.98
607.67	3847.84
607.82	4058.49
607.98	4161.47
608.13	4706.82
608.29	4992.36
608.44	5486.22
608.60	5811.55
608.75	6246.89
608.91	6836.70
609.06	7681.64
609.22	8454.02
609.37	9231.07
609.53	10597.95
609.68	11733.11
609.84	13240.41
609.99	15920.32
610.15	18487.89
610.30	22918.53
610.46	29060.09
610.61	37502.40
610.76	46995.62
610.92	54433.84
611.07	57925.92
611.23	58576.59
611.38	57382.91
611.54	54096.80
611.69	48706.55
611.84	41787.92
612.00	34845.90
612.15	29277.76
612.31	25692.06
612.46	22530.00
612.62	21090.57
612.77	19555.18
612.92	18845.99
613.08	17547.00
613.23	16842.50
613.39	15845.43
613.54	15477.96
613.69	15262.63
613.85	14934.96
614.00	14909.21
614.15	14527.71
614.31	14459.83
614.46	14324.08
614.62	13504.89
614.77	13186.58
614.92	12348.67
615.08	11442.88
615.23	10565.18
615.38	9762.37
615.54	8985.32
615.69	8121.66
615.84	7405.46
616.00	6935.01
616.15	6392.00
616.30	6057.31
616.46	5530.69
616.61	5345.78
616.76	4863.63
616.92	4716.18
617.07	4652.98
617.22	4353.40
617.37	3981.25
617.53	3686.34
617.68	3735.50
617.83	3639.53
617.99	3480.38
618.14	3426.54
618.29	3337.60
618.45	3218.24
618.60	3316.54
618.75	3040.36
618.90	3061.42
619.06	3197.17
619.21	3054.40
619.36	3133.98
619.51	2993.55
619.67	3005.25
619.82	3119.93
619.97	3293.13
620.12	3115.25
620.28	3274.41
620.43	3421.86
620.58	3276.75
620.73	3431.23
620.89	3328.24
621.04	3506.12
621.19	3440.59
621.34	3225.26
621.49	3272.07
621.65	3087.17
621.80	3162.06
621.95	3117.59
622.10	3227.60
622.25	3218.24
622.41	3276.75
622.56	3279.09
622.71	3379.73
622.86	3410.16
623.01	3578.68
623.16	3590.38
623.32	3522.51
623.47	3515.48
623.62	3651.24
623.77	3550.59
623.92	3520.17
624.07	3513.14
624.23	3627.83
624.38	3595.06
624.53	3576.34
624.68	3555.27
624.83	3597.40
624.98	3658.26
625.13	3604.42
625.29	3765.92
625.44	3653.58
625.59	3712.09
625.74	3751.88
625.89	3808.05
626.04	3721.45
626.19	3576.34
626.34	3740.18
626.49	3595.06
626.65	3571.66
626.80	3758.90
626.95	3604.42
627.10	3538.89
627.25	3485.06
627.40	3529.53
627.55	3328.24
627.70	3279.09
627.85	3236.96
628.00	3335.26
628.15	3288.45
628.30	3185.47
628.45	3229.94
628.60	3251.00
628.76	3286.11
628.91	3337.60
629.06	3309.52
629.21	3344.63
629.36	3428.88
629.51	3421.86
629.66	3658.26
629.81	4025.72
629.96	4348.72
630.11	4854.27
630.26	5327.06
630.41	5921.56
630.56	6436.47
630.71	7049.69
630.86	7253.32
631.01	7105.87
631.16	6537.12
631.31	5879.43
631.46	4905.76
631.61	4423.61
631.76	3740.18
631.91	3054.40
632.06	2640.12
632.21	2157.97
632.36	2038.61
632.51	1874.77
632.66	1600.93
632.81	1385.60
632.96	1378.58
633.10	1308.36
633.25	1322.40
633.40	1191.33
633.55	1104.73
633.70	1132.82
633.85	1144.52
634.00	1018.13
634.15	1039.20
634.30	983.02
634.45	1163.25
634.60	901.11
634.75	947.92
634.90	924.51
635.05	999.41
635.19	926.85
635.34	978.34
635.49	926.85
635.64	917.49
635.79	847.27
635.94	903.45
636.09	866.00
636.24	936.21
636.39	851.96
636.53	763.01
636.68	819.19
636.83	723.23
636.98	823.87
637.13	800.46
637.28	777.06
637.43	732.59
637.57	816.85
637.72	784.08
637.87	720.88
638.02	688.12
638.17	641.31
638.32	814.51
638.46	697.48
638.61	727.91
638.76	650.67
638.91	662.37
639.06	550.03
639.20	688.12
639.35	596.84
639.50	699.82
639.65	699.82
639.80	587.47
639.94	627.26
640.09	648.33
640.24	643.65
640.39	596.84
640.54	641.31
640.68	627.26
640.83	580.45
640.98	580.45
641.13	638.97
641.27	674.07
641.42	622.58
641.57	699.82
641.72	636.63
641.86	711.52
642.01	568.75
642.16	702.16
642.31	566.41
642.45	711.52
642.60	634.29
642.75	596.84
642.90	641.31
643.04	608.54
643.19	624.92
643.34	634.29
643.48	655.35
643.63	648.33
643.78	664.71
643.93	723.23
644.07	683.44
644.22	648.33
644.37	589.82
644.51	716.20
644.66	615.56
644.81	664.71
644.95	627.26
645.10	631.94
645.25	671.73
645.39	638.97
645.54	622.58
645.69	706.84
645.83	587.47
645.98	690.46
646.13	596.84
646.27	550.03
646.42	589.82
646.57	528.96
646.71	596.84
646.86	587.47
647.00	533.64
647.15	638.97
647.30	571.09
647.44	580.45
647.59	615.56
647.74	505.56
647.88	564.07
648.03	589.82
648.17	669.39
648.32	594.50
648.47	662.37
648.61	617.90
648.76	702.16
648.90	732.59
649.05	662.37
649.20	763.01
649.34	858.98
649.49	905.79
649.63	971.32
649.78	1069.62
649.92	1416.02
650.07	1596.25
650.21	1858.39
650.36	2054.99
650.51	1952.01
650.65	2003.50
650.80	1682.85
650.94	1633.69
651.09	1416.02
651.23	1179.63
651.38	1174.95
651.52	1032.18
651.67	917.49
651.81	908.13
651.96	837.91
652.10	802.80
652.25	851.96
652.39	779.40
652.54	837.91
652.68	954.94
652.83	959.62
652.97	929.19
653.12	1088.35
653.26	1018.13
653.41	973.66
653.55	915.15
653.70	793.44
653.84	828.55
653.99	753.65
654.13	620.24
654.27	631.94
654.42	601.52
654.56	662.37
654.71	622.58
654.85	568.75
655.00	636.63
655.14	592.16
655.29	500.87
655.43	557.05
655.57	631.94
655.72	580.45
655.86	599.18
656.01	566.41
656.15	550.03
656.30	580.45
656.44	606.20
656.58	531.30
656.73	594.50
656.87	645.99
657.01	599.18
657.16	622.58
657.30	723.23
657.45	781.74
657.59	727.91
657.73	723.23
657.88	667.05
658.02	755.99
658.16	603.86
658.31	613.22
658.45	540.66
658.60	498.53
658.74	493.85
658.88	479.81
659.03	477.47
659.17	433.00
659.31	472.79
659.46	454.06
659.60	503.22
659.74	440.02
659.89	411.93
660.03	505.56
660.17	498.53
660.32	465.77
660.46	454.06
660.60	409.59
660.74	538.32
660.89	500.87
661.03	456.40
661.17	437.68
661.32	543.00
661.46	573.43
661.60	758.33
661.74	847.27
661.89	915.15
662.03	1076.65
662.17	1156.22
662.31	1280.27
662.46	1170.27
662.60	1203.04
662.74	1029.84
662.88	976.00
663.03	858.98
663.17	753.65
663.31	798.12
663.45	655.35
663.60	638.97
663.74	538.32
663.88	526.62
664.02	557.05
664.17	596.84
664.31	559.39
664.45	454.06
664.59	493.85
664.73	482.15
664.88	512.58
665.02	388.53
665.16	470.45
665.30	550.03
665.44	435.34
665.59	447.04
665.73	428.32
665.87	407.25
666.01	360.44
666.15	423.64
666.29	423.64
666.44	409.59
666.58	451.72
666.72	388.53
666.86	421.30
667.00	435.34
667.14	475.13
667.28	468.11
667.43	496.19
667.57	491.51
667.71	456.40
667.85	472.79
667.99	376.83
668.13	280.86
668.27	468.11
668.41	440.02
668.56	430.66
668.70	477.47
668.84	409.59
668.98	510.24
669.12	407.25
669.26	496.19
669.40	465.77
669.54	444.70
669.68	358.10
669.82	390.87
669.96	379.17
670.10	402.57
670.25	458.74
670.39	386.19
670.53	348.74
670.67	418.96
670.81	379.17
670.95	372.15
671.09	414.27
671.23	388.53
671.37	428.32
671.51	311.29
671.65	407.25
671.79	376.83
671.93	423.64
672.07	393.21
672.21	388.53
672.35	386.19
672.49	315.97
672.63	386.19
672.77	365.12
672.91	400.23
673.05	372.15
673.19	308.95
673.33	313.63
673.47	367.46
673.61	367.46
673.75	325.33
673.89	365.12
674.03	337.04
674.17	322.99
674.31	311.29
674.45	330.02
674.59	327.68
674.73	383.85
674.87	348.74
675.01	402.57
675.15	351.08
675.29	383.85
675.43	334.70
675.56	374.49
675.70	379.17
675.84	388.53
675.98	348.74
676.12	255.12
676.26	271.50
676.40	358.10
676.54	386.19
676.68	297.25
676.82	425.98
676.96	273.84
677.10	304.27
677.23	212.99
677.37	245.76
677.51	393.21
677.65	369.80
677.79	255.12
677.93	367.46
678.07	287.89
678.21	280.86
678.34	297.25
678.48	264.48
678.62	362.78
678.76	290.23
678.90	294.91
679.04	283.20
679.18	273.84
679.31	297.25
679.45	315.97
679.59	318.31
679.73	330.02
679.87	334.70
680.00	388.53
680.14	367.46
680.28	348.74
680.42	372.15
680.56	362.78
680.70	297.25
680.83	451.72
680.97	367.46
681.11	245.76
681.25	407.25
681.39	280.86
681.52	285.55
681.66	348.74
681.80	306.61
681.94	301.93
682.07	262.14
682.21	372.15
682.35	290.23
682.49	318.31
682.62	315.97
682.76	294.91
682.90	278.52
683.04	294.91
683.17	327.68
683.31	229.37
683.45	362.78
683.59	332.36
683.72	280.86
683.86	339.38
684.00	299.59
684.13	346.40
684.27	273.84
684.41	330.02
684.55	313.63
684.68	327.68
684.82	283.20
684.96	304.27
685.09	308.95
685.23	334.70
685.37	280.86
685.50	327.68
685.64	322.99
685.78	367.46
685.91	341.72
686.05	374.49
686.19	318.31
686.32	456.40
686.46	456.40
686.60	402.57
686.73	470.45
686.87	521.94
687.01	470.45
687.14	608.54
687.28	573.43
687.42	643.65
687.55	641.31
687.69	809.83
687.82	615.56
687.96	709.18
688.10	732.59
688.23	610.88
688.37	599.18
688.50	535.98
688.64	514.92
688.78	430.66
688.91	468.11
689.05	404.91
689.18	372.15
689.32	362.78
689.46	301.93
689.59	306.61
689.73	259.80
689.86	290.23
690.00	248.10
690.13	238.73
690.27	168.52
690.41	362.78
690.54	388.53
690.68	393.21
690.81	330.02
690.95	264.48
691.08	234.05
691.22	248.10
691.35	287.89
691.49	205.97
691.62	227.03
691.76	210.65
691.89	243.42
692.03	189.58
692.16	194.26
692.30	196.60
692.43	250.44
692.57	224.69
692.70	180.22
692.84	262.14
692.97	271.50
693.11	280.86
693.24	386.19
693.38	442.36
693.51	531.30
693.65	535.98
693.78	592.16
693.92	545.34
694.05	414.27
694.19	332.36
694.32	262.14
694.45	250.44
694.59	287.89
694.72	229.37
694.86	205.97
694.99	220.01
695.13	168.52
695.26	177.88
695.39	180.22
695.53	250.44
695.66	220.01
695.80	220.01
695.93	210.65
696.07	161.50
696.20	184.90
696.33	271.50
696.47	201.29
696.60	147.45
696.73	313.63
696.87	231.71
697.00	168.52
697.14	170.86
697.27	168.52
697.40	205.97
697.54	121.71
697.67	283.20
697.80	208.31
697.94	168.52
698.07	180.22
698.21	180.22
698.34	229.37
698.47	166.18
698.61	194.26
698.74	156.82
698.87	198.95
699.01	203.63
699.14	201.29
699.27	215.33
699.40	238.73
699.54	222.35
699.67	156.82
699.80	173.20
699.94	154.48
700.07	168.52
700.20	191.92
700.34	142.77
700.47	107.66
700.60	203.63
700.73	205.97
700.87	212.99
701.00	196.60
701.13	37.45
701.26	161.50
701.40	220.01
701.53	187.24
701.66	198.95
701.79	149.79
701.93	107.66
702.06	201.29
702.19	222.35
702.32	180.22
702.46	161.50
702.59	149.79
702.72	198.95
702.85	191.92
702.99	180.22
703.12	220.01
703.25	156.82
703.38	238.73
703.51	140.43
703.65	227.03
703.78	243.42
703.91	227.03
704.04	208.31
704.17	252.78
704.31	191.92
704.44	278.52
704.57	276.18
704.70	294.91
704.83	264.48
704.96	308.95
705.10	334.70
705.23	325.33
>>>>>End Processed Spectral Data<<<<<
