SpectraSuite Data File
++++++++++++++++++++++++++++++++++++
Date: Fri Oct 04 11:41:47 GMT-05:00 2013
User: price-jones
Dark Spectrum Present: No
Reference Spectrum Present: No
Number of Sampled Component Spectra: 1
Spectrometers: USB2+H05261
Integration Time (usec): 100000 (USB2+H05261)
Spectra Averaged: 1 (USB2+H05261)
Boxcar Smoothing: 0 (USB2+H05261)
Correct for Electrical Dark: No (USB2+H05261)
Strobe/Lamp Enabled: No (USB2+H05261)
Correct for Detector Non-linearity: No (USB2+H05261)
Correct for Stray Light: No (USB2+H05261)
Number of Pixels in Processed Spectrum: 2048
>>>>>Begin Processed Spectral Data<<<<<
365.73	21.06
365.92	21.06
366.12	21.06
366.32	0.00
366.52	0.00
366.72	2.34
366.91	0.00
367.11	0.00
367.31	0.00
367.51	0.00
367.70	0.00
367.90	0.00
368.10	14.04
368.30	0.00
368.49	0.00
368.69	0.00
368.89	0.00
369.09	0.00
369.28	0.00
369.48	0.00
369.68	0.00
369.87	117.03
370.07	0.00
370.27	23.41
370.47	0.00
370.66	18.72
370.86	21.06
371.06	0.00
371.25	112.35
371.45	42.13
371.65	121.71
371.84	70.22
372.04	100.64
372.24	133.41
372.44	81.92
372.63	154.48
372.83	177.88
373.03	100.64
373.22	28.09
373.42	86.60
373.62	112.35
373.81	135.75
374.01	121.71
374.21	149.79
374.40	42.13
374.60	133.41
374.79	117.03
374.99	119.37
375.19	98.30
375.38	152.13
375.58	126.39
375.78	133.41
375.97	149.79
376.17	182.56
376.37	93.62
376.56	119.37
376.76	84.26
376.95	107.66
377.15	217.67
377.35	147.45
377.54	117.03
377.74	168.52
377.93	112.35
378.13	152.13
378.33	196.60
378.52	105.32
378.72	149.79
378.91	154.48
379.11	145.11
379.31	140.43
379.50	35.11
379.70	117.03
379.89	142.77
380.09	70.22
380.28	128.73
380.48	117.03
380.68	67.88
380.87	53.83
381.07	91.28
381.26	149.79
381.46	107.66
381.65	110.01
381.85	51.49
382.04	37.45
382.24	98.30
382.43	156.82
382.63	140.43
382.83	93.62
383.02	147.45
383.22	152.13
383.41	84.26
383.61	131.07
383.80	65.54
384.00	210.65
384.19	51.49
384.39	93.62
384.58	119.37
384.78	98.30
384.97	112.35
385.17	131.07
385.36	131.07
385.56	133.41
385.75	117.03
385.95	152.13
386.14	124.05
386.34	102.98
386.53	56.17
386.72	163.84
386.92	131.07
387.11	152.13
387.31	44.47
387.50	112.35
387.70	67.88
387.89	145.11
388.09	173.20
388.28	65.54
388.48	117.03
388.67	159.16
388.86	28.09
389.06	140.43
389.25	184.90
389.45	114.69
389.64	102.98
389.84	163.84
390.03	175.54
390.22	173.20
390.42	112.35
390.61	133.41
390.81	95.96
391.00	105.32
391.19	145.11
391.39	107.66
391.58	156.82
391.78	0.00
391.97	100.64
392.16	100.64
392.36	126.39
392.55	100.64
392.75	77.24
392.94	70.22
393.13	189.58
393.33	93.62
393.52	191.92
393.71	198.95
393.91	147.45
394.10	182.56
394.29	163.84
394.49	91.28
394.68	152.13
394.88	121.71
395.07	147.45
395.26	124.05
395.46	105.32
395.65	154.48
395.84	159.16
396.04	189.58
396.23	81.92
396.42	119.37
396.62	86.60
396.81	121.71
397.00	168.52
397.19	147.45
397.39	159.16
397.58	159.16
397.77	166.18
397.97	124.05
398.16	107.66
398.35	135.75
398.55	112.35
398.74	140.43
398.93	177.88
399.12	147.45
399.32	154.48
399.51	95.96
399.70	163.84
399.90	98.30
400.09	217.67
400.28	203.63
400.47	114.69
400.67	177.88
400.86	156.82
401.05	142.77
401.24	170.86
401.44	170.86
401.63	152.13
401.82	156.82
402.01	159.16
402.21	149.79
402.40	203.63
402.59	220.01
402.78	170.86
402.97	131.07
403.17	276.18
403.36	271.50
403.55	276.18
403.74	568.75
403.93	1827.96
404.13	4161.47
404.32	5280.25
404.51	4442.34
404.70	2548.84
404.89	1029.84
405.09	440.02
405.28	236.39
405.47	173.20
405.66	245.76
405.85	170.86
406.05	147.45
406.24	161.50
406.43	212.99
406.62	168.52
406.81	245.76
407.00	411.93
407.20	535.98
407.39	706.84
407.58	844.93
407.77	613.22
407.96	388.53
408.15	231.71
408.34	222.35
408.54	166.18
408.73	170.86
408.92	212.99
409.11	159.16
409.30	217.67
409.49	128.73
409.68	124.05
409.87	124.05
410.07	161.50
410.26	203.63
410.45	149.79
410.64	205.97
410.83	208.31
411.02	131.07
411.21	220.01
411.40	259.80
411.59	138.09
411.78	149.79
411.98	215.33
412.17	205.97
412.36	208.31
412.55	210.65
412.74	205.97
412.93	332.36
413.12	191.92
413.31	170.86
413.50	187.24
413.69	182.56
413.88	177.88
414.07	191.92
414.26	191.92
414.45	166.18
414.64	184.90
414.83	248.10
415.02	238.73
415.22	252.78
415.41	236.39
415.60	250.44
415.79	210.65
415.98	276.18
416.17	222.35
416.36	177.88
416.55	215.33
416.74	266.82
416.93	257.46
417.12	163.84
417.31	241.08
417.50	262.14
417.69	269.16
417.88	308.95
418.07	210.65
418.26	173.20
418.45	152.13
418.64	273.84
418.83	255.12
419.02	264.48
419.21	264.48
419.39	250.44
419.58	259.80
419.77	252.78
419.96	248.10
420.15	276.18
420.34	259.80
420.53	212.99
420.72	311.29
420.91	250.44
421.10	196.60
421.29	255.12
421.48	318.31
421.67	337.04
421.86	315.97
422.05	276.18
422.24	194.26
422.43	262.14
422.61	229.37
422.80	287.89
422.99	280.86
423.18	250.44
423.37	255.12
423.56	220.01
423.75	215.33
423.94	248.10
424.13	138.09
424.32	212.99
424.50	236.39
424.69	234.05
424.88	322.99
425.07	231.71
425.26	273.84
425.45	252.78
425.64	250.44
425.83	262.14
426.01	367.46
426.20	243.42
426.39	353.42
426.58	252.78
426.77	255.12
426.96	259.80
427.15	271.50
427.33	271.50
427.52	236.39
427.71	294.91
427.90	285.55
428.09	330.02
428.28	322.99
428.46	220.01
428.65	332.36
428.84	351.08
429.03	341.72
429.22	250.44
429.40	351.08
429.59	287.89
429.78	297.25
429.97	182.56
430.16	287.89
430.34	287.89
430.53	313.63
430.72	283.20
430.91	454.06
431.10	276.18
431.28	393.21
431.47	360.44
431.66	318.31
431.85	301.93
432.03	290.23
432.22	433.00
432.41	404.91
432.60	381.51
432.79	400.23
432.97	463.43
433.16	425.98
433.35	402.57
433.54	463.43
433.72	468.11
433.91	461.09
434.10	615.56
434.28	662.37
434.47	748.97
434.66	732.59
434.85	1025.15
435.03	2874.18
435.22	10970.09
435.41	23054.28
435.59	22902.14
435.78	14764.10
435.97	7346.94
436.16	2787.58
436.34	1104.73
436.53	718.54
436.72	608.54
436.90	498.53
437.09	440.02
437.28	442.36
437.46	369.80
437.65	386.19
437.84	341.72
438.02	402.57
438.21	416.62
438.40	388.53
438.58	381.51
438.77	388.53
438.96	362.78
439.14	313.63
439.33	454.06
439.52	388.53
439.70	411.93
439.89	388.53
440.08	390.87
440.26	397.89
440.45	402.57
440.63	407.25
440.82	425.98
441.01	346.40
441.19	430.66
441.38	397.89
441.57	386.19
441.75	353.42
441.94	379.17
442.12	346.40
442.31	451.72
442.50	337.04
442.68	346.40
442.87	355.76
443.05	402.57
443.24	351.08
443.43	386.19
443.61	456.40
443.80	365.12
443.98	306.61
444.17	320.65
444.35	421.30
444.54	299.59
444.73	397.89
444.91	372.15
445.10	402.57
445.28	395.55
445.47	344.06
445.65	351.08
445.84	301.93
446.02	397.89
446.21	400.23
446.39	313.63
446.58	461.09
446.77	339.38
446.95	437.68
447.14	376.83
447.32	367.46
447.51	393.21
447.69	390.87
447.88	383.85
448.06	397.89
448.25	365.12
448.43	372.15
448.62	362.78
448.80	367.46
448.99	365.12
449.17	365.12
449.36	351.08
449.54	430.66
449.73	390.87
449.91	416.62
450.10	339.38
450.28	444.70
450.46	409.59
450.65	414.27
450.83	341.72
451.02	449.38
451.20	348.74
451.39	315.97
451.57	348.74
451.76	397.89
451.94	360.44
452.13	374.49
452.31	379.17
452.49	376.83
452.68	362.78
452.86	330.02
453.05	379.17
453.23	374.49
453.42	308.95
453.60	365.12
453.78	348.74
453.97	348.74
454.15	376.83
454.34	308.95
454.52	418.96
454.70	458.74
454.89	416.62
455.07	348.74
455.26	330.02
455.44	418.96
455.62	393.21
455.81	332.36
455.99	407.25
456.17	341.72
456.36	358.10
456.54	400.23
456.73	311.29
456.91	369.80
457.09	334.70
457.28	418.96
457.46	341.72
457.64	444.70
457.83	280.86
458.01	360.44
458.19	411.93
458.38	266.82
458.56	358.10
458.74	320.65
458.93	358.10
459.11	393.21
459.29	360.44
459.48	430.66
459.66	423.64
459.84	376.83
460.03	475.13
460.21	409.59
460.39	433.00
460.57	376.83
460.76	358.10
460.94	348.74
461.12	404.91
461.31	332.36
461.49	358.10
461.67	372.15
461.85	353.42
462.04	353.42
462.22	889.40
462.40	332.36
462.59	381.51
462.77	400.23
462.95	379.17
463.13	388.53
463.32	381.51
463.50	348.74
463.68	334.70
463.86	421.30
464.05	315.97
464.23	376.83
464.41	451.72
464.59	332.36
464.78	425.98
464.96	360.44
465.14	332.36
465.32	301.93
465.50	362.78
465.69	407.25
465.87	334.70
466.05	339.38
466.23	374.49
466.41	348.74
466.60	358.10
466.78	353.42
466.96	339.38
467.14	393.21
467.32	381.51
467.51	451.72
467.69	365.12
467.87	425.98
468.05	372.15
468.23	327.68
468.41	341.72
468.60	297.25
468.78	330.02
468.96	325.33
469.14	318.31
469.32	334.70
469.50	318.31
469.69	255.12
469.87	301.93
470.05	297.25
470.23	245.76
470.41	264.48
470.59	327.68
470.77	341.72
470.95	376.83
471.14	322.99
471.32	325.33
471.50	383.85
471.68	402.57
471.86	362.78
472.04	437.68
472.22	362.78
472.40	339.38
472.58	337.04
472.77	376.83
472.95	351.08
473.13	510.24
473.31	486.83
473.49	358.10
473.67	390.87
473.85	402.57
474.03	327.68
474.21	365.12
474.39	360.44
474.57	440.02
474.75	287.89
474.93	374.49
475.12	262.14
475.30	318.31
475.48	315.97
475.66	418.96
475.84	327.68
476.02	341.72
476.20	351.08
476.38	339.38
476.56	451.72
476.74	327.68
476.92	360.44
477.10	353.42
477.28	337.04
477.46	372.15
477.64	348.74
477.82	407.25
478.00	374.49
478.18	414.27
478.36	416.62
478.54	327.68
478.72	386.19
478.90	449.38
479.08	472.79
479.26	451.72
479.44	449.38
479.62	418.96
479.80	365.12
479.98	486.83
480.16	454.06
480.34	519.60
480.52	528.96
480.70	503.22
480.88	503.22
481.06	622.58
481.24	566.41
481.41	610.88
481.59	641.31
481.77	671.73
481.95	664.71
482.13	774.72
482.31	772.38
482.49	807.48
482.67	887.06
482.85	905.79
483.03	1001.75
483.21	983.02
483.39	1170.27
483.57	1160.91
483.74	1275.59
483.92	1270.91
484.10	1446.45
484.28	1561.14
484.46	1619.65
484.64	1643.06
484.82	1692.21
485.00	1734.34
485.18	1863.07
485.35	2052.65
485.53	1959.03
485.71	2216.49
485.89	2228.19
486.07	2216.49
486.25	2270.32
486.43	2338.20
486.61	2319.47
486.78	2300.75
486.96	2235.21
487.14	2263.30
487.32	2328.83
487.50	2293.72
487.68	2223.51
487.85	2176.70
488.03	2214.15
488.21	2272.66
488.39	2258.62
488.57	2122.87
488.75	2036.27
488.92	2190.74
489.10	2017.54
489.28	1998.82
489.46	1804.55
489.64	1891.15
489.81	1839.66
489.99	1860.73
490.17	1830.30
490.35	1732.00
490.53	1856.04
490.70	1739.02
490.88	1844.34
491.06	1839.66
491.24	1944.99
491.41	1933.28
491.59	1935.62
491.77	1741.36
491.95	1600.93
492.13	1614.97
492.30	1631.35
492.48	1570.50
492.66	1678.16
492.84	1549.43
493.01	1490.92
493.19	1666.46
493.37	1554.12
493.54	1544.75
493.72	1481.56
493.90	1413.68
494.08	1406.66
494.25	1366.87
494.43	1334.11
494.61	1371.55
494.79	1313.04
494.96	1296.66
495.14	1352.83
495.32	1313.04
495.49	1207.72
495.67	1118.78
495.85	1198.35
496.02	1198.35
496.20	1238.14
496.38	1224.10
496.55	1151.54
496.73	1135.16
496.91	1048.56
497.09	1083.67
497.26	1076.65
497.44	1057.92
497.62	1109.41
497.79	1095.37
497.97	1088.35
498.14	971.32
498.32	1008.77
498.50	985.37
498.67	1013.45
498.85	973.66
499.03	938.55
499.20	812.17
499.38	807.48
499.56	844.93
499.73	901.11
499.91	851.96
500.08	770.04
500.26	819.19
500.44	725.57
500.61	720.88
500.79	613.22
500.97	653.01
501.14	709.18
501.32	688.12
501.49	716.20
501.67	643.65
501.84	610.88
502.02	566.41
502.20	641.31
502.37	667.05
502.55	631.94
502.72	547.69
502.90	582.79
503.07	622.58
503.25	561.73
503.43	524.28
503.60	447.04
503.78	599.18
503.95	514.92
504.13	500.87
504.30	404.91
504.48	496.19
504.65	486.83
504.83	521.94
505.01	456.40
505.18	400.23
505.36	451.72
505.53	379.17
505.71	465.77
505.88	360.44
506.06	365.12
506.23	374.49
506.41	358.10
506.58	423.64
506.76	367.46
506.93	465.77
507.11	470.45
507.28	486.83
507.46	416.62
507.63	423.64
507.81	418.96
507.98	367.46
508.16	374.49
508.33	489.17
508.50	442.36
508.68	414.27
508.85	493.85
509.03	390.87
509.20	425.98
509.38	376.83
509.55	430.66
509.73	362.78
509.90	407.25
510.08	383.85
510.25	379.17
510.42	381.51
510.60	348.74
510.77	358.10
510.95	400.23
511.12	322.99
511.30	313.63
511.47	360.44
511.64	435.34
511.82	395.55
511.99	383.85
512.17	404.91
512.34	390.87
512.51	367.46
512.69	437.68
512.86	379.17
513.04	458.74
513.21	449.38
513.38	351.08
513.56	339.38
513.73	344.06
513.90	416.62
514.08	395.55
514.25	308.95
514.43	292.57
514.60	315.97
514.77	315.97
514.95	294.91
515.12	287.89
515.29	411.93
515.47	337.04
515.64	374.49
515.81	341.72
515.99	360.44
516.16	416.62
516.33	339.38
516.51	327.68
516.68	433.00
516.85	344.06
517.03	397.89
517.20	315.97
517.37	381.51
517.54	344.06
517.72	369.80
517.89	325.33
518.06	266.82
518.24	332.36
518.41	369.80
518.58	355.76
518.75	299.59
518.93	318.31
519.10	301.93
519.27	346.40
519.45	379.17
519.62	402.57
519.79	322.99
519.96	327.68
520.14	327.68
520.31	330.02
520.48	315.97
520.65	409.59
520.83	243.42
521.00	332.36
521.17	299.59
521.34	337.04
521.52	386.19
521.69	383.85
521.86	255.12
522.03	374.49
522.20	402.57
522.38	259.80
522.55	388.53
522.72	290.23
522.89	374.49
523.07	381.51
523.24	304.27
523.41	236.39
523.58	353.42
523.75	308.95
523.92	250.44
524.10	327.68
524.27	332.36
524.44	404.91
524.61	245.76
524.78	320.65
524.96	409.59
525.13	372.15
525.30	330.02
525.47	423.64
525.64	449.38
525.81	386.19
525.98	414.27
526.16	386.19
526.33	308.95
526.50	348.74
526.67	330.02
526.84	390.87
527.01	411.93
527.18	372.15
527.36	379.17
527.53	395.55
527.70	423.64
527.87	365.12
528.04	369.80
528.21	390.87
528.38	421.30
528.55	386.19
528.72	376.83
528.89	503.22
529.07	421.30
529.24	386.19
529.41	535.98
529.58	437.68
529.75	365.12
529.92	442.36
530.09	353.42
530.26	376.83
530.43	369.80
530.60	433.00
530.77	330.02
530.94	493.85
531.11	535.98
531.28	440.02
531.46	475.13
531.63	617.90
531.80	521.94
531.97	587.47
532.14	683.44
532.31	716.20
532.48	938.55
532.65	912.81
532.82	990.05
532.99	1280.27
533.16	1425.39
533.33	1404.32
533.50	1329.42
533.67	1088.35
533.84	1013.45
534.01	933.87
534.18	870.68
534.35	947.92
534.52	849.61
534.69	889.40
534.86	898.77
535.03	952.60
535.20	950.26
535.37	1114.10
535.54	1001.75
535.71	1109.41
535.88	1275.59
536.05	1310.70
536.22	1420.71
536.38	1427.73
536.55	1549.43
536.72	1739.02
536.89	1860.73
537.06	2169.68
537.23	2279.68
537.40	2583.95
537.57	2785.24
537.74	2864.82
537.91	3049.72
538.08	2984.18
538.25	3077.80
538.42	3082.49
538.59	3204.19
538.75	3204.19
538.92	3438.25
539.09	3779.97
539.26	4353.40
539.43	4898.74
539.60	5411.32
539.77	6200.08
539.94	6640.10
540.11	7379.71
540.28	8273.79
540.44	8854.25
540.61	9762.37
540.78	11648.85
540.95	13502.55
541.12	15922.66
541.29	18321.71
541.46	18773.44
541.62	18661.09
541.79	18183.62
541.96	16767.60
542.13	15199.44
542.30	14387.27
542.47	13621.92
542.63	13020.40
542.80	12620.17
542.97	12276.11
543.14	12133.34
543.31	12304.20
543.48	12610.81
543.64	12816.77
543.81	12432.93
543.98	12821.45
544.15	12952.52
544.32	12549.95
544.48	12891.67
544.65	12676.34
544.82	12435.27
544.99	12657.62
545.16	12641.23
545.32	13607.87
545.49	23852.40
545.66	43831.21
545.83	49865.11
546.00	42492.43
546.16	28933.70
546.33	21525.91
546.50	16238.64
546.67	12917.42
546.83	11592.67
547.00	11021.58
547.17	10441.13
547.34	10181.33
547.50	9762.37
547.67	9240.44
547.84	8978.30
548.00	8589.77
548.17	8222.30
548.34	7906.33
548.51	7679.30
548.67	7358.64
548.84	7007.56
549.01	6752.45
549.18	6363.92
549.34	6087.73
549.51	5912.19
549.68	5753.04
549.84	5420.68
550.01	5287.27
550.18	5102.37
550.34	4856.61
550.51	4596.81
550.68	4285.52
550.84	4079.55
551.01	3922.74
551.18	3735.50
551.34	3499.10
551.51	3363.35
551.68	3323.56
551.84	3129.30
552.01	3045.04
552.18	2939.71
552.34	2822.69
552.51	2595.65
552.68	2579.27
552.84	2443.52
553.01	2443.52
553.18	2335.85
553.34	2284.36
553.51	2235.21
553.67	2080.74
553.84	2078.40
554.01	1923.92
554.17	1830.30
554.34	1710.93
554.51	1535.39
554.67	1596.25
554.84	1486.24
555.00	1380.92
555.17	1268.57
555.33	1291.98
555.50	1219.42
555.67	1294.32
555.83	1170.27
556.00	1174.95
556.16	1282.61
556.33	1071.97
556.50	950.26
556.66	896.43
556.83	875.36
556.99	809.83
557.16	866.00
557.32	889.40
557.49	847.27
557.65	854.30
557.82	779.40
557.98	734.93
558.15	753.65
558.32	690.46
558.48	812.17
558.65	772.38
558.81	718.54
558.98	704.50
559.14	720.88
559.31	716.20
559.47	690.46
559.64	606.20
559.80	571.09
559.97	676.41
560.13	655.35
560.30	617.90
560.46	706.84
560.63	603.86
560.79	697.48
560.96	608.54
561.12	636.63
561.29	552.37
561.45	608.54
561.61	648.33
561.78	774.72
561.94	643.65
562.11	617.90
562.27	521.94
562.44	615.56
562.60	559.39
562.77	566.41
562.93	671.73
563.10	627.26
563.26	589.82
563.42	575.77
563.59	573.43
563.75	531.30
563.92	540.66
564.08	540.66
564.24	585.13
564.41	535.98
564.57	451.72
564.74	458.74
564.90	531.30
565.07	585.13
565.23	479.81
565.39	540.66
565.56	505.56
565.72	543.00
565.88	465.77
566.05	472.79
566.21	397.89
566.38	437.68
566.54	528.96
566.70	538.32
566.87	411.93
567.03	507.90
567.19	510.24
567.36	498.53
567.52	479.81
567.68	517.26
567.85	425.98
568.01	489.17
568.17	414.27
568.34	472.79
568.50	489.17
568.66	456.40
568.83	599.18
568.99	463.43
569.15	587.47
569.32	477.47
569.48	479.81
569.64	318.31
569.81	461.09
569.97	440.02
570.13	535.98
570.30	423.64
570.46	355.76
570.62	353.42
570.78	353.42
570.95	341.72
571.11	451.72
571.27	425.98
571.43	379.17
571.60	381.51
571.76	402.57
571.92	315.97
572.09	458.74
572.25	409.59
572.41	414.27
572.57	374.49
572.74	437.68
572.90	421.30
573.06	528.96
573.22	433.00
573.38	442.36
573.55	505.56
573.71	449.38
573.87	479.81
574.03	468.11
574.20	404.91
574.36	589.82
574.52	468.11
574.68	451.72
574.84	510.24
575.01	550.03
575.17	552.37
575.33	514.92
575.49	629.60
575.65	624.92
575.82	615.56
575.98	847.27
576.14	788.76
576.30	1664.12
576.46	5261.52
576.62	8346.35
576.79	8557.00
576.95	6289.02
577.11	3953.16
577.27	2839.07
577.43	2076.06
577.59	1399.64
577.75	1081.33
577.92	968.98
578.08	954.94
578.24	1064.94
578.40	1842.00
578.56	5095.35
578.72	7742.49
578.88	8065.49
579.04	5832.62
579.21	4161.47
579.37	3026.31
579.53	2492.67
579.69	2459.90
579.85	2923.33
580.01	3274.41
580.17	3248.66
580.33	2810.98
580.49	2373.30
580.65	2235.21
580.82	2029.24
580.98	1898.17
581.14	1926.26
581.30	2094.78
581.46	2167.34
581.62	2256.28
581.78	2520.76
581.94	2750.13
582.10	2740.77
582.26	3028.65
582.42	2979.50
582.58	3178.45
582.74	3194.83
582.90	3309.52
583.06	3089.51
583.22	3208.87
583.38	3330.58
583.54	3248.66
583.70	3342.28
583.86	3145.68
584.02	3080.14
584.18	3185.47
584.34	2991.20
584.50	3056.74
584.66	2965.46
584.82	2995.89
584.98	2892.90
585.14	2862.48
585.30	2846.09
585.46	2789.92
585.62	2677.57
585.78	2768.85
585.94	2738.43
586.10	2911.63
586.26	2928.01
586.42	3377.39
586.58	4084.23
586.74	4819.16
586.90	5944.96
587.06	6375.62
587.22	6012.84
587.38	5509.62
587.54	4720.86
587.70	4126.36
587.86	3485.06
588.02	3012.27
588.18	2726.72
588.34	2399.05
588.49	2155.63
588.65	2106.48
588.81	2031.58
588.97	2040.95
589.13	1860.73
589.29	1806.89
589.45	1898.17
589.61	1746.04
589.77	1923.92
589.93	1792.85
590.08	1937.96
590.24	1916.90
590.40	2071.37
590.56	2038.61
590.72	2026.90
590.88	2214.15
591.04	2204.78
591.20	2321.81
591.35	2394.37
591.51	2516.08
591.67	2572.25
591.83	2752.47
591.99	3087.17
592.15	3370.37
592.31	3588.04
592.46	3882.95
592.62	4308.93
592.78	4465.74
592.94	4454.04
593.10	4411.91
593.26	4229.35
593.41	3918.06
593.57	3562.30
593.73	3150.36
593.89	2876.52
594.05	2567.57
594.20	2270.32
594.36	2099.46
594.52	1905.20
594.68	1900.52
594.84	1783.49
594.99	1734.34
595.15	1771.79
595.31	1720.29
595.47	1666.46
595.62	1652.42
595.78	1689.87
595.94	1671.14
596.10	1687.53
596.25	1657.10
596.41	1652.42
596.57	1692.21
596.73	1689.87
596.88	1556.46
597.04	1659.44
597.20	1689.87
597.36	1671.14
597.51	1685.19
597.67	1774.13
597.83	1846.68
597.99	1994.14
598.14	2080.74
598.30	2228.19
598.46	2356.92
598.61	2445.86
598.77	2560.55
598.93	2532.46
599.09	2754.81
599.24	2782.90
599.40	2738.43
599.56	2700.98
599.71	2476.29
599.87	2352.24
600.03	2277.34
600.18	2174.36
600.34	2054.99
600.50	1940.30
600.65	1820.94
600.81	1687.53
600.97	1549.43
601.12	1535.39
601.28	1533.05
601.44	1385.60
601.59	1268.57
601.75	1289.64
601.91	1256.87
602.06	1167.93
602.22	1233.46
602.37	1196.01
602.53	1179.63
602.69	1184.31
602.84	1069.62
603.00	1151.54
603.16	1172.61
603.31	1214.74
603.47	1289.64
603.62	1174.95
603.78	1228.78
603.94	1270.91
604.09	1158.57
604.25	1338.79
604.40	1284.95
604.56	1350.49
604.71	1334.11
604.87	1357.51
605.03	1390.28
605.18	1364.53
605.34	1472.20
605.49	1409.00
605.65	1423.05
605.80	1542.41
605.96	1554.12
606.12	1706.25
606.27	1593.90
606.43	1785.83
606.58	1902.86
606.74	1853.70
606.89	1961.37
607.05	2157.97
607.20	2244.57
607.36	2354.58
607.51	2443.52
607.67	2586.29
607.82	2757.15
607.98	2925.67
608.13	3084.83
608.29	3365.69
608.44	3707.41
608.60	3932.10
608.75	4397.87
608.91	4636.60
609.06	5093.01
609.22	5741.33
609.37	6225.82
609.53	7218.21
609.68	8072.51
609.84	9224.05
609.99	10686.89
610.15	12608.47
610.30	15541.16
610.46	19910.94
610.61	25633.55
610.76	32767.50
610.92	39714.21
611.07	44208.04
611.23	44605.93
611.38	42026.66
611.54	37317.50
611.69	31257.85
611.84	26312.30
612.00	22410.63
612.15	18228.09
612.31	16159.06
612.46	14497.28
612.62	13383.18
612.77	12809.75
612.92	11845.45
613.08	11447.56
613.23	10817.96
613.39	10375.59
613.54	10202.40
613.69	10005.79
613.85	9687.48
614.00	9802.16
614.15	9703.86
614.31	9579.81
614.46	9385.55
614.62	8854.25
614.77	8594.45
614.92	8013.99
615.08	7590.36
615.23	7002.88
615.38	6307.74
615.54	5781.12
615.69	5156.20
615.84	4781.71
616.00	4411.91
616.15	4112.32
616.30	4053.81
616.46	3726.13
616.61	3569.32
616.76	3297.81
616.92	3272.07
617.07	3049.72
617.22	2965.46
617.37	2715.02
617.53	2715.02
617.68	2443.52
617.83	2450.54
617.99	2392.03
618.14	2462.24
618.29	2385.01
618.45	2225.85
618.60	2165.00
618.75	2115.84
618.90	2134.57
619.06	2127.55
619.21	2162.66
619.36	2059.67
619.51	2139.25
619.67	2024.56
619.82	2193.08
619.97	2132.23
620.12	2204.78
620.28	2223.51
620.43	2225.85
620.58	2314.79
620.73	2303.09
620.89	2275.00
621.04	2218.83
621.19	2448.20
621.34	2172.02
621.49	2101.80
621.65	2136.91
621.80	2108.82
621.95	2146.27
622.10	2129.89
622.25	2167.34
622.41	2174.36
622.56	2239.89
622.71	2408.41
622.86	2459.90
623.01	2394.37
623.16	2349.90
623.32	2335.85
623.47	2509.05
623.62	2387.35
623.77	2415.43
623.92	2438.84
624.07	2504.37
624.23	2328.83
624.38	2370.96
624.53	2331.17
624.68	2504.37
624.83	2473.95
624.98	2459.90
625.13	2466.92
625.29	2473.95
625.44	2509.05
625.59	2565.23
625.74	2647.15
625.89	2609.70
626.04	2394.37
626.19	2373.30
626.34	2548.84
626.49	2462.24
626.65	2399.05
626.80	2555.86
626.95	2422.45
627.10	2307.77
627.25	2328.83
627.40	2352.24
627.55	2263.30
627.70	2296.07
627.85	2230.53
628.00	2190.74
628.15	2169.68
628.30	2165.00
628.45	2225.85
628.60	2136.91
628.76	2202.44
628.91	2263.30
629.06	2239.89
629.21	2232.87
629.36	2359.26
629.51	2445.86
629.66	2513.74
629.81	2581.61
629.96	2930.35
630.11	3311.86
630.26	3672.30
630.41	4091.26
630.56	4404.89
630.71	4662.35
630.86	4786.40
631.01	4695.11
631.16	4348.72
631.31	3833.80
631.46	3403.14
631.61	2789.92
631.76	2363.94
631.91	2052.65
632.06	1736.68
632.21	1547.09
632.36	1390.28
632.51	1217.08
632.66	1067.28
632.81	1057.92
632.96	938.55
633.10	877.70
633.25	798.12
633.40	755.99
633.55	898.77
633.70	814.51
633.85	767.70
634.00	734.93
634.15	748.97
634.30	802.80
634.45	704.50
634.60	706.84
634.75	704.50
634.90	692.80
635.05	676.41
635.19	695.14
635.34	608.54
635.49	641.31
635.64	603.86
635.79	603.86
635.94	624.92
636.09	725.57
636.24	660.03
636.39	645.99
636.53	566.41
636.68	596.84
636.83	575.77
636.98	660.03
637.13	641.31
637.28	587.47
637.43	568.75
637.57	631.94
637.72	594.50
637.87	554.71
638.02	564.07
638.17	528.96
638.32	507.90
638.46	550.03
638.61	486.83
638.76	535.98
638.91	500.87
639.06	449.38
639.20	463.43
639.35	489.17
639.50	552.37
639.65	566.41
639.80	451.72
639.94	554.71
640.09	472.79
640.24	496.19
640.39	472.79
640.54	514.92
640.68	491.51
640.83	440.02
640.98	493.85
641.13	505.56
641.27	449.38
641.42	468.11
641.57	444.70
641.72	472.79
641.86	531.30
642.01	418.96
642.16	510.24
642.31	512.58
642.45	610.88
642.60	437.68
642.75	470.45
642.90	524.28
643.04	482.15
643.19	540.66
643.34	566.41
643.48	538.32
643.63	510.24
643.78	491.51
643.93	517.26
644.07	463.43
644.22	484.49
644.37	470.45
644.51	517.26
644.66	461.09
644.81	493.85
644.95	475.13
645.10	475.13
645.25	463.43
645.39	477.47
645.54	503.22
645.69	458.74
645.83	421.30
645.98	531.30
646.13	414.27
646.27	433.00
646.42	519.60
646.57	423.64
646.71	449.38
646.86	344.06
647.00	365.12
647.15	486.83
647.30	456.40
647.44	458.74
647.59	425.98
647.74	430.66
647.88	468.11
648.03	433.00
648.17	435.34
648.32	418.96
648.47	503.22
648.61	477.47
648.76	510.24
648.90	512.58
649.05	564.07
649.20	587.47
649.34	587.47
649.49	685.78
649.63	760.67
649.78	908.13
649.92	1046.22
650.07	1224.10
650.21	1366.87
650.36	1392.62
650.51	1268.57
650.65	1362.19
650.80	1118.78
650.94	1078.99
651.09	926.85
651.23	856.64
651.38	760.67
651.52	767.70
651.67	681.10
651.81	641.31
651.96	578.11
652.10	636.63
652.25	580.45
652.39	634.29
652.54	629.60
652.68	571.09
652.83	683.44
652.97	664.71
653.12	704.50
653.26	660.03
653.41	608.54
653.55	636.63
653.70	669.39
653.84	547.69
653.99	564.07
654.13	547.69
654.27	491.51
654.42	477.47
654.56	411.93
654.71	521.94
654.85	423.64
655.00	397.89
655.14	440.02
655.29	421.30
655.43	514.92
655.57	430.66
655.72	393.21
655.86	465.77
656.01	477.47
656.15	428.32
656.30	486.83
656.44	484.49
656.58	428.32
656.73	334.70
656.87	463.43
657.01	421.30
657.16	491.51
657.30	486.83
657.45	566.41
657.59	550.03
657.73	610.88
657.88	491.51
658.02	608.54
658.16	566.41
658.31	444.70
658.45	411.93
658.60	372.15
658.74	428.32
658.88	461.09
659.03	402.57
659.17	428.32
659.31	334.70
659.46	362.78
659.60	383.85
659.74	348.74
659.89	362.78
660.03	376.83
660.17	388.53
660.32	374.49
660.46	344.06
660.60	271.50
660.74	306.61
660.89	402.57
661.03	290.23
661.17	411.93
661.32	418.96
661.46	456.40
661.60	498.53
661.74	622.58
661.89	716.20
662.03	837.91
662.17	884.72
662.31	863.66
662.46	863.66
662.60	847.27
662.74	695.14
662.88	653.01
663.03	564.07
663.17	482.15
663.31	543.00
663.45	538.32
663.60	428.32
663.74	472.79
663.88	414.27
664.02	376.83
664.17	362.78
664.31	313.63
664.45	386.19
664.59	383.85
664.73	315.97
664.88	348.74
665.02	304.27
665.16	320.65
665.30	430.66
665.44	297.25
665.59	411.93
665.73	294.91
665.87	379.17
666.01	367.46
666.15	318.31
666.29	304.27
666.44	330.02
666.58	400.23
666.72	367.46
666.86	355.76
667.00	351.08
667.14	346.40
667.28	351.08
667.43	353.42
667.57	388.53
667.71	367.46
667.85	278.52
667.99	318.31
668.13	271.50
668.27	322.99
668.41	320.65
668.56	322.99
668.70	400.23
668.84	285.55
668.98	308.95
669.12	308.95
669.26	360.44
669.40	353.42
669.54	280.86
669.68	341.72
669.82	248.10
669.96	344.06
670.10	304.27
670.25	241.08
670.39	318.31
670.53	332.36
670.67	273.84
670.81	301.93
670.95	330.02
671.09	304.27
671.23	287.89
671.37	400.23
671.51	212.99
671.65	386.19
671.79	292.57
671.93	348.74
672.07	341.72
672.21	337.04
672.35	365.12
672.49	294.91
672.63	283.20
672.77	290.23
672.91	292.57
673.05	322.99
673.19	332.36
673.33	248.10
673.47	318.31
673.61	229.37
673.75	217.67
673.89	201.29
674.03	294.91
674.17	276.18
674.31	266.82
674.45	262.14
674.59	301.93
674.73	250.44
674.87	250.44
675.01	224.69
675.15	283.20
675.29	287.89
675.43	231.71
675.56	255.12
675.70	400.23
675.84	276.18
675.98	294.91
676.12	283.20
676.26	243.42
676.40	243.42
676.54	252.78
676.68	304.27
676.82	273.84
676.96	248.10
677.10	245.76
677.23	198.95
677.37	301.93
677.51	222.35
677.65	344.06
677.79	210.65
677.93	212.99
678.07	187.24
678.21	283.20
678.34	224.69
678.48	220.01
678.62	292.57
678.76	294.91
678.90	304.27
679.04	269.16
679.18	227.03
679.31	187.24
679.45	315.97
679.59	264.48
679.73	280.86
679.87	252.78
680.00	322.99
680.14	220.01
680.28	283.20
680.42	299.59
680.56	271.50
680.70	262.14
680.83	320.65
680.97	248.10
681.11	201.29
681.25	294.91
681.39	271.50
681.52	245.76
681.66	208.31
681.80	339.38
681.94	252.78
682.07	320.65
682.21	222.35
682.35	315.97
682.49	278.52
682.62	292.57
682.76	322.99
682.90	301.93
683.04	283.20
683.17	262.14
683.31	210.65
683.45	315.97
683.59	325.33
683.72	285.55
683.86	278.52
684.00	220.01
684.13	224.69
684.27	278.52
684.41	201.29
684.55	287.89
684.68	304.27
684.82	205.97
684.96	201.29
685.09	259.80
685.23	191.92
685.37	227.03
685.50	297.25
685.64	248.10
685.78	332.36
685.91	304.27
686.05	273.84
686.19	315.97
686.32	308.95
686.46	315.97
686.60	322.99
686.73	489.17
686.87	386.19
687.01	344.06
687.14	414.27
687.28	374.49
687.42	463.43
687.55	479.81
687.69	503.22
687.82	535.98
687.96	524.28
688.10	482.15
688.23	442.36
688.37	444.70
688.50	435.34
688.64	379.17
688.78	428.32
688.91	299.59
689.05	269.16
689.18	259.80
689.32	273.84
689.46	269.16
689.59	152.13
689.73	280.86
689.86	231.71
690.00	191.92
690.13	212.99
690.27	187.24
690.41	187.24
690.54	264.48
690.68	290.23
690.81	299.59
690.95	217.67
691.08	161.50
691.22	161.50
691.35	124.05
691.49	173.20
691.62	182.56
691.76	86.60
691.89	191.92
692.03	149.79
692.16	222.35
692.30	159.16
692.43	250.44
692.57	147.45
692.70	184.90
692.84	212.99
692.97	208.31
693.11	308.95
693.24	294.91
693.38	379.17
693.51	376.83
693.65	435.34
693.78	407.25
693.92	353.42
694.05	334.70
694.19	299.59
694.32	259.80
694.45	201.29
694.59	217.67
694.72	262.14
694.86	142.77
694.99	173.20
695.13	187.24
695.26	236.39
695.39	177.88
695.53	194.26
695.66	170.86
695.80	138.09
695.93	198.95
696.07	217.67
696.20	198.95
696.33	187.24
696.47	203.63
696.60	208.31
696.73	257.46
696.87	152.13
697.00	222.35
697.14	210.65
697.27	184.90
697.40	217.67
697.54	149.79
697.67	250.44
697.80	149.79
697.94	88.94
698.07	147.45
698.21	145.11
698.34	133.41
698.47	79.58
698.61	112.35
698.74	189.58
698.87	173.20
699.01	93.62
699.14	147.45
699.27	161.50
699.40	201.29
699.54	126.39
699.67	175.54
699.80	131.07
699.94	81.92
700.07	16.38
700.20	170.86
700.34	154.48
700.47	117.03
700.60	224.69
700.73	102.98
700.87	184.90
701.00	250.44
701.13	91.28
701.26	187.24
701.40	168.52
701.53	152.13
701.66	175.54
701.79	180.22
701.93	191.92
702.06	163.84
702.19	236.39
702.32	145.11
702.46	133.41
702.59	140.43
702.72	142.77
702.85	142.77
702.99	124.05
703.12	222.35
703.25	191.92
703.38	203.63
703.51	215.33
703.65	222.35
703.78	184.90
703.91	203.63
704.04	191.92
704.17	215.33
704.31	262.14
704.44	203.63
704.57	252.78
704.70	252.78
704.83	194.26
704.96	245.76
705.10	301.93
705.23	210.65
>>>>>End Processed Spectral Data<<<<<
