SpectraSuite Data File
++++++++++++++++++++++++++++++++++++
Date: Fri Oct 04 11:41:57 GMT-05:00 2013
User: price-jones
Dark Spectrum Present: No
Reference Spectrum Present: No
Number of Sampled Component Spectra: 1
Spectrometers: USB2+H05261
Integration Time (usec): 100000 (USB2+H05261)
Spectra Averaged: 1 (USB2+H05261)
Boxcar Smoothing: 0 (USB2+H05261)
Correct for Electrical Dark: No (USB2+H05261)
Strobe/Lamp Enabled: No (USB2+H05261)
Correct for Detector Non-linearity: No (USB2+H05261)
Correct for Stray Light: No (USB2+H05261)
Number of Pixels in Processed Spectrum: 2048
>>>>>Begin Processed Spectral Data<<<<<
365.73	65.54
365.92	65.54
366.12	65.54
366.32	0.00
366.52	0.00
366.72	18.72
366.91	0.00
367.11	0.00
367.31	0.00
367.51	0.00
367.70	0.00
367.90	0.00
368.10	0.00
368.30	0.00
368.49	0.00
368.69	0.00
368.89	0.00
369.09	0.00
369.28	0.00
369.48	0.00
369.68	0.00
369.87	28.09
370.07	0.00
370.27	0.00
370.47	46.81
370.66	0.00
370.86	37.45
371.06	37.45
371.25	159.16
371.45	23.41
371.65	135.75
371.84	98.30
372.04	60.85
372.24	88.94
372.44	84.26
372.63	163.84
372.83	102.98
373.03	88.94
373.22	126.39
373.42	128.73
373.62	72.56
373.81	53.83
374.01	182.56
374.21	102.98
374.40	159.16
374.60	95.96
374.79	79.58
374.99	110.01
375.19	117.03
375.38	191.92
375.58	112.35
375.78	74.90
375.97	243.42
376.17	159.16
376.37	112.35
376.56	152.13
376.76	135.75
376.95	117.03
377.15	142.77
377.35	201.29
377.54	128.73
377.74	119.37
377.93	53.83
378.13	119.37
378.33	140.43
378.52	180.22
378.72	119.37
378.91	133.41
379.11	135.75
379.31	112.35
379.50	102.98
379.70	100.64
379.89	98.30
380.09	88.94
380.28	117.03
380.48	98.30
380.68	117.03
380.87	112.35
381.07	77.24
381.26	175.54
381.46	184.90
381.65	149.79
381.85	74.90
382.04	107.66
382.24	124.05
382.43	23.41
382.63	58.51
382.83	98.30
383.02	173.20
383.22	152.13
383.41	135.75
383.61	53.83
383.80	145.11
384.00	133.41
384.19	173.20
384.39	102.98
384.58	72.56
384.78	56.17
384.97	56.17
385.17	161.50
385.36	126.39
385.56	152.13
385.75	112.35
385.95	184.90
386.14	177.88
386.34	60.85
386.53	84.26
386.72	159.16
386.92	63.19
387.11	152.13
387.31	145.11
387.50	79.58
387.70	56.17
387.89	51.49
388.09	107.66
388.28	25.75
388.48	93.62
388.67	177.88
388.86	79.58
389.06	121.71
389.25	170.86
389.45	112.35
389.64	138.09
389.84	128.73
390.03	102.98
390.22	205.97
390.42	65.54
390.61	49.15
390.81	102.98
391.00	100.64
391.19	140.43
391.39	91.28
391.58	154.48
391.78	184.90
391.97	194.26
392.16	95.96
392.36	156.82
392.55	145.11
392.75	112.35
392.94	93.62
393.13	159.16
393.33	159.16
393.52	114.69
393.71	154.48
393.91	63.19
394.10	131.07
394.29	131.07
394.49	182.56
394.68	166.18
394.88	152.13
395.07	128.73
395.26	173.20
395.46	79.58
395.65	182.56
395.84	107.66
396.04	273.84
396.23	138.09
396.42	166.18
396.62	180.22
396.81	163.84
397.00	93.62
397.19	46.81
397.39	117.03
397.58	145.11
397.77	95.96
397.97	170.86
398.16	128.73
398.35	86.60
398.55	74.90
398.74	128.73
398.93	208.31
399.12	131.07
399.32	133.41
399.51	105.32
399.70	189.58
399.90	117.03
400.09	149.79
400.28	224.69
400.47	222.35
400.67	201.29
400.86	147.45
401.05	131.07
401.24	196.60
401.44	180.22
401.63	147.45
401.82	163.84
402.01	205.97
402.21	119.37
402.40	126.39
402.59	198.95
402.78	217.67
402.97	128.73
403.17	243.42
403.36	262.14
403.55	220.01
403.74	669.39
403.93	1888.81
404.13	4163.81
404.32	5322.38
404.51	4526.60
404.70	2672.89
404.89	1018.13
405.09	418.96
405.28	201.29
405.47	194.26
405.66	180.22
405.85	210.65
406.05	227.03
406.24	191.92
406.43	163.84
406.62	189.58
406.81	243.42
407.00	322.99
407.20	587.47
407.39	791.10
407.58	688.12
407.77	578.11
407.96	383.85
408.15	292.57
408.34	248.10
408.54	220.01
408.73	170.86
408.92	156.82
409.11	184.90
409.30	201.29
409.49	170.86
409.68	163.84
409.87	114.69
410.07	140.43
410.26	180.22
410.45	159.16
410.64	121.71
410.83	161.50
411.02	163.84
411.21	229.37
411.40	252.78
411.59	154.48
411.78	163.84
411.98	208.31
412.17	177.88
412.36	135.75
412.55	145.11
412.74	299.59
412.93	163.84
413.12	201.29
413.31	215.33
413.50	222.35
413.69	234.05
413.88	177.88
414.07	194.26
414.26	196.60
414.45	222.35
414.64	208.31
414.83	191.92
415.02	191.92
415.22	255.12
415.41	227.03
415.60	245.76
415.79	180.22
415.98	210.65
416.17	259.80
416.36	175.54
416.55	236.39
416.74	259.80
416.93	259.80
417.12	203.63
417.31	194.26
417.50	194.26
417.69	238.73
417.88	245.76
418.07	215.33
418.26	231.71
418.45	175.54
418.64	276.18
418.83	236.39
419.02	231.71
419.21	222.35
419.39	198.95
419.58	278.52
419.77	250.44
419.96	220.01
420.15	278.52
420.34	250.44
420.53	210.65
420.72	187.24
420.91	196.60
421.10	250.44
421.29	194.26
421.48	283.20
421.67	248.10
421.86	238.73
422.05	264.48
422.24	271.50
422.43	205.97
422.61	255.12
422.80	234.05
422.99	184.90
423.18	299.59
423.37	334.70
423.56	184.90
423.75	266.82
423.94	175.54
424.13	252.78
424.32	234.05
424.50	224.69
424.69	320.65
424.88	297.25
425.07	269.16
425.26	278.52
425.45	266.82
425.64	257.46
425.83	276.18
426.01	269.16
426.20	315.97
426.39	311.29
426.58	362.78
426.77	269.16
426.96	332.36
427.15	330.02
427.33	250.44
427.52	341.72
427.71	355.76
427.90	306.61
428.09	250.44
428.28	304.27
428.46	320.65
428.65	332.36
428.84	355.76
429.03	297.25
429.22	297.25
429.40	283.20
429.59	278.52
429.78	313.63
429.97	320.65
430.16	337.04
430.34	252.78
430.53	374.49
430.72	327.68
430.91	287.89
431.10	304.27
431.28	355.76
431.47	379.17
431.66	313.63
431.85	322.99
432.03	337.04
432.22	411.93
432.41	395.55
432.60	365.12
432.79	315.97
432.97	358.10
433.16	388.53
433.35	470.45
433.54	571.09
433.72	538.32
433.91	519.60
434.10	617.90
434.28	758.33
434.47	830.89
434.66	866.00
434.85	1153.88
435.03	3035.67
435.22	11283.72
435.41	24968.84
435.59	24659.88
435.78	15225.18
435.97	7478.01
436.16	2991.20
436.34	1114.10
436.53	753.65
436.72	498.53
436.90	451.72
437.09	519.60
437.28	505.56
437.46	402.57
437.65	479.81
437.84	414.27
438.02	407.25
438.21	395.55
438.40	402.57
438.58	444.70
438.77	407.25
438.96	362.78
439.14	390.87
439.33	454.06
439.52	369.80
439.70	402.57
439.89	404.91
440.08	365.12
440.26	407.25
440.45	414.27
440.63	440.02
440.82	416.62
441.01	416.62
441.19	472.79
441.38	430.66
441.57	376.83
441.75	411.93
441.94	433.00
442.12	367.46
442.31	374.49
442.50	369.80
442.68	416.62
442.87	379.17
443.05	418.96
443.24	344.06
443.43	435.34
443.61	437.68
443.80	402.57
443.98	411.93
444.17	402.57
444.35	421.30
444.54	400.23
444.73	348.74
444.91	414.27
445.10	367.46
445.28	381.51
445.47	400.23
445.65	468.11
445.84	351.08
446.02	346.40
446.21	379.17
446.39	402.57
446.58	360.44
446.77	353.42
446.95	472.79
447.14	407.25
447.32	465.77
447.51	437.68
447.69	461.09
447.88	388.53
448.06	465.77
448.25	337.04
448.43	337.04
448.62	360.44
448.80	362.78
448.99	367.46
449.17	379.17
449.36	360.44
449.54	447.04
449.73	425.98
449.91	407.25
450.10	428.32
450.28	465.77
450.46	451.72
450.65	386.19
450.83	456.40
451.02	414.27
451.20	428.32
451.39	372.15
451.57	444.70
451.76	332.36
451.94	348.74
452.13	325.33
452.31	365.12
452.49	447.04
452.68	320.65
452.86	388.53
453.05	475.13
453.23	383.85
453.42	348.74
453.60	299.59
453.78	327.68
453.97	369.80
454.15	402.57
454.34	308.95
454.52	381.51
454.70	440.02
454.89	407.25
455.07	456.40
455.26	376.83
455.44	425.98
455.62	447.04
455.81	369.80
455.99	418.96
456.17	376.83
456.36	397.89
456.54	404.91
456.73	379.17
456.91	444.70
457.09	458.74
457.28	383.85
457.46	402.57
457.64	379.17
457.83	346.40
458.01	372.15
458.19	458.74
458.38	369.80
458.56	332.36
458.74	315.97
458.93	355.76
459.11	409.59
459.29	367.46
459.48	381.51
459.66	381.51
459.84	397.89
460.03	451.72
460.21	416.62
460.39	416.62
460.57	407.25
460.76	348.74
460.94	468.11
461.12	362.78
461.31	421.30
461.49	334.70
461.67	339.38
461.85	372.15
462.04	339.38
462.22	786.42
462.40	407.25
462.59	386.19
462.77	325.33
462.95	358.10
463.13	325.33
463.32	381.51
463.50	437.68
463.68	353.42
463.86	367.46
464.05	400.23
464.23	374.49
464.41	397.89
464.59	397.89
464.78	409.59
464.96	362.78
465.14	348.74
465.32	374.49
465.50	393.21
465.69	355.76
465.87	355.76
466.05	369.80
466.23	367.46
466.41	332.36
466.60	388.53
466.78	381.51
466.96	404.91
467.14	344.06
467.32	470.45
467.51	491.51
467.69	362.78
467.87	423.64
468.05	376.83
468.23	358.10
468.41	348.74
468.60	393.21
468.78	388.53
468.96	442.36
469.14	297.25
469.32	283.20
469.50	297.25
469.69	365.12
469.87	355.76
470.05	339.38
470.23	344.06
470.41	308.95
470.59	262.14
470.77	360.44
470.95	337.04
471.14	442.36
471.32	348.74
471.50	442.36
471.68	344.06
471.86	433.00
472.04	407.25
472.22	404.91
472.40	290.23
472.58	482.15
472.77	372.15
472.95	297.25
473.13	503.22
473.31	407.25
473.49	290.23
473.67	322.99
473.85	449.38
474.03	355.76
474.21	470.45
474.39	388.53
474.57	351.08
474.75	400.23
474.93	290.23
475.12	346.40
475.30	362.78
475.48	374.49
475.66	348.74
475.84	360.44
476.02	372.15
476.20	433.00
476.38	353.42
476.56	428.32
476.74	376.83
476.92	341.72
477.10	402.57
477.28	414.27
477.46	369.80
477.64	369.80
477.82	442.36
478.00	404.91
478.18	397.89
478.36	425.98
478.54	421.30
478.72	440.02
478.90	491.51
479.08	463.43
479.26	463.43
479.44	468.11
479.62	486.83
479.80	500.87
479.98	425.98
480.16	411.93
480.34	552.37
480.52	571.09
480.70	573.43
480.88	554.71
481.06	477.47
481.24	571.09
481.41	648.33
481.59	718.54
481.77	727.91
481.95	777.06
482.13	847.27
482.31	849.61
482.49	894.08
482.67	905.79
482.85	999.41
483.03	1123.46
483.21	1118.78
483.39	1256.87
483.57	1275.59
483.74	1378.58
483.92	1432.41
484.10	1486.24
484.28	1570.50
484.46	1664.12
484.64	1680.50
484.82	1816.26
485.00	2036.27
485.18	2040.95
485.35	2132.23
485.53	2272.66
485.71	2345.22
485.89	2476.29
486.07	2459.90
486.25	2502.03
486.43	2532.46
486.61	2464.58
486.78	2572.25
486.96	2487.99
487.14	2518.42
487.32	2462.24
487.50	2483.31
487.68	2532.46
487.85	2387.35
488.03	2417.77
488.21	2459.90
488.39	2310.11
488.57	2286.70
488.75	2260.96
488.92	2455.22
489.10	2108.82
489.28	2132.23
489.46	1961.37
489.64	1930.94
489.81	1921.58
489.99	2015.20
490.17	1954.35
490.35	1919.24
490.53	1856.04
490.70	1923.92
490.88	1888.81
491.06	1980.09
491.24	2263.30
491.41	2069.03
491.59	2101.80
491.77	1851.36
491.95	1856.04
492.13	1732.00
492.30	1776.47
492.48	1825.62
492.66	1764.76
492.84	1614.97
493.01	1647.74
493.19	1610.29
493.37	1572.84
493.54	1575.18
493.72	1589.22
493.90	1530.71
494.08	1502.62
494.25	1537.73
494.43	1460.49
494.61	1528.37
494.79	1516.67
494.96	1394.96
495.14	1462.83
495.32	1401.98
495.49	1392.62
495.67	1401.98
495.85	1355.17
496.02	1275.59
496.20	1315.38
496.38	1226.44
496.55	1336.45
496.73	1310.70
496.91	1184.31
497.09	1174.95
497.26	1165.59
497.44	1062.60
497.62	1146.86
497.79	1226.44
497.97	997.07
498.14	1100.05
498.32	990.05
498.50	1076.65
498.67	1029.84
498.85	1018.13
499.03	1008.77
499.20	1004.09
499.38	901.11
499.56	929.19
499.73	938.55
499.91	912.81
500.08	891.74
500.26	760.67
500.44	737.27
500.61	800.46
500.79	765.36
500.97	755.99
501.14	741.95
501.32	692.80
501.49	711.52
501.67	650.67
501.84	643.65
502.02	624.92
502.20	638.97
502.37	538.32
502.55	631.94
502.72	601.52
502.90	533.64
503.07	582.79
503.25	543.00
503.43	486.83
503.60	503.22
503.78	545.34
503.95	557.05
504.13	468.11
504.30	564.07
504.48	526.62
504.65	493.85
504.83	512.58
505.01	500.87
505.18	468.11
505.36	397.89
505.53	421.30
505.71	440.02
505.88	447.04
506.06	477.47
506.23	456.40
506.41	540.66
506.58	496.19
506.76	496.19
506.93	451.72
507.11	442.36
507.28	400.23
507.46	456.40
507.63	475.13
507.81	447.04
507.98	402.57
508.16	447.04
508.33	433.00
508.50	451.72
508.68	465.77
508.85	489.17
509.03	451.72
509.20	414.27
509.38	512.58
509.55	472.79
509.73	491.51
509.90	444.70
510.08	365.12
510.25	421.30
510.42	425.98
510.60	372.15
510.77	404.91
510.95	390.87
511.12	475.13
511.30	400.23
511.47	383.85
511.64	484.49
511.82	318.31
511.99	381.51
512.17	447.04
512.34	430.66
512.51	334.70
512.69	362.78
512.86	433.00
513.04	418.96
513.21	353.42
513.38	397.89
513.56	425.98
513.73	425.98
513.90	346.40
514.08	334.70
514.25	341.72
514.43	330.02
514.60	348.74
514.77	341.72
514.95	381.51
515.12	311.29
515.29	306.61
515.47	365.12
515.64	339.38
515.81	273.84
515.99	367.46
516.16	341.72
516.33	458.74
516.51	404.91
516.68	301.93
516.85	341.72
517.03	344.06
517.20	374.49
517.37	332.36
517.54	276.18
517.72	341.72
517.89	402.57
518.06	245.76
518.24	397.89
518.41	376.83
518.58	334.70
518.75	365.12
518.93	322.99
519.10	367.46
519.27	365.12
519.45	327.68
519.62	264.48
519.79	390.87
519.96	407.25
520.14	369.80
520.31	414.27
520.48	313.63
520.65	365.12
520.83	402.57
521.00	425.98
521.17	425.98
521.34	390.87
521.52	351.08
521.69	386.19
521.86	423.64
522.03	351.08
522.20	386.19
522.38	339.38
522.55	351.08
522.72	339.38
522.89	442.36
523.07	322.99
523.24	332.36
523.41	346.40
523.58	322.99
523.75	346.40
523.92	379.17
524.10	367.46
524.27	372.15
524.44	315.97
524.61	376.83
524.78	322.99
524.96	348.74
525.13	318.31
525.30	318.31
525.47	416.62
525.64	393.21
525.81	430.66
525.98	425.98
526.16	381.51
526.33	358.10
526.50	369.80
526.67	360.44
526.84	428.32
527.01	376.83
527.18	365.12
527.36	379.17
527.53	360.44
527.70	379.17
527.87	425.98
528.04	442.36
528.21	379.17
528.38	409.59
528.55	428.32
528.72	461.09
528.89	433.00
529.07	475.13
529.24	435.34
529.41	507.90
529.58	468.11
529.75	437.68
529.92	376.83
530.09	503.22
530.26	437.68
530.43	449.38
530.60	479.81
530.77	411.93
530.94	486.83
531.11	545.34
531.28	521.94
531.46	449.38
531.63	510.24
531.80	643.65
531.97	638.97
532.14	706.84
532.31	809.83
532.48	833.23
532.65	1064.94
532.82	1139.84
532.99	1345.81
533.16	1544.75
533.33	1504.96
533.50	1394.96
533.67	1240.48
533.84	1025.15
534.01	950.26
534.18	929.19
534.35	922.17
534.52	1011.11
534.69	997.07
534.86	990.05
535.03	980.68
535.20	1025.15
535.37	1196.01
535.54	1151.54
535.71	1219.42
535.88	1217.08
536.05	1460.49
536.22	1474.54
536.38	1652.42
536.55	1727.32
536.72	1966.05
536.89	1921.58
537.06	2361.60
537.23	2551.18
537.40	2642.46
537.57	3056.74
537.74	3236.96
537.91	3325.90
538.08	3382.07
538.25	3445.27
538.42	3361.01
538.59	3480.38
538.75	3721.45
538.92	3927.42
539.09	4369.78
539.26	4678.73
539.43	5322.38
539.60	5834.96
539.77	6698.61
539.94	7541.21
540.11	8243.37
540.28	8940.85
540.44	9937.91
540.61	10988.82
540.78	12390.80
540.95	15276.68
541.12	18127.45
541.29	20278.40
541.46	21018.01
541.62	20837.79
541.79	19707.31
541.96	18546.40
542.13	17008.67
542.30	15995.22
542.47	14967.73
542.63	14459.83
542.80	13881.72
542.97	13626.60
543.14	13462.76
543.31	13668.73
543.48	13680.43
543.64	13804.48
543.81	14012.79
543.98	14008.11
544.15	14097.05
544.32	14253.86
544.48	14080.66
544.65	13975.34
544.82	13905.12
544.99	13951.93
545.16	14071.30
545.32	15157.31
545.49	25722.49
545.66	48219.72
545.83	54103.82
546.00	46993.28
546.16	32418.76
546.33	23309.40
546.50	17303.58
546.67	14326.42
546.83	12975.93
547.00	12182.49
547.17	11599.70
547.34	10918.60
547.50	10647.10
547.67	10211.76
547.84	9820.89
548.00	9643.01
548.17	9387.89
548.34	8769.99
548.51	8596.79
548.67	8166.13
548.84	7527.16
549.01	7499.08
549.18	7059.06
549.34	6820.32
549.51	6511.37
549.68	6324.13
549.84	6179.01
550.01	5771.76
550.18	5486.22
550.34	5212.37
550.51	5053.22
550.68	4800.44
550.84	4468.08
551.01	4351.06
551.18	4128.70
551.34	3843.16
551.51	3595.06
551.68	3662.94
551.84	3566.98
552.01	3431.23
552.18	3077.80
552.34	3080.14
552.51	2925.67
552.68	2752.47
552.84	2689.28
553.01	2612.04
553.18	2478.63
553.34	2504.37
553.51	2471.61
553.67	2338.20
553.84	2181.38
554.01	2146.27
554.17	2038.61
554.34	1816.26
554.51	1839.66
554.67	1682.85
554.84	1568.16
555.00	1526.03
555.17	1420.71
555.33	1317.72
555.50	1390.28
555.67	1282.61
555.83	1270.91
556.00	1233.46
556.16	1315.38
556.33	1088.35
556.50	1160.91
556.66	1048.56
556.83	1013.45
556.99	919.83
557.16	943.24
557.32	961.96
557.49	887.06
557.65	863.66
557.82	819.19
557.98	870.68
558.15	685.78
558.32	746.63
558.48	741.95
558.65	842.59
558.81	802.80
558.98	809.83
559.14	734.93
559.31	685.78
559.47	674.07
559.64	704.50
559.80	681.10
559.97	739.61
560.13	650.67
560.30	681.10
560.46	667.05
560.63	676.41
560.79	723.23
560.96	709.18
561.12	669.39
561.29	725.57
561.45	629.60
561.61	648.33
561.78	755.99
561.94	650.67
562.11	676.41
562.27	624.92
562.44	664.71
562.60	613.22
562.77	571.09
562.93	706.84
563.10	657.69
563.26	645.99
563.42	636.63
563.59	578.11
563.75	571.09
563.92	617.90
564.08	655.35
564.24	566.41
564.41	606.20
564.57	519.60
564.74	559.39
564.90	617.90
565.07	580.45
565.23	543.00
565.39	463.43
565.56	547.69
565.72	440.02
565.88	582.79
566.05	517.26
566.21	514.92
566.38	610.88
566.54	526.62
566.70	561.73
566.87	514.92
567.03	517.26
567.19	554.71
567.36	540.66
567.52	517.26
567.68	571.09
567.85	463.43
568.01	482.15
568.17	535.98
568.34	465.77
568.50	510.24
568.66	519.60
568.83	636.63
568.99	568.75
569.15	486.83
569.32	447.04
569.48	475.13
569.64	512.58
569.81	528.96
569.97	587.47
570.13	463.43
570.30	430.66
570.46	402.57
570.62	404.91
570.78	379.17
570.95	374.49
571.11	463.43
571.27	456.40
571.43	388.53
571.60	414.27
571.76	505.56
571.92	376.83
572.09	447.04
572.25	456.40
572.41	470.45
572.57	437.68
572.74	482.15
572.90	470.45
573.06	458.74
573.22	456.40
573.38	482.15
573.55	475.13
573.71	521.94
573.87	416.62
574.03	517.26
574.20	538.32
574.36	493.85
574.52	535.98
574.68	554.71
574.84	531.30
575.01	568.75
575.17	606.20
575.33	568.75
575.49	643.65
575.65	667.05
575.82	688.12
575.98	774.72
576.14	875.36
576.30	1769.44
576.46	5446.43
576.62	8929.14
576.79	9760.03
576.95	6841.39
577.11	4744.27
577.27	3356.33
577.43	2251.60
577.59	1544.75
577.75	1277.93
577.92	1158.57
578.08	1109.41
578.24	1083.67
578.40	2029.24
578.56	5453.45
578.72	8648.28
578.88	8987.66
579.04	6766.49
579.21	4648.30
579.37	3482.72
579.53	2764.17
579.69	2726.72
579.85	3353.99
580.01	3641.87
580.17	3513.14
580.33	3049.72
580.49	2583.95
580.65	2368.62
580.82	2202.44
580.98	2057.33
581.14	2289.04
581.30	2319.47
581.46	2413.09
581.62	2637.78
581.78	2785.24
581.94	3016.95
582.10	3218.24
582.26	3311.86
582.42	3452.29
582.58	3527.19
582.74	3627.83
582.90	3653.58
583.06	3754.22
583.22	3749.54
583.38	3588.04
583.54	3625.49
583.70	3613.79
583.86	3522.51
584.02	3482.72
584.18	3424.20
584.34	3346.97
584.50	3471.01
584.66	3283.77
584.82	3295.47
584.98	3286.11
585.14	3225.26
585.30	3122.27
585.46	2984.18
585.62	2869.50
585.78	2944.39
585.94	3075.46
586.10	3155.04
586.26	3281.43
586.42	3709.75
586.58	4449.36
586.74	5551.75
586.90	6513.71
587.06	7213.53
587.22	6911.60
587.38	6214.12
587.54	5392.59
587.70	4528.94
587.86	3957.85
588.02	3286.11
588.18	2839.07
588.34	2633.10
588.49	2424.80
588.65	2277.34
588.81	2223.51
588.97	2153.29
589.13	2033.93
589.29	2015.20
589.45	2064.35
589.61	2024.56
589.77	2087.76
589.93	2139.25
590.08	2080.74
590.24	2176.70
590.40	2321.81
590.56	2251.60
590.72	2242.23
590.88	2406.07
591.04	2509.05
591.20	2569.91
591.35	2752.47
591.51	2853.11
591.67	2956.10
591.83	3059.08
591.99	3307.18
592.15	3707.41
592.31	4065.51
592.46	4542.98
592.62	4823.84
592.78	5034.49
592.94	5097.69
593.10	4936.19
593.26	4833.21
593.41	4418.93
593.57	4032.74
593.73	3515.48
593.89	3098.87
594.05	2787.58
594.20	2485.65
594.36	2265.64
594.52	2202.44
594.68	1994.14
594.84	2069.03
594.99	1996.48
595.15	1837.32
595.31	1844.34
595.47	1930.94
595.62	1827.96
595.78	1856.04
595.94	1858.39
596.10	1792.85
596.25	1928.60
596.41	1893.49
596.57	1853.70
596.73	1834.98
596.88	1811.57
597.04	1797.53
597.20	1818.60
597.36	1898.17
597.51	1991.80
597.67	1982.43
597.83	2127.55
597.99	2202.44
598.14	2258.62
598.30	2338.20
598.46	2525.44
598.61	2705.66
598.77	2839.07
598.93	3023.97
599.09	3056.74
599.24	2986.52
599.40	3000.57
599.56	3033.33
599.71	2794.60
599.87	2665.87
600.03	2532.46
600.18	2319.47
600.34	2263.30
600.50	2214.15
600.65	1963.71
600.81	1952.01
600.97	1757.74
601.12	1640.72
601.28	1591.56
601.44	1551.78
601.59	1418.36
601.75	1432.41
601.91	1364.53
602.06	1324.74
602.22	1341.13
602.37	1273.25
602.53	1270.91
602.69	1214.74
602.84	1203.04
603.00	1238.14
603.16	1247.51
603.31	1299.00
603.47	1348.15
603.62	1315.38
603.78	1362.19
603.94	1383.26
604.09	1376.24
604.25	1392.62
604.40	1420.71
604.56	1425.39
604.71	1455.81
604.87	1441.77
605.03	1451.13
605.18	1490.92
605.34	1568.16
605.49	1600.93
605.65	1572.84
605.80	1680.50
605.96	1680.50
606.12	1830.30
606.27	1928.60
606.43	1837.32
606.58	2022.22
606.74	2078.40
606.89	2153.29
607.05	2354.58
607.20	2495.01
607.36	2567.57
607.51	2612.04
607.67	2803.96
607.82	2965.46
607.98	3232.28
608.13	3494.42
608.29	3672.30
608.44	4145.09
608.60	4322.97
608.75	4793.42
608.91	5310.68
609.06	5781.12
609.22	6363.92
609.37	7131.61
609.53	7868.88
609.68	9034.47
609.84	10368.57
609.99	11815.02
610.15	14581.54
610.30	17884.03
610.46	23009.81
610.61	29827.79
610.76	37773.91
610.92	46066.42
611.07	49712.98
611.23	49591.27
611.38	47320.95
611.54	42653.92
611.69	35791.47
611.84	30246.74
612.00	25193.53
612.15	20950.14
612.31	18607.26
612.46	16376.73
612.62	15473.28
612.77	14190.67
612.92	13444.04
613.08	12901.03
613.23	12119.29
613.39	11679.27
613.54	11346.92
613.69	11122.23
613.85	11178.40
614.00	11108.18
614.15	10934.98
614.31	10462.19
614.46	10576.88
614.62	10083.03
614.77	9701.52
614.92	9123.41
615.08	8470.40
615.23	7936.76
615.38	7103.53
615.54	6235.19
615.69	6052.63
615.84	5593.88
616.00	5186.63
616.15	4809.80
616.30	4444.68
616.46	4262.12
616.61	4095.94
616.76	3627.83
616.92	3515.48
617.07	3363.35
617.22	3190.15
617.37	3133.98
617.53	2939.71
617.68	2813.32
617.83	2658.85
617.99	2649.49
618.14	2656.51
618.29	2530.12
618.45	2509.05
618.60	2555.86
618.75	2429.48
618.90	2408.41
619.06	2377.98
619.21	2270.32
619.36	2270.32
619.51	2319.47
619.67	2429.48
619.82	2420.11
619.97	2420.11
620.12	2473.95
620.28	2396.71
620.43	2509.05
620.58	2621.40
620.73	2527.78
620.89	2628.42
621.04	2525.44
621.19	2616.72
621.34	2392.03
621.49	2551.18
621.65	2513.74
621.80	2417.77
621.95	2473.95
622.10	2534.80
622.25	2420.11
622.41	2345.22
622.56	2466.92
622.71	2614.38
622.86	2637.78
623.01	2642.46
623.16	2768.85
623.32	2597.99
623.47	2677.57
623.62	2511.39
623.77	2663.53
623.92	2785.24
624.07	2700.98
624.23	2829.71
624.38	2829.71
624.53	2761.83
624.68	2775.88
624.83	2888.22
624.98	2801.62
625.13	2789.92
625.29	2747.79
625.44	2750.13
625.59	2902.26
625.74	2792.26
625.89	2827.37
626.04	2771.19
626.19	2827.37
626.34	2792.26
626.49	2787.58
626.65	2715.02
626.80	2663.53
626.95	2754.81
627.10	2523.10
627.25	2623.74
627.40	2581.61
627.55	2612.04
627.70	2572.25
627.85	2527.78
628.00	2401.39
628.15	2513.74
628.30	2530.12
628.45	2476.29
628.60	2485.65
628.76	2513.74
628.91	2392.03
629.06	2602.68
629.21	2553.52
629.36	2693.96
629.51	2796.94
629.66	2867.16
629.81	3045.04
629.96	3456.97
630.11	3599.74
630.26	4109.98
630.41	4568.73
630.56	5027.47
630.71	5263.86
630.86	5392.59
631.01	5109.39
631.16	4800.44
631.31	4318.29
631.46	3693.37
631.61	3126.96
631.76	2565.23
631.91	2331.17
632.06	1870.09
632.21	1621.99
632.36	1504.96
632.51	1210.06
632.66	1249.85
632.81	1137.50
632.96	1109.41
633.10	1060.26
633.25	987.71
633.40	882.38
633.55	868.34
633.70	980.68
633.85	814.51
634.00	870.68
634.15	791.10
634.30	896.43
634.45	753.65
634.60	814.51
634.75	709.18
634.90	720.88
635.05	709.18
635.19	730.25
635.34	741.95
635.49	699.82
635.64	678.76
635.79	634.29
635.94	744.29
636.09	737.27
636.24	645.99
636.39	727.91
636.53	653.01
636.68	599.18
636.83	669.39
636.98	702.16
637.13	568.75
637.28	566.41
637.43	631.94
637.57	645.99
637.72	653.01
637.87	505.56
638.02	608.54
638.17	554.71
638.32	622.58
638.46	496.19
638.61	629.60
638.76	578.11
638.91	554.71
639.06	535.98
639.20	615.56
639.35	507.90
639.50	568.75
639.65	634.29
639.80	519.60
639.94	514.92
640.09	571.09
640.24	561.73
640.39	573.43
640.54	571.09
640.68	486.83
640.83	620.24
640.98	521.94
641.13	458.74
641.27	596.84
641.42	470.45
641.57	489.17
641.72	528.96
641.86	545.34
642.01	603.86
642.16	561.73
642.31	500.87
642.45	498.53
642.60	526.62
642.75	470.45
642.90	547.69
643.04	540.66
643.19	510.24
643.34	517.26
643.48	545.34
643.63	454.06
643.78	608.54
643.93	528.96
644.07	545.34
644.22	482.15
644.37	519.60
644.51	575.77
644.66	533.64
644.81	496.19
644.95	580.45
645.10	461.09
645.25	461.09
645.39	519.60
645.54	479.81
645.69	547.69
645.83	507.90
645.98	559.39
646.13	449.38
646.27	493.85
646.42	472.79
646.57	416.62
646.71	470.45
646.86	442.36
647.00	493.85
647.15	472.79
647.30	458.74
647.44	433.00
647.59	463.43
647.74	498.53
647.88	463.43
648.03	482.15
648.17	463.43
648.32	454.06
648.47	608.54
648.61	550.03
648.76	503.22
648.90	594.50
649.05	599.18
649.20	596.84
649.34	566.41
649.49	765.36
649.63	755.99
649.78	973.66
649.92	1184.31
650.07	1322.40
650.21	1474.54
650.36	1495.60
650.51	1483.90
650.65	1486.24
650.80	1310.70
650.94	1181.97
651.09	1039.20
651.23	976.00
651.38	894.08
651.52	746.63
651.67	608.54
651.81	631.94
651.96	681.10
652.10	657.69
652.25	669.39
652.39	650.67
652.54	631.94
652.68	697.48
652.83	889.40
652.97	753.65
653.12	875.36
653.26	664.71
653.41	704.50
653.55	718.54
653.70	664.71
653.84	631.94
653.99	561.73
654.13	531.30
654.27	531.30
654.42	514.92
654.56	489.17
654.71	571.09
654.85	507.90
655.00	486.83
655.14	425.98
655.29	454.06
655.43	564.07
655.57	475.13
655.72	472.79
655.86	498.53
656.01	463.43
656.15	507.90
656.30	512.58
656.44	465.77
656.58	461.09
656.73	393.21
656.87	507.90
657.01	418.96
657.16	594.50
657.30	559.39
657.45	594.50
657.59	528.96
657.73	561.73
657.88	552.37
658.02	580.45
658.16	458.74
658.31	505.56
658.45	493.85
658.60	442.36
658.74	414.27
658.88	486.83
659.03	395.55
659.17	374.49
659.31	440.02
659.46	386.19
659.60	407.25
659.74	358.10
659.89	362.78
660.03	400.23
660.17	400.23
660.32	313.63
660.46	376.83
660.60	334.70
660.74	437.68
660.89	325.33
661.03	411.93
661.17	397.89
661.32	397.89
661.46	528.96
661.60	610.88
661.74	727.91
661.89	826.21
662.03	898.77
662.17	940.90
662.31	938.55
662.46	861.32
662.60	898.77
662.74	882.38
662.88	821.53
663.03	709.18
663.17	643.65
663.31	615.56
663.45	472.79
663.60	533.64
663.74	463.43
663.88	400.23
664.02	425.98
664.17	388.53
664.31	367.46
664.45	344.06
664.59	407.25
664.73	390.87
664.88	372.15
665.02	344.06
665.16	332.36
665.30	393.21
665.44	346.40
665.59	374.49
665.73	395.55
665.87	353.42
666.01	337.04
666.15	383.85
666.29	397.89
666.44	376.83
666.58	332.36
666.72	313.63
666.86	322.99
667.00	395.55
667.14	351.08
667.28	374.49
667.43	351.08
667.57	395.55
667.71	381.51
667.85	325.33
667.99	351.08
668.13	320.65
668.27	435.34
668.41	367.46
668.56	280.86
668.70	358.10
668.84	344.06
668.98	292.57
669.12	325.33
669.26	379.17
669.40	402.57
669.54	332.36
669.68	409.59
669.82	365.12
669.96	339.38
670.10	280.86
670.25	369.80
670.39	308.95
670.53	269.16
670.67	248.10
670.81	245.76
670.95	330.02
671.09	325.33
671.23	367.46
671.37	318.31
671.51	318.31
671.65	372.15
671.79	306.61
671.93	276.18
672.07	313.63
672.21	332.36
672.35	301.93
672.49	229.37
672.63	351.08
672.77	322.99
672.91	332.36
673.05	344.06
673.19	299.59
673.33	330.02
673.47	346.40
673.61	266.82
673.75	318.31
673.89	222.35
674.03	252.78
674.17	257.46
674.31	301.93
674.45	304.27
674.59	255.12
674.73	280.86
674.87	315.97
675.01	255.12
675.15	290.23
675.29	290.23
675.43	273.84
675.56	318.31
675.70	322.99
675.84	259.80
675.98	355.76
676.12	259.80
676.26	278.52
676.40	234.05
676.54	264.48
676.68	154.48
676.82	196.60
676.96	168.52
677.10	283.20
677.23	196.60
677.37	283.20
677.51	271.50
677.65	287.89
677.79	262.14
677.93	250.44
678.07	252.78
678.21	276.18
678.34	273.84
678.48	290.23
678.62	266.82
678.76	222.35
678.90	313.63
679.04	222.35
679.18	250.44
679.31	243.42
679.45	271.50
679.59	311.29
679.73	285.55
679.87	259.80
680.00	283.20
680.14	334.70
680.28	285.55
680.42	341.72
680.56	334.70
680.70	334.70
680.83	299.59
680.97	318.31
681.11	262.14
681.25	297.25
681.39	311.29
681.52	264.48
681.66	257.46
681.80	234.05
681.94	222.35
682.07	292.57
682.21	245.76
682.35	245.76
682.49	236.39
682.62	262.14
682.76	241.08
682.90	301.93
683.04	306.61
683.17	292.57
683.31	311.29
683.45	250.44
683.59	276.18
683.72	278.52
683.86	304.27
684.00	250.44
684.13	215.33
684.27	224.69
684.41	292.57
684.55	264.48
684.68	262.14
684.82	278.52
684.96	259.80
685.09	250.44
685.23	262.14
685.37	217.67
685.50	283.20
685.64	320.65
685.78	299.59
685.91	351.08
686.05	304.27
686.19	304.27
686.32	355.76
686.46	334.70
686.60	379.17
686.73	428.32
686.87	374.49
687.01	386.19
687.14	451.72
687.28	486.83
687.42	519.60
687.55	489.17
687.69	606.20
687.82	538.32
687.96	624.92
688.10	578.11
688.23	484.49
688.37	519.60
688.50	440.02
688.64	444.70
688.78	353.42
688.91	351.08
689.05	358.10
689.18	292.57
689.32	341.72
689.46	280.86
689.59	290.23
689.73	238.73
689.86	203.63
690.00	259.80
690.13	243.42
690.27	229.37
690.41	252.78
690.54	369.80
690.68	334.70
690.81	320.65
690.95	271.50
691.08	250.44
691.22	203.63
691.35	205.97
691.49	210.65
691.62	227.03
691.76	196.60
691.89	205.97
692.03	98.30
692.16	177.88
692.30	231.71
692.43	236.39
692.57	184.90
692.70	198.95
692.84	290.23
692.97	248.10
693.11	276.18
693.24	322.99
693.38	358.10
693.51	435.34
693.65	451.72
693.78	430.66
693.92	451.72
694.05	411.93
694.19	346.40
694.32	299.59
694.45	311.29
694.59	198.95
694.72	177.88
694.86	201.29
694.99	238.73
695.13	180.22
695.26	191.92
695.39	161.50
695.53	297.25
695.66	238.73
695.80	255.12
695.93	201.29
696.07	224.69
696.20	159.16
696.33	224.69
696.47	205.97
696.60	163.84
696.73	222.35
696.87	187.24
697.00	212.99
697.14	149.79
697.27	222.35
697.40	241.08
697.54	198.95
697.67	180.22
697.80	166.18
697.94	140.43
698.07	98.30
698.21	231.71
698.34	161.50
698.47	93.62
698.61	65.54
698.74	168.52
698.87	210.65
699.01	180.22
699.14	210.65
699.27	133.41
699.40	257.46
699.54	79.58
699.67	74.90
699.80	191.92
699.94	208.31
700.07	135.75
700.20	119.37
700.34	102.98
700.47	53.83
700.60	187.24
700.73	189.58
700.87	154.48
701.00	175.54
701.13	212.99
701.26	163.84
701.40	196.60
701.53	145.11
701.66	180.22
701.79	166.18
701.93	152.13
702.06	205.97
702.19	236.39
702.32	252.78
702.46	159.16
702.59	131.07
702.72	156.82
702.85	177.88
702.99	173.20
703.12	285.55
703.25	161.50
703.38	238.73
703.51	196.60
703.65	224.69
703.78	238.73
703.91	224.69
704.04	184.90
704.17	245.76
704.31	224.69
704.44	182.56
704.57	236.39
704.70	229.37
704.83	231.71
704.96	205.97
705.10	194.26
705.23	297.25
>>>>>End Processed Spectral Data<<<<<
