SpectraSuite Data File
++++++++++++++++++++++++++++++++++++
Date: Fri Oct 04 11:41:42 GMT-05:00 2013
User: price-jones
Dark Spectrum Present: No
Reference Spectrum Present: No
Number of Sampled Component Spectra: 1
Spectrometers: USB2+H05261
Integration Time (usec): 100000 (USB2+H05261)
Spectra Averaged: 1 (USB2+H05261)
Boxcar Smoothing: 0 (USB2+H05261)
Correct for Electrical Dark: No (USB2+H05261)
Strobe/Lamp Enabled: No (USB2+H05261)
Correct for Detector Non-linearity: No (USB2+H05261)
Correct for Stray Light: No (USB2+H05261)
Number of Pixels in Processed Spectrum: 2048
>>>>>Begin Processed Spectral Data<<<<<
365.73	39.79
365.92	39.79
366.12	39.79
366.32	0.00
366.52	0.00
366.72	0.00
366.91	0.00
367.11	0.00
367.31	0.00
367.51	0.00
367.70	0.00
367.90	0.00
368.10	0.00
368.30	0.00
368.49	0.00
368.69	0.00
368.89	0.00
369.09	0.00
369.28	0.00
369.48	0.00
369.68	0.00
369.87	0.00
370.07	44.47
370.27	32.77
370.47	14.04
370.66	7.02
370.86	70.22
371.06	145.11
371.25	77.24
371.45	81.92
371.65	79.58
371.84	51.49
372.04	124.05
372.24	53.83
372.44	95.96
372.63	100.64
372.83	86.60
373.03	53.83
373.22	72.56
373.42	128.73
373.62	187.24
373.81	152.13
374.01	156.82
374.21	117.03
374.40	35.11
374.60	215.33
374.79	105.32
374.99	119.37
375.19	112.35
375.38	201.29
375.58	154.48
375.78	173.20
375.97	102.98
376.17	112.35
376.37	208.31
376.56	163.84
376.76	107.66
376.95	163.84
377.15	149.79
377.35	79.58
377.54	145.11
377.74	170.86
377.93	152.13
378.13	170.86
378.33	147.45
378.52	138.09
378.72	170.86
378.91	88.94
379.11	117.03
379.31	110.01
379.50	126.39
379.70	84.26
379.89	98.30
380.09	175.54
380.28	140.43
380.48	140.43
380.68	81.92
380.87	77.24
381.07	142.77
381.26	154.48
381.46	142.77
381.65	53.83
381.85	142.77
382.04	114.69
382.24	128.73
382.43	105.32
382.63	74.90
382.83	84.26
383.02	126.39
383.22	112.35
383.41	86.60
383.61	154.48
383.80	117.03
384.00	63.19
384.19	65.54
384.39	128.73
384.58	65.54
384.78	149.79
384.97	184.90
385.17	91.28
385.36	93.62
385.56	191.92
385.75	152.13
385.95	79.58
386.14	187.24
386.34	100.64
386.53	93.62
386.72	152.13
386.92	110.01
387.11	170.86
387.31	124.05
387.50	112.35
387.70	135.75
387.89	98.30
388.09	135.75
388.28	131.07
388.48	88.94
388.67	198.95
388.86	201.29
389.06	112.35
389.25	156.82
389.45	184.90
389.64	168.52
389.84	161.50
390.03	117.03
390.22	159.16
390.42	60.85
390.61	112.35
390.81	145.11
391.00	149.79
391.19	81.92
391.39	84.26
391.58	135.75
391.78	121.71
391.97	177.88
392.16	184.90
392.36	100.64
392.55	159.16
392.75	119.37
392.94	112.35
393.13	126.39
393.33	142.77
393.52	112.35
393.71	112.35
393.91	107.66
394.10	180.22
394.29	51.49
394.49	53.83
394.68	114.69
394.88	138.09
395.07	98.30
395.26	133.41
395.46	156.82
395.65	84.26
395.84	91.28
396.04	201.29
396.23	117.03
396.42	159.16
396.62	126.39
396.81	138.09
397.00	114.69
397.19	170.86
397.39	145.11
397.58	145.11
397.77	170.86
397.97	147.45
398.16	210.65
398.35	173.20
398.55	131.07
398.74	107.66
398.93	117.03
399.12	145.11
399.32	180.22
399.51	100.64
399.70	117.03
399.90	163.84
400.09	173.20
400.28	201.29
400.47	44.47
400.67	124.05
400.86	191.92
401.05	166.18
401.24	121.71
401.44	255.12
401.63	222.35
401.82	145.11
402.01	152.13
402.21	166.18
402.40	173.20
402.59	138.09
402.78	163.84
402.97	145.11
403.17	215.33
403.36	294.91
403.55	299.59
403.74	582.79
403.93	1767.10
404.13	3751.88
404.32	4662.35
404.51	3948.48
404.70	2317.13
404.89	868.34
405.09	393.21
405.28	177.88
405.47	152.13
405.66	156.82
405.85	257.46
406.05	198.95
406.24	168.52
406.43	98.30
406.62	196.60
406.81	210.65
407.00	269.16
407.20	477.47
407.39	676.41
407.58	744.29
407.77	566.41
407.96	320.65
408.15	107.66
408.34	196.60
408.54	126.39
408.73	205.97
408.92	112.35
409.11	128.73
409.30	187.24
409.49	107.66
409.68	163.84
409.87	210.65
410.07	175.54
410.26	215.33
410.45	142.77
410.64	182.56
410.83	189.58
411.02	210.65
411.21	208.31
411.40	215.33
411.59	182.56
411.78	196.60
411.98	133.41
412.17	170.86
412.36	154.48
412.55	173.20
412.74	189.58
412.93	210.65
413.12	161.50
413.31	189.58
413.50	194.26
413.69	147.45
413.88	168.52
414.07	243.42
414.26	161.50
414.45	173.20
414.64	194.26
414.83	149.79
415.02	189.58
415.22	210.65
415.41	222.35
415.60	215.33
415.79	205.97
415.98	173.20
416.17	184.90
416.36	159.16
416.55	222.35
416.74	142.77
416.93	175.54
417.12	210.65
417.31	220.01
417.50	156.82
417.69	273.84
417.88	215.33
418.07	187.24
418.26	128.73
418.45	187.24
418.64	175.54
418.83	236.39
419.02	212.99
419.21	241.08
419.39	152.13
419.58	187.24
419.77	217.67
419.96	262.14
420.15	325.33
420.34	201.29
420.53	194.26
420.72	252.78
420.91	241.08
421.10	201.29
421.29	201.29
421.48	294.91
421.67	243.42
421.86	201.29
422.05	205.97
422.24	273.84
422.43	203.63
422.61	203.63
422.80	187.24
422.99	290.23
423.18	231.71
423.37	212.99
423.56	325.33
423.75	252.78
423.94	278.52
424.13	299.59
424.32	243.42
424.50	250.44
424.69	222.35
424.88	252.78
425.07	194.26
425.26	189.58
425.45	280.86
425.64	290.23
425.83	234.05
426.01	269.16
426.20	292.57
426.39	271.50
426.58	250.44
426.77	248.10
426.96	245.76
427.15	257.46
427.33	208.31
427.52	301.93
427.71	276.18
427.90	250.44
428.09	252.78
428.28	245.76
428.46	255.12
428.65	337.04
428.84	304.27
429.03	341.72
429.22	311.29
429.40	294.91
429.59	229.37
429.78	301.93
429.97	273.84
430.16	273.84
430.34	318.31
430.53	285.55
430.72	236.39
430.91	203.63
431.10	320.65
431.28	297.25
431.47	376.83
431.66	362.78
431.85	276.18
432.03	245.76
432.22	339.38
432.41	346.40
432.60	369.80
432.79	236.39
432.97	320.65
433.16	362.78
433.35	404.91
433.54	482.15
433.72	437.68
433.91	486.83
434.10	491.51
434.28	606.20
434.47	648.33
434.66	786.42
434.85	952.60
435.03	2855.45
435.22	10459.85
435.41	21102.27
435.59	19564.54
435.78	12519.53
435.97	6291.36
436.16	2305.43
436.34	940.90
436.53	575.77
436.72	557.05
436.90	470.45
437.09	482.15
437.28	397.89
437.46	374.49
437.65	430.66
437.84	411.93
438.02	294.91
438.21	442.36
438.40	379.17
438.58	365.12
438.77	358.10
438.96	358.10
439.14	311.29
439.33	393.21
439.52	421.30
439.70	397.89
439.89	327.68
440.08	372.15
440.26	355.76
440.45	386.19
440.63	287.89
440.82	315.97
441.01	404.91
441.19	297.25
441.38	322.99
441.57	362.78
441.75	322.99
441.94	402.57
442.12	346.40
442.31	290.23
442.50	348.74
442.68	273.84
442.87	367.46
443.05	304.27
443.24	297.25
443.43	407.25
443.61	386.19
443.80	365.12
443.98	322.99
444.17	332.36
444.35	395.55
444.54	311.29
444.73	416.62
444.91	470.45
445.10	351.08
445.28	332.36
445.47	365.12
445.65	322.99
445.84	325.33
446.02	365.12
446.21	358.10
446.39	360.44
446.58	322.99
446.77	315.97
446.95	327.68
447.14	348.74
447.32	341.72
447.51	308.95
447.69	313.63
447.88	409.59
448.06	360.44
448.25	397.89
448.43	269.16
448.62	332.36
448.80	362.78
448.99	351.08
449.17	358.10
449.36	315.97
449.54	397.89
449.73	381.51
449.91	397.89
450.10	320.65
450.28	430.66
450.46	362.78
450.65	414.27
450.83	360.44
451.02	322.99
451.20	304.27
451.39	409.59
451.57	358.10
451.76	318.31
451.94	330.02
452.13	379.17
452.31	465.77
452.49	341.72
452.68	339.38
452.86	264.48
453.05	440.02
453.23	351.08
453.42	259.80
453.60	409.59
453.78	416.62
453.97	376.83
454.15	425.98
454.34	421.30
454.52	332.36
454.70	332.36
454.89	365.12
455.07	353.42
455.26	311.29
455.44	414.27
455.62	348.74
455.81	367.46
455.99	386.19
456.17	360.44
456.36	250.44
456.54	341.72
456.73	355.76
456.91	276.18
457.09	400.23
457.28	376.83
457.46	299.59
457.64	339.38
457.83	365.12
458.01	332.36
458.19	374.49
458.38	320.65
458.56	362.78
458.74	325.33
458.93	337.04
459.11	341.72
459.29	386.19
459.48	313.63
459.66	301.93
459.84	330.02
460.03	428.32
460.21	411.93
460.39	362.78
460.57	381.51
460.76	362.78
460.94	365.12
461.12	283.20
461.31	374.49
461.49	299.59
461.67	421.30
461.85	346.40
462.04	365.12
462.22	486.83
462.40	414.27
462.59	313.63
462.77	257.46
462.95	332.36
463.13	262.14
463.32	362.78
463.50	304.27
463.68	379.17
463.86	346.40
464.05	273.84
464.23	365.12
464.41	358.10
464.59	266.82
464.78	299.59
464.96	318.31
465.14	301.93
465.32	334.70
465.50	287.89
465.69	337.04
465.87	346.40
466.05	327.68
466.23	266.82
466.41	351.08
466.60	344.06
466.78	355.76
466.96	444.70
467.14	299.59
467.32	397.89
467.51	358.10
467.69	315.97
467.87	421.30
468.05	355.76
468.23	397.89
468.41	318.31
468.60	290.23
468.78	320.65
468.96	330.02
469.14	301.93
469.32	346.40
469.50	271.50
469.69	322.99
469.87	393.21
470.05	353.42
470.23	339.38
470.41	287.89
470.59	379.17
470.77	315.97
470.95	301.93
471.14	381.51
471.32	313.63
471.50	367.46
471.68	425.98
471.86	388.53
472.04	285.55
472.22	294.91
472.40	315.97
472.58	271.50
472.77	276.18
472.95	311.29
473.13	383.85
473.31	283.20
473.49	252.78
473.67	341.72
473.85	341.72
474.03	341.72
474.21	369.80
474.39	365.12
474.57	351.08
474.75	313.63
474.93	330.02
475.12	294.91
475.30	285.55
475.48	341.72
475.66	257.46
475.84	346.40
476.02	337.04
476.20	250.44
476.38	339.38
476.56	372.15
476.74	433.00
476.92	294.91
477.10	320.65
477.28	386.19
477.46	330.02
477.64	327.68
477.82	337.04
478.00	383.85
478.18	388.53
478.36	388.53
478.54	332.36
478.72	367.46
478.90	404.91
479.08	344.06
479.26	454.06
479.44	337.04
479.62	369.80
479.80	383.85
479.98	503.22
480.16	512.58
480.34	458.74
480.52	477.47
480.70	606.20
480.88	533.64
481.06	510.24
481.24	498.53
481.41	599.18
481.59	643.65
481.77	667.05
481.95	704.50
482.13	653.01
482.31	788.76
482.49	809.83
482.67	802.80
482.85	882.38
483.03	976.00
483.21	985.37
483.39	971.32
483.57	1006.43
483.74	1193.67
483.92	1193.67
484.10	1238.14
484.28	1366.87
484.46	1420.71
484.64	1460.49
484.82	1427.73
485.00	1563.48
485.18	1699.23
485.35	1811.57
485.53	1867.75
485.71	2019.88
485.89	1952.01
486.07	2106.48
486.25	2204.78
486.43	2190.74
486.61	2094.78
486.78	2010.52
486.96	2104.14
487.14	2195.42
487.32	2003.50
487.50	2040.95
487.68	2022.22
487.85	1987.11
488.03	1959.03
488.21	2024.56
488.39	1919.24
488.57	1912.22
488.75	1743.70
488.92	2066.69
489.10	1743.70
489.28	1806.89
489.46	1762.42
489.64	1703.91
489.81	1577.52
489.99	1643.06
490.17	1645.40
490.35	1645.40
490.53	1526.03
490.70	1631.35
490.88	1589.22
491.06	1781.15
491.24	1776.47
491.41	1823.28
491.59	1692.21
491.77	1584.54
491.95	1523.69
492.13	1572.84
492.30	1427.73
492.48	1483.90
492.66	1469.86
492.84	1451.13
493.01	1406.66
493.19	1392.62
493.37	1411.34
493.54	1299.00
493.72	1291.98
493.90	1315.38
494.08	1291.98
494.25	1263.89
494.43	1294.32
494.61	1322.40
494.79	1249.85
494.96	1160.91
495.14	1245.16
495.32	1165.59
495.49	1142.18
495.67	1172.61
495.85	1125.80
496.02	1086.01
496.20	1160.91
496.38	1121.12
496.55	1022.81
496.73	1015.79
496.91	1039.20
497.09	1081.33
497.26	887.06
497.44	931.53
497.62	950.26
497.79	882.38
497.97	919.83
498.14	961.96
498.32	880.04
498.50	889.40
498.67	849.61
498.85	784.08
499.03	802.80
499.20	866.00
499.38	821.53
499.56	833.23
499.73	720.88
499.91	786.42
500.08	767.70
500.26	627.26
500.44	704.50
500.61	667.05
500.79	739.61
500.97	645.99
501.14	594.50
501.32	615.56
501.49	648.33
501.67	610.88
501.84	559.39
502.02	521.94
502.20	575.77
502.37	596.84
502.55	543.00
502.72	552.37
502.90	587.47
503.07	482.15
503.25	545.34
503.43	400.23
503.60	397.89
503.78	500.87
503.95	496.19
504.13	491.51
504.30	568.75
504.48	566.41
504.65	461.09
504.83	498.53
505.01	376.83
505.18	425.98
505.36	418.96
505.53	402.57
505.71	407.25
505.88	390.87
506.06	372.15
506.23	376.83
506.41	362.78
506.58	421.30
506.76	388.53
506.93	411.93
507.11	346.40
507.28	386.19
507.46	365.12
507.63	344.06
507.81	379.17
507.98	369.80
508.16	383.85
508.33	362.78
508.50	390.87
508.68	425.98
508.85	388.53
509.03	374.49
509.20	390.87
509.38	332.36
509.55	409.59
509.73	367.46
509.90	435.34
510.08	402.57
510.25	379.17
510.42	297.25
510.60	433.00
510.77	332.36
510.95	404.91
511.12	311.29
511.30	383.85
511.47	325.33
511.64	404.91
511.82	341.72
511.99	400.23
512.17	369.80
512.34	367.46
512.51	287.89
512.69	330.02
512.86	355.76
513.04	330.02
513.21	344.06
513.38	297.25
513.56	355.76
513.73	369.80
513.90	266.82
514.08	325.33
514.25	308.95
514.43	320.65
514.60	346.40
514.77	383.85
514.95	339.38
515.12	346.40
515.29	360.44
515.47	325.33
515.64	313.63
515.81	313.63
515.99	322.99
516.16	353.42
516.33	353.42
516.51	353.42
516.68	301.93
516.85	341.72
517.03	313.63
517.20	257.46
517.37	311.29
517.54	294.91
517.72	250.44
517.89	322.99
518.06	290.23
518.24	388.53
518.41	376.83
518.58	313.63
518.75	292.57
518.93	320.65
519.10	318.31
519.27	346.40
519.45	304.27
519.62	325.33
519.79	362.78
519.96	259.80
520.14	341.72
520.31	308.95
520.48	308.95
520.65	276.18
520.83	402.57
521.00	278.52
521.17	278.52
521.34	325.33
521.52	301.93
521.69	334.70
521.86	306.61
522.03	248.10
522.20	325.33
522.38	252.78
522.55	341.72
522.72	252.78
522.89	400.23
523.07	339.38
523.24	266.82
523.41	322.99
523.58	271.50
523.75	315.97
523.92	383.85
524.10	304.27
524.27	348.74
524.44	280.86
524.61	337.04
524.78	318.31
524.96	390.87
525.13	241.08
525.30	351.08
525.47	341.72
525.64	301.93
525.81	341.72
525.98	294.91
526.16	301.93
526.33	259.80
526.50	304.27
526.67	315.97
526.84	355.76
527.01	393.21
527.18	449.38
527.36	339.38
527.53	351.08
527.70	386.19
527.87	411.93
528.04	358.10
528.21	402.57
528.38	411.93
528.55	425.98
528.72	475.13
528.89	430.66
529.07	393.21
529.24	454.06
529.41	428.32
529.58	409.59
529.75	409.59
529.92	465.77
530.09	383.85
530.26	395.55
530.43	444.70
530.60	397.89
530.77	397.89
530.94	444.70
531.11	479.81
531.28	428.32
531.46	461.09
531.63	512.58
531.80	493.85
531.97	634.29
532.14	653.01
532.31	641.31
532.48	777.06
532.65	929.19
532.82	976.00
532.99	1181.97
533.16	1301.34
533.33	1303.68
533.50	1165.59
533.67	1046.22
533.84	922.17
534.01	931.53
534.18	814.51
534.35	826.21
534.52	777.06
534.69	741.95
534.86	858.98
535.03	924.51
535.20	877.70
535.37	1015.79
535.54	968.98
535.71	1067.28
535.88	1100.05
536.05	1121.12
536.22	1310.70
536.38	1364.53
536.55	1401.98
536.72	1619.65
536.89	1724.97
537.06	1863.07
537.23	2230.53
537.40	2370.96
537.57	2525.44
537.74	2593.31
537.91	2733.75
538.08	2710.34
538.25	2874.18
538.42	2839.07
538.59	2899.92
538.75	2874.18
538.92	3105.89
539.09	3307.18
539.26	3688.68
539.43	4208.28
539.60	4868.31
539.77	5263.86
539.94	5926.24
540.11	6731.38
540.28	7255.66
540.44	7957.82
540.61	8713.81
540.78	10143.88
540.95	11864.18
541.12	14277.27
541.29	15824.36
541.46	16709.08
541.62	16393.11
541.79	15374.98
541.96	14487.92
542.13	13289.56
542.30	12568.68
542.47	11887.58
542.63	11346.92
542.80	11035.63
542.97	10743.06
543.14	10509.01
543.31	10637.73
543.48	10686.89
543.64	10960.73
543.81	11101.16
543.98	11077.76
544.15	11061.37
544.32	11108.18
544.48	11328.19
544.65	10963.07
544.82	11119.89
544.99	11094.14
545.16	11363.30
545.32	12109.93
545.49	22104.02
545.66	38721.82
545.83	44289.96
546.00	36748.75
546.16	24783.93
546.33	18508.96
546.50	13923.85
546.67	11204.14
546.83	9846.63
547.00	9397.25
547.17	9025.11
547.34	8847.22
547.50	8528.91
547.67	8184.85
547.84	7719.09
548.00	7452.27
548.17	7272.04
548.34	6995.86
548.51	6649.46
548.67	6511.37
548.84	6106.46
549.01	5706.23
549.18	5596.22
549.34	5357.49
549.51	5198.33
549.68	5132.79
549.84	4805.12
550.01	4568.73
550.18	4379.14
550.34	4210.62
550.51	3997.64
550.68	3798.69
550.84	3627.83
551.01	3435.91
551.18	3115.25
551.34	3211.22
551.51	2923.33
551.68	2946.73
551.84	2834.39
552.01	2832.05
552.18	2558.21
552.34	2406.07
552.51	2345.22
552.68	2284.36
552.84	2221.17
553.01	2064.35
553.18	2099.46
553.34	2047.97
553.51	1994.14
553.67	1811.57
553.84	1823.28
554.01	1638.38
554.17	1565.82
554.34	1486.24
554.51	1432.41
554.67	1327.08
554.84	1439.43
555.00	1273.25
555.17	1252.19
555.33	1181.97
555.50	1076.65
555.67	1097.71
555.83	1018.13
556.00	1093.03
556.16	1057.92
556.33	828.55
556.50	840.25
556.66	870.68
556.83	800.46
556.99	863.66
557.16	737.27
557.32	774.72
557.49	692.80
557.65	671.73
557.82	746.63
557.98	716.20
558.15	779.40
558.32	690.46
558.48	660.03
558.65	699.82
558.81	617.90
558.98	648.33
559.14	699.82
559.31	634.29
559.47	608.54
559.64	491.51
559.80	648.33
559.97	585.13
560.13	608.54
560.30	535.98
560.46	587.47
560.63	564.07
560.79	575.77
560.96	631.94
561.12	592.16
561.29	498.53
561.45	547.69
561.61	599.18
561.78	571.09
561.94	543.00
562.11	592.16
562.27	552.37
562.44	543.00
562.60	573.43
562.77	629.60
562.93	538.32
563.10	482.15
563.26	524.28
563.42	519.60
563.59	545.34
563.75	533.64
563.92	493.85
564.08	465.77
564.24	500.87
564.41	519.60
564.57	489.17
564.74	489.17
564.90	447.04
565.07	435.34
565.23	428.32
565.39	486.83
565.56	447.04
565.72	388.53
565.88	484.49
566.05	489.17
566.21	447.04
566.38	456.40
566.54	463.43
566.70	524.28
566.87	498.53
567.03	449.38
567.19	421.30
567.36	507.90
567.52	402.57
567.68	435.34
567.85	493.85
568.01	507.90
568.17	386.19
568.34	456.40
568.50	486.83
568.66	351.08
568.83	505.56
568.99	397.89
569.15	365.12
569.32	421.30
569.48	423.64
569.64	379.17
569.81	418.96
569.97	425.98
570.13	465.77
570.30	355.76
570.46	454.06
570.62	344.06
570.78	430.66
570.95	339.38
571.11	423.64
571.27	437.68
571.43	409.59
571.60	360.44
571.76	379.17
571.92	355.76
572.09	358.10
572.25	308.95
572.41	330.02
572.57	365.12
572.74	381.51
572.90	440.02
573.06	475.13
573.22	337.04
573.38	465.77
573.55	402.57
573.71	465.77
573.87	507.90
574.03	507.90
574.20	423.64
574.36	372.15
574.52	498.53
574.68	472.79
574.84	472.79
575.01	456.40
575.17	456.40
575.33	528.96
575.49	650.67
575.65	559.39
575.82	660.03
575.98	683.44
576.14	767.70
576.30	1603.27
576.46	4805.12
576.62	6839.05
576.79	7274.38
576.95	5366.85
577.11	3672.30
577.27	2532.46
577.43	1668.80
577.59	1095.37
577.75	1039.20
577.92	985.37
578.08	938.55
578.24	973.66
578.40	1699.23
578.56	4346.37
578.72	6722.02
578.88	6883.52
579.04	5060.24
579.21	3501.44
579.37	2668.21
579.53	2225.85
579.69	2305.43
579.85	2586.29
580.01	2916.31
580.17	2572.25
580.33	2490.33
580.49	2108.82
580.65	1846.68
580.82	1629.01
580.98	1699.23
581.14	1797.53
581.30	1877.11
581.46	2010.52
581.62	2099.46
581.78	2181.38
581.94	2380.32
582.10	2513.74
582.26	2712.68
582.42	2691.62
582.58	2708.00
582.74	2864.82
582.90	2920.99
583.06	2775.88
583.22	2850.77
583.38	2857.79
583.54	2963.12
583.70	2794.60
583.86	2836.73
584.02	2792.26
584.18	2715.02
584.34	2658.85
584.50	2626.08
584.66	2548.84
584.82	2480.97
584.98	2537.14
585.14	2373.30
585.30	2509.05
585.46	2368.62
585.62	2195.42
585.78	2352.24
585.94	2263.30
586.10	2487.99
586.26	2740.77
586.42	2995.89
586.58	3634.85
586.74	4329.99
586.90	5090.67
587.06	5390.25
587.22	5249.82
587.38	4837.89
587.54	3983.59
587.70	3468.67
587.86	2965.46
588.02	2523.10
588.18	2361.60
588.34	2092.44
588.49	1818.60
588.65	1858.39
588.81	1652.42
588.97	1734.34
589.13	1703.91
589.29	1638.38
589.45	1584.54
589.61	1689.87
589.77	1631.35
589.93	1673.48
590.08	1682.85
590.24	1832.64
590.40	1790.51
590.56	1813.92
590.72	1926.26
590.88	1823.28
591.04	1907.54
591.20	2019.88
591.35	2211.81
591.51	2296.07
591.67	2291.38
591.83	2396.71
591.99	2661.19
592.15	2928.01
592.31	3150.36
592.46	3262.71
592.62	3705.07
592.78	3920.40
592.94	3927.42
593.10	3852.52
593.26	3623.15
593.41	3398.46
593.57	3091.85
593.73	2745.45
593.89	2448.20
594.05	2193.08
594.20	1870.09
594.36	1715.61
594.52	1678.16
594.68	1668.80
594.84	1591.56
594.99	1624.33
595.15	1598.59
595.31	1535.39
595.47	1521.35
595.62	1406.66
595.78	1554.12
595.94	1425.39
596.10	1549.43
596.25	1561.14
596.41	1490.92
596.57	1401.98
596.73	1397.30
596.88	1413.68
597.04	1357.51
597.20	1406.66
597.36	1626.67
597.51	1537.73
597.67	1661.78
597.83	1647.74
597.99	1741.36
598.14	1706.25
598.30	1937.96
598.46	2022.22
598.61	2092.44
598.77	2291.38
598.93	2272.66
599.09	2291.38
599.24	2434.16
599.40	2373.30
599.56	2312.45
599.71	2129.89
599.87	2172.02
600.03	1970.73
600.18	1916.90
600.34	1806.89
600.50	1582.20
600.65	1425.39
600.81	1533.05
600.97	1441.77
601.12	1329.42
601.28	1343.47
601.44	1242.82
601.59	1172.61
601.75	1186.65
601.91	1130.48
602.06	1041.54
602.22	1146.86
602.37	971.32
602.53	1043.88
602.69	992.39
602.84	940.90
603.00	905.79
603.16	1032.18
603.31	994.73
603.47	1111.75
603.62	1076.65
603.78	1046.22
603.94	1069.62
604.09	1015.79
604.25	1181.97
604.40	1137.50
604.56	1064.94
604.71	1153.88
604.87	1207.72
605.03	1188.99
605.18	1207.72
605.34	1277.93
605.49	1303.68
605.65	1317.72
605.80	1324.74
605.96	1383.26
606.12	1394.96
606.27	1540.07
606.43	1673.48
606.58	1666.46
606.74	1748.38
606.89	1701.57
607.05	1813.92
607.20	1996.48
607.36	2080.74
607.51	2169.68
607.67	2200.10
607.82	2319.47
607.98	2605.02
608.13	2661.19
608.29	2855.45
608.44	3274.41
608.60	3421.86
608.75	3819.75
608.91	4030.40
609.06	4521.92
609.22	4975.98
609.37	5507.28
609.53	5987.09
609.68	6911.60
609.84	7962.50
609.99	9186.60
610.15	10829.66
610.30	13523.62
610.46	17228.68
610.61	22398.93
610.76	28315.80
610.92	34572.05
611.07	37968.17
611.23	38253.72
611.38	36229.15
611.54	31838.31
611.69	26780.41
611.84	22377.86
612.00	18548.75
612.15	15611.37
612.31	13895.76
612.46	12428.24
612.62	11695.66
612.77	10670.50
612.92	10274.95
613.08	9727.27
613.23	9385.55
613.39	9034.47
613.54	8636.58
613.69	8517.21
613.85	8505.51
614.00	8241.03
614.15	8351.03
614.31	8222.30
614.46	8067.83
614.62	7756.54
614.77	7403.11
614.92	6853.09
615.08	6298.38
615.23	5905.17
615.38	5303.65
615.54	5083.64
615.69	4470.42
615.84	4175.52
616.00	3801.03
616.15	3712.09
616.30	3499.10
616.46	3164.40
616.61	2993.55
616.76	2923.33
616.92	2663.53
617.07	2560.55
617.22	2387.35
617.37	2328.83
617.53	2235.21
617.68	2162.66
617.83	2087.76
617.99	1970.73
618.14	1961.37
618.29	1968.39
618.45	1895.83
618.60	1877.11
618.75	1907.54
618.90	1926.26
619.06	1863.07
619.21	1755.40
619.36	1767.10
619.51	1785.83
619.67	1877.11
619.82	1891.15
619.97	1832.64
620.12	1886.47
620.28	1989.46
620.43	2015.20
620.58	2052.65
620.73	1966.05
620.89	1954.35
621.04	1961.37
621.19	2024.56
621.34	1865.41
621.49	1877.11
621.65	1980.09
621.80	1853.70
621.95	1809.23
622.10	1912.22
622.25	1788.17
622.41	1881.79
622.56	1940.30
622.71	1975.41
622.86	2022.22
623.01	1923.92
623.16	2120.53
623.32	2005.84
623.47	2176.70
623.62	2155.63
623.77	2066.69
623.92	2101.80
624.07	2059.67
624.23	2132.23
624.38	2202.44
624.53	2062.01
624.68	2174.36
624.83	2218.83
624.98	2195.42
625.13	2162.66
625.29	2172.02
625.44	2069.03
625.59	2111.16
625.74	2209.47
625.89	2169.68
626.04	2099.46
626.19	2125.21
626.34	2113.50
626.49	2106.48
626.65	2022.22
626.80	2005.84
626.95	2040.95
627.10	2012.86
627.25	1959.03
627.40	1968.39
627.55	1944.99
627.70	1991.80
627.85	1900.52
628.00	1966.05
628.15	1888.81
628.30	1923.92
628.45	1916.90
628.60	1872.43
628.76	1919.24
628.91	1977.75
629.06	1870.09
629.21	1942.64
629.36	2001.16
629.51	2097.12
629.66	2186.06
629.81	2375.64
629.96	2513.74
630.11	2780.56
630.26	3199.51
630.41	3400.80
630.56	3946.14
630.71	3992.95
630.86	4004.66
631.01	3894.65
631.16	3693.37
631.31	3178.45
631.46	2761.83
631.61	2366.28
631.76	2017.54
631.91	1640.72
632.06	1547.09
632.21	1233.46
632.36	1259.21
632.51	1020.47
632.66	917.49
632.81	938.55
632.96	828.55
633.10	828.55
633.25	861.32
633.40	706.84
633.55	737.27
633.70	690.46
633.85	678.76
634.00	547.69
634.15	650.67
634.30	629.60
634.45	636.63
634.60	615.56
634.75	650.67
634.90	599.18
635.05	676.41
635.19	683.44
635.34	559.39
635.49	514.92
635.64	580.45
635.79	601.52
635.94	578.11
636.09	554.71
636.24	568.75
636.39	489.17
636.53	634.29
636.68	444.70
636.83	505.56
636.98	575.77
637.13	514.92
637.28	433.00
637.43	524.28
637.57	491.51
637.72	491.51
637.87	484.49
638.02	447.04
638.17	444.70
638.32	458.74
638.46	428.32
638.61	465.77
638.76	491.51
638.91	463.43
639.06	404.91
639.20	489.17
639.35	465.77
639.50	365.12
639.65	510.24
639.80	421.30
639.94	428.32
640.09	463.43
640.24	454.06
640.39	479.81
640.54	472.79
640.68	360.44
640.83	367.46
640.98	479.81
641.13	402.57
641.27	510.24
641.42	435.34
641.57	468.11
641.72	435.34
641.86	360.44
642.01	458.74
642.16	416.62
642.31	411.93
642.45	491.51
642.60	444.70
642.75	465.77
642.90	360.44
643.04	393.21
643.19	496.19
643.34	414.27
643.48	493.85
643.63	458.74
643.78	440.02
643.93	442.36
644.07	402.57
644.22	383.85
644.37	376.83
644.51	416.62
644.66	442.36
644.81	411.93
644.95	400.23
645.10	386.19
645.25	318.31
645.39	538.32
645.54	458.74
645.69	526.62
645.83	416.62
645.98	425.98
646.13	440.02
646.27	510.24
646.42	376.83
646.57	339.38
646.71	344.06
646.86	339.38
647.00	334.70
647.15	372.15
647.30	397.89
647.44	404.91
647.59	461.09
647.74	454.06
647.88	388.53
648.03	393.21
648.17	423.64
648.32	440.02
648.47	425.98
648.61	388.53
648.76	425.98
648.90	463.43
649.05	479.81
649.20	463.43
649.34	526.62
649.49	594.50
649.63	678.76
649.78	713.86
649.92	898.77
650.07	1060.26
650.21	1104.73
650.36	1181.97
650.51	1200.69
650.65	1104.73
650.80	952.60
650.94	882.38
651.09	826.21
651.23	713.86
651.38	671.73
651.52	643.65
651.67	557.05
651.81	493.85
651.96	533.64
652.10	514.92
652.25	444.70
652.39	484.49
652.54	627.26
652.68	528.96
652.83	629.60
652.97	601.52
653.12	603.86
653.26	540.66
653.41	580.45
653.55	526.62
653.70	510.24
653.84	486.83
653.99	447.04
654.13	393.21
654.27	433.00
654.42	428.32
654.56	402.57
654.71	447.04
654.85	442.36
655.00	376.83
655.14	458.74
655.29	374.49
655.43	376.83
655.57	379.17
655.72	306.61
655.86	369.80
656.01	327.68
656.15	425.98
656.30	437.68
656.44	311.29
656.58	322.99
656.73	386.19
656.87	475.13
657.01	447.04
657.16	489.17
657.30	440.02
657.45	449.38
657.59	500.87
657.73	425.98
657.88	468.11
658.02	484.49
658.16	437.68
658.31	437.68
658.45	456.40
658.60	383.85
658.74	362.78
658.88	294.91
659.03	292.57
659.17	325.33
659.31	365.12
659.46	327.68
659.60	318.31
659.74	337.04
659.89	313.63
660.03	285.55
660.17	386.19
660.32	416.62
660.46	299.59
660.60	325.33
660.74	390.87
660.89	341.72
661.03	229.37
661.17	313.63
661.32	379.17
661.46	451.72
661.60	418.96
661.74	552.37
661.89	582.79
662.03	741.95
662.17	713.86
662.31	711.52
662.46	653.01
662.60	643.65
662.74	627.26
662.88	521.94
663.03	564.07
663.17	449.38
663.31	383.85
663.45	395.55
663.60	386.19
663.74	346.40
663.88	327.68
664.02	374.49
664.17	337.04
664.31	311.29
664.45	301.93
664.59	351.08
664.73	273.84
664.88	332.36
665.02	358.10
665.16	313.63
665.30	337.04
665.44	428.32
665.59	245.76
665.73	339.38
665.87	339.38
666.01	306.61
666.15	252.78
666.29	252.78
666.44	315.97
666.58	332.36
666.72	266.82
666.86	257.46
667.00	315.97
667.14	311.29
667.28	187.24
667.43	318.31
667.57	297.25
667.71	360.44
667.85	294.91
667.99	315.97
668.13	292.57
668.27	318.31
668.41	332.36
668.56	332.36
668.70	351.08
668.84	330.02
668.98	250.44
669.12	330.02
669.26	236.39
669.40	372.15
669.54	353.42
669.68	353.42
669.82	292.57
669.96	313.63
670.10	306.61
670.25	332.36
670.39	276.18
670.53	299.59
670.67	315.97
670.81	262.14
670.95	231.71
671.09	236.39
671.23	299.59
671.37	283.20
671.51	313.63
671.65	271.50
671.79	330.02
671.93	280.86
672.07	330.02
672.21	269.16
672.35	194.26
672.49	241.08
672.63	243.42
672.77	252.78
672.91	266.82
673.05	269.16
673.19	337.04
673.33	259.80
673.47	339.38
673.61	266.82
673.75	276.18
673.89	243.42
674.03	315.97
674.17	294.91
674.31	177.88
674.45	234.05
674.59	245.76
674.73	220.01
674.87	290.23
675.01	187.24
675.15	227.03
675.29	245.76
675.43	201.29
675.56	241.08
675.70	208.31
675.84	255.12
675.98	255.12
676.12	201.29
676.26	311.29
676.40	231.71
676.54	301.93
676.68	360.44
676.82	224.69
676.96	187.24
677.10	189.58
677.23	313.63
677.37	212.99
677.51	297.25
677.65	292.57
677.79	271.50
677.93	250.44
678.07	142.77
678.21	276.18
678.34	215.33
678.48	269.16
678.62	220.01
678.76	170.86
678.90	198.95
679.04	255.12
679.18	194.26
679.31	285.55
679.45	294.91
679.59	290.23
679.73	262.14
679.87	215.33
680.00	212.99
680.14	339.38
680.28	365.12
680.42	231.71
680.56	280.86
680.70	278.52
680.83	297.25
680.97	231.71
681.11	299.59
681.25	353.42
681.39	266.82
681.52	245.76
681.66	203.63
681.80	238.73
681.94	252.78
682.07	243.42
682.21	175.54
682.35	205.97
682.49	264.48
682.62	276.18
682.76	278.52
682.90	292.57
683.04	227.03
683.17	217.67
683.31	177.88
683.45	227.03
683.59	248.10
683.72	205.97
683.86	217.67
684.00	210.65
684.13	283.20
684.27	287.89
684.41	273.84
684.55	212.99
684.68	187.24
684.82	175.54
684.96	241.08
685.09	252.78
685.23	257.46
685.37	266.82
685.50	320.65
685.64	220.01
685.78	224.69
685.91	285.55
686.05	325.33
686.19	334.70
686.32	304.27
686.46	322.99
686.60	205.97
686.73	400.23
686.87	376.83
687.01	358.10
687.14	372.15
687.28	362.78
687.42	475.13
687.55	444.70
687.69	484.49
687.82	423.64
687.96	416.62
688.10	393.21
688.23	341.72
688.37	365.12
688.50	358.10
688.64	351.08
688.78	269.16
688.91	292.57
689.05	163.84
689.18	205.97
689.32	278.52
689.46	252.78
689.59	191.92
689.73	220.01
689.86	166.18
690.00	234.05
690.13	252.78
690.27	201.29
690.41	236.39
690.54	290.23
690.68	243.42
690.81	205.97
690.95	220.01
691.08	220.01
691.22	135.75
691.35	196.60
691.49	245.76
691.62	159.16
691.76	142.77
691.89	220.01
692.03	114.69
692.16	161.50
692.30	124.05
692.43	208.31
692.57	187.24
692.70	154.48
692.84	208.31
692.97	234.05
693.11	243.42
693.24	308.95
693.38	353.42
693.51	348.74
693.65	423.64
693.78	374.49
693.92	330.02
694.05	334.70
694.19	241.08
694.32	234.05
694.45	224.69
694.59	297.25
694.72	236.39
694.86	166.18
694.99	236.39
695.13	203.63
695.26	196.60
695.39	107.66
695.53	173.20
695.66	107.66
695.80	201.29
695.93	112.35
696.07	131.07
696.20	215.33
696.33	180.22
696.47	222.35
696.60	236.39
696.73	166.18
696.87	119.37
697.00	182.56
697.14	184.90
697.27	105.32
697.40	203.63
697.54	149.79
697.67	170.86
697.80	107.66
697.94	42.13
698.07	117.03
698.21	72.56
698.34	177.88
698.47	138.09
698.61	60.85
698.74	138.09
698.87	168.52
699.01	154.48
699.14	152.13
699.27	149.79
699.40	283.20
699.54	152.13
699.67	149.79
699.80	124.05
699.94	107.66
700.07	170.86
700.20	180.22
700.34	187.24
700.47	149.79
700.60	208.31
700.73	93.62
700.87	170.86
701.00	224.69
701.13	86.60
701.26	81.92
701.40	173.20
701.53	110.01
701.66	149.79
701.79	147.45
701.93	154.48
702.06	168.52
702.19	128.73
702.32	210.65
702.46	168.52
702.59	140.43
702.72	133.41
702.85	215.33
702.99	161.50
703.12	196.60
703.25	177.88
703.38	98.30
703.51	208.31
703.65	220.01
703.78	210.65
703.91	170.86
704.04	224.69
704.17	191.92
704.31	231.71
704.44	210.65
704.57	161.50
704.70	227.03
704.83	222.35
704.96	252.78
705.10	259.80
705.23	208.31
>>>>>End Processed Spectral Data<<<<<
