SpectraSuite Data File
++++++++++++++++++++++++++++++++++++
Date: Fri Oct 04 11:42:13 GMT-05:00 2013
User: price-jones
Dark Spectrum Present: No
Reference Spectrum Present: No
Number of Sampled Component Spectra: 1
Spectrometers: USB2+H05261
Integration Time (usec): 100000 (USB2+H05261)
Spectra Averaged: 1 (USB2+H05261)
Boxcar Smoothing: 0 (USB2+H05261)
Correct for Electrical Dark: No (USB2+H05261)
Strobe/Lamp Enabled: No (USB2+H05261)
Correct for Detector Non-linearity: No (USB2+H05261)
Correct for Stray Light: No (USB2+H05261)
Number of Pixels in Processed Spectrum: 2048
>>>>>Begin Processed Spectral Data<<<<<
365.73	25.75
365.92	25.75
366.12	25.75
366.32	0.00
366.52	0.00
366.72	23.41
366.91	0.00
367.11	0.00
367.31	0.00
367.51	0.00
367.70	0.00
367.90	0.00
368.10	0.00
368.30	0.00
368.49	0.00
368.69	0.00
368.89	0.00
369.09	0.00
369.28	0.00
369.48	0.00
369.68	0.00
369.87	11.70
370.07	0.00
370.27	16.38
370.47	25.75
370.66	0.00
370.86	93.62
371.06	117.03
371.25	70.22
371.45	0.00
371.65	42.13
371.84	18.72
372.04	98.30
372.24	161.50
372.44	11.70
372.63	63.19
372.83	152.13
373.03	133.41
373.22	72.56
373.42	91.28
373.62	102.98
373.81	156.82
374.01	140.43
374.21	88.94
374.40	149.79
374.60	135.75
374.79	175.54
374.99	63.19
375.19	168.52
375.38	187.24
375.58	133.41
375.78	105.32
375.97	105.32
376.17	175.54
376.37	86.60
376.56	124.05
376.76	28.09
376.95	114.69
377.15	114.69
377.35	95.96
377.54	88.94
377.74	86.60
377.93	100.64
378.13	152.13
378.33	159.16
378.52	100.64
378.72	91.28
378.91	35.11
379.11	163.84
379.31	93.62
379.50	65.54
379.70	114.69
379.89	177.88
380.09	46.81
380.28	67.88
380.48	91.28
380.68	63.19
380.87	39.79
381.07	138.09
381.26	163.84
381.46	135.75
381.65	135.75
381.85	163.84
382.04	110.01
382.24	86.60
382.43	121.71
382.63	77.24
382.83	67.88
383.02	126.39
383.22	117.03
383.41	147.45
383.61	163.84
383.80	53.83
384.00	119.37
384.19	84.26
384.39	65.54
384.58	44.47
384.78	67.88
384.97	135.75
385.17	105.32
385.36	145.11
385.56	180.22
385.75	128.73
385.95	93.62
386.14	163.84
386.34	107.66
386.53	126.39
386.72	110.01
386.92	152.13
387.11	147.45
387.31	63.19
387.50	93.62
387.70	112.35
387.89	149.79
388.09	21.06
388.28	74.90
388.48	95.96
388.67	119.37
388.86	98.30
389.06	105.32
389.25	140.43
389.45	110.01
389.64	72.56
389.84	117.03
390.03	100.64
390.22	124.05
390.42	119.37
390.61	102.98
390.81	81.92
391.00	105.32
391.19	93.62
391.39	63.19
391.58	135.75
391.78	14.04
391.97	133.41
392.16	203.63
392.36	177.88
392.55	124.05
392.75	154.48
392.94	63.19
393.13	124.05
393.33	53.83
393.52	117.03
393.71	142.77
393.91	187.24
394.10	142.77
394.29	117.03
394.49	140.43
394.68	67.88
394.88	182.56
395.07	124.05
395.26	86.60
395.46	88.94
395.65	112.35
395.84	159.16
396.04	180.22
396.23	107.66
396.42	98.30
396.62	154.48
396.81	187.24
397.00	131.07
397.19	102.98
397.39	124.05
397.58	138.09
397.77	135.75
397.97	77.24
398.16	72.56
398.35	67.88
398.55	25.75
398.74	114.69
398.93	60.85
399.12	140.43
399.32	105.32
399.51	117.03
399.70	152.13
399.90	145.11
400.09	105.32
400.28	180.22
400.47	58.51
400.67	149.79
400.86	152.13
401.05	102.98
401.24	177.88
401.44	189.58
401.63	149.79
401.82	131.07
402.01	70.22
402.21	119.37
402.40	81.92
402.59	147.45
402.78	124.05
402.97	100.64
403.17	119.37
403.36	121.71
403.55	159.16
403.74	142.77
403.93	135.75
404.13	191.92
404.32	334.70
404.51	198.95
404.70	177.88
404.89	124.05
405.09	145.11
405.28	126.39
405.47	105.32
405.66	196.60
405.85	88.94
406.05	170.86
406.24	98.30
406.43	131.07
406.62	196.60
406.81	175.54
407.00	131.07
407.20	152.13
407.39	131.07
407.58	166.18
407.77	145.11
407.96	102.98
408.15	91.28
408.34	102.98
408.54	100.64
408.73	149.79
408.92	128.73
409.11	135.75
409.30	203.63
409.49	77.24
409.68	145.11
409.87	107.66
410.07	177.88
410.26	86.60
410.45	114.69
410.64	191.92
410.83	110.01
411.02	203.63
411.21	112.35
411.40	117.03
411.59	119.37
411.78	112.35
411.98	175.54
412.17	149.79
412.36	203.63
412.55	98.30
412.74	154.48
412.93	170.86
413.12	128.73
413.31	117.03
413.50	107.66
413.69	112.35
413.88	180.22
414.07	166.18
414.26	107.66
414.45	147.45
414.64	135.75
414.83	133.41
415.02	191.92
415.22	168.52
415.41	133.41
415.60	161.50
415.79	79.58
415.98	177.88
416.17	159.16
416.36	114.69
416.55	142.77
416.74	173.20
416.93	49.15
417.12	67.88
417.31	42.13
417.50	107.66
417.69	105.32
417.88	114.69
418.07	105.32
418.26	110.01
418.45	177.88
418.64	245.76
418.83	208.31
419.02	149.79
419.21	154.48
419.39	170.86
419.58	135.75
419.77	98.30
419.96	121.71
420.15	208.31
420.34	154.48
420.53	194.26
420.72	126.39
420.91	210.65
421.10	187.24
421.29	170.86
421.48	161.50
421.67	152.13
421.86	163.84
422.05	126.39
422.24	124.05
422.43	98.30
422.61	163.84
422.80	86.60
422.99	142.77
423.18	194.26
423.37	248.10
423.56	126.39
423.75	189.58
423.94	163.84
424.13	119.37
424.32	81.92
424.50	142.77
424.69	156.82
424.88	140.43
425.07	152.13
425.26	159.16
425.45	110.01
425.64	100.64
425.83	212.99
426.01	170.86
426.20	201.29
426.39	166.18
426.58	212.99
426.77	220.01
426.96	154.48
427.15	215.33
427.33	140.43
427.52	112.35
427.71	173.20
427.90	140.43
428.09	145.11
428.28	135.75
428.46	205.97
428.65	203.63
428.84	168.52
429.03	189.58
429.22	110.01
429.40	74.90
429.59	77.24
429.78	149.79
429.97	149.79
430.16	117.03
430.34	112.35
430.53	117.03
430.72	156.82
430.91	72.56
431.10	107.66
431.28	142.77
431.47	156.82
431.66	161.50
431.85	170.86
432.03	149.79
432.22	208.31
432.41	135.75
432.60	215.33
432.79	95.96
432.97	194.26
433.16	112.35
433.35	98.30
433.54	74.90
433.72	163.84
433.91	215.33
434.10	154.48
434.28	161.50
434.47	154.48
434.66	210.65
434.85	175.54
435.03	353.42
435.22	678.76
435.41	1228.78
435.59	1228.78
435.78	973.66
435.97	514.92
436.16	311.29
436.34	191.92
436.53	154.48
436.72	236.39
436.90	229.37
437.09	98.30
437.28	245.76
437.46	175.54
437.65	159.16
437.84	222.35
438.02	184.90
438.21	194.26
438.40	173.20
438.58	95.96
438.77	173.20
438.96	191.92
439.14	145.11
439.33	107.66
439.52	152.13
439.70	177.88
439.89	173.20
440.08	147.45
440.26	147.45
440.45	196.60
440.63	248.10
440.82	121.71
441.01	269.16
441.19	166.18
441.38	145.11
441.57	128.73
441.75	231.71
441.94	133.41
442.12	149.79
442.31	163.84
442.50	100.64
442.68	107.66
442.87	163.84
443.05	189.58
443.24	203.63
443.43	208.31
443.61	238.73
443.80	147.45
443.98	220.01
444.17	189.58
444.35	231.71
444.54	203.63
444.73	170.86
444.91	175.54
445.10	145.11
445.28	168.52
445.47	187.24
445.65	154.48
445.84	238.73
446.02	138.09
446.21	205.97
446.39	147.45
446.58	210.65
446.77	138.09
446.95	79.58
447.14	177.88
447.32	182.56
447.51	182.56
447.69	262.14
447.88	163.84
448.06	222.35
448.25	208.31
448.43	255.12
448.62	98.30
448.80	154.48
448.99	187.24
449.17	114.69
449.36	182.56
449.54	212.99
449.73	215.33
449.91	177.88
450.10	131.07
450.28	198.95
450.46	208.31
450.65	177.88
450.83	184.90
451.02	156.82
451.20	145.11
451.39	159.16
451.57	149.79
451.76	203.63
451.94	168.52
452.13	86.60
452.31	145.11
452.49	182.56
452.68	177.88
452.86	177.88
453.05	276.18
453.23	182.56
453.42	140.43
453.60	114.69
453.78	203.63
453.97	227.03
454.15	168.52
454.34	163.84
454.52	168.52
454.70	217.67
454.89	126.39
455.07	212.99
455.26	203.63
455.44	217.67
455.62	131.07
455.81	173.20
455.99	187.24
456.17	191.92
456.36	215.33
456.54	124.05
456.73	215.33
456.91	166.18
457.09	147.45
457.28	128.73
457.46	177.88
457.64	142.77
457.83	145.11
458.01	194.26
458.19	166.18
458.38	93.62
458.56	201.29
458.74	217.67
458.93	196.60
459.11	114.69
459.29	217.67
459.48	152.13
459.66	238.73
459.84	243.42
460.03	322.99
460.21	201.29
460.39	112.35
460.57	177.88
460.76	168.52
460.94	166.18
461.12	203.63
461.31	163.84
461.49	215.33
461.67	184.90
461.85	180.22
462.04	203.63
462.22	304.27
462.40	241.08
462.59	191.92
462.77	189.58
462.95	294.91
463.13	175.54
463.32	126.39
463.50	191.92
463.68	177.88
463.86	177.88
464.05	142.77
464.23	241.08
464.41	250.44
464.59	208.31
464.78	241.08
464.96	168.52
465.14	220.01
465.32	180.22
465.50	135.75
465.69	208.31
465.87	212.99
466.05	201.29
466.23	140.43
466.41	196.60
466.60	180.22
466.78	194.26
466.96	203.63
467.14	189.58
467.32	210.65
467.51	180.22
467.69	140.43
467.87	173.20
468.05	212.99
468.23	187.24
468.41	147.45
468.60	205.97
468.78	177.88
468.96	140.43
469.14	145.11
469.32	170.86
469.50	224.69
469.69	196.60
469.87	173.20
470.05	131.07
470.23	168.52
470.41	117.03
470.59	191.92
470.77	276.18
470.95	170.86
471.14	161.50
471.32	194.26
471.50	166.18
471.68	177.88
471.86	163.84
472.04	170.86
472.22	198.95
472.40	135.75
472.58	133.41
472.77	121.71
472.95	166.18
473.13	191.92
473.31	224.69
473.49	126.39
473.67	170.86
473.85	210.65
474.03	177.88
474.21	156.82
474.39	224.69
474.57	280.86
474.75	234.05
474.93	156.82
475.12	173.20
475.30	208.31
475.48	119.37
475.66	182.56
475.84	126.39
476.02	184.90
476.20	156.82
476.38	208.31
476.56	248.10
476.74	133.41
476.92	126.39
477.10	194.26
477.28	175.54
477.46	191.92
477.64	210.65
477.82	224.69
478.00	177.88
478.18	184.90
478.36	180.22
478.54	145.11
478.72	262.14
478.90	138.09
479.08	215.33
479.26	229.37
479.44	131.07
479.62	180.22
479.80	231.71
479.98	184.90
480.16	217.67
480.34	241.08
480.52	238.73
480.70	217.67
480.88	154.48
481.06	191.92
481.24	196.60
481.41	187.24
481.59	217.67
481.77	208.31
481.95	241.08
482.13	248.10
482.31	255.12
482.49	278.52
482.67	271.50
482.85	262.14
483.03	301.93
483.21	271.50
483.39	231.71
483.57	245.76
483.74	259.80
483.92	287.89
484.10	191.92
484.28	290.23
484.46	383.85
484.64	271.50
484.82	259.80
485.00	294.91
485.18	311.29
485.35	308.95
485.53	287.89
485.71	297.25
485.89	290.23
486.07	285.55
486.25	327.68
486.43	294.91
486.61	325.33
486.78	386.19
486.96	327.68
487.14	341.72
487.32	271.50
487.50	334.70
487.68	306.61
487.85	308.95
488.03	320.65
488.21	390.87
488.39	337.04
488.57	304.27
488.75	334.70
488.92	664.71
489.10	383.85
489.28	341.72
489.46	341.72
489.64	395.55
489.81	266.82
489.99	292.57
490.17	283.20
490.35	285.55
490.53	334.70
490.70	294.91
490.88	330.02
491.06	327.68
491.24	348.74
491.41	330.02
491.59	313.63
491.77	353.42
491.95	315.97
492.13	205.97
492.30	269.16
492.48	287.89
492.66	346.40
492.84	266.82
493.01	341.72
493.19	334.70
493.37	320.65
493.54	248.10
493.72	229.37
493.90	299.59
494.08	234.05
494.25	341.72
494.43	290.23
494.61	290.23
494.79	257.46
494.96	189.58
495.14	297.25
495.32	283.20
495.49	416.62
495.67	330.02
495.85	245.76
496.02	304.27
496.20	271.50
496.38	299.59
496.55	311.29
496.73	341.72
496.91	271.50
497.09	297.25
497.26	259.80
497.44	245.76
497.62	327.68
497.79	241.08
497.97	299.59
498.14	283.20
498.32	332.36
498.50	234.05
498.67	184.90
498.85	292.57
499.03	330.02
499.20	212.99
499.38	292.57
499.56	292.57
499.73	332.36
499.91	330.02
500.08	238.73
500.26	271.50
500.44	198.95
500.61	255.12
500.79	271.50
500.97	290.23
501.14	222.35
501.32	264.48
501.49	243.42
501.67	308.95
501.84	292.57
502.02	234.05
502.20	262.14
502.37	269.16
502.55	273.84
502.72	243.42
502.90	250.44
503.07	252.78
503.25	315.97
503.43	177.88
503.60	269.16
503.78	273.84
503.95	201.29
504.13	241.08
504.30	243.42
504.48	168.52
504.65	280.86
504.83	264.48
505.01	287.89
505.18	255.12
505.36	248.10
505.53	238.73
505.71	231.71
505.88	215.33
506.06	259.80
506.23	227.03
506.41	196.60
506.58	245.76
506.76	248.10
506.93	191.92
507.11	276.18
507.28	208.31
507.46	212.99
507.63	264.48
507.81	257.46
507.98	262.14
508.16	318.31
508.33	236.39
508.50	257.46
508.68	292.57
508.85	278.52
509.03	203.63
509.20	292.57
509.38	252.78
509.55	280.86
509.73	227.03
509.90	271.50
510.08	313.63
510.25	257.46
510.42	276.18
510.60	250.44
510.77	264.48
510.95	243.42
511.12	250.44
511.30	255.12
511.47	271.50
511.64	273.84
511.82	276.18
511.99	250.44
512.17	250.44
512.34	191.92
512.51	198.95
512.69	273.84
512.86	266.82
513.04	220.01
513.21	238.73
513.38	257.46
513.56	203.63
513.73	208.31
513.90	187.24
514.08	189.58
514.25	250.44
514.43	294.91
514.60	245.76
514.77	299.59
514.95	257.46
515.12	205.97
515.29	283.20
515.47	245.76
515.64	248.10
515.81	243.42
515.99	301.93
516.16	306.61
516.33	262.14
516.51	189.58
516.68	285.55
516.85	269.16
517.03	184.90
517.20	283.20
517.37	208.31
517.54	297.25
517.72	212.99
517.89	224.69
518.06	203.63
518.24	264.48
518.41	257.46
518.58	299.59
518.75	222.35
518.93	205.97
519.10	215.33
519.27	198.95
519.45	241.08
519.62	236.39
519.79	250.44
519.96	245.76
520.14	262.14
520.31	229.37
520.48	290.23
520.65	271.50
520.83	255.12
521.00	255.12
521.17	229.37
521.34	173.20
521.52	276.18
521.69	250.44
521.86	196.60
522.03	292.57
522.20	241.08
522.38	299.59
522.55	236.39
522.72	229.37
522.89	229.37
523.07	276.18
523.24	255.12
523.41	325.33
523.58	320.65
523.75	255.12
523.92	243.42
524.10	299.59
524.27	231.71
524.44	271.50
524.61	255.12
524.78	276.18
524.96	287.89
525.13	311.29
525.30	248.10
525.47	285.55
525.64	308.95
525.81	290.23
525.98	285.55
526.16	262.14
526.33	203.63
526.50	243.42
526.67	322.99
526.84	266.82
527.01	311.29
527.18	227.03
527.36	259.80
527.53	290.23
527.70	294.91
527.87	224.69
528.04	264.48
528.21	215.33
528.38	250.44
528.55	231.71
528.72	245.76
528.89	315.97
529.07	238.73
529.24	315.97
529.41	299.59
529.58	313.63
529.75	234.05
529.92	266.82
530.09	365.12
530.26	278.52
530.43	229.37
530.60	271.50
530.77	217.67
530.94	259.80
531.11	262.14
531.28	264.48
531.46	280.86
531.63	245.76
531.80	273.84
531.97	301.93
532.14	250.44
532.31	299.59
532.48	220.01
532.65	259.80
532.82	311.29
532.99	358.10
533.16	341.72
533.33	297.25
533.50	306.61
533.67	280.86
533.84	227.03
534.01	243.42
534.18	313.63
534.35	257.46
534.52	283.20
534.69	344.06
534.86	376.83
535.03	339.38
535.20	273.84
535.37	287.89
535.54	262.14
535.71	308.95
535.88	313.63
536.05	322.99
536.22	325.33
536.38	311.29
536.55	334.70
536.72	409.59
536.89	358.10
537.06	358.10
537.23	430.66
537.40	407.25
537.57	437.68
537.74	447.04
537.91	470.45
538.08	447.04
538.25	482.15
538.42	458.74
538.59	444.70
538.75	514.92
538.92	461.09
539.09	517.26
539.26	507.90
539.43	519.60
539.60	624.92
539.77	629.60
539.94	713.86
540.11	767.70
540.28	741.95
540.44	833.23
540.61	926.85
540.78	945.58
540.95	1137.50
541.12	1207.72
541.29	1299.00
541.46	1394.96
541.62	1432.41
541.79	1336.45
541.96	1376.24
542.13	1455.81
542.30	1366.87
542.47	1233.46
542.63	1196.01
542.80	1174.95
542.97	1203.04
543.14	1118.78
543.31	1252.19
543.48	1217.08
543.64	1102.39
543.81	1196.01
543.98	1231.12
544.15	1184.31
544.32	1165.59
544.48	1217.08
544.65	1074.31
544.82	1186.65
544.99	1083.67
545.16	1153.88
545.32	1210.06
545.49	1788.17
545.66	2787.58
545.83	3550.59
546.00	3080.14
546.16	2216.49
546.33	1659.44
546.50	1273.25
546.67	1043.88
546.83	973.66
547.00	873.02
547.17	915.15
547.34	844.93
547.50	800.46
547.67	765.36
547.84	793.44
548.00	917.49
548.17	763.01
548.34	739.61
548.51	791.10
548.67	718.54
548.84	753.65
549.01	631.94
549.18	622.58
549.34	699.82
549.51	627.26
549.68	589.82
549.84	596.84
550.01	575.77
550.18	737.27
550.34	585.13
550.51	561.73
550.68	596.84
550.84	454.06
551.01	510.24
551.18	526.62
551.34	519.60
551.51	500.87
551.68	503.22
551.84	484.49
552.01	451.72
552.18	400.23
552.34	498.53
552.51	423.64
552.68	500.87
552.84	505.56
553.01	428.32
553.18	414.27
553.34	393.21
553.51	454.06
553.67	365.12
553.84	418.96
554.01	393.21
554.17	334.70
554.34	325.33
554.51	365.12
554.67	386.19
554.84	358.10
555.00	365.12
555.17	257.46
555.33	252.78
555.50	257.46
555.67	292.57
555.83	252.78
556.00	280.86
556.16	458.74
556.33	355.76
556.50	346.40
556.66	294.91
556.83	280.86
556.99	358.10
557.16	292.57
557.32	273.84
557.49	231.71
557.65	344.06
557.82	344.06
557.98	227.03
558.15	306.61
558.32	285.55
558.48	189.58
558.65	259.80
558.81	290.23
558.98	271.50
559.14	266.82
559.31	341.72
559.47	313.63
559.64	262.14
559.80	299.59
559.97	285.55
560.13	236.39
560.30	259.80
560.46	266.82
560.63	292.57
560.79	348.74
560.96	290.23
561.12	173.20
561.29	238.73
561.45	259.80
561.61	245.76
561.78	348.74
561.94	266.82
562.11	257.46
562.27	248.10
562.44	266.82
562.60	341.72
562.77	196.60
562.93	311.29
563.10	273.84
563.26	243.42
563.42	283.20
563.59	330.02
563.75	257.46
563.92	294.91
564.08	290.23
564.24	322.99
564.41	255.12
564.57	191.92
564.74	241.08
564.90	339.38
565.07	276.18
565.23	292.57
565.39	257.46
565.56	236.39
565.72	297.25
565.88	301.93
566.05	224.69
566.21	262.14
566.38	297.25
566.54	238.73
566.70	313.63
566.87	236.39
567.03	257.46
567.19	264.48
567.36	222.35
567.52	255.12
567.68	306.61
567.85	210.65
568.01	203.63
568.17	308.95
568.34	276.18
568.50	245.76
568.66	241.08
568.83	306.61
568.99	159.16
569.15	266.82
569.32	250.44
569.48	241.08
569.64	238.73
569.81	236.39
569.97	229.37
570.13	308.95
570.30	229.37
570.46	269.16
570.62	248.10
570.78	184.90
570.95	238.73
571.11	290.23
571.27	271.50
571.43	217.67
571.60	264.48
571.76	236.39
571.92	236.39
572.09	231.71
572.25	170.86
572.41	248.10
572.57	241.08
572.74	245.76
572.90	215.33
573.06	278.52
573.22	304.27
573.38	229.37
573.55	271.50
573.71	308.95
573.87	231.71
574.03	217.67
574.20	220.01
574.36	330.02
574.52	315.97
574.68	229.37
574.84	273.84
575.01	138.09
575.17	269.16
575.33	278.52
575.49	257.46
575.65	250.44
575.82	257.46
575.98	358.10
576.14	351.08
576.30	320.65
576.46	554.71
576.62	699.82
576.79	919.83
576.95	662.37
577.11	486.83
577.27	437.68
577.43	369.80
577.59	372.15
577.75	292.57
577.92	292.57
578.08	264.48
578.24	287.89
578.40	348.74
578.56	528.96
578.72	744.29
578.88	821.53
579.04	713.86
579.21	538.32
579.37	531.30
579.53	341.72
579.69	475.13
579.85	449.38
580.01	601.52
580.17	449.38
580.33	423.64
580.49	379.17
580.65	379.17
580.82	379.17
580.98	315.97
581.14	367.46
581.30	332.36
581.46	362.78
581.62	433.00
581.78	386.19
581.94	393.21
582.10	435.34
582.26	472.79
582.42	418.96
582.58	400.23
582.74	409.59
582.90	519.60
583.06	510.24
583.22	416.62
583.38	503.22
583.54	468.11
583.70	470.45
583.86	535.98
584.02	461.09
584.18	510.24
584.34	458.74
584.50	447.04
584.66	433.00
584.82	425.98
584.98	440.02
585.14	421.30
585.30	468.11
585.46	491.51
585.62	458.74
585.78	454.06
585.94	400.23
586.10	456.40
586.26	369.80
586.42	458.74
586.58	550.03
586.74	575.77
586.90	631.94
587.06	702.16
587.22	702.16
587.38	725.57
587.54	477.47
587.70	599.18
587.86	470.45
588.02	468.11
588.18	458.74
588.34	425.98
588.49	313.63
588.65	313.63
588.81	292.57
588.97	292.57
589.13	330.02
589.29	360.44
589.45	346.40
589.61	400.23
589.77	339.38
589.93	299.59
590.08	369.80
590.24	348.74
590.40	280.86
590.56	374.49
590.72	330.02
590.88	360.44
591.04	299.59
591.20	379.17
591.35	442.36
591.51	433.00
591.67	372.15
591.83	442.36
591.99	451.72
592.15	479.81
592.31	404.91
592.46	461.09
592.62	437.68
592.78	454.06
592.94	498.53
593.10	538.32
593.26	540.66
593.41	493.85
593.57	451.72
593.73	493.85
593.89	458.74
594.05	383.85
594.20	355.76
594.36	332.36
594.52	353.42
594.68	362.78
594.84	397.89
594.99	358.10
595.15	346.40
595.31	259.80
595.47	325.33
595.62	369.80
595.78	322.99
595.94	318.31
596.10	320.65
596.25	243.42
596.41	325.33
596.57	269.16
596.73	259.80
596.88	306.61
597.04	332.36
597.20	404.91
597.36	308.95
597.51	358.10
597.67	304.27
597.83	374.49
597.99	355.76
598.14	311.29
598.30	362.78
598.46	388.53
598.61	402.57
598.77	390.87
598.93	299.59
599.09	381.51
599.24	428.32
599.40	416.62
599.56	437.68
599.71	294.91
599.87	369.80
600.03	395.55
600.18	297.25
600.34	437.68
600.50	402.57
600.65	269.16
600.81	418.96
600.97	299.59
601.12	294.91
601.28	388.53
601.44	264.48
601.59	227.03
601.75	301.93
601.91	271.50
602.06	287.89
602.22	325.33
602.37	322.99
602.53	266.82
602.69	278.52
602.84	339.38
603.00	325.33
603.16	276.18
603.31	341.72
603.47	334.70
603.62	290.23
603.78	374.49
603.94	292.57
604.09	229.37
604.25	304.27
604.40	313.63
604.56	318.31
604.71	376.83
604.87	308.95
605.03	283.20
605.18	327.68
605.34	353.42
605.49	276.18
605.65	297.25
605.80	243.42
605.96	304.27
606.12	379.17
606.27	388.53
606.43	283.20
606.58	367.46
606.74	327.68
606.89	264.48
607.05	386.19
607.20	381.51
607.36	383.85
607.51	332.36
607.67	341.72
607.82	334.70
607.98	404.91
608.13	414.27
608.29	397.89
608.44	489.17
608.60	461.09
608.75	500.87
608.91	498.53
609.06	540.66
609.22	596.84
609.37	624.92
609.53	585.13
609.68	732.59
609.84	826.21
609.99	901.11
610.15	1078.99
610.30	1303.68
610.46	1519.01
610.61	1919.24
610.76	2342.88
610.92	2932.69
611.07	3206.53
611.23	3176.11
611.38	3038.02
611.54	2640.12
611.69	2338.20
611.84	2031.58
612.00	1633.69
612.15	1397.30
612.31	1343.47
612.46	1151.54
612.62	1107.07
612.77	1074.31
612.92	1027.50
613.08	964.30
613.23	1034.52
613.39	805.14
613.54	905.79
613.69	950.26
613.85	887.06
614.00	875.36
614.15	842.59
614.31	837.91
614.46	894.08
614.62	887.06
614.77	849.61
614.92	683.44
615.08	660.03
615.23	734.93
615.38	568.75
615.54	585.13
615.69	606.20
615.84	524.28
616.00	559.39
616.15	475.13
616.30	477.47
616.46	449.38
616.61	404.91
616.76	486.83
616.92	374.49
617.07	339.38
617.22	360.44
617.37	320.65
617.53	372.15
617.68	348.74
617.83	362.78
617.99	407.25
618.14	388.53
618.29	430.66
618.45	381.51
618.60	346.40
618.75	390.87
618.90	330.02
619.06	386.19
619.21	390.87
619.36	301.93
619.51	344.06
619.67	374.49
619.82	301.93
619.97	372.15
620.12	400.23
620.28	369.80
620.43	369.80
620.58	430.66
620.73	397.89
620.89	400.23
621.04	411.93
621.19	418.96
621.34	322.99
621.49	311.29
621.65	416.62
621.80	362.78
621.95	330.02
622.10	337.04
622.25	325.33
622.41	376.83
622.56	358.10
622.71	322.99
622.86	383.85
623.01	400.23
623.16	360.44
623.32	334.70
623.47	451.72
623.62	297.25
623.77	456.40
623.92	346.40
624.07	386.19
624.23	334.70
624.38	346.40
624.53	395.55
624.68	470.45
624.83	383.85
624.98	383.85
625.13	372.15
625.29	367.46
625.44	341.72
625.59	409.59
625.74	400.23
625.89	416.62
626.04	330.02
626.19	315.97
626.34	348.74
626.49	414.27
626.65	374.49
626.80	327.68
626.95	388.53
627.10	341.72
627.25	308.95
627.40	395.55
627.55	325.33
627.70	313.63
627.85	353.42
628.00	327.68
628.15	351.08
628.30	402.57
628.45	414.27
628.60	390.87
628.76	297.25
628.91	257.46
629.06	367.46
629.21	351.08
629.36	297.25
629.51	351.08
629.66	393.21
629.81	360.44
629.96	386.19
630.11	411.93
630.26	451.72
630.41	477.47
630.56	517.26
630.71	479.81
630.86	489.17
631.01	557.05
631.16	491.51
631.31	496.19
631.46	465.77
631.61	418.96
631.76	372.15
631.91	313.63
632.06	191.92
632.21	315.97
632.36	306.61
632.51	222.35
632.66	227.03
632.81	271.50
632.96	252.78
633.10	203.63
633.25	236.39
633.40	271.50
633.55	229.37
633.70	280.86
633.85	320.65
634.00	220.01
634.15	227.03
634.30	205.97
634.45	234.05
634.60	194.26
634.75	248.10
634.90	119.37
635.05	271.50
635.19	196.60
635.34	154.48
635.49	182.56
635.64	184.90
635.79	229.37
635.94	255.12
636.09	227.03
636.24	175.54
636.39	229.37
636.53	217.67
636.68	196.60
636.83	215.33
636.98	217.67
637.13	238.73
637.28	203.63
637.43	215.33
637.57	285.55
637.72	243.42
637.87	252.78
638.02	205.97
638.17	212.99
638.32	175.54
638.46	266.82
638.61	266.82
638.76	184.90
638.91	182.56
639.06	168.52
639.20	273.84
639.35	196.60
639.50	217.67
639.65	208.31
639.80	154.48
639.94	184.90
640.09	222.35
640.24	217.67
640.39	220.01
640.54	238.73
640.68	217.67
640.83	224.69
640.98	163.84
641.13	168.52
641.27	194.26
641.42	175.54
641.57	184.90
641.72	212.99
641.86	210.65
642.01	208.31
642.16	292.57
642.31	180.22
642.45	252.78
642.60	341.72
642.75	175.54
642.90	203.63
643.04	170.86
643.19	196.60
643.34	175.54
643.48	205.97
643.63	205.97
643.78	203.63
643.93	227.03
644.07	184.90
644.22	262.14
644.37	196.60
644.51	217.67
644.66	189.58
644.81	163.84
644.95	222.35
645.10	227.03
645.25	156.82
645.39	220.01
645.54	184.90
645.69	170.86
645.83	198.95
645.98	271.50
646.13	220.01
646.27	210.65
646.42	152.13
646.57	217.67
646.71	119.37
646.86	126.39
647.00	117.03
647.15	203.63
647.30	184.90
647.44	212.99
647.59	156.82
647.74	133.41
647.88	203.63
648.03	212.99
648.17	217.67
648.32	177.88
648.47	294.91
648.61	273.84
648.76	231.71
648.90	229.37
649.05	217.67
649.20	191.92
649.34	250.44
649.49	187.24
649.63	259.80
649.78	241.08
649.92	182.56
650.07	245.76
650.21	257.46
650.36	276.18
650.51	198.95
650.65	238.73
650.80	227.03
650.94	187.24
651.09	266.82
651.23	180.22
651.38	161.50
651.52	215.33
651.67	222.35
651.81	159.16
651.96	245.76
652.10	208.31
652.25	189.58
652.39	215.33
652.54	259.80
652.68	243.42
652.83	255.12
652.97	222.35
653.12	212.99
653.26	196.60
653.41	236.39
653.55	187.24
653.70	229.37
653.84	259.80
653.99	252.78
654.13	208.31
654.27	262.14
654.42	180.22
654.56	147.45
654.71	271.50
654.85	147.45
655.00	191.92
655.14	208.31
655.29	184.90
655.43	234.05
655.57	210.65
655.72	187.24
655.86	166.18
656.01	201.29
656.15	124.05
656.30	248.10
656.44	191.92
656.58	154.48
656.73	168.52
656.87	184.90
657.01	156.82
657.16	201.29
657.30	238.73
657.45	196.60
657.59	152.13
657.73	91.28
657.88	163.84
658.02	292.57
658.16	154.48
658.31	208.31
658.45	152.13
658.60	131.07
658.74	210.65
658.88	212.99
659.03	180.22
659.17	140.43
659.31	280.86
659.46	276.18
659.60	166.18
659.74	161.50
659.89	184.90
660.03	168.52
660.17	175.54
660.32	166.18
660.46	191.92
660.60	166.18
660.74	173.20
660.89	191.92
661.03	238.73
661.17	142.77
661.32	170.86
661.46	229.37
661.60	145.11
661.74	161.50
661.89	243.42
662.03	191.92
662.17	227.03
662.31	238.73
662.46	227.03
662.60	205.97
662.74	269.16
662.88	231.71
663.03	156.82
663.17	208.31
663.31	248.10
663.45	149.79
663.60	184.90
663.74	121.71
663.88	229.37
664.02	121.71
664.17	180.22
664.31	196.60
664.45	194.26
664.59	194.26
664.73	173.20
664.88	241.08
665.02	142.77
665.16	205.97
665.30	243.42
665.44	201.29
665.59	236.39
665.73	243.42
665.87	168.52
666.01	131.07
666.15	201.29
666.29	177.88
666.44	257.46
666.58	220.01
666.72	212.99
666.86	117.03
667.00	229.37
667.14	224.69
667.28	175.54
667.43	102.98
667.57	259.80
667.71	210.65
667.85	196.60
667.99	163.84
668.13	131.07
668.27	180.22
668.41	191.92
668.56	138.09
668.70	231.71
668.84	147.45
668.98	170.86
669.12	229.37
669.26	194.26
669.40	198.95
669.54	196.60
669.68	147.45
669.82	184.90
669.96	184.90
670.10	182.56
670.25	154.48
670.39	177.88
670.53	152.13
670.67	161.50
670.81	175.54
670.95	201.29
671.09	156.82
671.23	290.23
671.37	229.37
671.51	114.69
671.65	198.95
671.79	149.79
671.93	278.52
672.07	205.97
672.21	168.52
672.35	98.30
672.49	191.92
672.63	173.20
672.77	210.65
672.91	250.44
673.05	175.54
673.19	163.84
673.33	166.18
673.47	276.18
673.61	215.33
673.75	173.20
673.89	208.31
674.03	236.39
674.17	191.92
674.31	173.20
674.45	210.65
674.59	112.35
674.73	163.84
674.87	152.13
675.01	191.92
675.15	135.75
675.29	238.73
675.43	180.22
675.56	180.22
675.70	163.84
675.84	189.58
675.98	133.41
676.12	133.41
676.26	138.09
676.40	194.26
676.54	210.65
676.68	175.54
676.82	170.86
676.96	145.11
677.10	215.33
677.23	114.69
677.37	187.24
677.51	124.05
677.65	243.42
677.79	161.50
677.93	234.05
678.07	128.73
678.21	154.48
678.34	234.05
678.48	159.16
678.62	201.29
678.76	149.79
678.90	166.18
679.04	138.09
679.18	208.31
679.31	98.30
679.45	79.58
679.59	126.39
679.73	173.20
679.87	131.07
680.00	212.99
680.14	86.60
680.28	117.03
680.42	152.13
680.56	184.90
680.70	159.16
680.83	140.43
680.97	100.64
681.11	98.30
681.25	252.78
681.39	100.64
681.52	187.24
681.66	177.88
681.80	147.45
681.94	163.84
682.07	65.54
682.21	161.50
682.35	126.39
682.49	138.09
682.62	191.92
682.76	201.29
682.90	152.13
683.04	154.48
683.17	180.22
683.31	166.18
683.45	196.60
683.59	105.32
683.72	149.79
683.86	147.45
684.00	128.73
684.13	201.29
684.27	194.26
684.41	131.07
684.55	166.18
684.68	201.29
684.82	149.79
684.96	121.71
685.09	182.56
685.23	163.84
685.37	182.56
685.50	133.41
685.64	175.54
685.78	112.35
685.91	184.90
686.05	182.56
686.19	196.60
686.32	149.79
686.46	117.03
686.60	135.75
686.73	222.35
686.87	126.39
687.01	163.84
687.14	140.43
687.28	184.90
687.42	159.16
687.55	238.73
687.69	184.90
687.82	168.52
687.96	131.07
688.10	177.88
688.23	119.37
688.37	152.13
688.50	182.56
688.64	184.90
688.78	187.24
688.91	140.43
689.05	149.79
689.18	46.81
689.32	131.07
689.46	140.43
689.59	166.18
689.73	156.82
689.86	131.07
690.00	208.31
690.13	187.24
690.27	128.73
690.41	126.39
690.54	161.50
690.68	166.18
690.81	102.98
690.95	180.22
691.08	95.96
691.22	86.60
691.35	77.24
691.49	121.71
691.62	159.16
691.76	152.13
691.89	154.48
692.03	114.69
692.16	102.98
692.30	131.07
692.43	159.16
692.57	241.08
692.70	133.41
692.84	187.24
692.97	107.66
693.11	102.98
693.24	105.32
693.38	86.60
693.51	173.20
693.65	198.95
693.78	147.45
693.92	161.50
694.05	145.11
694.19	133.41
694.32	152.13
694.45	124.05
694.59	149.79
694.72	95.96
694.86	37.45
694.99	170.86
695.13	105.32
695.26	91.28
695.39	126.39
695.53	250.44
695.66	142.77
695.80	170.86
695.93	140.43
696.07	187.24
696.20	166.18
696.33	147.45
696.47	145.11
696.60	100.64
696.73	175.54
696.87	98.30
697.00	175.54
697.14	133.41
697.27	163.84
697.40	191.92
697.54	70.22
697.67	177.88
697.80	187.24
697.94	110.01
698.07	128.73
698.21	28.09
698.34	175.54
698.47	112.35
698.61	177.88
698.74	121.71
698.87	163.84
699.01	128.73
699.14	124.05
699.27	128.73
699.40	215.33
699.54	175.54
699.67	126.39
699.80	53.83
699.94	121.71
700.07	91.28
700.20	79.58
700.34	147.45
700.47	135.75
700.60	91.28
700.73	112.35
700.87	205.97
701.00	51.49
701.13	154.48
701.26	168.52
701.40	135.75
701.53	105.32
701.66	95.96
701.79	119.37
701.93	79.58
702.06	177.88
702.19	154.48
702.32	152.13
702.46	131.07
702.59	105.32
702.72	95.96
702.85	138.09
702.99	107.66
703.12	145.11
703.25	142.77
703.38	156.82
703.51	208.31
703.65	222.35
703.78	126.39
703.91	91.28
704.04	114.69
704.17	173.20
704.31	93.62
704.44	91.28
704.57	163.84
704.70	154.48
704.83	147.45
704.96	112.35
705.10	98.30
705.23	88.94
>>>>>End Processed Spectral Data<<<<<
