SpectraSuite Data File
++++++++++++++++++++++++++++++++++++
Date: Fri Oct 04 11:41:42 GMT-05:00 2013
User: price-jones
Dark Spectrum Present: No
Reference Spectrum Present: No
Number of Sampled Component Spectra: 1
Spectrometers: USB2+H05261
Integration Time (usec): 100000 (USB2+H05261)
Spectra Averaged: 1 (USB2+H05261)
Boxcar Smoothing: 0 (USB2+H05261)
Correct for Electrical Dark: No (USB2+H05261)
Strobe/Lamp Enabled: No (USB2+H05261)
Correct for Detector Non-linearity: No (USB2+H05261)
Correct for Stray Light: No (USB2+H05261)
Number of Pixels in Processed Spectrum: 2048
>>>>>Begin Processed Spectral Data<<<<<
365.73	51.49
365.92	51.49
366.12	51.49
366.32	0.00
366.52	0.00
366.72	0.00
366.91	0.00
367.11	0.00
367.31	0.00
367.51	0.00
367.70	0.00
367.90	0.00
368.10	0.00
368.30	0.00
368.49	0.00
368.69	0.00
368.89	0.00
369.09	0.00
369.28	0.00
369.48	0.00
369.68	0.00
369.87	0.00
370.07	0.00
370.27	60.85
370.47	28.09
370.66	23.41
370.86	56.17
371.06	70.22
371.25	128.73
371.45	0.00
371.65	58.51
371.84	32.77
372.04	63.19
372.24	100.64
372.44	79.58
372.63	95.96
372.83	177.88
373.03	119.37
373.22	72.56
373.42	53.83
373.62	128.73
373.81	131.07
374.01	156.82
374.21	128.73
374.40	149.79
374.60	114.69
374.79	147.45
374.99	119.37
375.19	86.60
375.38	215.33
375.58	152.13
375.78	84.26
375.97	138.09
376.17	175.54
376.37	107.66
376.56	88.94
376.76	161.50
376.95	131.07
377.15	173.20
377.35	128.73
377.54	95.96
377.74	53.83
377.93	35.11
378.13	114.69
378.33	138.09
378.52	166.18
378.72	142.77
378.91	133.41
379.11	67.88
379.31	102.98
379.50	37.45
379.70	154.48
379.89	184.90
380.09	114.69
380.28	32.77
380.48	67.88
380.68	170.86
380.87	189.58
381.07	67.88
381.26	173.20
381.46	196.60
381.65	93.62
381.85	91.28
382.04	95.96
382.24	149.79
382.43	110.01
382.63	74.90
382.83	142.77
383.02	126.39
383.22	128.73
383.41	49.15
383.61	142.77
383.80	126.39
384.00	147.45
384.19	114.69
384.39	112.35
384.58	35.11
384.78	138.09
384.97	119.37
385.17	58.51
385.36	84.26
385.56	110.01
385.75	142.77
385.95	128.73
386.14	121.71
386.34	156.82
386.53	107.66
386.72	74.90
386.92	145.11
387.11	201.29
387.31	88.94
387.50	88.94
387.70	147.45
387.89	98.30
388.09	100.64
388.28	114.69
388.48	72.56
388.67	67.88
388.86	95.96
389.06	166.18
389.25	152.13
389.45	4.68
389.64	180.22
389.84	243.42
390.03	142.77
390.22	124.05
390.42	110.01
390.61	86.60
390.81	154.48
391.00	117.03
391.19	121.71
391.39	93.62
391.58	138.09
391.78	156.82
391.97	133.41
392.16	51.49
392.36	182.56
392.55	252.78
392.75	93.62
392.94	117.03
393.13	114.69
393.33	79.58
393.52	65.54
393.71	81.92
393.91	173.20
394.10	95.96
394.29	84.26
394.49	124.05
394.68	117.03
394.88	142.77
395.07	124.05
395.26	119.37
395.46	128.73
395.65	173.20
395.84	166.18
396.04	168.52
396.23	112.35
396.42	142.77
396.62	107.66
396.81	138.09
397.00	133.41
397.19	91.28
397.39	112.35
397.58	168.52
397.77	142.77
397.97	102.98
398.16	124.05
398.35	177.88
398.55	145.11
398.74	124.05
398.93	173.20
399.12	145.11
399.32	86.60
399.51	145.11
399.70	189.58
399.90	168.52
400.09	100.64
400.28	145.11
400.47	152.13
400.67	119.37
400.86	222.35
401.05	208.31
401.24	149.79
401.44	105.32
401.63	124.05
401.82	140.43
402.01	182.56
402.21	156.82
402.40	173.20
402.59	198.95
402.78	114.69
402.97	210.65
403.17	241.08
403.36	238.73
403.55	351.08
403.74	629.60
403.93	1834.98
404.13	4573.41
404.32	5790.49
404.51	4835.55
404.70	2895.24
404.89	1167.93
405.09	449.38
405.28	301.93
405.47	198.95
405.66	210.65
405.85	196.60
406.05	264.48
406.24	234.05
406.43	161.50
406.62	208.31
406.81	212.99
407.00	262.14
407.20	645.99
407.39	788.76
407.58	716.20
407.77	557.05
407.96	348.74
408.15	201.29
408.34	175.54
408.54	264.48
408.73	154.48
408.92	152.13
409.11	168.52
409.30	180.22
409.49	152.13
409.68	117.03
409.87	198.95
410.07	208.31
410.26	196.60
410.45	184.90
410.64	149.79
410.83	177.88
411.02	124.05
411.21	255.12
411.40	180.22
411.59	180.22
411.78	140.43
411.98	166.18
412.17	182.56
412.36	173.20
412.55	98.30
412.74	140.43
412.93	315.97
413.12	194.26
413.31	212.99
413.50	196.60
413.69	234.05
413.88	255.12
414.07	245.76
414.26	245.76
414.45	215.33
414.64	283.20
414.83	201.29
415.02	273.84
415.22	205.97
415.41	243.42
415.60	276.18
415.79	248.10
415.98	266.82
416.17	138.09
416.36	208.31
416.55	217.67
416.74	252.78
416.93	241.08
417.12	252.78
417.31	290.23
417.50	280.86
417.69	339.38
417.88	210.65
418.07	212.99
418.26	266.82
418.45	250.44
418.64	330.02
418.83	287.89
419.02	262.14
419.21	322.99
419.39	276.18
419.58	318.31
419.77	266.82
419.96	196.60
420.15	259.80
420.34	234.05
420.53	292.57
420.72	234.05
420.91	210.65
421.10	224.69
421.29	224.69
421.48	212.99
421.67	283.20
421.86	285.55
422.05	285.55
422.24	222.35
422.43	234.05
422.61	248.10
422.80	201.29
422.99	266.82
423.18	210.65
423.37	285.55
423.56	238.73
423.75	262.14
423.94	304.27
424.13	236.39
424.32	297.25
424.50	245.76
424.69	252.78
424.88	299.59
425.07	273.84
425.26	294.91
425.45	285.55
425.64	243.42
425.83	259.80
426.01	330.02
426.20	315.97
426.39	278.52
426.58	248.10
426.77	283.20
426.96	234.05
427.15	315.97
427.33	259.80
427.52	332.36
427.71	334.70
427.90	276.18
428.09	278.52
428.28	241.08
428.46	283.20
428.65	290.23
428.84	313.63
429.03	339.38
429.22	259.80
429.40	252.78
429.59	341.72
429.78	304.27
429.97	297.25
430.16	217.67
430.34	334.70
430.53	271.50
430.72	322.99
430.91	330.02
431.10	348.74
431.28	325.33
431.47	334.70
431.66	306.61
431.85	318.31
432.03	355.76
432.22	346.40
432.41	402.57
432.60	484.49
432.79	372.15
432.97	397.89
433.16	451.72
433.35	468.11
433.54	571.09
433.72	559.39
433.91	543.00
434.10	641.31
434.28	866.00
434.47	891.74
434.66	807.48
434.85	1083.67
435.03	3035.67
435.22	11693.32
435.41	25628.87
435.59	25085.86
435.78	16175.44
435.97	8002.29
436.16	3213.56
436.34	1146.86
436.53	723.23
436.72	592.16
436.90	500.87
437.09	456.40
437.28	425.98
437.46	519.60
437.65	379.17
437.84	482.15
438.02	379.17
438.21	435.34
438.40	451.72
438.58	353.42
438.77	440.02
438.96	397.89
439.14	437.68
439.33	440.02
439.52	402.57
439.70	348.74
439.89	425.98
440.08	330.02
440.26	437.68
440.45	461.09
440.63	390.87
440.82	484.49
441.01	369.80
441.19	365.12
441.38	325.33
441.57	465.77
441.75	461.09
441.94	470.45
442.12	435.34
442.31	477.47
442.50	440.02
442.68	404.91
442.87	407.25
443.05	337.04
443.24	472.79
443.43	491.51
443.61	409.59
443.80	496.19
443.98	461.09
444.17	463.43
444.35	388.53
444.54	430.66
444.73	433.00
444.91	386.19
445.10	369.80
445.28	386.19
445.47	418.96
445.65	376.83
445.84	379.17
446.02	400.23
446.21	393.21
446.39	334.70
446.58	400.23
446.77	374.49
446.95	482.15
447.14	365.12
447.32	397.89
447.51	416.62
447.69	496.19
447.88	369.80
448.06	418.96
448.25	355.76
448.43	444.70
448.62	421.30
448.80	330.02
448.99	365.12
449.17	376.83
449.36	484.49
449.54	355.76
449.73	414.27
449.91	369.80
450.10	407.25
450.28	442.36
450.46	428.32
450.65	369.80
450.83	297.25
451.02	400.23
451.20	327.68
451.39	297.25
451.57	451.72
451.76	313.63
451.94	416.62
452.13	348.74
452.31	468.11
452.49	449.38
452.68	383.85
452.86	407.25
453.05	451.72
453.23	330.02
453.42	367.46
453.60	320.65
453.78	437.68
453.97	360.44
454.15	315.97
454.34	386.19
454.52	334.70
454.70	414.27
454.89	360.44
455.07	360.44
455.26	330.02
455.44	458.74
455.62	465.77
455.81	414.27
455.99	437.68
456.17	376.83
456.36	374.49
456.54	388.53
456.73	472.79
456.91	440.02
457.09	390.87
457.28	461.09
457.46	444.70
457.64	393.21
457.83	430.66
458.01	369.80
458.19	463.43
458.38	353.42
458.56	348.74
458.74	322.99
458.93	430.66
459.11	404.91
459.29	383.85
459.48	409.59
459.66	484.49
459.84	402.57
460.03	557.05
460.21	454.06
460.39	402.57
460.57	353.42
460.76	395.55
460.94	425.98
461.12	440.02
461.31	395.55
461.49	393.21
461.67	362.78
461.85	407.25
462.04	315.97
462.22	503.22
462.40	276.18
462.59	447.04
462.77	348.74
462.95	388.53
463.13	454.06
463.32	381.51
463.50	390.87
463.68	341.72
463.86	390.87
464.05	358.10
464.23	421.30
464.41	341.72
464.59	341.72
464.78	353.42
464.96	376.83
465.14	449.38
465.32	390.87
465.50	395.55
465.69	379.17
465.87	348.74
466.05	306.61
466.23	397.89
466.41	451.72
466.60	449.38
466.78	365.12
466.96	507.90
467.14	470.45
467.32	472.79
467.51	325.33
467.69	369.80
467.87	390.87
468.05	372.15
468.23	428.32
468.41	409.59
468.60	418.96
468.78	374.49
468.96	337.04
469.14	337.04
469.32	294.91
469.50	351.08
469.69	346.40
469.87	498.53
470.05	369.80
470.23	395.55
470.41	297.25
470.59	322.99
470.77	322.99
470.95	369.80
471.14	395.55
471.32	358.10
471.50	449.38
471.68	454.06
471.86	444.70
472.04	374.49
472.22	369.80
472.40	320.65
472.58	423.64
472.77	456.40
472.95	301.93
473.13	318.31
473.31	430.66
473.49	313.63
473.67	355.76
473.85	381.51
474.03	400.23
474.21	353.42
474.39	390.87
474.57	397.89
474.75	358.10
474.93	428.32
475.12	348.74
475.30	341.72
475.48	381.51
475.66	341.72
475.84	339.38
476.02	325.33
476.20	304.27
476.38	379.17
476.56	528.96
476.74	425.98
476.92	395.55
477.10	393.21
477.28	449.38
477.46	423.64
477.64	353.42
477.82	376.83
478.00	437.68
478.18	414.27
478.36	444.70
478.54	379.17
478.72	416.62
478.90	400.23
479.08	468.11
479.26	421.30
479.44	486.83
479.62	538.32
479.80	479.81
479.98	465.77
480.16	444.70
480.34	610.88
480.52	528.96
480.70	575.77
480.88	578.11
481.06	664.71
481.24	568.75
481.41	566.41
481.59	779.40
481.77	739.61
481.95	685.78
482.13	837.91
482.31	851.96
482.49	830.89
482.67	966.64
482.85	1050.90
483.03	1121.12
483.21	1263.89
483.39	1275.59
483.57	1252.19
483.74	1444.11
483.92	1390.28
484.10	1430.07
484.28	1666.46
484.46	1720.29
484.64	1764.76
484.82	1760.08
485.00	1935.62
485.18	2003.50
485.35	2155.63
485.53	2122.87
485.71	2424.80
485.89	2424.80
486.07	2455.22
486.25	2635.44
486.43	2511.39
486.61	2487.99
486.78	2574.59
486.96	2527.78
487.14	2555.86
487.32	2403.73
487.50	2424.80
487.68	2623.74
487.85	2495.01
488.03	2441.18
488.21	2366.28
488.39	2399.05
488.57	2298.41
488.75	2263.30
488.92	2485.65
489.10	2132.23
489.28	2038.61
489.46	2008.18
489.64	2001.16
489.81	2019.88
489.99	1968.39
490.17	1914.56
490.35	1980.09
490.53	1961.37
490.70	2033.93
490.88	1963.71
491.06	1963.71
491.24	2232.87
491.41	2153.29
491.59	1987.11
491.77	1912.22
491.95	1832.64
492.13	1783.49
492.30	1872.43
492.48	1724.97
492.66	1776.47
492.84	1785.83
493.01	1689.87
493.19	1579.86
493.37	1680.50
493.54	1621.99
493.72	1579.86
493.90	1481.56
494.08	1474.54
494.25	1638.38
494.43	1556.46
494.61	1486.24
494.79	1385.60
494.96	1516.67
495.14	1378.58
495.32	1348.15
495.49	1451.13
495.67	1371.55
495.85	1338.79
496.02	1308.36
496.20	1313.04
496.38	1313.04
496.55	1231.12
496.73	1196.01
496.91	1146.86
497.09	1170.27
497.26	1128.14
497.44	1226.44
497.62	1158.57
497.79	1097.71
497.97	1177.29
498.14	1109.41
498.32	1067.28
498.50	992.39
498.67	1046.22
498.85	1043.88
499.03	1027.50
499.20	936.21
499.38	908.13
499.56	957.28
499.73	961.96
499.91	884.72
500.08	812.17
500.26	828.55
500.44	851.96
500.61	858.98
500.79	781.74
500.97	802.80
501.14	744.29
501.32	709.18
501.49	786.42
501.67	732.59
501.84	744.29
502.02	636.63
502.20	725.57
502.37	674.07
502.55	641.31
502.72	578.11
502.90	641.31
503.07	594.50
503.25	500.87
503.43	538.32
503.60	524.28
503.78	507.90
503.95	521.94
504.13	425.98
504.30	512.58
504.48	535.98
504.65	517.26
504.83	454.06
505.01	505.56
505.18	552.37
505.36	489.17
505.53	528.96
505.71	440.02
505.88	411.93
506.06	468.11
506.23	327.68
506.41	393.21
506.58	418.96
506.76	430.66
506.93	383.85
507.11	496.19
507.28	479.81
507.46	428.32
507.63	397.89
507.81	409.59
507.98	507.90
508.16	472.79
508.33	444.70
508.50	339.38
508.68	388.53
508.85	463.43
509.03	505.56
509.20	468.11
509.38	456.40
509.55	484.49
509.73	517.26
509.90	423.64
510.08	451.72
510.25	411.93
510.42	367.46
510.60	477.47
510.77	360.44
510.95	435.34
511.12	369.80
511.30	451.72
511.47	407.25
511.64	463.43
511.82	454.06
511.99	376.83
512.17	372.15
512.34	444.70
512.51	435.34
512.69	433.00
512.86	395.55
513.04	374.49
513.21	390.87
513.38	407.25
513.56	435.34
513.73	388.53
513.90	355.76
514.08	318.31
514.25	369.80
514.43	381.51
514.60	311.29
514.77	344.06
514.95	355.76
515.12	416.62
515.29	367.46
515.47	334.70
515.64	313.63
515.81	325.33
515.99	376.83
516.16	376.83
516.33	402.57
516.51	402.57
516.68	372.15
516.85	348.74
517.03	365.12
517.20	390.87
517.37	367.46
517.54	418.96
517.72	285.55
517.89	344.06
518.06	407.25
518.24	365.12
518.41	456.40
518.58	400.23
518.75	311.29
518.93	313.63
519.10	360.44
519.27	390.87
519.45	330.02
519.62	402.57
519.79	351.08
519.96	280.86
520.14	334.70
520.31	381.51
520.48	332.36
520.65	327.68
520.83	353.42
521.00	386.19
521.17	381.51
521.34	388.53
521.52	292.57
521.69	325.33
521.86	358.10
522.03	285.55
522.20	355.76
522.38	308.95
522.55	287.89
522.72	313.63
522.89	337.04
523.07	348.74
523.24	348.74
523.41	365.12
523.58	311.29
523.75	301.93
523.92	301.93
524.10	285.55
524.27	348.74
524.44	395.55
524.61	355.76
524.78	294.91
524.96	266.82
525.13	379.17
525.30	351.08
525.47	423.64
525.64	435.34
525.81	341.72
525.98	243.42
526.16	351.08
526.33	341.72
526.50	339.38
526.67	355.76
526.84	344.06
527.01	379.17
527.18	465.77
527.36	479.81
527.53	500.87
527.70	461.09
527.87	442.36
528.04	447.04
528.21	461.09
528.38	421.30
528.55	451.72
528.72	418.96
528.89	421.30
529.07	353.42
529.24	435.34
529.41	500.87
529.58	402.57
529.75	418.96
529.92	470.45
530.09	505.56
530.26	538.32
530.43	528.96
530.60	418.96
530.77	479.81
530.94	435.34
531.11	477.47
531.28	510.24
531.46	585.13
531.63	538.32
531.80	526.62
531.97	634.29
532.14	702.16
532.31	809.83
532.48	980.68
532.65	961.96
532.82	1184.31
532.99	1303.68
533.16	1570.50
533.33	1441.77
533.50	1373.89
533.67	1142.18
533.84	1043.88
534.01	943.24
534.18	826.21
534.35	882.38
534.52	905.79
534.69	922.17
534.86	954.94
535.03	968.98
535.20	1032.18
535.37	1069.62
535.54	1067.28
535.71	1207.72
535.88	1291.98
536.05	1247.51
536.22	1490.92
536.38	1572.84
536.55	1757.74
536.72	1872.43
536.89	2026.90
537.06	2244.57
537.23	2593.31
537.40	2869.50
537.57	3019.29
537.74	3063.76
537.91	3251.00
538.08	3307.18
538.25	3368.03
538.42	3384.41
538.59	3489.74
538.75	3726.13
538.92	3772.94
539.09	4156.79
539.26	4580.43
539.43	5224.08
539.60	6003.47
539.77	6572.22
539.94	7424.18
540.11	8215.28
540.28	8872.97
540.44	9851.31
540.61	10979.45
540.78	12236.32
540.95	14789.85
541.12	17862.97
541.29	20060.73
541.46	21003.97
541.62	20545.22
541.79	19374.95
541.96	18515.98
542.13	16950.16
542.30	15768.19
542.47	14576.86
542.63	14300.67
542.80	13738.94
542.97	13547.02
543.14	13373.82
543.31	13425.31
543.48	13474.46
543.64	13671.07
543.81	13783.41
543.98	13984.70
544.15	13879.38
544.32	14207.05
544.48	14267.91
544.65	13853.63
544.82	13884.06
544.99	13717.88
545.16	13954.27
545.32	15089.43
545.49	25837.17
545.66	46660.92
545.83	53483.58
546.00	46873.91
546.16	32156.62
546.33	23374.93
546.50	17783.39
546.67	14277.27
546.83	12610.81
547.00	11892.26
547.17	11587.99
547.34	11005.20
547.50	10417.72
547.67	10045.58
547.84	9451.08
548.00	9376.19
548.17	9081.28
548.34	8655.30
548.51	8451.67
548.67	7927.39
548.84	7761.22
549.01	7295.45
549.18	6904.58
549.34	6590.95
549.51	6604.99
549.68	6319.45
549.84	5870.06
550.01	5593.88
550.18	5504.94
550.34	5172.58
550.51	4812.14
550.68	4943.21
550.84	4355.74
551.01	4217.65
551.18	4126.36
551.34	3920.40
551.51	3765.92
551.68	3513.14
551.84	3400.80
552.01	3222.92
552.18	3166.74
552.34	3129.30
552.51	2928.01
552.68	2661.19
552.84	2726.72
553.01	2665.87
553.18	2487.99
553.34	2366.28
553.51	2410.75
553.67	2200.10
553.84	2286.70
554.01	2059.67
554.17	1973.07
554.34	1858.39
554.51	1827.96
554.67	1586.88
554.84	1493.26
555.00	1483.90
555.17	1369.21
555.33	1404.32
555.50	1266.23
555.67	1252.19
555.83	1240.48
556.00	1116.44
556.16	1245.16
556.33	1135.16
556.50	976.00
556.66	976.00
556.83	961.96
556.99	924.51
557.16	889.40
557.32	802.80
557.49	1001.75
557.65	938.55
557.82	870.68
557.98	830.89
558.15	833.23
558.32	905.79
558.48	702.16
558.65	723.23
558.81	741.95
558.98	755.99
559.14	711.52
559.31	713.86
559.47	657.69
559.64	655.35
559.80	711.52
559.97	702.16
560.13	653.01
560.30	636.63
560.46	631.94
560.63	688.12
560.79	653.01
560.96	606.20
561.12	622.58
561.29	653.01
561.45	585.13
561.61	667.05
561.78	674.07
561.94	638.97
562.11	690.46
562.27	695.14
562.44	638.97
562.60	643.65
562.77	603.86
562.93	650.67
563.10	631.94
563.26	664.71
563.42	561.73
563.59	578.11
563.75	540.66
563.92	596.84
564.08	585.13
564.24	580.45
564.41	730.25
564.57	526.62
564.74	535.98
564.90	540.66
565.07	566.41
565.23	547.69
565.39	554.71
565.56	585.13
565.72	575.77
565.88	435.34
566.05	543.00
566.21	468.11
566.38	571.09
566.54	510.24
566.70	550.03
566.87	524.28
567.03	580.45
567.19	550.03
567.36	624.92
567.52	493.85
567.68	564.07
567.85	545.34
568.01	477.47
568.17	573.43
568.34	683.44
568.50	557.05
568.66	540.66
568.83	641.31
568.99	465.77
569.15	526.62
569.32	498.53
569.48	428.32
569.64	472.79
569.81	437.68
569.97	477.47
570.13	440.02
570.30	418.96
570.46	353.42
570.62	409.59
570.78	428.32
570.95	414.27
571.11	454.06
571.27	472.79
571.43	465.77
571.60	348.74
571.76	428.32
571.92	411.93
572.09	425.98
572.25	484.49
572.41	369.80
572.57	383.85
572.74	514.92
572.90	465.77
573.06	475.13
573.22	468.11
573.38	435.34
573.55	444.70
573.71	517.26
573.87	449.38
574.03	456.40
574.20	503.22
574.36	482.15
574.52	451.72
574.68	461.09
574.84	550.03
575.01	543.00
575.17	552.37
575.33	550.03
575.49	671.73
575.65	723.23
575.82	573.43
575.98	793.44
576.14	837.91
576.30	1708.59
576.46	5458.13
576.62	8863.61
576.79	9509.60
576.95	7023.95
577.11	4657.67
577.27	3253.34
577.43	2193.08
577.59	1561.14
577.75	1130.48
577.92	1100.05
578.08	1071.97
578.24	1158.57
578.40	1816.26
578.56	5118.75
578.72	8430.61
578.88	8992.34
579.04	6574.56
579.21	4463.40
579.37	3368.03
579.53	2693.96
579.69	2668.21
579.85	3141.00
580.01	3637.19
580.17	3393.78
580.33	2981.84
580.49	2572.25
580.65	2326.49
580.82	2080.74
580.98	1933.28
581.14	2069.03
581.30	2246.91
581.46	2244.57
581.62	2558.21
581.78	2715.02
581.94	2857.79
582.10	3096.53
582.26	3145.68
582.42	3265.05
582.58	3407.82
582.74	3592.72
582.90	3536.55
583.06	3468.67
583.22	3552.93
583.38	3482.72
583.54	3433.57
583.70	3578.68
583.86	3337.60
584.02	3351.65
584.18	3349.31
584.34	3342.28
584.50	3241.64
584.66	3173.77
584.82	3082.49
584.98	2967.80
585.14	3077.80
585.30	3005.25
585.46	2906.95
585.62	2888.22
585.78	2810.98
585.94	2909.29
586.10	3056.74
586.26	3204.19
586.42	3456.97
586.58	4266.80
586.74	5266.21
586.90	6321.79
587.06	6787.55
587.22	6717.34
587.38	5853.68
587.54	5203.01
587.70	4393.19
587.86	3756.56
588.02	3262.71
588.18	2944.39
588.34	2665.87
588.49	2324.15
588.65	2160.31
588.81	2193.08
588.97	2092.44
589.13	1923.92
589.29	2038.61
589.45	1942.64
589.61	1982.43
589.77	2026.90
589.93	1949.67
590.08	2064.35
590.24	2010.52
590.40	2244.57
590.56	2183.72
590.72	2275.00
590.88	2361.60
591.04	2527.78
591.20	2562.89
591.35	2686.94
591.51	2782.90
591.67	2810.98
591.83	2963.12
591.99	3251.00
592.15	3445.27
592.31	3770.60
592.46	4229.35
592.62	4587.45
592.78	4971.30
592.94	4847.25
593.10	4779.37
593.26	4557.02
593.41	4308.93
593.57	3655.92
593.73	3400.80
593.89	2946.73
594.05	2647.15
594.20	2340.54
594.36	2235.21
594.52	2040.95
594.68	1984.77
594.84	1975.41
594.99	1930.94
595.15	1900.52
595.31	1748.38
595.47	1837.32
595.62	1743.70
595.78	1830.30
595.94	1710.93
596.10	1923.92
596.25	1846.68
596.41	1834.98
596.57	1820.94
596.73	1696.89
596.88	1816.26
597.04	1671.14
597.20	1703.91
597.36	1849.02
597.51	1825.62
597.67	1937.96
597.83	1944.99
597.99	2270.32
598.14	2193.08
598.30	2464.58
598.46	2553.52
598.61	2684.59
598.77	2679.91
598.93	2960.78
599.09	2902.26
599.24	2832.05
599.40	2979.50
599.56	2869.50
599.71	2691.62
599.87	2527.78
600.03	2516.08
600.18	2239.89
600.34	2064.35
600.50	2101.80
600.65	1975.41
600.81	1846.68
600.97	1715.61
601.12	1652.42
601.28	1540.07
601.44	1568.16
601.59	1425.39
601.75	1378.58
601.91	1261.55
602.06	1315.38
602.22	1345.81
602.37	1196.01
602.53	1184.31
602.69	1224.10
602.84	1247.51
603.00	1170.27
603.16	1210.06
603.31	1303.68
603.47	1130.48
603.62	1235.80
603.78	1179.63
603.94	1310.70
604.09	1315.38
604.25	1385.60
604.40	1458.15
604.56	1409.00
604.71	1439.43
604.87	1476.88
605.03	1453.47
605.18	1530.71
605.34	1523.69
605.49	1423.05
605.65	1659.44
605.80	1596.25
605.96	1710.93
606.12	1706.25
606.27	1774.13
606.43	1827.96
606.58	1996.48
606.74	2094.78
606.89	2097.12
607.05	2188.40
607.20	2427.14
607.36	2499.69
607.51	2642.46
607.67	2719.70
607.82	2965.46
607.98	3047.38
608.13	3328.24
608.29	3634.85
608.44	3911.04
608.60	4184.88
608.75	4589.79
608.91	4931.51
609.06	5526.00
609.22	6193.06
609.37	6703.29
609.53	7583.34
609.68	8667.00
609.84	9708.54
609.99	11351.60
610.15	13612.56
610.30	17055.48
610.46	21390.16
610.61	27571.51
610.76	35164.21
610.92	43009.68
611.07	47234.35
611.23	47730.54
611.38	45612.36
611.54	40325.09
611.69	34174.16
611.84	28835.40
612.00	23831.33
612.15	20107.54
612.31	17584.44
612.46	15669.89
612.62	15087.09
612.77	13799.80
612.92	13020.40
613.08	12182.49
613.23	11836.09
613.39	11323.51
613.54	10864.77
613.69	10726.68
613.85	10614.33
614.00	10801.57
614.15	10450.49
614.31	10363.89
614.46	10298.36
614.62	9806.84
614.77	9277.88
614.92	8692.75
615.08	8180.17
615.23	7435.88
615.38	6846.07
615.54	6361.58
615.69	5823.25
615.84	5296.63
616.00	4898.74
616.15	4533.62
616.30	4304.25
616.46	3950.82
616.61	3747.20
616.76	3585.70
616.92	3440.59
617.07	3269.73
617.22	3080.14
617.37	2876.52
617.53	2803.96
617.68	2656.51
617.83	2511.39
617.99	2583.95
618.14	2551.18
618.29	2452.88
618.45	2363.94
618.60	2335.85
618.75	2230.53
618.90	2221.17
619.06	2279.68
619.21	2260.96
619.36	2242.23
619.51	2237.55
619.67	2218.83
619.82	2275.00
619.97	2275.00
620.12	2296.07
620.28	2359.26
620.43	2347.56
620.58	2448.20
620.73	2441.18
620.89	2499.69
621.04	2324.15
621.19	2504.37
621.34	2537.14
621.49	2307.77
621.65	2434.16
621.80	2370.96
621.95	2380.32
622.10	2408.41
622.25	2328.83
622.41	2326.49
622.56	2380.32
622.71	2555.86
622.86	2485.65
623.01	2502.03
623.16	2558.21
623.32	2600.34
623.47	2619.06
623.62	2520.76
623.77	2509.05
623.92	2593.31
624.07	2600.34
624.23	2497.35
624.38	2612.04
624.53	2572.25
624.68	2682.25
624.83	2682.25
624.98	2729.06
625.13	2684.59
625.29	2778.22
625.44	2738.43
625.59	2712.68
625.74	2773.53
625.89	2780.56
626.04	2665.87
626.19	2703.32
626.34	2555.86
626.49	2761.83
626.65	2717.36
626.80	2642.46
626.95	2457.56
627.10	2509.05
627.25	2502.03
627.40	2363.94
627.55	2415.43
627.70	2487.99
627.85	2389.69
628.00	2277.34
628.15	2284.36
628.30	2321.81
628.45	2436.50
628.60	2352.24
628.76	2370.96
628.91	2363.94
629.06	2256.28
629.21	2516.08
629.36	2534.80
629.51	2637.78
629.66	2684.59
629.81	2892.90
629.96	3087.17
630.11	3386.76
630.26	3756.56
630.41	4222.33
630.56	4718.52
630.71	5074.28
630.86	4994.70
631.01	5083.64
631.16	4603.83
631.31	4182.54
631.46	3592.72
631.61	2937.37
631.76	2551.18
631.91	2214.15
632.06	1830.30
632.21	1657.10
632.36	1439.43
632.51	1268.57
632.66	1179.63
632.81	1067.28
632.96	1025.15
633.10	1006.43
633.25	938.55
633.40	961.96
633.55	896.43
633.70	840.25
633.85	772.38
634.00	748.97
634.15	758.33
634.30	751.31
634.45	812.17
634.60	772.38
634.75	805.14
634.90	699.82
635.05	744.29
635.19	622.58
635.34	748.97
635.49	730.25
635.64	716.20
635.79	702.16
635.94	699.82
636.09	622.58
636.24	638.97
636.39	627.26
636.53	608.54
636.68	638.97
636.83	667.05
636.98	688.12
637.13	566.41
637.28	561.73
637.43	641.31
637.57	641.31
637.72	568.75
637.87	547.69
638.02	498.53
638.17	580.45
638.32	505.56
638.46	573.43
638.61	521.94
638.76	505.56
638.91	498.53
639.06	552.37
639.20	491.51
639.35	512.58
639.50	447.04
639.65	543.00
639.80	470.45
639.94	512.58
640.09	557.05
640.24	519.60
640.39	463.43
640.54	479.81
640.68	538.32
640.83	503.22
640.98	564.07
641.13	477.47
641.27	465.77
641.42	470.45
641.57	552.37
641.72	477.47
641.86	531.30
642.01	510.24
642.16	596.84
642.31	557.05
642.45	512.58
642.60	503.22
642.75	451.72
642.90	543.00
643.04	414.27
643.19	547.69
643.34	451.72
643.48	535.98
643.63	470.45
643.78	535.98
643.93	531.30
644.07	479.81
644.22	521.94
644.37	496.19
644.51	528.96
644.66	514.92
644.81	465.77
644.95	482.15
645.10	472.79
645.25	461.09
645.39	479.81
645.54	374.49
645.69	601.52
645.83	519.60
645.98	521.94
646.13	407.25
646.27	507.90
646.42	435.34
646.57	519.60
646.71	482.15
646.86	521.94
647.00	470.45
647.15	468.11
647.30	491.51
647.44	486.83
647.59	521.94
647.74	447.04
647.88	505.56
648.03	393.21
648.17	507.90
648.32	465.77
648.47	498.53
648.61	514.92
648.76	442.36
648.90	503.22
649.05	526.62
649.20	615.56
649.34	587.47
649.49	566.41
649.63	755.99
649.78	880.04
649.92	1025.15
650.07	1151.54
650.21	1331.76
650.36	1495.60
650.51	1439.43
650.65	1266.23
650.80	1207.72
650.94	1107.07
651.09	1027.50
651.23	830.89
651.38	842.59
651.52	767.70
651.67	676.41
651.81	603.86
651.96	585.13
652.10	568.75
652.25	500.87
652.39	737.27
652.54	664.71
652.68	702.16
652.83	711.52
652.97	739.61
653.12	741.95
653.26	758.33
653.41	763.01
653.55	650.67
653.70	641.31
653.84	566.41
653.99	533.64
654.13	484.49
654.27	535.98
654.42	475.13
654.56	411.93
654.71	489.17
654.85	421.30
655.00	395.55
655.14	477.47
655.29	468.11
655.43	463.43
655.57	433.00
655.72	498.53
655.86	519.60
656.01	433.00
656.15	470.45
656.30	472.79
656.44	484.49
656.58	379.17
656.73	437.68
656.87	423.64
657.01	573.43
657.16	533.64
657.30	486.83
657.45	566.41
657.59	463.43
657.73	533.64
657.88	561.73
658.02	568.75
658.16	510.24
658.31	521.94
658.45	568.75
658.60	390.87
658.74	454.06
658.88	407.25
659.03	383.85
659.17	325.33
659.31	376.83
659.46	416.62
659.60	404.91
659.74	341.72
659.89	400.23
660.03	308.95
660.17	442.36
660.32	381.51
660.46	388.53
660.60	322.99
660.74	372.15
660.89	311.29
661.03	360.44
661.17	388.53
661.32	435.34
661.46	465.77
661.60	519.60
661.74	655.35
661.89	760.67
662.03	856.64
662.17	866.00
662.31	882.38
662.46	774.72
662.60	781.74
662.74	688.12
662.88	695.14
663.03	582.79
663.17	561.73
663.31	491.51
663.45	489.17
663.60	484.49
663.74	416.62
663.88	489.17
664.02	540.66
664.17	425.98
664.31	395.55
664.45	388.53
664.59	334.70
664.73	348.74
664.88	442.36
665.02	337.04
665.16	346.40
665.30	428.32
665.44	376.83
665.59	491.51
665.73	381.51
665.87	374.49
666.01	320.65
666.15	271.50
666.29	259.80
666.44	425.98
666.58	386.19
666.72	351.08
666.86	318.31
667.00	407.25
667.14	334.70
667.28	341.72
667.43	334.70
667.57	355.76
667.71	395.55
667.85	318.31
667.99	341.72
668.13	393.21
668.27	379.17
668.41	283.20
668.56	339.38
668.70	332.36
668.84	348.74
668.98	315.97
669.12	332.36
669.26	294.91
669.40	337.04
669.54	367.46
669.68	311.29
669.82	297.25
669.96	227.03
670.10	308.95
670.25	374.49
670.39	367.46
670.53	297.25
670.67	358.10
670.81	388.53
670.95	308.95
671.09	372.15
671.23	362.78
671.37	367.46
671.51	311.29
671.65	271.50
671.79	248.10
671.93	294.91
672.07	315.97
672.21	318.31
672.35	353.42
672.49	290.23
672.63	313.63
672.77	252.78
672.91	301.93
673.05	369.80
673.19	344.06
673.33	229.37
673.47	355.76
673.61	330.02
673.75	301.93
673.89	313.63
674.03	262.14
674.17	320.65
674.31	273.84
674.45	341.72
674.59	283.20
674.73	257.46
674.87	304.27
675.01	327.68
675.15	250.44
675.29	327.68
675.43	330.02
675.56	283.20
675.70	376.83
675.84	255.12
675.98	210.65
676.12	271.50
676.26	320.65
676.40	215.33
676.54	262.14
676.68	259.80
676.82	264.48
676.96	248.10
677.10	241.08
677.23	215.33
677.37	287.89
677.51	262.14
677.65	325.33
677.79	266.82
677.93	271.50
678.07	264.48
678.21	245.76
678.34	278.52
678.48	280.86
678.62	203.63
678.76	182.56
678.90	262.14
679.04	262.14
679.18	285.55
679.31	262.14
679.45	297.25
679.59	229.37
679.73	262.14
679.87	304.27
680.00	259.80
680.14	259.80
680.28	276.18
680.42	220.01
680.56	346.40
680.70	248.10
680.83	376.83
680.97	276.18
681.11	236.39
681.25	332.36
681.39	234.05
681.52	346.40
681.66	311.29
681.80	220.01
681.94	227.03
682.07	231.71
682.21	273.84
682.35	236.39
682.49	234.05
682.62	337.04
682.76	264.48
682.90	236.39
683.04	208.31
683.17	297.25
683.31	177.88
683.45	266.82
683.59	290.23
683.72	231.71
683.86	238.73
684.00	79.58
684.13	257.46
684.27	215.33
684.41	231.71
684.55	257.46
684.68	341.72
684.82	236.39
684.96	248.10
685.09	304.27
685.23	264.48
685.37	259.80
685.50	248.10
685.64	299.59
685.78	248.10
685.91	322.99
686.05	365.12
686.19	353.42
686.32	278.52
686.46	330.02
686.60	339.38
686.73	451.72
686.87	435.34
687.01	383.85
687.14	423.64
687.28	451.72
687.42	440.02
687.55	472.79
687.69	575.77
687.82	500.87
687.96	484.49
688.10	496.19
688.23	430.66
688.37	489.17
688.50	421.30
688.64	304.27
688.78	332.36
688.91	285.55
689.05	397.89
689.18	257.46
689.32	283.20
689.46	259.80
689.59	294.91
689.73	243.42
689.86	210.65
690.00	280.86
690.13	177.88
690.27	173.20
690.41	257.46
690.54	245.76
690.68	304.27
690.81	210.65
690.95	212.99
691.08	262.14
691.22	231.71
691.35	196.60
691.49	154.48
691.62	170.86
691.76	166.18
691.89	198.95
692.03	194.26
692.16	231.71
692.30	205.97
692.43	243.42
692.57	210.65
692.70	152.13
692.84	170.86
692.97	227.03
693.11	255.12
693.24	301.93
693.38	353.42
693.51	344.06
693.65	496.19
693.78	376.83
693.92	337.04
694.05	381.51
694.19	294.91
694.32	348.74
694.45	220.01
694.59	205.97
694.72	248.10
694.86	201.29
694.99	243.42
695.13	210.65
695.26	161.50
695.39	180.22
695.53	215.33
695.66	234.05
695.80	189.58
695.93	205.97
696.07	131.07
696.20	203.63
696.33	217.67
696.47	248.10
696.60	212.99
696.73	187.24
696.87	241.08
697.00	229.37
697.14	175.54
697.27	142.77
697.40	88.94
697.54	131.07
697.67	145.11
697.80	173.20
697.94	238.73
698.07	133.41
698.21	81.92
698.34	194.26
698.47	191.92
698.61	170.86
698.74	140.43
698.87	180.22
699.01	152.13
699.14	168.52
699.27	210.65
699.40	315.97
699.54	159.16
699.67	166.18
699.80	100.64
699.94	100.64
700.07	166.18
700.20	140.43
700.34	168.52
700.47	154.48
700.60	91.28
700.73	184.90
700.87	196.60
701.00	112.35
701.13	159.16
701.26	135.75
701.40	161.50
701.53	182.56
701.66	170.86
701.79	91.28
701.93	166.18
702.06	194.26
702.19	100.64
702.32	180.22
702.46	149.79
702.59	271.50
702.72	133.41
702.85	168.52
702.99	205.97
703.12	257.46
703.25	205.97
703.38	227.03
703.51	215.33
703.65	170.86
703.78	222.35
703.91	220.01
704.04	194.26
704.17	243.42
704.31	212.99
704.44	142.77
704.57	149.79
704.70	252.78
704.83	276.18
704.96	184.90
705.10	227.03
705.23	280.86
>>>>>End Processed Spectral Data<<<<<
