SpectraSuite Data File
++++++++++++++++++++++++++++++++++++
Date: Fri Oct 04 11:42:05 GMT-05:00 2013
User: price-jones
Dark Spectrum Present: No
Reference Spectrum Present: No
Number of Sampled Component Spectra: 1
Spectrometers: USB2+H05261
Integration Time (usec): 100000 (USB2+H05261)
Spectra Averaged: 1 (USB2+H05261)
Boxcar Smoothing: 0 (USB2+H05261)
Correct for Electrical Dark: No (USB2+H05261)
Strobe/Lamp Enabled: No (USB2+H05261)
Correct for Detector Non-linearity: No (USB2+H05261)
Correct for Stray Light: No (USB2+H05261)
Number of Pixels in Processed Spectrum: 2048
>>>>>Begin Processed Spectral Data<<<<<
365.73	21.06
365.92	21.06
366.12	21.06
366.32	0.00
366.52	0.00
366.72	0.00
366.91	0.00
367.11	0.00
367.31	0.00
367.51	0.00
367.70	0.00
367.90	0.00
368.10	0.00
368.30	0.00
368.49	0.00
368.69	0.00
368.89	0.00
369.09	0.00
369.28	0.00
369.48	0.00
369.68	0.00
369.87	0.00
370.07	11.70
370.27	42.13
370.47	14.04
370.66	2.34
370.86	0.00
371.06	63.19
371.25	63.19
371.45	16.38
371.65	119.37
371.84	42.13
372.04	0.00
372.24	163.84
372.44	112.35
372.63	72.56
372.83	145.11
373.03	63.19
373.22	107.66
373.42	135.75
373.62	124.05
373.81	72.56
374.01	105.32
374.21	180.22
374.40	149.79
374.60	121.71
374.79	67.88
374.99	93.62
375.19	117.03
375.38	77.24
375.58	49.15
375.78	88.94
375.97	145.11
376.17	187.24
376.37	140.43
376.56	102.98
376.76	56.17
376.95	124.05
377.15	126.39
377.35	145.11
377.54	70.22
377.74	124.05
377.93	121.71
378.13	135.75
378.33	175.54
378.52	152.13
378.72	121.71
378.91	168.52
379.11	187.24
379.31	70.22
379.50	124.05
379.70	131.07
379.89	149.79
380.09	163.84
380.28	100.64
380.48	117.03
380.68	163.84
380.87	46.81
381.07	124.05
381.26	140.43
381.46	79.58
381.65	105.32
381.85	112.35
382.04	147.45
382.24	42.13
382.43	46.81
382.63	72.56
382.83	14.04
383.02	177.88
383.22	138.09
383.41	67.88
383.61	126.39
383.80	175.54
384.00	84.26
384.19	124.05
384.39	105.32
384.58	98.30
384.78	149.79
384.97	112.35
385.17	166.18
385.36	140.43
385.56	110.01
385.75	128.73
385.95	100.64
386.14	161.50
386.34	42.13
386.53	191.92
386.72	79.58
386.92	201.29
387.11	100.64
387.31	131.07
387.50	159.16
387.70	79.58
387.89	112.35
388.09	95.96
388.28	102.98
388.48	142.77
388.67	133.41
388.86	140.43
389.06	163.84
389.25	147.45
389.45	154.48
389.64	56.17
389.84	196.60
390.03	166.18
390.22	126.39
390.42	149.79
390.61	140.43
390.81	121.71
391.00	135.75
391.19	170.86
391.39	117.03
391.58	142.77
391.78	166.18
391.97	156.82
392.16	168.52
392.36	145.11
392.55	93.62
392.75	86.60
392.94	119.37
393.13	168.52
393.33	121.71
393.52	145.11
393.71	189.58
393.91	152.13
394.10	114.69
394.29	131.07
394.49	74.90
394.68	135.75
394.88	175.54
395.07	105.32
395.26	133.41
395.46	138.09
395.65	175.54
395.84	184.90
396.04	208.31
396.23	30.43
396.42	180.22
396.62	203.63
396.81	168.52
397.00	72.56
397.19	210.65
397.39	140.43
397.58	140.43
397.77	112.35
397.97	124.05
398.16	173.20
398.35	166.18
398.55	93.62
398.74	156.82
398.93	170.86
399.12	112.35
399.32	187.24
399.51	161.50
399.70	149.79
399.90	198.95
400.09	222.35
400.28	9.36
400.47	131.07
400.67	145.11
400.86	168.52
401.05	191.92
401.24	208.31
401.44	208.31
401.63	168.52
401.82	187.24
402.01	208.31
402.21	245.76
402.40	147.45
402.59	147.45
402.78	159.16
402.97	180.22
403.17	238.73
403.36	255.12
403.55	280.86
403.74	706.84
403.93	2289.04
404.13	5547.07
404.32	8791.05
404.51	8697.43
404.70	5554.09
404.89	1959.03
405.09	592.16
405.28	339.38
405.47	215.33
405.66	224.69
405.85	271.50
406.05	266.82
406.24	142.77
406.43	210.65
406.62	318.31
406.81	304.27
407.00	353.42
407.20	638.97
407.39	1116.44
407.58	1350.49
407.77	896.43
407.96	517.26
408.15	276.18
408.34	250.44
408.54	173.20
408.73	201.29
408.92	236.39
409.11	248.10
409.30	191.92
409.49	131.07
409.68	205.97
409.87	212.99
410.07	170.86
410.26	266.82
410.45	243.42
410.64	248.10
410.83	119.37
411.02	156.82
411.21	198.95
411.40	229.37
411.59	238.73
411.78	224.69
411.98	205.97
412.17	259.80
412.36	217.67
412.55	241.08
412.74	266.82
412.93	273.84
413.12	243.42
413.31	278.52
413.50	231.71
413.69	227.03
413.88	313.63
414.07	252.78
414.26	278.52
414.45	224.69
414.64	189.58
414.83	266.82
415.02	250.44
415.22	271.50
415.41	257.46
415.60	243.42
415.79	217.67
415.98	334.70
416.17	227.03
416.36	264.48
416.55	161.50
416.74	205.97
416.93	280.86
417.12	367.46
417.31	341.72
417.50	304.27
417.69	383.85
417.88	243.42
418.07	278.52
418.26	269.16
418.45	248.10
418.64	327.68
418.83	304.27
419.02	332.36
419.21	332.36
419.39	301.93
419.58	252.78
419.77	255.12
419.96	330.02
420.15	330.02
420.34	301.93
420.53	299.59
420.72	266.82
420.91	306.61
421.10	346.40
421.29	409.59
421.48	311.29
421.67	423.64
421.86	301.93
422.05	304.27
422.24	341.72
422.43	355.76
422.61	264.48
422.80	332.36
422.99	346.40
423.18	379.17
423.37	402.57
423.56	421.30
423.75	290.23
423.94	297.25
424.13	334.70
424.32	301.93
424.50	372.15
424.69	376.83
424.88	346.40
425.07	304.27
425.26	348.74
425.45	386.19
425.64	397.89
425.83	390.87
426.01	358.10
426.20	353.42
426.39	397.89
426.58	379.17
426.77	411.93
426.96	362.78
427.15	402.57
427.33	313.63
427.52	355.76
427.71	386.19
427.90	458.74
428.09	428.32
428.28	330.02
428.46	404.91
428.65	442.36
428.84	397.89
429.03	449.38
429.22	407.25
429.40	372.15
429.59	416.62
429.78	416.62
429.97	402.57
430.16	372.15
430.34	430.66
430.53	505.56
430.72	428.32
430.91	461.09
431.10	444.70
431.28	444.70
431.47	458.74
431.66	454.06
431.85	435.34
432.03	486.83
432.22	545.34
432.41	550.03
432.60	498.53
432.79	571.09
432.97	538.32
433.16	500.87
433.35	596.84
433.54	802.80
433.72	784.08
433.91	788.76
434.10	798.12
434.28	997.07
434.47	1181.97
434.66	1350.49
434.85	1568.16
435.03	3826.78
435.22	13654.69
435.41	34352.04
435.59	45441.50
435.78	31225.09
435.97	14775.80
436.16	5516.64
436.34	1767.10
436.53	1102.39
436.72	926.85
436.90	755.99
437.09	734.93
437.28	730.25
437.46	596.84
437.65	538.32
437.84	606.20
438.02	575.77
438.21	571.09
438.40	535.98
438.58	547.69
438.77	589.82
438.96	620.24
439.14	566.41
439.33	559.39
439.52	559.39
439.70	507.90
439.89	587.47
440.08	547.69
440.26	596.84
440.45	615.56
440.63	594.50
440.82	512.58
441.01	575.77
441.19	566.41
441.38	608.54
441.57	531.30
441.75	601.52
441.94	512.58
442.12	571.09
442.31	596.84
442.50	491.51
442.68	575.77
442.87	526.62
443.05	535.98
443.24	589.82
443.43	521.94
443.61	550.03
443.80	486.83
443.98	451.72
444.17	482.15
444.35	552.37
444.54	484.49
444.73	484.49
444.91	599.18
445.10	524.28
445.28	571.09
445.47	557.05
445.65	486.83
445.84	557.05
446.02	526.62
446.21	540.66
446.39	585.13
446.58	538.32
446.77	535.98
446.95	510.24
447.14	543.00
447.32	521.94
447.51	552.37
447.69	498.53
447.88	573.43
448.06	496.19
448.25	582.79
448.43	526.62
448.62	559.39
448.80	610.88
448.99	568.75
449.17	552.37
449.36	463.43
449.54	479.81
449.73	550.03
449.91	528.96
450.10	564.07
450.28	664.71
450.46	688.12
450.65	603.86
450.83	561.73
451.02	512.58
451.20	482.15
451.39	519.60
451.57	517.26
451.76	526.62
451.94	463.43
452.13	627.26
452.31	585.13
452.49	500.87
452.68	442.36
452.86	580.45
453.05	615.56
453.23	571.09
453.42	510.24
453.60	543.00
453.78	589.82
453.97	514.92
454.15	519.60
454.34	540.66
454.52	547.69
454.70	519.60
454.89	500.87
455.07	479.81
455.26	521.94
455.44	552.37
455.62	500.87
455.81	528.96
455.99	596.84
456.17	477.47
456.36	517.26
456.54	526.62
456.73	510.24
456.91	519.60
457.09	601.52
457.28	517.26
457.46	510.24
457.64	559.39
457.83	582.79
458.01	461.09
458.19	561.73
458.38	507.90
458.56	435.34
458.74	468.11
458.93	521.94
459.11	486.83
459.29	505.56
459.48	575.77
459.66	545.34
459.84	477.47
460.03	496.19
460.21	482.15
460.39	468.11
460.57	491.51
460.76	482.15
460.94	404.91
461.12	533.64
461.31	587.47
461.49	547.69
461.67	425.98
461.85	465.77
462.04	580.45
462.22	891.74
462.40	535.98
462.59	526.62
462.77	503.22
462.95	533.64
463.13	517.26
463.32	580.45
463.50	545.34
463.68	535.98
463.86	517.26
464.05	477.47
464.23	535.98
464.41	435.34
464.59	613.22
464.78	538.32
464.96	531.30
465.14	552.37
465.32	550.03
465.50	500.87
465.69	503.22
465.87	463.43
466.05	463.43
466.23	496.19
466.41	454.06
466.60	578.11
466.78	505.56
466.96	566.41
467.14	521.94
467.32	580.45
467.51	550.03
467.69	477.47
467.87	458.74
468.05	545.34
468.23	491.51
468.41	423.64
468.60	496.19
468.78	486.83
468.96	484.49
469.14	484.49
469.32	451.72
469.50	395.55
469.69	442.36
469.87	528.96
470.05	538.32
470.23	468.11
470.41	550.03
470.59	510.24
470.77	517.26
470.95	538.32
471.14	538.32
471.32	559.39
471.50	543.00
471.68	449.38
471.86	545.34
472.04	470.45
472.22	526.62
472.40	503.22
472.58	423.64
472.77	418.96
472.95	510.24
473.13	564.07
473.31	557.05
473.49	456.40
473.67	573.43
473.85	482.15
474.03	554.71
474.21	475.13
474.39	575.77
474.57	519.60
474.75	524.28
474.93	409.59
475.12	475.13
475.30	491.51
475.48	479.81
475.66	543.00
475.84	517.26
476.02	496.19
476.20	433.00
476.38	510.24
476.56	582.79
476.74	512.58
476.92	475.13
477.10	451.72
477.28	521.94
477.46	517.26
477.64	512.58
477.82	489.17
478.00	526.62
478.18	533.64
478.36	613.22
478.54	596.84
478.72	594.50
478.90	582.79
479.08	561.73
479.26	688.12
479.44	620.24
479.62	690.46
479.80	669.39
479.98	711.52
480.16	772.38
480.34	739.61
480.52	851.96
480.70	847.27
480.88	814.51
481.06	830.89
481.24	929.19
481.41	957.28
481.59	1053.24
481.77	1053.24
481.95	1196.01
482.13	1181.97
482.31	1270.91
482.49	1270.91
482.67	1500.28
482.85	1521.35
483.03	1621.99
483.21	1755.40
483.39	1923.92
483.57	1902.86
483.74	2076.06
483.92	2251.60
484.10	2349.90
484.28	2492.67
484.46	2616.72
484.64	2712.68
484.82	2862.48
485.00	3052.06
485.18	3185.47
485.35	3459.31
485.53	3583.36
485.71	3723.79
485.89	3847.84
486.07	3899.33
486.25	4067.85
486.43	4065.51
486.61	4074.87
486.78	3950.82
486.96	4100.62
487.14	3969.55
487.32	3983.59
487.50	3920.40
487.68	3894.65
487.85	3789.33
488.03	3777.62
488.21	3784.65
488.39	3676.98
488.57	3702.73
488.75	3456.97
488.92	3660.60
489.10	3468.67
489.28	3421.86
489.46	3206.53
489.64	3080.14
489.81	3162.06
489.99	3143.34
490.17	3019.29
490.35	3197.17
490.53	3012.27
490.70	3028.65
490.88	3009.93
491.06	3098.87
491.24	3403.14
491.41	3550.59
491.59	3225.26
491.77	3042.70
491.95	2878.86
492.13	2820.35
492.30	2710.34
492.48	2810.98
492.66	2717.36
492.84	2656.51
493.01	2539.48
493.19	2574.59
493.37	2682.25
493.54	2558.21
493.72	2417.77
493.90	2485.65
494.08	2466.92
494.25	2413.09
494.43	2307.77
494.61	2314.79
494.79	2347.56
494.96	2188.40
495.14	2216.49
495.32	2120.53
495.49	2083.08
495.67	2015.20
495.85	2005.84
496.02	2045.63
496.20	2017.54
496.38	1921.58
496.55	1884.13
496.73	1914.56
496.91	1844.34
497.09	1905.20
497.26	1860.73
497.44	1792.85
497.62	1572.84
497.79	1746.04
497.97	1701.57
498.14	1664.12
498.32	1600.93
498.50	1462.83
498.67	1479.22
498.85	1579.86
499.03	1479.22
499.20	1432.41
499.38	1376.24
499.56	1416.02
499.73	1413.68
499.91	1362.19
500.08	1383.26
500.26	1153.88
500.44	1114.10
500.61	1160.91
500.79	1071.97
500.97	1083.67
501.14	1132.82
501.32	1020.47
501.49	1118.78
501.67	964.30
501.84	880.04
502.02	997.07
502.20	915.15
502.37	837.91
502.55	910.47
502.72	929.19
502.90	788.76
503.07	784.08
503.25	842.59
503.43	727.91
503.60	833.23
503.78	681.10
503.95	800.46
504.13	678.76
504.30	702.16
504.48	706.84
504.65	702.16
504.83	634.29
505.01	617.90
505.18	828.55
505.36	657.69
505.53	734.93
505.71	671.73
505.88	568.75
506.06	566.41
506.23	678.76
506.41	610.88
506.58	580.45
506.76	573.43
506.93	580.45
507.11	571.09
507.28	463.43
507.46	631.94
507.63	559.39
507.81	521.94
507.98	531.30
508.16	503.22
508.33	540.66
508.50	510.24
508.68	538.32
508.85	688.12
509.03	608.54
509.20	564.07
509.38	575.77
509.55	517.26
509.73	589.82
509.90	524.28
510.08	545.34
510.25	458.74
510.42	517.26
510.60	510.24
510.77	550.03
510.95	545.34
511.12	472.79
511.30	533.64
511.47	503.22
511.64	468.11
511.82	526.62
511.99	486.83
512.17	557.05
512.34	573.43
512.51	447.04
512.69	533.64
512.86	484.49
513.04	463.43
513.21	458.74
513.38	447.04
513.56	510.24
513.73	397.89
513.90	475.13
514.08	449.38
514.25	498.53
514.43	475.13
514.60	491.51
514.77	475.13
514.95	447.04
515.12	418.96
515.29	470.45
515.47	505.56
515.64	388.53
515.81	369.80
515.99	376.83
516.16	440.02
516.33	552.37
516.51	489.17
516.68	465.77
516.85	479.81
517.03	386.19
517.20	444.70
517.37	423.64
517.54	425.98
517.72	461.09
517.89	297.25
518.06	276.18
518.24	442.36
518.41	414.27
518.58	390.87
518.75	404.91
518.93	386.19
519.10	414.27
519.27	411.93
519.45	414.27
519.62	444.70
519.79	475.13
519.96	444.70
520.14	407.25
520.31	484.49
520.48	376.83
520.65	428.32
520.83	479.81
521.00	437.68
521.17	388.53
521.34	353.42
521.52	348.74
521.69	397.89
521.86	355.76
522.03	421.30
522.20	421.30
522.38	407.25
522.55	374.49
522.72	416.62
522.89	435.34
523.07	470.45
523.24	358.10
523.41	451.72
523.58	397.89
523.75	395.55
523.92	425.98
524.10	465.77
524.27	395.55
524.44	430.66
524.61	404.91
524.78	390.87
524.96	425.98
525.13	491.51
525.30	507.90
525.47	397.89
525.64	435.34
525.81	454.06
525.98	461.09
526.16	454.06
526.33	367.46
526.50	458.74
526.67	435.34
526.84	428.32
527.01	454.06
527.18	491.51
527.36	512.58
527.53	535.98
527.70	587.47
527.87	557.05
528.04	575.77
528.21	547.69
528.38	475.13
528.55	521.94
528.72	580.45
528.89	610.88
529.07	526.62
529.24	507.90
529.41	638.97
529.58	599.18
529.75	578.11
529.92	573.43
530.09	655.35
530.26	613.22
530.43	587.47
530.60	641.31
530.77	596.84
530.94	667.05
531.11	669.39
531.28	692.80
531.46	674.07
531.63	725.57
531.80	777.06
531.97	765.36
532.14	924.51
532.31	1090.69
532.48	1275.59
532.65	1460.49
532.82	1792.85
532.99	1914.56
533.16	2253.94
533.33	2492.67
533.50	2338.20
533.67	1973.07
533.84	1755.40
534.01	1423.05
534.18	1348.15
534.35	1413.68
534.52	1362.19
534.69	1380.92
534.86	1441.77
535.03	1507.30
535.20	1511.99
535.37	1722.63
535.54	1785.83
535.71	1781.15
535.88	1966.05
536.05	2148.61
536.22	2289.04
536.38	2544.16
536.55	2539.48
536.72	2892.90
536.89	3239.30
537.06	3754.22
537.23	4021.04
537.40	4435.32
537.57	4830.87
537.74	5076.62
537.91	5233.44
538.08	5392.59
538.25	5437.06
538.42	5479.19
538.59	5701.54
538.75	5858.36
538.92	6108.80
539.09	6717.34
539.26	7258.00
539.43	8180.17
539.60	9453.42
539.77	10431.77
539.94	11819.71
540.11	13336.37
540.28	14541.75
540.44	16201.19
540.61	17554.02
540.78	20030.30
540.95	23903.89
541.12	28919.66
541.29	33202.84
541.46	34691.42
541.62	34099.26
541.79	33102.20
541.96	31180.62
542.13	28755.82
542.30	26691.47
542.47	25200.55
542.63	23889.85
542.80	22813.20
542.97	22361.48
543.14	22974.70
543.31	22272.54
543.48	22480.85
543.64	22986.40
543.81	22684.47
543.98	23194.71
544.15	23599.62
544.32	23374.93
544.48	23241.52
544.65	23351.52
544.82	22974.70
544.99	23168.96
545.16	23651.11
545.32	24400.08
545.49	37385.38
545.66	58464.24
545.83	65535.00
546.00	65535.00
546.16	53991.48
546.33	41067.04
546.50	31388.92
546.67	24030.28
546.83	21259.09
547.00	20161.37
547.17	19349.21
547.34	18595.56
547.50	17928.50
547.67	17205.28
547.84	16329.92
548.00	16369.71
548.17	15173.69
548.34	14410.68
548.51	14083.00
548.67	13301.26
548.84	12905.71
549.01	12147.38
549.18	11428.84
549.34	11140.95
549.51	10789.87
549.68	10424.75
549.84	10129.84
550.01	9673.43
550.18	8999.36
550.34	8341.67
550.51	8135.70
550.68	7691.00
550.84	7386.73
551.01	7040.33
551.18	6600.31
551.34	6373.28
551.51	6047.94
551.68	5893.47
551.84	5509.62
552.01	5256.84
552.18	5313.02
552.34	4950.23
552.51	4894.06
552.68	4566.39
552.84	4386.16
553.01	4168.49
553.18	3971.89
553.34	4011.68
553.51	3779.97
553.67	3712.09
553.84	3555.27
554.01	3274.41
554.17	3112.91
554.34	2953.76
554.51	2675.23
554.67	2649.49
554.84	2502.03
555.00	2385.01
555.17	2169.68
555.33	2244.57
555.50	2129.89
555.67	1912.22
555.83	1860.73
556.00	1804.55
556.16	1856.04
556.33	1645.40
556.50	1568.16
556.66	1675.82
556.83	1458.15
556.99	1413.68
557.16	1462.83
557.32	1441.77
557.49	1387.94
557.65	1334.11
557.82	1313.04
557.98	1275.59
558.15	1207.72
558.32	1165.59
558.48	1191.33
558.65	1214.74
558.81	1104.73
558.98	1125.80
559.14	1102.39
559.31	1100.05
559.47	1109.41
559.64	950.26
559.80	1053.24
559.97	915.15
560.13	959.62
560.30	915.15
560.46	1006.43
560.63	980.68
560.79	924.51
560.96	891.74
561.12	910.47
561.29	901.11
561.45	952.60
561.61	966.64
561.78	1104.73
561.94	1032.18
562.11	910.47
562.27	968.98
562.44	842.59
562.60	938.55
562.77	851.96
562.93	910.47
563.10	912.81
563.26	891.74
563.42	727.91
563.59	823.87
563.75	826.21
563.92	847.27
564.08	741.95
564.24	842.59
564.41	880.04
564.57	727.91
564.74	795.78
564.90	777.06
565.07	809.83
565.23	723.23
565.39	758.33
565.56	688.12
565.72	709.18
565.88	725.57
566.05	676.41
566.21	688.12
566.38	713.86
566.54	798.12
566.70	821.53
566.87	741.95
567.03	678.76
567.19	713.86
567.36	702.16
567.52	631.94
567.68	676.41
567.85	699.82
568.01	816.85
568.17	709.18
568.34	727.91
568.50	807.48
568.66	720.88
568.83	786.42
568.99	662.37
569.15	657.69
569.32	695.14
569.48	676.41
569.64	683.44
569.81	676.41
569.97	561.73
570.13	606.20
570.30	578.11
570.46	568.75
570.62	528.96
570.78	543.00
570.95	463.43
571.11	596.84
571.27	566.41
571.43	559.39
571.60	540.66
571.76	468.11
571.92	575.77
572.09	540.66
572.25	550.03
572.41	550.03
572.57	493.85
572.74	594.50
572.90	524.28
573.06	599.18
573.22	519.60
573.38	603.86
573.55	692.80
573.71	613.22
573.87	519.60
574.03	575.77
574.20	653.01
574.36	622.58
574.52	638.97
574.68	695.14
574.84	748.97
575.01	692.80
575.17	760.67
575.33	737.27
575.49	947.92
575.65	966.64
575.82	936.21
575.98	1071.97
576.14	1167.93
576.30	2200.10
576.46	6619.04
576.62	14071.30
576.79	18850.67
576.95	13088.28
577.11	7861.86
577.27	5535.37
577.43	3660.60
577.59	2368.62
577.75	1825.62
577.92	1727.32
578.08	1671.14
578.24	1640.72
578.40	2569.91
578.56	6450.52
578.72	13261.48
578.88	16711.42
579.04	12793.37
579.21	8053.78
579.37	5806.87
579.53	4322.97
579.69	3955.51
579.85	4917.47
580.01	5877.09
580.17	6099.44
580.33	5109.39
580.49	4334.67
580.65	3744.86
580.82	3503.78
580.98	3332.92
581.14	3304.84
581.30	3618.47
581.46	3779.97
581.62	4194.24
581.78	4348.72
581.94	4858.95
582.10	4924.49
582.26	5371.53
582.42	5645.37
582.58	5518.98
582.74	5570.48
582.90	5713.25
583.06	6066.67
583.22	5827.93
583.38	6024.54
583.54	5914.53
583.70	5797.51
583.86	5673.46
584.02	5610.26
584.18	5638.35
584.34	5453.45
584.50	5418.34
584.66	5231.10
584.82	5104.71
584.98	5191.31
585.14	5083.64
585.30	5022.79
585.46	4940.87
585.62	4870.65
585.78	4844.91
585.94	4709.16
586.10	4975.98
586.26	5195.99
586.42	5734.31
586.58	6967.77
586.74	8458.70
586.90	10298.36
587.06	11651.19
587.22	11934.39
587.38	10413.04
587.54	8889.35
587.70	7571.63
587.86	6527.75
588.02	5432.38
588.18	4816.82
588.34	4299.56
588.49	3911.04
588.65	3613.79
588.81	3410.16
588.97	3325.90
589.13	3302.50
589.29	3159.72
589.45	3288.45
589.61	3316.54
589.77	3243.98
589.93	3307.18
590.08	3276.75
590.24	3421.86
590.40	3435.91
590.56	3655.92
590.72	3662.94
590.88	3798.69
591.04	3861.88
591.20	4095.94
591.35	4318.29
591.51	4451.70
591.67	4470.42
591.83	4896.40
591.99	5348.12
592.15	5867.72
592.31	6335.83
592.46	6946.71
592.62	7375.03
592.78	8084.21
592.94	8259.75
593.10	8348.69
593.26	7864.20
593.41	7183.10
593.57	6558.18
593.73	5727.29
593.89	5207.69
594.05	4564.04
594.20	4126.36
594.36	3639.53
594.52	3365.69
594.68	3234.62
594.84	3122.27
594.99	3063.76
595.15	3002.91
595.31	2874.18
595.47	2836.73
595.62	2951.42
595.78	2946.73
595.94	2897.58
596.10	2920.99
596.25	2899.92
596.41	2916.31
596.57	2822.69
596.73	2827.37
596.88	2803.96
597.04	2944.39
597.20	2890.56
597.36	2920.99
597.51	3138.66
597.67	3066.10
597.83	3300.16
597.99	3428.88
598.14	3616.13
598.30	3826.78
598.46	4119.34
598.61	4325.31
598.77	4463.40
598.93	4833.21
599.09	4779.37
599.24	5043.85
599.40	4798.10
599.56	4847.25
599.71	4662.35
599.87	4278.50
600.03	4124.02
600.18	3733.15
600.34	3719.11
600.50	3290.79
600.65	3056.74
600.81	2935.03
600.97	2686.94
601.12	2562.89
601.28	2452.88
601.44	2349.90
601.59	2300.75
601.75	2197.76
601.91	2139.25
602.06	1991.80
602.22	2073.71
602.37	1956.69
602.53	1928.60
602.69	1914.56
602.84	1914.56
603.00	1879.45
603.16	2059.67
603.31	1928.60
603.47	1973.07
603.62	1902.86
603.78	2071.37
603.94	2052.65
604.09	2085.42
604.25	2176.70
604.40	2310.11
604.56	2214.15
604.71	2375.64
604.87	2331.17
605.03	2314.79
605.18	2321.81
605.34	2480.97
605.49	2422.45
605.65	2431.82
605.80	2534.80
605.96	2771.19
606.12	2853.11
606.27	3148.02
606.43	3080.14
606.58	3260.37
606.74	3283.77
606.89	3480.38
607.05	3665.28
607.20	3859.54
607.36	3995.29
607.51	4168.49
607.67	4510.21
607.82	4854.27
607.98	5144.50
608.13	5612.60
608.29	6164.97
608.44	6609.67
608.60	7152.68
608.75	7756.54
608.91	8772.33
609.06	9385.55
609.22	10331.12
609.37	11124.57
609.53	12425.90
609.68	14146.20
609.84	16308.85
609.99	19180.69
610.15	22862.35
610.30	27962.38
610.46	35220.38
610.61	45504.70
610.76	53975.09
610.92	59767.92
611.07	63260.00
611.23	63969.18
611.38	63262.34
611.54	60236.03
611.69	56172.86
611.84	50490.04
612.00	43339.70
612.15	35702.53
612.31	30810.81
612.46	27653.43
612.62	25532.90
612.77	24126.24
612.92	23213.43
613.08	21612.51
613.23	20423.51
613.39	19690.93
613.54	18803.86
613.69	18684.50
613.85	18429.38
614.00	18434.06
614.15	18705.56
614.31	18090.00
614.46	17989.36
614.62	16999.31
614.77	16067.78
614.92	15063.69
615.08	14167.26
615.23	13071.89
615.38	12123.98
615.54	10864.77
615.69	10026.86
615.84	9121.07
616.00	8610.83
616.15	7941.44
616.30	7489.71
616.46	6881.18
616.61	6354.55
616.76	6253.91
616.92	5884.11
617.07	5526.00
617.22	5317.70
617.37	4915.12
617.53	4716.18
617.68	4526.60
617.83	4379.14
617.99	4161.47
618.14	4215.30
618.29	4135.73
618.45	4119.34
618.60	3927.42
618.75	3838.48
618.90	3761.24
619.06	3808.05
619.21	3723.79
619.36	3641.87
619.51	3735.50
619.67	3707.41
619.82	3707.41
619.97	3815.07
620.12	3906.35
620.28	3822.09
620.43	3953.16
620.58	3981.25
620.73	4011.68
620.89	4175.52
621.04	4093.60
621.19	3953.16
621.34	3803.37
621.49	3859.54
621.65	3847.84
621.80	3899.33
621.95	3777.62
622.10	3798.69
622.25	3798.69
622.41	3786.99
622.56	3948.48
622.71	4065.51
622.86	4215.30
623.01	4252.75
623.16	4234.03
623.32	4252.75
623.47	4374.46
623.62	4257.43
623.77	4231.69
623.92	4451.70
624.07	4355.74
624.23	4224.67
624.38	4131.05
624.53	4351.06
624.68	4346.37
624.83	4507.87
624.98	4395.53
625.13	4393.19
625.29	4578.09
625.44	4547.66
625.59	4510.21
625.74	4510.21
625.89	4535.96
626.04	4374.46
626.19	4510.21
626.34	4374.46
626.49	4500.85
626.65	4613.20
626.80	4161.47
626.95	4325.31
627.10	4170.83
627.25	4227.01
627.40	4219.99
627.55	4044.45
627.70	4030.40
627.85	4060.83
628.00	3934.44
628.15	3990.61
628.30	4016.36
628.45	3878.27
628.60	3929.76
628.76	3864.22
628.91	3992.95
629.06	3974.23
629.21	3932.10
629.36	4243.39
629.51	4320.63
629.66	4571.07
629.81	4891.72
629.96	5268.55
630.11	5694.52
630.26	6352.21
630.41	7159.70
630.56	7843.14
630.71	8407.20
630.86	8896.38
631.01	8608.49
631.16	8037.40
631.31	7140.97
631.46	6038.58
631.61	5207.69
631.76	4414.25
631.91	3620.81
632.06	3122.27
632.21	2679.91
632.36	2333.51
632.51	2090.10
632.66	1900.52
632.81	1769.44
632.96	1685.19
633.10	1589.22
633.25	1572.84
633.40	1392.62
633.55	1366.87
633.70	1357.51
633.85	1224.10
634.00	1280.27
634.15	1348.15
634.30	1240.48
634.45	1116.44
634.60	1177.29
634.75	1111.75
634.90	1071.97
635.05	1086.01
635.19	1069.62
635.34	1067.28
635.49	1097.71
635.64	1090.69
635.79	980.68
635.94	971.32
636.09	971.32
636.24	990.05
636.39	896.43
636.53	866.00
636.68	976.00
636.83	997.07
636.98	877.70
637.13	828.55
637.28	894.08
637.43	964.30
637.57	957.28
637.72	964.30
637.87	891.74
638.02	823.87
638.17	882.38
638.32	739.61
638.46	788.76
638.61	819.19
638.76	730.25
638.91	763.01
639.06	800.46
639.20	835.57
639.35	758.33
639.50	835.57
639.65	837.91
639.80	753.65
639.94	823.87
640.09	770.04
640.24	812.17
640.39	737.27
640.54	774.72
640.68	695.14
640.83	725.57
640.98	725.57
641.13	690.46
641.27	690.46
641.42	631.94
641.57	788.76
641.72	758.33
641.86	774.72
642.01	791.10
642.16	720.88
642.31	674.07
642.45	760.67
642.60	788.76
642.75	751.31
642.90	809.83
643.04	681.10
643.19	713.86
643.34	662.37
643.48	748.97
643.63	758.33
643.78	706.84
643.93	718.54
644.07	774.72
644.22	765.36
644.37	779.40
644.51	716.20
644.66	732.59
644.81	765.36
644.95	807.48
645.10	734.93
645.25	662.37
645.39	772.38
645.54	704.50
645.69	704.50
645.83	711.52
645.98	821.53
646.13	781.74
646.27	739.61
646.42	744.29
646.57	678.76
646.71	676.41
646.86	667.05
647.00	671.73
647.15	720.88
647.30	690.46
647.44	645.99
647.59	664.71
647.74	624.92
647.88	725.57
648.03	709.18
648.17	718.54
648.32	744.29
648.47	697.48
648.61	746.63
648.76	695.14
648.90	723.23
649.05	880.04
649.20	844.93
649.34	917.49
649.49	1060.26
649.63	1207.72
649.78	1385.60
649.92	1760.08
650.07	2015.20
650.21	2167.34
650.36	2406.07
650.51	2310.11
650.65	2333.51
650.80	2019.88
650.94	1834.98
651.09	1664.12
651.23	1441.77
651.38	1364.53
651.52	1235.80
651.67	1130.48
651.81	1069.62
651.96	968.98
652.10	940.90
652.25	910.47
652.39	994.73
652.54	924.51
652.68	1128.14
652.83	1191.33
652.97	1118.78
653.12	1151.54
653.26	1102.39
653.41	1149.20
653.55	1104.73
653.70	933.87
653.84	873.02
653.99	830.89
654.13	779.40
654.27	741.95
654.42	734.93
654.56	697.48
654.71	793.44
654.85	786.42
655.00	629.60
655.14	695.14
655.29	601.52
655.43	676.41
655.57	648.33
655.72	596.84
655.86	575.77
656.01	711.52
656.15	648.33
656.30	643.65
656.44	681.10
656.58	734.93
656.73	587.47
656.87	617.90
657.01	697.48
657.16	709.18
657.30	807.48
657.45	763.01
657.59	779.40
657.73	819.19
657.88	805.14
658.02	940.90
658.16	805.14
658.31	741.95
658.45	704.50
658.60	655.35
658.74	648.33
658.88	608.54
659.03	636.63
659.17	477.47
659.31	543.00
659.46	503.22
659.60	596.84
659.74	594.50
659.89	533.64
660.03	528.96
660.17	533.64
660.32	390.87
660.46	517.26
660.60	521.94
660.74	550.03
660.89	545.34
661.03	543.00
661.17	676.41
661.32	624.92
661.46	631.94
661.60	767.70
661.74	1001.75
661.89	1132.82
662.03	1287.29
662.17	1448.79
662.31	1441.77
662.46	1483.90
662.60	1387.94
662.74	1270.91
662.88	1118.78
663.03	999.41
663.17	868.34
663.31	741.95
663.45	784.08
663.60	711.52
663.74	631.94
663.88	685.78
664.02	627.26
664.17	573.43
664.31	648.33
664.45	493.85
664.59	554.71
664.73	566.41
664.88	531.30
665.02	505.56
665.16	564.07
665.30	517.26
665.44	578.11
665.59	510.24
665.73	475.13
665.87	498.53
666.01	500.87
666.15	437.68
666.29	444.70
666.44	456.40
666.58	613.22
666.72	402.57
666.86	442.36
667.00	489.17
667.14	514.92
667.28	444.70
667.43	475.13
667.57	489.17
667.71	456.40
667.85	484.49
667.99	463.43
668.13	531.30
668.27	486.83
668.41	463.43
668.56	395.55
668.70	491.51
668.84	496.19
668.98	465.77
669.12	430.66
669.26	510.24
669.40	514.92
669.54	447.04
669.68	505.56
669.82	409.59
669.96	458.74
670.10	440.02
670.25	421.30
670.39	479.81
670.53	465.77
670.67	454.06
670.81	341.72
670.95	489.17
671.09	489.17
671.23	491.51
671.37	491.51
671.51	456.40
671.65	489.17
671.79	428.32
671.93	444.70
672.07	470.45
672.21	512.58
672.35	442.36
672.49	414.27
672.63	393.21
672.77	376.83
672.91	423.64
673.05	339.38
673.19	409.59
673.33	397.89
673.47	362.78
673.61	395.55
673.75	346.40
673.89	475.13
674.03	353.42
674.17	428.32
674.31	381.51
674.45	358.10
674.59	393.21
674.73	409.59
674.87	346.40
675.01	379.17
675.15	383.85
675.29	437.68
675.43	465.77
675.56	355.76
675.70	374.49
675.84	332.36
675.98	325.33
676.12	344.06
676.26	294.91
676.40	383.85
676.54	465.77
676.68	423.64
676.82	330.02
676.96	376.83
677.10	369.80
677.23	369.80
677.37	299.59
677.51	372.15
677.65	355.76
677.79	271.50
677.93	269.16
678.07	346.40
678.21	362.78
678.34	306.61
678.48	322.99
678.62	407.25
678.76	306.61
678.90	369.80
679.04	362.78
679.18	285.55
679.31	346.40
679.45	386.19
679.59	339.38
679.73	423.64
679.87	369.80
680.00	395.55
680.14	374.49
680.28	484.49
680.42	407.25
680.56	418.96
680.70	395.55
680.83	425.98
680.97	365.12
681.11	381.51
681.25	425.98
681.39	421.30
681.52	423.64
681.66	365.12
681.80	414.27
681.94	416.62
682.07	374.49
682.21	311.29
682.35	367.46
682.49	308.95
682.62	313.63
682.76	395.55
682.90	376.83
683.04	423.64
683.17	315.97
683.31	278.52
683.45	273.84
683.59	390.87
683.72	346.40
683.86	278.52
684.00	285.55
684.13	308.95
684.27	297.25
684.41	285.55
684.55	283.20
684.68	330.02
684.82	264.48
684.96	313.63
685.09	351.08
685.23	369.80
685.37	315.97
685.50	334.70
685.64	318.31
685.78	341.72
685.91	376.83
686.05	388.53
686.19	393.21
686.32	416.62
686.46	540.66
686.60	491.51
686.73	669.39
686.87	610.88
687.01	624.92
687.14	655.35
687.28	683.44
687.42	748.97
687.55	837.91
687.69	767.70
687.82	837.91
687.96	774.72
688.10	809.83
688.23	699.82
688.37	704.50
688.50	681.10
688.64	599.18
688.78	648.33
688.91	468.11
689.05	519.60
689.18	414.27
689.32	447.04
689.46	322.99
689.59	423.64
689.73	330.02
689.86	348.74
690.00	273.84
690.13	322.99
690.27	205.97
690.41	304.27
690.54	315.97
690.68	437.68
690.81	372.15
690.95	262.14
691.08	322.99
691.22	208.31
691.35	266.82
691.49	191.92
691.62	252.78
691.76	234.05
691.89	245.76
692.03	217.67
692.16	196.60
692.30	203.63
692.43	285.55
692.57	264.48
692.70	292.57
692.84	220.01
692.97	322.99
693.11	341.72
693.24	465.77
693.38	468.11
693.51	601.52
693.65	748.97
693.78	758.33
693.92	699.82
694.05	550.03
694.19	493.85
694.32	456.40
694.45	379.17
694.59	313.63
694.72	320.65
694.86	236.39
694.99	304.27
695.13	245.76
695.26	271.50
695.39	210.65
695.53	257.46
695.66	163.84
695.80	248.10
695.93	180.22
696.07	201.29
696.20	241.08
696.33	250.44
696.47	269.16
696.60	252.78
696.73	264.48
696.87	224.69
697.00	330.02
697.14	236.39
697.27	238.73
697.40	245.76
697.54	203.63
697.67	147.45
697.80	245.76
697.94	177.88
698.07	168.52
698.21	102.98
698.34	238.73
698.47	168.52
698.61	131.07
698.74	194.26
698.87	250.44
699.01	170.86
699.14	166.18
699.27	212.99
699.40	269.16
699.54	173.20
699.67	203.63
699.80	198.95
699.94	133.41
700.07	135.75
700.20	234.05
700.34	156.82
700.47	180.22
700.60	184.90
700.73	166.18
700.87	208.31
701.00	168.52
701.13	163.84
701.26	156.82
701.40	177.88
701.53	220.01
701.66	201.29
701.79	236.39
701.93	208.31
702.06	259.80
702.19	156.82
702.32	159.16
702.46	215.33
702.59	168.52
702.72	145.11
702.85	177.88
702.99	203.63
703.12	276.18
703.25	201.29
703.38	189.58
703.51	203.63
703.65	243.42
703.78	287.89
703.91	215.33
704.04	255.12
704.17	245.76
704.31	238.73
704.44	269.16
704.57	238.73
704.70	301.93
704.83	365.12
704.96	348.74
705.10	351.08
705.23	360.44
>>>>>End Processed Spectral Data<<<<<
