SpectraSuite Data File
++++++++++++++++++++++++++++++++++++
Date: Fri Oct 04 11:42:02 GMT-05:00 2013
User: price-jones
Dark Spectrum Present: No
Reference Spectrum Present: No
Number of Sampled Component Spectra: 1
Spectrometers: USB2+H05261
Integration Time (usec): 100000 (USB2+H05261)
Spectra Averaged: 1 (USB2+H05261)
Boxcar Smoothing: 0 (USB2+H05261)
Correct for Electrical Dark: No (USB2+H05261)
Strobe/Lamp Enabled: No (USB2+H05261)
Correct for Detector Non-linearity: No (USB2+H05261)
Correct for Stray Light: No (USB2+H05261)
Number of Pixels in Processed Spectrum: 2048
>>>>>Begin Processed Spectral Data<<<<<
365.73	18.72
365.92	18.72
366.12	18.72
366.32	0.00
366.52	0.00
366.72	0.00
366.91	0.00
367.11	0.00
367.31	0.00
367.51	0.00
367.70	0.00
367.90	0.00
368.10	0.00
368.30	0.00
368.49	0.00
368.69	0.00
368.89	0.00
369.09	0.00
369.28	0.00
369.48	0.00
369.68	0.00
369.87	0.00
370.07	0.00
370.27	0.00
370.47	0.00
370.66	53.83
370.86	21.06
371.06	74.90
371.25	159.16
371.45	95.96
371.65	112.35
371.84	53.83
372.04	23.41
372.24	84.26
372.44	105.32
372.63	154.48
372.83	67.88
373.03	70.22
373.22	110.01
373.42	65.54
373.62	95.96
373.81	182.56
374.01	138.09
374.21	105.32
374.40	98.30
374.60	70.22
374.79	117.03
374.99	119.37
375.19	138.09
375.38	124.05
375.58	131.07
375.78	189.58
375.97	166.18
376.17	241.08
376.37	189.58
376.56	208.31
376.76	100.64
376.95	138.09
377.15	107.66
377.35	102.98
377.54	161.50
377.74	147.45
377.93	110.01
378.13	147.45
378.33	88.94
378.52	112.35
378.72	168.52
378.91	128.73
379.11	67.88
379.31	170.86
379.50	79.58
379.70	180.22
379.89	81.92
380.09	147.45
380.28	84.26
380.48	180.22
380.68	77.24
380.87	147.45
381.07	149.79
381.26	170.86
381.46	201.29
381.65	135.75
381.85	140.43
382.04	58.51
382.24	131.07
382.43	131.07
382.63	117.03
382.83	126.39
383.02	156.82
383.22	159.16
383.41	149.79
383.61	140.43
383.80	100.64
384.00	194.26
384.19	140.43
384.39	63.19
384.58	119.37
384.78	177.88
384.97	161.50
385.17	149.79
385.36	102.98
385.56	170.86
385.75	110.01
385.95	159.16
386.14	93.62
386.34	154.48
386.53	138.09
386.72	37.45
386.92	102.98
387.11	161.50
387.31	70.22
387.50	72.56
387.70	105.32
387.89	93.62
388.09	121.71
388.28	177.88
388.48	91.28
388.67	60.85
388.86	121.71
389.06	128.73
389.25	117.03
389.45	145.11
389.64	79.58
389.84	182.56
390.03	205.97
390.22	145.11
390.42	177.88
390.61	107.66
390.81	163.84
391.00	175.54
391.19	191.92
391.39	168.52
391.58	100.64
391.78	133.41
391.97	145.11
392.16	65.54
392.36	81.92
392.55	140.43
392.75	126.39
392.94	140.43
393.13	147.45
393.33	135.75
393.52	117.03
393.71	175.54
393.91	95.96
394.10	147.45
394.29	91.28
394.49	133.41
394.68	196.60
394.88	105.32
395.07	159.16
395.26	88.94
395.46	114.69
395.65	236.39
395.84	117.03
396.04	198.95
396.23	194.26
396.42	138.09
396.62	128.73
396.81	142.77
397.00	135.75
397.19	166.18
397.39	154.48
397.58	124.05
397.77	140.43
397.97	131.07
398.16	135.75
398.35	154.48
398.55	159.16
398.74	229.37
398.93	154.48
399.12	152.13
399.32	182.56
399.51	222.35
399.70	145.11
399.90	224.69
400.09	163.84
400.28	198.95
400.47	175.54
400.67	184.90
400.86	194.26
401.05	128.73
401.24	198.95
401.44	287.89
401.63	191.92
401.82	175.54
402.01	147.45
402.21	177.88
402.40	234.05
402.59	215.33
402.78	227.03
402.97	259.80
403.17	217.67
403.36	315.97
403.55	390.87
403.74	716.20
403.93	2319.47
404.13	5666.44
404.32	9390.23
404.51	10157.92
404.70	6377.96
404.89	2347.56
405.09	685.78
405.28	308.95
405.47	245.76
405.66	196.60
405.85	250.44
406.05	189.58
406.24	205.97
406.43	215.33
406.62	229.37
406.81	212.99
407.00	353.42
407.20	662.37
407.39	1259.21
407.58	1547.09
407.77	1081.33
407.96	627.26
408.15	306.61
408.34	271.50
408.54	266.82
408.73	168.52
408.92	222.35
409.11	259.80
409.30	311.29
409.49	229.37
409.68	159.16
409.87	236.39
410.07	194.26
410.26	234.05
410.45	229.37
410.64	191.92
410.83	203.63
411.02	220.01
411.21	285.55
411.40	271.50
411.59	255.12
411.78	255.12
411.98	248.10
412.17	220.01
412.36	238.73
412.55	238.73
412.74	273.84
412.93	224.69
413.12	248.10
413.31	332.36
413.50	241.08
413.69	262.14
413.88	266.82
414.07	297.25
414.26	227.03
414.45	208.31
414.64	280.86
414.83	217.67
415.02	271.50
415.22	315.97
415.41	262.14
415.60	273.84
415.79	322.99
415.98	337.04
416.17	259.80
416.36	271.50
416.55	208.31
416.74	301.93
416.93	341.72
417.12	306.61
417.31	276.18
417.50	243.42
417.69	315.97
417.88	238.73
418.07	299.59
418.26	306.61
418.45	269.16
418.64	339.38
418.83	212.99
419.02	351.08
419.21	306.61
419.39	311.29
419.58	262.14
419.77	334.70
419.96	330.02
420.15	308.95
420.34	294.91
420.53	393.21
420.72	306.61
420.91	313.63
421.10	376.83
421.29	315.97
421.48	353.42
421.67	327.68
421.86	283.20
422.05	299.59
422.24	332.36
422.43	353.42
422.61	383.85
422.80	367.46
422.99	362.78
423.18	355.76
423.37	400.23
423.56	348.74
423.75	404.91
423.94	372.15
424.13	320.65
424.32	325.33
424.50	280.86
424.69	404.91
424.88	397.89
425.07	346.40
425.26	379.17
425.45	365.12
425.64	346.40
425.83	465.77
426.01	372.15
426.20	409.59
426.39	325.33
426.58	341.72
426.77	484.49
426.96	402.57
427.15	489.17
427.33	360.44
427.52	341.72
427.71	411.93
427.90	407.25
428.09	348.74
428.28	358.10
428.46	416.62
428.65	482.15
428.84	435.34
429.03	514.92
429.22	421.30
429.40	425.98
429.59	425.98
429.78	484.49
429.97	442.36
430.16	334.70
430.34	369.80
430.53	521.94
430.72	437.68
430.91	433.00
431.10	470.45
431.28	482.15
431.47	489.17
431.66	531.30
431.85	503.22
432.03	496.19
432.22	519.60
432.41	582.79
432.60	634.29
432.79	533.64
432.97	641.31
433.16	660.03
433.35	720.88
433.54	704.50
433.72	882.38
433.91	891.74
434.10	844.93
434.28	997.07
434.47	1261.55
434.66	1406.66
434.85	1617.31
435.03	3737.84
435.22	13748.31
435.41	35138.46
435.59	47744.59
435.78	35419.33
435.97	16177.78
436.16	6239.87
436.34	2097.12
436.53	1060.26
436.72	947.92
436.90	758.33
437.09	688.12
437.28	655.35
437.46	615.56
437.65	716.20
437.84	624.92
438.02	716.20
438.21	648.33
438.40	585.13
438.58	573.43
438.77	601.52
438.96	526.62
439.14	566.41
439.33	655.35
439.52	601.52
439.70	674.07
439.89	603.86
440.08	559.39
440.26	496.19
440.45	613.22
440.63	550.03
440.82	608.54
441.01	615.56
441.19	582.79
441.38	575.77
441.57	543.00
441.75	545.34
441.94	526.62
442.12	592.16
442.31	510.24
442.50	557.05
442.68	552.37
442.87	580.45
443.05	510.24
443.24	547.69
443.43	552.37
443.61	610.88
443.80	538.32
443.98	540.66
444.17	557.05
444.35	468.11
444.54	510.24
444.73	547.69
444.91	582.79
445.10	550.03
445.28	521.94
445.47	575.77
445.65	571.09
445.84	498.53
446.02	589.82
446.21	627.26
446.39	517.26
446.58	540.66
446.77	589.82
446.95	512.58
447.14	543.00
447.32	587.47
447.51	622.58
447.69	589.82
447.88	594.50
448.06	636.63
448.25	561.73
448.43	566.41
448.62	477.47
448.80	484.49
448.99	564.07
449.17	571.09
449.36	627.26
449.54	589.82
449.73	550.03
449.91	573.43
450.10	564.07
450.28	739.61
450.46	601.52
450.65	667.05
450.83	594.50
451.02	559.39
451.20	587.47
451.39	538.32
451.57	599.18
451.76	587.47
451.94	613.22
452.13	601.52
452.31	575.77
452.49	587.47
452.68	451.72
452.86	517.26
453.05	629.60
453.23	561.73
453.42	566.41
453.60	545.34
453.78	575.77
453.97	503.22
454.15	458.74
454.34	552.37
454.52	559.39
454.70	554.71
454.89	491.51
455.07	543.00
455.26	517.26
455.44	592.16
455.62	662.37
455.81	531.30
455.99	521.94
456.17	540.66
456.36	507.90
456.54	559.39
456.73	535.98
456.91	596.84
457.09	608.54
457.28	564.07
457.46	519.60
457.64	533.64
457.83	571.09
458.01	514.92
458.19	535.98
458.38	463.43
458.56	538.32
458.74	550.03
458.93	638.97
459.11	582.79
459.29	531.30
459.48	580.45
459.66	552.37
459.84	561.73
460.03	676.41
460.21	587.47
460.39	540.66
460.57	603.86
460.76	559.39
460.94	615.56
461.12	575.77
461.31	582.79
461.49	514.92
461.67	484.49
461.85	566.41
462.04	526.62
462.22	973.66
462.40	545.34
462.59	594.50
462.77	540.66
462.95	517.26
463.13	451.72
463.32	505.56
463.50	589.82
463.68	566.41
463.86	486.83
464.05	503.22
464.23	617.90
464.41	585.13
464.59	484.49
464.78	592.16
464.96	531.30
465.14	559.39
465.32	486.83
465.50	589.82
465.69	528.96
465.87	456.40
466.05	547.69
466.23	512.58
466.41	615.56
466.60	606.20
466.78	603.86
466.96	582.79
467.14	552.37
467.32	655.35
467.51	528.96
467.69	475.13
467.87	543.00
468.05	465.77
468.23	561.73
468.41	585.13
468.60	535.98
468.78	458.74
468.96	566.41
469.14	517.26
469.32	418.96
469.50	407.25
469.69	470.45
469.87	433.00
470.05	456.40
470.23	543.00
470.41	458.74
470.59	475.13
470.77	496.19
470.95	550.03
471.14	608.54
471.32	606.20
471.50	517.26
471.68	524.28
471.86	500.87
472.04	486.83
472.22	552.37
472.40	561.73
472.58	458.74
472.77	442.36
472.95	543.00
473.13	667.05
473.31	589.82
473.49	517.26
473.67	500.87
473.85	479.81
474.03	582.79
474.21	519.60
474.39	610.88
474.57	573.43
474.75	437.68
474.93	491.51
475.12	510.24
475.30	592.16
475.48	554.71
475.66	601.52
475.84	512.58
476.02	528.96
476.20	585.13
476.38	559.39
476.56	592.16
476.74	528.96
476.92	578.11
477.10	521.94
477.28	564.07
477.46	566.41
477.64	655.35
477.82	603.86
478.00	613.22
478.18	629.60
478.36	547.69
478.54	638.97
478.72	683.44
478.90	627.26
479.08	671.73
479.26	678.76
479.44	662.37
479.62	692.80
479.80	758.33
479.98	690.46
480.16	751.31
480.34	828.55
480.52	795.78
480.70	840.25
480.88	814.51
481.06	856.64
481.24	887.06
481.41	903.45
481.59	1086.01
481.77	1104.73
481.95	1188.99
482.13	1273.25
482.31	1385.60
482.49	1444.11
482.67	1486.24
482.85	1572.84
483.03	1813.92
483.21	1830.30
483.39	1940.30
483.57	2045.63
483.74	2242.23
483.92	2221.17
484.10	2452.88
484.28	2731.41
484.46	2796.94
484.64	2839.07
484.82	2920.99
485.00	3232.28
485.18	3496.76
485.35	3592.72
485.53	3604.42
485.71	3864.22
485.89	4086.58
486.07	4154.45
486.25	4175.52
486.43	4353.40
486.61	4191.90
486.78	4360.42
486.96	4250.41
487.14	4287.86
487.32	4287.86
487.50	4114.66
487.68	4109.98
487.85	4175.52
488.03	4002.32
488.21	4133.39
488.39	3824.44
488.57	3843.16
488.75	3775.28
488.92	3871.25
489.10	3630.17
489.28	3515.48
489.46	3475.70
489.64	3337.60
489.81	3398.46
489.99	3375.05
490.17	3304.84
490.35	3232.28
490.53	3126.96
490.70	3251.00
490.88	3040.36
491.06	3215.90
491.24	3487.40
491.41	3653.58
491.59	3480.38
491.77	3206.53
491.95	3112.91
492.13	3035.67
492.30	2904.60
492.48	2827.37
492.66	2963.12
492.84	2829.71
493.01	2780.56
493.19	2670.55
493.37	2722.04
493.54	2684.59
493.72	2733.75
493.90	2583.95
494.08	2509.05
494.25	2490.33
494.43	2452.88
494.61	2370.96
494.79	2455.22
494.96	2422.45
495.14	2342.88
495.32	2190.74
495.49	2235.21
495.67	2232.87
495.85	2090.10
496.02	2216.49
496.20	2066.69
496.38	2106.48
496.55	2064.35
496.73	2104.14
496.91	2045.63
497.09	1902.86
497.26	1881.79
497.44	1860.73
497.62	1717.95
497.79	1834.98
497.97	1797.53
498.14	1762.42
498.32	1631.35
498.50	1708.59
498.67	1621.99
498.85	1561.14
499.03	1455.81
499.20	1537.73
499.38	1462.83
499.56	1547.09
499.73	1549.43
499.91	1446.45
500.08	1296.66
500.26	1277.93
500.44	1233.46
500.61	1193.67
500.79	1205.38
500.97	1167.93
501.14	1181.97
501.32	1118.78
501.49	1076.65
501.67	1088.35
501.84	1027.50
502.02	959.62
502.20	999.41
502.37	952.60
502.55	894.08
502.72	880.04
502.90	866.00
503.07	784.08
503.25	798.12
503.43	882.38
503.60	753.65
503.78	793.44
503.95	784.08
504.13	744.29
504.30	826.21
504.48	800.46
504.65	755.99
504.83	711.52
505.01	678.76
505.18	662.37
505.36	709.18
505.53	683.44
505.71	683.44
505.88	690.46
506.06	575.77
506.23	599.18
506.41	655.35
506.58	543.00
506.76	559.39
506.93	599.18
507.11	610.88
507.28	636.63
507.46	592.16
507.63	601.52
507.81	568.75
507.98	606.20
508.16	617.90
508.33	503.22
508.50	559.39
508.68	636.63
508.85	645.99
509.03	662.37
509.20	599.18
509.38	596.84
509.55	507.90
509.73	561.73
509.90	566.41
510.08	526.62
510.25	486.83
510.42	521.94
510.60	561.73
510.77	540.66
510.95	550.03
511.12	456.40
511.30	514.92
511.47	505.56
511.64	578.11
511.82	571.09
511.99	449.38
512.17	472.79
512.34	545.34
512.51	585.13
512.69	526.62
512.86	528.96
513.04	526.62
513.21	493.85
513.38	505.56
513.56	528.96
513.73	416.62
513.90	430.66
514.08	447.04
514.25	418.96
514.43	435.34
514.60	409.59
514.77	421.30
514.95	482.15
515.12	341.72
515.29	470.45
515.47	484.49
515.64	421.30
515.81	486.83
515.99	437.68
516.16	402.57
516.33	463.43
516.51	479.81
516.68	421.30
516.85	397.89
517.03	421.30
517.20	521.94
517.37	397.89
517.54	374.49
517.72	362.78
517.89	395.55
518.06	437.68
518.24	374.49
518.41	463.43
518.58	393.21
518.75	435.34
518.93	442.36
519.10	454.06
519.27	486.83
519.45	404.91
519.62	402.57
519.79	411.93
519.96	379.17
520.14	414.27
520.31	388.53
520.48	390.87
520.65	451.72
520.83	433.00
521.00	409.59
521.17	433.00
521.34	381.51
521.52	337.04
521.69	418.96
521.86	404.91
522.03	435.34
522.20	428.32
522.38	252.78
522.55	390.87
522.72	376.83
522.89	433.00
523.07	472.79
523.24	383.85
523.41	390.87
523.58	442.36
523.75	404.91
523.92	362.78
524.10	465.77
524.27	430.66
524.44	447.04
524.61	489.17
524.78	402.57
524.96	402.57
525.13	470.45
525.30	486.83
525.47	521.94
525.64	468.11
525.81	601.52
525.98	440.02
526.16	442.36
526.33	475.13
526.50	433.00
526.67	440.02
526.84	500.87
527.01	521.94
527.18	554.71
527.36	564.07
527.53	608.54
527.70	561.73
527.87	517.26
528.04	545.34
528.21	463.43
528.38	631.94
528.55	519.60
528.72	573.43
528.89	524.28
529.07	528.96
529.24	627.26
529.41	575.77
529.58	545.34
529.75	521.94
529.92	624.92
530.09	603.86
530.26	636.63
530.43	615.56
530.60	636.63
530.77	706.84
530.94	667.05
531.11	601.52
531.28	657.69
531.46	678.76
531.63	741.95
531.80	727.91
531.97	826.21
532.14	961.96
532.31	1078.99
532.48	1261.55
532.65	1657.10
532.82	1842.00
532.99	2083.08
533.16	2499.69
533.33	2635.44
533.50	2387.35
533.67	2115.84
533.84	1802.21
534.01	1514.33
534.18	1507.30
534.35	1409.00
534.52	1371.55
534.69	1507.30
534.86	1486.24
535.03	1577.52
535.20	1570.50
535.37	1750.72
535.54	1891.15
535.71	1907.54
535.88	2118.18
536.05	2216.49
536.22	2375.64
536.38	2541.82
536.55	2729.06
536.72	3166.74
536.89	3576.34
537.06	3871.25
537.23	4334.67
537.40	4557.02
537.57	5097.69
537.74	5441.75
537.91	5621.97
538.08	5645.37
538.25	5743.67
538.42	5811.55
538.59	6066.67
538.75	6153.27
538.92	6626.06
539.09	7105.87
539.26	7887.61
539.43	8889.35
539.60	9977.70
539.77	11363.30
539.94	12886.99
540.11	14211.73
540.28	15847.77
540.44	16966.54
540.61	18616.62
540.78	21532.93
540.95	25998.67
541.12	30965.29
541.29	35164.21
541.46	37546.87
541.62	37961.15
541.79	35929.56
541.96	33816.06
542.13	31131.47
542.30	29113.92
542.47	26890.41
542.63	25434.60
542.80	24577.97
542.97	24056.03
543.14	24126.24
543.31	24269.01
543.48	24582.65
543.64	24856.49
543.81	24554.56
543.98	25170.12
544.15	25401.83
544.32	25453.33
544.48	25336.30
544.65	24950.11
544.82	24657.54
544.99	24685.63
545.16	25022.67
545.32	25909.73
545.49	38150.73
545.66	59192.15
545.83	65535.00
546.00	65535.00
546.16	60680.73
546.33	43906.11
546.50	33020.28
546.67	26139.10
546.83	23295.35
547.00	22199.98
547.17	21008.65
547.34	20042.01
547.50	19124.52
547.67	18588.53
547.84	17734.24
548.00	16727.81
548.17	16393.11
548.34	15396.04
548.51	14911.55
548.67	14317.06
548.84	13745.97
549.01	12854.22
549.18	12535.91
549.34	11831.41
549.51	11775.24
549.68	11080.10
549.84	10778.17
550.01	9996.43
550.18	9647.69
550.34	9376.19
550.51	8865.95
550.68	8425.93
550.84	8021.02
551.01	7595.04
551.18	7084.80
551.34	6722.02
551.51	6523.07
551.68	6300.72
551.84	6066.67
552.01	5757.72
552.18	5444.09
552.34	5193.65
552.51	5050.88
552.68	4919.81
552.84	4603.83
553.01	4540.64
553.18	4444.68
553.34	4320.63
553.51	4119.34
553.67	3983.59
553.84	3861.88
554.01	3599.74
554.17	3379.73
554.34	2949.08
554.51	2965.46
554.67	2857.79
554.84	2595.65
555.00	2607.36
555.17	2321.81
555.33	2342.88
555.50	2223.51
555.67	2099.46
555.83	1912.22
556.00	1872.43
556.16	2003.50
556.33	1760.08
556.50	1753.06
556.66	1739.02
556.83	1640.72
556.99	1572.84
557.16	1591.56
557.32	1404.32
557.49	1481.56
557.65	1392.62
557.82	1390.28
557.98	1357.51
558.15	1219.42
558.32	1188.99
558.48	1158.57
558.65	1170.27
558.81	1132.82
558.98	1053.24
559.14	1186.65
559.31	1020.47
559.47	1071.97
559.64	1107.07
559.80	1025.15
559.97	1064.94
560.13	976.00
560.30	1013.45
560.46	987.71
560.63	980.68
560.79	1004.09
560.96	943.24
561.12	891.74
561.29	980.68
561.45	908.13
561.61	1027.50
561.78	1022.81
561.94	987.71
562.11	1053.24
562.27	938.55
562.44	1029.84
562.60	1004.09
562.77	959.62
562.93	992.39
563.10	912.81
563.26	891.74
563.42	833.23
563.59	908.13
563.75	809.83
563.92	849.61
564.08	840.25
564.24	898.77
564.41	844.93
564.57	725.57
564.74	751.31
564.90	816.85
565.07	884.72
565.23	805.14
565.39	685.78
565.56	751.31
565.72	774.72
565.88	730.25
566.05	685.78
566.21	821.53
566.38	755.99
566.54	781.74
566.70	678.76
566.87	877.70
567.03	739.61
567.19	779.40
567.36	873.02
567.52	805.14
567.68	861.32
567.85	802.80
568.01	763.01
568.17	781.74
568.34	788.76
568.50	753.65
568.66	744.29
568.83	875.36
568.99	770.04
569.15	730.25
569.32	716.20
569.48	653.01
569.64	692.80
569.81	620.24
569.97	678.76
570.13	725.57
570.30	468.11
570.46	578.11
570.62	624.92
570.78	575.77
570.95	638.97
571.11	580.45
571.27	617.90
571.43	505.56
571.60	484.49
571.76	475.13
571.92	582.79
572.09	585.13
572.25	550.03
572.41	540.66
572.57	592.16
572.74	575.77
572.90	571.09
573.06	564.07
573.22	564.07
573.38	643.65
573.55	550.03
573.71	615.56
573.87	601.52
574.03	645.99
574.20	636.63
574.36	706.84
574.52	678.76
574.68	755.99
574.84	770.04
575.01	805.14
575.17	938.55
575.33	884.72
575.49	919.83
575.65	1001.75
575.82	973.66
575.98	1167.93
576.14	1268.57
576.30	2324.15
576.46	7082.46
576.62	14630.69
576.79	20383.73
576.95	15122.20
577.11	9001.70
577.27	5987.09
577.43	3894.65
577.59	2562.89
577.75	2054.99
577.92	1760.08
578.08	1724.97
578.24	1893.49
578.40	2565.23
578.56	6668.19
578.72	13324.67
578.88	19850.08
579.04	13741.29
579.21	8308.90
579.37	6153.27
579.53	4622.56
579.69	4241.05
579.85	5287.27
580.01	6532.44
580.17	6679.89
580.33	5518.98
580.49	4559.36
580.65	4170.83
580.82	3829.12
580.98	3709.75
581.14	3632.51
581.30	3899.33
581.46	4079.55
581.62	4477.44
581.78	4608.51
581.94	5177.26
582.10	5310.68
582.26	5748.36
582.42	5809.21
582.58	6071.35
582.74	6047.94
582.90	6415.41
583.06	6286.68
583.22	6497.33
583.38	6480.94
583.54	6204.76
583.70	6256.25
583.86	6319.45
584.02	6101.78
584.18	5856.02
584.34	5930.92
584.50	5813.89
584.66	5610.26
584.82	5720.27
584.98	5643.03
585.14	5636.01
585.30	5497.92
585.46	5284.93
585.62	5104.71
585.78	5121.09
585.94	5259.18
586.10	5322.38
586.26	5476.85
586.42	6209.44
586.58	7283.75
586.74	9249.80
586.90	11101.16
587.06	12423.56
587.22	12514.84
587.38	11250.96
587.54	9886.42
587.70	8348.69
587.86	6967.77
588.02	5764.74
588.18	5315.36
588.34	4568.73
588.49	4257.43
588.65	3908.69
588.81	3892.31
588.97	3716.77
589.13	3492.08
589.29	3531.87
589.45	3335.26
589.61	3400.80
589.77	3386.76
589.93	3417.18
590.08	3571.66
590.24	3882.95
590.40	3801.03
590.56	3983.59
590.72	4030.40
590.88	4138.07
591.04	4276.16
591.20	4414.25
591.35	4475.10
591.51	4765.33
591.67	5046.20
591.83	5294.29
591.99	5799.85
592.15	6146.25
592.31	6916.28
592.46	7300.13
592.62	7983.57
592.78	8430.61
592.94	8854.25
593.10	8819.14
593.26	8477.42
593.41	7817.39
593.57	7169.06
593.73	6150.93
593.89	5488.56
594.05	4856.61
594.20	4379.14
594.36	3941.46
594.52	3700.39
594.68	3459.31
594.84	3414.84
594.99	3421.86
595.15	3272.07
595.31	3206.53
595.47	3159.72
595.62	3105.89
595.78	3225.26
595.94	3225.26
596.10	3199.51
596.25	3030.99
596.41	3138.66
596.57	3091.85
596.73	3176.11
596.88	3101.21
597.04	3152.70
597.20	3063.76
597.36	3243.98
597.51	3316.54
597.67	3485.06
597.83	3510.80
597.99	3719.11
598.14	3824.44
598.30	3887.63
598.46	4327.65
598.61	4667.03
598.77	4971.30
598.93	5109.39
599.09	5135.14
599.24	5401.96
599.40	5324.72
599.56	5104.71
599.71	4945.55
599.87	4662.35
600.03	4229.35
600.18	4037.42
600.34	3754.22
600.50	3489.74
600.65	3290.79
600.81	3274.41
600.97	2953.76
601.12	2857.79
601.28	2712.68
601.44	2623.74
601.59	2588.63
601.75	2366.28
601.91	2347.56
602.06	2246.91
602.22	2160.31
602.37	2139.25
602.53	2078.40
602.69	1998.82
602.84	1944.99
603.00	2022.22
603.16	2111.16
603.31	2324.15
603.47	2183.72
603.62	2214.15
603.78	2165.00
603.94	2167.34
604.09	2157.97
604.25	2328.83
604.40	2516.08
604.56	2345.22
604.71	2403.73
604.87	2473.95
605.03	2520.76
605.18	2525.44
605.34	2588.63
605.49	2663.53
605.65	2682.25
605.80	2806.30
605.96	2825.03
606.12	2857.79
606.27	3190.15
606.43	3260.37
606.58	3543.57
606.74	3489.74
606.89	3714.43
607.05	4018.70
607.20	4182.54
607.36	4329.99
607.51	4603.83
607.67	4727.88
607.82	5177.26
607.98	5617.29
608.13	6045.60
608.29	6431.79
608.44	7091.82
608.60	7808.03
608.75	8425.93
608.91	9259.16
609.06	10242.18
609.22	11126.91
609.37	12278.45
609.53	13748.31
609.68	15445.20
609.84	17895.74
609.99	20833.11
610.15	24690.31
610.30	30281.85
610.46	37579.64
610.61	47908.43
610.76	56002.00
610.92	61879.08
611.07	65359.46
611.23	65535.00
611.38	65352.44
611.54	62602.31
611.69	58637.44
611.84	53497.62
612.00	46766.24
612.15	39311.64
612.31	34143.74
612.46	30141.42
612.62	27997.49
612.77	26174.21
612.92	24987.56
613.08	23625.37
613.23	22485.53
613.39	21659.32
613.54	20954.82
613.69	20212.87
613.85	20011.58
614.00	19672.20
614.15	19550.49
614.31	19328.14
614.46	19054.30
614.62	18391.93
614.77	17750.62
614.92	16783.98
615.08	15454.56
615.23	14410.68
615.38	13240.41
615.54	11946.09
615.69	10923.28
615.84	10033.88
616.00	9329.38
616.15	8582.74
616.30	8255.07
616.46	7487.37
616.61	7290.77
616.76	6906.92
616.92	6527.75
617.07	6218.80
617.22	5762.40
617.37	5364.51
617.53	5158.54
617.68	5011.09
617.83	4786.40
617.99	4503.19
618.14	4620.22
618.29	4334.67
618.45	4285.52
618.60	4114.66
618.75	3999.98
618.90	4175.52
619.06	3950.82
619.21	4098.28
619.36	4058.49
619.51	4004.66
619.67	3939.12
619.82	3925.08
619.97	4159.13
620.12	4196.58
620.28	4201.26
620.43	4266.80
620.58	4273.82
620.73	4472.76
620.89	4381.48
621.04	4458.72
621.19	4428.29
621.34	4287.86
621.49	4138.07
621.65	4159.13
621.80	4170.83
621.95	4222.33
622.10	4152.11
622.25	4124.02
622.41	4465.74
622.56	4425.95
622.71	4472.76
622.86	4599.15
623.01	4685.75
623.16	4844.91
623.32	4826.18
623.47	4865.97
623.62	4779.37
623.77	4807.46
623.92	4620.22
624.07	4800.44
624.23	4814.48
624.38	4732.56
624.53	4676.39
624.68	4786.40
624.83	4863.63
624.98	4826.18
625.13	4880.02
625.29	4837.89
625.44	4875.34
625.59	4891.72
625.74	4751.29
625.89	4950.23
626.04	4908.10
626.19	4905.76
626.34	4844.91
626.49	4807.46
626.65	4800.44
626.80	4985.34
626.95	4847.25
627.10	4765.33
627.25	4592.13
627.40	4479.79
627.55	4477.44
627.70	4337.01
627.85	4229.35
628.00	4266.80
628.15	4344.03
628.30	4278.50
628.45	4124.02
628.60	4290.20
628.76	4367.44
628.91	4383.82
629.06	4432.97
629.21	4404.89
629.36	4517.23
629.51	4727.88
629.66	4919.81
629.81	5114.07
629.96	5603.24
630.11	6223.48
630.26	6972.46
630.41	7892.29
630.56	8634.24
630.71	9268.52
630.86	9715.56
631.01	9401.93
631.16	8702.11
631.31	7691.00
631.46	6827.34
631.61	5769.42
631.76	5001.72
631.91	4077.21
632.06	3583.36
632.21	3000.57
632.36	2513.74
632.51	2160.31
632.66	2204.78
632.81	1935.62
632.96	1856.04
633.10	1753.06
633.25	1739.02
633.40	1565.82
633.55	1502.62
633.70	1446.45
633.85	1448.79
634.00	1420.71
634.15	1383.26
634.30	1299.00
634.45	1343.47
634.60	1362.19
634.75	1299.00
634.90	1179.63
635.05	1245.16
635.19	1135.16
635.34	1193.67
635.49	1170.27
635.64	1107.07
635.79	1076.65
635.94	1139.84
636.09	1118.78
636.24	1032.18
636.39	1039.20
636.53	1043.88
636.68	992.39
636.83	1083.67
636.98	994.73
637.13	936.21
637.28	933.87
637.43	973.66
637.57	894.08
637.72	894.08
637.87	880.04
638.02	945.58
638.17	901.11
638.32	826.21
638.46	851.96
638.61	964.30
638.76	866.00
638.91	746.63
639.06	870.68
639.20	943.24
639.35	774.72
639.50	795.78
639.65	828.55
639.80	723.23
639.94	795.78
640.09	821.53
640.24	978.34
640.39	828.55
640.54	851.96
640.68	671.73
640.83	821.53
640.98	800.46
641.13	699.82
641.27	823.87
641.42	774.72
641.57	826.21
641.72	849.61
641.86	755.99
642.01	706.84
642.16	795.78
642.31	805.14
642.45	842.59
642.60	795.78
642.75	837.91
642.90	781.74
643.04	739.61
643.19	791.10
643.34	734.93
643.48	894.08
643.63	880.04
643.78	830.89
643.93	880.04
644.07	835.57
644.22	812.17
644.37	781.74
644.51	812.17
644.66	758.33
644.81	793.44
644.95	807.48
645.10	711.52
645.25	734.93
645.39	791.10
645.54	753.65
645.69	753.65
645.83	779.40
645.98	784.08
646.13	720.88
646.27	711.52
646.42	720.88
646.57	716.20
646.71	688.12
646.86	772.38
647.00	751.31
647.15	779.40
647.30	669.39
647.44	716.20
647.59	704.50
647.74	683.44
647.88	690.46
648.03	692.80
648.17	800.46
648.32	711.52
648.47	746.63
648.61	741.95
648.76	816.85
648.90	779.40
649.05	816.85
649.20	898.77
649.34	983.02
649.49	1025.15
649.63	1287.29
649.78	1462.83
649.92	1783.49
650.07	2099.46
650.21	2607.36
650.36	2782.90
650.51	2546.50
650.65	2621.40
650.80	2155.63
650.94	2050.31
651.09	1872.43
651.23	1584.54
651.38	1448.79
651.52	1273.25
651.67	1240.48
651.81	1118.78
651.96	1097.71
652.10	990.05
652.25	1086.01
652.39	1043.88
652.54	1125.80
652.68	1165.59
652.83	1221.76
652.97	1256.87
653.12	1294.32
653.26	1310.70
653.41	1109.41
653.55	1111.75
653.70	1011.11
653.84	945.58
653.99	924.51
654.13	870.68
654.27	809.83
654.42	798.12
654.56	880.04
654.71	760.67
654.85	748.97
655.00	692.80
655.14	720.88
655.29	767.70
655.43	737.27
655.57	732.59
655.72	678.76
655.86	706.84
656.01	683.44
656.15	725.57
656.30	734.93
656.44	664.71
656.58	676.41
656.73	751.31
656.87	720.88
657.01	732.59
657.16	840.25
657.30	760.67
657.45	858.98
657.59	875.36
657.73	821.53
657.88	837.91
658.02	933.87
658.16	842.59
658.31	784.08
658.45	704.50
658.60	660.03
658.74	725.57
658.88	660.03
659.03	667.05
659.17	566.41
659.31	540.66
659.46	498.53
659.60	589.82
659.74	521.94
659.89	552.37
660.03	505.56
660.17	592.16
660.32	454.06
660.46	568.75
660.60	463.43
660.74	615.56
660.89	540.66
661.03	578.11
661.17	526.62
661.32	739.61
661.46	723.23
661.60	826.21
661.74	1006.43
661.89	1261.55
662.03	1341.13
662.17	1514.33
662.31	1579.86
662.46	1537.73
662.60	1502.62
662.74	1317.72
662.88	1277.93
663.03	1004.09
663.17	933.87
663.31	908.13
663.45	744.29
663.60	685.78
663.74	688.12
663.88	681.10
664.02	676.41
664.17	606.20
664.31	608.54
664.45	568.75
664.59	568.75
664.73	571.09
664.88	564.07
665.02	498.53
665.16	587.47
665.30	587.47
665.44	512.58
665.59	526.62
665.73	496.19
665.87	475.13
666.01	491.51
666.15	517.26
666.29	421.30
666.44	507.90
666.58	582.79
666.72	524.28
666.86	615.56
667.00	578.11
667.14	447.04
667.28	575.77
667.43	521.94
667.57	568.75
667.71	606.20
667.85	566.41
667.99	517.26
668.13	482.15
668.27	545.34
668.41	475.13
668.56	526.62
668.70	566.41
668.84	496.19
668.98	573.43
669.12	491.51
669.26	477.47
669.40	526.62
669.54	449.38
669.68	435.34
669.82	475.13
669.96	447.04
670.10	428.32
670.25	428.32
670.39	568.75
670.53	430.66
670.67	397.89
670.81	428.32
670.95	400.23
671.09	475.13
671.23	535.98
671.37	433.00
671.51	470.45
671.65	491.51
671.79	456.40
671.93	447.04
672.07	514.92
672.21	411.93
672.35	423.64
672.49	500.87
672.63	416.62
672.77	463.43
672.91	390.87
673.05	404.91
673.19	421.30
673.33	358.10
673.47	461.09
673.61	430.66
673.75	416.62
673.89	393.21
674.03	418.96
674.17	397.89
674.31	440.02
674.45	433.00
674.59	435.34
674.73	421.30
674.87	449.38
675.01	461.09
675.15	332.36
675.29	458.74
675.43	468.11
675.56	428.32
675.70	388.53
675.84	430.66
675.98	362.78
676.12	376.83
676.26	393.21
676.40	404.91
676.54	383.85
676.68	367.46
676.82	351.08
676.96	322.99
677.10	369.80
677.23	435.34
677.37	374.49
677.51	355.76
677.65	437.68
677.79	411.93
677.93	383.85
678.07	372.15
678.21	397.89
678.34	358.10
678.48	390.87
678.62	414.27
678.76	344.06
678.90	351.08
679.04	383.85
679.18	320.65
679.31	362.78
679.45	395.55
679.59	416.62
679.73	334.70
679.87	304.27
680.00	447.04
680.14	362.78
680.28	430.66
680.42	381.51
680.56	465.77
680.70	425.98
680.83	404.91
680.97	433.00
681.11	442.36
681.25	435.34
681.39	465.77
681.52	458.74
681.66	435.34
681.80	425.98
681.94	348.74
682.07	360.44
682.21	390.87
682.35	308.95
682.49	344.06
682.62	442.36
682.76	397.89
682.90	400.23
683.04	369.80
683.17	362.78
683.31	355.76
683.45	369.80
683.59	339.38
683.72	400.23
683.86	409.59
684.00	372.15
684.13	320.65
684.27	334.70
684.41	360.44
684.55	379.17
684.68	411.93
684.82	301.93
684.96	351.08
685.09	339.38
685.23	348.74
685.37	322.99
685.50	407.25
685.64	355.76
685.78	365.12
685.91	367.46
686.05	472.79
686.19	423.64
686.32	470.45
686.46	538.32
686.60	507.90
686.73	587.47
686.87	535.98
687.01	674.07
687.14	755.99
687.28	814.51
687.42	849.61
687.55	880.04
687.69	961.96
687.82	896.43
687.96	964.30
688.10	880.04
688.23	791.10
688.37	812.17
688.50	681.10
688.64	641.31
688.78	573.43
688.91	557.05
689.05	550.03
689.18	442.36
689.32	447.04
689.46	470.45
689.59	458.74
689.73	327.68
689.86	290.23
690.00	273.84
690.13	353.42
690.27	234.05
690.41	372.15
690.54	411.93
690.68	374.49
690.81	435.34
690.95	327.68
691.08	358.10
691.22	262.14
691.35	320.65
691.49	234.05
691.62	252.78
691.76	220.01
691.89	351.08
692.03	264.48
692.16	152.13
692.30	266.82
692.43	201.29
692.57	266.82
692.70	290.23
692.84	292.57
692.97	325.33
693.11	386.19
693.24	484.49
693.38	540.66
693.51	620.24
693.65	770.04
693.78	741.95
693.92	744.29
694.05	653.01
694.19	620.24
694.32	465.77
694.45	423.64
694.59	388.53
694.72	290.23
694.86	287.89
694.99	308.95
695.13	360.44
695.26	273.84
695.39	283.20
695.53	308.95
695.66	231.71
695.80	264.48
695.93	231.71
696.07	266.82
696.20	285.55
696.33	278.52
696.47	322.99
696.60	262.14
696.73	348.74
696.87	238.73
697.00	212.99
697.14	177.88
697.27	177.88
697.40	259.80
697.54	180.22
697.67	182.56
697.80	156.82
697.94	229.37
698.07	152.13
698.21	102.98
698.34	156.82
698.47	191.92
698.61	161.50
698.74	140.43
698.87	236.39
699.01	180.22
699.14	154.48
699.27	212.99
699.40	325.33
699.54	220.01
699.67	177.88
699.80	224.69
699.94	196.60
700.07	124.05
700.20	168.52
700.34	170.86
700.47	166.18
700.60	142.77
700.73	166.18
700.87	229.37
701.00	184.90
701.13	215.33
701.26	229.37
701.40	201.29
701.53	182.56
701.66	173.20
701.79	220.01
701.93	180.22
702.06	266.82
702.19	220.01
702.32	210.65
702.46	175.54
702.59	180.22
702.72	140.43
702.85	215.33
702.99	198.95
703.12	217.67
703.25	159.16
703.38	236.39
703.51	294.91
703.65	355.76
703.78	330.02
703.91	287.89
704.04	292.57
704.17	294.91
704.31	297.25
704.44	369.80
704.57	341.72
704.70	334.70
704.83	257.46
704.96	423.64
705.10	367.46
705.23	435.34
>>>>>End Processed Spectral Data<<<<<
