SpectraSuite Data File
++++++++++++++++++++++++++++++++++++
Date: Fri Oct 04 11:41:54 GMT-05:00 2013
User: price-jones
Dark Spectrum Present: No
Reference Spectrum Present: No
Number of Sampled Component Spectra: 1
Spectrometers: USB2+H05261
Integration Time (usec): 100000 (USB2+H05261)
Spectra Averaged: 1 (USB2+H05261)
Boxcar Smoothing: 0 (USB2+H05261)
Correct for Electrical Dark: No (USB2+H05261)
Strobe/Lamp Enabled: No (USB2+H05261)
Correct for Detector Non-linearity: No (USB2+H05261)
Correct for Stray Light: No (USB2+H05261)
Number of Pixels in Processed Spectrum: 2048
>>>>>Begin Processed Spectral Data<<<<<
365.73	0.00
365.92	0.00
366.12	0.00
366.32	0.00
366.52	0.00
366.72	0.00
366.91	0.00
367.11	0.00
367.31	0.00
367.51	0.00
367.70	0.00
367.90	0.00
368.10	0.00
368.30	0.00
368.49	0.00
368.69	16.38
368.89	0.00
369.09	0.00
369.28	25.75
369.48	0.00
369.68	0.00
369.87	0.00
370.07	0.00
370.27	21.06
370.47	0.00
370.66	39.79
370.86	32.77
371.06	30.43
371.25	128.73
371.45	42.13
371.65	51.49
371.84	91.28
372.04	56.17
372.24	44.47
372.44	37.45
372.63	119.37
372.83	140.43
373.03	138.09
373.22	81.92
373.42	114.69
373.62	72.56
373.81	91.28
374.01	93.62
374.21	128.73
374.40	140.43
374.60	145.11
374.79	124.05
374.99	149.79
375.19	131.07
375.38	88.94
375.58	119.37
375.78	114.69
375.97	74.90
376.17	149.79
376.37	189.58
376.56	79.58
376.76	128.73
376.95	46.81
377.15	140.43
377.35	163.84
377.54	124.05
377.74	147.45
377.93	140.43
378.13	95.96
378.33	93.62
378.52	77.24
378.72	98.30
378.91	135.75
379.11	77.24
379.31	91.28
379.50	86.60
379.70	124.05
379.89	112.35
380.09	121.71
380.28	100.64
380.48	131.07
380.68	93.62
380.87	119.37
381.07	25.75
381.26	191.92
381.46	138.09
381.65	100.64
381.85	84.26
382.04	91.28
382.24	114.69
382.43	74.90
382.63	133.41
382.83	126.39
383.02	133.41
383.22	163.84
383.41	88.94
383.61	117.03
383.80	112.35
384.00	191.92
384.19	84.26
384.39	152.13
384.58	119.37
384.78	110.01
384.97	93.62
385.17	128.73
385.36	88.94
385.56	126.39
385.75	95.96
385.95	135.75
386.14	98.30
386.34	84.26
386.53	112.35
386.72	91.28
386.92	220.01
387.11	105.32
387.31	114.69
387.50	126.39
387.70	88.94
387.89	133.41
388.09	133.41
388.28	100.64
388.48	35.11
388.67	77.24
388.86	126.39
389.06	117.03
389.25	86.60
389.45	145.11
389.64	126.39
389.84	145.11
390.03	194.26
390.22	163.84
390.42	133.41
390.61	110.01
390.81	77.24
391.00	114.69
391.19	208.31
391.39	128.73
391.58	175.54
391.78	93.62
391.97	154.48
392.16	124.05
392.36	138.09
392.55	145.11
392.75	124.05
392.94	140.43
393.13	114.69
393.33	67.88
393.52	98.30
393.71	175.54
393.91	107.66
394.10	105.32
394.29	105.32
394.49	182.56
394.68	77.24
394.88	175.54
395.07	140.43
395.26	117.03
395.46	105.32
395.65	79.58
395.84	102.98
396.04	215.33
396.23	117.03
396.42	191.92
396.62	105.32
396.81	114.69
397.00	142.77
397.19	124.05
397.39	70.22
397.58	98.30
397.77	187.24
397.97	95.96
398.16	163.84
398.35	149.79
398.55	72.56
398.74	131.07
398.93	114.69
399.12	138.09
399.32	102.98
399.51	152.13
399.70	131.07
399.90	131.07
400.09	187.24
400.28	91.28
400.47	98.30
400.67	102.98
400.86	107.66
401.05	203.63
401.24	173.20
401.44	131.07
401.63	194.26
401.82	201.29
402.01	135.75
402.21	105.32
402.40	175.54
402.59	128.73
402.78	84.26
402.97	133.41
403.17	194.26
403.36	124.05
403.55	198.95
403.74	447.04
403.93	1315.38
404.13	2605.02
404.32	2794.60
404.51	2244.57
404.70	1299.00
404.89	573.43
405.09	308.95
405.28	227.03
405.47	175.54
405.66	189.58
405.85	241.08
406.05	147.45
406.24	133.41
406.43	149.79
406.62	194.26
406.81	173.20
407.00	250.44
407.20	351.08
407.39	433.00
407.58	472.79
407.77	306.61
407.96	283.20
408.15	152.13
408.34	175.54
408.54	114.69
408.73	168.52
408.92	173.20
409.11	201.29
409.30	163.84
409.49	100.64
409.68	114.69
409.87	194.26
410.07	95.96
410.26	156.82
410.45	196.60
410.64	163.84
410.83	131.07
411.02	135.75
411.21	121.71
411.40	159.16
411.59	175.54
411.78	173.20
411.98	131.07
412.17	194.26
412.36	187.24
412.55	121.71
412.74	182.56
412.93	138.09
413.12	147.45
413.31	170.86
413.50	149.79
413.69	184.90
413.88	161.50
414.07	191.92
414.26	208.31
414.45	128.73
414.64	175.54
414.83	170.86
415.02	161.50
415.22	189.58
415.41	166.18
415.60	205.97
415.79	131.07
415.98	217.67
416.17	107.66
416.36	170.86
416.55	140.43
416.74	161.50
416.93	266.82
417.12	140.43
417.31	107.66
417.50	135.75
417.69	220.01
417.88	229.37
418.07	189.58
418.26	175.54
418.45	222.35
418.64	280.86
418.83	161.50
419.02	196.60
419.21	215.33
419.39	189.58
419.58	220.01
419.77	191.92
419.96	212.99
420.15	212.99
420.34	124.05
420.53	102.98
420.72	259.80
420.91	234.05
421.10	236.39
421.29	189.58
421.48	187.24
421.67	152.13
421.86	170.86
422.05	229.37
422.24	301.93
422.43	182.56
422.61	227.03
422.80	161.50
422.99	215.33
423.18	194.26
423.37	243.42
423.56	189.58
423.75	131.07
423.94	227.03
424.13	229.37
424.32	252.78
424.50	189.58
424.69	217.67
424.88	227.03
425.07	252.78
425.26	241.08
425.45	220.01
425.64	215.33
425.83	198.95
426.01	203.63
426.20	205.97
426.39	208.31
426.58	177.88
426.77	241.08
426.96	259.80
427.15	264.48
427.33	205.97
427.52	203.63
427.71	196.60
427.90	161.50
428.09	133.41
428.28	266.82
428.46	257.46
428.65	243.42
428.84	248.10
429.03	273.84
429.22	182.56
429.40	212.99
429.59	208.31
429.78	294.91
429.97	241.08
430.16	250.44
430.34	245.76
430.53	177.88
430.72	276.18
430.91	271.50
431.10	287.89
431.28	299.59
431.47	301.93
431.66	215.33
431.85	198.95
432.03	220.01
432.22	292.57
432.41	306.61
432.60	327.68
432.79	238.73
432.97	299.59
433.16	264.48
433.35	367.46
433.54	339.38
433.72	346.40
433.91	402.57
434.10	404.91
434.28	411.93
434.47	498.53
434.66	564.07
434.85	746.63
435.03	2225.85
435.22	7274.38
435.41	12727.83
435.59	11218.19
435.78	7293.11
435.97	3536.55
436.16	1397.30
436.34	702.16
436.53	447.04
436.72	348.74
436.90	379.17
437.09	344.06
437.28	330.02
437.46	341.72
437.65	351.08
437.84	341.72
438.02	301.93
438.21	245.76
438.40	290.23
438.58	283.20
438.77	241.08
438.96	283.20
439.14	182.56
439.33	257.46
439.52	229.37
439.70	311.29
439.89	379.17
440.08	299.59
440.26	248.10
440.45	222.35
440.63	318.31
440.82	278.52
441.01	248.10
441.19	341.72
441.38	294.91
441.57	271.50
441.75	304.27
441.94	330.02
442.12	297.25
442.31	259.80
442.50	322.99
442.68	278.52
442.87	325.33
443.05	229.37
443.24	369.80
443.43	280.86
443.61	330.02
443.80	318.31
443.98	266.82
444.17	283.20
444.35	353.42
444.54	315.97
444.73	250.44
444.91	278.52
445.10	287.89
445.28	320.65
445.47	229.37
445.65	280.86
445.84	285.55
446.02	301.93
446.21	212.99
446.39	217.67
446.58	301.93
446.77	290.23
446.95	283.20
447.14	271.50
447.32	241.08
447.51	283.20
447.69	264.48
447.88	304.27
448.06	299.59
448.25	334.70
448.43	320.65
448.62	203.63
448.80	299.59
448.99	252.78
449.17	301.93
449.36	348.74
449.54	294.91
449.73	301.93
449.91	290.23
450.10	273.84
450.28	379.17
450.46	273.84
450.65	276.18
450.83	276.18
451.02	315.97
451.20	299.59
451.39	276.18
451.57	222.35
451.76	241.08
451.94	294.91
452.13	290.23
452.31	285.55
452.49	334.70
452.68	297.25
452.86	243.42
453.05	299.59
453.23	248.10
453.42	208.31
453.60	255.12
453.78	177.88
453.97	292.57
454.15	163.84
454.34	250.44
454.52	259.80
454.70	257.46
454.89	278.52
455.07	252.78
455.26	252.78
455.44	243.42
455.62	248.10
455.81	297.25
455.99	362.78
456.17	238.73
456.36	266.82
456.54	299.59
456.73	297.25
456.91	290.23
457.09	283.20
457.28	381.51
457.46	292.57
457.64	224.69
457.83	280.86
458.01	294.91
458.19	322.99
458.38	278.52
458.56	339.38
458.74	304.27
458.93	283.20
459.11	348.74
459.29	231.71
459.48	222.35
459.66	306.61
459.84	313.63
460.03	383.85
460.21	301.93
460.39	365.12
460.57	334.70
460.76	311.29
460.94	344.06
461.12	322.99
461.31	397.89
461.49	257.46
461.67	262.14
461.85	283.20
462.04	308.95
462.22	662.37
462.40	280.86
462.59	306.61
462.77	299.59
462.95	292.57
463.13	315.97
463.32	304.27
463.50	245.76
463.68	231.71
463.86	222.35
464.05	337.04
464.23	280.86
464.41	297.25
464.59	308.95
464.78	248.10
464.96	280.86
465.14	320.65
465.32	257.46
465.50	325.33
465.69	262.14
465.87	229.37
466.05	299.59
466.23	210.65
466.41	273.84
466.60	280.86
466.78	271.50
466.96	264.48
467.14	266.82
467.32	313.63
467.51	325.33
467.69	318.31
467.87	273.84
468.05	304.27
468.23	285.55
468.41	301.93
468.60	208.31
468.78	220.01
468.96	339.38
469.14	278.52
469.32	229.37
469.50	215.33
469.69	294.91
469.87	280.86
470.05	252.78
470.23	215.33
470.41	220.01
470.59	276.18
470.77	222.35
470.95	283.20
471.14	269.16
471.32	278.52
471.50	287.89
471.68	287.89
471.86	257.46
472.04	320.65
472.22	208.31
472.40	243.42
472.58	255.12
472.77	194.26
472.95	259.80
473.13	325.33
473.31	311.29
473.49	257.46
473.67	238.73
473.85	327.68
474.03	222.35
474.21	248.10
474.39	337.04
474.57	297.25
474.75	280.86
474.93	264.48
475.12	234.05
475.30	229.37
475.48	245.76
475.66	255.12
475.84	257.46
476.02	313.63
476.20	241.08
476.38	280.86
476.56	390.87
476.74	212.99
476.92	273.84
477.10	269.16
477.28	280.86
477.46	339.38
477.64	250.44
477.82	351.08
478.00	241.08
478.18	355.76
478.36	168.52
478.54	283.20
478.72	358.10
478.90	259.80
479.08	297.25
479.26	290.23
479.44	304.27
479.62	266.82
479.80	322.99
479.98	386.19
480.16	358.10
480.34	397.89
480.52	304.27
480.70	402.57
480.88	330.02
481.06	313.63
481.24	437.68
481.41	393.21
481.59	449.38
481.77	465.77
481.95	463.43
482.13	538.32
482.31	575.77
482.49	587.47
482.67	561.73
482.85	613.22
483.03	704.50
483.21	669.39
483.39	753.65
483.57	678.76
483.74	866.00
483.92	816.85
484.10	873.02
484.28	971.32
484.46	976.00
484.64	1102.39
484.82	1067.28
485.00	1039.20
485.18	1118.78
485.35	1245.16
485.53	1219.42
485.71	1205.38
485.89	1348.15
486.07	1345.81
486.25	1380.92
486.43	1252.19
486.61	1364.53
486.78	1362.19
486.96	1376.24
487.14	1268.57
487.32	1430.07
487.50	1453.47
487.68	1357.51
487.85	1268.57
488.03	1303.68
488.21	1306.02
488.39	1259.21
488.57	1256.87
488.75	1100.05
488.92	1474.54
489.10	1212.40
489.28	1177.29
489.46	1100.05
489.64	1064.94
489.81	1057.92
489.99	1074.31
490.17	1048.56
490.35	1053.24
490.53	1020.47
490.70	1107.07
490.88	1081.33
491.06	1118.78
491.24	1158.57
491.41	1238.14
491.59	1165.59
491.77	1076.65
491.95	992.39
492.13	1071.97
492.30	983.02
492.48	976.00
492.66	985.37
492.84	973.66
493.01	922.17
493.19	985.37
493.37	964.30
493.54	814.51
493.72	882.38
493.90	823.87
494.08	882.38
494.25	964.30
494.43	880.04
494.61	926.85
494.79	706.84
494.96	805.14
495.14	763.01
495.32	842.59
495.49	732.59
495.67	777.06
495.85	718.54
496.02	816.85
496.20	807.48
496.38	805.14
496.55	772.38
496.73	744.29
496.91	688.12
497.09	718.54
497.26	777.06
497.44	716.20
497.62	641.31
497.79	636.63
497.97	585.13
498.14	634.29
498.32	657.69
498.50	678.76
498.67	669.39
498.85	585.13
499.03	587.47
499.20	559.39
499.38	564.07
499.56	603.86
499.73	571.09
499.91	580.45
500.08	573.43
500.26	528.96
500.44	554.71
500.61	458.74
500.79	496.19
500.97	479.81
501.14	447.04
501.32	376.83
501.49	428.32
501.67	500.87
501.84	470.45
502.02	400.23
502.20	393.21
502.37	397.89
502.55	383.85
502.72	425.98
502.90	402.57
503.07	395.55
503.25	425.98
503.43	388.53
503.60	376.83
503.78	348.74
503.95	334.70
504.13	341.72
504.30	344.06
504.48	330.02
504.65	397.89
504.83	383.85
505.01	360.44
505.18	379.17
505.36	294.91
505.53	351.08
505.71	365.12
505.88	421.30
506.06	372.15
506.23	339.38
506.41	322.99
506.58	402.57
506.76	320.65
506.93	393.21
507.11	322.99
507.28	231.71
507.46	287.89
507.63	301.93
507.81	362.78
507.98	372.15
508.16	266.82
508.33	344.06
508.50	327.68
508.68	287.89
508.85	344.06
509.03	376.83
509.20	332.36
509.38	337.04
509.55	386.19
509.73	376.83
509.90	374.49
510.08	292.57
510.25	334.70
510.42	341.72
510.60	287.89
510.77	332.36
510.95	311.29
511.12	351.08
511.30	381.51
511.47	308.95
511.64	348.74
511.82	390.87
511.99	297.25
512.17	273.84
512.34	334.70
512.51	327.68
512.69	322.99
512.86	339.38
513.04	318.31
513.21	311.29
513.38	330.02
513.56	318.31
513.73	276.18
513.90	234.05
514.08	301.93
514.25	294.91
514.43	306.61
514.60	266.82
514.77	278.52
514.95	395.55
515.12	280.86
515.29	322.99
515.47	351.08
515.64	313.63
515.81	269.16
515.99	362.78
516.16	294.91
516.33	383.85
516.51	243.42
516.68	224.69
516.85	262.14
517.03	224.69
517.20	285.55
517.37	306.61
517.54	285.55
517.72	250.44
517.89	318.31
518.06	222.35
518.24	341.72
518.41	351.08
518.58	353.42
518.75	264.48
518.93	299.59
519.10	294.91
519.27	285.55
519.45	285.55
519.62	299.59
519.79	337.04
519.96	304.27
520.14	250.44
520.31	306.61
520.48	234.05
520.65	245.76
520.83	311.29
521.00	276.18
521.17	306.61
521.34	236.39
521.52	297.25
521.69	241.08
521.86	292.57
522.03	299.59
522.20	292.57
522.38	315.97
522.55	280.86
522.72	285.55
522.89	304.27
523.07	360.44
523.24	285.55
523.41	252.78
523.58	337.04
523.75	308.95
523.92	241.08
524.10	217.67
524.27	311.29
524.44	220.01
524.61	376.83
524.78	341.72
524.96	320.65
525.13	278.52
525.30	294.91
525.47	315.97
525.64	334.70
525.81	273.84
525.98	362.78
526.16	325.33
526.33	269.16
526.50	278.52
526.67	245.76
526.84	299.59
527.01	308.95
527.18	369.80
527.36	393.21
527.53	311.29
527.70	393.21
527.87	353.42
528.04	407.25
528.21	344.06
528.38	266.82
528.55	294.91
528.72	416.62
528.89	383.85
529.07	360.44
529.24	386.19
529.41	393.21
529.58	341.72
529.75	402.57
529.92	374.49
530.09	313.63
530.26	360.44
530.43	365.12
530.60	351.08
530.77	358.10
530.94	400.23
531.11	346.40
531.28	388.53
531.46	379.17
531.63	423.64
531.80	397.89
531.97	414.27
532.14	521.94
532.31	596.84
532.48	660.03
532.65	655.35
532.82	676.41
532.99	781.74
533.16	833.23
533.33	793.44
533.50	898.77
533.67	718.54
533.84	690.46
534.01	608.54
534.18	587.47
534.35	575.77
534.52	545.34
534.69	645.99
534.86	613.22
535.03	578.11
535.20	580.45
535.37	732.59
535.54	760.67
535.71	739.61
535.88	814.51
536.05	805.14
536.22	826.21
536.38	940.90
536.55	992.39
536.72	1036.86
536.89	1018.13
537.06	1287.29
537.23	1409.00
537.40	1497.94
537.57	1556.46
537.74	1568.16
537.91	1762.42
538.08	1692.21
538.25	1832.64
538.42	1671.14
538.59	1863.07
538.75	1825.62
538.92	1954.35
539.09	2153.29
539.26	2469.27
539.43	2672.89
539.60	3007.59
539.77	3335.26
539.94	3789.33
540.11	4142.75
540.28	4437.66
540.44	4880.02
540.61	5371.53
540.78	6153.27
540.95	7424.18
541.12	8762.97
541.29	9579.81
541.46	9668.75
541.62	9713.22
541.79	9212.35
541.96	8915.10
542.13	8196.56
542.30	7700.36
542.47	7007.56
542.63	6808.62
542.80	6920.96
542.97	6588.61
543.14	6633.08
543.31	6640.10
543.48	6527.75
543.64	6789.89
543.81	6764.15
543.98	6670.53
544.15	6815.64
544.32	6885.86
544.48	6707.98
544.65	6738.40
544.82	6700.95
544.99	6471.58
545.16	6768.83
545.32	7506.10
545.49	15250.93
545.66	24231.57
545.83	26342.73
546.00	21055.46
546.16	14824.95
546.33	10967.75
546.50	8461.04
546.67	6820.32
546.83	6097.10
547.00	5696.86
547.17	5458.13
547.34	5317.70
547.50	5203.01
547.67	4786.40
547.84	4709.16
548.00	4568.73
548.17	4341.69
548.34	4189.56
548.51	4210.62
548.67	3859.54
548.84	3838.48
549.01	3548.25
549.18	3454.63
549.34	3316.54
549.51	3229.94
549.68	3190.15
549.84	3056.74
550.01	2782.90
550.18	2738.43
550.34	2644.81
550.51	2434.16
550.68	2389.69
550.84	2265.64
551.01	2139.25
551.18	2143.93
551.34	2001.16
551.51	1944.99
551.68	1877.11
551.84	1783.49
552.01	1771.79
552.18	1617.31
552.34	1600.93
552.51	1502.62
552.68	1507.30
552.84	1427.73
553.01	1401.98
553.18	1336.45
553.34	1324.74
553.51	1277.93
553.67	1287.29
553.84	1254.53
554.01	1186.65
554.17	1078.99
554.34	1050.90
554.51	1011.11
554.67	959.62
554.84	821.53
555.00	823.87
555.17	777.06
555.33	772.38
555.50	784.08
555.67	767.70
555.83	671.73
556.00	688.12
556.16	730.25
556.33	643.65
556.50	620.24
556.66	650.67
556.83	545.34
556.99	571.09
557.16	641.31
557.32	535.98
557.49	512.58
557.65	538.32
557.82	552.37
557.98	585.13
558.15	468.11
558.32	596.84
558.48	496.19
558.65	568.75
558.81	461.09
558.98	484.49
559.14	550.03
559.31	521.94
559.47	510.24
559.64	449.38
559.80	449.38
559.97	416.62
560.13	418.96
560.30	428.32
560.46	425.98
560.63	376.83
560.79	468.11
560.96	461.09
561.12	430.66
561.29	489.17
561.45	449.38
561.61	463.43
561.78	535.98
561.94	465.77
562.11	365.12
562.27	430.66
562.44	388.53
562.60	402.57
562.77	428.32
562.93	519.60
563.10	437.68
563.26	376.83
563.42	475.13
563.59	418.96
563.75	362.78
563.92	362.78
564.08	369.80
564.24	477.47
564.41	383.85
564.57	379.17
564.74	381.51
564.90	435.34
565.07	367.46
565.23	465.77
565.39	362.78
565.56	390.87
565.72	393.21
565.88	315.97
566.05	301.93
566.21	414.27
566.38	311.29
566.54	355.76
566.70	330.02
566.87	404.91
567.03	332.36
567.19	348.74
567.36	402.57
567.52	402.57
567.68	327.68
567.85	395.55
568.01	294.91
568.17	243.42
568.34	404.91
568.50	430.66
568.66	327.68
568.83	468.11
568.99	383.85
569.15	360.44
569.32	381.51
569.48	252.78
569.64	327.68
569.81	411.93
569.97	353.42
570.13	346.40
570.30	294.91
570.46	337.04
570.62	304.27
570.78	294.91
570.95	301.93
571.11	348.74
571.27	351.08
571.43	332.36
571.60	318.31
571.76	280.86
571.92	351.08
572.09	266.82
572.25	308.95
572.41	238.73
572.57	301.93
572.74	376.83
572.90	353.42
573.06	376.83
573.22	266.82
573.38	372.15
573.55	351.08
573.71	386.19
573.87	360.44
574.03	283.20
574.20	365.12
574.36	348.74
574.52	400.23
574.68	386.19
574.84	397.89
575.01	339.38
575.17	409.59
575.33	369.80
575.49	465.77
575.65	458.74
575.82	475.13
575.98	582.79
576.14	557.05
576.30	1263.89
576.46	3473.36
576.62	4695.11
576.79	4400.21
576.95	3124.62
577.11	2239.89
577.27	1533.05
577.43	1142.18
577.59	784.08
577.75	664.71
577.92	645.99
578.08	638.97
578.24	589.82
578.40	1294.32
578.56	3075.46
578.72	4175.52
578.88	4182.54
579.04	3000.57
579.21	2223.51
579.37	1668.80
579.53	1423.05
579.69	1486.24
579.85	1774.13
580.01	2015.20
580.17	1703.91
580.33	1474.54
580.49	1397.30
580.65	1273.25
580.82	1191.33
580.98	1200.69
581.14	1151.54
581.30	1254.53
581.46	1256.87
581.62	1411.34
581.78	1427.73
581.94	1479.22
582.10	1732.00
582.26	1668.80
582.42	1778.81
582.58	1741.36
582.74	1888.81
582.90	1898.17
583.06	1865.41
583.22	1830.30
583.38	1834.98
583.54	1837.32
583.70	1874.77
583.86	1827.96
584.02	1750.72
584.18	1856.04
584.34	1708.59
584.50	1629.01
584.66	1741.36
584.82	1619.65
584.98	1619.65
585.14	1617.31
585.30	1591.56
585.46	1568.16
585.62	1507.30
585.78	1558.80
585.94	1535.39
586.10	1544.75
586.26	1614.97
586.42	1959.03
586.58	2279.68
586.74	2656.51
586.90	3267.39
587.06	3251.00
587.22	3206.53
587.38	2778.22
587.54	2354.58
587.70	2080.74
587.86	1872.43
588.02	1699.23
588.18	1476.88
588.34	1378.58
588.49	1165.59
588.65	1174.95
588.81	1121.12
588.97	1137.50
589.13	1104.73
589.29	1011.11
589.45	1074.31
589.61	1088.35
589.77	1067.28
589.93	1055.58
590.08	1069.62
590.24	1076.65
590.40	1160.91
590.56	1163.25
590.72	1235.80
590.88	1280.27
591.04	1313.04
591.20	1315.38
591.35	1345.81
591.51	1385.60
591.67	1528.37
591.83	1596.25
591.99	1589.22
592.15	1900.52
592.31	1916.90
592.46	2157.97
592.62	2312.45
592.78	2450.54
592.94	2478.63
593.10	2385.01
593.26	2347.56
593.41	2211.81
593.57	1926.26
593.73	1727.32
593.89	1446.45
594.05	1397.30
594.20	1247.51
594.36	1139.84
594.52	1050.90
594.68	1011.11
594.84	1081.33
594.99	1053.24
595.15	971.32
595.31	1029.84
595.47	1034.52
595.62	1015.79
595.78	903.45
595.94	903.45
596.10	1046.22
596.25	922.17
596.41	957.28
596.57	889.40
596.73	873.02
596.88	910.47
597.04	917.49
597.20	908.13
597.36	1095.37
597.51	1116.44
597.67	1036.86
597.83	1095.37
597.99	1153.88
598.14	1188.99
598.30	1273.25
598.46	1273.25
598.61	1275.59
598.77	1387.94
598.93	1544.75
599.09	1542.41
599.24	1582.20
599.40	1490.92
599.56	1481.56
599.71	1390.28
599.87	1254.53
600.03	1348.15
600.18	1128.14
600.34	1191.33
600.50	1076.65
600.65	992.39
600.81	924.51
600.97	889.40
601.12	887.06
601.28	837.91
601.44	784.08
601.59	610.88
601.75	823.87
601.91	765.36
602.06	716.20
602.22	737.27
602.37	676.41
602.53	599.18
602.69	695.14
602.84	697.48
603.00	746.63
603.16	734.93
603.31	727.91
603.47	795.78
603.62	692.80
603.78	737.27
603.94	748.97
604.09	718.54
604.25	802.80
604.40	849.61
604.56	770.04
604.71	784.08
604.87	791.10
605.03	767.70
605.18	807.48
605.34	880.04
605.49	765.36
605.65	863.66
605.80	849.61
605.96	933.87
606.12	1006.43
606.27	912.81
606.43	929.19
606.58	1001.75
606.74	1081.33
606.89	1144.52
607.05	1196.01
607.20	1224.10
607.36	1273.25
607.51	1366.87
607.67	1430.07
607.82	1582.20
607.98	1678.16
608.13	1685.19
608.29	1940.30
608.44	2106.48
608.60	2256.28
608.75	2377.98
608.91	2560.55
609.06	2792.26
609.22	3049.72
609.37	3253.34
609.53	3669.96
609.68	4308.93
609.84	4933.85
609.99	5668.78
610.15	6693.93
610.30	8353.37
610.46	10628.37
610.61	13811.50
610.76	17238.05
610.92	20720.76
611.07	22803.84
611.23	22415.31
611.38	20950.14
611.54	18417.68
611.69	15976.50
611.84	13523.62
612.00	10902.22
612.15	9355.12
612.31	8009.31
612.46	7454.61
612.62	6960.75
612.77	6553.50
612.92	6052.63
613.08	5893.47
613.23	5563.45
613.39	5305.99
613.54	5249.82
613.69	5242.80
613.85	5186.63
614.00	5219.39
614.15	5184.29
614.31	4987.68
614.46	4765.33
614.62	4800.44
614.77	4571.07
614.92	4067.85
615.08	3885.29
615.23	3604.42
615.38	3321.22
615.54	2995.89
615.69	2862.48
615.84	2523.10
616.00	2382.67
616.15	2282.02
616.30	2054.99
616.46	1989.46
616.61	1795.19
616.76	1755.40
616.92	1694.55
617.07	1614.97
617.22	1446.45
617.37	1488.58
617.53	1483.90
617.68	1369.21
617.83	1357.51
617.99	1205.38
618.14	1261.55
618.29	1320.06
618.45	1294.32
618.60	1200.69
618.75	1174.95
618.90	1107.07
619.06	1249.85
619.21	1163.25
619.36	1207.72
619.51	1270.91
619.67	1144.52
619.82	1205.38
619.97	1277.93
620.12	1226.44
620.28	1247.51
620.43	1228.78
620.58	1273.25
620.73	1252.19
620.89	1355.17
621.04	1334.11
621.19	1378.58
621.34	1256.87
621.49	1207.72
621.65	1205.38
621.80	1273.25
621.95	1207.72
622.10	1196.01
622.25	1289.64
622.41	1331.76
622.56	1301.34
622.71	1261.55
622.86	1315.38
623.01	1303.68
623.16	1366.87
623.32	1249.85
623.47	1294.32
623.62	1277.93
623.77	1289.64
623.92	1406.66
624.07	1268.57
624.23	1343.47
624.38	1366.87
624.53	1359.85
624.68	1357.51
624.83	1359.85
624.98	1270.91
625.13	1320.06
625.29	1277.93
625.44	1359.85
625.59	1282.61
625.74	1437.09
625.89	1313.04
626.04	1331.76
626.19	1427.73
626.34	1373.89
626.49	1289.64
626.65	1324.74
626.80	1299.00
626.95	1345.81
627.10	1277.93
627.25	1245.16
627.40	1357.51
627.55	1291.98
627.70	1128.14
627.85	1273.25
628.00	1256.87
628.15	1233.46
628.30	1240.48
628.45	1226.44
628.60	1245.16
628.76	1205.38
628.91	1153.88
629.06	1219.42
629.21	1336.45
629.36	1256.87
629.51	1341.13
629.66	1320.06
629.81	1521.35
629.96	1563.48
630.11	1804.55
630.26	2001.16
630.41	2179.04
630.56	2270.32
630.71	2394.37
630.86	2586.29
631.01	2436.50
631.16	2256.28
631.31	2026.90
631.46	1804.55
631.61	1455.81
631.76	1188.99
631.91	1043.88
632.06	961.96
632.21	819.19
632.36	753.65
632.51	624.92
632.66	641.31
632.81	681.10
632.96	650.67
633.10	592.16
633.25	573.43
633.40	578.11
633.55	552.37
633.70	421.30
633.85	507.90
634.00	463.43
634.15	465.77
634.30	456.40
634.45	482.15
634.60	489.17
634.75	451.72
634.90	454.06
635.05	505.56
635.19	369.80
635.34	428.32
635.49	395.55
635.64	334.70
635.79	369.80
635.94	414.27
636.09	360.44
636.24	430.66
636.39	447.04
636.53	386.19
636.68	409.59
636.83	362.78
636.98	428.32
637.13	355.76
637.28	337.04
637.43	397.89
637.57	372.15
637.72	411.93
637.87	351.08
638.02	409.59
638.17	383.85
638.32	381.51
638.46	409.59
638.61	386.19
638.76	306.61
638.91	346.40
639.06	348.74
639.20	477.47
639.35	353.42
639.50	308.95
639.65	444.70
639.80	337.04
639.94	390.87
640.09	393.21
640.24	292.57
640.39	355.76
640.54	315.97
640.68	264.48
640.83	381.51
640.98	369.80
641.13	313.63
641.27	313.63
641.42	315.97
641.57	395.55
641.72	383.85
641.86	330.02
642.01	266.82
642.16	341.72
642.31	285.55
642.45	318.31
642.60	386.19
642.75	266.82
642.90	475.13
643.04	322.99
643.19	311.29
643.34	346.40
643.48	416.62
643.63	287.89
643.78	414.27
643.93	367.46
644.07	348.74
644.22	355.76
644.37	313.63
644.51	360.44
644.66	351.08
644.81	308.95
644.95	355.76
645.10	299.59
645.25	355.76
645.39	346.40
645.54	304.27
645.69	285.55
645.83	241.08
645.98	308.95
646.13	376.83
646.27	330.02
646.42	325.33
646.57	320.65
646.71	304.27
646.86	353.42
647.00	297.25
647.15	287.89
647.30	304.27
647.44	325.33
647.59	311.29
647.74	318.31
647.88	269.16
648.03	287.89
648.17	369.80
648.32	334.70
648.47	344.06
648.61	344.06
648.76	337.04
648.90	348.74
649.05	374.49
649.20	332.36
649.34	428.32
649.49	393.21
649.63	458.74
649.78	543.00
649.92	610.88
650.07	636.63
650.21	732.59
650.36	835.57
650.51	732.59
650.65	781.74
650.80	603.86
650.94	557.05
651.09	543.00
651.23	496.19
651.38	414.27
651.52	447.04
651.67	430.66
651.81	393.21
651.96	374.49
652.10	358.10
652.25	376.83
652.39	397.89
652.54	482.15
652.68	402.57
652.83	397.89
652.97	507.90
653.12	503.22
653.26	421.30
653.41	416.62
653.55	365.12
653.70	346.40
653.84	341.72
653.99	386.19
654.13	304.27
654.27	360.44
654.42	294.91
654.56	379.17
654.71	346.40
654.85	320.65
655.00	327.68
655.14	276.18
655.29	280.86
655.43	348.74
655.57	313.63
655.72	264.48
655.86	315.97
656.01	264.48
656.15	301.93
656.30	271.50
656.44	264.48
656.58	311.29
656.73	283.20
656.87	299.59
657.01	353.42
657.16	400.23
657.30	355.76
657.45	348.74
657.59	351.08
657.73	337.04
657.88	306.61
658.02	489.17
658.16	304.27
658.31	280.86
658.45	379.17
658.60	299.59
658.74	278.52
658.88	273.84
659.03	252.78
659.17	227.03
659.31	238.73
659.46	180.22
659.60	351.08
659.74	212.99
659.89	271.50
660.03	191.92
660.17	325.33
660.32	297.25
660.46	283.20
660.60	257.46
660.74	245.76
660.89	341.72
661.03	315.97
661.17	278.52
661.32	257.46
661.46	334.70
661.60	325.33
661.74	381.51
661.89	468.11
662.03	503.22
662.17	512.58
662.31	524.28
662.46	566.41
662.60	456.40
662.74	486.83
662.88	489.17
663.03	360.44
663.17	337.04
663.31	264.48
663.45	301.93
663.60	402.57
663.74	334.70
663.88	280.86
664.02	257.46
664.17	175.54
664.31	271.50
664.45	266.82
664.59	374.49
664.73	231.71
664.88	208.31
665.02	278.52
665.16	292.57
665.30	250.44
665.44	306.61
665.59	224.69
665.73	203.63
665.87	208.31
666.01	205.97
666.15	234.05
666.29	234.05
666.44	231.71
666.58	315.97
666.72	224.69
666.86	245.76
667.00	215.33
667.14	330.02
667.28	243.42
667.43	238.73
667.57	266.82
667.71	292.57
667.85	283.20
667.99	215.33
668.13	163.84
668.27	180.22
668.41	292.57
668.56	262.14
668.70	241.08
668.84	266.82
668.98	208.31
669.12	203.63
669.26	287.89
669.40	318.31
669.54	236.39
669.68	194.26
669.82	271.50
669.96	257.46
670.10	222.35
670.25	257.46
670.39	248.10
670.53	220.01
670.67	238.73
670.81	273.84
670.95	313.63
671.09	243.42
671.23	283.20
671.37	217.67
671.51	248.10
671.65	285.55
671.79	245.76
671.93	280.86
672.07	280.86
672.21	227.03
672.35	294.91
672.49	177.88
672.63	222.35
672.77	234.05
672.91	142.77
673.05	201.29
673.19	196.60
673.33	194.26
673.47	238.73
673.61	238.73
673.75	180.22
673.89	145.11
674.03	238.73
674.17	215.33
674.31	271.50
674.45	177.88
674.59	243.42
674.73	182.56
674.87	259.80
675.01	241.08
675.15	112.35
675.29	236.39
675.43	264.48
675.56	259.80
675.70	189.58
675.84	182.56
675.98	196.60
676.12	177.88
676.26	177.88
676.40	243.42
676.54	234.05
676.68	196.60
676.82	215.33
676.96	217.67
677.10	177.88
677.23	255.12
677.37	224.69
677.51	128.73
677.65	196.60
677.79	217.67
677.93	182.56
678.07	189.58
678.21	170.86
678.34	252.78
678.48	177.88
678.62	236.39
678.76	161.50
678.90	140.43
679.04	212.99
679.18	229.37
679.31	234.05
679.45	212.99
679.59	227.03
679.73	203.63
679.87	170.86
680.00	234.05
680.14	245.76
680.28	259.80
680.42	173.20
680.56	161.50
680.70	224.69
680.83	198.95
680.97	222.35
681.11	241.08
681.25	168.52
681.39	142.77
681.52	166.18
681.66	259.80
681.80	191.92
681.94	124.05
682.07	201.29
682.21	205.97
682.35	173.20
682.49	110.01
682.62	259.80
682.76	152.13
682.90	140.43
683.04	280.86
683.17	215.33
683.31	189.58
683.45	205.97
683.59	208.31
683.72	311.29
683.86	149.79
684.00	201.29
684.13	205.97
684.27	276.18
684.41	177.88
684.55	220.01
684.68	259.80
684.82	114.69
684.96	170.86
685.09	175.54
685.23	208.31
685.37	112.35
685.50	229.37
685.64	318.31
685.78	201.29
685.91	227.03
686.05	299.59
686.19	250.44
686.32	196.60
686.46	238.73
686.60	196.60
686.73	290.23
686.87	290.23
687.01	215.33
687.14	203.63
687.28	290.23
687.42	287.89
687.55	280.86
687.69	341.72
687.82	344.06
687.96	250.44
688.10	351.08
688.23	294.91
688.37	365.12
688.50	264.48
688.64	252.78
688.78	252.78
688.91	220.01
689.05	222.35
689.18	187.24
689.32	191.92
689.46	224.69
689.59	238.73
689.73	163.84
689.86	110.01
690.00	107.66
690.13	222.35
690.27	128.73
690.41	224.69
690.54	252.78
690.68	208.31
690.81	177.88
690.95	248.10
691.08	224.69
691.22	131.07
691.35	91.28
691.49	194.26
691.62	149.79
691.76	201.29
691.89	107.66
692.03	147.45
692.16	145.11
692.30	184.90
692.43	196.60
692.57	175.54
692.70	189.58
692.84	149.79
692.97	180.22
693.11	294.91
693.24	262.14
693.38	290.23
693.51	222.35
693.65	301.93
693.78	208.31
693.92	182.56
694.05	189.58
694.19	255.12
694.32	166.18
694.45	222.35
694.59	208.31
694.72	184.90
694.86	182.56
694.99	196.60
695.13	201.29
695.26	84.26
695.39	156.82
695.53	184.90
695.66	177.88
695.80	156.82
695.93	110.01
696.07	212.99
696.20	212.99
696.33	112.35
696.47	156.82
696.60	187.24
696.73	224.69
696.87	168.52
697.00	201.29
697.14	149.79
697.27	140.43
697.40	152.13
697.54	100.64
697.67	95.96
697.80	154.48
697.94	166.18
698.07	201.29
698.21	110.01
698.34	163.84
698.47	56.17
698.61	119.37
698.74	128.73
698.87	117.03
699.01	145.11
699.14	180.22
699.27	126.39
699.40	222.35
699.54	173.20
699.67	119.37
699.80	124.05
699.94	110.01
700.07	152.13
700.20	145.11
700.34	140.43
700.47	102.98
700.60	105.32
700.73	149.79
700.87	173.20
701.00	91.28
701.13	126.39
701.26	161.50
701.40	149.79
701.53	147.45
701.66	79.58
701.79	133.41
701.93	114.69
702.06	133.41
702.19	163.84
702.32	198.95
702.46	145.11
702.59	234.05
702.72	180.22
702.85	112.35
702.99	74.90
703.12	208.31
703.25	135.75
703.38	182.56
703.51	173.20
703.65	114.69
703.78	142.77
703.91	163.84
704.04	262.14
704.17	180.22
704.31	135.75
704.44	163.84
704.57	140.43
704.70	182.56
704.83	194.26
704.96	156.82
705.10	231.71
705.23	243.42
>>>>>End Processed Spectral Data<<<<<
