SpectraSuite Data File
++++++++++++++++++++++++++++++++++++
Date: Fri Oct 04 11:41:59 GMT-05:00 2013
User: price-jones
Dark Spectrum Present: No
Reference Spectrum Present: No
Number of Sampled Component Spectra: 1
Spectrometers: USB2+H05261
Integration Time (usec): 100000 (USB2+H05261)
Spectra Averaged: 1 (USB2+H05261)
Boxcar Smoothing: 0 (USB2+H05261)
Correct for Electrical Dark: No (USB2+H05261)
Strobe/Lamp Enabled: No (USB2+H05261)
Correct for Detector Non-linearity: No (USB2+H05261)
Correct for Stray Light: No (USB2+H05261)
Number of Pixels in Processed Spectrum: 2048
>>>>>Begin Processed Spectral Data<<<<<
365.73	81.92
365.92	81.92
366.12	81.92
366.32	0.00
366.52	0.00
366.72	0.00
366.91	0.00
367.11	0.00
367.31	0.00
367.51	0.00
367.70	0.00
367.90	0.00
368.10	0.00
368.30	0.00
368.49	0.00
368.69	0.00
368.89	0.00
369.09	0.00
369.28	0.00
369.48	0.00
369.68	0.00
369.87	49.15
370.07	0.00
370.27	51.49
370.47	39.79
370.66	0.00
370.86	95.96
371.06	63.19
371.25	112.35
371.45	79.58
371.65	126.39
371.84	70.22
372.04	11.70
372.24	128.73
372.44	126.39
372.63	133.41
372.83	166.18
373.03	86.60
373.22	42.13
373.42	117.03
373.62	77.24
373.81	72.56
374.01	140.43
374.21	65.54
374.40	51.49
374.60	114.69
374.79	95.96
374.99	74.90
375.19	51.49
375.38	238.73
375.58	140.43
375.78	128.73
375.97	138.09
376.17	163.84
376.37	114.69
376.56	119.37
376.76	112.35
376.95	56.17
377.15	112.35
377.35	119.37
377.54	86.60
377.74	117.03
377.93	81.92
378.13	142.77
378.33	117.03
378.52	105.32
378.72	140.43
378.91	161.50
379.11	138.09
379.31	67.88
379.50	102.98
379.70	84.26
379.89	98.30
380.09	79.58
380.28	105.32
380.48	105.32
380.68	44.47
380.87	84.26
381.07	126.39
381.26	177.88
381.46	175.54
381.65	102.98
381.85	42.13
382.04	140.43
382.24	102.98
382.43	131.07
382.63	100.64
382.83	65.54
383.02	21.06
383.22	77.24
383.41	100.64
383.61	105.32
383.80	163.84
384.00	140.43
384.19	49.15
384.39	67.88
384.58	67.88
384.78	110.01
384.97	147.45
385.17	93.62
385.36	88.94
385.56	46.81
385.75	58.51
385.95	154.48
386.14	159.16
386.34	102.98
386.53	173.20
386.72	63.19
386.92	88.94
387.11	114.69
387.31	133.41
387.50	72.56
387.70	117.03
387.89	112.35
388.09	168.52
388.28	98.30
388.48	105.32
388.67	67.88
388.86	131.07
389.06	70.22
389.25	79.58
389.45	70.22
389.64	81.92
389.84	105.32
390.03	166.18
390.22	152.13
390.42	53.83
390.61	91.28
390.81	63.19
391.00	98.30
391.19	117.03
391.39	126.39
391.58	79.58
391.78	124.05
391.97	117.03
392.16	135.75
392.36	119.37
392.55	217.67
392.75	128.73
392.94	152.13
393.13	156.82
393.33	93.62
393.52	121.71
393.71	112.35
393.91	51.49
394.10	74.90
394.29	84.26
394.49	100.64
394.68	145.11
394.88	86.60
395.07	142.77
395.26	91.28
395.46	105.32
395.65	131.07
395.84	100.64
396.04	187.24
396.23	74.90
396.42	72.56
396.62	163.84
396.81	147.45
397.00	147.45
397.19	163.84
397.39	77.24
397.58	117.03
397.77	124.05
397.97	187.24
398.16	67.88
398.35	220.01
398.55	98.30
398.74	135.75
398.93	189.58
399.12	25.75
399.32	72.56
399.51	110.01
399.70	142.77
399.90	110.01
400.09	119.37
400.28	140.43
400.47	58.51
400.67	131.07
400.86	145.11
401.05	72.56
401.24	142.77
401.44	135.75
401.63	175.54
401.82	135.75
402.01	77.24
402.21	98.30
402.40	175.54
402.59	79.58
402.78	84.26
402.97	159.16
403.17	112.35
403.36	156.82
403.55	114.69
403.74	238.73
403.93	379.17
404.13	599.18
404.32	608.54
404.51	486.83
404.70	358.10
404.89	135.75
405.09	175.54
405.28	98.30
405.47	95.96
405.66	128.73
405.85	201.29
406.05	177.88
406.24	159.16
406.43	154.48
406.62	145.11
406.81	201.29
407.00	124.05
407.20	187.24
407.39	205.97
407.58	175.54
407.77	142.77
407.96	224.69
408.15	121.71
408.34	133.41
408.54	201.29
408.73	60.85
408.92	138.09
409.11	161.50
409.30	105.32
409.49	110.01
409.68	177.88
409.87	117.03
410.07	156.82
410.26	126.39
410.45	152.13
410.64	88.94
410.83	196.60
411.02	79.58
411.21	159.16
411.40	166.18
411.59	131.07
411.78	124.05
411.98	161.50
412.17	86.60
412.36	159.16
412.55	145.11
412.74	168.52
412.93	203.63
413.12	156.82
413.31	177.88
413.50	194.26
413.69	196.60
413.88	156.82
414.07	79.58
414.26	145.11
414.45	159.16
414.64	117.03
414.83	117.03
415.02	140.43
415.22	142.77
415.41	142.77
415.60	149.79
415.79	133.41
415.98	147.45
416.17	212.99
416.36	126.39
416.55	100.64
416.74	98.30
416.93	161.50
417.12	138.09
417.31	138.09
417.50	110.01
417.69	210.65
417.88	149.79
418.07	142.77
418.26	126.39
418.45	177.88
418.64	189.58
418.83	138.09
419.02	177.88
419.21	117.03
419.39	138.09
419.58	198.95
419.77	131.07
419.96	161.50
420.15	217.67
420.34	175.54
420.53	234.05
420.72	175.54
420.91	170.86
421.10	189.58
421.29	194.26
421.48	100.64
421.67	175.54
421.86	161.50
422.05	170.86
422.24	133.41
422.43	100.64
422.61	163.84
422.80	102.98
422.99	110.01
423.18	131.07
423.37	217.67
423.56	124.05
423.75	210.65
423.94	203.63
424.13	98.30
424.32	117.03
424.50	105.32
424.69	142.77
424.88	182.56
425.07	163.84
425.26	131.07
425.45	142.77
425.64	191.92
425.83	131.07
426.01	168.52
426.20	180.22
426.39	95.96
426.58	156.82
426.77	248.10
426.96	236.39
427.15	95.96
427.33	110.01
427.52	142.77
427.71	196.60
427.90	112.35
428.09	212.99
428.28	238.73
428.46	163.84
428.65	138.09
428.84	212.99
429.03	191.92
429.22	121.71
429.40	131.07
429.59	126.39
429.78	131.07
429.97	140.43
430.16	152.13
430.34	156.82
430.53	121.71
430.72	102.98
430.91	140.43
431.10	107.66
431.28	161.50
431.47	149.79
431.66	133.41
431.85	124.05
432.03	98.30
432.22	187.24
432.41	210.65
432.60	159.16
432.79	196.60
432.97	152.13
433.16	88.94
433.35	142.77
433.54	170.86
433.72	128.73
433.91	170.86
434.10	217.67
434.28	250.44
434.47	187.24
434.66	168.52
434.85	278.52
435.03	622.58
435.22	1783.49
435.41	2590.97
435.59	2392.03
435.78	1621.99
435.97	819.19
436.16	404.91
436.34	222.35
436.53	283.20
436.72	201.29
436.90	173.20
437.09	217.67
437.28	203.63
437.46	252.78
437.65	194.26
437.84	194.26
438.02	229.37
438.21	189.58
438.40	117.03
438.58	201.29
438.77	126.39
438.96	238.73
439.14	170.86
439.33	173.20
439.52	145.11
439.70	198.95
439.89	152.13
440.08	208.31
440.26	208.31
440.45	201.29
440.63	145.11
440.82	152.13
441.01	161.50
441.19	198.95
441.38	215.33
441.57	217.67
441.75	175.54
441.94	203.63
442.12	187.24
442.31	285.55
442.50	198.95
442.68	149.79
442.87	257.46
443.05	187.24
443.24	128.73
443.43	189.58
443.61	154.48
443.80	170.86
443.98	161.50
444.17	210.65
444.35	217.67
444.54	131.07
444.73	166.18
444.91	135.75
445.10	131.07
445.28	102.98
445.47	189.58
445.65	166.18
445.84	74.90
446.02	152.13
446.21	152.13
446.39	217.67
446.58	149.79
446.77	168.52
446.95	159.16
447.14	217.67
447.32	184.90
447.51	175.54
447.69	220.01
447.88	173.20
448.06	224.69
448.25	224.69
448.43	191.92
448.62	168.52
448.80	203.63
448.99	154.48
449.17	187.24
449.36	187.24
449.54	280.86
449.73	124.05
449.91	215.33
450.10	161.50
450.28	222.35
450.46	191.92
450.65	189.58
450.83	210.65
451.02	175.54
451.20	191.92
451.39	271.50
451.57	170.86
451.76	133.41
451.94	220.01
452.13	210.65
452.31	231.71
452.49	198.95
452.68	201.29
452.86	177.88
453.05	212.99
453.23	227.03
453.42	124.05
453.60	194.26
453.78	180.22
453.97	100.64
454.15	152.13
454.34	271.50
454.52	224.69
454.70	278.52
454.89	191.92
455.07	222.35
455.26	145.11
455.44	149.79
455.62	227.03
455.81	180.22
455.99	245.76
456.17	189.58
456.36	198.95
456.54	224.69
456.73	252.78
456.91	187.24
457.09	217.67
457.28	189.58
457.46	149.79
457.64	187.24
457.83	159.16
458.01	189.58
458.19	196.60
458.38	252.78
458.56	255.12
458.74	77.24
458.93	133.41
459.11	196.60
459.29	168.52
459.48	184.90
459.66	210.65
459.84	196.60
460.03	255.12
460.21	177.88
460.39	194.26
460.57	231.71
460.76	276.18
460.94	175.54
461.12	252.78
461.31	180.22
461.49	124.05
461.67	238.73
461.85	187.24
462.04	227.03
462.22	697.48
462.40	259.80
462.59	210.65
462.77	182.56
462.95	220.01
463.13	170.86
463.32	159.16
463.50	194.26
463.68	250.44
463.86	203.63
464.05	159.16
464.23	229.37
464.41	205.97
464.59	161.50
464.78	234.05
464.96	163.84
465.14	112.35
465.32	210.65
465.50	210.65
465.69	208.31
465.87	145.11
466.05	252.78
466.23	201.29
466.41	168.52
466.60	201.29
466.78	196.60
466.96	159.16
467.14	245.76
467.32	182.56
467.51	201.29
467.69	215.33
467.87	184.90
468.05	163.84
468.23	210.65
468.41	182.56
468.60	177.88
468.78	208.31
468.96	187.24
469.14	168.52
469.32	163.84
469.50	124.05
469.69	212.99
469.87	128.73
470.05	131.07
470.23	180.22
470.41	191.92
470.59	187.24
470.77	231.71
470.95	210.65
471.14	140.43
471.32	217.67
471.50	187.24
471.68	210.65
471.86	236.39
472.04	236.39
472.22	173.20
472.40	217.67
472.58	234.05
472.77	187.24
472.95	152.13
473.13	252.78
473.31	201.29
473.49	189.58
473.67	156.82
473.85	194.26
474.03	255.12
474.21	198.95
474.39	292.57
474.57	166.18
474.75	208.31
474.93	147.45
475.12	184.90
475.30	184.90
475.48	201.29
475.66	231.71
475.84	217.67
476.02	234.05
476.20	177.88
476.38	227.03
476.56	241.08
476.74	154.48
476.92	203.63
477.10	191.92
477.28	250.44
477.46	212.99
477.64	212.99
477.82	231.71
478.00	236.39
478.18	189.58
478.36	196.60
478.54	259.80
478.72	163.84
478.90	227.03
479.08	166.18
479.26	304.27
479.44	194.26
479.62	208.31
479.80	201.29
479.98	194.26
480.16	222.35
480.34	243.42
480.52	271.50
480.70	271.50
480.88	280.86
481.06	173.20
481.24	245.76
481.41	266.82
481.59	159.16
481.77	152.13
481.95	231.71
482.13	276.18
482.31	292.57
482.49	217.67
482.67	283.20
482.85	259.80
483.03	344.06
483.21	297.25
483.39	280.86
483.57	255.12
483.74	264.48
483.92	308.95
484.10	297.25
484.28	341.72
484.46	449.38
484.64	285.55
484.82	365.12
485.00	327.68
485.18	365.12
485.35	367.46
485.53	374.49
485.71	451.72
485.89	358.10
486.07	472.79
486.25	449.38
486.43	440.02
486.61	402.57
486.78	498.53
486.96	383.85
487.14	358.10
487.32	390.87
487.50	330.02
487.68	407.25
487.85	407.25
488.03	411.93
488.21	484.49
488.39	428.32
488.57	411.93
488.75	421.30
488.92	559.39
489.10	362.78
489.28	355.76
489.46	353.42
489.64	348.74
489.81	365.12
489.99	454.06
490.17	402.57
490.35	435.34
490.53	369.80
490.70	344.06
490.88	358.10
491.06	360.44
491.24	374.49
491.41	383.85
491.59	299.59
491.77	311.29
491.95	313.63
492.13	330.02
492.30	294.91
492.48	285.55
492.66	421.30
492.84	327.68
493.01	388.53
493.19	360.44
493.37	383.85
493.54	365.12
493.72	313.63
493.90	397.89
494.08	362.78
494.25	365.12
494.43	393.21
494.61	294.91
494.79	341.72
494.96	315.97
495.14	332.36
495.32	322.99
495.49	243.42
495.67	255.12
495.85	320.65
496.02	294.91
496.20	355.76
496.38	304.27
496.55	292.57
496.73	292.57
496.91	285.55
497.09	376.83
497.26	325.33
497.44	313.63
497.62	353.42
497.79	327.68
497.97	257.46
498.14	304.27
498.32	313.63
498.50	294.91
498.67	355.76
498.85	273.84
499.03	266.82
499.20	308.95
499.38	222.35
499.56	276.18
499.73	278.52
499.91	325.33
500.08	346.40
500.26	341.72
500.44	257.46
500.61	236.39
500.79	266.82
500.97	313.63
501.14	304.27
501.32	294.91
501.49	304.27
501.67	273.84
501.84	236.39
502.02	276.18
502.20	276.18
502.37	299.59
502.55	257.46
502.72	313.63
502.90	208.31
503.07	259.80
503.25	252.78
503.43	278.52
503.60	252.78
503.78	294.91
503.95	229.37
504.13	252.78
504.30	285.55
504.48	280.86
504.65	280.86
504.83	287.89
505.01	313.63
505.18	250.44
505.36	222.35
505.53	273.84
505.71	264.48
505.88	273.84
506.06	203.63
506.23	210.65
506.41	220.01
506.58	318.31
506.76	259.80
506.93	304.27
507.11	255.12
507.28	269.16
507.46	250.44
507.63	306.61
507.81	191.92
507.98	250.44
508.16	224.69
508.33	208.31
508.50	320.65
508.68	283.20
508.85	205.97
509.03	292.57
509.20	252.78
509.38	294.91
509.55	280.86
509.73	262.14
509.90	334.70
510.08	229.37
510.25	220.01
510.42	262.14
510.60	236.39
510.77	271.50
510.95	217.67
511.12	264.48
511.30	234.05
511.47	271.50
511.64	273.84
511.82	250.44
511.99	245.76
512.17	255.12
512.34	255.12
512.51	231.71
512.69	236.39
512.86	308.95
513.04	243.42
513.21	290.23
513.38	271.50
513.56	175.54
513.73	184.90
513.90	182.56
514.08	203.63
514.25	297.25
514.43	224.69
514.60	222.35
514.77	231.71
514.95	250.44
515.12	194.26
515.29	227.03
515.47	262.14
515.64	224.69
515.81	241.08
515.99	313.63
516.16	248.10
516.33	196.60
516.51	236.39
516.68	126.39
516.85	187.24
517.03	198.95
517.20	194.26
517.37	266.82
517.54	304.27
517.72	241.08
517.89	210.65
518.06	220.01
518.24	262.14
518.41	250.44
518.58	306.61
518.75	259.80
518.93	189.58
519.10	220.01
519.27	271.50
519.45	287.89
519.62	255.12
519.79	243.42
519.96	234.05
520.14	222.35
520.31	313.63
520.48	241.08
520.65	252.78
520.83	262.14
521.00	299.59
521.17	257.46
521.34	248.10
521.52	262.14
521.69	276.18
521.86	299.59
522.03	290.23
522.20	320.65
522.38	271.50
522.55	243.42
522.72	250.44
522.89	238.73
523.07	332.36
523.24	191.92
523.41	156.82
523.58	234.05
523.75	259.80
523.92	227.03
524.10	255.12
524.27	306.61
524.44	271.50
524.61	222.35
524.78	231.71
524.96	224.69
525.13	278.52
525.30	297.25
525.47	189.58
525.64	255.12
525.81	330.02
525.98	283.20
526.16	294.91
526.33	222.35
526.50	259.80
526.67	250.44
526.84	194.26
527.01	238.73
527.18	262.14
527.36	271.50
527.53	266.82
527.70	273.84
527.87	301.93
528.04	252.78
528.21	259.80
528.38	252.78
528.55	351.08
528.72	339.38
528.89	271.50
529.07	266.82
529.24	266.82
529.41	285.55
529.58	255.12
529.75	257.46
529.92	318.31
530.09	280.86
530.26	313.63
530.43	227.03
530.60	259.80
530.77	285.55
530.94	231.71
531.11	278.52
531.28	252.78
531.46	269.16
531.63	327.68
531.80	245.76
531.97	292.57
532.14	341.72
532.31	273.84
532.48	362.78
532.65	311.29
532.82	313.63
532.99	252.78
533.16	353.42
533.33	425.98
533.50	315.97
533.67	292.57
533.84	266.82
534.01	308.95
534.18	308.95
534.35	311.29
534.52	280.86
534.69	362.78
534.86	304.27
535.03	285.55
535.20	290.23
535.37	306.61
535.54	351.08
535.71	390.87
535.88	355.76
536.05	379.17
536.22	418.96
536.38	421.30
536.55	393.21
536.72	379.17
536.89	428.32
537.06	430.66
537.23	449.38
537.40	435.34
537.57	535.98
537.74	517.26
537.91	573.43
538.08	547.69
538.25	592.16
538.42	493.85
538.59	582.79
538.75	613.22
538.92	622.58
539.09	660.03
539.26	674.07
539.43	814.51
539.60	791.10
539.77	755.99
539.94	919.83
540.11	1027.50
540.28	1071.97
540.44	1151.54
540.61	1249.85
540.78	1376.24
540.95	1631.35
541.12	1806.89
541.29	1961.37
541.46	2057.33
541.62	2108.82
541.79	2062.01
541.96	1959.03
542.13	1872.43
542.30	1799.87
542.47	1699.23
542.63	1591.56
542.80	1647.74
542.97	1671.14
543.14	1699.23
543.31	1650.08
543.48	1692.21
543.64	1795.19
543.81	1572.84
543.98	1717.95
544.15	1593.90
544.32	1561.14
544.48	1614.97
544.65	1732.00
544.82	1575.18
544.99	1579.86
545.16	1720.29
545.32	1774.13
545.49	3176.11
545.66	4496.17
545.83	5156.20
546.00	4337.01
546.16	3066.10
546.33	2253.94
546.50	1877.11
546.67	1645.40
546.83	1416.02
547.00	1350.49
547.17	1184.31
547.34	1132.82
547.50	1214.74
547.67	1144.52
547.84	1088.35
548.00	990.05
548.17	1013.45
548.34	1104.73
548.51	1067.28
548.67	968.98
548.84	950.26
549.01	1020.47
549.18	971.32
549.34	830.89
549.51	842.59
549.68	840.25
549.84	795.78
550.01	763.01
550.18	837.91
550.34	781.74
550.51	697.48
550.68	727.91
550.84	662.37
551.01	620.24
551.18	685.78
551.34	627.26
551.51	543.00
551.68	559.39
551.84	573.43
552.01	550.03
552.18	557.05
552.34	503.22
552.51	610.88
552.68	503.22
552.84	440.02
553.01	472.79
553.18	540.66
553.34	475.13
553.51	440.02
553.67	395.55
553.84	458.74
554.01	407.25
554.17	390.87
554.34	425.98
554.51	411.93
554.67	437.68
554.84	416.62
555.00	388.53
555.17	372.15
555.33	409.59
555.50	339.38
555.67	365.12
555.83	278.52
556.00	311.29
556.16	468.11
556.33	332.36
556.50	341.72
556.66	332.36
556.83	346.40
556.99	365.12
557.16	301.93
557.32	245.76
557.49	264.48
557.65	315.97
557.82	257.46
557.98	320.65
558.15	304.27
558.32	344.06
558.48	196.60
558.65	320.65
558.81	346.40
558.98	308.95
559.14	320.65
559.31	334.70
559.47	341.72
559.64	341.72
559.80	344.06
559.97	280.86
560.13	278.52
560.30	327.68
560.46	315.97
560.63	351.08
560.79	290.23
560.96	306.61
561.12	292.57
561.29	308.95
561.45	393.21
561.61	280.86
561.78	325.33
561.94	297.25
562.11	304.27
562.27	224.69
562.44	257.46
562.60	290.23
562.77	304.27
562.93	287.89
563.10	227.03
563.26	222.35
563.42	292.57
563.59	301.93
563.75	224.69
563.92	330.02
564.08	262.14
564.24	301.93
564.41	346.40
564.57	231.71
564.74	159.16
564.90	236.39
565.07	311.29
565.23	339.38
565.39	304.27
565.56	241.08
565.72	243.42
565.88	299.59
566.05	241.08
566.21	205.97
566.38	294.91
566.54	243.42
566.70	243.42
566.87	283.20
567.03	227.03
567.19	294.91
567.36	311.29
567.52	276.18
567.68	308.95
567.85	278.52
568.01	229.37
568.17	208.31
568.34	243.42
568.50	266.82
568.66	222.35
568.83	311.29
568.99	248.10
569.15	322.99
569.32	325.33
569.48	227.03
569.64	243.42
569.81	264.48
569.97	205.97
570.13	273.84
570.30	227.03
570.46	191.92
570.62	255.12
570.78	201.29
570.95	245.76
571.11	234.05
571.27	252.78
571.43	215.33
571.60	238.73
571.76	257.46
571.92	301.93
572.09	299.59
572.25	308.95
572.41	243.42
572.57	224.69
572.74	259.80
572.90	224.69
573.06	339.38
573.22	273.84
573.38	320.65
573.55	224.69
573.71	264.48
573.87	259.80
574.03	229.37
574.20	276.18
574.36	250.44
574.52	177.88
574.68	245.76
574.84	241.08
575.01	245.76
575.17	285.55
575.33	318.31
575.49	266.82
575.65	271.50
575.82	318.31
575.98	187.24
576.14	313.63
576.30	461.09
576.46	760.67
576.62	1104.73
576.79	1081.33
576.95	805.14
577.11	645.99
577.27	528.96
577.43	428.32
577.59	416.62
577.75	360.44
577.92	271.50
578.08	313.63
578.24	311.29
578.40	505.56
578.56	823.87
578.72	978.34
578.88	1008.77
579.04	861.32
579.21	582.79
579.37	519.60
579.53	484.49
579.69	507.90
579.85	575.77
580.01	580.45
580.17	503.22
580.33	503.22
580.49	433.00
580.65	482.15
580.82	433.00
580.98	402.57
581.14	440.02
581.30	503.22
581.46	489.17
581.62	545.34
581.78	402.57
581.94	496.19
582.10	510.24
582.26	538.32
582.42	507.90
582.58	566.41
582.74	554.71
582.90	629.60
583.06	578.11
583.22	564.07
583.38	472.79
583.54	503.22
583.70	571.09
583.86	486.83
584.02	580.45
584.18	578.11
584.34	564.07
584.50	505.56
584.66	479.81
584.82	535.98
584.98	486.83
585.14	547.69
585.30	533.64
585.46	489.17
585.62	470.45
585.78	477.47
585.94	479.81
586.10	514.92
586.26	507.90
586.42	608.54
586.58	709.18
586.74	765.36
586.90	842.59
587.06	880.04
587.22	826.21
587.38	763.01
587.54	695.14
587.70	643.65
587.86	655.35
588.02	545.34
588.18	521.94
588.34	475.13
588.49	409.59
588.65	395.55
588.81	365.12
588.97	411.93
589.13	409.59
589.29	440.02
589.45	365.12
589.61	383.85
589.77	428.32
589.93	430.66
590.08	376.83
590.24	308.95
590.40	374.49
590.56	425.98
590.72	381.51
590.88	390.87
591.04	416.62
591.20	341.72
591.35	482.15
591.51	479.81
591.67	461.09
591.83	423.64
591.99	564.07
592.15	615.56
592.31	585.13
592.46	566.41
592.62	678.76
592.78	697.48
592.94	629.60
593.10	580.45
593.26	580.45
593.41	545.34
593.57	528.96
593.73	500.87
593.89	425.98
594.05	435.34
594.20	311.29
594.36	414.27
594.52	379.17
594.68	374.49
594.84	425.98
594.99	348.74
595.15	337.04
595.31	374.49
595.47	346.40
595.62	393.21
595.78	337.04
595.94	386.19
596.10	393.21
596.25	369.80
596.41	348.74
596.57	362.78
596.73	365.12
596.88	306.61
597.04	400.23
597.20	416.62
597.36	393.21
597.51	421.30
597.67	395.55
597.83	390.87
597.99	395.55
598.14	458.74
598.30	433.00
598.46	449.38
598.61	470.45
598.77	346.40
598.93	449.38
599.09	430.66
599.24	456.40
599.40	545.34
599.56	449.38
599.71	458.74
599.87	416.62
600.03	475.13
600.18	341.72
600.34	498.53
600.50	374.49
600.65	435.34
600.81	358.10
600.97	322.99
601.12	344.06
601.28	334.70
601.44	315.97
601.59	379.17
601.75	308.95
601.91	236.39
602.06	320.65
602.22	381.51
602.37	337.04
602.53	315.97
602.69	301.93
602.84	257.46
603.00	397.89
603.16	292.57
603.31	311.29
603.47	411.93
603.62	290.23
603.78	348.74
603.94	311.29
604.09	318.31
604.25	376.83
604.40	339.38
604.56	250.44
604.71	238.73
604.87	224.69
605.03	341.72
605.18	379.17
605.34	313.63
605.49	386.19
605.65	344.06
605.80	299.59
605.96	318.31
606.12	407.25
606.27	395.55
606.43	383.85
606.58	393.21
606.74	341.72
606.89	318.31
607.05	433.00
607.20	430.66
607.36	411.93
607.51	374.49
607.67	362.78
607.82	444.70
607.98	571.09
608.13	550.03
608.29	461.09
608.44	585.13
608.60	592.16
608.75	643.65
608.91	763.01
609.06	758.33
609.22	758.33
609.37	788.76
609.53	926.85
609.68	985.37
609.84	1069.62
609.99	1210.06
610.15	1303.68
610.30	1762.42
610.46	2172.02
610.61	2757.15
610.76	3454.63
610.92	4095.94
611.07	4376.80
611.23	4648.30
611.38	4173.18
611.54	3726.13
611.69	3176.11
611.84	2679.91
612.00	2260.96
612.15	2010.52
612.31	1713.27
612.46	1647.74
612.62	1444.11
612.77	1446.45
612.92	1362.19
613.08	1270.91
613.23	1284.95
613.39	1259.21
613.54	1242.82
613.69	1193.67
613.85	1203.04
614.00	1100.05
614.15	1217.08
614.31	1151.54
614.46	1142.18
614.62	1029.84
614.77	1116.44
614.92	882.38
615.08	924.51
615.23	842.59
615.38	889.40
615.54	777.06
615.69	734.93
615.84	697.48
616.00	636.63
616.15	617.90
616.30	559.39
616.46	580.45
616.61	505.56
616.76	580.45
616.92	528.96
617.07	437.68
617.22	493.85
617.37	428.32
617.53	498.53
617.68	430.66
617.83	360.44
617.99	433.00
618.14	433.00
618.29	404.91
618.45	376.83
618.60	388.53
618.75	351.08
618.90	362.78
619.06	411.93
619.21	470.45
619.36	468.11
619.51	425.98
619.67	414.27
619.82	374.49
619.97	489.17
620.12	484.49
620.28	463.43
620.43	451.72
620.58	465.77
620.73	404.91
620.89	454.06
621.04	421.30
621.19	458.74
621.34	458.74
621.49	374.49
621.65	411.93
621.80	411.93
621.95	388.53
622.10	416.62
622.25	435.34
622.41	322.99
622.56	540.66
622.71	505.56
622.86	437.68
623.01	444.70
623.16	435.34
623.32	411.93
623.47	418.96
623.62	428.32
623.77	390.87
623.92	379.17
624.07	425.98
624.23	388.53
624.38	383.85
624.53	458.74
624.68	477.47
624.83	486.83
624.98	379.17
625.13	472.79
625.29	433.00
625.44	470.45
625.59	477.47
625.74	433.00
625.89	496.19
626.04	404.91
626.19	507.90
626.34	379.17
626.49	421.30
626.65	390.87
626.80	393.21
626.95	390.87
627.10	369.80
627.25	433.00
627.40	346.40
627.55	388.53
627.70	337.04
627.85	433.00
628.00	418.96
628.15	369.80
628.30	451.72
628.45	341.72
628.60	423.64
628.76	386.19
628.91	376.83
629.06	386.19
629.21	404.91
629.36	451.72
629.51	409.59
629.66	440.02
629.81	447.04
629.96	414.27
630.11	505.56
630.26	524.28
630.41	571.09
630.56	589.82
630.71	603.86
630.86	645.99
631.01	671.73
631.16	620.24
631.31	585.13
631.46	543.00
631.61	447.04
631.76	416.62
631.91	334.70
632.06	308.95
632.21	304.27
632.36	372.15
632.51	262.14
632.66	269.16
632.81	252.78
632.96	269.16
633.10	250.44
633.25	276.18
633.40	259.80
633.55	283.20
633.70	266.82
633.85	264.48
634.00	224.69
634.15	198.95
634.30	217.67
634.45	271.50
634.60	313.63
634.75	259.80
634.90	241.08
635.05	222.35
635.19	175.54
635.34	262.14
635.49	187.24
635.64	252.78
635.79	245.76
635.94	227.03
636.09	262.14
636.24	147.45
636.39	138.09
636.53	252.78
636.68	182.56
636.83	203.63
636.98	250.44
637.13	210.65
637.28	196.60
637.43	280.86
637.57	215.33
637.72	250.44
637.87	163.84
638.02	210.65
638.17	257.46
638.32	166.18
638.46	248.10
638.61	322.99
638.76	152.13
638.91	224.69
639.06	63.19
639.20	271.50
639.35	212.99
639.50	168.52
639.65	170.86
639.80	180.22
639.94	194.26
640.09	222.35
640.24	210.65
640.39	159.16
640.54	227.03
640.68	198.95
640.83	177.88
640.98	234.05
641.13	184.90
641.27	112.35
641.42	170.86
641.57	255.12
641.72	180.22
641.86	205.97
642.01	187.24
642.16	255.12
642.31	173.20
642.45	198.95
642.60	283.20
642.75	131.07
642.90	236.39
643.04	208.31
643.19	208.31
643.34	271.50
643.48	259.80
643.63	243.42
643.78	283.20
643.93	273.84
644.07	189.58
644.22	245.76
644.37	198.95
644.51	334.70
644.66	198.95
644.81	161.50
644.95	252.78
645.10	266.82
645.25	149.79
645.39	229.37
645.54	159.16
645.69	227.03
645.83	166.18
645.98	292.57
646.13	145.11
646.27	224.69
646.42	173.20
646.57	238.73
646.71	217.67
646.86	177.88
647.00	210.65
647.15	194.26
647.30	149.79
647.44	187.24
647.59	191.92
647.74	147.45
647.88	175.54
648.03	168.52
648.17	266.82
648.32	227.03
648.47	208.31
648.61	117.03
648.76	241.08
648.90	175.54
649.05	208.31
649.20	217.67
649.34	224.69
649.49	224.69
649.63	222.35
649.78	212.99
649.92	220.01
650.07	262.14
650.21	266.82
650.36	299.59
650.51	285.55
650.65	351.08
650.80	283.20
650.94	283.20
651.09	283.20
651.23	191.92
651.38	201.29
651.52	283.20
651.67	177.88
651.81	278.52
651.96	269.16
652.10	248.10
652.25	243.42
652.39	248.10
652.54	205.97
652.68	238.73
652.83	224.69
652.97	222.35
653.12	250.44
653.26	227.03
653.41	273.84
653.55	217.67
653.70	217.67
653.84	271.50
653.99	184.90
654.13	142.77
654.27	163.84
654.42	128.73
654.56	175.54
654.71	276.18
654.85	210.65
655.00	215.33
655.14	142.77
655.29	271.50
655.43	187.24
655.57	208.31
655.72	147.45
655.86	163.84
656.01	187.24
656.15	147.45
656.30	205.97
656.44	173.20
656.58	145.11
656.73	189.58
656.87	191.92
657.01	180.22
657.16	217.67
657.30	220.01
657.45	259.80
657.59	227.03
657.73	222.35
657.88	175.54
658.02	276.18
658.16	194.26
658.31	217.67
658.45	189.58
658.60	175.54
658.74	273.84
658.88	140.43
659.03	229.37
659.17	182.56
659.31	257.46
659.46	175.54
659.60	170.86
659.74	205.97
659.89	180.22
660.03	145.11
660.17	245.76
660.32	147.45
660.46	236.39
660.60	177.88
660.74	159.16
660.89	180.22
661.03	163.84
661.17	191.92
661.32	182.56
661.46	163.84
661.60	145.11
661.74	341.72
661.89	248.10
662.03	252.78
662.17	229.37
662.31	201.29
662.46	276.18
662.60	187.24
662.74	210.65
662.88	339.38
663.03	292.57
663.17	163.84
663.31	191.92
663.45	227.03
663.60	170.86
663.74	166.18
663.88	102.98
664.02	173.20
664.17	180.22
664.31	191.92
664.45	231.71
664.59	187.24
664.73	177.88
664.88	229.37
665.02	201.29
665.16	126.39
665.30	154.48
665.44	250.44
665.59	238.73
665.73	198.95
665.87	140.43
666.01	243.42
666.15	196.60
666.29	229.37
666.44	173.20
666.58	166.18
666.72	161.50
666.86	222.35
667.00	149.79
667.14	191.92
667.28	196.60
667.43	222.35
667.57	201.29
667.71	166.18
667.85	224.69
667.99	215.33
668.13	220.01
668.27	196.60
668.41	140.43
668.56	175.54
668.70	208.31
668.84	191.92
668.98	161.50
669.12	180.22
669.26	124.05
669.40	257.46
669.54	236.39
669.68	182.56
669.82	229.37
669.96	196.60
670.10	184.90
670.25	177.88
670.39	259.80
670.53	196.60
670.67	131.07
670.81	98.30
670.95	184.90
671.09	119.37
671.23	208.31
671.37	133.41
671.51	163.84
671.65	283.20
671.79	173.20
671.93	177.88
672.07	278.52
672.21	212.99
672.35	187.24
672.49	180.22
672.63	222.35
672.77	147.45
672.91	222.35
673.05	133.41
673.19	208.31
673.33	210.65
673.47	187.24
673.61	177.88
673.75	182.56
673.89	133.41
674.03	212.99
674.17	156.82
674.31	182.56
674.45	133.41
674.59	121.71
674.73	138.09
674.87	88.94
675.01	212.99
675.15	245.76
675.29	163.84
675.43	205.97
675.56	194.26
675.70	224.69
675.84	156.82
675.98	189.58
676.12	161.50
676.26	173.20
676.40	147.45
676.54	231.71
676.68	189.58
676.82	170.86
676.96	161.50
677.10	191.92
677.23	154.48
677.37	198.95
677.51	217.67
677.65	227.03
677.79	135.75
677.93	135.75
678.07	149.79
678.21	170.86
678.34	121.71
678.48	161.50
678.62	161.50
678.76	210.65
678.90	205.97
679.04	105.32
679.18	140.43
679.31	93.62
679.45	133.41
679.59	170.86
679.73	208.31
679.87	88.94
680.00	203.63
680.14	81.92
680.28	177.88
680.42	196.60
680.56	231.71
680.70	121.71
680.83	175.54
680.97	135.75
681.11	131.07
681.25	234.05
681.39	184.90
681.52	236.39
681.66	175.54
681.80	168.52
681.94	107.66
682.07	67.88
682.21	170.86
682.35	196.60
682.49	112.35
682.62	166.18
682.76	128.73
682.90	128.73
683.04	114.69
683.17	163.84
683.31	173.20
683.45	231.71
683.59	210.65
683.72	220.01
683.86	194.26
684.00	159.16
684.13	229.37
684.27	173.20
684.41	212.99
684.55	182.56
684.68	194.26
684.82	121.71
684.96	152.13
685.09	142.77
685.23	154.48
685.37	149.79
685.50	173.20
685.64	250.44
685.78	161.50
685.91	166.18
686.05	187.24
686.19	220.01
686.32	107.66
686.46	159.16
686.60	168.52
686.73	208.31
686.87	273.84
687.01	189.58
687.14	191.92
687.28	159.16
687.42	145.11
687.55	173.20
687.69	205.97
687.82	184.90
687.96	238.73
688.10	177.88
688.23	159.16
688.37	191.92
688.50	189.58
688.64	180.22
688.78	154.48
688.91	93.62
689.05	114.69
689.18	100.64
689.32	149.79
689.46	126.39
689.59	161.50
689.73	142.77
689.86	112.35
690.00	198.95
690.13	128.73
690.27	88.94
690.41	142.77
690.54	187.24
690.68	110.01
690.81	166.18
690.95	131.07
691.08	154.48
691.22	86.60
691.35	173.20
691.49	180.22
691.62	128.73
691.76	140.43
691.89	56.17
692.03	170.86
692.16	156.82
692.30	124.05
692.43	170.86
692.57	100.64
692.70	135.75
692.84	208.31
692.97	180.22
693.11	128.73
693.24	168.52
693.38	189.58
693.51	140.43
693.65	210.65
693.78	138.09
693.92	79.58
694.05	154.48
694.19	147.45
694.32	133.41
694.45	180.22
694.59	119.37
694.72	105.32
694.86	124.05
694.99	187.24
695.13	93.62
695.26	72.56
695.39	138.09
695.53	222.35
695.66	145.11
695.80	149.79
695.93	107.66
696.07	67.88
696.20	156.82
696.33	95.96
696.47	124.05
696.60	161.50
696.73	79.58
696.87	133.41
697.00	170.86
697.14	168.52
697.27	140.43
697.40	210.65
697.54	117.03
697.67	194.26
697.80	140.43
697.94	145.11
698.07	182.56
698.21	182.56
698.34	67.88
698.47	173.20
698.61	86.60
698.74	166.18
698.87	147.45
699.01	77.24
699.14	156.82
699.27	140.43
699.40	131.07
699.54	149.79
699.67	126.39
699.80	194.26
699.94	124.05
700.07	154.48
700.20	133.41
700.34	110.01
700.47	58.51
700.60	86.60
700.73	154.48
700.87	161.50
701.00	67.88
701.13	114.69
701.26	131.07
701.40	119.37
701.53	110.01
701.66	105.32
701.79	93.62
701.93	147.45
702.06	163.84
702.19	135.75
702.32	182.56
702.46	168.52
702.59	147.45
702.72	107.66
702.85	121.71
702.99	84.26
703.12	196.60
703.25	138.09
703.38	170.86
703.51	220.01
703.65	98.30
703.78	128.73
703.91	147.45
704.04	121.71
704.17	180.22
704.31	105.32
704.44	142.77
704.57	100.64
704.70	177.88
704.83	110.01
704.96	112.35
705.10	133.41
705.23	124.05
>>>>>End Processed Spectral Data<<<<<
