SpectraSuite Data File
++++++++++++++++++++++++++++++++++++
Date: Fri Oct 04 11:41:53 GMT-05:00 2013
User: price-jones
Dark Spectrum Present: No
Reference Spectrum Present: No
Number of Sampled Component Spectra: 1
Spectrometers: USB2+H05261
Integration Time (usec): 100000 (USB2+H05261)
Spectra Averaged: 1 (USB2+H05261)
Boxcar Smoothing: 0 (USB2+H05261)
Correct for Electrical Dark: No (USB2+H05261)
Strobe/Lamp Enabled: No (USB2+H05261)
Correct for Detector Non-linearity: No (USB2+H05261)
Correct for Stray Light: No (USB2+H05261)
Number of Pixels in Processed Spectrum: 2048
>>>>>Begin Processed Spectral Data<<<<<
365.73	72.56
365.92	72.56
366.12	72.56
366.32	0.00
366.52	0.00
366.72	0.00
366.91	0.00
367.11	0.00
367.31	0.00
367.51	0.00
367.70	0.00
367.90	0.00
368.10	7.02
368.30	0.00
368.49	0.00
368.69	0.00
368.89	0.00
369.09	0.00
369.28	2.34
369.48	2.34
369.68	0.00
369.87	25.75
370.07	0.00
370.27	100.64
370.47	44.47
370.66	18.72
370.86	35.11
371.06	46.81
371.25	93.62
371.45	63.19
371.65	100.64
371.84	77.24
372.04	46.81
372.24	72.56
372.44	126.39
372.63	53.83
372.83	210.65
373.03	88.94
373.22	86.60
373.42	128.73
373.62	198.95
373.81	107.66
374.01	67.88
374.21	131.07
374.40	102.98
374.60	131.07
374.79	117.03
374.99	126.39
375.19	161.50
375.38	133.41
375.58	170.86
375.78	182.56
375.97	133.41
376.17	184.90
376.37	110.01
376.56	135.75
376.76	98.30
376.95	91.28
377.15	114.69
377.35	117.03
377.54	126.39
377.74	133.41
377.93	91.28
378.13	149.79
378.33	138.09
378.52	126.39
378.72	49.15
378.91	168.52
379.11	84.26
379.31	121.71
379.50	98.30
379.70	100.64
379.89	163.84
380.09	126.39
380.28	93.62
380.48	114.69
380.68	53.83
380.87	42.13
381.07	131.07
381.26	177.88
381.46	93.62
381.65	135.75
381.85	93.62
382.04	88.94
382.24	131.07
382.43	81.92
382.63	42.13
382.83	60.85
383.02	112.35
383.22	142.77
383.41	65.54
383.61	49.15
383.80	138.09
384.00	100.64
384.19	182.56
384.39	98.30
384.58	140.43
384.78	102.98
384.97	84.26
385.17	177.88
385.36	142.77
385.56	182.56
385.75	105.32
385.95	112.35
386.14	112.35
386.34	126.39
386.53	110.01
386.72	142.77
386.92	117.03
387.11	126.39
387.31	126.39
387.50	100.64
387.70	58.51
387.89	93.62
388.09	84.26
388.28	93.62
388.48	177.88
388.67	124.05
388.86	88.94
389.06	133.41
389.25	156.82
389.45	100.64
389.64	114.69
389.84	175.54
390.03	81.92
390.22	156.82
390.42	124.05
390.61	126.39
390.81	79.58
391.00	74.90
391.19	189.58
391.39	102.98
391.58	107.66
391.78	74.90
391.97	177.88
392.16	58.51
392.36	156.82
392.55	170.86
392.75	117.03
392.94	128.73
393.13	140.43
393.33	126.39
393.52	112.35
393.71	166.18
393.91	84.26
394.10	100.64
394.29	74.90
394.49	58.51
394.68	65.54
394.88	84.26
395.07	93.62
395.26	58.51
395.46	133.41
395.65	140.43
395.84	161.50
396.04	175.54
396.23	149.79
396.42	95.96
396.62	168.52
396.81	88.94
397.00	220.01
397.19	35.11
397.39	72.56
397.58	98.30
397.77	168.52
397.97	166.18
398.16	72.56
398.35	100.64
398.55	91.28
398.74	133.41
398.93	131.07
399.12	100.64
399.32	175.54
399.51	77.24
399.70	217.67
399.90	173.20
400.09	140.43
400.28	133.41
400.47	147.45
400.67	77.24
400.86	53.83
401.05	175.54
401.24	175.54
401.44	159.16
401.63	128.73
401.82	187.24
402.01	98.30
402.21	126.39
402.40	131.07
402.59	93.62
402.78	126.39
402.97	159.16
403.17	124.05
403.36	259.80
403.55	227.03
403.74	418.96
403.93	1231.12
404.13	2340.54
404.32	2612.04
404.51	2176.70
404.70	1055.58
404.89	407.25
405.09	259.80
405.28	243.42
405.47	133.41
405.66	170.86
405.85	184.90
406.05	159.16
406.24	126.39
406.43	184.90
406.62	177.88
406.81	149.79
407.00	224.69
407.20	304.27
407.39	468.11
407.58	449.38
407.77	306.61
407.96	159.16
408.15	140.43
408.34	152.13
408.54	198.95
408.73	161.50
408.92	175.54
409.11	205.97
409.30	194.26
409.49	100.64
409.68	119.37
409.87	126.39
410.07	135.75
410.26	191.92
410.45	121.71
410.64	170.86
410.83	180.22
411.02	149.79
411.21	163.84
411.40	236.39
411.59	114.69
411.78	170.86
411.98	147.45
412.17	184.90
412.36	119.37
412.55	194.26
412.74	196.60
412.93	196.60
413.12	119.37
413.31	229.37
413.50	264.48
413.69	166.18
413.88	198.95
414.07	220.01
414.26	194.26
414.45	203.63
414.64	168.52
414.83	191.92
415.02	163.84
415.22	173.20
415.41	236.39
415.60	126.39
415.79	182.56
415.98	262.14
416.17	159.16
416.36	140.43
416.55	154.48
416.74	147.45
416.93	234.05
417.12	110.01
417.31	166.18
417.50	133.41
417.69	217.67
417.88	147.45
418.07	142.77
418.26	140.43
418.45	163.84
418.64	210.65
418.83	70.22
419.02	194.26
419.21	145.11
419.39	154.48
419.58	180.22
419.77	210.65
419.96	191.92
420.15	255.12
420.34	203.63
420.53	166.18
420.72	177.88
420.91	196.60
421.10	196.60
421.29	166.18
421.48	234.05
421.67	215.33
421.86	159.16
422.05	222.35
422.24	189.58
422.43	140.43
422.61	198.95
422.80	250.44
422.99	201.29
423.18	201.29
423.37	227.03
423.56	159.16
423.75	210.65
423.94	168.52
424.13	245.76
424.32	248.10
424.50	222.35
424.69	231.71
424.88	248.10
425.07	173.20
425.26	229.37
425.45	180.22
425.64	173.20
425.83	170.86
426.01	196.60
426.20	194.26
426.39	159.16
426.58	180.22
426.77	124.05
426.96	280.86
427.15	266.82
427.33	184.90
427.52	198.95
427.71	187.24
427.90	215.33
428.09	81.92
428.28	170.86
428.46	198.95
428.65	238.73
428.84	248.10
429.03	180.22
429.22	173.20
429.40	161.50
429.59	170.86
429.78	227.03
429.97	194.26
430.16	175.54
430.34	208.31
430.53	220.01
430.72	224.69
430.91	234.05
431.10	198.95
431.28	191.92
431.47	285.55
431.66	215.33
431.85	234.05
432.03	259.80
432.22	273.84
432.41	280.86
432.60	297.25
432.79	311.29
432.97	278.52
433.16	294.91
433.35	358.10
433.54	365.12
433.72	276.18
433.91	259.80
434.10	388.53
434.28	493.85
434.47	486.83
434.66	550.03
434.85	678.76
435.03	2062.01
435.22	6977.14
435.41	11873.54
435.59	10218.78
435.78	6785.21
435.97	3302.50
436.16	1336.45
436.34	573.43
436.53	423.64
436.72	409.59
436.90	290.23
437.09	283.20
437.28	243.42
437.46	201.29
437.65	299.59
437.84	278.52
438.02	285.55
438.21	280.86
438.40	278.52
438.58	280.86
438.77	297.25
438.96	250.44
439.14	264.48
439.33	299.59
439.52	262.14
439.70	276.18
439.89	322.99
440.08	266.82
440.26	262.14
440.45	334.70
440.63	259.80
440.82	222.35
441.01	243.42
441.19	224.69
441.38	299.59
441.57	290.23
441.75	208.31
441.94	243.42
442.12	269.16
442.31	299.59
442.50	217.67
442.68	257.46
442.87	266.82
443.05	292.57
443.24	285.55
443.43	308.95
443.61	301.93
443.80	339.38
443.98	255.12
444.17	224.69
444.35	236.39
444.54	245.76
444.73	294.91
444.91	269.16
445.10	224.69
445.28	196.60
445.47	227.03
445.65	269.16
445.84	245.76
446.02	290.23
446.21	224.69
446.39	301.93
446.58	308.95
446.77	220.01
446.95	212.99
447.14	318.31
447.32	318.31
447.51	285.55
447.69	250.44
447.88	287.89
448.06	308.95
448.25	287.89
448.43	266.82
448.62	255.12
448.80	245.76
448.99	227.03
449.17	269.16
449.36	175.54
449.54	285.55
449.73	245.76
449.91	264.48
450.10	241.08
450.28	301.93
450.46	311.29
450.65	264.48
450.83	360.44
451.02	229.37
451.20	234.05
451.39	339.38
451.57	257.46
451.76	257.46
451.94	266.82
452.13	266.82
452.31	276.18
452.49	234.05
452.68	278.52
452.86	264.48
453.05	262.14
453.23	292.57
453.42	290.23
453.60	264.48
453.78	376.83
453.97	271.50
454.15	252.78
454.34	264.48
454.52	273.84
454.70	259.80
454.89	252.78
455.07	194.26
455.26	299.59
455.44	325.33
455.62	245.76
455.81	311.29
455.99	262.14
456.17	245.76
456.36	182.56
456.54	271.50
456.73	266.82
456.91	292.57
457.09	290.23
457.28	259.80
457.46	262.14
457.64	306.61
457.83	217.67
458.01	203.63
458.19	283.20
458.38	262.14
458.56	304.27
458.74	215.33
458.93	245.76
459.11	201.29
459.29	325.33
459.48	334.70
459.66	299.59
459.84	276.18
460.03	262.14
460.21	311.29
460.39	271.50
460.57	264.48
460.76	196.60
460.94	283.20
461.12	308.95
461.31	365.12
461.49	163.84
461.67	196.60
461.85	297.25
462.04	320.65
462.22	732.59
462.40	227.03
462.59	325.33
462.77	283.20
462.95	292.57
463.13	292.57
463.32	245.76
463.50	273.84
463.68	280.86
463.86	308.95
464.05	292.57
464.23	203.63
464.41	306.61
464.59	180.22
464.78	262.14
464.96	236.39
465.14	264.48
465.32	255.12
465.50	266.82
465.69	227.03
465.87	222.35
466.05	224.69
466.23	290.23
466.41	159.16
466.60	304.27
466.78	308.95
466.96	353.42
467.14	344.06
467.32	337.04
467.51	334.70
467.69	283.20
467.87	187.24
468.05	252.78
468.23	294.91
468.41	236.39
468.60	250.44
468.78	238.73
468.96	220.01
469.14	245.76
469.32	243.42
469.50	182.56
469.69	194.26
469.87	257.46
470.05	212.99
470.23	229.37
470.41	210.65
470.59	184.90
470.77	234.05
470.95	194.26
471.14	299.59
471.32	259.80
471.50	287.89
471.68	273.84
471.86	280.86
472.04	227.03
472.22	257.46
472.40	220.01
472.58	264.48
472.77	280.86
472.95	227.03
473.13	320.65
473.31	278.52
473.49	203.63
473.67	215.33
473.85	285.55
474.03	259.80
474.21	222.35
474.39	224.69
474.57	280.86
474.75	308.95
474.93	322.99
475.12	201.29
475.30	149.79
475.48	248.10
475.66	212.99
475.84	306.61
476.02	311.29
476.20	306.61
476.38	266.82
476.56	271.50
476.74	313.63
476.92	264.48
477.10	196.60
477.28	318.31
477.46	276.18
477.64	304.27
477.82	259.80
478.00	304.27
478.18	322.99
478.36	243.42
478.54	308.95
478.72	301.93
478.90	287.89
479.08	341.72
479.26	311.29
479.44	271.50
479.62	280.86
479.80	262.14
479.98	243.42
480.16	404.91
480.34	313.63
480.52	299.59
480.70	414.27
480.88	299.59
481.06	318.31
481.24	325.33
481.41	374.49
481.59	322.99
481.77	447.04
481.95	454.06
482.13	514.92
482.31	535.98
482.49	442.36
482.67	601.52
482.85	610.88
483.03	505.56
483.21	631.94
483.39	641.31
483.57	638.97
483.74	730.25
483.92	807.48
484.10	795.78
484.28	868.34
484.46	887.06
484.64	891.74
484.82	922.17
485.00	947.92
485.18	1020.47
485.35	1036.86
485.53	1118.78
485.71	1217.08
485.89	1174.95
486.07	1226.44
486.25	1259.21
486.43	1259.21
486.61	1270.91
486.78	1261.55
486.96	1352.83
487.14	1233.46
487.32	1252.19
487.50	1242.82
487.68	1235.80
487.85	1277.93
488.03	1308.36
488.21	1184.31
488.39	1207.72
488.57	1142.18
488.75	1057.92
488.92	1397.30
489.10	1090.69
489.28	1088.35
489.46	987.71
489.64	997.07
489.81	985.37
489.99	1057.92
490.17	1034.52
490.35	1027.50
490.53	940.90
490.70	1029.84
490.88	1048.56
491.06	1057.92
491.24	1081.33
491.41	1144.52
491.59	1050.90
491.77	983.02
491.95	968.98
492.13	999.41
492.30	833.23
492.48	894.08
492.66	903.45
492.84	842.59
493.01	856.64
493.19	868.34
493.37	884.72
493.54	940.90
493.72	828.55
493.90	732.59
494.08	851.96
494.25	765.36
494.43	765.36
494.61	767.70
494.79	821.53
494.96	737.27
495.14	774.72
495.32	751.31
495.49	734.93
495.67	704.50
495.85	737.27
496.02	699.82
496.20	746.63
496.38	739.61
496.55	641.31
496.73	667.05
496.91	678.76
497.09	709.18
497.26	608.54
497.44	617.90
497.62	599.18
497.79	622.58
497.97	634.29
498.14	634.29
498.32	617.90
498.50	540.66
498.67	578.11
498.85	540.66
499.03	538.32
499.20	470.45
499.38	571.09
499.56	554.71
499.73	620.24
499.91	486.83
500.08	521.94
500.26	463.43
500.44	442.36
500.61	461.09
500.79	486.83
500.97	458.74
501.14	451.72
501.32	535.98
501.49	475.13
501.67	458.74
501.84	409.59
502.02	468.11
502.20	418.96
502.37	379.17
502.55	425.98
502.72	374.49
502.90	442.36
503.07	388.53
503.25	456.40
503.43	358.10
503.60	353.42
503.78	318.31
503.95	360.44
504.13	388.53
504.30	308.95
504.48	341.72
504.65	447.04
504.83	411.93
505.01	344.06
505.18	311.29
505.36	355.76
505.53	379.17
505.71	259.80
505.88	374.49
506.06	308.95
506.23	301.93
506.41	308.95
506.58	278.52
506.76	367.46
506.93	330.02
507.11	271.50
507.28	299.59
507.46	292.57
507.63	271.50
507.81	301.93
507.98	308.95
508.16	252.78
508.33	320.65
508.50	365.12
508.68	203.63
508.85	285.55
509.03	374.49
509.20	318.31
509.38	269.16
509.55	283.20
509.73	353.42
509.90	341.72
510.08	327.68
510.25	294.91
510.42	243.42
510.60	262.14
510.77	304.27
510.95	292.57
511.12	315.97
511.30	304.27
511.47	283.20
511.64	430.66
511.82	304.27
511.99	320.65
512.17	276.18
512.34	318.31
512.51	330.02
512.69	264.48
512.86	353.42
513.04	292.57
513.21	315.97
513.38	250.44
513.56	243.42
513.73	299.59
513.90	337.04
514.08	283.20
514.25	231.71
514.43	266.82
514.60	264.48
514.77	294.91
514.95	294.91
515.12	322.99
515.29	280.86
515.47	292.57
515.64	266.82
515.81	215.33
515.99	276.18
516.16	264.48
516.33	306.61
516.51	271.50
516.68	217.67
516.85	283.20
517.03	224.69
517.20	262.14
517.37	290.23
517.54	304.27
517.72	283.20
517.89	308.95
518.06	255.12
518.24	327.68
518.41	421.30
518.58	351.08
518.75	234.05
518.93	229.37
519.10	379.17
519.27	231.71
519.45	325.33
519.62	290.23
519.79	278.52
519.96	238.73
520.14	301.93
520.31	290.23
520.48	259.80
520.65	301.93
520.83	306.61
521.00	348.74
521.17	264.48
521.34	236.39
521.52	245.76
521.69	236.39
521.86	243.42
522.03	245.76
522.20	306.61
522.38	210.65
522.55	308.95
522.72	264.48
522.89	299.59
523.07	290.23
523.24	280.86
523.41	241.08
523.58	304.27
523.75	266.82
523.92	245.76
524.10	325.33
524.27	313.63
524.44	294.91
524.61	355.76
524.78	299.59
524.96	301.93
525.13	332.36
525.30	311.29
525.47	294.91
525.64	397.89
525.81	327.68
525.98	262.14
526.16	245.76
526.33	294.91
526.50	290.23
526.67	227.03
526.84	280.86
527.01	238.73
527.18	332.36
527.36	318.31
527.53	362.78
527.70	348.74
527.87	355.76
528.04	334.70
528.21	250.44
528.38	353.42
528.55	322.99
528.72	353.42
528.89	360.44
529.07	294.91
529.24	372.15
529.41	358.10
529.58	341.72
529.75	330.02
529.92	369.80
530.09	397.89
530.26	395.55
530.43	416.62
530.60	390.87
530.77	395.55
530.94	318.31
531.11	348.74
531.28	346.40
531.46	332.36
531.63	393.21
531.80	369.80
531.97	383.85
532.14	418.96
532.31	477.47
532.48	489.17
532.65	636.63
532.82	674.07
532.99	690.46
533.16	894.08
533.33	791.10
533.50	702.16
533.67	587.47
533.84	624.92
534.01	599.18
534.18	587.47
534.35	491.51
534.52	475.13
534.69	587.47
534.86	561.73
535.03	589.82
535.20	615.56
535.37	547.69
535.54	650.67
535.71	674.07
535.88	763.01
536.05	758.33
536.22	695.14
536.38	786.42
536.55	964.30
536.72	1086.01
536.89	1043.88
537.06	1125.80
537.23	1254.53
537.40	1362.19
537.57	1486.24
537.74	1465.18
537.91	1577.52
538.08	1547.09
538.25	1619.65
538.42	1680.50
538.59	1654.76
538.75	1708.59
538.92	1757.74
539.09	2026.90
539.26	2183.72
539.43	2527.78
539.60	2651.83
539.77	3019.29
539.94	3272.07
540.11	3641.87
540.28	3999.98
540.44	4437.66
540.61	4889.38
540.78	5673.46
540.95	6897.56
541.12	7850.16
541.29	8477.42
541.46	8702.11
541.62	8659.98
541.79	8489.12
541.96	8013.99
542.13	7386.73
542.30	6963.09
542.47	6663.51
542.63	6214.12
542.80	5987.09
542.97	5846.66
543.14	5942.62
543.31	5853.68
543.48	5921.56
543.64	6115.82
543.81	6209.44
543.98	6069.01
544.15	6139.23
544.32	6106.46
544.48	6038.58
544.65	6017.52
544.82	5991.77
544.99	6108.80
545.16	6352.21
545.32	6743.08
545.49	13757.67
545.66	21628.89
545.83	23529.41
546.00	18635.35
546.16	13144.45
546.33	9844.29
546.50	7342.26
546.67	6108.80
546.83	5593.88
547.00	5046.20
547.17	5008.75
547.34	4744.27
547.50	4678.73
547.67	4500.85
547.84	4311.27
548.00	4138.07
548.17	4021.04
548.34	3810.39
548.51	3859.54
548.67	3552.93
548.84	3442.93
549.01	3103.55
549.18	2972.48
549.34	3033.33
549.51	2956.10
549.68	2836.73
549.84	2679.91
550.01	2661.19
550.18	2518.42
550.34	2520.76
550.51	2317.13
550.68	2218.83
550.84	2090.10
551.01	1963.71
551.18	1963.71
551.34	1834.98
551.51	1746.04
551.68	1661.78
551.84	1605.61
552.01	1593.90
552.18	1493.26
552.34	1423.05
552.51	1444.11
552.68	1397.30
552.84	1275.59
553.01	1277.93
553.18	1355.17
553.34	1224.10
553.51	1188.99
553.67	1116.44
553.84	1118.78
554.01	1067.28
554.17	980.68
554.34	947.92
554.51	884.72
554.67	884.72
554.84	760.67
555.00	891.74
555.17	816.85
555.33	788.76
555.50	688.12
555.67	690.46
555.83	578.11
556.00	592.16
556.16	760.67
556.33	664.71
556.50	578.11
556.66	535.98
556.83	603.86
556.99	599.18
557.16	514.92
557.32	559.39
557.49	538.32
557.65	482.15
557.82	550.03
557.98	517.26
558.15	435.34
558.32	444.70
558.48	456.40
558.65	468.11
558.81	390.87
558.98	496.19
559.14	484.49
559.31	468.11
559.47	386.19
559.64	437.68
559.80	491.51
559.97	465.77
560.13	486.83
560.30	454.06
560.46	430.66
560.63	416.62
560.79	421.30
560.96	484.49
561.12	404.91
561.29	374.49
561.45	386.19
561.61	430.66
561.78	493.85
561.94	444.70
562.11	395.55
562.27	430.66
562.44	381.51
562.60	390.87
562.77	465.77
562.93	418.96
563.10	421.30
563.26	390.87
563.42	397.89
563.59	381.51
563.75	423.64
563.92	393.21
564.08	374.49
564.24	428.32
564.41	458.74
564.57	351.08
564.74	379.17
564.90	402.57
565.07	456.40
565.23	388.53
565.39	435.34
565.56	437.68
565.72	393.21
565.88	390.87
566.05	386.19
566.21	402.57
566.38	383.85
566.54	325.33
566.70	337.04
566.87	395.55
567.03	430.66
567.19	421.30
567.36	383.85
567.52	346.40
567.68	411.93
567.85	386.19
568.01	379.17
568.17	390.87
568.34	390.87
568.50	301.93
568.66	262.14
568.83	472.79
568.99	353.42
569.15	362.78
569.32	351.08
569.48	388.53
569.64	355.76
569.81	304.27
569.97	301.93
570.13	320.65
570.30	339.38
570.46	311.29
570.62	322.99
570.78	362.78
570.95	257.46
571.11	318.31
571.27	271.50
571.43	315.97
571.60	304.27
571.76	262.14
571.92	241.08
572.09	308.95
572.25	322.99
572.41	294.91
572.57	325.33
572.74	313.63
572.90	334.70
573.06	257.46
573.22	337.04
573.38	297.25
573.55	315.97
573.71	381.51
573.87	390.87
574.03	376.83
574.20	369.80
574.36	411.93
574.52	348.74
574.68	325.33
574.84	414.27
575.01	313.63
575.17	425.98
575.33	407.25
575.49	416.62
575.65	386.19
575.82	409.59
575.98	543.00
576.14	482.15
576.30	1135.16
576.46	3080.14
576.62	4126.36
576.79	3861.88
576.95	2928.01
577.11	1989.46
577.27	1359.85
577.43	945.58
577.59	814.51
577.75	699.82
577.92	594.50
578.08	660.03
578.24	571.09
578.40	1210.06
578.56	2710.34
578.72	3566.98
578.88	3698.05
579.04	2729.06
579.21	2012.86
579.37	1521.35
579.53	1207.72
579.69	1383.26
579.85	1549.43
580.01	1783.49
580.17	1472.20
580.33	1406.66
580.49	1163.25
580.65	1100.05
580.82	1104.73
580.98	1025.15
581.14	999.41
581.30	1153.88
581.46	1217.08
581.62	1310.70
581.78	1348.15
581.94	1460.49
582.10	1376.24
582.26	1444.11
582.42	1619.65
582.58	1551.78
582.74	1678.16
582.90	1708.59
583.06	1671.14
583.22	1605.61
583.38	1645.40
583.54	1657.10
583.70	1673.48
583.86	1591.56
584.02	1514.33
584.18	1572.84
584.34	1554.12
584.50	1598.59
584.66	1526.03
584.82	1469.86
584.98	1409.00
585.14	1472.20
585.30	1432.41
585.46	1345.81
585.62	1336.45
585.78	1387.94
585.94	1446.45
586.10	1444.11
586.26	1523.69
586.42	1778.81
586.58	1980.09
586.74	2555.86
586.90	2775.88
587.06	2916.31
587.22	2963.12
587.38	2583.95
587.54	2270.32
587.70	2012.86
587.86	1732.00
588.02	1437.09
588.18	1401.98
588.34	1261.55
588.49	1121.12
588.65	1086.01
588.81	1008.77
588.97	964.30
589.13	915.15
589.29	994.73
589.45	992.39
589.61	933.87
589.77	961.96
589.93	994.73
590.08	1088.35
590.24	1137.50
590.40	1046.22
590.56	1142.18
590.72	1188.99
590.88	1011.11
591.04	1128.14
591.20	1198.35
591.35	1315.38
591.51	1252.19
591.67	1352.83
591.83	1497.94
591.99	1493.26
592.15	1694.55
592.31	1783.49
592.46	1849.02
592.62	2148.61
592.78	2150.95
592.94	2214.15
593.10	2150.95
593.26	1996.48
593.41	1905.20
593.57	1729.66
593.73	1558.80
593.89	1439.43
594.05	1109.41
594.20	1158.57
594.36	1184.31
594.52	957.28
594.68	910.47
594.84	968.98
594.99	1015.79
595.15	868.34
595.31	847.27
595.47	870.68
595.62	826.21
595.78	856.64
595.94	856.64
596.10	959.62
596.25	882.38
596.41	889.40
596.57	744.29
596.73	837.91
596.88	884.72
597.04	889.40
597.20	868.34
597.36	964.30
597.51	1036.86
597.67	1032.18
597.83	1027.50
597.99	1041.54
598.14	1029.84
598.30	1109.41
598.46	1158.57
598.61	1327.08
598.77	1284.95
598.93	1294.32
599.09	1432.41
599.24	1409.00
599.40	1359.85
599.56	1299.00
599.71	1401.98
599.87	1247.51
600.03	1158.57
600.18	1104.73
600.34	1004.09
600.50	1006.43
600.65	837.91
600.81	826.21
600.97	840.25
601.12	744.29
601.28	807.48
601.44	791.10
601.59	720.88
601.75	800.46
601.91	713.86
602.06	723.23
602.22	596.84
602.37	617.90
602.53	678.76
602.69	681.10
602.84	634.29
603.00	643.65
603.16	627.26
603.31	660.03
603.47	650.67
603.62	741.95
603.78	695.14
603.94	692.80
604.09	695.14
604.25	753.65
604.40	702.16
604.56	664.71
604.71	697.48
604.87	777.06
605.03	774.72
605.18	800.46
605.34	821.53
605.49	697.48
605.65	760.67
605.80	828.55
605.96	844.93
606.12	908.13
606.27	896.43
606.43	926.85
606.58	933.87
606.74	947.92
606.89	1032.18
607.05	1111.75
607.20	1149.20
607.36	1158.57
607.51	1207.72
607.67	1177.29
607.82	1336.45
607.98	1462.83
608.13	1666.46
608.29	1661.78
608.44	1863.07
608.60	1865.41
608.75	2132.23
608.91	2253.94
609.06	2499.69
609.22	2796.94
609.37	2869.50
609.53	3361.01
609.68	3889.97
609.84	4222.33
609.99	5153.86
610.15	5951.98
610.30	7517.80
610.46	9610.24
610.61	12393.14
610.76	15431.15
610.92	18188.30
611.07	20215.21
611.23	20247.97
611.38	18654.07
611.54	16390.77
611.69	14225.78
611.84	11751.83
612.00	9792.80
612.15	8067.83
612.31	7229.91
612.46	6710.32
612.62	6069.01
612.77	5809.21
612.92	5504.94
613.08	5219.39
613.23	4985.34
613.39	4741.93
613.54	4564.04
613.69	4486.81
613.85	4528.94
614.00	4540.64
614.15	4601.49
614.31	4299.56
614.46	4187.22
614.62	4088.92
614.77	3988.27
614.92	3705.07
615.08	3461.65
615.23	3225.26
615.38	2897.58
615.54	2696.30
615.69	2541.82
615.84	2408.41
616.00	2211.81
616.15	1940.30
616.30	1919.24
616.46	1708.59
616.61	1739.02
616.76	1689.87
616.92	1551.78
617.07	1493.26
617.22	1359.85
617.37	1369.21
617.53	1383.26
617.68	1320.06
617.83	1219.42
617.99	1139.84
618.14	1289.64
618.29	1144.52
618.45	1188.99
618.60	1067.28
618.75	1020.47
618.90	1025.15
619.06	1107.07
619.21	1041.54
619.36	1107.07
619.51	1018.13
619.67	1132.82
619.82	1029.84
619.97	1039.20
620.12	1114.10
620.28	1130.48
620.43	1188.99
620.58	1078.99
620.73	1181.97
620.89	1242.82
621.04	1231.12
621.19	1179.63
621.34	1130.48
621.49	1076.65
621.65	1144.52
621.80	1100.05
621.95	1158.57
622.10	1132.82
622.25	1107.07
622.41	1088.35
622.56	1170.27
622.71	1214.74
622.86	1151.54
623.01	1130.48
623.16	1172.61
623.32	1188.99
623.47	1188.99
623.62	1233.46
623.77	1261.55
623.92	1200.69
624.07	1177.29
624.23	1275.59
624.38	1130.48
624.53	1322.40
624.68	1240.48
624.83	1235.80
624.98	1193.67
625.13	1219.42
625.29	1256.87
625.44	1160.91
625.59	1266.23
625.74	1275.59
625.89	1301.34
626.04	1238.14
626.19	1284.95
626.34	1259.21
626.49	1207.72
626.65	1228.78
626.80	1207.72
626.95	1228.78
627.10	1069.62
627.25	1125.80
627.40	1114.10
627.55	1107.07
627.70	1153.88
627.85	1135.16
628.00	1139.84
628.15	1111.75
628.30	1153.88
628.45	1090.69
628.60	1025.15
628.76	1160.91
628.91	1039.20
629.06	1109.41
629.21	1116.44
629.36	1165.59
629.51	1240.48
629.66	1313.04
629.81	1460.49
629.96	1509.65
630.11	1647.74
630.26	1748.38
630.41	1966.05
630.56	2155.63
630.71	2162.66
630.86	2267.98
631.01	2097.12
631.16	2019.88
631.31	1893.49
631.46	1579.86
631.61	1357.51
631.76	1055.58
631.91	994.73
632.06	828.55
632.21	793.44
632.36	720.88
632.51	667.05
632.66	620.24
632.81	624.92
632.96	566.41
633.10	514.92
633.25	491.51
633.40	425.98
633.55	404.91
633.70	458.74
633.85	465.77
634.00	395.55
634.15	397.89
634.30	486.83
634.45	442.36
634.60	428.32
634.75	341.72
634.90	386.19
635.05	449.38
635.19	381.51
635.34	337.04
635.49	423.64
635.64	367.46
635.79	404.91
635.94	414.27
636.09	344.06
636.24	318.31
636.39	360.44
636.53	418.96
636.68	404.91
636.83	365.12
636.98	409.59
637.13	393.21
637.28	383.85
637.43	407.25
637.57	379.17
637.72	362.78
637.87	313.63
638.02	306.61
638.17	344.06
638.32	351.08
638.46	308.95
638.61	332.36
638.76	346.40
638.91	369.80
639.06	278.52
639.20	360.44
639.35	346.40
639.50	325.33
639.65	339.38
639.80	351.08
639.94	390.87
640.09	395.55
640.24	351.08
640.39	369.80
640.54	313.63
640.68	285.55
640.83	404.91
640.98	285.55
641.13	250.44
641.27	273.84
641.42	278.52
641.57	341.72
641.72	306.61
641.86	259.80
642.01	273.84
642.16	339.38
642.31	332.36
642.45	397.89
642.60	372.15
642.75	327.68
642.90	308.95
643.04	262.14
643.19	325.33
643.34	271.50
643.48	362.78
643.63	306.61
643.78	299.59
643.93	416.62
644.07	337.04
644.22	341.72
644.37	301.93
644.51	264.48
644.66	280.86
644.81	369.80
644.95	325.33
645.10	411.93
645.25	269.16
645.39	376.83
645.54	308.95
645.69	397.89
645.83	269.16
645.98	381.51
646.13	334.70
646.27	332.36
646.42	257.46
646.57	304.27
646.71	311.29
646.86	334.70
647.00	334.70
647.15	407.25
647.30	311.29
647.44	308.95
647.59	231.71
647.74	252.78
647.88	283.20
648.03	231.71
648.17	393.21
648.32	189.58
648.47	327.68
648.61	313.63
648.76	346.40
648.90	297.25
649.05	292.57
649.20	301.93
649.34	311.29
649.49	362.78
649.63	449.38
649.78	475.13
649.92	573.43
650.07	601.52
650.21	734.93
650.36	798.12
650.51	657.69
650.65	697.48
650.80	538.32
650.94	505.56
651.09	531.30
651.23	540.66
651.38	493.85
651.52	374.49
651.67	353.42
651.81	451.72
651.96	463.43
652.10	381.51
652.25	379.17
652.39	397.89
652.54	362.78
652.68	437.68
652.83	430.66
652.97	440.02
653.12	437.68
653.26	320.65
653.41	386.19
653.55	414.27
653.70	353.42
653.84	362.78
653.99	294.91
654.13	276.18
654.27	346.40
654.42	318.31
654.56	283.20
654.71	243.42
654.85	243.42
655.00	205.97
655.14	271.50
655.29	262.14
655.43	294.91
655.57	241.08
655.72	266.82
655.86	222.35
656.01	248.10
656.15	297.25
656.30	280.86
656.44	280.86
656.58	222.35
656.73	306.61
656.87	248.10
657.01	332.36
657.16	369.80
657.30	273.84
657.45	353.42
657.59	341.72
657.73	271.50
657.88	318.31
658.02	365.12
658.16	304.27
658.31	259.80
658.45	222.35
658.60	210.65
658.74	304.27
658.88	245.76
659.03	198.95
659.17	182.56
659.31	243.42
659.46	201.29
659.60	322.99
659.74	250.44
659.89	234.05
660.03	276.18
660.17	205.97
660.32	224.69
660.46	194.26
660.60	236.39
660.74	290.23
660.89	299.59
661.03	245.76
661.17	276.18
661.32	325.33
661.46	346.40
661.60	287.89
661.74	374.49
661.89	449.38
662.03	479.81
662.17	472.79
662.31	500.87
662.46	451.72
662.60	386.19
662.74	418.96
662.88	383.85
663.03	346.40
663.17	299.59
663.31	355.76
663.45	273.84
663.60	320.65
663.74	187.24
663.88	224.69
664.02	252.78
664.17	170.86
664.31	271.50
664.45	259.80
664.59	334.70
664.73	236.39
664.88	257.46
665.02	257.46
665.16	196.60
665.30	215.33
665.44	322.99
665.59	234.05
665.73	229.37
665.87	320.65
666.01	278.52
666.15	184.90
666.29	252.78
666.44	241.08
666.58	236.39
666.72	250.44
666.86	177.88
667.00	292.57
667.14	257.46
667.28	248.10
667.43	201.29
667.57	187.24
667.71	285.55
667.85	262.14
667.99	203.63
668.13	238.73
668.27	212.99
668.41	189.58
668.56	243.42
668.70	217.67
668.84	311.29
668.98	259.80
669.12	215.33
669.26	224.69
669.40	259.80
669.54	205.97
669.68	231.71
669.82	147.45
669.96	182.56
670.10	215.33
670.25	255.12
670.39	236.39
670.53	269.16
670.67	243.42
670.81	203.63
670.95	257.46
671.09	292.57
671.23	278.52
671.37	224.69
671.51	229.37
671.65	252.78
671.79	224.69
671.93	177.88
672.07	208.31
672.21	234.05
672.35	259.80
672.49	198.95
672.63	290.23
672.77	168.52
672.91	229.37
673.05	273.84
673.19	273.84
673.33	271.50
673.47	138.09
673.61	227.03
673.75	215.33
673.89	215.33
674.03	194.26
674.17	262.14
674.31	140.43
674.45	304.27
674.59	217.67
674.73	142.77
674.87	198.95
675.01	234.05
675.15	238.73
675.29	238.73
675.43	238.73
675.56	243.42
675.70	283.20
675.84	220.01
675.98	189.58
676.12	187.24
676.26	252.78
676.40	154.48
676.54	220.01
676.68	273.84
676.82	285.55
676.96	128.73
677.10	170.86
677.23	182.56
677.37	224.69
677.51	166.18
677.65	217.67
677.79	205.97
677.93	266.82
678.07	248.10
678.21	208.31
678.34	224.69
678.48	210.65
678.62	182.56
678.76	163.84
678.90	262.14
679.04	187.24
679.18	145.11
679.31	243.42
679.45	238.73
679.59	191.92
679.73	220.01
679.87	198.95
680.00	205.97
680.14	203.63
680.28	264.48
680.42	175.54
680.56	198.95
680.70	208.31
680.83	259.80
680.97	248.10
681.11	262.14
681.25	177.88
681.39	241.08
681.52	215.33
681.66	224.69
681.80	250.44
681.94	189.58
682.07	212.99
682.21	124.05
682.35	163.84
682.49	168.52
682.62	198.95
682.76	140.43
682.90	154.48
683.04	205.97
683.17	205.97
683.31	224.69
683.45	276.18
683.59	231.71
683.72	175.54
683.86	224.69
684.00	128.73
684.13	250.44
684.27	121.71
684.41	201.29
684.55	245.76
684.68	231.71
684.82	138.09
684.96	152.13
685.09	168.52
685.23	166.18
685.37	205.97
685.50	191.92
685.64	210.65
685.78	276.18
685.91	243.42
686.05	285.55
686.19	252.78
686.32	236.39
686.46	339.38
686.60	191.92
686.73	250.44
686.87	241.08
687.01	152.13
687.14	212.99
687.28	308.95
687.42	255.12
687.55	273.84
687.69	308.95
687.82	344.06
687.96	358.10
688.10	259.80
688.23	383.85
688.37	308.95
688.50	236.39
688.64	264.48
688.78	196.60
688.91	180.22
689.05	227.03
689.18	147.45
689.32	163.84
689.46	203.63
689.59	187.24
689.73	243.42
689.86	198.95
690.00	189.58
690.13	163.84
690.27	175.54
690.41	266.82
690.54	255.12
690.68	273.84
690.81	133.41
690.95	203.63
691.08	187.24
691.22	149.79
691.35	184.90
691.49	177.88
691.62	147.45
691.76	161.50
691.89	140.43
692.03	105.32
692.16	124.05
692.30	39.79
692.43	131.07
692.57	156.82
692.70	168.52
692.84	102.98
692.97	128.73
693.11	191.92
693.24	173.20
693.38	201.29
693.51	304.27
693.65	262.14
693.78	280.86
693.92	234.05
694.05	278.52
694.19	264.48
694.32	198.95
694.45	191.92
694.59	65.54
694.72	163.84
694.86	147.45
694.99	128.73
695.13	98.30
695.26	72.56
695.39	138.09
695.53	220.01
695.66	177.88
695.80	170.86
695.93	147.45
696.07	147.45
696.20	194.26
696.33	124.05
696.47	152.13
696.60	138.09
696.73	95.96
696.87	140.43
697.00	187.24
697.14	173.20
697.27	159.16
697.40	224.69
697.54	105.32
697.67	102.98
697.80	194.26
697.94	198.95
698.07	180.22
698.21	105.32
698.34	161.50
698.47	107.66
698.61	107.66
698.74	124.05
698.87	117.03
699.01	105.32
699.14	138.09
699.27	86.60
699.40	231.71
699.54	112.35
699.67	138.09
699.80	161.50
699.94	152.13
700.07	117.03
700.20	110.01
700.34	107.66
700.47	107.66
700.60	156.82
700.73	81.92
700.87	166.18
701.00	215.33
701.13	131.07
701.26	180.22
701.40	154.48
701.53	152.13
701.66	117.03
701.79	110.01
701.93	128.73
702.06	140.43
702.19	124.05
702.32	208.31
702.46	149.79
702.59	93.62
702.72	145.11
702.85	161.50
702.99	124.05
703.12	194.26
703.25	128.73
703.38	77.24
703.51	145.11
703.65	161.50
703.78	154.48
703.91	126.39
704.04	147.45
704.17	124.05
704.31	91.28
704.44	191.92
704.57	168.52
704.70	156.82
704.83	124.05
704.96	133.41
705.10	170.86
705.23	177.88
>>>>>End Processed Spectral Data<<<<<
