SpectraSuite Data File
++++++++++++++++++++++++++++++++++++
Date: Fri Oct 04 11:42:20 GMT-05:00 2013
User: price-jones
Dark Spectrum Present: No
Reference Spectrum Present: No
Number of Sampled Component Spectra: 1
Spectrometers: USB2+H05261
Integration Time (usec): 100000 (USB2+H05261)
Spectra Averaged: 1 (USB2+H05261)
Boxcar Smoothing: 0 (USB2+H05261)
Correct for Electrical Dark: No (USB2+H05261)
Strobe/Lamp Enabled: No (USB2+H05261)
Correct for Detector Non-linearity: No (USB2+H05261)
Correct for Stray Light: No (USB2+H05261)
Number of Pixels in Processed Spectrum: 2048
>>>>>Begin Processed Spectral Data<<<<<
365.73	49.15
365.92	49.15
366.12	49.15
366.32	0.00
366.52	0.00
366.72	0.00
366.91	0.00
367.11	0.00
367.31	0.00
367.51	0.00
367.70	0.00
367.90	0.00
368.10	0.00
368.30	0.00
368.49	0.00
368.69	2.34
368.89	0.00
369.09	0.00
369.28	0.00
369.48	0.00
369.68	0.00
369.87	2.34
370.07	2.34
370.27	4.68
370.47	7.02
370.66	23.41
370.86	56.17
371.06	53.83
371.25	107.66
371.45	72.56
371.65	86.60
371.84	91.28
372.04	30.43
372.24	98.30
372.44	140.43
372.63	126.39
372.83	203.63
373.03	81.92
373.22	53.83
373.42	107.66
373.62	135.75
373.81	154.48
374.01	131.07
374.21	163.84
374.40	91.28
374.60	142.77
374.79	86.60
374.99	102.98
375.19	163.84
375.38	88.94
375.58	140.43
375.78	93.62
375.97	208.31
376.17	217.67
376.37	159.16
376.56	114.69
376.76	114.69
376.95	51.49
377.15	112.35
377.35	152.13
377.54	159.16
377.74	140.43
377.93	91.28
378.13	110.01
378.33	173.20
378.52	110.01
378.72	238.73
378.91	145.11
379.11	88.94
379.31	128.73
379.50	112.35
379.70	117.03
379.89	166.18
380.09	124.05
380.28	91.28
380.48	114.69
380.68	63.19
380.87	79.58
381.07	35.11
381.26	175.54
381.46	149.79
381.65	93.62
381.85	135.75
382.04	79.58
382.24	138.09
382.43	102.98
382.63	147.45
382.83	133.41
383.02	77.24
383.22	145.11
383.41	131.07
383.61	93.62
383.80	91.28
384.00	77.24
384.19	112.35
384.39	49.15
384.58	86.60
384.78	168.52
384.97	138.09
385.17	126.39
385.36	67.88
385.56	124.05
385.75	79.58
385.95	124.05
386.14	110.01
386.34	53.83
386.53	142.77
386.72	88.94
386.92	124.05
387.11	70.22
387.31	46.81
387.50	42.13
387.70	126.39
387.89	86.60
388.09	163.84
388.28	154.48
388.48	117.03
388.67	95.96
388.86	117.03
389.06	44.47
389.25	91.28
389.45	124.05
389.64	102.98
389.84	175.54
390.03	117.03
390.22	121.71
390.42	88.94
390.61	93.62
390.81	93.62
391.00	133.41
391.19	107.66
391.39	142.77
391.58	98.30
391.78	131.07
391.97	128.73
392.16	95.96
392.36	105.32
392.55	105.32
392.75	114.69
392.94	154.48
393.13	91.28
393.33	102.98
393.52	107.66
393.71	198.95
393.91	145.11
394.10	187.24
394.29	156.82
394.49	117.03
394.68	86.60
394.88	121.71
395.07	107.66
395.26	161.50
395.46	105.32
395.65	126.39
395.84	180.22
396.04	217.67
396.23	131.07
396.42	145.11
396.62	149.79
396.81	114.69
397.00	114.69
397.19	210.65
397.39	98.30
397.58	184.90
397.77	98.30
397.97	95.96
398.16	145.11
398.35	110.01
398.55	126.39
398.74	72.56
398.93	180.22
399.12	255.12
399.32	187.24
399.51	105.32
399.70	121.71
399.90	91.28
400.09	145.11
400.28	131.07
400.47	117.03
400.67	198.95
400.86	177.88
401.05	170.86
401.24	177.88
401.44	168.52
401.63	177.88
401.82	170.86
402.01	177.88
402.21	138.09
402.40	114.69
402.59	117.03
402.78	121.71
402.97	154.48
403.17	191.92
403.36	252.78
403.55	287.89
403.74	601.52
403.93	1834.98
404.13	4201.26
404.32	5355.15
404.51	4484.47
404.70	2670.55
404.89	1006.43
405.09	360.44
405.28	215.33
405.47	180.22
405.66	297.25
405.85	215.33
406.05	152.13
406.24	177.88
406.43	168.52
406.62	191.92
406.81	318.31
407.00	334.70
407.20	613.22
407.39	784.08
407.58	777.06
407.77	505.56
407.96	383.85
408.15	266.82
408.34	140.43
408.54	196.60
408.73	177.88
408.92	119.37
409.11	184.90
409.30	170.86
409.49	126.39
409.68	196.60
409.87	189.58
410.07	152.13
410.26	173.20
410.45	166.18
410.64	156.82
410.83	227.03
411.02	236.39
411.21	168.52
411.40	217.67
411.59	191.92
411.78	196.60
411.98	173.20
412.17	182.56
412.36	175.54
412.55	217.67
412.74	205.97
412.93	208.31
413.12	227.03
413.31	299.59
413.50	212.99
413.69	271.50
413.88	248.10
414.07	241.08
414.26	173.20
414.45	131.07
414.64	198.95
414.83	245.76
415.02	203.63
415.22	299.59
415.41	252.78
415.60	135.75
415.79	201.29
415.98	259.80
416.17	224.69
416.36	229.37
416.55	180.22
416.74	196.60
416.93	210.65
417.12	234.05
417.31	227.03
417.50	189.58
417.69	273.84
417.88	201.29
418.07	175.54
418.26	250.44
418.45	255.12
418.64	250.44
418.83	201.29
419.02	135.75
419.21	215.33
419.39	201.29
419.58	198.95
419.77	217.67
419.96	259.80
420.15	243.42
420.34	250.44
420.53	152.13
420.72	212.99
420.91	227.03
421.10	257.46
421.29	196.60
421.48	273.84
421.67	245.76
421.86	238.73
422.05	184.90
422.24	189.58
422.43	283.20
422.61	248.10
422.80	238.73
422.99	252.78
423.18	245.76
423.37	306.61
423.56	278.52
423.75	276.18
423.94	222.35
424.13	290.23
424.32	299.59
424.50	250.44
424.69	287.89
424.88	255.12
425.07	292.57
425.26	266.82
425.45	252.78
425.64	217.67
425.83	273.84
426.01	294.91
426.20	304.27
426.39	180.22
426.58	212.99
426.77	337.04
426.96	276.18
427.15	271.50
427.33	374.49
427.52	341.72
427.71	297.25
427.90	322.99
428.09	334.70
428.28	229.37
428.46	283.20
428.65	266.82
428.84	290.23
429.03	250.44
429.22	332.36
429.40	266.82
429.59	208.31
429.78	318.31
429.97	297.25
430.16	290.23
430.34	339.38
430.53	334.70
430.72	322.99
430.91	400.23
431.10	276.18
431.28	325.33
431.47	369.80
431.66	358.10
431.85	318.31
432.03	404.91
432.22	339.38
432.41	337.04
432.60	322.99
432.79	409.59
432.97	404.91
433.16	407.25
433.35	517.26
433.54	475.13
433.72	573.43
433.91	524.28
434.10	559.39
434.28	718.54
434.47	758.33
434.66	868.34
434.85	1020.47
435.03	2923.33
435.22	10897.53
435.41	23763.46
435.59	23702.61
435.78	15220.50
435.97	7452.27
436.16	3000.57
436.34	1179.63
436.53	723.23
436.72	695.14
436.90	463.43
437.09	510.24
437.28	437.68
437.46	409.59
437.65	465.77
437.84	437.68
438.02	458.74
438.21	393.21
438.40	306.61
438.58	388.53
438.77	390.87
438.96	381.51
439.14	388.53
439.33	404.91
439.52	362.78
439.70	306.61
439.89	306.61
440.08	376.83
440.26	397.89
440.45	397.89
440.63	367.46
440.82	395.55
441.01	390.87
441.19	362.78
441.38	358.10
441.57	409.59
441.75	500.87
441.94	447.04
442.12	376.83
442.31	437.68
442.50	461.09
442.68	369.80
442.87	402.57
443.05	327.68
443.24	482.15
443.43	463.43
443.61	437.68
443.80	372.15
443.98	353.42
444.17	395.55
444.35	465.77
444.54	379.17
444.73	355.76
444.91	395.55
445.10	374.49
445.28	367.46
445.47	397.89
445.65	367.46
445.84	365.12
446.02	404.91
446.21	407.25
446.39	351.08
446.58	365.12
446.77	348.74
446.95	395.55
447.14	425.98
447.32	458.74
447.51	425.98
447.69	423.64
447.88	264.48
448.06	444.70
448.25	393.21
448.43	330.02
448.62	318.31
448.80	367.46
448.99	486.83
449.17	386.19
449.36	341.72
449.54	404.91
449.73	322.99
449.91	411.93
450.10	440.02
450.28	430.66
450.46	440.02
450.65	430.66
450.83	395.55
451.02	416.62
451.20	341.72
451.39	390.87
451.57	360.44
451.76	407.25
451.94	376.83
452.13	390.87
452.31	463.43
452.49	376.83
452.68	416.62
452.86	433.00
453.05	386.19
453.23	418.96
453.42	346.40
453.60	351.08
453.78	444.70
453.97	362.78
454.15	358.10
454.34	337.04
454.52	365.12
454.70	440.02
454.89	411.93
455.07	369.80
455.26	362.78
455.44	388.53
455.62	414.27
455.81	390.87
455.99	404.91
456.17	400.23
456.36	397.89
456.54	358.10
456.73	367.46
456.91	320.65
457.09	428.32
457.28	383.85
457.46	407.25
457.64	372.15
457.83	257.46
458.01	454.06
458.19	421.30
458.38	451.72
458.56	437.68
458.74	374.49
458.93	388.53
459.11	369.80
459.29	299.59
459.48	362.78
459.66	397.89
459.84	409.59
460.03	400.23
460.21	414.27
460.39	402.57
460.57	430.66
460.76	421.30
460.94	395.55
461.12	388.53
461.31	358.10
461.49	433.00
461.67	365.12
461.85	365.12
462.04	348.74
462.22	503.22
462.40	447.04
462.59	402.57
462.77	381.51
462.95	400.23
463.13	257.46
463.32	365.12
463.50	397.89
463.68	355.76
463.86	407.25
464.05	454.06
464.23	390.87
464.41	297.25
464.59	425.98
464.78	414.27
464.96	400.23
465.14	362.78
465.32	358.10
465.50	362.78
465.69	351.08
465.87	290.23
466.05	367.46
466.23	367.46
466.41	435.34
466.60	388.53
466.78	383.85
466.96	430.66
467.14	393.21
467.32	430.66
467.51	362.78
467.69	360.44
467.87	402.57
468.05	362.78
468.23	330.02
468.41	346.40
468.60	369.80
468.78	362.78
468.96	369.80
469.14	318.31
469.32	306.61
469.50	379.17
469.69	365.12
469.87	397.89
470.05	348.74
470.23	339.38
470.41	285.55
470.59	294.91
470.77	404.91
470.95	341.72
471.14	409.59
471.32	360.44
471.50	489.17
471.68	414.27
471.86	374.49
472.04	346.40
472.22	409.59
472.40	369.80
472.58	318.31
472.77	355.76
472.95	318.31
473.13	491.51
473.31	416.62
473.49	376.83
473.67	365.12
473.85	423.64
474.03	376.83
474.21	402.57
474.39	304.27
474.57	386.19
474.75	397.89
474.93	353.42
475.12	358.10
475.30	344.06
475.48	334.70
475.66	369.80
475.84	383.85
476.02	407.25
476.20	346.40
476.38	322.99
476.56	463.43
476.74	376.83
476.92	304.27
477.10	367.46
477.28	365.12
477.46	351.08
477.64	416.62
477.82	341.72
478.00	358.10
478.18	416.62
478.36	344.06
478.54	411.93
478.72	367.46
478.90	362.78
479.08	402.57
479.26	444.70
479.44	461.09
479.62	493.85
479.80	517.26
479.98	545.34
480.16	538.32
480.34	547.69
480.52	561.73
480.70	564.07
480.88	575.77
481.06	608.54
481.24	573.43
481.41	617.90
481.59	662.37
481.77	837.91
481.95	812.17
482.13	938.55
482.31	891.74
482.49	896.43
482.67	961.96
482.85	924.51
483.03	1069.62
483.21	1050.90
483.39	1158.57
483.57	1203.04
483.74	1310.70
483.92	1385.60
484.10	1488.58
484.28	1514.33
484.46	1668.80
484.64	1781.15
484.82	1720.29
485.00	1886.47
485.18	2008.18
485.35	2071.37
485.53	2099.46
485.71	2319.47
485.89	2380.32
486.07	2279.68
486.25	2424.80
486.43	2455.22
486.61	2310.11
486.78	2466.92
486.96	2471.61
487.14	2476.29
487.32	2356.92
487.50	2270.32
487.68	2422.45
487.85	2497.35
488.03	2352.24
488.21	2317.13
488.39	2157.97
488.57	2148.61
488.75	2092.44
488.92	2415.43
489.10	2157.97
489.28	2076.06
489.46	1975.41
489.64	2015.20
489.81	1902.86
489.99	1870.09
490.17	1944.99
490.35	1895.83
490.53	1881.79
490.70	1923.92
490.88	1809.23
491.06	1998.82
491.24	2050.31
491.41	2225.85
491.59	1977.75
491.77	1820.94
491.95	1750.72
492.13	1664.12
492.30	1638.38
492.48	1596.25
492.66	1671.14
492.84	1617.31
493.01	1647.74
493.19	1556.46
493.37	1654.76
493.54	1598.59
493.72	1563.48
493.90	1469.86
494.08	1390.28
494.25	1397.30
494.43	1493.26
494.61	1434.75
494.79	1359.85
494.96	1397.30
495.14	1406.66
495.32	1249.85
495.49	1280.27
495.67	1427.73
495.85	1299.00
496.02	1231.12
496.20	1357.51
496.38	1263.89
496.55	1224.10
496.73	1242.82
496.91	1191.33
497.09	1153.88
497.26	1210.06
497.44	1093.03
497.62	1081.33
497.79	1050.90
497.97	1004.09
498.14	1006.43
498.32	994.73
498.50	1020.47
498.67	1013.45
498.85	908.13
499.03	940.90
499.20	894.08
499.38	983.02
499.56	877.70
499.73	957.28
499.91	866.00
500.08	830.89
500.26	835.57
500.44	807.48
500.61	858.98
500.79	800.46
500.97	791.10
501.14	723.23
501.32	751.31
501.49	781.74
501.67	685.78
501.84	641.31
502.02	620.24
502.20	737.27
502.37	599.18
502.55	568.75
502.72	594.50
502.90	653.01
503.07	594.50
503.25	688.12
503.43	528.96
503.60	531.30
503.78	505.56
503.95	461.09
504.13	543.00
504.30	510.24
504.48	484.49
504.65	512.58
504.83	538.32
505.01	435.34
505.18	475.13
505.36	414.27
505.53	510.24
505.71	524.28
505.88	571.09
506.06	386.19
506.23	435.34
506.41	381.51
506.58	360.44
506.76	409.59
506.93	451.72
507.11	498.53
507.28	475.13
507.46	369.80
507.63	433.00
507.81	365.12
507.98	421.30
508.16	430.66
508.33	402.57
508.50	425.98
508.68	416.62
508.85	482.15
509.03	482.15
509.20	510.24
509.38	458.74
509.55	435.34
509.73	461.09
509.90	444.70
510.08	383.85
510.25	428.32
510.42	339.38
510.60	402.57
510.77	327.68
510.95	365.12
511.12	379.17
511.30	362.78
511.47	372.15
511.64	512.58
511.82	486.83
511.99	362.78
512.17	386.19
512.34	423.64
512.51	360.44
512.69	367.46
512.86	393.21
513.04	348.74
513.21	325.33
513.38	332.36
513.56	402.57
513.73	276.18
513.90	386.19
514.08	362.78
514.25	379.17
514.43	400.23
514.60	355.76
514.77	332.36
514.95	304.27
515.12	313.63
515.29	304.27
515.47	428.32
515.64	386.19
515.81	325.33
515.99	409.59
516.16	346.40
516.33	395.55
516.51	334.70
516.68	264.48
516.85	344.06
517.03	400.23
517.20	285.55
517.37	341.72
517.54	388.53
517.72	374.49
517.89	285.55
518.06	297.25
518.24	311.29
518.41	313.63
518.58	369.80
518.75	365.12
518.93	294.91
519.10	299.59
519.27	341.72
519.45	322.99
519.62	294.91
519.79	369.80
519.96	320.65
520.14	348.74
520.31	376.83
520.48	304.27
520.65	348.74
520.83	367.46
521.00	341.72
521.17	334.70
521.34	360.44
521.52	348.74
521.69	318.31
521.86	306.61
522.03	341.72
522.20	337.04
522.38	348.74
522.55	299.59
522.72	304.27
522.89	325.33
523.07	383.85
523.24	322.99
523.41	315.97
523.58	280.86
523.75	379.17
523.92	320.65
524.10	358.10
524.27	372.15
524.44	355.76
524.61	346.40
524.78	315.97
524.96	344.06
525.13	337.04
525.30	383.85
525.47	454.06
525.64	337.04
525.81	388.53
525.98	379.17
526.16	400.23
526.33	330.02
526.50	325.33
526.67	318.31
526.84	348.74
527.01	320.65
527.18	477.47
527.36	435.34
527.53	458.74
527.70	503.22
527.87	404.91
528.04	421.30
528.21	353.42
528.38	463.43
528.55	559.39
528.72	411.93
528.89	461.09
529.07	386.19
529.24	407.25
529.41	435.34
529.58	365.12
529.75	376.83
529.92	489.17
530.09	400.23
530.26	498.53
530.43	503.22
530.60	447.04
530.77	404.91
530.94	559.39
531.11	561.73
531.28	475.13
531.46	496.19
531.63	552.37
531.80	599.18
531.97	580.45
532.14	697.48
532.31	744.29
532.48	837.91
532.65	1036.86
532.82	1125.80
532.99	1247.51
533.16	1406.66
533.33	1507.30
533.50	1369.21
533.67	1125.80
533.84	1090.69
534.01	978.34
534.18	924.51
534.35	896.43
534.52	938.55
534.69	1006.43
534.86	1013.45
535.03	1004.09
535.20	973.66
535.37	1151.54
535.54	1053.24
535.71	1219.42
535.88	1277.93
536.05	1364.53
536.22	1434.75
536.38	1556.46
536.55	1678.16
536.72	1921.58
536.89	1947.33
537.06	2167.34
537.23	2441.18
537.40	2717.36
537.57	2827.37
537.74	2993.55
537.91	3213.56
538.08	3255.69
538.25	3190.15
538.42	3248.66
538.59	3314.20
538.75	3370.37
538.92	3735.50
539.09	4046.79
539.26	4498.51
539.43	5114.07
539.60	5621.97
539.77	6356.90
539.94	7059.06
540.11	7688.66
540.28	8519.55
540.44	9217.03
540.61	10059.62
540.78	11772.89
540.95	14541.75
541.12	17282.52
541.29	18579.17
541.46	19838.38
541.62	19531.77
541.79	18710.24
541.96	17626.57
542.13	16065.44
542.30	14960.70
542.47	14286.63
542.63	13678.09
542.80	13078.91
542.97	12870.61
543.14	12912.74
543.31	12823.80
543.48	12807.41
543.64	13198.28
543.81	13231.05
543.98	13039.12
544.15	13451.06
544.32	13486.17
544.48	13177.22
544.65	13135.09
544.82	13331.69
544.99	13298.92
545.16	13544.68
545.32	14464.51
545.49	24915.00
545.66	46284.09
545.83	52500.56
546.00	45425.12
546.16	31480.21
546.33	23201.73
546.50	17303.58
546.67	13532.98
546.83	12067.80
547.00	11232.23
547.17	11077.76
547.34	10289.00
547.50	10204.74
547.67	9703.86
547.84	9289.59
548.00	8788.71
548.17	8547.64
548.34	8175.49
548.51	7920.37
548.67	7485.03
548.84	7304.81
549.01	6888.20
549.18	6707.98
549.34	6394.34
549.51	6129.86
549.68	5982.41
549.84	5654.73
550.01	5303.65
550.18	5142.16
550.34	4999.38
550.51	4629.58
550.68	4533.62
550.84	4430.63
551.01	4042.11
551.18	3737.84
551.34	3623.15
551.51	3559.95
551.68	3424.20
551.84	3236.96
552.01	3063.76
552.18	3143.34
552.34	2944.39
552.51	2801.62
552.68	2782.90
552.84	2534.80
553.01	2422.45
553.18	2382.67
553.34	2368.62
553.51	2289.04
553.67	2284.36
553.84	2153.29
554.01	1919.24
554.17	1820.94
554.34	1710.93
554.51	1631.35
554.67	1591.56
554.84	1483.90
555.00	1500.28
555.17	1385.60
555.33	1371.55
555.50	1261.55
555.67	1191.33
555.83	1165.59
556.00	1088.35
556.16	1135.16
556.33	1071.97
556.50	1034.52
556.66	1001.75
556.83	957.28
556.99	1008.77
557.16	990.05
557.32	924.51
557.49	786.42
557.65	917.49
557.82	858.98
557.98	774.72
558.15	753.65
558.32	833.23
558.48	781.74
558.65	739.61
558.81	812.17
558.98	709.18
559.14	741.95
559.31	699.82
559.47	662.37
559.64	720.88
559.80	678.76
559.97	760.67
560.13	608.54
560.30	671.73
560.46	627.26
560.63	660.03
560.79	655.35
560.96	660.03
561.12	662.37
561.29	699.82
561.45	645.99
561.61	624.92
561.78	723.23
561.94	622.58
562.11	610.88
562.27	660.03
562.44	594.50
562.60	603.86
562.77	667.05
562.93	634.29
563.10	585.13
563.26	489.17
563.42	587.47
563.59	587.47
563.75	514.92
563.92	603.86
564.08	554.71
564.24	514.92
564.41	610.88
564.57	531.30
564.74	500.87
564.90	512.58
565.07	573.43
565.23	477.47
565.39	425.98
565.56	524.28
565.72	484.49
565.88	507.90
566.05	505.56
566.21	440.02
566.38	449.38
566.54	510.24
566.70	496.19
566.87	561.73
567.03	500.87
567.19	561.73
567.36	486.83
567.52	505.56
567.68	599.18
567.85	543.00
568.01	493.85
568.17	475.13
568.34	498.53
568.50	559.39
568.66	568.75
568.83	554.71
568.99	510.24
569.15	465.77
569.32	519.60
569.48	461.09
569.64	456.40
569.81	517.26
569.97	428.32
570.13	402.57
570.30	442.36
570.46	430.66
570.62	351.08
570.78	320.65
570.95	372.15
571.11	463.43
571.27	440.02
571.43	440.02
571.60	461.09
571.76	372.15
571.92	355.76
572.09	360.44
572.25	337.04
572.41	416.62
572.57	409.59
572.74	433.00
572.90	484.49
573.06	454.06
573.22	517.26
573.38	475.13
573.55	493.85
573.71	475.13
573.87	414.27
574.03	411.93
574.20	421.30
574.36	519.60
574.52	491.51
574.68	500.87
574.84	428.32
575.01	440.02
575.17	566.41
575.33	521.94
575.49	559.39
575.65	589.82
575.82	737.27
575.98	725.57
576.14	826.21
576.30	1640.72
576.46	5191.31
576.62	8917.44
576.79	9448.74
576.95	6614.35
577.11	4294.88
577.27	3002.91
577.43	2045.63
577.59	1338.79
577.75	1224.10
577.92	1032.18
578.08	1015.79
578.24	1130.48
578.40	1858.39
578.56	5013.43
578.72	8404.86
578.88	8587.43
579.04	6434.13
579.21	4259.78
579.37	3293.13
579.53	2530.12
579.69	2644.81
579.85	3056.74
580.01	3585.70
580.17	3342.28
580.33	2778.22
580.49	2438.84
580.65	2223.51
580.82	2012.86
580.98	2022.22
581.14	2069.03
581.30	2141.59
581.46	2359.26
581.62	2462.24
581.78	2623.74
581.94	2939.71
582.10	3005.25
582.26	3028.65
582.42	3253.34
582.58	3302.50
582.74	3262.71
582.90	3318.88
583.06	3330.58
583.22	3372.71
583.38	3459.31
583.54	3318.88
583.70	3251.00
583.86	3302.50
584.02	3199.51
584.18	3180.79
584.34	3129.30
584.50	3178.45
584.66	2981.84
584.82	3002.91
584.98	2995.89
585.14	2960.78
585.30	2843.75
585.46	2881.20
585.62	2745.45
585.78	2832.05
585.94	2895.24
586.10	3016.95
586.26	3145.68
586.42	3487.40
586.58	4121.68
586.74	5060.24
586.90	6150.93
587.06	6443.49
587.22	6251.57
587.38	5703.89
587.54	5018.11
587.70	4194.24
587.86	3581.02
588.02	2965.46
588.18	2651.83
588.34	2450.54
588.49	2347.56
588.65	2062.01
588.81	2015.20
588.97	2015.20
589.13	2038.61
589.29	1858.39
589.45	1900.52
589.61	1856.04
589.77	1942.64
589.93	1937.96
590.08	1982.43
590.24	2069.03
590.40	2139.25
590.56	2033.93
590.72	2228.19
590.88	2214.15
591.04	2195.42
591.20	2373.30
591.35	2647.15
591.51	2597.99
591.67	2764.17
591.83	2916.31
591.99	3122.27
592.15	3377.39
592.31	3576.34
592.46	3880.61
592.62	4425.95
592.78	4545.32
592.94	4674.05
593.10	4711.50
593.26	4498.51
593.41	4046.79
593.57	3761.24
593.73	3164.40
593.89	2913.97
594.05	2600.34
594.20	2354.58
594.36	2207.13
594.52	2010.52
594.68	1942.64
594.84	1944.99
594.99	1846.68
595.15	1736.68
595.31	1727.32
595.47	1746.04
595.62	1795.19
595.78	1762.42
595.94	1708.59
596.10	1713.27
596.25	1799.87
596.41	1743.70
596.57	1561.14
596.73	1650.08
596.88	1832.64
597.04	1638.38
597.20	1739.02
597.36	1732.00
597.51	1898.17
597.67	1923.92
597.83	1921.58
597.99	2094.78
598.14	2225.85
598.30	2321.81
598.46	2326.49
598.61	2532.46
598.77	2586.29
598.93	2689.28
599.09	2719.70
599.24	2897.58
599.40	2871.84
599.56	2878.86
599.71	2651.83
599.87	2473.95
600.03	2408.41
600.18	2282.02
600.34	2057.33
600.50	1898.17
600.65	1849.02
600.81	1750.72
600.97	1673.48
601.12	1584.54
601.28	1479.22
601.44	1430.07
601.59	1289.64
601.75	1320.06
601.91	1352.83
602.06	1254.53
602.22	1313.04
602.37	1270.91
602.53	1163.25
602.69	1170.27
602.84	1111.75
603.00	1193.67
603.16	1240.48
603.31	1362.19
603.47	1275.59
603.62	1231.12
603.78	1252.19
603.94	1226.44
604.09	1315.38
604.25	1348.15
604.40	1373.89
604.56	1411.34
604.71	1364.53
604.87	1324.74
605.03	1411.34
605.18	1462.83
605.34	1570.50
605.49	1490.92
605.65	1516.67
605.80	1519.01
605.96	1556.46
606.12	1605.61
606.27	1640.72
606.43	1797.53
606.58	1785.83
606.74	1888.81
606.89	1935.62
607.05	2085.42
607.20	2202.44
607.36	2345.22
607.51	2452.88
607.67	2551.18
607.82	2740.77
607.98	2993.55
608.13	3403.14
608.29	3499.10
608.44	3803.37
608.60	4004.66
608.75	4411.91
608.91	4870.65
609.06	5362.17
609.22	5706.23
609.37	6455.20
609.53	7410.14
609.68	8217.62
609.84	9228.73
609.99	11005.20
610.15	13305.95
610.30	15854.79
610.46	20184.78
610.61	26331.03
610.76	33776.27
610.92	40320.41
611.07	44781.47
611.23	46560.28
611.38	43552.69
611.54	37890.93
611.69	32982.83
611.84	27321.07
612.00	22799.16
612.15	19321.12
612.31	16692.70
612.46	15190.08
612.62	13853.63
612.77	13102.32
612.92	12383.77
613.08	11800.98
613.23	11225.21
613.39	10794.55
613.54	10518.37
613.69	10361.55
613.85	10160.27
614.00	10019.83
614.15	10111.11
614.31	9879.40
614.46	9795.14
614.62	9411.29
614.77	8737.22
614.92	8257.41
615.08	7597.38
615.23	7119.91
615.38	6586.27
615.54	5944.96
615.69	5530.69
615.84	5114.07
616.00	4641.28
616.15	4372.12
616.30	4114.66
616.46	3911.04
616.61	3747.20
616.76	3557.61
616.92	3339.94
617.07	3169.09
617.22	2925.67
617.37	2867.16
617.53	2686.94
617.68	2541.82
617.83	2499.69
617.99	2408.41
618.14	2427.14
618.29	2267.98
618.45	2310.11
618.60	2284.36
618.75	2193.08
618.90	2172.02
619.06	2127.55
619.21	2165.00
619.36	2146.27
619.51	2136.91
619.67	2113.50
619.82	2179.04
619.97	2267.98
620.12	2298.41
620.28	2195.42
620.43	2221.17
620.58	2340.54
620.73	2235.21
620.89	2291.38
621.04	2282.02
621.19	2403.73
621.34	2225.85
621.49	2305.43
621.65	2181.38
621.80	2160.31
621.95	2225.85
622.10	2125.21
622.25	2307.77
622.41	2148.61
622.56	2223.51
622.71	2413.09
622.86	2506.71
623.01	2452.88
623.16	2548.84
623.32	2497.35
623.47	2525.44
623.62	2487.99
623.77	2562.89
623.92	2464.58
624.07	2487.99
624.23	2499.69
624.38	2551.18
624.53	2502.03
624.68	2502.03
624.83	2595.65
624.98	2530.12
625.13	2593.31
625.29	2544.16
625.44	2607.36
625.59	2569.91
625.74	2537.14
625.89	2562.89
626.04	2569.91
626.19	2455.22
626.34	2504.37
626.49	2553.52
626.65	2565.23
626.80	2548.84
626.95	2560.55
627.10	2345.22
627.25	2361.60
627.40	2349.90
627.55	2228.19
627.70	2214.15
627.85	2267.98
628.00	2101.80
628.15	2223.51
628.30	2300.75
628.45	2146.27
628.60	2235.21
628.76	2235.21
628.91	2267.98
629.06	2267.98
629.21	2434.16
629.36	2495.01
629.51	2459.90
629.66	2539.48
629.81	2731.41
629.96	2970.14
630.11	3239.30
630.26	3660.60
630.41	3915.72
630.56	4451.70
630.71	4704.48
630.86	4842.57
631.01	4737.24
631.16	4418.93
631.31	4018.70
631.46	3485.06
631.61	2839.07
631.76	2410.75
631.91	2066.69
632.06	1668.80
632.21	1572.84
632.36	1364.53
632.51	1219.42
632.66	1146.86
632.81	1083.67
632.96	1022.81
633.10	905.79
633.25	978.34
633.40	779.40
633.55	816.85
633.70	887.06
633.85	830.89
634.00	774.72
634.15	758.33
634.30	833.23
634.45	779.40
634.60	746.63
634.75	645.99
634.90	692.80
635.05	660.03
635.19	669.39
635.34	730.25
635.49	730.25
635.64	641.31
635.79	599.18
635.94	603.86
636.09	657.69
636.24	641.31
636.39	660.03
636.53	585.13
636.68	660.03
636.83	580.45
636.98	660.03
637.13	507.90
637.28	678.76
637.43	550.03
637.57	627.26
637.72	582.79
637.87	587.47
638.02	507.90
638.17	538.32
638.32	547.69
638.46	545.34
638.61	526.62
638.76	521.94
638.91	512.58
639.06	493.85
639.20	475.13
639.35	535.98
639.50	372.15
639.65	528.96
639.80	430.66
639.94	543.00
640.09	535.98
640.24	521.94
640.39	561.73
640.54	482.15
640.68	491.51
640.83	493.85
640.98	386.19
641.13	517.26
641.27	512.58
641.42	425.98
641.57	498.53
641.72	468.11
641.86	395.55
642.01	395.55
642.16	526.62
642.31	362.78
642.45	503.22
642.60	503.22
642.75	500.87
642.90	526.62
643.04	444.70
643.19	496.19
643.34	461.09
643.48	477.47
643.63	482.15
643.78	538.32
643.93	447.04
644.07	535.98
644.22	505.56
644.37	505.56
644.51	554.71
644.66	545.34
644.81	486.83
644.95	533.64
645.10	454.06
645.25	496.19
645.39	596.84
645.54	517.26
645.69	449.38
645.83	477.47
645.98	491.51
646.13	557.05
646.27	475.13
646.42	496.19
646.57	475.13
646.71	440.02
646.86	414.27
647.00	409.59
647.15	493.85
647.30	454.06
647.44	440.02
647.59	470.45
647.74	454.06
647.88	425.98
648.03	477.47
648.17	533.64
648.32	463.43
648.47	507.90
648.61	482.15
648.76	458.74
648.90	507.90
649.05	514.92
649.20	512.58
649.34	521.94
649.49	610.88
649.63	732.59
649.78	905.79
649.92	1034.52
650.07	1193.67
650.21	1343.47
650.36	1362.19
650.51	1390.28
650.65	1282.61
650.80	1184.31
650.94	987.71
651.09	903.45
651.23	793.44
651.38	727.91
651.52	709.18
651.67	655.35
651.81	617.90
651.96	622.58
652.10	573.43
652.25	540.66
652.39	650.67
652.54	650.67
652.68	664.71
652.83	678.76
652.97	748.97
653.12	746.63
653.26	685.78
653.41	662.37
653.55	702.16
653.70	559.39
653.84	543.00
653.99	554.71
654.13	493.85
654.27	482.15
654.42	465.77
654.56	423.64
654.71	454.06
654.85	482.15
655.00	360.44
655.14	465.77
655.29	414.27
655.43	496.19
655.57	463.43
655.72	383.85
655.86	461.09
656.01	463.43
656.15	503.22
656.30	407.25
656.44	407.25
656.58	447.04
656.73	402.57
656.87	449.38
657.01	500.87
657.16	550.03
657.30	500.87
657.45	528.96
657.59	557.05
657.73	594.50
657.88	524.28
658.02	571.09
658.16	493.85
658.31	479.81
658.45	442.36
658.60	433.00
658.74	299.59
658.88	367.46
659.03	358.10
659.17	280.86
659.31	379.17
659.46	367.46
659.60	397.89
659.74	414.27
659.89	395.55
660.03	278.52
660.17	299.59
660.32	374.49
660.46	294.91
660.60	353.42
660.74	299.59
660.89	435.34
661.03	411.93
661.17	416.62
661.32	428.32
661.46	458.74
661.60	559.39
661.74	660.03
661.89	695.14
662.03	744.29
662.17	830.89
662.31	758.33
662.46	812.17
662.60	807.48
662.74	767.70
662.88	732.59
663.03	526.62
663.17	571.09
663.31	484.49
663.45	500.87
663.60	500.87
663.74	430.66
663.88	451.72
664.02	379.17
664.17	369.80
664.31	351.08
664.45	308.95
664.59	341.72
664.73	355.76
664.88	400.23
665.02	327.68
665.16	379.17
665.30	322.99
665.44	351.08
665.59	383.85
665.73	365.12
665.87	369.80
666.01	353.42
666.15	315.97
666.29	341.72
666.44	395.55
666.58	353.42
666.72	337.04
666.86	294.91
667.00	334.70
667.14	322.99
667.28	360.44
667.43	374.49
667.57	290.23
667.71	337.04
667.85	327.68
667.99	308.95
668.13	271.50
668.27	374.49
668.41	353.42
668.56	348.74
668.70	351.08
668.84	337.04
668.98	386.19
669.12	278.52
669.26	395.55
669.40	404.91
669.54	332.36
669.68	285.55
669.82	269.16
669.96	229.37
670.10	271.50
670.25	379.17
670.39	266.82
670.53	299.59
670.67	308.95
670.81	292.57
670.95	339.38
671.09	351.08
671.23	308.95
671.37	315.97
671.51	334.70
671.65	339.38
671.79	358.10
671.93	287.89
672.07	348.74
672.21	278.52
672.35	248.10
672.49	306.61
672.63	229.37
672.77	231.71
672.91	271.50
673.05	294.91
673.19	264.48
673.33	231.71
673.47	346.40
673.61	273.84
673.75	243.42
673.89	280.86
674.03	304.27
674.17	262.14
674.31	311.29
674.45	332.36
674.59	290.23
674.73	252.78
674.87	250.44
675.01	241.08
675.15	276.18
675.29	355.76
675.43	339.38
675.56	332.36
675.70	339.38
675.84	320.65
675.98	327.68
676.12	255.12
676.26	222.35
676.40	198.95
676.54	271.50
676.68	229.37
676.82	269.16
676.96	255.12
677.10	273.84
677.23	252.78
677.37	234.05
677.51	334.70
677.65	325.33
677.79	163.84
677.93	222.35
678.07	205.97
678.21	269.16
678.34	311.29
678.48	292.57
678.62	273.84
678.76	208.31
678.90	259.80
679.04	315.97
679.18	215.33
679.31	212.99
679.45	250.44
679.59	259.80
679.73	292.57
679.87	283.20
680.00	278.52
680.14	292.57
680.28	341.72
680.42	264.48
680.56	271.50
680.70	299.59
680.83	264.48
680.97	266.82
681.11	222.35
681.25	301.93
681.39	322.99
681.52	271.50
681.66	243.42
681.80	287.89
681.94	257.46
682.07	259.80
682.21	290.23
682.35	243.42
682.49	210.65
682.62	252.78
682.76	212.99
682.90	322.99
683.04	341.72
683.17	231.71
683.31	276.18
683.45	217.67
683.59	271.50
683.72	220.01
683.86	248.10
684.00	173.20
684.13	287.89
684.27	241.08
684.41	231.71
684.55	203.63
684.68	196.60
684.82	180.22
684.96	201.29
685.09	257.46
685.23	217.67
685.37	273.84
685.50	280.86
685.64	234.05
685.78	243.42
685.91	285.55
686.05	287.89
686.19	287.89
686.32	280.86
686.46	325.33
686.60	299.59
686.73	348.74
686.87	369.80
687.01	297.25
687.14	402.57
687.28	433.00
687.42	409.59
687.55	521.94
687.69	514.92
687.82	465.77
687.96	440.02
688.10	456.40
688.23	498.53
688.37	449.38
688.50	374.49
688.64	355.76
688.78	315.97
688.91	341.72
689.05	395.55
689.18	313.63
689.32	287.89
689.46	325.33
689.59	315.97
689.73	231.71
689.86	234.05
690.00	262.14
690.13	159.16
690.27	255.12
690.41	252.78
690.54	269.16
690.68	285.55
690.81	259.80
690.95	210.65
691.08	250.44
691.22	166.18
691.35	152.13
691.49	149.79
691.62	208.31
691.76	168.52
691.89	189.58
692.03	88.94
692.16	170.86
692.30	276.18
692.43	292.57
692.57	191.92
692.70	262.14
692.84	236.39
692.97	238.73
693.11	241.08
693.24	346.40
693.38	407.25
693.51	433.00
693.65	433.00
693.78	414.27
693.92	318.31
694.05	327.68
694.19	236.39
694.32	355.76
694.45	297.25
694.59	262.14
694.72	215.33
694.86	161.50
694.99	166.18
695.13	278.52
695.26	191.92
695.39	140.43
695.53	149.79
695.66	203.63
695.80	210.65
695.93	152.13
696.07	121.71
696.20	227.03
696.33	168.52
696.47	187.24
696.60	241.08
696.73	175.54
696.87	198.95
697.00	220.01
697.14	142.77
697.27	182.56
697.40	248.10
697.54	243.42
697.67	203.63
697.80	227.03
697.94	161.50
698.07	182.56
698.21	81.92
698.34	135.75
698.47	107.66
698.61	121.71
698.74	203.63
698.87	128.73
699.01	124.05
699.14	168.52
699.27	147.45
699.40	210.65
699.54	180.22
699.67	189.58
699.80	84.26
699.94	131.07
700.07	117.03
700.20	131.07
700.34	191.92
700.47	131.07
700.60	203.63
700.73	161.50
700.87	140.43
701.00	145.11
701.13	149.79
701.26	154.48
701.40	187.24
701.53	91.28
701.66	138.09
701.79	217.67
701.93	100.64
702.06	191.92
702.19	114.69
702.32	250.44
702.46	187.24
702.59	110.01
702.72	121.71
702.85	175.54
702.99	166.18
703.12	205.97
703.25	159.16
703.38	189.58
703.51	220.01
703.65	238.73
703.78	212.99
703.91	154.48
704.04	187.24
704.17	154.48
704.31	126.39
704.44	252.78
704.57	241.08
704.70	234.05
704.83	189.58
704.96	142.77
705.10	173.20
705.23	175.54
>>>>>End Processed Spectral Data<<<<<
