SpectraSuite Data File
++++++++++++++++++++++++++++++++++++
Date: Fri Oct 04 11:41:41 GMT-05:00 2013
User: price-jones
Dark Spectrum Present: No
Reference Spectrum Present: No
Number of Sampled Component Spectra: 1
Spectrometers: USB2+H05261
Integration Time (usec): 100000 (USB2+H05261)
Spectra Averaged: 1 (USB2+H05261)
Boxcar Smoothing: 0 (USB2+H05261)
Correct for Electrical Dark: No (USB2+H05261)
Strobe/Lamp Enabled: No (USB2+H05261)
Correct for Detector Non-linearity: No (USB2+H05261)
Correct for Stray Light: No (USB2+H05261)
Number of Pixels in Processed Spectrum: 2048
>>>>>Begin Processed Spectral Data<<<<<
365.73	46.81
365.92	46.81
366.12	46.81
366.32	0.00
366.52	0.00
366.72	0.00
366.91	0.00
367.11	0.00
367.31	0.00
367.51	0.00
367.70	0.00
367.90	0.00
368.10	0.00
368.30	0.00
368.49	0.00
368.69	0.00
368.89	0.00
369.09	0.00
369.28	0.00
369.48	0.00
369.68	0.00
369.87	7.02
370.07	0.00
370.27	2.34
370.47	72.56
370.66	42.13
370.86	18.72
371.06	46.81
371.25	65.54
371.45	67.88
371.65	170.86
371.84	51.49
372.04	46.81
372.24	98.30
372.44	177.88
372.63	175.54
372.83	105.32
373.03	114.69
373.22	72.56
373.42	102.98
373.62	81.92
373.81	100.64
374.01	156.82
374.21	107.66
374.40	126.39
374.60	126.39
374.79	81.92
374.99	95.96
375.19	65.54
375.38	180.22
375.58	86.60
375.78	222.35
375.97	63.19
376.17	231.71
376.37	140.43
376.56	70.22
376.76	212.99
376.95	114.69
377.15	133.41
377.35	117.03
377.54	161.50
377.74	86.60
377.93	91.28
378.13	142.77
378.33	173.20
378.52	133.41
378.72	88.94
378.91	88.94
379.11	161.50
379.31	93.62
379.50	128.73
379.70	168.52
379.89	201.29
380.09	133.41
380.28	110.01
380.48	58.51
380.68	184.90
380.87	145.11
381.07	93.62
381.26	163.84
381.46	168.52
381.65	74.90
381.85	145.11
382.04	105.32
382.24	105.32
382.43	126.39
382.63	100.64
382.83	126.39
383.02	81.92
383.22	140.43
383.41	79.58
383.61	100.64
383.80	156.82
384.00	60.85
384.19	107.66
384.39	140.43
384.58	147.45
384.78	149.79
384.97	105.32
385.17	159.16
385.36	166.18
385.56	175.54
385.75	110.01
385.95	175.54
386.14	173.20
386.34	140.43
386.53	128.73
386.72	84.26
386.92	152.13
387.11	112.35
387.31	234.05
387.50	91.28
387.70	44.47
387.89	114.69
388.09	72.56
388.28	145.11
388.48	81.92
388.67	138.09
388.86	77.24
389.06	117.03
389.25	100.64
389.45	121.71
389.64	126.39
389.84	161.50
390.03	95.96
390.22	58.51
390.42	110.01
390.61	135.75
390.81	180.22
391.00	142.77
391.19	208.31
391.39	124.05
391.58	166.18
391.78	210.65
391.97	98.30
392.16	74.90
392.36	177.88
392.55	147.45
392.75	98.30
392.94	88.94
393.13	161.50
393.33	135.75
393.52	84.26
393.71	208.31
393.91	63.19
394.10	86.60
394.29	140.43
394.49	100.64
394.68	138.09
394.88	168.52
395.07	142.77
395.26	175.54
395.46	112.35
395.65	149.79
395.84	142.77
396.04	168.52
396.23	163.84
396.42	117.03
396.62	166.18
396.81	107.66
397.00	154.48
397.19	182.56
397.39	161.50
397.58	191.92
397.77	159.16
397.97	126.39
398.16	95.96
398.35	168.52
398.55	131.07
398.74	156.82
398.93	138.09
399.12	198.95
399.32	203.63
399.51	145.11
399.70	124.05
399.90	198.95
400.09	138.09
400.28	112.35
400.47	154.48
400.67	182.56
400.86	145.11
401.05	152.13
401.24	187.24
401.44	138.09
401.63	135.75
401.82	159.16
402.01	140.43
402.21	149.79
402.40	126.39
402.59	163.84
402.78	135.75
402.97	196.60
403.17	184.90
403.36	250.44
403.55	283.20
403.74	606.20
403.93	1952.01
404.13	4610.86
404.32	6132.20
404.51	5406.64
404.70	3199.51
404.89	1224.10
405.09	416.62
405.28	222.35
405.47	236.39
405.66	184.90
405.85	131.07
406.05	184.90
406.24	217.67
406.43	107.66
406.62	259.80
406.81	262.14
407.00	348.74
407.20	697.48
407.39	875.36
407.58	910.47
407.77	671.73
407.96	404.91
408.15	238.73
408.34	222.35
408.54	147.45
408.73	173.20
408.92	147.45
409.11	166.18
409.30	152.13
409.49	128.73
409.68	173.20
409.87	201.29
410.07	163.84
410.26	208.31
410.45	203.63
410.64	131.07
410.83	210.65
411.02	189.58
411.21	224.69
411.40	173.20
411.59	196.60
411.78	161.50
411.98	159.16
412.17	159.16
412.36	189.58
412.55	173.20
412.74	149.79
412.93	245.76
413.12	191.92
413.31	262.14
413.50	191.92
413.69	182.56
413.88	224.69
414.07	161.50
414.26	156.82
414.45	149.79
414.64	159.16
414.83	177.88
415.02	220.01
415.22	184.90
415.41	285.55
415.60	187.24
415.79	220.01
415.98	229.37
416.17	217.67
416.36	168.52
416.55	208.31
416.74	276.18
416.93	191.92
417.12	266.82
417.31	224.69
417.50	252.78
417.69	262.14
417.88	294.91
418.07	234.05
418.26	243.42
418.45	212.99
418.64	276.18
418.83	245.76
419.02	243.42
419.21	187.24
419.39	220.01
419.58	224.69
419.77	234.05
419.96	311.29
420.15	201.29
420.34	217.67
420.53	241.08
420.72	383.85
420.91	271.50
421.10	322.99
421.29	236.39
421.48	238.73
421.67	266.82
421.86	241.08
422.05	208.31
422.24	276.18
422.43	224.69
422.61	245.76
422.80	236.39
422.99	308.95
423.18	252.78
423.37	234.05
423.56	276.18
423.75	262.14
423.94	283.20
424.13	269.16
424.32	320.65
424.50	257.46
424.69	283.20
424.88	273.84
425.07	320.65
425.26	301.93
425.45	297.25
425.64	344.06
425.83	292.57
426.01	346.40
426.20	330.02
426.39	198.95
426.58	292.57
426.77	301.93
426.96	318.31
427.15	320.65
427.33	266.82
427.52	325.33
427.71	280.86
427.90	290.23
428.09	353.42
428.28	365.12
428.46	290.23
428.65	327.68
428.84	346.40
429.03	418.96
429.22	351.08
429.40	360.44
429.59	383.85
429.78	325.33
429.97	180.22
430.16	330.02
430.34	383.85
430.53	327.68
430.72	390.87
430.91	360.44
431.10	266.82
431.28	451.72
431.47	299.59
431.66	383.85
431.85	381.51
432.03	404.91
432.22	458.74
432.41	390.87
432.60	437.68
432.79	360.44
432.97	463.43
433.16	472.79
433.35	557.05
433.54	561.73
433.72	648.33
433.91	631.94
434.10	634.29
434.28	788.76
434.47	858.98
434.66	828.55
434.85	1207.72
435.03	3152.70
435.22	12051.42
435.41	27756.41
435.59	28404.74
435.78	18408.31
435.97	9158.52
436.16	3588.04
436.34	1369.21
436.53	793.44
436.72	671.73
436.90	585.13
437.09	482.15
437.28	463.43
437.46	418.96
437.65	489.17
437.84	442.36
438.02	411.93
438.21	390.87
438.40	402.57
438.58	395.55
438.77	418.96
438.96	435.34
439.14	390.87
439.33	465.77
439.52	402.57
439.70	449.38
439.89	451.72
440.08	430.66
440.26	500.87
440.45	456.40
440.63	402.57
440.82	320.65
441.01	393.21
441.19	425.98
441.38	456.40
441.57	470.45
441.75	538.32
441.94	510.24
442.12	367.46
442.31	486.83
442.50	430.66
442.68	362.78
442.87	390.87
443.05	381.51
443.24	425.98
443.43	433.00
443.61	517.26
443.80	447.04
443.98	372.15
444.17	451.72
444.35	388.53
444.54	477.47
444.73	449.38
444.91	425.98
445.10	442.36
445.28	381.51
445.47	458.74
445.65	425.98
445.84	404.91
446.02	409.59
446.21	381.51
446.39	418.96
446.58	435.34
446.77	421.30
446.95	425.98
447.14	407.25
447.32	528.96
447.51	358.10
447.69	421.30
447.88	374.49
448.06	482.15
448.25	447.04
448.43	360.44
448.62	437.68
448.80	390.87
448.99	435.34
449.17	449.38
449.36	348.74
449.54	465.77
449.73	411.93
449.91	456.40
450.10	407.25
450.28	447.04
450.46	390.87
450.65	451.72
450.83	451.72
451.02	433.00
451.20	393.21
451.39	365.12
451.57	341.72
451.76	355.76
451.94	383.85
452.13	367.46
452.31	395.55
452.49	425.98
452.68	390.87
452.86	430.66
453.05	505.56
453.23	437.68
453.42	327.68
453.60	454.06
453.78	451.72
453.97	341.72
454.15	435.34
454.34	390.87
454.52	299.59
454.70	463.43
454.89	388.53
455.07	327.68
455.26	442.36
455.44	421.30
455.62	423.64
455.81	360.44
455.99	447.04
456.17	416.62
456.36	442.36
456.54	376.83
456.73	395.55
456.91	362.78
457.09	440.02
457.28	383.85
457.46	393.21
457.64	425.98
457.83	477.47
458.01	444.70
458.19	400.23
458.38	400.23
458.56	430.66
458.74	358.10
458.93	365.12
459.11	404.91
459.29	411.93
459.48	372.15
459.66	444.70
459.84	390.87
460.03	554.71
460.21	425.98
460.39	365.12
460.57	416.62
460.76	526.62
460.94	465.77
461.12	423.64
461.31	411.93
461.49	393.21
461.67	348.74
461.85	428.32
462.04	421.30
462.22	498.53
462.40	433.00
462.59	402.57
462.77	435.34
462.95	411.93
463.13	372.15
463.32	404.91
463.50	477.47
463.68	421.30
463.86	344.06
464.05	341.72
464.23	449.38
464.41	444.70
464.59	383.85
464.78	404.91
464.96	372.15
465.14	376.83
465.32	355.76
465.50	454.06
465.69	360.44
465.87	362.78
466.05	397.89
466.23	334.70
466.41	383.85
466.60	472.79
466.78	442.36
466.96	468.11
467.14	362.78
467.32	435.34
467.51	447.04
467.69	409.59
467.87	367.46
468.05	386.19
468.23	374.49
468.41	451.72
468.60	322.99
468.78	428.32
468.96	400.23
469.14	451.72
469.32	278.52
469.50	285.55
469.69	339.38
469.87	376.83
470.05	458.74
470.23	423.64
470.41	322.99
470.59	414.27
470.77	348.74
470.95	418.96
471.14	360.44
471.32	411.93
471.50	433.00
471.68	409.59
471.86	383.85
472.04	339.38
472.22	400.23
472.40	376.83
472.58	365.12
472.77	451.72
472.95	400.23
473.13	414.27
473.31	386.19
473.49	334.70
473.67	337.04
473.85	346.40
474.03	386.19
474.21	383.85
474.39	381.51
474.57	423.64
474.75	423.64
474.93	339.38
475.12	395.55
475.30	369.80
475.48	372.15
475.66	388.53
475.84	397.89
476.02	386.19
476.20	400.23
476.38	397.89
476.56	491.51
476.74	447.04
476.92	388.53
477.10	386.19
477.28	475.13
477.46	454.06
477.64	458.74
477.82	442.36
478.00	393.21
478.18	411.93
478.36	456.40
478.54	454.06
478.72	369.80
478.90	465.77
479.08	465.77
479.26	393.21
479.44	571.09
479.62	496.19
479.80	533.64
479.98	603.86
480.16	547.69
480.34	613.22
480.52	594.50
480.70	643.65
480.88	685.78
481.06	664.71
481.24	746.63
481.41	760.67
481.59	737.27
481.77	812.17
481.95	870.68
482.13	917.49
482.31	952.60
482.49	950.26
482.67	1043.88
482.85	1153.88
483.03	1149.20
483.21	1252.19
483.39	1383.26
483.57	1453.47
483.74	1495.60
483.92	1633.69
484.10	1647.74
484.28	1769.44
484.46	1954.35
484.64	1975.41
484.82	2019.88
485.00	2125.21
485.18	2326.49
485.35	2469.27
485.53	2399.05
485.71	2495.01
485.89	2703.32
486.07	2740.77
486.25	2796.94
486.43	2675.23
486.61	2813.32
486.78	2698.64
486.96	2869.50
487.14	2684.59
487.32	2630.76
487.50	2757.15
487.68	2740.77
487.85	2644.81
488.03	2616.72
488.21	2679.91
488.39	2612.04
488.57	2513.74
488.75	2586.29
488.92	2588.63
489.10	2359.26
489.28	2352.24
489.46	2300.75
489.64	2267.98
489.81	2296.07
489.99	2106.48
490.17	2134.57
490.35	2204.78
490.53	2134.57
490.70	2083.08
490.88	2148.61
491.06	2242.23
491.24	2438.84
491.41	2310.11
491.59	2260.96
491.77	1968.39
491.95	2073.71
492.13	1963.71
492.30	1867.75
492.48	1987.11
492.66	1954.35
492.84	1909.88
493.01	1837.32
493.19	1715.61
493.37	1764.76
493.54	1729.66
493.72	1781.15
493.90	1666.46
494.08	1680.50
494.25	1605.61
494.43	1659.44
494.61	1640.72
494.79	1561.14
494.96	1558.80
495.14	1514.33
495.32	1526.03
495.49	1575.18
495.67	1439.43
495.85	1387.94
496.02	1511.99
496.20	1338.79
496.38	1495.60
496.55	1460.49
496.73	1430.07
496.91	1289.64
497.09	1432.41
497.26	1315.38
497.44	1224.10
497.62	1238.14
497.79	1170.27
497.97	1263.89
498.14	1179.63
498.32	1224.10
498.50	1100.05
498.67	1081.33
498.85	1111.75
499.03	1088.35
499.20	994.73
499.38	976.00
499.56	1018.13
499.73	999.41
499.91	959.62
500.08	917.49
500.26	887.06
500.44	922.17
500.61	844.93
500.79	807.48
500.97	814.51
501.14	777.06
501.32	730.25
501.49	744.29
501.67	730.25
501.84	748.97
502.02	748.97
502.20	760.67
502.37	727.91
502.55	683.44
502.72	557.05
502.90	720.88
503.07	676.41
503.25	578.11
503.43	566.41
503.60	624.92
503.78	622.58
503.95	573.43
504.13	484.49
504.30	575.77
504.48	603.86
504.65	528.96
504.83	566.41
505.01	526.62
505.18	451.72
505.36	503.22
505.53	505.56
505.71	468.11
505.88	477.47
506.06	482.15
506.23	407.25
506.41	458.74
506.58	486.83
506.76	470.45
506.93	425.98
507.11	332.36
507.28	393.21
507.46	390.87
507.63	386.19
507.81	383.85
507.98	458.74
508.16	461.09
508.33	454.06
508.50	374.49
508.68	489.17
508.85	524.28
509.03	442.36
509.20	440.02
509.38	512.58
509.55	472.79
509.73	416.62
509.90	409.59
510.08	496.19
510.25	477.47
510.42	360.44
510.60	411.93
510.77	409.59
510.95	402.57
511.12	414.27
511.30	395.55
511.47	435.34
511.64	376.83
511.82	437.68
511.99	402.57
512.17	411.93
512.34	397.89
512.51	414.27
512.69	421.30
512.86	433.00
513.04	334.70
513.21	402.57
513.38	423.64
513.56	393.21
513.73	425.98
513.90	400.23
514.08	369.80
514.25	367.46
514.43	482.15
514.60	322.99
514.77	308.95
514.95	454.06
515.12	372.15
515.29	353.42
515.47	372.15
515.64	313.63
515.81	400.23
515.99	353.42
516.16	416.62
516.33	362.78
516.51	341.72
516.68	400.23
516.85	327.68
517.03	344.06
517.20	400.23
517.37	313.63
517.54	306.61
517.72	430.66
517.89	379.17
518.06	339.38
518.24	297.25
518.41	351.08
518.58	393.21
518.75	257.46
518.93	372.15
519.10	330.02
519.27	304.27
519.45	311.29
519.62	393.21
519.79	379.17
519.96	358.10
520.14	390.87
520.31	374.49
520.48	341.72
520.65	327.68
520.83	283.20
521.00	320.65
521.17	330.02
521.34	339.38
521.52	425.98
521.69	355.76
521.86	369.80
522.03	414.27
522.20	440.02
522.38	241.08
522.55	395.55
522.72	330.02
522.89	346.40
523.07	449.38
523.24	428.32
523.41	397.89
523.58	404.91
523.75	386.19
523.92	325.33
524.10	327.68
524.27	362.78
524.44	360.44
524.61	362.78
524.78	351.08
524.96	311.29
525.13	362.78
525.30	442.36
525.47	351.08
525.64	353.42
525.81	299.59
525.98	369.80
526.16	402.57
526.33	344.06
526.50	341.72
526.67	311.29
526.84	409.59
527.01	407.25
527.18	507.90
527.36	407.25
527.53	454.06
527.70	456.40
527.87	430.66
528.04	395.55
528.21	411.93
528.38	477.47
528.55	524.28
528.72	496.19
528.89	472.79
529.07	367.46
529.24	365.12
529.41	442.36
529.58	484.49
529.75	393.21
529.92	372.15
530.09	440.02
530.26	449.38
530.43	566.41
530.60	500.87
530.77	482.15
530.94	631.94
531.11	564.07
531.28	540.66
531.46	589.82
531.63	620.24
531.80	615.56
531.97	601.52
532.14	765.36
532.31	791.10
532.48	1048.56
532.65	1207.72
532.82	1331.76
532.99	1519.01
533.16	1717.95
533.33	1760.08
533.50	1593.90
533.67	1378.58
533.84	1291.98
534.01	1104.73
534.18	997.07
534.35	985.37
534.52	997.07
534.69	1062.60
534.86	1076.65
535.03	1128.14
535.20	1125.80
535.37	1245.16
535.54	1306.02
535.71	1273.25
535.88	1493.26
536.05	1526.03
536.22	1621.99
536.38	1736.68
536.55	1837.32
536.72	2155.63
536.89	2326.49
537.06	2649.49
537.23	2818.00
537.40	3145.68
537.57	3499.10
537.74	3555.27
537.91	3606.77
538.08	3779.97
538.25	3819.75
538.42	3740.18
538.59	3812.73
538.75	3957.85
538.92	4264.46
539.09	4744.27
539.26	5177.26
539.43	5933.26
539.60	6553.50
539.77	7536.52
539.94	8292.52
540.11	9198.31
540.28	9755.35
540.44	11040.31
540.61	12135.68
540.78	13949.59
540.95	16779.30
541.12	19726.04
541.29	22223.39
541.46	23152.58
541.62	22934.91
541.79	22216.36
541.96	20664.59
542.13	19026.21
542.30	17664.02
542.47	16882.28
542.63	15852.45
542.80	15473.28
542.97	15339.87
543.14	15325.83
543.31	15140.93
543.48	15246.25
543.64	15669.89
543.81	15531.80
543.98	15871.17
544.15	15681.59
544.32	15812.66
544.48	15763.51
544.65	15880.53
544.82	15566.90
544.99	15726.06
545.16	15747.12
545.32	16751.21
545.49	28037.28
545.66	51372.42
545.83	57836.98
546.00	52807.17
546.16	37188.77
546.33	27388.95
546.50	21081.21
546.67	16079.48
546.83	14129.81
547.00	13741.29
547.17	12910.40
547.34	12035.03
547.50	11899.28
547.67	11449.90
547.84	10890.51
548.00	10555.82
548.17	10090.05
548.34	9823.23
548.51	9476.83
548.67	9123.41
548.84	8645.94
549.01	8063.15
549.18	7999.95
549.34	7548.23
549.51	7311.83
549.68	7037.99
549.84	6691.59
550.01	6342.85
550.18	5973.05
550.34	5933.26
550.51	5734.31
550.68	5352.81
550.84	5041.51
551.01	4784.06
551.18	4486.81
551.34	4257.43
551.51	4131.05
551.68	3971.89
551.84	3934.44
552.01	3751.88
552.18	3623.15
552.34	3379.73
552.51	3176.11
552.68	2949.08
552.84	2984.18
553.01	3021.63
553.18	2822.69
553.34	2722.04
553.51	2574.59
553.67	2567.57
553.84	2506.71
554.01	2277.34
554.17	2256.28
554.34	2038.61
554.51	1834.98
554.67	1856.04
554.84	1734.34
555.00	1664.12
555.17	1530.71
555.33	1605.61
555.50	1469.86
555.67	1371.55
555.83	1315.38
556.00	1266.23
556.16	1387.94
556.33	1114.10
556.50	1275.59
556.66	1172.61
556.83	1088.35
556.99	1069.62
557.16	1029.84
557.32	1036.86
557.49	926.85
557.65	851.96
557.82	1034.52
557.98	931.53
558.15	770.04
558.32	887.06
558.48	823.87
558.65	814.51
558.81	755.99
558.98	889.40
559.14	833.23
559.31	763.01
559.47	770.04
559.64	784.08
559.80	765.36
559.97	713.86
560.13	723.23
560.30	631.94
560.46	716.20
560.63	657.69
560.79	638.97
560.96	763.01
561.12	624.92
561.29	657.69
561.45	657.69
561.61	802.80
561.78	720.88
561.94	718.54
562.11	781.74
562.27	784.08
562.44	669.39
562.60	683.44
562.77	657.69
562.93	720.88
563.10	706.84
563.26	617.90
563.42	545.34
563.59	610.88
563.75	582.79
563.92	671.73
564.08	580.45
564.24	603.86
564.41	638.97
564.57	587.47
564.74	627.26
564.90	596.84
565.07	507.90
565.23	629.60
565.39	594.50
565.56	608.54
565.72	507.90
565.88	592.16
566.05	538.32
566.21	587.47
566.38	484.49
566.54	582.79
566.70	528.96
566.87	601.52
567.03	592.16
567.19	624.92
567.36	582.79
567.52	580.45
567.68	554.71
567.85	624.92
568.01	568.75
568.17	540.66
568.34	660.03
568.50	587.47
568.66	566.41
568.83	589.82
568.99	594.50
569.15	573.43
569.32	521.94
569.48	479.81
569.64	433.00
569.81	545.34
569.97	472.79
570.13	559.39
570.30	482.15
570.46	465.77
570.62	463.43
570.78	393.21
570.95	418.96
571.11	472.79
571.27	545.34
571.43	428.32
571.60	510.24
571.76	442.36
571.92	428.32
572.09	484.49
572.25	496.19
572.41	404.91
572.57	444.70
572.74	470.45
572.90	503.22
573.06	451.72
573.22	491.51
573.38	468.11
573.55	477.47
573.71	465.77
573.87	533.64
574.03	531.30
574.20	454.06
574.36	528.96
574.52	484.49
574.68	564.07
574.84	524.28
575.01	564.07
575.17	589.82
575.33	608.54
575.49	638.97
575.65	662.37
575.82	671.73
575.98	924.51
576.14	933.87
576.30	1729.66
576.46	5619.63
576.62	10178.99
576.79	11126.91
576.95	7885.26
577.11	5203.01
577.27	3634.85
577.43	2492.67
577.59	1675.82
577.75	1294.32
577.92	1268.57
578.08	1235.80
578.24	1294.32
578.40	2026.90
578.56	5451.11
578.72	9558.75
578.88	10509.01
579.04	7728.45
579.21	5088.32
579.37	3836.14
579.53	3047.38
579.69	2911.63
579.85	3592.72
580.01	4126.36
580.17	3864.22
580.33	3379.73
580.49	2923.33
580.65	2661.19
580.82	2396.71
580.98	2300.75
581.14	2244.57
581.30	2469.27
581.46	2616.72
581.62	2846.09
581.78	2984.18
581.94	3325.90
582.10	3391.44
582.26	3662.94
582.42	3878.27
582.58	3796.35
582.74	3983.59
582.90	3864.22
583.06	4053.81
583.22	4032.74
583.38	4018.70
583.54	4105.30
583.70	3850.18
583.86	3850.18
584.02	3819.75
584.18	3758.90
584.34	3826.78
584.50	3630.17
584.66	3569.32
584.82	3524.85
584.98	3597.40
585.14	3435.91
585.30	3405.48
585.46	3328.24
585.62	3281.43
585.78	3262.71
585.94	3332.92
586.10	3398.46
586.26	3618.47
586.42	4086.58
586.58	4933.85
586.74	5806.87
586.90	7007.56
587.06	7875.90
587.22	7772.92
587.38	6820.32
587.54	5980.07
587.70	5142.16
587.86	4243.39
588.02	3772.94
588.18	3251.00
588.34	3038.02
588.49	2829.71
588.65	2527.78
588.81	2450.54
588.97	2284.36
589.13	2256.28
589.29	2249.25
589.45	2275.00
589.61	2216.49
589.77	2389.69
589.93	2392.03
590.08	2228.19
590.24	2361.60
590.40	2551.18
590.56	2513.74
590.72	2434.16
590.88	2553.52
591.04	2635.44
591.20	2906.95
591.35	2871.84
591.51	3035.67
591.67	3143.34
591.83	3503.78
591.99	3632.51
592.15	3922.74
592.31	4358.08
592.46	4744.27
592.62	5083.64
592.78	5263.86
592.94	5664.10
593.10	5563.45
593.26	5322.38
593.41	5032.15
593.57	4334.67
593.73	3765.92
593.89	3403.14
594.05	2916.31
594.20	2810.98
594.36	2635.44
594.52	2438.84
594.68	2277.34
594.84	2045.63
594.99	2064.35
595.15	2148.61
595.31	2033.93
595.47	2054.99
595.62	2062.01
595.78	2031.58
595.94	1984.77
596.10	2125.21
596.25	2019.88
596.41	1977.75
596.57	2019.88
596.73	1898.17
596.88	1870.09
597.04	1921.58
597.20	2139.25
597.36	2153.29
597.51	2153.29
597.67	2267.98
597.83	2377.98
597.99	2466.92
598.14	2506.71
598.30	2647.15
598.46	2771.19
598.61	3035.67
598.77	3115.25
598.93	3251.00
599.09	3363.35
599.24	3368.03
599.40	3377.39
599.56	3304.84
599.71	3157.38
599.87	2995.89
600.03	2876.52
600.18	2640.12
600.34	2476.29
600.50	2370.96
600.65	2122.87
600.81	2134.57
600.97	1865.41
601.12	1804.55
601.28	1842.00
601.44	1624.33
601.59	1607.95
601.75	1500.28
601.91	1514.33
602.06	1488.58
602.22	1416.02
602.37	1357.51
602.53	1359.85
602.69	1310.70
602.84	1364.53
603.00	1411.34
603.16	1411.34
603.31	1359.85
603.47	1504.96
603.62	1390.28
603.78	1537.73
603.94	1509.65
604.09	1481.56
604.25	1549.43
604.40	1533.05
604.56	1586.88
604.71	1610.29
604.87	1598.59
605.03	1661.78
605.18	1549.43
605.34	1774.13
605.49	1774.13
605.65	1713.27
605.80	1729.66
605.96	1865.41
606.12	1933.28
606.27	2094.78
606.43	2047.97
606.58	2181.38
606.74	2279.68
606.89	2317.13
607.05	2597.99
607.20	2612.04
607.36	2782.90
607.51	2874.18
607.67	3215.90
607.82	3281.43
607.98	3602.08
608.13	3798.69
608.29	4224.67
608.44	4550.00
608.60	4823.84
608.75	5469.83
608.91	5783.46
609.06	6443.49
609.22	7063.74
609.37	7683.98
609.53	8519.55
609.68	9631.30
609.84	11169.04
609.99	12936.14
610.15	15529.45
610.30	19461.55
610.46	24758.19
610.61	31789.16
610.76	40203.38
610.92	48392.92
611.07	52786.10
611.23	53701.25
611.38	51299.86
611.54	46471.34
611.69	40325.09
611.84	33584.35
612.00	28091.11
612.15	23459.19
612.31	20418.83
612.46	18214.05
612.62	16992.29
612.77	15833.72
612.92	15169.01
613.08	14394.29
613.23	13425.31
613.39	12966.57
613.54	12615.49
613.69	12395.48
613.85	12142.70
614.00	12439.95
614.15	12245.68
614.31	11866.52
614.46	11550.54
614.62	11176.06
614.77	10490.28
614.92	10043.24
615.08	9263.84
615.23	8674.03
615.38	8018.68
615.54	7176.08
615.69	6733.72
615.84	5998.79
616.00	5589.20
616.15	5144.50
616.30	4795.76
616.46	4566.39
616.61	4264.46
616.76	4180.20
616.92	3859.54
617.07	3847.84
617.22	3410.16
617.37	3382.07
617.53	3201.85
617.68	3005.25
617.83	2953.76
617.99	2939.71
618.14	2822.69
618.29	2869.50
618.45	2747.79
618.60	2757.15
618.75	2605.02
618.90	2572.25
619.06	2595.65
619.21	2581.61
619.36	2539.48
619.51	2513.74
619.67	2445.86
619.82	2597.99
619.97	2583.95
620.12	2665.87
620.28	2768.85
620.43	2747.79
620.58	2726.72
620.73	2764.17
620.89	2743.11
621.04	2729.06
621.19	2818.00
621.34	2609.70
621.49	2663.53
621.65	2616.72
621.80	2609.70
621.95	2686.94
622.10	2619.06
622.25	2555.86
622.41	2600.34
622.56	2829.71
622.71	2881.20
622.86	2862.48
623.01	2832.05
623.16	3059.08
623.32	2951.42
623.47	3019.29
623.62	2960.78
623.77	2995.89
623.92	2923.33
624.07	2970.14
624.23	2942.05
624.38	3087.17
624.53	2988.86
624.68	3068.44
624.83	3038.02
624.98	2956.10
625.13	2906.95
625.29	3045.04
625.44	2951.42
625.59	3077.80
625.74	3075.46
625.89	2979.50
626.04	2995.89
626.19	3007.59
626.34	3019.29
626.49	3045.04
626.65	3012.27
626.80	3059.08
626.95	2918.65
627.10	2897.58
627.25	2871.84
627.40	2703.32
627.55	2794.60
627.70	2752.47
627.85	2857.79
628.00	2832.05
628.15	2686.94
628.30	2663.53
628.45	2649.49
628.60	2626.08
628.76	2619.06
628.91	2717.36
629.06	2668.21
629.21	2881.20
629.36	2902.26
629.51	2977.16
629.66	3133.98
629.81	3349.31
629.96	3485.06
630.11	3983.59
630.26	4327.65
630.41	5001.72
630.56	5322.38
630.71	5844.32
630.86	6024.54
631.01	5708.57
631.16	5275.57
631.31	4753.63
631.46	4028.06
631.61	3531.87
631.76	2904.60
631.91	2464.58
632.06	2115.84
632.21	1771.79
632.36	1643.06
632.51	1434.75
632.66	1282.61
632.81	1214.74
632.96	1170.27
633.10	999.41
633.25	1071.97
633.40	1048.56
633.55	985.37
633.70	950.26
633.85	849.61
634.00	931.53
634.15	861.32
634.30	915.15
634.45	917.49
634.60	807.48
634.75	828.55
634.90	814.51
635.05	779.40
635.19	837.91
635.34	786.42
635.49	814.51
635.64	800.46
635.79	716.20
635.94	734.93
636.09	690.46
636.24	695.14
636.39	603.86
636.53	662.37
636.68	671.73
636.83	643.65
636.98	695.14
637.13	648.33
637.28	601.52
637.43	727.91
637.57	603.86
637.72	678.76
637.87	564.07
638.02	650.67
638.17	648.33
638.32	594.50
638.46	578.11
638.61	615.56
638.76	507.90
638.91	608.54
639.06	575.77
639.20	631.94
639.35	617.90
639.50	533.64
639.65	566.41
639.80	514.92
639.94	573.43
640.09	650.67
640.24	580.45
640.39	573.43
640.54	568.75
640.68	550.03
640.83	517.26
640.98	468.11
641.13	559.39
641.27	505.56
641.42	573.43
641.57	505.56
641.72	514.92
641.86	531.30
642.01	641.31
642.16	636.63
642.31	528.96
642.45	610.88
642.60	498.53
642.75	624.92
642.90	571.09
643.04	613.22
643.19	587.47
643.34	561.73
643.48	622.58
643.63	575.77
643.78	592.16
643.93	596.84
644.07	655.35
644.22	517.26
644.37	489.17
644.51	472.79
644.66	627.26
644.81	510.24
644.95	624.92
645.10	533.64
645.25	559.39
645.39	573.43
645.54	479.81
645.69	582.79
645.83	510.24
645.98	641.31
646.13	559.39
646.27	559.39
646.42	538.32
646.57	437.68
646.71	573.43
646.86	477.47
647.00	472.79
647.15	507.90
647.30	409.59
647.44	519.60
647.59	475.13
647.74	472.79
647.88	493.85
648.03	454.06
648.17	578.11
648.32	496.19
648.47	610.88
648.61	512.58
648.76	578.11
648.90	613.22
649.05	615.56
649.20	557.05
649.34	704.50
649.49	725.57
649.63	903.45
649.78	1102.39
649.92	1111.75
650.07	1371.55
650.21	1624.33
650.36	1640.72
650.51	1600.93
650.65	1579.86
650.80	1352.83
650.94	1270.91
651.09	1116.44
651.23	1025.15
651.38	912.81
651.52	760.67
651.67	737.27
651.81	758.33
651.96	744.29
652.10	645.99
652.25	690.46
652.39	725.57
652.54	732.59
652.68	873.02
652.83	830.89
652.97	905.79
653.12	837.91
653.26	795.78
653.41	882.38
653.55	741.95
653.70	690.46
653.84	603.86
653.99	615.56
654.13	543.00
654.27	641.31
654.42	543.00
654.56	561.73
654.71	648.33
654.85	561.73
655.00	454.06
655.14	425.98
655.29	517.26
655.43	543.00
655.57	503.22
655.72	500.87
655.86	545.34
656.01	465.77
656.15	449.38
656.30	535.98
656.44	465.77
656.58	470.45
656.73	514.92
656.87	545.34
657.01	543.00
657.16	561.73
657.30	507.90
657.45	627.26
657.59	566.41
657.73	589.82
657.88	580.45
658.02	709.18
658.16	528.96
658.31	547.69
658.45	519.60
658.60	418.96
658.74	458.74
658.88	482.15
659.03	477.47
659.17	430.66
659.31	393.21
659.46	390.87
659.60	360.44
659.74	442.36
659.89	477.47
660.03	388.53
660.17	348.74
660.32	381.51
660.46	454.06
660.60	334.70
660.74	528.96
660.89	407.25
661.03	416.62
661.17	430.66
661.32	470.45
661.46	514.92
661.60	615.56
661.74	685.78
661.89	786.42
662.03	952.60
662.17	1015.79
662.31	987.71
662.46	1130.48
662.60	912.81
662.74	856.64
662.88	830.89
663.03	683.44
663.17	589.82
663.31	543.00
663.45	622.58
663.60	528.96
663.74	503.22
663.88	550.03
664.02	465.77
664.17	425.98
664.31	374.49
664.45	414.27
664.59	416.62
664.73	451.72
664.88	409.59
665.02	339.38
665.16	322.99
665.30	332.36
665.44	440.02
665.59	351.08
665.73	416.62
665.87	369.80
666.01	423.64
666.15	339.38
666.29	461.09
666.44	449.38
666.58	512.58
666.72	388.53
666.86	339.38
667.00	414.27
667.14	341.72
667.28	339.38
667.43	346.40
667.57	386.19
667.71	322.99
667.85	327.68
667.99	423.64
668.13	367.46
668.27	428.32
668.41	393.21
668.56	290.23
668.70	395.55
668.84	379.17
668.98	337.04
669.12	318.31
669.26	402.57
669.40	334.70
669.54	355.76
669.68	227.03
669.82	332.36
669.96	313.63
670.10	369.80
670.25	362.78
670.39	348.74
670.53	360.44
670.67	386.19
670.81	259.80
670.95	463.43
671.09	299.59
671.23	355.76
671.37	322.99
671.51	337.04
671.65	308.95
671.79	248.10
671.93	290.23
672.07	425.98
672.21	372.15
672.35	348.74
672.49	339.38
672.63	322.99
672.77	421.30
672.91	339.38
673.05	306.61
673.19	393.21
673.33	301.93
673.47	351.08
673.61	304.27
673.75	294.91
673.89	308.95
674.03	301.93
674.17	285.55
674.31	266.82
674.45	205.97
674.59	278.52
674.73	255.12
674.87	313.63
675.01	292.57
675.15	257.46
675.29	337.04
675.43	341.72
675.56	308.95
675.70	337.04
675.84	292.57
675.98	301.93
676.12	229.37
676.26	252.78
676.40	280.86
676.54	318.31
676.68	287.89
676.82	367.46
676.96	257.46
677.10	262.14
677.23	271.50
677.37	269.16
677.51	297.25
677.65	311.29
677.79	266.82
677.93	220.01
678.07	259.80
678.21	266.82
678.34	262.14
678.48	285.55
678.62	280.86
678.76	276.18
678.90	205.97
679.04	238.73
679.18	250.44
679.31	290.23
679.45	262.14
679.59	245.76
679.73	243.42
679.87	271.50
680.00	294.91
680.14	358.10
680.28	379.17
680.42	257.46
680.56	322.99
680.70	276.18
680.83	315.97
680.97	287.89
681.11	334.70
681.25	334.70
681.39	320.65
681.52	243.42
681.66	311.29
681.80	374.49
681.94	159.16
682.07	332.36
682.21	358.10
682.35	234.05
682.49	189.58
682.62	269.16
682.76	276.18
682.90	231.71
683.04	327.68
683.17	290.23
683.31	283.20
683.45	271.50
683.59	252.78
683.72	248.10
683.86	301.93
684.00	259.80
684.13	374.49
684.27	280.86
684.41	273.84
684.55	245.76
684.68	320.65
684.82	271.50
684.96	285.55
685.09	215.33
685.23	264.48
685.37	278.52
685.50	304.27
685.64	234.05
685.78	308.95
685.91	334.70
686.05	315.97
686.19	304.27
686.32	306.61
686.46	308.95
686.60	358.10
686.73	395.55
686.87	472.79
687.01	423.64
687.14	425.98
687.28	561.73
687.42	575.77
687.55	543.00
687.69	608.54
687.82	540.66
687.96	575.77
688.10	620.24
688.23	465.77
688.37	540.66
688.50	454.06
688.64	428.32
688.78	390.87
688.91	376.83
689.05	337.04
689.18	341.72
689.32	313.63
689.46	318.31
689.59	259.80
689.73	255.12
689.86	227.03
690.00	351.08
690.13	217.67
690.27	175.54
690.41	257.46
690.54	297.25
690.68	299.59
690.81	276.18
690.95	255.12
691.08	166.18
691.22	231.71
691.35	222.35
691.49	149.79
691.62	184.90
691.76	168.52
691.89	241.08
692.03	222.35
692.16	152.13
692.30	187.24
692.43	152.13
692.57	215.33
692.70	229.37
692.84	184.90
692.97	280.86
693.11	304.27
693.24	341.72
693.38	454.06
693.51	521.94
693.65	596.84
693.78	456.40
693.92	395.55
694.05	447.04
694.19	348.74
694.32	285.55
694.45	262.14
694.59	227.03
694.72	208.31
694.86	128.73
694.99	198.95
695.13	208.31
695.26	217.67
695.39	161.50
695.53	208.31
695.66	182.56
695.80	196.60
695.93	187.24
696.07	191.92
696.20	222.35
696.33	170.86
696.47	234.05
696.60	208.31
696.73	138.09
696.87	170.86
697.00	245.76
697.14	210.65
697.27	180.22
697.40	273.84
697.54	105.32
697.67	189.58
697.80	177.88
697.94	222.35
698.07	138.09
698.21	70.22
698.34	175.54
698.47	161.50
698.61	98.30
698.74	175.54
698.87	142.77
699.01	114.69
699.14	67.88
699.27	126.39
699.40	271.50
699.54	128.73
699.67	156.82
699.80	154.48
699.94	128.73
700.07	114.69
700.20	215.33
700.34	152.13
700.47	84.26
700.60	46.81
700.73	208.31
700.87	248.10
701.00	220.01
701.13	229.37
701.26	149.79
701.40	168.52
701.53	154.48
701.66	135.75
701.79	154.48
701.93	222.35
702.06	215.33
702.19	205.97
702.32	175.54
702.46	145.11
702.59	205.97
702.72	156.82
702.85	205.97
702.99	191.92
703.12	208.31
703.25	191.92
703.38	128.73
703.51	283.20
703.65	318.31
703.78	205.97
703.91	227.03
704.04	234.05
704.17	184.90
704.31	227.03
704.44	191.92
704.57	215.33
704.70	222.35
704.83	236.39
704.96	229.37
705.10	264.48
705.23	297.25
>>>>>End Processed Spectral Data<<<<<
