SpectraSuite Data File
++++++++++++++++++++++++++++++++++++
Date: Fri Oct 04 11:41:51 GMT-05:00 2013
User: price-jones
Dark Spectrum Present: No
Reference Spectrum Present: No
Number of Sampled Component Spectra: 1
Spectrometers: USB2+H05261
Integration Time (usec): 100000 (USB2+H05261)
Spectra Averaged: 1 (USB2+H05261)
Boxcar Smoothing: 0 (USB2+H05261)
Correct for Electrical Dark: No (USB2+H05261)
Strobe/Lamp Enabled: No (USB2+H05261)
Correct for Detector Non-linearity: No (USB2+H05261)
Correct for Stray Light: No (USB2+H05261)
Number of Pixels in Processed Spectrum: 2048
>>>>>Begin Processed Spectral Data<<<<<
365.73	0.00
365.92	0.00
366.12	0.00
366.32	30.43
366.52	0.00
366.72	0.00
366.91	0.00
367.11	0.00
367.31	0.00
367.51	0.00
367.70	0.00
367.90	35.11
368.10	0.00
368.30	0.00
368.49	0.00
368.69	0.00
368.89	0.00
369.09	0.00
369.28	2.34
369.48	0.00
369.68	0.00
369.87	0.00
370.07	0.00
370.27	32.77
370.47	0.00
370.66	9.36
370.86	42.13
371.06	86.60
371.25	60.85
371.45	79.58
371.65	98.30
371.84	81.92
372.04	58.51
372.24	81.92
372.44	74.90
372.63	86.60
372.83	105.32
373.03	112.35
373.22	126.39
373.42	131.07
373.62	117.03
373.81	196.60
374.01	163.84
374.21	140.43
374.40	126.39
374.60	147.45
374.79	93.62
374.99	198.95
375.19	124.05
375.38	142.77
375.58	203.63
375.78	198.95
375.97	140.43
376.17	147.45
376.37	131.07
376.56	140.43
376.76	114.69
376.95	126.39
377.15	175.54
377.35	149.79
377.54	152.13
377.74	128.73
377.93	105.32
378.13	77.24
378.33	147.45
378.52	189.58
378.72	187.24
378.91	163.84
379.11	152.13
379.31	156.82
379.50	156.82
379.70	110.01
379.89	138.09
380.09	72.56
380.28	100.64
380.48	138.09
380.68	166.18
380.87	117.03
381.07	135.75
381.26	154.48
381.46	117.03
381.65	173.20
381.85	86.60
382.04	177.88
382.24	110.01
382.43	133.41
382.63	170.86
382.83	86.60
383.02	194.26
383.22	196.60
383.41	102.98
383.61	147.45
383.80	203.63
384.00	198.95
384.19	126.39
384.39	86.60
384.58	147.45
384.78	112.35
384.97	107.66
385.17	145.11
385.36	159.16
385.56	112.35
385.75	102.98
385.95	72.56
386.14	107.66
386.34	133.41
386.53	121.71
386.72	126.39
386.92	145.11
387.11	173.20
387.31	114.69
387.50	117.03
387.70	168.52
387.89	119.37
388.09	93.62
388.28	91.28
388.48	152.13
388.67	212.99
388.86	117.03
389.06	140.43
389.25	147.45
389.45	107.66
389.64	124.05
389.84	163.84
390.03	117.03
390.22	149.79
390.42	203.63
390.61	175.54
390.81	95.96
391.00	131.07
391.19	117.03
391.39	119.37
391.58	145.11
391.78	154.48
391.97	91.28
392.16	201.29
392.36	198.95
392.55	175.54
392.75	168.52
392.94	67.88
393.13	72.56
393.33	100.64
393.52	159.16
393.71	166.18
393.91	100.64
394.10	74.90
394.29	182.56
394.49	126.39
394.68	128.73
394.88	189.58
395.07	187.24
395.26	133.41
395.46	110.01
395.65	147.45
395.84	154.48
396.04	142.77
396.23	196.60
396.42	100.64
396.62	107.66
396.81	161.50
397.00	110.01
397.19	135.75
397.39	187.24
397.58	135.75
397.77	88.94
397.97	152.13
398.16	117.03
398.35	201.29
398.55	98.30
398.74	107.66
398.93	72.56
399.12	147.45
399.32	166.18
399.51	156.82
399.70	212.99
399.90	133.41
400.09	196.60
400.28	145.11
400.47	147.45
400.67	229.37
400.86	133.41
401.05	124.05
401.24	248.10
401.44	262.14
401.63	189.58
401.82	250.44
402.01	196.60
402.21	262.14
402.40	227.03
402.59	166.18
402.78	196.60
402.97	248.10
403.17	287.89
403.36	322.99
403.55	332.36
403.74	692.80
403.93	2272.66
404.13	5909.85
404.32	9568.11
404.51	9727.27
404.70	6085.39
404.89	2286.70
405.09	664.71
405.28	393.21
405.47	287.89
405.66	220.01
405.85	257.46
406.05	227.03
406.24	229.37
406.43	262.14
406.62	271.50
406.81	276.18
407.00	367.46
407.20	753.65
407.39	1252.19
407.58	1420.71
407.77	1029.84
407.96	664.71
408.15	276.18
408.34	175.54
408.54	236.39
408.73	278.52
408.92	304.27
409.11	271.50
409.30	276.18
409.49	184.90
409.68	210.65
409.87	280.86
410.07	201.29
410.26	283.20
410.45	248.10
410.64	257.46
410.83	290.23
411.02	245.76
411.21	273.84
411.40	255.12
411.59	163.84
411.78	191.92
411.98	212.99
412.17	224.69
412.36	250.44
412.55	297.25
412.74	245.76
412.93	264.48
413.12	276.18
413.31	322.99
413.50	236.39
413.69	248.10
413.88	315.97
414.07	299.59
414.26	301.93
414.45	224.69
414.64	210.65
414.83	273.84
415.02	250.44
415.22	276.18
415.41	339.38
415.60	269.16
415.79	292.57
415.98	346.40
416.17	248.10
416.36	292.57
416.55	292.57
416.74	301.93
416.93	301.93
417.12	337.04
417.31	266.82
417.50	257.46
417.69	362.78
417.88	271.50
418.07	241.08
418.26	287.89
418.45	271.50
418.64	337.04
418.83	327.68
419.02	344.06
419.21	276.18
419.39	271.50
419.58	255.12
419.77	315.97
419.96	278.52
420.15	351.08
420.34	304.27
420.53	297.25
420.72	252.78
420.91	327.68
421.10	334.70
421.29	365.12
421.48	332.36
421.67	320.65
421.86	315.97
422.05	327.68
422.24	430.66
422.43	262.14
422.61	287.89
422.80	369.80
422.99	285.55
423.18	271.50
423.37	428.32
423.56	372.15
423.75	428.32
423.94	315.97
424.13	390.87
424.32	294.91
424.50	306.61
424.69	358.10
424.88	355.76
425.07	330.02
425.26	287.89
425.45	341.72
425.64	346.40
425.83	353.42
426.01	496.19
426.20	409.59
426.39	442.36
426.58	435.34
426.77	418.96
426.96	416.62
427.15	433.00
427.33	362.78
427.52	421.30
427.71	472.79
427.90	407.25
428.09	447.04
428.28	362.78
428.46	486.83
428.65	465.77
428.84	493.85
429.03	491.51
429.22	409.59
429.40	437.68
429.59	447.04
429.78	477.47
429.97	362.78
430.16	386.19
430.34	503.22
430.53	463.43
430.72	430.66
430.91	440.02
431.10	449.38
431.28	496.19
431.47	482.15
431.66	498.53
431.85	435.34
432.03	519.60
432.22	538.32
432.41	557.05
432.60	566.41
432.79	535.98
432.97	500.87
433.16	606.20
433.35	648.33
433.54	816.85
433.72	901.11
433.91	777.06
434.10	816.85
434.28	997.07
434.47	1303.68
434.66	1420.71
434.85	1720.29
435.03	4002.32
435.22	14155.56
435.41	37151.32
435.59	48971.03
435.78	35824.24
435.97	16430.56
436.16	6183.70
436.34	1933.28
436.53	1252.19
436.72	903.45
436.90	849.61
437.09	791.10
437.28	760.67
437.46	683.44
437.65	699.82
437.84	606.20
438.02	627.26
438.21	599.18
438.40	547.69
438.58	528.96
438.77	606.20
438.96	608.54
439.14	533.64
439.33	524.28
439.52	505.56
439.70	580.45
439.89	608.54
440.08	641.31
440.26	613.22
440.45	627.26
440.63	580.45
440.82	533.64
441.01	585.13
441.19	524.28
441.38	627.26
441.57	514.92
441.75	645.99
441.94	638.97
442.12	615.56
442.31	580.45
442.50	564.07
442.68	561.73
442.87	594.50
443.05	573.43
443.24	559.39
443.43	550.03
443.61	650.67
443.80	575.77
443.98	512.58
444.17	571.09
444.35	692.80
444.54	559.39
444.73	564.07
444.91	645.99
445.10	564.07
445.28	538.32
445.47	561.73
445.65	599.18
445.84	493.85
446.02	620.24
446.21	648.33
446.39	524.28
446.58	568.75
446.77	559.39
446.95	531.30
447.14	615.56
447.32	667.05
447.51	547.69
447.69	526.62
447.88	533.64
448.06	594.50
448.25	554.71
448.43	566.41
448.62	533.64
448.80	498.53
448.99	596.84
449.17	547.69
449.36	617.90
449.54	545.34
449.73	566.41
449.91	573.43
450.10	559.39
450.28	669.39
450.46	601.52
450.65	571.09
450.83	564.07
451.02	554.71
451.20	606.20
451.39	486.83
451.57	573.43
451.76	568.75
451.94	517.26
452.13	582.79
452.31	596.84
452.49	526.62
452.68	634.29
452.86	608.54
453.05	589.82
453.23	526.62
453.42	559.39
453.60	505.56
453.78	550.03
453.97	524.28
454.15	519.60
454.34	493.85
454.52	519.60
454.70	596.84
454.89	571.09
455.07	587.47
455.26	568.75
455.44	561.73
455.62	645.99
455.81	498.53
455.99	531.30
456.17	667.05
456.36	571.09
456.54	610.88
456.73	559.39
456.91	596.84
457.09	608.54
457.28	660.03
457.46	524.28
457.64	631.94
457.83	547.69
458.01	498.53
458.19	517.26
458.38	547.69
458.56	554.71
458.74	566.41
458.93	564.07
459.11	533.64
459.29	496.19
459.48	643.65
459.66	587.47
459.84	514.92
460.03	615.56
460.21	519.60
460.39	484.49
460.57	507.90
460.76	528.96
460.94	470.45
461.12	641.31
461.31	554.71
461.49	547.69
461.67	543.00
461.85	571.09
462.04	517.26
462.22	997.07
462.40	594.50
462.59	552.37
462.77	552.37
462.95	510.24
463.13	568.75
463.32	475.13
463.50	547.69
463.68	503.22
463.86	603.86
464.05	535.98
464.23	519.60
464.41	559.39
464.59	505.56
464.78	589.82
464.96	521.94
465.14	575.77
465.32	468.11
465.50	552.37
465.69	538.32
465.87	430.66
466.05	503.22
466.23	559.39
466.41	528.96
466.60	552.37
466.78	582.79
466.96	608.54
467.14	587.47
467.32	498.53
467.51	624.92
467.69	641.31
467.87	601.52
468.05	451.72
468.23	564.07
468.41	416.62
468.60	451.72
468.78	418.96
468.96	554.71
469.14	524.28
469.32	477.47
469.50	479.81
469.69	512.58
469.87	533.64
470.05	535.98
470.23	489.17
470.41	526.62
470.59	507.90
470.77	538.32
470.95	517.26
471.14	592.16
471.32	566.41
471.50	603.86
471.68	454.06
471.86	498.53
472.04	545.34
472.22	573.43
472.40	585.13
472.58	540.66
472.77	489.17
472.95	461.09
473.13	554.71
473.31	617.90
473.49	547.69
473.67	545.34
473.85	535.98
474.03	547.69
474.21	514.92
474.39	543.00
474.57	557.05
474.75	470.45
474.93	521.94
475.12	477.47
475.30	540.66
475.48	435.34
475.66	571.09
475.84	510.24
476.02	538.32
476.20	571.09
476.38	524.28
476.56	510.24
476.74	582.79
476.92	496.19
477.10	603.86
477.28	578.11
477.46	533.64
477.64	608.54
477.82	571.09
478.00	575.77
478.18	624.92
478.36	627.26
478.54	599.18
478.72	653.01
478.90	692.80
479.08	653.01
479.26	650.67
479.44	702.16
479.62	713.86
479.80	763.01
479.98	704.50
480.16	695.14
480.34	767.70
480.52	858.98
480.70	823.87
480.88	966.64
481.06	980.68
481.24	1018.13
481.41	1046.22
481.59	1163.25
481.77	1170.27
481.95	1191.33
482.13	1324.74
482.31	1423.05
482.49	1516.67
482.67	1526.03
482.85	1652.42
483.03	1703.91
483.21	1944.99
483.39	2057.33
483.57	2092.44
483.74	2253.94
483.92	2370.96
484.10	2490.33
484.28	2803.96
484.46	2775.88
484.64	2939.71
484.82	3070.78
485.00	3126.96
485.18	3412.50
485.35	3571.66
485.53	3822.09
485.71	4070.19
485.89	4290.20
486.07	4294.88
486.25	4252.75
486.43	4418.93
486.61	4367.44
486.78	4332.33
486.96	4313.61
487.14	4318.29
487.32	4194.24
487.50	4353.40
487.68	4227.01
487.85	4126.36
488.03	4271.48
488.21	4086.58
488.39	4107.64
488.57	3918.06
488.75	3838.48
488.92	4032.74
489.10	3726.13
489.28	3660.60
489.46	3480.38
489.64	3293.13
489.81	3454.63
489.99	3445.27
490.17	3295.47
490.35	3297.81
490.53	3129.30
490.70	3206.53
490.88	3204.19
491.06	3412.50
491.24	3618.47
491.41	3730.81
491.59	3384.41
491.77	3272.07
491.95	3159.72
492.13	2972.48
492.30	3063.76
492.48	2909.29
492.66	2974.82
492.84	3005.25
493.01	2780.56
493.19	2736.09
493.37	2773.53
493.54	2670.55
493.72	2658.85
493.90	2492.67
494.08	2483.31
494.25	2499.69
494.43	2483.31
494.61	2523.10
494.79	2317.13
494.96	2389.69
495.14	2363.94
495.32	2413.09
495.49	2293.72
495.67	2228.19
495.85	2204.78
496.02	2099.46
496.20	2090.10
496.38	2064.35
496.55	2106.48
496.73	2118.18
496.91	1977.75
497.09	2062.01
497.26	1977.75
497.44	1886.47
497.62	1827.96
497.79	1778.81
497.97	1827.96
498.14	1736.68
498.32	1668.80
498.50	1753.06
498.67	1696.89
498.85	1547.09
499.03	1563.48
499.20	1519.01
499.38	1425.39
499.56	1397.30
499.73	1526.03
499.91	1453.47
500.08	1439.43
500.26	1268.57
500.44	1296.66
500.61	1287.29
500.79	1181.97
500.97	1172.61
501.14	1224.10
501.32	1053.24
501.49	1097.71
501.67	1086.01
501.84	1041.54
502.02	992.39
502.20	926.85
502.37	1020.47
502.55	994.73
502.72	887.06
502.90	887.06
503.07	830.89
503.25	870.68
503.43	786.42
503.60	767.70
503.78	802.80
503.95	788.76
504.13	699.82
504.30	805.14
504.48	688.12
504.65	767.70
504.83	730.25
505.01	706.84
505.18	683.44
505.36	671.73
505.53	657.69
505.71	645.99
505.88	730.25
506.06	636.63
506.23	627.26
506.41	610.88
506.58	599.18
506.76	636.63
506.93	695.14
507.11	545.34
507.28	571.09
507.46	510.24
507.63	566.41
507.81	519.60
507.98	449.38
508.16	573.43
508.33	566.41
508.50	636.63
508.68	613.22
508.85	648.33
509.03	585.13
509.20	557.05
509.38	573.43
509.55	615.56
509.73	589.82
509.90	564.07
510.08	514.92
510.25	526.62
510.42	575.77
510.60	557.05
510.77	465.77
510.95	561.73
511.12	526.62
511.30	528.96
511.47	528.96
511.64	638.97
511.82	475.13
511.99	484.49
512.17	416.62
512.34	543.00
512.51	491.51
512.69	482.15
512.86	575.77
513.04	456.40
513.21	491.51
513.38	514.92
513.56	505.56
513.73	390.87
513.90	454.06
514.08	500.87
514.25	437.68
514.43	477.47
514.60	383.85
514.77	409.59
514.95	386.19
515.12	512.58
515.29	409.59
515.47	458.74
515.64	411.93
515.81	482.15
515.99	552.37
516.16	477.47
516.33	526.62
516.51	442.36
516.68	430.66
516.85	404.91
517.03	456.40
517.20	407.25
517.37	416.62
517.54	491.51
517.72	433.00
517.89	411.93
518.06	390.87
518.24	404.91
518.41	540.66
518.58	433.00
518.75	365.12
518.93	411.93
519.10	393.21
519.27	435.34
519.45	458.74
519.62	433.00
519.79	423.64
519.96	521.94
520.14	355.76
520.31	421.30
520.48	369.80
520.65	425.98
520.83	400.23
521.00	362.78
521.17	423.64
521.34	451.72
521.52	409.59
521.69	362.78
521.86	409.59
522.03	440.02
522.20	437.68
522.38	374.49
522.55	383.85
522.72	344.06
522.89	454.06
523.07	430.66
523.24	365.12
523.41	337.04
523.58	449.38
523.75	402.57
523.92	374.49
524.10	400.23
524.27	479.81
524.44	472.79
524.61	498.53
524.78	435.34
524.96	475.13
525.13	367.46
525.30	514.92
525.47	472.79
525.64	540.66
525.81	503.22
525.98	477.47
526.16	381.51
526.33	458.74
526.50	407.25
526.67	507.90
526.84	528.96
527.01	451.72
527.18	550.03
527.36	547.69
527.53	512.58
527.70	636.63
527.87	468.11
528.04	538.32
528.21	447.04
528.38	557.05
528.55	500.87
528.72	594.50
528.89	557.05
529.07	531.30
529.24	585.13
529.41	617.90
529.58	524.28
529.75	510.24
529.92	587.47
530.09	610.88
530.26	624.92
530.43	657.69
530.60	678.76
530.77	620.24
530.94	655.35
531.11	737.27
531.28	734.93
531.46	713.86
531.63	812.17
531.80	854.30
531.97	926.85
532.14	1013.45
532.31	1144.52
532.48	1320.06
532.65	1603.27
532.82	1659.44
532.99	1954.35
533.16	2417.77
533.33	2736.09
533.50	2686.94
533.67	2148.61
533.84	1774.13
534.01	1577.52
534.18	1486.24
534.35	1474.54
534.52	1439.43
534.69	1488.58
534.86	1551.78
535.03	1586.88
535.20	1666.46
535.37	1888.81
535.54	1823.28
535.71	1949.67
535.88	2129.89
536.05	2186.06
536.22	2373.30
536.38	2600.34
536.55	2801.62
536.72	2956.10
536.89	3424.20
537.06	3829.12
537.23	4418.93
537.40	4917.47
537.57	5266.21
537.74	5483.88
537.91	5603.24
538.08	5682.82
538.25	5987.09
538.42	5923.90
538.59	5912.19
538.75	6146.25
538.92	6630.74
539.09	7234.60
539.26	7901.65
539.43	9163.20
539.60	10005.79
539.77	11517.78
539.94	13013.38
540.11	14492.60
540.28	15815.00
540.44	17245.07
540.61	19047.28
540.78	21490.80
540.95	26092.29
541.12	31442.76
541.29	35857.01
541.46	37670.92
541.62	37427.51
541.79	36388.31
541.96	34176.50
542.13	30831.88
542.30	29537.56
542.47	27281.28
542.63	26195.28
542.80	24802.66
542.97	24168.37
543.14	24519.45
543.31	24215.18
543.48	24210.50
543.64	25298.85
543.81	25249.70
543.98	25612.48
544.15	25572.69
544.32	25448.64
544.48	25546.95
544.65	25352.68
544.82	24643.50
544.99	25001.60
545.16	25460.35
545.32	26490.18
545.49	38934.81
545.66	59627.49
545.83	65535.00
546.00	65535.00
546.16	59236.62
546.33	43702.48
546.50	33195.82
546.67	26005.69
546.83	22824.90
547.00	22066.57
547.17	20812.04
547.34	20428.20
547.50	19269.63
547.67	18916.21
547.84	17909.78
548.00	17092.93
548.17	16622.48
548.34	16027.99
548.51	15236.89
548.67	14586.22
548.84	13598.51
549.01	13228.71
549.18	12624.85
549.34	12063.12
549.51	11705.02
549.68	11393.73
549.84	10621.35
550.01	10167.29
550.18	9586.83
550.34	9317.67
550.51	8847.22
550.68	8482.10
550.84	7838.45
551.01	7496.74
551.18	7337.58
551.34	6986.50
551.51	6455.20
551.68	6296.04
551.84	6171.99
552.01	5823.25
552.18	5708.57
552.34	5416.00
552.51	5121.09
552.68	4903.42
552.84	4662.35
553.01	4580.43
553.18	4447.02
553.34	4491.49
553.51	4152.11
553.67	3920.40
553.84	3934.44
554.01	3510.80
554.17	3386.76
554.34	3066.10
554.51	2944.39
554.67	2818.00
554.84	2700.98
555.00	2406.07
555.17	2347.56
555.33	2225.85
555.50	2186.06
555.67	2083.08
555.83	1888.81
556.00	1926.26
556.16	1980.09
556.33	1837.32
556.50	1813.92
556.66	1748.38
556.83	1603.27
556.99	1521.35
557.16	1579.86
557.32	1413.68
557.49	1425.39
557.65	1378.58
557.82	1348.15
557.98	1343.47
558.15	1352.83
558.32	1291.98
558.48	1151.54
558.65	1146.86
558.81	1200.69
558.98	1083.67
559.14	1121.12
559.31	1118.78
559.47	1078.99
559.64	1102.39
559.80	1006.43
559.97	1074.31
560.13	1020.47
560.30	968.98
560.46	908.13
560.63	1046.22
560.79	1039.20
560.96	1008.77
561.12	1020.47
561.29	1060.26
561.45	938.55
561.61	999.41
561.78	1081.33
561.94	1048.56
562.11	1074.31
562.27	990.05
562.44	894.08
562.60	889.40
562.77	945.58
562.93	990.05
563.10	966.64
563.26	875.36
563.42	807.48
563.59	889.40
563.75	833.23
563.92	847.27
564.08	835.57
564.24	847.27
564.41	793.44
564.57	823.87
564.74	828.55
564.90	793.44
565.07	816.85
565.23	772.38
565.39	889.40
565.56	802.80
565.72	760.67
565.88	706.84
566.05	678.76
566.21	725.57
566.38	772.38
566.54	786.42
566.70	798.12
566.87	753.65
567.03	763.01
567.19	835.57
567.36	798.12
567.52	676.41
567.68	844.93
567.85	744.29
568.01	758.33
568.17	781.74
568.34	767.70
568.50	795.78
568.66	915.15
568.83	823.87
568.99	781.74
569.15	751.31
569.32	744.29
569.48	678.76
569.64	608.54
569.81	653.01
569.97	557.05
570.13	702.16
570.30	641.31
570.46	594.50
570.62	486.83
570.78	561.73
570.95	587.47
571.11	568.75
571.27	650.67
571.43	620.24
571.60	573.43
571.76	587.47
571.92	617.90
572.09	543.00
572.25	638.97
572.41	634.29
572.57	599.18
572.74	615.56
572.90	617.90
573.06	603.86
573.22	608.54
573.38	631.94
573.55	660.03
573.71	601.52
573.87	629.60
574.03	667.05
574.20	638.97
574.36	676.41
574.52	660.03
574.68	695.14
574.84	800.46
575.01	798.12
575.17	884.72
575.33	887.06
575.49	882.38
575.65	992.39
575.82	1097.71
575.98	1123.46
576.14	1331.76
576.30	2363.94
576.46	7419.50
576.62	15414.77
576.79	20159.03
576.95	14602.60
577.11	8774.67
577.27	5867.72
577.43	3899.33
577.59	2471.61
577.75	1818.60
577.92	1799.87
578.08	1743.70
578.24	1727.32
578.40	2651.83
578.56	6848.41
578.72	13437.02
578.88	18586.19
579.04	13568.09
579.21	8500.83
579.37	5968.37
579.53	4503.19
579.69	4191.90
579.85	5097.69
580.01	6541.80
580.17	6759.47
580.33	5643.03
580.49	4634.26
580.65	4081.89
580.82	3630.17
580.98	3424.20
581.14	3604.42
581.30	3943.80
581.46	4161.47
581.62	4327.65
581.78	4826.18
581.94	5027.47
582.10	5533.03
582.26	5722.61
582.42	5980.07
582.58	6193.06
582.74	6183.70
582.90	6345.19
583.06	6239.87
583.22	6291.36
583.38	6263.27
583.54	6289.02
583.70	6214.12
583.86	6298.38
584.02	6122.84
584.18	6202.42
584.34	5935.60
584.50	5781.12
584.66	5528.35
584.82	5556.43
584.98	5469.83
585.14	5455.79
585.30	5369.19
585.46	5224.08
585.62	5338.76
585.78	5320.04
585.94	5270.89
586.10	5191.31
586.26	5514.30
586.42	6305.40
586.58	7290.77
586.74	9231.07
586.90	11150.31
587.06	12678.68
587.22	12915.08
587.38	11428.84
587.54	9685.14
587.70	8191.88
587.86	6911.60
588.02	5776.44
588.18	5240.46
588.34	4638.94
588.49	4271.48
588.65	3906.35
588.81	3838.48
588.97	3772.94
589.13	3538.89
589.29	3419.52
589.45	3344.63
589.61	3487.40
589.77	3351.65
589.93	3595.06
590.08	3653.58
590.24	3749.54
590.40	3805.71
590.56	3941.46
590.72	3782.31
590.88	4058.49
591.04	4154.45
591.20	4463.40
591.35	4697.46
591.51	4809.80
591.67	4858.95
591.83	5413.66
591.99	5671.12
592.15	6244.55
592.31	6825.00
592.46	7480.35
592.62	8112.30
592.78	8805.10
592.94	9369.16
593.10	9081.28
593.26	8498.49
593.41	7899.31
593.57	7089.48
593.73	6265.61
593.89	5610.26
594.05	5046.20
594.20	4334.67
594.36	4035.08
594.52	3740.18
594.68	3641.87
594.84	3346.97
594.99	3318.88
595.15	3272.07
595.31	3253.34
595.47	3185.47
595.62	3070.78
595.78	2984.18
595.94	3094.19
596.10	3091.85
596.25	3059.08
596.41	3243.98
596.57	3150.36
596.73	3082.49
596.88	3077.80
597.04	2998.23
597.20	3014.61
597.36	3180.79
597.51	3251.00
597.67	3400.80
597.83	3445.27
597.99	3702.73
598.14	4021.04
598.30	4114.66
598.46	4325.31
598.61	4695.11
598.77	4772.35
598.93	5078.96
599.09	5132.79
599.24	5289.61
599.40	5444.09
599.56	5032.15
599.71	5020.45
599.87	4753.63
600.03	4414.25
600.18	4205.94
600.34	3852.52
600.50	3536.55
600.65	3389.10
600.81	3115.25
600.97	3094.19
601.12	2801.62
601.28	2614.38
601.44	2478.63
601.59	2415.43
601.75	2363.94
601.91	2289.04
602.06	2284.36
602.22	2251.60
602.37	2120.53
602.53	2059.67
602.69	2031.58
602.84	2017.54
603.00	1982.43
603.16	2160.31
603.31	2129.89
603.47	2160.31
603.62	2179.04
603.78	2258.62
603.94	2260.96
604.09	2267.98
604.25	2328.83
604.40	2459.90
604.56	2368.62
604.71	2319.47
604.87	2382.67
605.03	2422.45
605.18	2473.95
605.34	2663.53
605.49	2602.68
605.65	2661.19
605.80	2586.29
605.96	2984.18
606.12	2972.48
606.27	3068.44
606.43	3180.79
606.58	3318.88
606.74	3641.87
606.89	3861.88
607.05	3868.91
607.20	4007.00
607.36	4273.82
607.51	4575.75
607.67	4828.53
607.82	5135.14
607.98	5448.77
608.13	5858.36
608.29	6443.49
608.44	6984.16
608.60	7510.78
608.75	8360.39
608.91	9174.90
609.06	10054.94
609.22	11101.16
609.37	12058.44
609.53	13830.23
609.68	15484.98
609.84	17521.25
609.99	20711.40
610.15	24762.87
610.30	30059.50
610.46	37872.21
610.61	47667.35
610.76	56500.53
610.92	61544.39
611.07	64856.24
611.23	65535.00
611.38	65303.29
611.54	62190.37
611.69	58457.22
611.84	53420.39
612.00	46148.34
612.15	39438.03
612.31	34157.78
612.46	29958.86
612.62	28156.64
612.77	26195.28
612.92	25221.61
613.08	23651.11
613.23	22328.71
613.39	21392.50
613.54	20652.89
613.69	20322.87
613.85	20051.37
614.00	20006.90
614.15	19531.77
614.31	19335.17
614.46	19276.65
614.62	18651.73
614.77	17401.88
614.92	16643.55
615.08	15311.78
615.23	14221.10
615.38	13144.45
615.54	11906.31
615.69	10836.68
615.84	9942.60
616.00	9139.79
616.15	8659.98
616.30	8105.28
616.46	7297.79
616.61	7012.24
616.76	6612.01
616.92	6286.68
617.07	5654.73
617.22	5605.58
617.37	5427.70
617.53	5074.28
617.68	4877.68
617.83	4695.11
617.99	4484.47
618.14	4582.77
618.29	4400.21
618.45	4231.69
618.60	4074.87
618.75	4236.37
618.90	4018.70
619.06	3892.31
619.21	3943.80
619.36	3948.48
619.51	4004.66
619.67	3871.25
619.82	3974.23
619.97	4290.20
620.12	4215.30
620.28	4344.03
620.43	4332.33
620.58	4301.90
620.73	4432.97
620.89	4409.57
621.04	4390.84
621.19	4397.87
621.34	4313.61
621.49	4191.90
621.65	4140.41
621.80	4210.62
621.95	4095.94
622.10	4208.28
622.25	4126.36
622.41	4327.65
622.56	4299.56
622.71	4454.04
622.86	4587.45
623.01	4652.98
623.16	4716.18
623.32	4734.90
623.47	4585.11
623.62	4765.33
623.77	4477.44
623.92	4620.22
624.07	4566.39
624.23	4730.22
624.38	4592.13
624.53	4720.86
624.68	4746.61
624.83	4762.99
624.98	4842.57
625.13	4830.87
625.29	4718.52
625.44	4816.82
625.59	4777.03
625.74	4933.85
625.89	5069.60
626.04	4795.76
626.19	4882.36
626.34	4943.21
626.49	5015.77
626.65	4835.55
626.80	4727.88
626.95	4477.44
627.10	4641.28
627.25	4631.92
627.40	4308.93
627.55	4400.21
627.70	4339.35
627.85	4329.99
628.00	4283.18
628.15	4166.15
628.30	4461.06
628.45	4147.43
628.60	4241.05
628.76	4437.66
628.91	4325.31
629.06	4381.48
629.21	4332.33
629.36	4709.16
629.51	4596.81
629.66	4910.44
629.81	5167.90
629.96	5600.90
630.11	6221.14
630.26	6902.24
630.41	7655.89
630.56	8531.25
630.71	9123.41
630.86	9579.81
631.01	9235.75
631.16	9027.45
631.31	7768.24
631.46	6602.65
631.61	5518.98
631.76	4748.95
631.91	3950.82
632.06	3335.26
632.21	2951.42
632.36	2693.96
632.51	2211.81
632.66	2129.89
632.81	1975.41
632.96	1839.66
633.10	1692.21
633.25	1598.59
633.40	1596.25
633.55	1453.47
633.70	1514.33
633.85	1390.28
634.00	1345.81
634.15	1352.83
634.30	1275.59
634.45	1315.38
634.60	1226.44
634.75	1149.20
634.90	1102.39
635.05	1167.93
635.19	1188.99
635.34	1191.33
635.49	1118.78
635.64	1078.99
635.79	1114.10
635.94	1111.75
636.09	1118.78
636.24	1083.67
636.39	936.21
636.53	1041.54
636.68	1001.75
636.83	917.49
636.98	990.05
637.13	1008.77
637.28	980.68
637.43	1041.54
637.57	952.60
637.72	947.92
637.87	894.08
638.02	894.08
638.17	901.11
638.32	854.30
638.46	863.66
638.61	957.28
638.76	875.36
638.91	809.83
639.06	809.83
639.20	870.68
639.35	870.68
639.50	833.23
639.65	840.25
639.80	727.91
639.94	823.87
640.09	875.36
640.24	720.88
640.39	875.36
640.54	744.29
640.68	770.04
640.83	819.19
640.98	809.83
641.13	779.40
641.27	674.07
641.42	730.25
641.57	807.48
641.72	753.65
641.86	772.38
642.01	748.97
642.16	833.23
642.31	748.97
642.45	784.08
642.60	814.51
642.75	765.36
642.90	844.93
643.04	809.83
643.19	814.51
643.34	805.14
643.48	828.55
643.63	786.42
643.78	753.65
643.93	847.27
644.07	727.91
644.22	819.19
644.37	716.20
644.51	868.34
644.66	784.08
644.81	784.08
644.95	812.17
645.10	748.97
645.25	760.67
645.39	774.72
645.54	732.59
645.69	734.93
645.83	692.80
645.98	809.83
646.13	753.65
646.27	788.76
646.42	786.42
646.57	681.10
646.71	767.70
646.86	660.03
647.00	727.91
647.15	667.05
647.30	685.78
647.44	713.86
647.59	734.93
647.74	699.82
647.88	725.57
648.03	685.78
648.17	758.33
648.32	755.99
648.47	784.08
648.61	826.21
648.76	812.17
648.90	791.10
649.05	910.47
649.20	861.32
649.34	971.32
649.49	1090.69
649.63	1355.17
649.78	1416.02
649.92	1706.25
650.07	2197.76
650.21	2321.81
650.36	2633.10
650.51	2518.42
650.65	2572.25
650.80	2244.57
650.94	2022.22
651.09	1804.55
651.23	1685.19
651.38	1416.02
651.52	1301.34
651.67	1177.29
651.81	1186.65
651.96	1090.69
652.10	936.21
652.25	1048.56
652.39	1125.80
652.54	1165.59
652.68	1076.65
652.83	1228.78
652.97	1284.95
653.12	1329.42
653.26	1240.48
653.41	1273.25
653.55	1118.78
653.70	1034.52
653.84	999.41
653.99	891.74
654.13	798.12
654.27	856.64
654.42	833.23
654.56	779.40
654.71	837.91
654.85	709.18
655.00	730.25
655.14	734.93
655.29	713.86
655.43	660.03
655.57	809.83
655.72	610.88
655.86	685.78
656.01	690.46
656.15	599.18
656.30	739.61
656.44	695.14
656.58	636.63
656.73	758.33
656.87	767.70
657.01	744.29
657.16	875.36
657.30	805.14
657.45	821.53
657.59	828.55
657.73	840.25
657.88	898.77
658.02	945.58
658.16	800.46
658.31	767.70
658.45	748.97
658.60	638.97
658.74	676.41
658.88	706.84
659.03	587.47
659.17	594.50
659.31	620.24
659.46	550.03
659.60	535.98
659.74	503.22
659.89	550.03
660.03	512.58
660.17	500.87
660.32	519.60
660.46	512.58
660.60	496.19
660.74	498.53
660.89	596.84
661.03	519.60
661.17	596.84
661.32	760.67
661.46	730.25
661.60	847.27
661.74	978.34
661.89	1125.80
662.03	1324.74
662.17	1549.43
662.31	1526.03
662.46	1568.16
662.60	1460.49
662.74	1238.14
662.88	1149.20
663.03	1095.37
663.17	936.21
663.31	931.53
663.45	901.11
663.60	763.01
663.74	779.40
663.88	643.65
664.02	685.78
664.17	713.86
664.31	634.29
664.45	622.58
664.59	627.26
664.73	547.69
664.88	538.32
665.02	526.62
665.16	482.15
665.30	575.77
665.44	514.92
665.59	585.13
665.73	503.22
665.87	463.43
666.01	503.22
666.15	421.30
666.29	482.15
666.44	533.64
666.58	559.39
666.72	514.92
666.86	533.64
667.00	585.13
667.14	566.41
667.28	535.98
667.43	477.47
667.57	559.39
667.71	578.11
667.85	468.11
667.99	421.30
668.13	545.34
668.27	512.58
668.41	489.17
668.56	500.87
668.70	491.51
668.84	512.58
668.98	489.17
669.12	411.93
669.26	510.24
669.40	524.28
669.54	507.90
669.68	543.00
669.82	458.74
669.96	444.70
670.10	388.53
670.25	451.72
670.39	475.13
670.53	447.04
670.67	463.43
670.81	500.87
670.95	510.24
671.09	519.60
671.23	519.60
671.37	484.49
671.51	456.40
671.65	521.94
671.79	449.38
671.93	573.43
672.07	447.04
672.21	339.38
672.35	477.47
672.49	470.45
672.63	454.06
672.77	381.51
672.91	339.38
673.05	383.85
673.19	416.62
673.33	411.93
673.47	496.19
673.61	423.64
673.75	407.25
673.89	369.80
674.03	383.85
674.17	397.89
674.31	341.72
674.45	479.81
674.59	416.62
674.73	362.78
674.87	463.43
675.01	379.17
675.15	390.87
675.29	465.77
675.43	383.85
675.56	470.45
675.70	353.42
675.84	379.17
675.98	430.66
676.12	428.32
676.26	339.38
676.40	325.33
676.54	379.17
676.68	416.62
676.82	374.49
676.96	383.85
677.10	395.55
677.23	315.97
677.37	311.29
677.51	351.08
677.65	442.36
677.79	355.76
677.93	344.06
678.07	374.49
678.21	388.53
678.34	411.93
678.48	365.12
678.62	313.63
678.76	367.46
678.90	435.34
679.04	397.89
679.18	409.59
679.31	355.76
679.45	409.59
679.59	374.49
679.73	334.70
679.87	315.97
680.00	421.30
680.14	334.70
680.28	390.87
680.42	397.89
680.56	393.21
680.70	388.53
680.83	397.89
680.97	447.04
681.11	393.21
681.25	360.44
681.39	383.85
681.52	444.70
681.66	482.15
681.80	353.42
681.94	362.78
682.07	346.40
682.21	390.87
682.35	327.68
682.49	353.42
682.62	355.76
682.76	344.06
682.90	358.10
683.04	386.19
683.17	421.30
683.31	362.78
683.45	351.08
683.59	346.40
683.72	346.40
683.86	428.32
684.00	250.44
684.13	337.04
684.27	299.59
684.41	383.85
684.55	348.74
684.68	376.83
684.82	332.36
684.96	294.91
685.09	292.57
685.23	379.17
685.37	290.23
685.50	367.46
685.64	379.17
685.78	374.49
685.91	423.64
686.05	435.34
686.19	493.85
686.32	444.70
686.46	503.22
686.60	531.30
686.73	664.71
686.87	704.50
687.01	655.35
687.14	713.86
687.28	812.17
687.42	856.64
687.55	779.40
687.69	924.51
687.82	779.40
687.96	800.46
688.10	828.55
688.23	795.78
688.37	727.91
688.50	657.69
688.64	606.20
688.78	624.92
688.91	519.60
689.05	512.58
689.18	465.77
689.32	486.83
689.46	308.95
689.59	348.74
689.73	353.42
689.86	287.89
690.00	344.06
690.13	294.91
690.27	330.02
690.41	409.59
690.54	489.17
690.68	493.85
690.81	404.91
690.95	411.93
691.08	278.52
691.22	278.52
691.35	264.48
691.49	220.01
691.62	278.52
691.76	142.77
691.89	229.37
692.03	208.31
692.16	205.97
692.30	212.99
692.43	222.35
692.57	287.89
692.70	269.16
692.84	313.63
692.97	374.49
693.11	365.12
693.24	435.34
693.38	482.15
693.51	692.80
693.65	767.70
693.78	624.92
693.92	648.33
694.05	622.58
694.19	587.47
694.32	514.92
694.45	458.74
694.59	379.17
694.72	271.50
694.86	266.82
694.99	292.57
695.13	318.31
695.26	215.33
695.39	264.48
695.53	278.52
695.66	210.65
695.80	255.12
695.93	203.63
696.07	224.69
696.20	212.99
696.33	264.48
696.47	248.10
696.60	301.93
696.73	283.20
696.87	220.01
697.00	184.90
697.14	191.92
697.27	238.73
697.40	184.90
697.54	191.92
697.67	203.63
697.80	215.33
697.94	229.37
698.07	135.75
698.21	182.56
698.34	201.29
698.47	173.20
698.61	184.90
698.74	166.18
698.87	191.92
699.01	191.92
699.14	198.95
699.27	154.48
699.40	297.25
699.54	147.45
699.67	217.67
699.80	168.52
699.94	191.92
700.07	128.73
700.20	194.26
700.34	191.92
700.47	163.84
700.60	208.31
700.73	257.46
700.87	238.73
701.00	227.03
701.13	168.52
701.26	236.39
701.40	170.86
701.53	161.50
701.66	170.86
701.79	198.95
701.93	215.33
702.06	264.48
702.19	203.63
702.32	264.48
702.46	149.79
702.59	152.13
702.72	224.69
702.85	196.60
702.99	220.01
703.12	231.71
703.25	245.76
703.38	264.48
703.51	271.50
703.65	285.55
703.78	243.42
703.91	351.08
704.04	271.50
704.17	259.80
704.31	304.27
704.44	337.04
704.57	353.42
704.70	318.31
704.83	304.27
704.96	346.40
705.10	397.89
705.23	372.15
>>>>>End Processed Spectral Data<<<<<
