SpectraSuite Data File
++++++++++++++++++++++++++++++++++++
Date: Fri Oct 04 11:42:06 GMT-05:00 2013
User: price-jones
Dark Spectrum Present: No
Reference Spectrum Present: No
Number of Sampled Component Spectra: 1
Spectrometers: USB2+H05261
Integration Time (usec): 100000 (USB2+H05261)
Spectra Averaged: 1 (USB2+H05261)
Boxcar Smoothing: 0 (USB2+H05261)
Correct for Electrical Dark: No (USB2+H05261)
Strobe/Lamp Enabled: No (USB2+H05261)
Correct for Detector Non-linearity: No (USB2+H05261)
Correct for Stray Light: No (USB2+H05261)
Number of Pixels in Processed Spectrum: 2048
>>>>>Begin Processed Spectral Data<<<<<
365.73	46.81
365.92	46.81
366.12	46.81
366.32	0.00
366.52	0.00
366.72	0.00
366.91	0.00
367.11	0.00
367.31	0.00
367.51	0.00
367.70	0.00
367.90	0.00
368.10	0.00
368.30	0.00
368.49	0.00
368.69	0.00
368.89	0.00
369.09	16.38
369.28	0.00
369.48	18.72
369.68	46.81
369.87	0.00
370.07	0.00
370.27	0.00
370.47	67.88
370.66	11.70
370.86	30.43
371.06	63.19
371.25	70.22
371.45	105.32
371.65	84.26
371.84	16.38
372.04	23.41
372.24	117.03
372.44	63.19
372.63	156.82
372.83	145.11
373.03	114.69
373.22	119.37
373.42	138.09
373.62	60.85
373.81	161.50
374.01	140.43
374.21	156.82
374.40	39.79
374.60	114.69
374.79	126.39
374.99	114.69
375.19	156.82
375.38	126.39
375.58	128.73
375.78	133.41
375.97	152.13
376.17	205.97
376.37	107.66
376.56	170.86
376.76	95.96
376.95	135.75
377.15	175.54
377.35	124.05
377.54	142.77
377.74	86.60
377.93	4.68
378.13	145.11
378.33	79.58
378.52	67.88
378.72	140.43
378.91	156.82
379.11	126.39
379.31	105.32
379.50	112.35
379.70	149.79
379.89	182.56
380.09	91.28
380.28	44.47
380.48	102.98
380.68	65.54
380.87	63.19
381.07	95.96
381.26	86.60
381.46	95.96
381.65	112.35
381.85	67.88
382.04	98.30
382.24	163.84
382.43	126.39
382.63	86.60
382.83	88.94
383.02	170.86
383.22	107.66
383.41	84.26
383.61	110.01
383.80	133.41
384.00	159.16
384.19	107.66
384.39	107.66
384.58	42.13
384.78	145.11
384.97	79.58
385.17	140.43
385.36	114.69
385.56	102.98
385.75	77.24
385.95	86.60
386.14	138.09
386.34	42.13
386.53	126.39
386.72	91.28
386.92	168.52
387.11	114.69
387.31	93.62
387.50	53.83
387.70	149.79
387.89	212.99
388.09	124.05
388.28	112.35
388.48	110.01
388.67	84.26
388.86	140.43
389.06	117.03
389.25	121.71
389.45	117.03
389.64	166.18
389.84	149.79
390.03	70.22
390.22	196.60
390.42	117.03
390.61	91.28
390.81	72.56
391.00	142.77
391.19	131.07
391.39	84.26
391.58	39.79
391.78	77.24
391.97	95.96
392.16	182.56
392.36	93.62
392.55	147.45
392.75	37.45
392.94	58.51
393.13	173.20
393.33	21.06
393.52	77.24
393.71	152.13
393.91	107.66
394.10	140.43
394.29	37.45
394.49	110.01
394.68	110.01
394.88	135.75
395.07	102.98
395.26	100.64
395.46	112.35
395.65	152.13
395.84	100.64
396.04	142.77
396.23	88.94
396.42	35.11
396.62	63.19
396.81	53.83
397.00	81.92
397.19	147.45
397.39	98.30
397.58	124.05
397.77	95.96
397.97	56.17
398.16	102.98
398.35	70.22
398.55	117.03
398.74	93.62
398.93	121.71
399.12	119.37
399.32	147.45
399.51	131.07
399.70	147.45
399.90	152.13
400.09	84.26
400.28	142.77
400.47	86.60
400.67	107.66
400.86	145.11
401.05	88.94
401.24	112.35
401.44	74.90
401.63	98.30
401.82	149.79
402.01	161.50
402.21	145.11
402.40	138.09
402.59	112.35
402.78	112.35
402.97	98.30
403.17	205.97
403.36	93.62
403.55	124.05
403.74	105.32
403.93	184.90
404.13	234.05
404.32	273.84
404.51	285.55
404.70	252.78
404.89	100.64
405.09	121.71
405.28	117.03
405.47	110.01
405.66	156.82
405.85	152.13
406.05	147.45
406.24	93.62
406.43	133.41
406.62	203.63
406.81	187.24
407.00	175.54
407.20	173.20
407.39	131.07
407.58	241.08
407.77	145.11
407.96	224.69
408.15	180.22
408.34	145.11
408.54	112.35
408.73	124.05
408.92	168.52
409.11	217.67
409.30	224.69
409.49	147.45
409.68	95.96
409.87	84.26
410.07	110.01
410.26	135.75
410.45	74.90
410.64	138.09
410.83	212.99
411.02	58.51
411.21	142.77
411.40	163.84
411.59	138.09
411.78	100.64
411.98	170.86
412.17	126.39
412.36	88.94
412.55	198.95
412.74	119.37
412.93	222.35
413.12	112.35
413.31	159.16
413.50	126.39
413.69	156.82
413.88	163.84
414.07	133.41
414.26	170.86
414.45	107.66
414.64	147.45
414.83	156.82
415.02	182.56
415.22	170.86
415.41	231.71
415.60	149.79
415.79	142.77
415.98	187.24
416.17	124.05
416.36	170.86
416.55	182.56
416.74	147.45
416.93	201.29
417.12	182.56
417.31	196.60
417.50	189.58
417.69	198.95
417.88	201.29
418.07	147.45
418.26	149.79
418.45	152.13
418.64	156.82
418.83	215.33
419.02	177.88
419.21	142.77
419.39	131.07
419.58	156.82
419.77	170.86
419.96	128.73
420.15	156.82
420.34	173.20
420.53	191.92
420.72	208.31
420.91	140.43
421.10	133.41
421.29	196.60
421.48	152.13
421.67	168.52
421.86	156.82
422.05	145.11
422.24	156.82
422.43	227.03
422.61	86.60
422.80	126.39
422.99	121.71
423.18	234.05
423.37	241.08
423.56	121.71
423.75	173.20
423.94	133.41
424.13	222.35
424.32	98.30
424.50	161.50
424.69	194.26
424.88	180.22
425.07	149.79
425.26	198.95
425.45	170.86
425.64	175.54
425.83	198.95
426.01	210.65
426.20	117.03
426.39	236.39
426.58	154.48
426.77	119.37
426.96	152.13
427.15	138.09
427.33	175.54
427.52	163.84
427.71	238.73
427.90	238.73
428.09	124.05
428.28	107.66
428.46	124.05
428.65	140.43
428.84	152.13
429.03	124.05
429.22	182.56
429.40	135.75
429.59	147.45
429.78	227.03
429.97	177.88
430.16	135.75
430.34	152.13
430.53	152.13
430.72	187.24
430.91	142.77
431.10	154.48
431.28	189.58
431.47	236.39
431.66	138.09
431.85	166.18
432.03	142.77
432.22	194.26
432.41	236.39
432.60	166.18
432.79	149.79
432.97	166.18
433.16	142.77
433.35	170.86
433.54	91.28
433.72	180.22
433.91	170.86
434.10	84.26
434.28	196.60
434.47	147.45
434.66	203.63
434.85	194.26
435.03	301.93
435.22	540.66
435.41	823.87
435.59	947.92
435.78	725.57
435.97	456.40
436.16	325.33
436.34	222.35
436.53	220.01
436.72	168.52
436.90	227.03
437.09	224.69
437.28	215.33
437.46	241.08
437.65	100.64
437.84	166.18
438.02	203.63
438.21	231.71
438.40	173.20
438.58	149.79
438.77	198.95
438.96	173.20
439.14	196.60
439.33	180.22
439.52	189.58
439.70	224.69
439.89	173.20
440.08	191.92
440.26	201.29
440.45	248.10
440.63	266.82
440.82	154.48
441.01	140.43
441.19	159.16
441.38	126.39
441.57	121.71
441.75	231.71
441.94	189.58
442.12	114.69
442.31	180.22
442.50	201.29
442.68	107.66
442.87	208.31
443.05	159.16
443.24	173.20
443.43	234.05
443.61	271.50
443.80	220.01
443.98	133.41
444.17	152.13
444.35	229.37
444.54	159.16
444.73	184.90
444.91	220.01
445.10	191.92
445.28	128.73
445.47	231.71
445.65	173.20
445.84	154.48
446.02	238.73
446.21	170.86
446.39	196.60
446.58	191.92
446.77	159.16
446.95	217.67
447.14	175.54
447.32	283.20
447.51	138.09
447.69	229.37
447.88	205.97
448.06	292.57
448.25	170.86
448.43	124.05
448.62	189.58
448.80	182.56
448.99	147.45
449.17	194.26
449.36	168.52
449.54	194.26
449.73	86.60
449.91	241.08
450.10	234.05
450.28	217.67
450.46	252.78
450.65	166.18
450.83	154.48
451.02	180.22
451.20	198.95
451.39	198.95
451.57	145.11
451.76	194.26
451.94	187.24
452.13	227.03
452.31	156.82
452.49	175.54
452.68	168.52
452.86	205.97
453.05	271.50
453.23	163.84
453.42	161.50
453.60	212.99
453.78	245.76
453.97	149.79
454.15	215.33
454.34	224.69
454.52	189.58
454.70	262.14
454.89	201.29
455.07	198.95
455.26	203.63
455.44	198.95
455.62	170.86
455.81	212.99
455.99	189.58
456.17	205.97
456.36	182.56
456.54	252.78
456.73	245.76
456.91	173.20
457.09	161.50
457.28	301.93
457.46	184.90
457.64	222.35
457.83	241.08
458.01	170.86
458.19	177.88
458.38	215.33
458.56	166.18
458.74	135.75
458.93	241.08
459.11	227.03
459.29	243.42
459.48	198.95
459.66	182.56
459.84	196.60
460.03	243.42
460.21	269.16
460.39	173.20
460.57	313.63
460.76	227.03
460.94	198.95
461.12	276.18
461.31	245.76
461.49	229.37
461.67	152.13
461.85	222.35
462.04	180.22
462.22	697.48
462.40	175.54
462.59	189.58
462.77	168.52
462.95	182.56
463.13	170.86
463.32	208.31
463.50	187.24
463.68	180.22
463.86	191.92
464.05	212.99
464.23	269.16
464.41	245.76
464.59	187.24
464.78	259.80
464.96	241.08
465.14	203.63
465.32	140.43
465.50	252.78
465.69	264.48
465.87	131.07
466.05	248.10
466.23	215.33
466.41	191.92
466.60	236.39
466.78	156.82
466.96	280.86
467.14	231.71
467.32	231.71
467.51	252.78
467.69	227.03
467.87	229.37
468.05	212.99
468.23	234.05
468.41	255.12
468.60	152.13
468.78	250.44
468.96	280.86
469.14	180.22
469.32	189.58
469.50	257.46
469.69	191.92
469.87	119.37
470.05	194.26
470.23	112.35
470.41	180.22
470.59	205.97
470.77	201.29
470.95	215.33
471.14	175.54
471.32	198.95
471.50	210.65
471.68	220.01
471.86	222.35
472.04	180.22
472.22	182.56
472.40	170.86
472.58	269.16
472.77	166.18
472.95	180.22
473.13	301.93
473.31	255.12
473.49	191.92
473.67	140.43
473.85	212.99
474.03	203.63
474.21	222.35
474.39	257.46
474.57	198.95
474.75	262.14
474.93	245.76
475.12	159.16
475.30	191.92
475.48	187.24
475.66	255.12
475.84	280.86
476.02	180.22
476.20	297.25
476.38	175.54
476.56	278.52
476.74	182.56
476.92	196.60
477.10	205.97
477.28	198.95
477.46	184.90
477.64	163.84
477.82	271.50
478.00	198.95
478.18	205.97
478.36	271.50
478.54	234.05
478.72	187.24
478.90	241.08
479.08	234.05
479.26	259.80
479.44	271.50
479.62	266.82
479.80	210.65
479.98	276.18
480.16	248.10
480.34	311.29
480.52	210.65
480.70	297.25
480.88	212.99
481.06	217.67
481.24	201.29
481.41	198.95
481.59	236.39
481.77	208.31
481.95	290.23
482.13	264.48
482.31	322.99
482.49	259.80
482.67	271.50
482.85	348.74
483.03	285.55
483.21	271.50
483.39	290.23
483.57	208.31
483.74	325.33
483.92	313.63
484.10	234.05
484.28	212.99
484.46	440.02
484.64	276.18
484.82	280.86
485.00	297.25
485.18	297.25
485.35	318.31
485.53	283.20
485.71	341.72
485.89	327.68
486.07	304.27
486.25	367.46
486.43	334.70
486.61	278.52
486.78	346.40
486.96	304.27
487.14	315.97
487.32	346.40
487.50	280.86
487.68	393.21
487.85	318.31
488.03	404.91
488.21	365.12
488.39	311.29
488.57	379.17
488.75	257.46
488.92	587.47
489.10	379.17
489.28	315.97
489.46	341.72
489.64	397.89
489.81	315.97
489.99	322.99
490.17	362.78
490.35	402.57
490.53	358.10
490.70	287.89
490.88	362.78
491.06	397.89
491.24	292.57
491.41	454.06
491.59	332.36
491.77	344.06
491.95	339.38
492.13	388.53
492.30	346.40
492.48	353.42
492.66	308.95
492.84	285.55
493.01	362.78
493.19	276.18
493.37	409.59
493.54	416.62
493.72	318.31
493.90	330.02
494.08	315.97
494.25	372.15
494.43	348.74
494.61	390.87
494.79	369.80
494.96	311.29
495.14	353.42
495.32	266.82
495.49	346.40
495.67	341.72
495.85	348.74
496.02	346.40
496.20	292.57
496.38	337.04
496.55	365.12
496.73	327.68
496.91	337.04
497.09	416.62
497.26	306.61
497.44	369.80
497.62	297.25
497.79	330.02
497.97	346.40
498.14	348.74
498.32	353.42
498.50	297.25
498.67	299.59
498.85	416.62
499.03	299.59
499.20	339.38
499.38	353.42
499.56	360.44
499.73	383.85
499.91	358.10
500.08	367.46
500.26	388.53
500.44	315.97
500.61	287.89
500.79	276.18
500.97	257.46
501.14	325.33
501.32	409.59
501.49	245.76
501.67	245.76
501.84	327.68
502.02	315.97
502.20	383.85
502.37	278.52
502.55	339.38
502.72	393.21
502.90	283.20
503.07	353.42
503.25	292.57
503.43	297.25
503.60	269.16
503.78	348.74
503.95	294.91
504.13	341.72
504.30	220.01
504.48	383.85
504.65	388.53
504.83	304.27
505.01	346.40
505.18	273.84
505.36	315.97
505.53	257.46
505.71	313.63
505.88	374.49
506.06	285.55
506.23	315.97
506.41	388.53
506.58	421.30
506.76	358.10
506.93	290.23
507.11	374.49
507.28	299.59
507.46	365.12
507.63	330.02
507.81	313.63
507.98	353.42
508.16	276.18
508.33	318.31
508.50	306.61
508.68	348.74
508.85	248.10
509.03	285.55
509.20	280.86
509.38	332.36
509.55	376.83
509.73	435.34
509.90	358.10
510.08	381.51
510.25	369.80
510.42	348.74
510.60	287.89
510.77	330.02
510.95	276.18
511.12	341.72
511.30	360.44
511.47	297.25
511.64	379.17
511.82	344.06
511.99	325.33
512.17	337.04
512.34	285.55
512.51	365.12
512.69	428.32
512.86	416.62
513.04	381.51
513.21	390.87
513.38	407.25
513.56	334.70
513.73	313.63
513.90	388.53
514.08	325.33
514.25	315.97
514.43	278.52
514.60	386.19
514.77	330.02
514.95	367.46
515.12	299.59
515.29	372.15
515.47	381.51
515.64	409.59
515.81	313.63
515.99	454.06
516.16	397.89
516.33	362.78
516.51	304.27
516.68	334.70
516.85	383.85
517.03	327.68
517.20	273.84
517.37	355.76
517.54	416.62
517.72	360.44
517.89	294.91
518.06	360.44
518.24	383.85
518.41	337.04
518.58	386.19
518.75	297.25
518.93	334.70
519.10	320.65
519.27	386.19
519.45	372.15
519.62	451.72
519.79	402.57
519.96	407.25
520.14	351.08
520.31	332.36
520.48	355.76
520.65	355.76
520.83	322.99
521.00	383.85
521.17	346.40
521.34	358.10
521.52	456.40
521.69	374.49
521.86	411.93
522.03	330.02
522.20	407.25
522.38	390.87
522.55	353.42
522.72	337.04
522.89	376.83
523.07	400.23
523.24	337.04
523.41	346.40
523.58	292.57
523.75	435.34
523.92	322.99
524.10	416.62
524.27	411.93
524.44	313.63
524.61	458.74
524.78	465.77
524.96	388.53
525.13	440.02
525.30	423.64
525.47	390.87
525.64	379.17
525.81	395.55
525.98	433.00
526.16	388.53
526.33	360.44
526.50	344.06
526.67	285.55
526.84	297.25
527.01	442.36
527.18	353.42
527.36	397.89
527.53	337.04
527.70	414.27
527.87	428.32
528.04	362.78
528.21	386.19
528.38	454.06
528.55	456.40
528.72	386.19
528.89	482.15
529.07	486.83
529.24	344.06
529.41	407.25
529.58	397.89
529.75	440.02
529.92	456.40
530.09	411.93
530.26	472.79
530.43	423.64
530.60	383.85
530.77	397.89
530.94	500.87
531.11	437.68
531.28	351.08
531.46	409.59
531.63	477.47
531.80	461.09
531.97	496.19
532.14	454.06
532.31	437.68
532.48	351.08
532.65	400.23
532.82	449.38
532.99	421.30
533.16	437.68
533.33	440.02
533.50	430.66
533.67	451.72
533.84	444.70
534.01	397.89
534.18	369.80
534.35	470.45
534.52	475.13
534.69	416.62
534.86	440.02
535.03	461.09
535.20	496.19
535.37	521.94
535.54	425.98
535.71	451.72
535.88	447.04
536.05	456.40
536.22	526.62
536.38	475.13
536.55	463.43
536.72	500.87
536.89	507.90
537.06	468.11
537.23	526.62
537.40	528.96
537.57	538.32
537.74	578.11
537.91	620.24
538.08	533.64
538.25	585.13
538.42	671.73
538.59	589.82
538.75	564.07
538.92	617.90
539.09	662.37
539.26	599.18
539.43	699.82
539.60	723.23
539.77	781.74
539.94	791.10
540.11	809.83
540.28	896.43
540.44	950.26
540.61	973.66
540.78	964.30
540.95	1207.72
541.12	1320.06
541.29	1486.24
541.46	1516.67
541.62	1439.43
541.79	1598.59
541.96	1401.98
542.13	1497.94
542.30	1495.60
542.47	1486.24
542.63	1479.22
542.80	1308.36
542.97	1455.81
543.14	1352.83
543.31	1390.28
543.48	1488.58
543.64	1439.43
543.81	1423.05
543.98	1441.77
544.15	1327.08
544.32	1315.38
544.48	1315.38
544.65	1249.85
544.82	1273.25
544.99	1238.14
545.16	1350.49
545.32	1294.32
545.49	1947.33
545.66	2813.32
545.83	3442.93
546.00	3049.72
546.16	2125.21
546.33	1626.67
546.50	1242.82
546.67	1205.38
546.83	1055.58
547.00	1018.13
547.17	1015.79
547.34	1001.75
547.50	903.45
547.67	889.40
547.84	875.36
548.00	870.68
548.17	788.76
548.34	774.72
548.51	812.17
548.67	870.68
548.84	887.06
549.01	840.25
549.18	744.29
549.34	833.23
549.51	751.31
549.68	706.84
549.84	755.99
550.01	655.35
550.18	767.70
550.34	664.71
550.51	730.25
550.68	692.80
550.84	650.67
551.01	606.20
551.18	636.63
551.34	660.03
551.51	599.18
551.68	592.16
551.84	585.13
552.01	669.39
552.18	638.97
552.34	622.58
552.51	613.22
552.68	547.69
552.84	528.96
553.01	538.32
553.18	578.11
553.34	547.69
553.51	451.72
553.67	517.26
553.84	564.07
554.01	503.22
554.17	444.70
554.34	411.93
554.51	510.24
554.67	451.72
554.84	463.43
555.00	484.49
555.17	421.30
555.33	463.43
555.50	514.92
555.67	498.53
555.83	397.89
556.00	409.59
556.16	592.16
556.33	423.64
556.50	451.72
556.66	393.21
556.83	400.23
556.99	449.38
557.16	423.64
557.32	362.78
557.49	402.57
557.65	404.91
557.82	400.23
557.98	355.76
558.15	393.21
558.32	390.87
558.48	407.25
558.65	423.64
558.81	454.06
558.98	367.46
559.14	402.57
559.31	489.17
559.47	341.72
559.64	266.82
559.80	325.33
559.97	437.68
560.13	334.70
560.30	367.46
560.46	367.46
560.63	388.53
560.79	407.25
560.96	440.02
561.12	379.17
561.29	440.02
561.45	409.59
561.61	390.87
561.78	451.72
561.94	362.78
562.11	372.15
562.27	468.11
562.44	360.44
562.60	454.06
562.77	402.57
562.93	409.59
563.10	311.29
563.26	407.25
563.42	409.59
563.59	334.70
563.75	376.83
563.92	372.15
564.08	339.38
564.24	372.15
564.41	428.32
564.57	418.96
564.74	322.99
564.90	388.53
565.07	402.57
565.23	409.59
565.39	381.51
565.56	414.27
565.72	315.97
565.88	299.59
566.05	301.93
566.21	390.87
566.38	372.15
566.54	390.87
566.70	411.93
566.87	369.80
567.03	334.70
567.19	374.49
567.36	369.80
567.52	383.85
567.68	451.72
567.85	355.76
568.01	409.59
568.17	262.14
568.34	313.63
568.50	344.06
568.66	360.44
568.83	465.77
568.99	383.85
569.15	341.72
569.32	390.87
569.48	362.78
569.64	369.80
569.81	367.46
569.97	360.44
570.13	388.53
570.30	372.15
570.46	416.62
570.62	290.23
570.78	402.57
570.95	332.36
571.11	418.96
571.27	362.78
571.43	339.38
571.60	395.55
571.76	374.49
571.92	346.40
572.09	358.10
572.25	330.02
572.41	322.99
572.57	383.85
572.74	365.12
572.90	390.87
573.06	388.53
573.22	397.89
573.38	433.00
573.55	346.40
573.71	374.49
573.87	322.99
574.03	397.89
574.20	355.76
574.36	423.64
574.52	423.64
574.68	353.42
574.84	346.40
575.01	376.83
575.17	388.53
575.33	454.06
575.49	433.00
575.65	451.72
575.82	381.51
575.98	505.56
576.14	383.85
576.30	451.72
576.46	664.71
576.62	877.70
576.79	1004.09
576.95	809.83
577.11	608.54
577.27	510.24
577.43	472.79
577.59	512.58
577.75	461.09
577.92	400.23
578.08	416.62
578.24	430.66
578.40	545.34
578.56	587.47
578.72	842.59
578.88	994.73
579.04	819.19
579.21	620.24
579.37	496.19
579.53	528.96
579.69	507.90
579.85	571.09
580.01	594.50
580.17	596.84
580.33	634.29
580.49	519.60
580.65	589.82
580.82	517.26
580.98	444.70
581.14	484.49
581.30	622.58
581.46	578.11
581.62	592.16
581.78	587.47
581.94	526.62
582.10	550.03
582.26	564.07
582.42	620.24
582.58	624.92
582.74	690.46
582.90	690.46
583.06	669.39
583.22	678.76
583.38	676.41
583.54	671.73
583.70	636.63
583.86	573.43
584.02	638.97
584.18	575.77
584.34	608.54
584.50	596.84
584.66	622.58
584.82	622.58
584.98	631.94
585.14	596.84
585.30	608.54
585.46	603.86
585.62	629.60
585.78	601.52
585.94	554.71
586.10	589.82
586.26	674.07
586.42	599.18
586.58	683.44
586.74	795.78
586.90	828.55
587.06	901.11
587.22	770.04
587.38	788.76
587.54	748.97
587.70	748.97
587.86	627.26
588.02	627.26
588.18	587.47
588.34	557.05
588.49	500.87
588.65	458.74
588.81	447.04
588.97	484.49
589.13	393.21
589.29	498.53
589.45	561.73
589.61	447.04
589.77	505.56
589.93	475.13
590.08	449.38
590.24	477.47
590.40	535.98
590.56	505.56
590.72	472.79
590.88	575.77
591.04	442.36
591.20	566.41
591.35	571.09
591.51	496.19
591.67	535.98
591.83	568.75
591.99	610.88
592.15	624.92
592.31	613.22
592.46	608.54
592.62	634.29
592.78	664.71
592.94	608.54
593.10	657.69
593.26	681.10
593.41	681.10
593.57	559.39
593.73	552.37
593.89	557.05
594.05	407.25
594.20	414.27
594.36	447.04
594.52	435.34
594.68	425.98
594.84	447.04
594.99	470.45
595.15	491.51
595.31	421.30
595.47	491.51
595.62	390.87
595.78	456.40
595.94	482.15
596.10	496.19
596.25	458.74
596.41	407.25
596.57	416.62
596.73	414.27
596.88	456.40
597.04	407.25
597.20	355.76
597.36	491.51
597.51	526.62
597.67	458.74
597.83	388.53
597.99	526.62
598.14	442.36
598.30	475.13
598.46	540.66
598.61	496.19
598.77	524.28
598.93	458.74
599.09	514.92
599.24	601.52
599.40	524.28
599.56	550.03
599.71	533.64
599.87	521.94
600.03	503.22
600.18	510.24
600.34	528.96
600.50	458.74
600.65	440.02
600.81	465.77
600.97	433.00
601.12	386.19
601.28	498.53
601.44	458.74
601.59	503.22
601.75	383.85
601.91	381.51
602.06	475.13
602.22	510.24
602.37	404.91
602.53	421.30
602.69	486.83
602.84	444.70
603.00	519.60
603.16	444.70
603.31	388.53
603.47	414.27
603.62	428.32
603.78	433.00
603.94	468.11
604.09	381.51
604.25	510.24
604.40	486.83
604.56	458.74
604.71	444.70
604.87	425.98
605.03	479.81
605.18	489.17
605.34	498.53
605.49	449.38
605.65	416.62
605.80	447.04
605.96	465.77
606.12	482.15
606.27	535.98
606.43	451.72
606.58	535.98
606.74	505.56
606.89	538.32
607.05	479.81
607.20	472.79
607.36	615.56
607.51	533.64
607.67	524.28
607.82	535.98
607.98	643.65
608.13	561.73
608.29	606.20
608.44	615.56
608.60	720.88
608.75	641.31
608.91	744.29
609.06	809.83
609.22	807.48
609.37	781.74
609.53	819.19
609.68	992.39
609.84	1011.11
609.99	1160.91
610.15	1299.00
610.30	1465.18
610.46	1774.13
610.61	2298.41
610.76	2787.58
610.92	3309.52
611.07	3597.40
611.23	3791.67
611.38	3534.21
611.54	3002.91
611.69	2738.43
611.84	2326.49
612.00	2008.18
612.15	1743.70
612.31	1556.46
612.46	1434.75
612.62	1348.15
612.77	1366.87
612.92	1221.76
613.08	1266.23
613.23	1252.19
613.39	1160.91
613.54	1109.41
613.69	1022.81
613.85	1055.58
614.00	1144.52
614.15	1036.86
614.31	1034.52
614.46	1076.65
614.62	1034.52
614.77	1076.65
614.92	964.30
615.08	917.49
615.23	784.08
615.38	842.59
615.54	814.51
615.69	835.57
615.84	695.14
616.00	615.56
616.15	641.31
616.30	685.78
616.46	566.41
616.61	596.84
616.76	550.03
616.92	629.60
617.07	547.69
617.22	503.22
617.37	561.73
617.53	552.37
617.68	519.60
617.83	507.90
617.99	566.41
618.14	564.07
618.29	547.69
618.45	526.62
618.60	514.92
618.75	521.94
618.90	484.49
619.06	543.00
619.21	587.47
619.36	505.56
619.51	465.77
619.67	468.11
619.82	582.79
619.97	517.26
620.12	547.69
620.28	557.05
620.43	521.94
620.58	603.86
620.73	615.56
620.89	547.69
621.04	540.66
621.19	547.69
621.34	561.73
621.49	440.02
621.65	500.87
621.80	402.57
621.95	538.32
622.10	503.22
622.25	477.47
622.41	423.64
622.56	512.58
622.71	500.87
622.86	521.94
623.01	528.96
623.16	543.00
623.32	491.51
623.47	535.98
623.62	482.15
623.77	564.07
623.92	496.19
624.07	526.62
624.23	491.51
624.38	458.74
624.53	447.04
624.68	564.07
624.83	477.47
624.98	500.87
625.13	444.70
625.29	514.92
625.44	465.77
625.59	505.56
625.74	435.34
625.89	519.60
626.04	414.27
626.19	496.19
626.34	428.32
626.49	554.71
626.65	461.09
626.80	379.17
626.95	477.47
627.10	524.28
627.25	461.09
627.40	472.79
627.55	458.74
627.70	437.68
627.85	454.06
628.00	428.32
628.15	440.02
628.30	418.96
628.45	461.09
628.60	421.30
628.76	409.59
628.91	425.98
629.06	493.85
629.21	404.91
629.36	447.04
629.51	437.68
629.66	451.72
629.81	451.72
629.96	545.34
630.11	517.26
630.26	531.30
630.41	606.20
630.56	533.64
630.71	617.90
630.86	645.99
631.01	636.63
631.16	615.56
631.31	550.03
631.46	533.64
631.61	573.43
631.76	482.15
631.91	461.09
632.06	365.12
632.21	451.72
632.36	388.53
632.51	306.61
632.66	372.15
632.81	318.31
632.96	386.19
633.10	311.29
633.25	395.55
633.40	315.97
633.55	308.95
633.70	367.46
633.85	353.42
634.00	318.31
634.15	344.06
634.30	304.27
634.45	318.31
634.60	423.64
634.75	266.82
634.90	301.93
635.05	255.12
635.19	297.25
635.34	259.80
635.49	348.74
635.64	369.80
635.79	320.65
635.94	318.31
636.09	351.08
636.24	353.42
636.39	353.42
636.53	290.23
636.68	252.78
636.83	374.49
636.98	292.57
637.13	341.72
637.28	376.83
637.43	383.85
637.57	374.49
637.72	337.04
637.87	348.74
638.02	278.52
638.17	341.72
638.32	308.95
638.46	393.21
638.61	388.53
638.76	271.50
638.91	273.84
639.06	231.71
639.20	362.78
639.35	318.31
639.50	234.05
639.65	315.97
639.80	276.18
639.94	386.19
640.09	341.72
640.24	308.95
640.39	339.38
640.54	330.02
640.68	374.49
640.83	276.18
640.98	301.93
641.13	248.10
641.27	297.25
641.42	414.27
641.57	297.25
641.72	365.12
641.86	311.29
642.01	308.95
642.16	301.93
642.31	280.86
642.45	320.65
642.60	393.21
642.75	266.82
642.90	327.68
643.04	287.89
643.19	217.67
643.34	273.84
643.48	334.70
643.63	379.17
643.78	325.33
643.93	390.87
644.07	358.10
644.22	264.48
644.37	262.14
644.51	337.04
644.66	327.68
644.81	278.52
644.95	346.40
645.10	290.23
645.25	215.33
645.39	308.95
645.54	269.16
645.69	276.18
645.83	259.80
645.98	222.35
646.13	255.12
646.27	311.29
646.42	280.86
646.57	215.33
646.71	358.10
646.86	269.16
647.00	334.70
647.15	311.29
647.30	224.69
647.44	262.14
647.59	283.20
647.74	330.02
647.88	287.89
648.03	252.78
648.17	327.68
648.32	266.82
648.47	313.63
648.61	266.82
648.76	334.70
648.90	212.99
649.05	264.48
649.20	245.76
649.34	311.29
649.49	320.65
649.63	271.50
649.78	280.86
649.92	339.38
650.07	376.83
650.21	386.19
650.36	348.74
650.51	341.72
650.65	369.80
650.80	285.55
650.94	276.18
651.09	276.18
651.23	280.86
651.38	297.25
651.52	245.76
651.67	280.86
651.81	301.93
651.96	330.02
652.10	339.38
652.25	255.12
652.39	297.25
652.54	306.61
652.68	283.20
652.83	264.48
652.97	280.86
653.12	348.74
653.26	297.25
653.41	238.73
653.55	358.10
653.70	292.57
653.84	327.68
653.99	278.52
654.13	306.61
654.27	285.55
654.42	287.89
654.56	266.82
654.71	255.12
654.85	250.44
655.00	271.50
655.14	301.93
655.29	299.59
655.43	266.82
655.57	241.08
655.72	217.67
655.86	252.78
656.01	248.10
656.15	294.91
656.30	259.80
656.44	257.46
656.58	250.44
656.73	273.84
656.87	241.08
657.01	273.84
657.16	346.40
657.30	299.59
657.45	287.89
657.59	351.08
657.73	266.82
657.88	196.60
658.02	334.70
658.16	322.99
658.31	231.71
658.45	273.84
658.60	220.01
658.74	259.80
658.88	229.37
659.03	236.39
659.17	208.31
659.31	262.14
659.46	224.69
659.60	220.01
659.74	224.69
659.89	222.35
660.03	224.69
660.17	278.52
660.32	241.08
660.46	198.95
660.60	177.88
660.74	330.02
660.89	259.80
661.03	283.20
661.17	205.97
661.32	241.08
661.46	248.10
661.60	259.80
661.74	184.90
661.89	318.31
662.03	322.99
662.17	283.20
662.31	351.08
662.46	320.65
662.60	360.44
662.74	278.52
662.88	292.57
663.03	229.37
663.17	255.12
663.31	318.31
663.45	248.10
663.60	243.42
663.74	285.55
663.88	220.01
664.02	217.67
664.17	273.84
664.31	271.50
664.45	276.18
664.59	266.82
664.73	227.03
664.88	241.08
665.02	180.22
665.16	301.93
665.30	259.80
665.44	215.33
665.59	308.95
665.73	201.29
665.87	334.70
666.01	208.31
666.15	262.14
666.29	241.08
666.44	236.39
666.58	245.76
666.72	287.89
666.86	278.52
667.00	313.63
667.14	238.73
667.28	264.48
667.43	264.48
667.57	248.10
667.71	262.14
667.85	215.33
667.99	243.42
668.13	177.88
668.27	348.74
668.41	266.82
668.56	311.29
668.70	238.73
668.84	215.33
668.98	322.99
669.12	245.76
669.26	234.05
669.40	243.42
669.54	292.57
669.68	255.12
669.82	238.73
669.96	236.39
670.10	217.67
670.25	196.60
670.39	315.97
670.53	255.12
670.67	177.88
670.81	147.45
670.95	234.05
671.09	208.31
671.23	257.46
671.37	243.42
671.51	259.80
671.65	201.29
671.79	290.23
671.93	245.76
672.07	327.68
672.21	262.14
672.35	208.31
672.49	273.84
672.63	262.14
672.77	250.44
672.91	334.70
673.05	187.24
673.19	224.69
673.33	156.82
673.47	315.97
673.61	238.73
673.75	189.58
673.89	227.03
674.03	313.63
674.17	241.08
674.31	266.82
674.45	278.52
674.59	220.01
674.73	212.99
674.87	229.37
675.01	238.73
675.15	210.65
675.29	320.65
675.43	234.05
675.56	292.57
675.70	320.65
675.84	248.10
675.98	231.71
676.12	229.37
676.26	217.67
676.40	217.67
676.54	91.28
676.68	266.82
676.82	290.23
676.96	215.33
677.10	217.67
677.23	212.99
677.37	149.79
677.51	191.92
677.65	320.65
677.79	198.95
677.93	187.24
678.07	173.20
678.21	248.10
678.34	149.79
678.48	205.97
678.62	252.78
678.76	191.92
678.90	222.35
679.04	238.73
679.18	220.01
679.31	217.67
679.45	273.84
679.59	215.33
679.73	269.16
679.87	149.79
680.00	220.01
680.14	184.90
680.28	243.42
680.42	170.86
680.56	320.65
680.70	215.33
680.83	252.78
680.97	166.18
681.11	187.24
681.25	290.23
681.39	257.46
681.52	208.31
681.66	168.52
681.80	156.82
681.94	145.11
682.07	145.11
682.21	205.97
682.35	145.11
682.49	243.42
682.62	299.59
682.76	201.29
682.90	231.71
683.04	168.52
683.17	180.22
683.31	203.63
683.45	210.65
683.59	248.10
683.72	330.02
683.86	161.50
684.00	175.54
684.13	161.50
684.27	184.90
684.41	220.01
684.55	224.69
684.68	159.16
684.82	184.90
684.96	257.46
685.09	126.39
685.23	163.84
685.37	173.20
685.50	236.39
685.64	306.61
685.78	168.52
685.91	110.01
686.05	236.39
686.19	187.24
686.32	100.64
686.46	161.50
686.60	184.90
686.73	245.76
686.87	278.52
687.01	189.58
687.14	112.35
687.28	198.95
687.42	168.52
687.55	257.46
687.69	217.67
687.82	159.16
687.96	220.01
688.10	152.13
688.23	285.55
688.37	201.29
688.50	248.10
688.64	208.31
688.78	152.13
688.91	212.99
689.05	152.13
689.18	161.50
689.32	175.54
689.46	152.13
689.59	138.09
689.73	231.71
689.86	138.09
690.00	196.60
690.13	152.13
690.27	168.52
690.41	203.63
690.54	173.20
690.68	102.98
690.81	100.64
690.95	203.63
691.08	173.20
691.22	194.26
691.35	189.58
691.49	156.82
691.62	189.58
691.76	173.20
691.89	217.67
692.03	182.56
692.16	124.05
692.30	220.01
692.43	170.86
692.57	154.48
692.70	196.60
692.84	208.31
692.97	210.65
693.11	117.03
693.24	154.48
693.38	152.13
693.51	119.37
693.65	184.90
693.78	187.24
693.92	177.88
694.05	210.65
694.19	231.71
694.32	166.18
694.45	182.56
694.59	133.41
694.72	182.56
694.86	126.39
694.99	208.31
695.13	133.41
695.26	234.05
695.39	147.45
695.53	217.67
695.66	205.97
695.80	191.92
695.93	128.73
696.07	234.05
696.20	147.45
696.33	93.62
696.47	163.84
696.60	170.86
696.73	156.82
696.87	117.03
697.00	177.88
697.14	166.18
697.27	168.52
697.40	257.46
697.54	133.41
697.67	168.52
697.80	163.84
697.94	170.86
698.07	142.77
698.21	180.22
698.34	196.60
698.47	95.96
698.61	32.77
698.74	205.97
698.87	161.50
699.01	117.03
699.14	98.30
699.27	173.20
699.40	224.69
699.54	173.20
699.67	163.84
699.80	102.98
699.94	46.81
700.07	77.24
700.20	131.07
700.34	245.76
700.47	119.37
700.60	138.09
700.73	159.16
700.87	203.63
701.00	65.54
701.13	135.75
701.26	215.33
701.40	147.45
701.53	182.56
701.66	156.82
701.79	138.09
701.93	156.82
702.06	154.48
702.19	117.03
702.32	224.69
702.46	70.22
702.59	67.88
702.72	133.41
702.85	149.79
702.99	98.30
703.12	128.73
703.25	133.41
703.38	81.92
703.51	170.86
703.65	63.19
703.78	205.97
703.91	128.73
704.04	86.60
704.17	112.35
704.31	107.66
704.44	112.35
704.57	201.29
704.70	159.16
704.83	149.79
704.96	142.77
705.10	173.20
705.23	124.05
>>>>>End Processed Spectral Data<<<<<
