SpectraSuite Data File
++++++++++++++++++++++++++++++++++++
Date: Fri Oct 04 11:41:56 GMT-05:00 2013
User: price-jones
Dark Spectrum Present: No
Reference Spectrum Present: No
Number of Sampled Component Spectra: 1
Spectrometers: USB2+H05261
Integration Time (usec): 100000 (USB2+H05261)
Spectra Averaged: 1 (USB2+H05261)
Boxcar Smoothing: 0 (USB2+H05261)
Correct for Electrical Dark: No (USB2+H05261)
Strobe/Lamp Enabled: No (USB2+H05261)
Correct for Detector Non-linearity: No (USB2+H05261)
Correct for Stray Light: No (USB2+H05261)
Number of Pixels in Processed Spectrum: 2048
>>>>>Begin Processed Spectral Data<<<<<
365.73	84.26
365.92	84.26
366.12	84.26
366.32	0.00
366.52	0.00
366.72	0.00
366.91	0.00
367.11	0.00
367.31	0.00
367.51	0.00
367.70	0.00
367.90	0.00
368.10	0.00
368.30	0.00
368.49	0.00
368.69	0.00
368.89	0.00
369.09	0.00
369.28	0.00
369.48	0.00
369.68	0.00
369.87	4.68
370.07	0.00
370.27	0.00
370.47	37.45
370.66	25.75
370.86	107.66
371.06	140.43
371.25	88.94
371.45	56.17
371.65	110.01
371.84	60.85
372.04	42.13
372.24	117.03
372.44	53.83
372.63	74.90
372.83	241.08
373.03	140.43
373.22	145.11
373.42	131.07
373.62	100.64
373.81	215.33
374.01	72.56
374.21	152.13
374.40	86.60
374.60	135.75
374.79	182.56
374.99	124.05
375.19	114.69
375.38	102.98
375.58	175.54
375.78	128.73
375.97	95.96
376.17	166.18
376.37	177.88
376.56	142.77
376.76	86.60
376.95	128.73
377.15	140.43
377.35	182.56
377.54	138.09
377.74	128.73
377.93	110.01
378.13	145.11
378.33	117.03
378.52	133.41
378.72	147.45
378.91	217.67
379.11	131.07
379.31	177.88
379.50	142.77
379.70	238.73
379.89	154.48
380.09	229.37
380.28	133.41
380.48	131.07
380.68	131.07
380.87	81.92
381.07	74.90
381.26	159.16
381.46	131.07
381.65	142.77
381.85	149.79
382.04	166.18
382.24	114.69
382.43	166.18
382.63	121.71
382.83	128.73
383.02	98.30
383.22	217.67
383.41	112.35
383.61	191.92
383.80	79.58
384.00	203.63
384.19	95.96
384.39	93.62
384.58	170.86
384.78	133.41
384.97	154.48
385.17	112.35
385.36	131.07
385.56	175.54
385.75	84.26
385.95	220.01
386.14	154.48
386.34	84.26
386.53	51.49
386.72	93.62
386.92	74.90
387.11	119.37
387.31	119.37
387.50	121.71
387.70	100.64
387.89	117.03
388.09	166.18
388.28	149.79
388.48	88.94
388.67	152.13
388.86	114.69
389.06	126.39
389.25	201.29
389.45	131.07
389.64	131.07
389.84	161.50
390.03	102.98
390.22	220.01
390.42	156.82
390.61	152.13
390.81	9.36
391.00	74.90
391.19	175.54
391.39	224.69
391.58	154.48
391.78	121.71
391.97	114.69
392.16	107.66
392.36	138.09
392.55	168.52
392.75	93.62
392.94	70.22
393.13	135.75
393.33	124.05
393.52	135.75
393.71	95.96
393.91	117.03
394.10	152.13
394.29	128.73
394.49	49.15
394.68	142.77
394.88	187.24
395.07	117.03
395.26	140.43
395.46	208.31
395.65	93.62
395.84	121.71
396.04	217.67
396.23	191.92
396.42	105.32
396.62	154.48
396.81	238.73
397.00	95.96
397.19	159.16
397.39	105.32
397.58	84.26
397.77	166.18
397.97	191.92
398.16	119.37
398.35	201.29
398.55	147.45
398.74	142.77
398.93	135.75
399.12	159.16
399.32	152.13
399.51	243.42
399.70	220.01
399.90	180.22
400.09	191.92
400.28	236.39
400.47	105.32
400.67	177.88
400.86	161.50
401.05	248.10
401.24	175.54
401.44	203.63
401.63	175.54
401.82	189.58
402.01	189.58
402.21	227.03
402.40	191.92
402.59	250.44
402.78	152.13
402.97	299.59
403.17	262.14
403.36	299.59
403.55	365.12
403.74	641.31
403.93	2209.47
404.13	5820.91
404.32	9926.21
404.51	10876.47
404.70	7110.55
404.89	2520.76
405.09	664.71
405.28	407.25
405.47	276.18
405.66	222.35
405.85	325.33
406.05	180.22
406.24	163.84
406.43	229.37
406.62	241.08
406.81	358.10
407.00	447.04
407.20	683.44
407.39	1196.01
407.58	1537.73
407.77	1235.80
407.96	617.90
408.15	294.91
408.34	231.71
408.54	191.92
408.73	245.76
408.92	145.11
409.11	231.71
409.30	220.01
409.49	205.97
409.68	227.03
409.87	205.97
410.07	196.60
410.26	187.24
410.45	271.50
410.64	173.20
410.83	325.33
411.02	292.57
411.21	259.80
411.40	191.92
411.59	304.27
411.78	229.37
411.98	184.90
412.17	278.52
412.36	203.63
412.55	236.39
412.74	250.44
412.93	283.20
413.12	292.57
413.31	259.80
413.50	248.10
413.69	252.78
413.88	278.52
414.07	320.65
414.26	292.57
414.45	191.92
414.64	236.39
414.83	217.67
415.02	266.82
415.22	276.18
415.41	325.33
415.60	255.12
415.79	245.76
415.98	449.38
416.17	299.59
416.36	294.91
416.55	313.63
416.74	337.04
416.93	365.12
417.12	327.68
417.31	210.65
417.50	308.95
417.69	332.36
417.88	322.99
418.07	320.65
418.26	372.15
418.45	318.31
418.64	311.29
418.83	297.25
419.02	344.06
419.21	325.33
419.39	301.93
419.58	278.52
419.77	273.84
419.96	330.02
420.15	299.59
420.34	299.59
420.53	322.99
420.72	308.95
420.91	320.65
421.10	313.63
421.29	332.36
421.48	358.10
421.67	425.98
421.86	334.70
422.05	318.31
422.24	383.85
422.43	447.04
422.61	344.06
422.80	407.25
422.99	334.70
423.18	311.29
423.37	393.21
423.56	306.61
423.75	437.68
423.94	388.53
424.13	414.27
424.32	421.30
424.50	386.19
424.69	414.27
424.88	379.17
425.07	381.51
425.26	416.62
425.45	362.78
425.64	337.04
425.83	379.17
426.01	400.23
426.20	388.53
426.39	404.91
426.58	379.17
426.77	447.04
426.96	433.00
427.15	486.83
427.33	430.66
427.52	362.78
427.71	465.77
427.90	489.17
428.09	435.34
428.28	425.98
428.46	454.06
428.65	498.53
428.84	550.03
429.03	458.74
429.22	456.40
429.40	512.58
429.59	456.40
429.78	514.92
429.97	418.96
430.16	486.83
430.34	498.53
430.53	517.26
430.72	500.87
430.91	559.39
431.10	486.83
431.28	521.94
431.47	528.96
431.66	531.30
431.85	475.13
432.03	519.60
432.22	561.73
432.41	496.19
432.60	540.66
432.79	594.50
432.97	627.26
433.16	664.71
433.35	716.20
433.54	720.88
433.72	842.59
433.91	891.74
434.10	798.12
434.28	1064.94
434.47	1235.80
434.66	1540.07
434.85	1795.19
435.03	3815.07
435.22	14066.62
435.41	36013.82
435.59	50452.59
435.78	41200.45
435.97	17921.48
436.16	6506.69
436.34	2244.57
436.53	1207.72
436.72	945.58
436.90	779.40
437.09	753.65
437.28	774.72
437.46	727.91
437.65	631.94
437.84	631.94
438.02	596.84
438.21	711.52
438.40	690.46
438.58	657.69
438.77	568.75
438.96	617.90
439.14	648.33
439.33	638.97
439.52	617.90
439.70	599.18
439.89	627.26
440.08	603.86
440.26	559.39
440.45	610.88
440.63	643.65
440.82	592.16
441.01	622.58
441.19	617.90
441.38	575.77
441.57	550.03
441.75	653.01
441.94	601.52
442.12	671.73
442.31	718.54
442.50	578.11
442.68	582.79
442.87	678.76
443.05	601.52
443.24	655.35
443.43	613.22
443.61	648.33
443.80	624.92
443.98	547.69
444.17	603.86
444.35	653.01
444.54	606.20
444.73	608.54
444.91	657.69
445.10	641.31
445.28	596.84
445.47	585.13
445.65	596.84
445.84	613.22
446.02	559.39
446.21	526.62
446.39	540.66
446.58	613.22
446.77	627.26
446.95	547.69
447.14	545.34
447.32	606.20
447.51	561.73
447.69	578.11
447.88	643.65
448.06	592.16
448.25	535.98
448.43	594.50
448.62	627.26
448.80	657.69
448.99	571.09
449.17	559.39
449.36	629.60
449.54	575.77
449.73	596.84
449.91	580.45
450.10	585.13
450.28	662.37
450.46	624.92
450.65	664.71
450.83	627.26
451.02	554.71
451.20	545.34
451.39	690.46
451.57	599.18
451.76	589.82
451.94	528.96
452.13	631.94
452.31	622.58
452.49	617.90
452.68	533.64
452.86	533.64
453.05	690.46
453.23	713.86
453.42	608.54
453.60	599.18
453.78	608.54
453.97	617.90
454.15	521.94
454.34	575.77
454.52	582.79
454.70	545.34
454.89	582.79
455.07	594.50
455.26	610.88
455.44	573.43
455.62	594.50
455.81	613.22
455.99	524.28
456.17	587.47
456.36	578.11
456.54	638.97
456.73	587.47
456.91	610.88
457.09	505.56
457.28	608.54
457.46	615.56
457.64	571.09
457.83	557.05
458.01	566.41
458.19	641.31
458.38	594.50
458.56	575.77
458.74	655.35
458.93	531.30
459.11	559.39
459.29	545.34
459.48	655.35
459.66	674.07
459.84	599.18
460.03	594.50
460.21	575.77
460.39	531.30
460.57	592.16
460.76	571.09
460.94	545.34
461.12	554.71
461.31	603.86
461.49	550.03
461.67	552.37
461.85	610.88
462.04	620.24
462.22	950.26
462.40	589.82
462.59	660.03
462.77	657.69
462.95	610.88
463.13	540.66
463.32	528.96
463.50	615.56
463.68	566.41
463.86	585.13
464.05	617.90
464.23	627.26
464.41	507.90
464.59	573.43
464.78	667.05
464.96	561.73
465.14	645.99
465.32	568.75
465.50	540.66
465.69	533.64
465.87	514.92
466.05	538.32
466.23	622.58
466.41	566.41
466.60	643.65
466.78	641.31
466.96	674.07
467.14	566.41
467.32	601.52
467.51	669.39
467.69	587.47
467.87	643.65
468.05	566.41
468.23	552.37
468.41	568.75
468.60	564.07
468.78	559.39
468.96	512.58
469.14	528.96
469.32	489.17
469.50	573.43
469.69	638.97
469.87	629.60
470.05	554.71
470.23	547.69
470.41	489.17
470.59	521.94
470.77	568.75
470.95	528.96
471.14	545.34
471.32	566.41
471.50	533.64
471.68	573.43
471.86	568.75
472.04	580.45
472.22	514.92
472.40	550.03
472.58	500.87
472.77	545.34
472.95	510.24
473.13	526.62
473.31	585.13
473.49	568.75
473.67	512.58
473.85	622.58
474.03	557.05
474.21	547.69
474.39	578.11
474.57	629.60
474.75	521.94
474.93	547.69
475.12	512.58
475.30	566.41
475.48	554.71
475.66	475.13
475.84	491.51
476.02	479.81
476.20	543.00
476.38	547.69
476.56	528.96
476.74	571.09
476.92	627.26
477.10	496.19
477.28	521.94
477.46	603.86
477.64	624.92
477.82	587.47
478.00	631.94
478.18	568.75
478.36	657.69
478.54	650.67
478.72	657.69
478.90	713.86
479.08	727.91
479.26	744.29
479.44	725.57
479.62	751.31
479.80	648.33
479.98	847.27
480.16	875.36
480.34	926.85
480.52	901.11
480.70	856.64
480.88	957.28
481.06	910.47
481.24	1062.60
481.41	1022.81
481.59	1149.20
481.77	1231.12
481.95	1315.38
482.13	1284.95
482.31	1345.81
482.49	1511.99
482.67	1678.16
482.85	1935.62
483.03	1937.96
483.21	1891.15
483.39	2181.38
483.57	2293.72
483.74	2445.86
483.92	2509.05
484.10	2614.38
484.28	2782.90
484.46	3145.68
484.64	3206.53
484.82	3300.16
485.00	3410.16
485.18	3754.22
485.35	3861.88
485.53	3974.23
485.71	4283.18
485.89	4456.38
486.07	4526.60
486.25	4643.62
486.43	4645.96
486.61	4528.94
486.78	4627.24
486.96	4561.70
487.14	4564.04
487.32	4470.42
487.50	4442.34
487.68	4645.96
487.85	4545.32
488.03	4397.87
488.21	4379.14
488.39	4329.99
488.57	4198.92
488.75	4152.11
488.92	4271.48
489.10	3918.06
489.28	3824.44
489.46	3576.34
489.64	3679.32
489.81	3550.59
489.99	3557.61
490.17	3466.33
490.35	3492.08
490.53	3351.65
490.70	3353.99
490.88	3419.52
491.06	3716.77
491.24	3833.80
491.41	4128.70
491.59	3840.82
491.77	3410.16
491.95	3328.24
492.13	3208.87
492.30	3199.51
492.48	3030.99
492.66	3073.12
492.84	2890.56
493.01	2986.52
493.19	2960.78
493.37	3000.57
493.54	2818.00
493.72	2820.35
493.90	2630.76
494.08	2759.49
494.25	2682.25
494.43	2572.25
494.61	2780.56
494.79	2581.61
494.96	2558.21
495.14	2506.71
495.32	2342.88
495.49	2403.73
495.67	2394.37
495.85	2375.64
496.02	2230.53
496.20	2331.17
496.38	2267.98
496.55	2211.81
496.73	2092.44
496.91	2050.31
497.09	2078.40
497.26	2031.58
497.44	2015.20
497.62	2010.52
497.79	1849.02
497.97	2005.84
498.14	1930.94
498.32	1856.04
498.50	1788.17
498.67	1736.68
498.85	1762.42
499.03	1682.85
499.20	1610.29
499.38	1404.32
499.56	1589.22
499.73	1703.91
499.91	1544.75
500.08	1434.75
500.26	1446.45
500.44	1294.32
500.61	1362.19
500.79	1266.23
500.97	1296.66
501.14	1277.93
501.32	1224.10
501.49	1170.27
501.67	1210.06
501.84	1093.03
502.02	1086.01
502.20	1008.77
502.37	1013.45
502.55	1022.81
502.72	1006.43
502.90	887.06
503.07	905.79
503.25	896.43
503.43	908.13
503.60	751.31
503.78	805.14
503.95	830.89
504.13	734.93
504.30	833.23
504.48	788.76
504.65	774.72
504.83	739.61
505.01	753.65
505.18	706.84
505.36	711.52
505.53	685.78
505.71	709.18
505.88	793.44
506.06	620.24
506.23	671.73
506.41	655.35
506.58	629.60
506.76	671.73
506.93	571.09
507.11	638.97
507.28	547.69
507.46	608.54
507.63	624.92
507.81	589.82
507.98	587.47
508.16	641.31
508.33	589.82
508.50	638.97
508.68	657.69
508.85	578.11
509.03	688.12
509.20	711.52
509.38	645.99
509.55	573.43
509.73	599.18
509.90	550.03
510.08	559.39
510.25	559.39
510.42	475.13
510.60	566.41
510.77	514.92
510.95	601.52
511.12	582.79
511.30	538.32
511.47	526.62
511.64	547.69
511.82	594.50
511.99	533.64
512.17	507.90
512.34	587.47
512.51	505.56
512.69	538.32
512.86	545.34
513.04	521.94
513.21	561.73
513.38	433.00
513.56	550.03
513.73	505.56
513.90	463.43
514.08	500.87
514.25	468.11
514.43	493.85
514.60	411.93
514.77	475.13
514.95	514.92
515.12	512.58
515.29	383.85
515.47	447.04
515.64	456.40
515.81	496.19
515.99	454.06
516.16	517.26
516.33	545.34
516.51	517.26
516.68	489.17
516.85	425.98
517.03	479.81
517.20	428.32
517.37	425.98
517.54	463.43
517.72	407.25
517.89	386.19
518.06	355.76
518.24	507.90
518.41	437.68
518.58	402.57
518.75	428.32
518.93	395.55
519.10	430.66
519.27	383.85
519.45	365.12
519.62	409.59
519.79	425.98
519.96	423.64
520.14	358.10
520.31	444.70
520.48	472.79
520.65	376.83
520.83	475.13
521.00	465.77
521.17	444.70
521.34	470.45
521.52	437.68
521.69	489.17
521.86	479.81
522.03	423.64
522.20	470.45
522.38	374.49
522.55	507.90
522.72	390.87
522.89	496.19
523.07	454.06
523.24	447.04
523.41	437.68
523.58	421.30
523.75	337.04
523.92	322.99
524.10	428.32
524.27	496.19
524.44	475.13
524.61	554.71
524.78	386.19
524.96	512.58
525.13	423.64
525.30	517.26
525.47	470.45
525.64	505.56
525.81	463.43
525.98	482.15
526.16	437.68
526.33	458.74
526.50	489.17
526.67	421.30
526.84	517.26
527.01	561.73
527.18	535.98
527.36	557.05
527.53	531.30
527.70	631.94
527.87	629.60
528.04	531.30
528.21	510.24
528.38	540.66
528.55	631.94
528.72	606.20
528.89	578.11
529.07	587.47
529.24	491.51
529.41	650.67
529.58	575.77
529.75	585.13
529.92	631.94
530.09	622.58
530.26	631.94
530.43	603.86
530.60	645.99
530.77	702.16
530.94	676.41
531.11	744.29
531.28	753.65
531.46	793.44
531.63	800.46
531.80	908.13
531.97	933.87
532.14	1053.24
532.31	1160.91
532.48	1423.05
532.65	1694.55
532.82	1870.09
532.99	2139.25
533.16	2492.67
533.33	2939.71
533.50	2679.91
533.67	2232.87
533.84	1895.83
534.01	1717.95
534.18	1551.78
534.35	1462.83
534.52	1549.43
534.69	1610.29
534.86	1654.76
535.03	1629.01
535.20	1748.38
535.37	1809.23
535.54	2024.56
535.71	2169.68
535.88	2197.76
536.05	2375.64
536.22	2553.52
536.38	2778.22
536.55	3089.51
536.72	3377.39
536.89	3749.54
537.06	4196.58
537.23	4638.94
537.40	5111.73
537.57	5472.17
537.74	5788.14
537.91	5947.30
538.08	6160.29
538.25	6237.53
538.42	6480.94
538.59	6579.25
538.75	6745.42
538.92	7005.22
539.09	7597.38
539.26	8423.59
539.43	9525.98
539.60	10745.40
539.77	12243.34
539.94	13790.44
540.11	15281.36
540.28	16912.71
540.44	18597.90
540.61	20428.20
540.78	23426.42
540.95	27388.95
541.12	33811.38
541.29	38817.78
541.46	41383.01
541.62	40727.66
541.79	38487.77
541.96	36226.81
542.13	33816.06
542.30	31377.22
542.47	29436.92
542.63	27686.20
542.80	26972.33
542.97	26506.57
543.14	26267.83
543.31	26396.56
543.48	26696.15
543.64	26768.71
543.81	26969.99
543.98	26632.96
544.15	27489.59
544.32	28158.99
544.48	27662.79
544.65	27241.50
544.82	26995.74
544.99	26824.88
545.16	27538.74
545.32	28432.83
545.49	40399.99
545.66	60430.29
545.83	65535.00
546.00	65535.00
546.16	63472.99
546.33	46848.16
546.50	36397.67
546.67	28147.28
546.83	25085.86
547.00	23845.38
547.17	23019.17
547.34	21876.99
547.50	20807.36
547.67	20149.67
547.84	19419.42
548.00	18970.04
548.17	17722.54
548.34	16793.34
548.51	16514.82
548.67	15709.68
548.84	14616.65
549.01	14377.91
549.18	13404.25
549.34	12671.66
549.51	12423.56
549.68	11875.88
549.84	11360.96
550.01	10775.83
550.18	10504.32
550.34	9963.66
550.51	9287.25
550.68	8791.05
550.84	8379.12
551.01	8063.15
551.18	7875.90
551.34	7566.95
551.51	7019.27
551.68	6782.87
551.84	6523.07
552.01	6183.70
552.18	6071.35
552.34	5820.91
552.51	5540.05
552.68	5174.92
552.84	4985.34
553.01	4830.87
553.18	4557.02
553.34	4662.35
553.51	4489.15
553.67	4393.19
553.84	4203.60
554.01	3857.20
554.17	3747.20
554.34	3372.71
554.51	3255.69
554.67	3019.29
554.84	2834.39
555.00	2642.46
555.17	2513.74
555.33	2436.50
555.50	2326.49
555.67	2307.77
555.83	2097.12
556.00	2099.46
556.16	2214.15
556.33	1905.20
556.50	1753.06
556.66	1776.47
556.83	1666.46
556.99	1694.55
557.16	1626.67
557.32	1664.12
557.49	1451.13
557.65	1446.45
557.82	1537.73
557.98	1406.66
558.15	1355.17
558.32	1401.98
558.48	1394.96
558.65	1308.36
558.81	1303.68
558.98	1198.35
559.14	1174.95
559.31	1184.31
559.47	1121.12
559.64	1118.78
559.80	1160.91
559.97	1011.11
560.13	1083.67
560.30	1015.79
560.46	1027.50
560.63	1006.43
560.79	1090.69
560.96	1069.62
561.12	973.66
561.29	1078.99
561.45	997.07
561.61	971.32
561.78	1151.54
561.94	1071.97
562.11	1107.07
562.27	1111.75
562.44	983.02
562.60	1018.13
562.77	940.90
562.93	1015.79
563.10	1004.09
563.26	901.11
563.42	1034.52
563.59	1018.13
563.75	1001.75
563.92	917.49
564.08	978.34
564.24	968.98
564.41	912.81
564.57	767.70
564.74	931.53
564.90	821.53
565.07	866.00
565.23	837.91
565.39	837.91
565.56	739.61
565.72	741.95
565.88	753.65
566.05	734.93
566.21	770.04
566.38	863.66
566.54	727.91
566.70	844.93
566.87	866.00
567.03	833.23
567.19	814.51
567.36	807.48
567.52	720.88
567.68	753.65
567.85	786.42
568.01	840.25
568.17	720.88
568.34	896.43
568.50	828.55
568.66	898.77
568.83	830.89
568.99	851.96
569.15	821.53
569.32	737.27
569.48	660.03
569.64	746.63
569.81	653.01
569.97	638.97
570.13	587.47
570.30	676.41
570.46	554.71
570.62	596.84
570.78	648.33
570.95	638.97
571.11	615.56
571.27	678.76
571.43	550.03
571.60	603.86
571.76	547.69
571.92	575.77
572.09	568.75
572.25	610.88
572.41	589.82
572.57	571.09
572.74	634.29
572.90	564.07
573.06	622.58
573.22	620.24
573.38	617.90
573.55	678.76
573.71	688.12
573.87	678.76
574.03	631.94
574.20	695.14
574.36	723.23
574.52	753.65
574.68	767.70
574.84	802.80
575.01	777.06
575.17	868.34
575.33	959.62
575.49	999.41
575.65	1109.41
575.82	1165.59
575.98	1266.23
576.14	1345.81
576.30	2424.80
576.46	7309.49
576.62	15382.00
576.79	23810.27
576.95	16262.04
577.11	9448.74
577.27	6387.32
577.43	4095.94
577.59	2757.15
577.75	2059.67
577.92	1884.13
578.08	1961.37
578.24	1921.58
578.40	2808.64
578.56	7054.37
578.72	14614.30
578.88	22515.95
579.04	15445.20
579.21	9191.28
579.37	6532.44
579.53	5055.56
579.69	4500.85
579.85	5664.10
580.01	6953.73
580.17	7138.63
580.33	6188.38
580.49	4973.64
580.65	4411.91
580.82	4077.21
580.98	3712.09
581.14	3882.95
581.30	4231.69
581.46	4362.76
581.62	4882.36
581.78	5165.56
581.94	5668.78
582.10	5863.04
582.26	6307.74
582.42	6321.79
582.58	6621.38
582.74	6761.81
582.90	7012.24
583.06	6899.90
583.22	6979.48
583.38	6904.58
583.54	6843.73
583.70	6822.66
583.86	6604.99
584.02	6450.52
584.18	6417.75
584.34	6331.15
584.50	6293.70
584.66	6085.39
584.82	6141.57
584.98	6197.74
585.14	6057.31
585.30	5968.37
585.46	5746.02
585.62	5453.45
585.78	5516.64
585.94	5605.58
586.10	5795.17
586.26	6005.81
586.42	6752.45
586.58	7955.48
586.74	9696.84
586.90	11831.41
587.06	13703.84
587.22	13720.22
587.38	12428.24
587.54	10595.61
587.70	9001.70
587.86	7503.76
588.02	6361.58
588.18	5659.42
588.34	5008.75
588.49	4442.34
588.65	4374.46
588.81	4067.85
588.97	3857.20
589.13	3810.39
589.29	3808.05
589.45	3686.34
589.61	3749.54
589.77	3728.47
589.93	3843.16
590.08	3990.61
590.24	3985.93
590.40	4227.01
590.56	4329.99
590.72	4315.95
590.88	4400.21
591.04	4545.32
591.20	4961.94
591.35	5029.81
591.51	5205.35
591.67	5434.72
591.83	5626.65
591.99	6078.37
592.15	6670.53
592.31	7421.84
592.46	8016.33
592.62	8823.82
592.78	9202.99
592.94	9593.86
593.10	9689.82
593.26	9446.40
593.41	8674.03
593.57	7606.74
593.73	6965.43
593.89	5849.00
594.05	5359.83
594.20	4643.62
594.36	4217.65
594.52	4109.98
594.68	3665.28
594.84	3707.41
594.99	3538.89
595.15	3365.69
595.31	3461.65
595.47	3379.73
595.62	3314.20
595.78	3386.76
595.94	3463.99
596.10	3428.88
596.25	3365.69
596.41	3304.84
596.57	3389.10
596.73	3339.94
596.88	3386.76
597.04	3241.64
597.20	3236.96
597.36	3389.10
597.51	3510.80
597.67	3637.19
597.83	4018.70
597.99	4117.00
598.14	4124.02
598.30	4566.39
598.46	4737.24
598.61	4945.55
598.77	5287.27
598.93	5502.60
599.09	5748.36
599.24	5907.51
599.40	5888.79
599.56	5757.72
599.71	5294.29
599.87	5263.86
600.03	4880.02
600.18	4290.20
600.34	4236.37
600.50	3838.48
600.65	3520.17
600.81	3569.32
600.97	3215.90
601.12	3122.27
601.28	2967.80
601.44	2787.58
601.59	2691.62
601.75	2422.45
601.91	2392.03
602.06	2275.00
602.22	2321.81
602.37	2267.98
602.53	2125.21
602.69	2132.23
602.84	2141.59
603.00	2181.38
603.16	2223.51
603.31	2202.44
603.47	2284.36
603.62	2340.54
603.78	2363.94
603.94	2506.71
604.09	2499.69
604.25	2499.69
604.40	2401.39
604.56	2614.38
604.71	2619.06
604.87	2677.57
605.03	2633.10
605.18	2672.89
605.34	2815.66
605.49	2892.90
605.65	2944.39
605.80	2885.88
605.96	3112.91
606.12	3201.85
606.27	3325.90
606.43	3564.64
606.58	3644.21
606.74	3899.33
606.89	4065.51
607.05	4252.75
607.20	4456.38
607.36	4840.23
607.51	4997.04
607.67	5366.85
607.82	5654.73
607.98	6349.87
608.13	6546.48
608.29	7105.87
608.44	7714.41
608.60	8212.94
608.75	8980.64
608.91	9935.57
609.06	10916.26
609.22	11978.86
609.37	13771.71
609.53	15049.64
609.68	17263.79
609.84	19625.39
609.99	22658.73
610.15	27400.65
610.30	32905.59
610.46	41202.79
610.61	51009.64
610.76	58817.66
610.92	64416.22
611.07	65535.00
611.23	65535.00
611.38	65535.00
611.54	65366.48
611.69	60444.33
611.84	55526.87
612.00	49556.16
612.15	42717.12
612.31	37418.14
612.46	32582.60
612.62	30321.64
612.77	28914.98
612.92	27398.31
613.08	25844.20
613.23	24837.76
613.39	23571.54
613.54	22525.32
613.69	22223.39
613.85	22022.10
614.00	22132.11
614.15	21685.06
614.31	21958.91
614.46	21439.31
614.62	20379.04
614.77	19381.98
614.92	18162.56
615.08	17308.26
615.23	15208.80
615.38	14188.33
615.54	13081.25
615.69	12018.65
615.84	10813.28
616.00	10310.06
616.15	9327.03
616.30	8795.73
616.46	8119.32
616.61	7805.69
616.76	7218.21
616.92	6841.39
617.07	6370.94
617.22	6057.31
617.37	5820.91
617.53	5444.09
617.68	5441.75
617.83	5116.41
617.99	5060.24
618.14	4915.12
618.29	4781.71
618.45	4772.35
618.60	4585.11
618.75	4456.38
618.90	4421.27
619.06	4395.53
619.21	4313.61
619.36	4430.63
619.51	4297.22
619.67	4329.99
619.82	4414.25
619.97	4451.70
620.12	4440.00
620.28	4547.66
620.43	4657.67
620.58	4674.05
620.73	4786.40
620.89	4861.29
621.04	4765.33
621.19	4793.42
621.34	4662.35
621.49	4610.86
621.65	4627.24
621.80	4526.60
621.95	4550.00
622.10	4739.58
622.25	4542.98
622.41	4671.71
622.56	4652.98
622.71	4915.12
622.86	4798.10
623.01	5074.28
623.16	5207.69
623.32	5184.29
623.47	5090.67
623.62	5174.92
623.77	5280.25
623.92	5149.18
624.07	5156.20
624.23	5203.01
624.38	5291.95
624.53	5217.05
624.68	5301.31
624.83	5313.02
624.98	5303.65
625.13	5195.99
625.29	5149.18
625.44	5451.11
625.59	5430.04
625.74	5254.50
625.89	5362.17
626.04	5465.15
626.19	5263.86
626.34	5437.06
626.49	5247.48
626.65	5256.84
626.80	5217.05
626.95	5186.63
627.10	4980.66
627.25	4964.28
627.40	4875.34
627.55	4819.16
627.70	4830.87
627.85	4636.60
628.00	4854.27
628.15	4758.31
628.30	4798.10
628.45	4793.42
628.60	4681.07
628.76	4765.33
628.91	4760.65
629.06	4692.77
629.21	4814.48
629.36	4968.96
629.51	5008.75
629.66	5518.98
629.81	5884.11
629.96	6211.78
630.11	6848.41
630.26	7473.33
630.41	8531.25
630.56	9399.59
630.71	10225.80
630.86	10548.79
631.01	10487.94
631.16	9928.55
631.31	8737.22
631.46	7545.89
631.61	6368.60
631.76	5219.39
631.91	4416.59
632.06	3646.55
632.21	3169.09
632.36	2808.64
632.51	2525.44
632.66	2317.13
632.81	2122.87
632.96	2036.27
633.10	1823.28
633.25	1884.13
633.40	1640.72
633.55	1650.08
633.70	1544.75
633.85	1476.88
634.00	1497.94
634.15	1432.41
634.30	1423.05
634.45	1338.79
634.60	1294.32
634.75	1369.21
634.90	1355.17
635.05	1350.49
635.19	1294.32
635.34	1294.32
635.49	1207.72
635.64	1170.27
635.79	1118.78
635.94	1177.29
636.09	1235.80
636.24	1146.86
636.39	1142.18
636.53	1242.82
636.68	978.34
636.83	1097.71
636.98	997.07
637.13	961.96
637.28	1064.94
637.43	1097.71
637.57	1025.15
637.72	1048.56
637.87	908.13
638.02	936.21
638.17	1006.43
638.32	966.64
638.46	994.73
638.61	875.36
638.76	912.81
638.91	812.17
639.06	812.17
639.20	915.15
639.35	933.87
639.50	903.45
639.65	908.13
639.80	868.34
639.94	830.89
640.09	868.34
640.24	891.74
640.39	905.79
640.54	929.19
640.68	851.96
640.83	856.64
640.98	800.46
641.13	802.80
641.27	833.23
641.42	826.21
641.57	870.68
641.72	844.93
641.86	819.19
642.01	798.12
642.16	828.55
642.31	856.64
642.45	917.49
642.60	915.15
642.75	889.40
642.90	760.67
643.04	819.19
643.19	875.36
643.34	805.14
643.48	936.21
643.63	873.02
643.78	858.98
643.93	964.30
644.07	870.68
644.22	863.66
644.37	800.46
644.51	828.55
644.66	898.77
644.81	807.48
644.95	936.21
645.10	767.70
645.25	821.53
645.39	868.34
645.54	898.77
645.69	849.61
645.83	786.42
645.98	875.36
646.13	873.02
646.27	849.61
646.42	763.01
646.57	772.38
646.71	779.40
646.86	737.27
647.00	833.23
647.15	777.06
647.30	706.84
647.44	795.78
647.59	812.17
647.74	744.29
647.88	830.89
648.03	833.23
648.17	802.80
648.32	739.61
648.47	812.17
648.61	844.93
648.76	854.30
648.90	938.55
649.05	1001.75
649.20	1043.88
649.34	1064.94
649.49	1219.42
649.63	1364.53
649.78	1591.56
649.92	1884.13
650.07	2434.16
650.21	2651.83
650.36	2977.16
650.51	2853.11
650.65	2832.05
650.80	2443.52
650.94	2160.31
651.09	1832.64
651.23	1757.74
651.38	1586.88
651.52	1397.30
651.67	1343.47
651.81	1146.86
651.96	1181.97
652.10	1027.50
652.25	1027.50
652.39	1053.24
652.54	1149.20
652.68	1177.29
652.83	1324.74
652.97	1474.54
653.12	1357.51
653.26	1242.82
653.41	1252.19
653.55	1191.33
653.70	997.07
653.84	1029.84
653.99	896.43
654.13	940.90
654.27	947.92
654.42	849.61
654.56	896.43
654.71	866.00
654.85	901.11
655.00	889.40
655.14	777.06
655.29	737.27
655.43	795.78
655.57	786.42
655.72	688.12
655.86	858.98
656.01	760.67
656.15	812.17
656.30	777.06
656.44	737.27
656.58	837.91
656.73	746.63
656.87	760.67
657.01	751.31
657.16	903.45
657.30	901.11
657.45	887.06
657.59	978.34
657.73	971.32
657.88	990.05
658.02	898.77
658.16	903.45
658.31	770.04
658.45	758.33
658.60	758.33
658.74	695.14
658.88	697.48
659.03	664.71
659.17	599.18
659.31	655.35
659.46	620.24
659.60	683.44
659.74	660.03
659.89	624.92
660.03	585.13
660.17	636.63
660.32	615.56
660.46	493.85
660.60	674.07
660.74	660.03
660.89	613.22
661.03	519.60
661.17	641.31
661.32	653.01
661.46	807.48
661.60	924.51
661.74	1118.78
661.89	1341.13
662.03	1544.75
662.17	1717.95
662.31	1774.13
662.46	1675.82
662.60	1692.21
662.74	1394.96
662.88	1226.44
663.03	1142.18
663.17	980.68
663.31	1053.24
663.45	961.96
663.60	844.93
663.74	835.57
663.88	713.86
664.02	805.14
664.17	650.67
664.31	653.01
664.45	606.20
664.59	678.76
664.73	643.65
664.88	578.11
665.02	622.58
665.16	561.73
665.30	512.58
665.44	627.26
665.59	521.94
665.73	526.62
665.87	543.00
666.01	517.26
666.15	493.85
666.29	545.34
666.44	585.13
666.58	559.39
666.72	545.34
666.86	613.22
667.00	627.26
667.14	571.09
667.28	573.43
667.43	519.60
667.57	535.98
667.71	550.03
667.85	568.75
667.99	552.37
668.13	564.07
668.27	496.19
668.41	547.69
668.56	503.22
668.70	550.03
668.84	500.87
668.98	486.83
669.12	465.77
669.26	505.56
669.40	629.60
669.54	510.24
669.68	533.64
669.82	507.90
669.96	484.49
670.10	517.26
670.25	486.83
670.39	564.07
670.53	440.02
670.67	484.49
670.81	524.28
670.95	505.56
671.09	524.28
671.23	489.17
671.37	540.66
671.51	510.24
671.65	500.87
671.79	447.04
671.93	468.11
672.07	575.77
672.21	519.60
672.35	505.56
672.49	514.92
672.63	463.43
672.77	465.77
672.91	479.81
673.05	411.93
673.19	482.15
673.33	500.87
673.47	514.92
673.61	414.27
673.75	381.51
673.89	407.25
674.03	505.56
674.17	456.40
674.31	470.45
674.45	393.21
674.59	374.49
674.73	404.91
674.87	372.15
675.01	407.25
675.15	388.53
675.29	400.23
675.43	447.04
675.56	468.11
675.70	479.81
675.84	463.43
675.98	461.09
676.12	348.74
676.26	348.74
676.40	353.42
676.54	374.49
676.68	294.91
676.82	320.65
676.96	325.33
677.10	369.80
677.23	418.96
677.37	322.99
677.51	397.89
677.65	430.66
677.79	425.98
677.93	381.51
678.07	367.46
678.21	507.90
678.34	383.85
678.48	315.97
678.62	407.25
678.76	339.38
678.90	447.04
679.04	402.57
679.18	430.66
679.31	409.59
679.45	402.57
679.59	397.89
679.73	458.74
679.87	381.51
680.00	470.45
680.14	407.25
680.28	428.32
680.42	393.21
680.56	447.04
680.70	428.32
680.83	484.49
680.97	379.17
681.11	418.96
681.25	461.09
681.39	388.53
681.52	435.34
681.66	425.98
681.80	416.62
681.94	437.68
682.07	430.66
682.21	454.06
682.35	402.57
682.49	353.42
682.62	381.51
682.76	397.89
682.90	390.87
683.04	388.53
683.17	423.64
683.31	414.27
683.45	383.85
683.59	365.12
683.72	425.98
683.86	379.17
684.00	334.70
684.13	327.68
684.27	346.40
684.41	393.21
684.55	376.83
684.68	372.15
684.82	397.89
684.96	423.64
685.09	358.10
685.23	367.46
685.37	510.24
685.50	416.62
685.64	437.68
685.78	482.15
685.91	449.38
686.05	479.81
686.19	528.96
686.32	491.51
686.46	545.34
686.60	538.32
686.73	634.29
686.87	683.44
687.01	692.80
687.14	816.85
687.28	816.85
687.42	880.04
687.55	858.98
687.69	964.30
687.82	994.73
687.96	1041.54
688.10	987.71
688.23	966.64
688.37	784.08
688.50	835.57
688.64	774.72
688.78	638.97
688.91	638.97
689.05	547.69
689.18	465.77
689.32	461.09
689.46	477.47
689.59	339.38
689.73	390.87
689.86	386.19
690.00	306.61
690.13	315.97
690.27	318.31
690.41	348.74
690.54	341.72
690.68	458.74
690.81	477.47
690.95	416.62
691.08	334.70
691.22	278.52
691.35	318.31
691.49	299.59
691.62	271.50
691.76	227.03
691.89	184.90
692.03	236.39
692.16	238.73
692.30	229.37
692.43	215.33
692.57	229.37
692.70	311.29
692.84	369.80
692.97	351.08
693.11	390.87
693.24	451.72
693.38	610.88
693.51	692.80
693.65	809.83
693.78	847.27
693.92	791.10
694.05	770.04
694.19	685.78
694.32	568.75
694.45	423.64
694.59	330.02
694.72	313.63
694.86	325.33
694.99	287.89
695.13	264.48
695.26	344.06
695.39	236.39
695.53	224.69
695.66	215.33
695.80	264.48
695.93	301.93
696.07	238.73
696.20	210.65
696.33	238.73
696.47	259.80
696.60	337.04
696.73	269.16
696.87	229.37
697.00	252.78
697.14	212.99
697.27	201.29
697.40	248.10
697.54	252.78
697.67	191.92
697.80	210.65
697.94	220.01
698.07	215.33
698.21	255.12
698.34	264.48
698.47	250.44
698.61	159.16
698.74	245.76
698.87	149.79
699.01	280.86
699.14	245.76
699.27	222.35
699.40	292.57
699.54	266.82
699.67	145.11
699.80	217.67
699.94	182.56
700.07	187.24
700.20	182.56
700.34	252.78
700.47	180.22
700.60	205.97
700.73	175.54
700.87	248.10
701.00	191.92
701.13	154.48
701.26	257.46
701.40	161.50
701.53	201.29
701.66	198.95
701.79	234.05
701.93	173.20
702.06	271.50
702.19	220.01
702.32	243.42
702.46	166.18
702.59	234.05
702.72	255.12
702.85	262.14
702.99	229.37
703.12	269.16
703.25	250.44
703.38	266.82
703.51	313.63
703.65	262.14
703.78	266.82
703.91	311.29
704.04	348.74
704.17	322.99
704.31	287.89
704.44	355.76
704.57	304.27
704.70	353.42
704.83	341.72
704.96	327.68
705.10	339.38
705.23	433.00
>>>>>End Processed Spectral Data<<<<<
