SpectraSuite Data File
++++++++++++++++++++++++++++++++++++
Date: Fri Oct 04 11:41:49 GMT-05:00 2013
User: price-jones
Dark Spectrum Present: No
Reference Spectrum Present: No
Number of Sampled Component Spectra: 1
Spectrometers: USB2+H05261
Integration Time (usec): 100000 (USB2+H05261)
Spectra Averaged: 1 (USB2+H05261)
Boxcar Smoothing: 0 (USB2+H05261)
Correct for Electrical Dark: No (USB2+H05261)
Strobe/Lamp Enabled: No (USB2+H05261)
Correct for Detector Non-linearity: No (USB2+H05261)
Correct for Stray Light: No (USB2+H05261)
Number of Pixels in Processed Spectrum: 2048
>>>>>Begin Processed Spectral Data<<<<<
365.73	0.00
365.92	0.00
366.12	0.00
366.32	0.00
366.52	0.00
366.72	0.00
366.91	0.00
367.11	0.00
367.31	0.00
367.51	0.00
367.70	0.00
367.90	0.00
368.10	0.00
368.30	0.00
368.49	0.00
368.69	0.00
368.89	16.38
369.09	0.00
369.28	0.00
369.48	0.00
369.68	0.00
369.87	0.00
370.07	0.00
370.27	21.06
370.47	0.00
370.66	0.00
370.86	53.83
371.06	72.56
371.25	100.64
371.45	95.96
371.65	140.43
371.84	14.04
372.04	53.83
372.24	135.75
372.44	77.24
372.63	117.03
372.83	269.16
373.03	79.58
373.22	128.73
373.42	138.09
373.62	98.30
373.81	149.79
374.01	187.24
374.21	184.90
374.40	102.98
374.60	168.52
374.79	182.56
374.99	105.32
375.19	170.86
375.38	117.03
375.58	121.71
375.78	117.03
375.97	149.79
376.17	135.75
376.37	140.43
376.56	161.50
376.76	175.54
376.95	140.43
377.15	173.20
377.35	147.45
377.54	187.24
377.74	114.69
377.93	114.69
378.13	135.75
378.33	222.35
378.52	124.05
378.72	138.09
378.91	156.82
379.11	91.28
379.31	154.48
379.50	56.17
379.70	77.24
379.89	166.18
380.09	203.63
380.28	95.96
380.48	110.01
380.68	79.58
380.87	77.24
381.07	205.97
381.26	210.65
381.46	131.07
381.65	121.71
381.85	145.11
382.04	135.75
382.24	161.50
382.43	142.77
382.63	65.54
382.83	173.20
383.02	168.52
383.22	147.45
383.41	84.26
383.61	65.54
383.80	170.86
384.00	131.07
384.19	156.82
384.39	112.35
384.58	102.98
384.78	159.16
384.97	91.28
385.17	63.19
385.36	114.69
385.56	212.99
385.75	84.26
385.95	133.41
386.14	170.86
386.34	105.32
386.53	154.48
386.72	131.07
386.92	210.65
387.11	135.75
387.31	77.24
387.50	79.58
387.70	25.75
387.89	114.69
388.09	117.03
388.28	159.16
388.48	154.48
388.67	170.86
388.86	84.26
389.06	121.71
389.25	49.15
389.45	180.22
389.64	95.96
389.84	182.56
390.03	147.45
390.22	133.41
390.42	163.84
390.61	93.62
390.81	95.96
391.00	124.05
391.19	112.35
391.39	170.86
391.58	163.84
391.78	112.35
391.97	131.07
392.16	117.03
392.36	203.63
392.55	156.82
392.75	126.39
392.94	112.35
393.13	140.43
393.33	110.01
393.52	105.32
393.71	156.82
393.91	152.13
394.10	161.50
394.29	124.05
394.49	156.82
394.68	95.96
394.88	124.05
395.07	177.88
395.26	147.45
395.46	114.69
395.65	161.50
395.84	131.07
396.04	198.95
396.23	168.52
396.42	81.92
396.62	95.96
396.81	117.03
397.00	107.66
397.19	147.45
397.39	110.01
397.58	215.33
397.77	229.37
397.97	201.29
398.16	163.84
398.35	163.84
398.55	131.07
398.74	77.24
398.93	201.29
399.12	161.50
399.32	124.05
399.51	173.20
399.70	222.35
399.90	168.52
400.09	131.07
400.28	161.50
400.47	117.03
400.67	255.12
400.86	126.39
401.05	168.52
401.24	196.60
401.44	196.60
401.63	191.92
401.82	234.05
402.01	170.86
402.21	173.20
402.40	234.05
402.59	177.88
402.78	236.39
402.97	212.99
403.17	205.97
403.36	358.10
403.55	313.63
403.74	760.67
403.93	2249.25
404.13	5799.85
404.32	9415.98
404.51	8922.12
404.70	5530.69
404.89	2113.50
405.09	613.22
405.28	283.20
405.47	243.42
405.66	248.10
405.85	238.73
406.05	245.76
406.24	203.63
406.43	124.05
406.62	269.16
406.81	318.31
407.00	442.36
407.20	657.69
407.39	1036.86
407.58	1322.40
407.77	961.96
407.96	617.90
408.15	250.44
408.34	241.08
408.54	222.35
408.73	241.08
408.92	191.92
409.11	205.97
409.30	208.31
409.49	236.39
409.68	159.16
409.87	159.16
410.07	184.90
410.26	224.69
410.45	278.52
410.64	220.01
410.83	245.76
411.02	194.26
411.21	210.65
411.40	215.33
411.59	163.84
411.78	166.18
411.98	217.67
412.17	229.37
412.36	262.14
412.55	250.44
412.74	299.59
412.93	306.61
413.12	252.78
413.31	290.23
413.50	290.23
413.69	252.78
413.88	262.14
414.07	285.55
414.26	266.82
414.45	292.57
414.64	285.55
414.83	287.89
415.02	243.42
415.22	255.12
415.41	271.50
415.60	152.13
415.79	248.10
415.98	290.23
416.17	313.63
416.36	320.65
416.55	250.44
416.74	285.55
416.93	339.38
417.12	220.01
417.31	243.42
417.50	285.55
417.69	255.12
417.88	283.20
418.07	390.87
418.26	269.16
418.45	299.59
418.64	411.93
418.83	259.80
419.02	304.27
419.21	358.10
419.39	337.04
419.58	264.48
419.77	301.93
419.96	280.86
420.15	367.46
420.34	313.63
420.53	306.61
420.72	353.42
420.91	315.97
421.10	278.52
421.29	306.61
421.48	360.44
421.67	395.55
421.86	304.27
422.05	306.61
422.24	311.29
422.43	308.95
422.61	341.72
422.80	383.85
422.99	290.23
423.18	220.01
423.37	428.32
423.56	327.68
423.75	339.38
423.94	304.27
424.13	344.06
424.32	301.93
424.50	327.68
424.69	365.12
424.88	383.85
425.07	386.19
425.26	315.97
425.45	346.40
425.64	341.72
425.83	369.80
426.01	383.85
426.20	428.32
426.39	360.44
426.58	372.15
426.77	330.02
426.96	400.23
427.15	451.72
427.33	386.19
427.52	386.19
427.71	320.65
427.90	337.04
428.09	360.44
428.28	353.42
428.46	386.19
428.65	374.49
428.84	433.00
429.03	451.72
429.22	374.49
429.40	407.25
429.59	388.53
429.78	475.13
429.97	393.21
430.16	397.89
430.34	430.66
430.53	407.25
430.72	470.45
430.91	510.24
431.10	437.68
431.28	503.22
431.47	486.83
431.66	451.72
431.85	437.68
432.03	468.11
432.22	493.85
432.41	507.90
432.60	510.24
432.79	533.64
432.97	578.11
433.16	540.66
433.35	617.90
433.54	767.70
433.72	741.95
433.91	786.42
434.10	774.72
434.28	1043.88
434.47	1172.61
434.66	1303.68
434.85	1593.90
435.03	3817.41
435.22	13867.67
435.41	35496.56
435.59	45277.66
435.78	31714.26
435.97	14780.48
436.16	5820.91
436.34	1727.32
436.53	1158.57
436.72	910.47
436.90	746.63
437.09	678.76
437.28	706.84
437.46	650.67
437.65	636.63
437.84	580.45
438.02	622.58
438.21	594.50
438.40	535.98
438.58	594.50
438.77	505.56
438.96	557.05
439.14	608.54
439.33	592.16
439.52	613.22
439.70	545.34
439.89	582.79
440.08	505.56
440.26	557.05
440.45	561.73
440.63	503.22
440.82	543.00
441.01	510.24
441.19	594.50
441.38	594.50
441.57	653.01
441.75	638.97
441.94	528.96
442.12	547.69
442.31	521.94
442.50	557.05
442.68	514.92
442.87	561.73
443.05	550.03
443.24	547.69
443.43	587.47
443.61	578.11
443.80	587.47
443.98	503.22
444.17	489.17
444.35	557.05
444.54	550.03
444.73	486.83
444.91	587.47
445.10	585.13
445.28	526.62
445.47	566.41
445.65	587.47
445.84	528.96
446.02	596.84
446.21	589.82
446.39	477.47
446.58	496.19
446.77	533.64
446.95	526.62
447.14	514.92
447.32	545.34
447.51	561.73
447.69	582.79
447.88	514.92
448.06	519.60
448.25	561.73
448.43	578.11
448.62	477.47
448.80	552.37
448.99	557.05
449.17	561.73
449.36	512.58
449.54	587.47
449.73	554.71
449.91	564.07
450.10	512.58
450.28	521.94
450.46	624.92
450.65	456.40
450.83	580.45
451.02	573.43
451.20	559.39
451.39	573.43
451.57	444.70
451.76	500.87
451.94	571.09
452.13	517.26
452.31	559.39
452.49	547.69
452.68	524.28
452.86	465.77
453.05	580.45
453.23	554.71
453.42	430.66
453.60	592.16
453.78	566.41
453.97	500.87
454.15	540.66
454.34	578.11
454.52	489.17
454.70	603.86
454.89	573.43
455.07	510.24
455.26	519.60
455.44	620.24
455.62	524.28
455.81	507.90
455.99	510.24
456.17	561.73
456.36	482.15
456.54	486.83
456.73	545.34
456.91	489.17
457.09	475.13
457.28	533.64
457.46	514.92
457.64	547.69
457.83	535.98
458.01	526.62
458.19	535.98
458.38	512.58
458.56	528.96
458.74	582.79
458.93	493.85
459.11	491.51
459.29	470.45
459.48	571.09
459.66	472.79
459.84	599.18
460.03	617.90
460.21	524.28
460.39	498.53
460.57	486.83
460.76	535.98
460.94	526.62
461.12	627.26
461.31	545.34
461.49	545.34
461.67	489.17
461.85	524.28
462.04	554.71
462.22	1027.50
462.40	578.11
462.59	500.87
462.77	470.45
462.95	463.43
463.13	535.98
463.32	519.60
463.50	580.45
463.68	568.75
463.86	470.45
464.05	486.83
464.23	493.85
464.41	538.32
464.59	603.86
464.78	592.16
464.96	510.24
465.14	559.39
465.32	550.03
465.50	484.49
465.69	526.62
465.87	498.53
466.05	498.53
466.23	568.75
466.41	610.88
466.60	664.71
466.78	543.00
466.96	505.56
467.14	524.28
467.32	615.56
467.51	690.46
467.69	557.05
467.87	580.45
468.05	482.15
468.23	564.07
468.41	521.94
468.60	477.47
468.78	554.71
468.96	505.56
469.14	496.19
469.32	461.09
469.50	447.04
469.69	540.66
469.87	526.62
470.05	491.51
470.23	500.87
470.41	461.09
470.59	472.79
470.77	470.45
470.95	552.37
471.14	573.43
471.32	575.77
471.50	528.96
471.68	482.15
471.86	517.26
472.04	512.58
472.22	468.11
472.40	514.92
472.58	566.41
472.77	510.24
472.95	484.49
473.13	580.45
473.31	566.41
473.49	517.26
473.67	493.85
473.85	554.71
474.03	512.58
474.21	505.56
474.39	564.07
474.57	627.26
474.75	475.13
474.93	547.69
475.12	500.87
475.30	550.03
475.48	519.60
475.66	566.41
475.84	430.66
476.02	496.19
476.20	514.92
476.38	510.24
476.56	526.62
476.74	514.92
476.92	491.51
477.10	526.62
477.28	538.32
477.46	543.00
477.64	500.87
477.82	535.98
478.00	566.41
478.18	451.72
478.36	566.41
478.54	571.09
478.72	585.13
478.90	634.29
479.08	592.16
479.26	620.24
479.44	573.43
479.62	718.54
479.80	725.57
479.98	671.73
480.16	781.74
480.34	809.83
480.52	807.48
480.70	826.21
480.88	784.08
481.06	809.83
481.24	854.30
481.41	1006.43
481.59	1067.28
481.77	1048.56
481.95	1078.99
482.13	1245.16
482.31	1261.55
482.49	1378.58
482.67	1355.17
482.85	1629.01
483.03	1645.40
483.21	1820.94
483.39	1884.13
483.57	2050.31
483.74	2153.29
483.92	2228.19
484.10	2260.96
484.28	2462.24
484.46	2747.79
484.64	2839.07
484.82	2832.05
485.00	2939.71
485.18	3059.08
485.35	3522.51
485.53	3592.72
485.71	3822.09
485.89	3978.91
486.07	3899.33
486.25	4121.68
486.43	4112.32
486.61	4042.11
486.78	4095.94
486.96	4084.23
487.14	4107.64
487.32	4201.26
487.50	4128.70
487.68	4004.66
487.85	3920.40
488.03	4011.68
488.21	3885.29
488.39	3768.26
488.57	3667.62
488.75	3545.91
488.92	3737.84
489.10	3508.46
489.28	3335.26
489.46	3211.22
489.64	3318.88
489.81	3089.51
489.99	3145.68
490.17	3080.14
490.35	3119.93
490.53	3054.40
490.70	2942.05
490.88	3150.36
491.06	3124.62
491.24	3559.95
491.41	3545.91
491.59	3309.52
491.77	3045.04
491.95	3023.97
492.13	2883.54
492.30	2839.07
492.48	2867.16
492.66	2644.81
492.84	2700.98
493.01	2693.96
493.19	2665.87
493.37	2644.81
493.54	2541.82
493.72	2392.03
493.90	2408.41
494.08	2443.52
494.25	2317.13
494.43	2434.16
494.61	2277.34
494.79	2235.21
494.96	2244.57
495.14	2211.81
495.32	2183.72
495.49	2167.34
495.67	2024.56
495.85	2024.56
496.02	2003.50
496.20	2001.16
496.38	1940.30
496.55	1982.43
496.73	1919.24
496.91	1851.36
497.09	1832.64
497.26	1839.66
497.44	1753.06
497.62	1685.19
497.79	1842.00
497.97	1661.78
498.14	1701.57
498.32	1650.08
498.50	1614.97
498.67	1476.88
498.85	1535.39
499.03	1462.83
499.20	1385.60
499.38	1364.53
499.56	1446.45
499.73	1376.24
499.91	1462.83
500.08	1378.58
500.26	1249.85
500.44	1261.55
500.61	1198.35
500.79	1104.73
500.97	1069.62
501.14	1121.12
501.32	1053.24
501.49	1071.97
501.67	1032.18
501.84	1050.90
502.02	954.94
502.20	908.13
502.37	884.72
502.55	884.72
502.72	786.42
502.90	898.77
503.07	826.21
503.25	795.78
503.43	758.33
503.60	809.83
503.78	748.97
503.95	751.31
504.13	678.76
504.30	690.46
504.48	732.59
504.65	758.33
504.83	629.60
505.01	603.86
505.18	669.39
505.36	540.66
505.53	641.31
505.71	678.76
505.88	622.58
506.06	606.20
506.23	507.90
506.41	568.75
506.58	599.18
506.76	545.34
506.93	533.64
507.11	681.10
507.28	477.47
507.46	566.41
507.63	543.00
507.81	610.88
507.98	514.92
508.16	543.00
508.33	629.60
508.50	538.32
508.68	545.34
508.85	653.01
509.03	622.58
509.20	636.63
509.38	631.94
509.55	631.94
509.73	554.71
509.90	528.96
510.08	491.51
510.25	538.32
510.42	587.47
510.60	573.43
510.77	571.09
510.95	594.50
511.12	498.53
511.30	430.66
511.47	472.79
511.64	547.69
511.82	451.72
511.99	524.28
512.17	514.92
512.34	512.58
512.51	517.26
512.69	461.09
512.86	475.13
513.04	535.98
513.21	503.22
513.38	449.38
513.56	423.64
513.73	433.00
513.90	451.72
514.08	435.34
514.25	463.43
514.43	489.17
514.60	444.70
514.77	383.85
514.95	313.63
515.12	489.17
515.29	484.49
515.47	351.08
515.64	416.62
515.81	451.72
515.99	517.26
516.16	451.72
516.33	482.15
516.51	482.15
516.68	472.79
516.85	463.43
517.03	421.30
517.20	376.83
517.37	362.78
517.54	465.77
517.72	346.40
517.89	444.70
518.06	369.80
518.24	461.09
518.41	437.68
518.58	442.36
518.75	393.21
518.93	428.32
519.10	397.89
519.27	465.77
519.45	376.83
519.62	470.45
519.79	414.27
519.96	339.38
520.14	327.68
520.31	365.12
520.48	449.38
520.65	344.06
520.83	489.17
521.00	465.77
521.17	428.32
521.34	353.42
521.52	334.70
521.69	395.55
521.86	472.79
522.03	404.91
522.20	390.87
522.38	360.44
522.55	437.68
522.72	411.93
522.89	512.58
523.07	479.81
523.24	449.38
523.41	341.72
523.58	393.21
523.75	433.00
523.92	376.83
524.10	409.59
524.27	353.42
524.44	369.80
524.61	440.02
524.78	308.95
524.96	451.72
525.13	337.04
525.30	442.36
525.47	430.66
525.64	451.72
525.81	503.22
525.98	505.56
526.16	482.15
526.33	437.68
526.50	362.78
526.67	416.62
526.84	435.34
527.01	496.19
527.18	493.85
527.36	599.18
527.53	566.41
527.70	643.65
527.87	433.00
528.04	528.96
528.21	510.24
528.38	440.02
528.55	505.56
528.72	589.82
528.89	550.03
529.07	528.96
529.24	566.41
529.41	643.65
529.58	620.24
529.75	552.37
529.92	631.94
530.09	564.07
530.26	608.54
530.43	587.47
530.60	599.18
530.77	636.63
530.94	674.07
531.11	653.01
531.28	711.52
531.46	681.10
531.63	779.40
531.80	821.53
531.97	851.96
532.14	973.66
532.31	1177.29
532.48	1294.32
532.65	1537.73
532.82	1671.14
532.99	2064.35
533.16	2293.72
533.33	2523.10
533.50	2377.98
533.67	1937.96
533.84	1626.67
534.01	1507.30
534.18	1409.00
534.35	1299.00
534.52	1425.39
534.69	1373.89
534.86	1490.92
535.03	1540.07
535.20	1636.03
535.37	1614.97
535.54	1783.49
535.71	1856.04
535.88	1900.52
536.05	2125.21
536.22	2260.96
536.38	2478.63
536.55	2560.55
536.72	2857.79
536.89	3328.24
537.06	3595.06
537.23	4053.81
537.40	4351.06
537.57	4746.61
537.74	5062.58
537.91	5320.04
538.08	5387.91
538.25	5453.45
538.42	5694.52
538.59	5661.76
538.75	5891.13
538.92	6225.82
539.09	6628.40
539.26	7489.71
539.43	8388.48
539.60	9593.86
539.77	10857.75
539.94	12203.55
540.11	13469.78
540.28	15002.83
540.44	16390.77
540.61	17965.95
540.78	20154.35
540.95	24542.86
541.12	29191.16
541.29	33759.89
541.46	35620.61
541.62	35126.76
541.79	33853.51
541.96	31491.91
542.13	29294.14
542.30	27026.17
542.47	25443.96
542.63	24264.33
542.80	23552.81
542.97	22635.32
543.14	22724.26
543.31	22726.60
543.48	22684.47
543.64	23152.58
543.81	23559.83
543.98	23597.28
544.15	24123.90
544.32	23889.85
544.48	24109.86
544.65	23864.10
544.82	23737.71
544.99	23611.32
545.16	23850.06
545.32	25118.63
545.49	38019.66
545.66	58930.01
545.83	65535.00
546.00	65535.00
546.16	54204.47
546.33	42181.13
546.50	32034.91
546.67	24854.15
546.83	21736.56
547.00	20538.20
547.17	19777.53
547.34	18895.14
547.50	17998.72
547.67	17654.66
547.84	16875.26
548.00	16388.43
548.17	15749.46
548.34	14963.04
548.51	14122.79
548.67	13877.04
548.84	12702.09
549.01	12182.49
549.18	11854.81
549.34	11262.66
549.51	10834.34
549.68	10448.15
549.84	9923.87
550.01	9699.18
550.18	9102.34
550.34	8674.03
550.51	8236.35
550.68	7957.82
550.84	7358.64
551.01	7023.95
551.18	6853.09
551.34	6499.67
551.51	6190.72
551.68	5846.66
551.84	5710.91
552.01	5390.25
552.18	5273.23
552.34	5022.79
552.51	5041.51
552.68	4592.13
552.84	4447.02
553.01	4292.54
553.18	4063.17
553.34	3918.06
553.51	3892.31
553.67	3782.31
553.84	3693.37
554.01	3370.37
554.17	3204.19
554.34	3033.33
554.51	2754.81
554.67	2675.23
554.84	2506.71
555.00	2399.05
555.17	2284.36
555.33	2099.46
555.50	2101.80
555.67	1914.56
555.83	1867.75
556.00	1774.13
556.16	1933.28
556.33	1659.44
556.50	1568.16
556.66	1568.16
556.83	1434.75
556.99	1474.54
557.16	1509.65
557.32	1514.33
557.49	1355.17
557.65	1359.85
557.82	1275.59
557.98	1310.70
558.15	1203.04
558.32	1179.63
558.48	1165.59
558.65	1170.27
558.81	1128.14
558.98	1018.13
559.14	1039.20
559.31	1062.60
559.47	985.37
559.64	1032.18
559.80	983.02
559.97	999.41
560.13	863.66
560.30	1008.77
560.46	973.66
560.63	1013.45
560.79	905.79
560.96	910.47
561.12	863.66
561.29	882.38
561.45	891.74
561.61	945.58
561.78	987.71
561.94	957.28
562.11	980.68
562.27	882.38
562.44	917.49
562.60	976.00
562.77	910.47
562.93	954.94
563.10	833.23
563.26	873.02
563.42	880.04
563.59	833.23
563.75	807.48
563.92	826.21
564.08	739.61
564.24	809.83
564.41	770.04
564.57	737.27
564.74	681.10
564.90	784.08
565.07	744.29
565.23	770.04
565.39	763.01
565.56	741.95
565.72	758.33
565.88	842.59
566.05	751.31
566.21	650.67
566.38	795.78
566.54	770.04
566.70	711.52
566.87	681.10
567.03	688.12
567.19	772.38
567.36	734.93
567.52	746.63
567.68	739.61
567.85	741.95
568.01	704.50
568.17	763.01
568.34	819.19
568.50	851.96
568.66	739.61
568.83	863.66
568.99	676.41
569.15	723.23
569.32	627.26
569.48	650.67
569.64	535.98
569.81	514.92
569.97	620.24
570.13	557.05
570.30	578.11
570.46	561.73
570.62	512.58
570.78	545.34
570.95	610.88
571.11	571.09
571.27	540.66
571.43	482.15
571.60	660.03
571.76	540.66
571.92	526.62
572.09	500.87
572.25	543.00
572.41	603.86
572.57	582.79
572.74	552.37
572.90	636.63
573.06	599.18
573.22	540.66
573.38	575.77
573.55	599.18
573.71	643.65
573.87	606.20
574.03	653.01
574.20	643.65
574.36	697.48
574.52	650.67
574.68	770.04
574.84	713.86
575.01	746.63
575.17	812.17
575.33	828.55
575.49	877.70
575.65	940.90
575.82	997.07
575.98	1200.69
576.14	1158.57
576.30	2167.34
576.46	6878.83
576.62	14438.76
576.79	19917.96
576.95	14012.79
577.11	8290.18
577.27	5722.61
577.43	3742.52
577.59	2366.28
577.75	1907.54
577.92	1757.74
578.08	1671.14
578.24	1650.08
578.40	2565.23
578.56	6597.97
578.72	13640.64
578.88	17425.29
579.04	12573.36
579.21	8114.64
579.37	5944.96
579.53	4521.92
579.69	4074.87
579.85	4950.23
580.01	6097.10
580.17	6174.33
580.33	5341.10
580.49	4367.44
580.65	3845.50
580.82	3508.46
580.98	3358.67
581.14	3393.78
581.30	3709.75
581.46	3880.61
581.62	4154.45
581.78	4468.08
581.94	4877.68
582.10	5060.24
582.26	5437.06
582.42	5703.89
582.58	5661.76
582.74	5809.21
582.90	5905.17
583.06	6080.71
583.22	5951.98
583.38	5968.37
583.54	5895.81
583.70	5891.13
583.86	5841.98
584.02	5631.33
584.18	5659.42
584.34	5741.33
584.50	5439.40
584.66	5451.11
584.82	5376.21
584.98	5327.06
585.14	5275.57
585.30	5198.33
585.46	5050.88
585.62	4957.25
585.78	4844.91
585.94	5064.92
586.10	4990.02
586.26	5226.42
586.42	5994.11
586.58	7068.42
586.74	8505.51
586.90	10394.32
587.06	11922.69
587.22	11880.56
587.38	10333.47
587.54	9186.60
587.70	7660.57
587.86	6473.92
588.02	5511.96
588.18	5001.72
588.34	4374.46
588.49	4009.34
588.65	3812.73
588.81	3445.27
588.97	3375.05
589.13	3365.69
589.29	3332.92
589.45	3152.70
589.61	3117.59
589.77	3368.03
589.93	3236.96
590.08	3370.37
590.24	3426.54
590.40	3733.15
590.56	3574.00
590.72	3953.16
590.88	3786.99
591.04	4025.72
591.20	4173.18
591.35	4341.69
591.51	4447.02
591.67	4812.14
591.83	5020.45
591.99	5619.63
592.15	5813.89
592.31	6473.92
592.46	6841.39
592.62	7538.87
592.78	8095.91
592.94	8336.99
593.10	8308.90
593.26	8060.80
593.41	7510.78
593.57	6815.64
593.73	5968.37
593.89	5177.26
594.05	4603.83
594.20	4159.13
594.36	3740.18
594.52	3569.32
594.68	3375.05
594.84	3229.94
594.99	3122.27
595.15	3105.89
595.31	2963.12
595.47	2986.52
595.62	2944.39
595.78	2963.12
595.94	3033.33
596.10	3005.25
596.25	2890.56
596.41	2878.86
596.57	2771.19
596.73	2843.75
596.88	2935.03
597.04	3014.61
597.20	3016.95
597.36	2949.08
597.51	3021.63
597.67	3133.98
597.83	3494.42
597.99	3665.28
598.14	3740.18
598.30	4198.92
598.46	4365.10
598.61	4294.88
598.77	4610.86
598.93	4774.69
599.09	5036.83
599.24	5179.61
599.40	5172.58
599.56	4978.32
599.71	4636.60
599.87	4374.46
600.03	4084.23
600.18	3992.95
600.34	3712.09
600.50	3389.10
600.65	3138.66
600.81	3098.87
600.97	2843.75
601.12	2740.77
601.28	2647.15
601.44	2462.24
601.59	2284.36
601.75	2204.78
601.91	2111.16
602.06	2076.06
602.22	1982.43
602.37	1959.03
602.53	1982.43
602.69	2071.37
602.84	1954.35
603.00	1947.33
603.16	2024.56
603.31	2033.93
603.47	1944.99
603.62	1980.09
603.78	2150.95
603.94	2097.12
604.09	2237.55
604.25	2204.78
604.40	2218.83
604.56	2214.15
604.71	2230.53
604.87	2258.62
605.03	2326.49
605.18	2399.05
605.34	2452.88
605.49	2394.37
605.65	2600.34
605.80	2635.44
605.96	2686.94
606.12	2766.51
606.27	3009.93
606.43	3023.97
606.58	3152.70
606.74	3447.61
606.89	3562.30
607.05	3843.16
607.20	3882.95
607.36	4126.36
607.51	4236.37
607.67	4542.98
607.82	4894.06
607.98	5320.04
608.13	5680.48
608.29	6085.39
608.44	6619.04
608.60	7119.91
608.75	7925.05
608.91	8678.71
609.06	9415.98
609.22	10352.19
609.37	11428.84
609.53	13004.02
609.68	14904.53
609.84	17085.91
609.99	19782.21
610.15	23651.11
610.30	29209.89
610.46	36109.78
610.61	45841.73
610.76	54726.41
610.92	60456.04
611.07	64072.17
611.23	65010.72
611.38	63814.71
611.54	60842.23
611.69	56526.28
611.84	50773.24
612.00	43910.79
612.15	37029.62
612.31	31894.48
612.46	27915.57
612.62	26286.56
612.77	25188.85
612.92	23515.36
613.08	22148.49
613.23	20781.62
613.39	20175.42
613.54	19335.17
613.69	19323.46
613.85	19220.48
614.00	18930.25
614.15	18427.04
614.31	18466.83
614.46	18129.79
614.62	17348.05
614.77	16503.12
614.92	15482.64
615.08	14373.23
615.23	13319.99
615.38	12470.37
615.54	11187.76
615.69	10394.32
615.84	9582.15
616.00	8737.22
616.15	8121.66
616.30	7412.48
616.46	7152.68
616.61	6595.63
616.76	6317.11
616.92	6005.81
617.07	5654.73
617.22	5268.55
617.37	5081.30
617.53	4952.57
617.68	4631.92
617.83	4486.81
617.99	4348.72
618.14	4224.67
618.29	4021.04
618.45	4114.66
618.60	3829.12
618.75	3983.59
618.90	3911.04
619.06	3801.03
619.21	3754.22
619.36	3868.91
619.51	3789.33
619.67	3782.31
619.82	3726.13
619.97	4016.36
620.12	3761.24
620.28	4086.58
620.43	4053.81
620.58	4175.52
620.73	4271.48
620.89	4140.41
621.04	3992.95
621.19	4072.53
621.34	4004.66
621.49	3934.44
621.65	3988.27
621.80	4002.32
621.95	3859.54
622.10	3878.27
622.25	3871.25
622.41	4072.53
622.56	4098.28
622.71	4189.56
622.86	4304.25
623.01	4379.14
623.16	4432.97
623.32	4421.27
623.47	4404.89
623.62	4503.19
623.77	4395.53
623.92	4498.51
624.07	4535.96
624.23	4437.66
624.38	4566.39
624.53	4489.15
624.68	4468.08
624.83	4470.42
624.98	4507.87
625.13	4463.40
625.29	4519.57
625.44	4585.11
625.59	4631.92
625.74	4428.29
625.89	4631.92
626.04	4510.21
626.19	4430.63
626.34	4489.15
626.49	4496.17
626.65	4552.34
626.80	4535.96
626.95	4568.73
627.10	4524.26
627.25	4372.12
627.40	4348.72
627.55	4355.74
627.70	4168.49
627.85	4107.64
628.00	4208.28
628.15	3934.44
628.30	4021.04
628.45	4049.13
628.60	3997.64
628.76	4100.62
628.91	4170.83
629.06	4131.05
629.21	4163.81
629.36	4306.59
629.51	4428.29
629.66	4692.77
629.81	4975.98
629.96	5359.83
630.11	5893.47
630.26	6527.75
630.41	7442.90
630.56	8238.69
630.71	8706.79
630.86	9097.66
631.01	8784.03
631.16	8315.92
631.31	7297.79
631.46	6401.37
631.61	5383.23
631.76	4461.06
631.91	3737.84
632.06	3087.17
632.21	2773.53
632.36	2539.48
632.51	2092.44
632.66	2019.88
632.81	1748.38
632.96	1781.15
633.10	1607.95
633.25	1563.48
633.40	1575.18
633.55	1437.09
633.70	1310.70
633.85	1350.49
634.00	1343.47
634.15	1280.27
634.30	1177.29
634.45	1188.99
634.60	1158.57
634.75	1238.14
634.90	1184.31
635.05	1254.53
635.19	1139.84
635.34	1186.65
635.49	1118.78
635.64	943.24
635.79	1025.15
635.94	1043.88
636.09	1050.90
636.24	983.02
636.39	940.90
636.53	945.58
636.68	912.81
636.83	931.53
636.98	1004.09
637.13	933.87
637.28	858.98
637.43	866.00
637.57	898.77
637.72	943.24
637.87	863.66
638.02	875.36
638.17	901.11
638.32	835.57
638.46	798.12
638.61	856.64
638.76	805.14
638.91	791.10
639.06	638.97
639.20	828.55
639.35	819.19
639.50	746.63
639.65	723.23
639.80	753.65
639.94	800.46
640.09	819.19
640.24	760.67
640.39	791.10
640.54	702.16
640.68	795.78
640.83	713.86
640.98	702.16
641.13	709.18
641.27	802.80
641.42	681.10
641.57	748.97
641.72	760.67
641.86	702.16
642.01	772.38
642.16	849.61
642.31	807.48
642.45	779.40
642.60	779.40
642.75	739.61
642.90	765.36
643.04	744.29
643.19	685.78
643.34	842.59
643.48	641.31
643.63	727.91
643.78	809.83
643.93	868.34
644.07	772.38
644.22	713.86
644.37	716.20
644.51	840.25
644.66	723.23
644.81	795.78
644.95	809.83
645.10	758.33
645.25	688.12
645.39	788.76
645.54	777.06
645.69	842.59
645.83	650.67
645.98	727.91
646.13	751.31
646.27	737.27
646.42	676.41
646.57	741.95
646.71	648.33
646.86	699.82
647.00	725.57
647.15	730.25
647.30	685.78
647.44	638.97
647.59	727.91
647.74	723.23
647.88	732.59
648.03	683.44
648.17	770.04
648.32	737.27
648.47	720.88
648.61	807.48
648.76	737.27
648.90	798.12
649.05	940.90
649.20	863.66
649.34	973.66
649.49	1114.10
649.63	1203.04
649.78	1430.07
649.92	1680.50
650.07	2019.88
650.21	2293.72
650.36	2464.58
650.51	2436.50
650.65	2307.77
650.80	2129.89
650.94	1907.54
651.09	1614.97
651.23	1444.11
651.38	1373.89
651.52	1184.31
651.67	1196.01
651.81	950.26
651.96	1041.54
652.10	976.00
652.25	936.21
652.39	1015.79
652.54	990.05
652.68	1118.78
652.83	1221.76
652.97	1228.78
653.12	1256.87
653.26	1172.61
653.41	1151.54
653.55	1130.48
653.70	1006.43
653.84	837.91
653.99	844.93
654.13	805.14
654.27	744.29
654.42	716.20
654.56	779.40
654.71	828.55
654.85	723.23
655.00	636.63
655.14	755.99
655.29	620.24
655.43	702.16
655.57	697.48
655.72	594.50
655.86	671.73
656.01	671.73
656.15	613.22
656.30	681.10
656.44	739.61
656.58	671.73
656.73	690.46
656.87	634.29
657.01	695.14
657.16	737.27
657.30	763.01
657.45	805.14
657.59	870.68
657.73	784.08
657.88	870.68
658.02	936.21
658.16	823.87
658.31	732.59
658.45	660.03
658.60	543.00
658.74	667.05
658.88	533.64
659.03	613.22
659.17	627.26
659.31	496.19
659.46	512.58
659.60	507.90
659.74	500.87
659.89	500.87
660.03	596.84
660.17	510.24
660.32	594.50
660.46	566.41
660.60	552.37
660.74	571.09
660.89	568.75
661.03	571.09
661.17	456.40
661.32	557.05
661.46	765.36
661.60	837.91
661.74	945.58
661.89	1224.10
662.03	1376.24
662.17	1425.39
662.31	1563.48
662.46	1528.37
662.60	1446.45
662.74	1336.45
662.88	1097.71
663.03	933.87
663.17	912.81
663.31	807.48
663.45	784.08
663.60	744.29
663.74	685.78
663.88	674.07
664.02	631.94
664.17	601.52
664.31	610.88
664.45	554.71
664.59	653.01
664.73	629.60
664.88	571.09
665.02	498.53
665.16	533.64
665.30	470.45
665.44	472.79
665.59	547.69
665.73	477.47
665.87	468.11
666.01	510.24
666.15	512.58
666.29	407.25
666.44	503.22
666.58	636.63
666.72	484.49
666.86	486.83
667.00	613.22
667.14	470.45
667.28	531.30
667.43	543.00
667.57	463.43
667.71	477.47
667.85	533.64
667.99	519.60
668.13	521.94
668.27	493.85
668.41	500.87
668.56	449.38
668.70	561.73
668.84	538.32
668.98	517.26
669.12	447.04
669.26	507.90
669.40	461.09
669.54	430.66
669.68	482.15
669.82	444.70
669.96	437.68
670.10	444.70
670.25	414.27
670.39	423.64
670.53	475.13
670.67	430.66
670.81	458.74
670.95	491.51
671.09	465.77
671.23	425.98
671.37	433.00
671.51	533.64
671.65	538.32
671.79	381.51
671.93	493.85
672.07	418.96
672.21	367.46
672.35	428.32
672.49	397.89
672.63	500.87
672.77	355.76
672.91	383.85
673.05	416.62
673.19	472.79
673.33	433.00
673.47	482.15
673.61	362.78
673.75	395.55
673.89	365.12
674.03	383.85
674.17	470.45
674.31	332.36
674.45	449.38
674.59	383.85
674.73	379.17
674.87	353.42
675.01	407.25
675.15	339.38
675.29	376.83
675.43	421.30
675.56	409.59
675.70	325.33
675.84	355.76
675.98	337.04
676.12	243.42
676.26	367.46
676.40	313.63
676.54	294.91
676.68	362.78
676.82	369.80
676.96	358.10
677.10	355.76
677.23	402.57
677.37	311.29
677.51	332.36
677.65	430.66
677.79	346.40
677.93	332.36
678.07	318.31
678.21	341.72
678.34	344.06
678.48	266.82
678.62	365.12
678.76	311.29
678.90	339.38
679.04	351.08
679.18	344.06
679.31	355.76
679.45	393.21
679.59	395.55
679.73	381.51
679.87	332.36
680.00	376.83
680.14	463.43
680.28	421.30
680.42	383.85
680.56	444.70
680.70	358.10
680.83	379.17
680.97	425.98
681.11	444.70
681.25	383.85
681.39	346.40
681.52	425.98
681.66	423.64
681.80	456.40
681.94	383.85
682.07	299.59
682.21	355.76
682.35	416.62
682.49	327.68
682.62	308.95
682.76	322.99
682.90	337.04
683.04	381.51
683.17	407.25
683.31	346.40
683.45	433.00
683.59	334.70
683.72	381.51
683.86	318.31
684.00	259.80
684.13	369.80
684.27	318.31
684.41	297.25
684.55	339.38
684.68	334.70
684.82	269.16
684.96	365.12
685.09	365.12
685.23	327.68
685.37	318.31
685.50	348.74
685.64	348.74
685.78	393.21
685.91	425.98
686.05	418.96
686.19	489.17
686.32	454.06
686.46	486.83
686.60	484.49
686.73	589.82
686.87	599.18
687.01	622.58
687.14	634.29
687.28	648.33
687.42	770.04
687.55	784.08
687.69	856.64
687.82	807.48
687.96	858.98
688.10	821.53
688.23	744.29
688.37	716.20
688.50	690.46
688.64	678.76
688.78	585.13
688.91	535.98
689.05	411.93
689.18	418.96
689.32	383.85
689.46	404.91
689.59	322.99
689.73	362.78
689.86	346.40
690.00	299.59
690.13	311.29
690.27	201.29
690.41	355.76
690.54	395.55
690.68	411.93
690.81	444.70
690.95	337.04
691.08	327.68
691.22	292.57
691.35	301.93
691.49	271.50
691.62	229.37
691.76	276.18
691.89	304.27
692.03	241.08
692.16	241.08
692.30	208.31
692.43	292.57
692.57	208.31
692.70	264.48
692.84	250.44
692.97	332.36
693.11	355.76
693.24	465.77
693.38	456.40
693.51	610.88
693.65	741.95
693.78	760.67
693.92	669.39
694.05	592.16
694.19	526.62
694.32	433.00
694.45	322.99
694.59	358.10
694.72	306.61
694.86	308.95
694.99	287.89
695.13	170.86
695.26	231.71
695.39	229.37
695.53	301.93
695.66	241.08
695.80	264.48
695.93	194.26
696.07	243.42
696.20	243.42
696.33	299.59
696.47	234.05
696.60	273.84
696.73	271.50
696.87	182.56
697.00	250.44
697.14	114.69
697.27	238.73
697.40	238.73
697.54	147.45
697.67	217.67
697.80	105.32
697.94	208.31
698.07	175.54
698.21	161.50
698.34	182.56
698.47	154.48
698.61	229.37
698.74	133.41
698.87	208.31
699.01	156.82
699.14	159.16
699.27	203.63
699.40	283.20
699.54	182.56
699.67	159.16
699.80	124.05
699.94	175.54
700.07	117.03
700.20	126.39
700.34	205.97
700.47	88.94
700.60	187.24
700.73	201.29
700.87	273.84
701.00	212.99
701.13	168.52
701.26	203.63
701.40	161.50
701.53	189.58
701.66	135.75
701.79	142.77
701.93	266.82
702.06	187.24
702.19	210.65
702.32	177.88
702.46	273.84
702.59	208.31
702.72	194.26
702.85	161.50
702.99	201.29
703.12	238.73
703.25	266.82
703.38	205.97
703.51	299.59
703.65	259.80
703.78	205.97
703.91	325.33
704.04	332.36
704.17	297.25
704.31	290.23
704.44	325.33
704.57	280.86
704.70	322.99
704.83	346.40
704.96	358.10
705.10	362.78
705.23	313.63
>>>>>End Processed Spectral Data<<<<<
