SpectraSuite Data File
++++++++++++++++++++++++++++++++++++
Date: Fri Oct 04 11:41:44 GMT-05:00 2013
User: price-jones
Dark Spectrum Present: No
Reference Spectrum Present: No
Number of Sampled Component Spectra: 1
Spectrometers: USB2+H05261
Integration Time (usec): 100000 (USB2+H05261)
Spectra Averaged: 1 (USB2+H05261)
Boxcar Smoothing: 0 (USB2+H05261)
Correct for Electrical Dark: No (USB2+H05261)
Strobe/Lamp Enabled: No (USB2+H05261)
Correct for Detector Non-linearity: No (USB2+H05261)
Correct for Stray Light: No (USB2+H05261)
Number of Pixels in Processed Spectrum: 2048
>>>>>Begin Processed Spectral Data<<<<<
365.73	65.54
365.92	65.54
366.12	65.54
366.32	0.00
366.52	0.00
366.72	0.00
366.91	0.00
367.11	0.00
367.31	0.00
367.51	0.00
367.70	0.00
367.90	9.36
368.10	0.00
368.30	0.00
368.49	0.00
368.69	0.00
368.89	0.00
369.09	0.00
369.28	2.34
369.48	0.00
369.68	0.00
369.87	42.13
370.07	23.41
370.27	126.39
370.47	0.00
370.66	37.45
370.86	70.22
371.06	117.03
371.25	105.32
371.45	51.49
371.65	65.54
371.84	53.83
372.04	32.77
372.24	175.54
372.44	23.41
372.63	81.92
372.83	159.16
373.03	86.60
373.22	138.09
373.42	98.30
373.62	88.94
373.81	114.69
374.01	203.63
374.21	114.69
374.40	93.62
374.60	220.01
374.79	168.52
374.99	93.62
375.19	145.11
375.38	119.37
375.58	70.22
375.78	102.98
375.97	133.41
376.17	152.13
376.37	79.58
376.56	23.41
376.76	203.63
376.95	154.48
377.15	128.73
377.35	173.20
377.54	81.92
377.74	177.88
377.93	102.98
378.13	119.37
378.33	126.39
378.52	184.90
378.72	131.07
378.91	149.79
379.11	119.37
379.31	51.49
379.50	145.11
379.70	124.05
379.89	135.75
380.09	121.71
380.28	98.30
380.48	135.75
380.68	93.62
380.87	131.07
381.07	196.60
381.26	84.26
381.46	161.50
381.65	168.52
381.85	154.48
382.04	135.75
382.24	98.30
382.43	110.01
382.63	100.64
382.83	154.48
383.02	88.94
383.22	135.75
383.41	74.90
383.61	133.41
383.80	149.79
384.00	154.48
384.19	119.37
384.39	140.43
384.58	11.70
384.78	187.24
384.97	110.01
385.17	72.56
385.36	84.26
385.56	112.35
385.75	142.77
385.95	121.71
386.14	131.07
386.34	147.45
386.53	187.24
386.72	95.96
386.92	42.13
387.11	102.98
387.31	156.82
387.50	159.16
387.70	98.30
387.89	126.39
388.09	135.75
388.28	126.39
388.48	140.43
388.67	182.56
388.86	145.11
389.06	67.88
389.25	128.73
389.45	177.88
389.64	93.62
389.84	149.79
390.03	135.75
390.22	117.03
390.42	135.75
390.61	215.33
390.81	156.82
391.00	121.71
391.19	121.71
391.39	140.43
391.58	102.98
391.78	126.39
391.97	114.69
392.16	133.41
392.36	112.35
392.55	166.18
392.75	60.85
392.94	56.17
393.13	215.33
393.33	126.39
393.52	168.52
393.71	198.95
393.91	88.94
394.10	91.28
394.29	128.73
394.49	98.30
394.68	140.43
394.88	149.79
395.07	168.52
395.26	114.69
395.46	154.48
395.65	86.60
395.84	152.13
396.04	189.58
396.23	77.24
396.42	117.03
396.62	152.13
396.81	84.26
397.00	119.37
397.19	180.22
397.39	187.24
397.58	161.50
397.77	187.24
397.97	182.56
398.16	210.65
398.35	182.56
398.55	117.03
398.74	131.07
398.93	149.79
399.12	152.13
399.32	166.18
399.51	128.73
399.70	124.05
399.90	131.07
400.09	128.73
400.28	236.39
400.47	161.50
400.67	154.48
400.86	133.41
401.05	168.52
401.24	175.54
401.44	124.05
401.63	191.92
401.82	133.41
402.01	145.11
402.21	266.82
402.40	236.39
402.59	170.86
402.78	236.39
402.97	245.76
403.17	250.44
403.36	320.65
403.55	351.08
403.74	645.99
403.93	2214.15
404.13	5579.84
404.32	8758.28
404.51	8606.15
404.70	5439.40
404.89	2015.20
405.09	620.24
405.28	313.63
405.47	266.82
405.66	255.12
405.85	231.71
406.05	184.90
406.24	252.78
406.43	276.18
406.62	299.59
406.81	332.36
407.00	365.12
407.20	732.59
407.39	1200.69
407.58	1291.98
407.77	931.53
407.96	599.18
408.15	351.08
408.34	201.29
408.54	255.12
408.73	201.29
408.92	201.29
409.11	234.05
409.30	215.33
409.49	159.16
409.68	229.37
409.87	248.10
410.07	152.13
410.26	180.22
410.45	229.37
410.64	147.45
410.83	248.10
411.02	231.71
411.21	217.67
411.40	264.48
411.59	245.76
411.78	229.37
411.98	227.03
412.17	231.71
412.36	245.76
412.55	269.16
412.74	212.99
412.93	210.65
413.12	180.22
413.31	248.10
413.50	250.44
413.69	257.46
413.88	313.63
414.07	348.74
414.26	217.67
414.45	278.52
414.64	250.44
414.83	278.52
415.02	224.69
415.22	276.18
415.41	339.38
415.60	292.57
415.79	306.61
415.98	264.48
416.17	248.10
416.36	290.23
416.55	297.25
416.74	245.76
416.93	341.72
417.12	259.80
417.31	283.20
417.50	297.25
417.69	313.63
417.88	339.38
418.07	264.48
418.26	220.01
418.45	250.44
418.64	266.82
418.83	332.36
419.02	294.91
419.21	257.46
419.39	341.72
419.58	292.57
419.77	348.74
419.96	339.38
420.15	341.72
420.34	292.57
420.53	306.61
420.72	409.59
420.91	334.70
421.10	313.63
421.29	283.20
421.48	301.93
421.67	285.55
421.86	379.17
422.05	376.83
422.24	313.63
422.43	334.70
422.61	311.29
422.80	280.86
422.99	285.55
423.18	292.57
423.37	341.72
423.56	339.38
423.75	379.17
423.94	353.42
424.13	332.36
424.32	339.38
424.50	294.91
424.69	325.33
424.88	449.38
425.07	360.44
425.26	388.53
425.45	348.74
425.64	351.08
425.83	456.40
426.01	334.70
426.20	369.80
426.39	339.38
426.58	315.97
426.77	362.78
426.96	351.08
427.15	318.31
427.33	404.91
427.52	437.68
427.71	376.83
427.90	430.66
428.09	362.78
428.28	367.46
428.46	372.15
428.65	463.43
428.84	444.70
429.03	428.32
429.22	442.36
429.40	397.89
429.59	435.34
429.78	475.13
429.97	381.51
430.16	411.93
430.34	407.25
430.53	374.49
430.72	554.71
430.91	456.40
431.10	390.87
431.28	489.17
431.47	437.68
431.66	451.72
431.85	465.77
432.03	510.24
432.22	557.05
432.41	437.68
432.60	519.60
432.79	496.19
432.97	573.43
433.16	500.87
433.35	613.22
433.54	791.10
433.72	732.59
433.91	805.14
434.10	723.23
434.28	961.96
434.47	1139.84
434.66	1413.68
434.85	1549.43
435.03	3712.09
435.22	13226.37
435.41	34103.95
435.59	44622.31
435.78	30223.34
435.97	14588.56
436.16	5511.96
436.34	1732.00
436.53	1027.50
436.72	910.47
436.90	763.01
437.09	638.97
437.28	610.88
437.46	643.65
437.65	648.33
437.84	601.52
438.02	559.39
438.21	557.05
438.40	613.22
438.58	540.66
438.77	613.22
438.96	550.03
439.14	465.77
439.33	547.69
439.52	486.83
439.70	500.87
439.89	561.73
440.08	540.66
440.26	559.39
440.45	510.24
440.63	580.45
440.82	662.37
441.01	526.62
441.19	500.87
441.38	526.62
441.57	491.51
441.75	533.64
441.94	580.45
442.12	589.82
442.31	557.05
442.50	585.13
442.68	526.62
442.87	512.58
443.05	545.34
443.24	575.77
443.43	603.86
443.61	587.47
443.80	470.45
443.98	561.73
444.17	500.87
444.35	610.88
444.54	545.34
444.73	468.11
444.91	561.73
445.10	571.09
445.28	559.39
445.47	566.41
445.65	547.69
445.84	519.60
446.02	512.58
446.21	531.30
446.39	514.92
446.58	575.77
446.77	465.77
446.95	526.62
447.14	510.24
447.32	507.90
447.51	461.09
447.69	482.15
447.88	524.28
448.06	564.07
448.25	575.77
448.43	531.30
448.62	463.43
448.80	512.58
448.99	540.66
449.17	545.34
449.36	561.73
449.54	543.00
449.73	566.41
449.91	578.11
450.10	496.19
450.28	622.58
450.46	578.11
450.65	571.09
450.83	505.56
451.02	528.96
451.20	500.87
451.39	568.75
451.57	500.87
451.76	505.56
451.94	489.17
452.13	482.15
452.31	566.41
452.49	477.47
452.68	479.81
452.86	582.79
453.05	571.09
453.23	484.49
453.42	484.49
453.60	449.38
453.78	510.24
453.97	482.15
454.15	414.27
454.34	489.17
454.52	561.73
454.70	566.41
454.89	479.81
455.07	585.13
455.26	517.26
455.44	489.17
455.62	505.56
455.81	519.60
455.99	575.77
456.17	554.71
456.36	538.32
456.54	631.94
456.73	517.26
456.91	531.30
457.09	514.92
457.28	526.62
457.46	447.04
457.64	589.82
457.83	475.13
458.01	440.02
458.19	451.72
458.38	458.74
458.56	498.53
458.74	421.30
458.93	589.82
459.11	524.28
459.29	538.32
459.48	531.30
459.66	510.24
459.84	594.50
460.03	589.82
460.21	571.09
460.39	535.98
460.57	557.05
460.76	503.22
460.94	475.13
461.12	521.94
461.31	631.94
461.49	440.02
461.67	589.82
461.85	477.47
462.04	456.40
462.22	645.99
462.40	503.22
462.59	496.19
462.77	498.53
462.95	566.41
463.13	482.15
463.32	538.32
463.50	524.28
463.68	517.26
463.86	493.85
464.05	437.68
464.23	568.75
464.41	566.41
464.59	503.22
464.78	535.98
464.96	440.02
465.14	468.11
465.32	444.70
465.50	603.86
465.69	444.70
465.87	528.96
466.05	493.85
466.23	449.38
466.41	500.87
466.60	561.73
466.78	552.37
466.96	580.45
467.14	531.30
467.32	629.60
467.51	514.92
467.69	472.79
467.87	479.81
468.05	470.45
468.23	444.70
468.41	475.13
468.60	444.70
468.78	493.85
468.96	503.22
469.14	528.96
469.32	498.53
469.50	360.44
469.69	465.77
469.87	528.96
470.05	440.02
470.23	475.13
470.41	447.04
470.59	545.34
470.77	379.17
470.95	510.24
471.14	535.98
471.32	496.19
471.50	557.05
471.68	489.17
471.86	489.17
472.04	510.24
472.22	512.58
472.40	472.79
472.58	386.19
472.77	468.11
472.95	543.00
473.13	507.90
473.31	479.81
473.49	571.09
473.67	454.06
473.85	479.81
474.03	601.52
474.21	440.02
474.39	557.05
474.57	449.38
474.75	440.02
474.93	496.19
475.12	479.81
475.30	524.28
475.48	414.27
475.66	493.85
475.84	468.11
476.02	496.19
476.20	557.05
476.38	503.22
476.56	582.79
476.74	479.81
476.92	500.87
477.10	592.16
477.28	587.47
477.46	568.75
477.64	470.45
477.82	550.03
478.00	557.05
478.18	538.32
478.36	606.20
478.54	517.26
478.72	573.43
478.90	596.84
479.08	594.50
479.26	645.99
479.44	589.82
479.62	653.01
479.80	613.22
479.98	613.22
480.16	779.40
480.34	718.54
480.52	807.48
480.70	718.54
480.88	763.01
481.06	819.19
481.24	931.53
481.41	877.70
481.59	1008.77
481.77	971.32
481.95	1078.99
482.13	1196.01
482.31	1151.54
482.49	1273.25
482.67	1441.77
482.85	1533.05
483.03	1584.54
483.21	1692.21
483.39	1813.92
483.57	1888.81
483.74	2120.53
483.92	2127.55
484.10	2267.98
484.28	2396.71
484.46	2504.37
484.64	2672.89
484.82	2684.59
485.00	2939.71
485.18	3038.02
485.35	3353.99
485.53	3379.73
485.71	3545.91
485.89	3700.39
486.07	3782.31
486.25	3822.09
486.43	3803.37
486.61	4004.66
486.78	3920.40
486.96	3857.20
487.14	3908.69
487.32	3896.99
487.50	3901.67
487.68	3894.65
487.85	3829.12
488.03	3836.14
488.21	3698.05
488.39	3651.24
488.57	3602.08
488.75	3431.23
488.92	3613.79
489.10	3225.26
489.28	3227.60
489.46	3239.30
489.64	3066.10
489.81	3084.83
489.99	3080.14
490.17	2906.95
490.35	2946.73
490.53	2951.42
490.70	2897.58
490.88	2970.14
491.06	3075.46
491.24	3304.84
491.41	3482.72
491.59	3248.66
491.77	2864.82
491.95	2843.75
492.13	2686.94
492.30	2677.57
492.48	2597.99
492.66	2558.21
492.84	2651.83
493.01	2497.35
493.19	2389.69
493.37	2527.78
493.54	2544.16
493.72	2342.88
493.90	2387.35
494.08	2314.79
494.25	2270.32
494.43	2307.77
494.61	2239.89
494.79	2139.25
494.96	2218.83
495.14	2108.82
495.32	2202.44
495.49	2038.61
495.67	2113.50
495.85	2040.95
496.02	2019.88
496.20	1940.30
496.38	1926.26
496.55	1870.09
496.73	1799.87
496.91	1806.89
497.09	1846.68
497.26	1792.85
497.44	1717.95
497.62	1769.44
497.79	1689.87
497.97	1631.35
498.14	1600.93
498.32	1444.11
498.50	1504.96
498.67	1507.30
498.85	1432.41
499.03	1465.18
499.20	1355.17
499.38	1397.30
499.56	1413.68
499.73	1334.11
499.91	1369.21
500.08	1294.32
500.26	1156.22
500.44	1263.89
500.61	1167.93
500.79	1062.60
500.97	1076.65
501.14	1083.67
501.32	1055.58
501.49	1046.22
501.67	931.53
501.84	966.64
502.02	882.38
502.20	868.34
502.37	964.30
502.55	880.04
502.72	849.61
502.90	828.55
503.07	814.51
503.25	795.78
503.43	746.63
503.60	741.95
503.78	748.97
503.95	758.33
504.13	636.63
504.30	664.71
504.48	741.95
504.65	723.23
504.83	638.97
505.01	643.65
505.18	631.94
505.36	683.44
505.53	587.47
505.71	622.58
505.88	683.44
506.06	620.24
506.23	629.60
506.41	543.00
506.58	547.69
506.76	552.37
506.93	477.47
507.11	620.24
507.28	533.64
507.46	505.56
507.63	580.45
507.81	578.11
507.98	580.45
508.16	507.90
508.33	596.84
508.50	566.41
508.68	566.41
508.85	559.39
509.03	535.98
509.20	559.39
509.38	643.65
509.55	587.47
509.73	538.32
509.90	620.24
510.08	498.53
510.25	500.87
510.42	407.25
510.60	484.49
510.77	578.11
510.95	545.34
511.12	533.64
511.30	461.09
511.47	519.60
511.64	610.88
511.82	484.49
511.99	524.28
512.17	461.09
512.34	507.90
512.51	433.00
512.69	423.64
512.86	484.49
513.04	470.45
513.21	482.15
513.38	451.72
513.56	465.77
513.73	477.47
513.90	510.24
514.08	416.62
514.25	395.55
514.43	470.45
514.60	409.59
514.77	437.68
514.95	418.96
515.12	451.72
515.29	489.17
515.47	465.77
515.64	395.55
515.81	395.55
515.99	444.70
516.16	498.53
516.33	482.15
516.51	461.09
516.68	414.27
516.85	423.64
517.03	393.21
517.20	393.21
517.37	414.27
517.54	442.36
517.72	388.53
517.89	365.12
518.06	414.27
518.24	402.57
518.41	402.57
518.58	440.02
518.75	367.46
518.93	400.23
519.10	421.30
519.27	365.12
519.45	482.15
519.62	402.57
519.79	421.30
519.96	402.57
520.14	456.40
520.31	421.30
520.48	397.89
520.65	458.74
520.83	416.62
521.00	463.43
521.17	404.91
521.34	407.25
521.52	367.46
521.69	475.13
521.86	320.65
522.03	390.87
522.20	435.34
522.38	409.59
522.55	374.49
522.72	351.08
522.89	465.77
523.07	477.47
523.24	402.57
523.41	369.80
523.58	351.08
523.75	348.74
523.92	395.55
524.10	404.91
524.27	358.10
524.44	322.99
524.61	374.49
524.78	397.89
524.96	381.51
525.13	376.83
525.30	468.11
525.47	493.85
525.64	500.87
525.81	423.64
525.98	477.47
526.16	454.06
526.33	425.98
526.50	479.81
526.67	475.13
526.84	404.91
527.01	454.06
527.18	503.22
527.36	587.47
527.53	526.62
527.70	531.30
527.87	496.19
528.04	587.47
528.21	496.19
528.38	428.32
528.55	557.05
528.72	491.51
528.89	510.24
529.07	512.58
529.24	543.00
529.41	540.66
529.58	531.30
529.75	564.07
529.92	568.75
530.09	521.94
530.26	599.18
530.43	683.44
530.60	615.56
530.77	634.29
530.94	638.97
531.11	608.54
531.28	622.58
531.46	725.57
531.63	697.48
531.80	826.21
531.97	905.79
532.14	926.85
532.31	1090.69
532.48	1284.95
532.65	1465.18
532.82	1621.99
532.99	1949.67
533.16	2298.41
533.33	2389.69
533.50	2195.42
533.67	1977.75
533.84	1643.06
534.01	1448.79
534.18	1448.79
534.35	1266.23
534.52	1350.49
534.69	1486.24
534.86	1334.11
535.03	1413.68
535.20	1542.41
535.37	1645.40
535.54	1703.91
535.71	1827.96
535.88	1907.54
536.05	1935.62
536.22	2148.61
536.38	2361.60
536.55	2534.80
536.72	2923.33
536.89	3204.19
537.06	3609.11
537.23	3978.91
537.40	4400.21
537.57	4685.75
537.74	4816.82
537.91	5310.68
538.08	5142.16
538.25	5268.55
538.42	5373.87
538.59	5284.93
538.75	5703.89
538.92	5802.19
539.09	6544.14
539.26	7232.26
539.43	8301.88
539.60	9301.29
539.77	10611.99
539.94	11903.96
540.11	12940.82
540.28	14391.95
540.44	15749.46
540.61	17280.18
540.78	19695.61
540.95	23534.09
541.12	28453.89
541.29	32498.34
541.46	34747.59
541.62	34005.64
541.79	32648.13
541.96	30485.48
542.13	28737.10
542.30	26431.67
542.47	24727.76
542.63	23103.43
542.80	22679.79
542.97	21956.57
543.14	22185.94
543.31	22354.46
543.48	22082.95
543.64	22183.60
543.81	22939.59
543.98	22726.60
544.15	22920.87
544.32	23157.26
544.48	23161.94
544.65	22871.72
544.82	22415.31
544.99	22181.26
545.16	23445.15
545.32	24238.59
545.49	35538.69
545.66	57897.83
545.83	65535.00
546.00	64828.16
546.16	53155.91
546.33	40727.66
546.50	30478.46
546.67	23831.33
546.83	21048.44
547.00	20060.73
547.17	19005.15
547.34	18244.48
547.50	17357.41
547.67	16854.20
547.84	16023.31
548.00	15222.84
548.17	14949.00
548.34	14150.88
548.51	13877.04
548.67	13125.72
548.84	12320.58
549.01	11845.45
549.18	11316.49
549.34	10806.25
549.51	10450.49
549.68	10520.71
549.84	9764.72
550.01	9394.91
550.18	8938.51
550.34	8582.74
550.51	8056.12
550.68	7782.28
550.84	7197.15
551.01	6841.39
551.18	6396.68
551.34	6083.05
551.51	5741.33
551.68	5678.14
551.84	5296.63
552.01	5135.14
552.18	5011.09
552.34	4777.03
552.51	4730.22
552.68	4341.69
552.84	4203.60
553.01	4210.62
553.18	4023.38
553.34	3885.29
553.51	3693.37
553.67	3737.84
553.84	3400.80
554.01	3339.94
554.17	3112.91
554.34	2782.90
554.51	2677.57
554.67	2523.10
554.84	2394.37
555.00	2209.47
555.17	2242.23
555.33	2054.99
555.50	1963.71
555.67	1937.96
555.83	1802.21
556.00	1776.47
556.16	1790.51
556.33	1619.65
556.50	1621.99
556.66	1516.67
556.83	1413.68
556.99	1453.47
557.16	1324.74
557.32	1235.80
557.49	1242.82
557.65	1315.38
557.82	1233.46
557.98	1193.67
558.15	1167.93
558.32	1170.27
558.48	1018.13
558.65	1109.41
558.81	1083.67
558.98	1032.18
559.14	1018.13
559.31	1029.84
559.47	1011.11
559.64	992.39
559.80	1036.86
559.97	976.00
560.13	1008.77
560.30	873.02
560.46	884.72
560.63	964.30
560.79	866.00
560.96	964.30
561.12	880.04
561.29	898.77
561.45	929.19
561.61	990.05
561.78	919.83
561.94	947.92
562.11	922.17
562.27	929.19
562.44	887.06
562.60	868.34
562.77	940.90
562.93	966.64
563.10	851.96
563.26	880.04
563.42	805.14
563.59	763.01
563.75	858.98
563.92	849.61
564.08	835.57
564.24	866.00
564.41	770.04
564.57	748.97
564.74	732.59
564.90	706.84
565.07	786.42
565.23	716.20
565.39	650.67
565.56	755.99
565.72	772.38
565.88	638.97
566.05	641.31
566.21	650.67
566.38	760.67
566.54	716.20
566.70	730.25
566.87	765.36
567.03	704.50
567.19	737.27
567.36	741.95
567.52	622.58
567.68	727.91
567.85	716.20
568.01	748.97
568.17	746.63
568.34	734.93
568.50	746.63
568.66	671.73
568.83	793.44
568.99	702.16
569.15	723.23
569.32	716.20
569.48	650.67
569.64	648.33
569.81	601.52
569.97	571.09
570.13	669.39
570.30	552.37
570.46	582.79
570.62	601.52
570.78	575.77
570.95	507.90
571.11	608.54
571.27	601.52
571.43	465.77
571.60	566.41
571.76	514.92
571.92	559.39
572.09	545.34
572.25	641.31
572.41	517.26
572.57	535.98
572.74	587.47
572.90	538.32
573.06	535.98
573.22	564.07
573.38	631.94
573.55	615.56
573.71	631.94
573.87	535.98
574.03	606.20
574.20	643.65
574.36	697.48
574.52	645.99
574.68	711.52
574.84	720.88
575.01	802.80
575.17	741.95
575.33	760.67
575.49	868.34
575.65	926.85
575.82	1062.60
575.98	1107.07
576.14	1242.82
576.30	2230.53
576.46	6813.30
576.62	13760.01
576.79	18122.77
576.95	12882.31
577.11	8107.62
577.27	5451.11
577.43	3679.32
577.59	2314.79
577.75	1748.38
577.92	1699.23
578.08	1542.41
578.24	1631.35
578.40	2471.61
578.56	6373.28
578.72	12702.09
578.88	16266.72
579.04	11971.84
579.21	7531.84
579.37	5544.73
579.53	4337.01
579.69	4032.74
579.85	4816.82
580.01	5888.79
580.17	6066.67
580.33	5139.82
580.49	4191.90
580.65	3702.73
580.82	3562.30
580.98	3239.30
581.14	3353.99
581.30	3627.83
581.46	3716.77
581.62	4044.45
581.78	4362.76
581.94	4695.11
582.10	5069.60
582.26	5357.49
582.42	5462.81
582.58	5469.83
582.74	5671.12
582.90	5734.31
583.06	5577.50
583.22	5668.78
583.38	5804.53
583.54	5736.65
583.70	5708.57
583.86	5603.24
584.02	5247.48
584.18	5514.30
584.34	5387.91
584.50	5205.35
584.66	5170.24
584.82	4994.70
584.98	5137.48
585.14	5032.15
585.30	4929.17
585.46	4786.40
585.62	4748.95
585.78	4765.33
585.94	4695.11
586.10	4870.65
586.26	5008.75
586.42	5813.89
586.58	6738.40
586.74	8400.18
586.90	10387.30
587.06	11187.76
587.22	11562.25
587.38	10223.46
587.54	8837.86
587.70	7501.42
587.86	6258.59
588.02	5256.84
588.18	4566.39
588.34	4194.24
588.49	3913.38
588.65	3522.51
588.81	3461.65
588.97	3176.11
589.13	3279.09
589.29	3262.71
589.45	3176.11
589.61	3101.21
589.77	3337.60
589.93	3253.34
590.08	3220.58
590.24	3314.20
590.40	3389.10
590.56	3414.84
590.72	3684.00
590.88	3789.33
591.04	3831.46
591.20	3904.01
591.35	4236.37
591.51	4266.80
591.67	4524.26
591.83	4795.76
591.99	5109.39
592.15	5715.59
592.31	6017.52
592.46	6803.94
592.62	7365.67
592.78	7854.84
592.94	8030.38
593.10	8140.38
593.26	7719.09
593.41	7129.27
593.57	6389.66
593.73	5727.29
593.89	4961.94
594.05	4400.21
594.20	4046.79
594.36	3719.11
594.52	3393.78
594.68	3180.79
594.84	3199.51
594.99	3073.12
595.15	2937.37
595.31	2834.39
595.47	2906.95
595.62	2850.77
595.78	2810.98
595.94	2911.63
596.10	2963.12
596.25	2902.26
596.41	2782.90
596.57	2810.98
596.73	2789.92
596.88	2719.70
597.04	2675.23
597.20	2832.05
597.36	2923.33
597.51	2902.26
597.67	3103.55
597.83	3269.73
597.99	3335.26
598.14	3688.68
598.30	3943.80
598.46	3756.56
598.61	4161.47
598.77	4477.44
598.93	4681.07
599.09	4798.10
599.24	4964.28
599.40	4784.06
599.56	4643.62
599.71	4671.71
599.87	4210.62
600.03	3922.74
600.18	3758.90
600.34	3625.49
600.50	3234.62
600.65	2956.10
600.81	2871.84
600.97	2682.25
601.12	2567.57
601.28	2473.95
601.44	2396.71
601.59	2223.51
601.75	2179.04
601.91	1970.73
602.06	2050.31
602.22	2026.90
602.37	1842.00
602.53	1930.94
602.69	1877.11
602.84	1837.32
603.00	1830.30
603.16	1942.64
603.31	1996.48
603.47	1959.03
603.62	1940.30
603.78	2017.54
603.94	2073.71
604.09	2155.63
604.25	2202.44
604.40	2183.72
604.56	2190.74
604.71	2153.29
604.87	2282.02
605.03	2258.62
605.18	2237.55
605.34	2415.43
605.49	2415.43
605.65	2586.29
605.80	2424.80
605.96	2499.69
606.12	2677.57
606.27	2911.63
606.43	2874.18
606.58	3061.42
606.74	3148.02
606.89	3293.13
607.05	3590.38
607.20	3843.16
607.36	3950.82
607.51	4329.99
607.67	4344.03
607.82	4770.01
607.98	5020.45
608.13	5359.83
608.29	5841.98
608.44	6438.81
608.60	6923.30
608.75	7616.10
608.91	8217.62
609.06	9083.62
609.22	10190.69
609.37	11222.87
609.53	12528.89
609.68	14143.86
609.84	16418.86
609.99	18750.03
610.15	22335.73
610.30	27999.83
610.46	35054.20
610.61	44341.45
610.76	54024.25
610.92	59870.90
611.07	62796.57
611.23	63718.74
611.38	63117.23
611.54	59765.58
611.69	55922.42
611.84	50230.24
612.00	42747.54
612.15	35945.95
612.31	31138.49
612.46	27482.57
612.62	25167.78
612.77	23847.72
612.92	22541.70
613.08	21111.63
613.23	20512.46
613.39	19349.21
613.54	18766.42
613.69	18677.48
613.85	18307.67
614.00	17825.52
614.15	17891.06
614.31	17413.59
614.46	17441.67
614.62	16669.30
614.77	15906.28
614.92	14738.35
615.08	13792.78
615.23	12781.67
615.38	12006.95
615.54	10593.26
615.69	9841.95
615.84	8910.42
616.00	8362.73
616.15	7801.01
616.30	7344.60
616.46	6871.81
616.61	6272.64
616.76	5987.09
616.92	5706.23
617.07	5577.50
617.22	5041.51
617.37	4748.95
617.53	4734.90
617.68	4402.55
617.83	4365.10
617.99	4308.93
618.14	4135.73
618.29	4065.51
618.45	3854.86
618.60	3831.46
618.75	3681.66
618.90	3660.60
619.06	3667.62
619.21	3655.92
619.36	3735.50
619.51	3637.19
619.67	3496.76
619.82	3695.71
619.97	3658.26
620.12	3847.84
620.28	4077.21
620.43	3730.81
620.58	4021.04
620.73	3929.76
620.89	4154.45
621.04	4098.28
621.19	4081.89
621.34	3861.88
621.49	3763.58
621.65	3756.56
621.80	3742.52
621.95	3861.88
622.10	3777.62
622.25	3632.51
622.41	3850.18
622.56	3971.89
622.71	4039.76
622.86	4231.69
623.01	4292.54
623.16	4255.09
623.32	4191.90
623.47	4285.52
623.62	4271.48
623.77	4442.34
623.92	4339.35
624.07	4341.69
624.23	4320.63
624.38	4175.52
624.53	4210.62
624.68	4418.93
624.83	4308.93
624.98	4500.85
625.13	4454.04
625.29	4561.70
625.44	4505.53
625.59	4322.97
625.74	4418.93
625.89	4372.12
626.04	4414.25
626.19	4404.89
626.34	4545.32
626.49	4580.43
626.65	4409.57
626.80	4271.48
626.95	4269.14
627.10	4140.41
627.25	4252.75
627.40	3983.59
627.55	3875.93
627.70	4070.19
627.85	4032.74
628.00	3983.59
628.15	3908.69
628.30	3950.82
628.45	3801.03
628.60	3889.97
628.76	3808.05
628.91	3978.91
629.06	3918.06
629.21	3941.46
629.36	4224.67
629.51	4217.65
629.66	4430.63
629.81	4547.66
629.96	5132.79
630.11	5575.16
630.26	6188.38
630.41	6878.83
630.56	7758.88
630.71	8545.30
630.86	8617.85
631.01	8287.84
631.16	7906.33
631.31	7171.40
631.46	5994.11
631.61	5217.05
631.76	4283.18
631.91	3578.68
632.06	3267.39
632.21	2698.64
632.36	2361.60
632.51	2094.78
632.66	1898.17
632.81	1778.81
632.96	1629.01
633.10	1589.22
633.25	1647.74
633.40	1446.45
633.55	1474.54
633.70	1196.01
633.85	1378.58
634.00	1200.69
634.15	1214.74
634.30	1315.38
634.45	1163.25
634.60	1228.78
634.75	1174.95
634.90	1128.14
635.05	1041.54
635.19	1086.01
635.34	1142.18
635.49	1046.22
635.64	1046.22
635.79	924.51
635.94	1008.77
636.09	999.41
636.24	912.81
636.39	954.94
636.53	901.11
636.68	891.74
636.83	938.55
636.98	889.40
637.13	891.74
637.28	880.04
637.43	919.83
637.57	898.77
637.72	910.47
637.87	786.42
638.02	791.10
638.17	763.01
638.32	791.10
638.46	802.80
638.61	793.44
638.76	730.25
638.91	772.38
639.06	739.61
639.20	746.63
639.35	842.59
639.50	692.80
639.65	821.53
639.80	753.65
639.94	725.57
640.09	781.74
640.24	763.01
640.39	770.04
640.54	676.41
640.68	788.76
640.83	788.76
640.98	732.59
641.13	777.06
641.27	683.44
641.42	678.76
641.57	709.18
641.72	718.54
641.86	746.63
642.01	781.74
642.16	734.93
642.31	685.78
642.45	760.67
642.60	889.40
642.75	669.39
642.90	711.52
643.04	678.76
643.19	688.12
643.34	734.93
643.48	704.50
643.63	697.48
643.78	732.59
643.93	748.97
644.07	678.76
644.22	779.40
644.37	758.33
644.51	690.46
644.66	833.23
644.81	723.23
644.95	725.57
645.10	753.65
645.25	704.50
645.39	695.14
645.54	692.80
645.69	849.61
645.83	631.94
645.98	727.91
646.13	653.01
646.27	592.16
646.42	643.65
646.57	713.86
646.71	641.31
646.86	655.35
647.00	669.39
647.15	676.41
647.30	641.31
647.44	645.99
647.59	681.10
647.74	624.92
647.88	739.61
648.03	671.73
648.17	772.38
648.32	645.99
648.47	688.12
648.61	833.23
648.76	812.17
648.90	770.04
649.05	763.01
649.20	793.44
649.34	985.37
649.49	987.71
649.63	1076.65
649.78	1350.49
649.92	1549.43
650.07	2003.50
650.21	2275.00
650.36	2326.49
650.51	2406.07
650.65	2270.32
650.80	2169.68
650.94	1860.73
651.09	1640.72
651.23	1380.92
651.38	1324.74
651.52	1217.08
651.67	1043.88
651.81	966.64
651.96	940.90
652.10	961.96
652.25	840.25
652.39	957.28
652.54	983.02
652.68	1163.25
652.83	1090.69
652.97	1224.10
653.12	1247.51
653.26	1217.08
653.41	1074.31
653.55	1022.81
653.70	936.21
653.84	866.00
653.99	917.49
654.13	781.74
654.27	767.70
654.42	697.48
654.56	739.61
654.71	688.12
654.85	765.36
655.00	725.57
655.14	741.95
655.29	690.46
655.43	622.58
655.57	645.99
655.72	629.60
655.86	704.50
656.01	669.39
656.15	528.96
656.30	638.97
656.44	645.99
656.58	566.41
656.73	671.73
656.87	638.97
657.01	629.60
657.16	779.40
657.30	753.65
657.45	791.10
657.59	819.19
657.73	770.04
657.88	842.59
658.02	894.08
658.16	741.95
658.31	725.57
658.45	734.93
658.60	643.65
658.74	580.45
658.88	547.69
659.03	594.50
659.17	566.41
659.31	554.71
659.46	472.79
659.60	519.60
659.74	475.13
659.89	566.41
660.03	491.51
660.17	479.81
660.32	507.90
660.46	475.13
660.60	505.56
660.74	435.34
660.89	538.32
661.03	482.15
661.17	540.66
661.32	606.20
661.46	709.18
661.60	690.46
661.74	924.51
661.89	1132.82
662.03	1254.53
662.17	1427.73
662.31	1397.30
662.46	1425.39
662.60	1259.21
662.74	1170.27
662.88	1123.46
663.03	987.71
663.17	851.96
663.31	711.52
663.45	758.33
663.60	725.57
663.74	667.05
663.88	634.29
664.02	587.47
664.17	599.18
664.31	589.82
664.45	526.62
664.59	535.98
664.73	535.98
664.88	538.32
665.02	454.06
665.16	447.04
665.30	510.24
665.44	463.43
665.59	458.74
665.73	526.62
665.87	472.79
666.01	395.55
666.15	442.36
666.29	482.15
666.44	533.64
666.58	596.84
666.72	472.79
666.86	500.87
667.00	454.06
667.14	465.77
667.28	486.83
667.43	519.60
667.57	521.94
667.71	414.27
667.85	447.04
667.99	479.81
668.13	461.09
668.27	514.92
668.41	514.92
668.56	465.77
668.70	475.13
668.84	437.68
668.98	423.64
669.12	423.64
669.26	454.06
669.40	498.53
669.54	454.06
669.68	444.70
669.82	407.25
669.96	404.91
670.10	407.25
670.25	554.71
670.39	444.70
670.53	475.13
670.67	440.02
670.81	372.15
670.95	425.98
671.09	489.17
671.23	463.43
671.37	435.34
671.51	451.72
671.65	496.19
671.79	362.78
671.93	468.11
672.07	388.53
672.21	482.15
672.35	304.27
672.49	440.02
672.63	461.09
672.77	341.72
672.91	407.25
673.05	388.53
673.19	351.08
673.33	351.08
673.47	418.96
673.61	461.09
673.75	348.74
673.89	320.65
674.03	423.64
674.17	416.62
674.31	421.30
674.45	425.98
674.59	390.87
674.73	358.10
674.87	379.17
675.01	428.32
675.15	395.55
675.29	407.25
675.43	358.10
675.56	367.46
675.70	320.65
675.84	269.16
675.98	376.83
676.12	351.08
676.26	416.62
676.40	351.08
676.54	346.40
676.68	348.74
676.82	292.57
676.96	318.31
677.10	351.08
677.23	306.61
677.37	276.18
677.51	374.49
677.65	332.36
677.79	301.93
677.93	332.36
678.07	313.63
678.21	278.52
678.34	383.85
678.48	241.08
678.62	334.70
678.76	362.78
678.90	334.70
679.04	327.68
679.18	327.68
679.31	325.33
679.45	325.33
679.59	386.19
679.73	456.40
679.87	348.74
680.00	365.12
680.14	273.84
680.28	388.53
680.42	397.89
680.56	409.59
680.70	348.74
680.83	383.85
680.97	390.87
681.11	344.06
681.25	409.59
681.39	341.72
681.52	418.96
681.66	344.06
681.80	372.15
681.94	402.57
682.07	276.18
682.21	397.89
682.35	379.17
682.49	360.44
682.62	353.42
682.76	355.76
682.90	332.36
683.04	374.49
683.17	337.04
683.31	273.84
683.45	362.78
683.59	348.74
683.72	383.85
683.86	301.93
684.00	346.40
684.13	313.63
684.27	325.33
684.41	304.27
684.55	325.33
684.68	299.59
684.82	344.06
684.96	353.42
685.09	353.42
685.23	332.36
685.37	383.85
685.50	348.74
685.64	315.97
685.78	365.12
685.91	447.04
686.05	440.02
686.19	428.32
686.32	498.53
686.46	440.02
686.60	550.03
686.73	587.47
686.87	634.29
687.01	573.43
687.14	662.37
687.28	685.78
687.42	734.93
687.55	823.87
687.69	877.70
687.82	748.97
687.96	798.12
688.10	847.27
688.23	704.50
688.37	692.80
688.50	620.24
688.64	571.09
688.78	421.30
688.91	496.19
689.05	418.96
689.18	423.64
689.32	393.21
689.46	344.06
689.59	327.68
689.73	409.59
689.86	287.89
690.00	283.20
690.13	304.27
690.27	278.52
690.41	299.59
690.54	325.33
690.68	451.72
690.81	318.31
690.95	344.06
691.08	397.89
691.22	269.16
691.35	245.76
691.49	245.76
691.62	205.97
691.76	194.26
691.89	273.84
692.03	269.16
692.16	210.65
692.30	215.33
692.43	238.73
692.57	220.01
692.70	301.93
692.84	191.92
692.97	290.23
693.11	421.30
693.24	430.66
693.38	603.86
693.51	610.88
693.65	645.99
693.78	685.78
693.92	688.12
694.05	664.71
694.19	447.04
694.32	475.13
694.45	411.93
694.59	294.91
694.72	353.42
694.86	304.27
694.99	255.12
695.13	252.78
695.26	280.86
695.39	220.01
695.53	259.80
695.66	217.67
695.80	271.50
695.93	255.12
696.07	161.50
696.20	243.42
696.33	255.12
696.47	201.29
696.60	229.37
696.73	276.18
696.87	248.10
697.00	283.20
697.14	205.97
697.27	138.09
697.40	271.50
697.54	248.10
697.67	189.58
697.80	168.52
697.94	180.22
698.07	79.58
698.21	145.11
698.34	194.26
698.47	175.54
698.61	149.79
698.74	152.13
698.87	257.46
699.01	210.65
699.14	210.65
699.27	222.35
699.40	276.18
699.54	140.43
699.67	177.88
699.80	163.84
699.94	161.50
700.07	154.48
700.20	126.39
700.34	182.56
700.47	168.52
700.60	189.58
700.73	149.79
700.87	170.86
701.00	191.92
701.13	170.86
701.26	194.26
701.40	198.95
701.53	175.54
701.66	201.29
701.79	210.65
701.93	227.03
702.06	205.97
702.19	259.80
702.32	292.57
702.46	205.97
702.59	163.84
702.72	163.84
702.85	173.20
702.99	100.64
703.12	266.82
703.25	175.54
703.38	273.84
703.51	241.08
703.65	255.12
703.78	294.91
703.91	308.95
704.04	294.91
704.17	234.05
704.31	353.42
704.44	287.89
704.57	224.69
704.70	315.97
704.83	355.76
704.96	320.65
705.10	287.89
705.23	428.32
>>>>>End Processed Spectral Data<<<<<
