SpectraSuite Data File
++++++++++++++++++++++++++++++++++++
Date: Fri Oct 04 11:42:25 GMT-05:00 2013
User: price-jones
Dark Spectrum Present: No
Reference Spectrum Present: No
Number of Sampled Component Spectra: 1
Spectrometers: USB2+H05261
Integration Time (usec): 100000 (USB2+H05261)
Spectra Averaged: 1 (USB2+H05261)
Boxcar Smoothing: 0 (USB2+H05261)
Correct for Electrical Dark: No (USB2+H05261)
Strobe/Lamp Enabled: No (USB2+H05261)
Correct for Detector Non-linearity: No (USB2+H05261)
Correct for Stray Light: No (USB2+H05261)
Number of Pixels in Processed Spectrum: 2048
>>>>>Begin Processed Spectral Data<<<<<
365.73	102.98
365.92	102.98
366.12	102.98
366.32	0.00
366.52	0.00
366.72	0.00
366.91	0.00
367.11	0.00
367.31	0.00
367.51	0.00
367.70	0.00
367.90	0.00
368.10	0.00
368.30	0.00
368.49	0.00
368.69	0.00
368.89	0.00
369.09	0.00
369.28	0.00
369.48	0.00
369.68	0.00
369.87	0.00
370.07	0.00
370.27	2.34
370.47	0.00
370.66	46.81
370.86	37.45
371.06	163.84
371.25	95.96
371.45	63.19
371.65	67.88
371.84	44.47
372.04	128.73
372.24	112.35
372.44	159.16
372.63	56.17
372.83	140.43
373.03	49.15
373.22	124.05
373.42	126.39
373.62	107.66
373.81	23.41
374.01	152.13
374.21	70.22
374.40	147.45
374.60	180.22
374.79	124.05
374.99	112.35
375.19	138.09
375.38	152.13
375.58	117.03
375.78	140.43
375.97	170.86
376.17	112.35
376.37	112.35
376.56	114.69
376.76	105.32
376.95	39.79
377.15	161.50
377.35	154.48
377.54	128.73
377.74	163.84
377.93	74.90
378.13	102.98
378.33	93.62
378.52	95.96
378.72	196.60
378.91	152.13
379.11	105.32
379.31	107.66
379.50	131.07
379.70	177.88
379.89	198.95
380.09	110.01
380.28	86.60
380.48	84.26
380.68	138.09
380.87	56.17
381.07	102.98
381.26	119.37
381.46	91.28
381.65	131.07
381.85	191.92
382.04	149.79
382.24	16.38
382.43	100.64
382.63	77.24
382.83	102.98
383.02	124.05
383.22	152.13
383.41	37.45
383.61	140.43
383.80	81.92
384.00	128.73
384.19	95.96
384.39	170.86
384.58	142.77
384.78	70.22
384.97	119.37
385.17	86.60
385.36	74.90
385.56	121.71
385.75	110.01
385.95	175.54
386.14	124.05
386.34	91.28
386.53	98.30
386.72	86.60
386.92	180.22
387.11	124.05
387.31	112.35
387.50	107.66
387.70	44.47
387.89	191.92
388.09	117.03
388.28	119.37
388.48	84.26
388.67	187.24
388.86	170.86
389.06	65.54
389.25	98.30
389.45	184.90
389.64	159.16
389.84	117.03
390.03	194.26
390.22	117.03
390.42	93.62
390.61	110.01
390.81	46.81
391.00	119.37
391.19	191.92
391.39	147.45
391.58	65.54
391.78	60.85
391.97	124.05
392.16	88.94
392.36	110.01
392.55	161.50
392.75	72.56
392.94	100.64
393.13	145.11
393.33	58.51
393.52	70.22
393.71	133.41
393.91	196.60
394.10	81.92
394.29	72.56
394.49	121.71
394.68	32.77
394.88	110.01
395.07	102.98
395.26	60.85
395.46	126.39
395.65	210.65
395.84	114.69
396.04	217.67
396.23	138.09
396.42	84.26
396.62	135.75
396.81	105.32
397.00	110.01
397.19	180.22
397.39	159.16
397.58	128.73
397.77	191.92
397.97	100.64
398.16	39.79
398.35	93.62
398.55	100.64
398.74	102.98
398.93	114.69
399.12	114.69
399.32	79.58
399.51	100.64
399.70	173.20
399.90	145.11
400.09	86.60
400.28	217.67
400.47	173.20
400.67	166.18
400.86	117.03
401.05	119.37
401.24	91.28
401.44	126.39
401.63	119.37
401.82	161.50
402.01	86.60
402.21	142.77
402.40	110.01
402.59	107.66
402.78	131.07
402.97	67.88
403.17	159.16
403.36	161.50
403.55	110.01
403.74	208.31
403.93	636.63
404.13	1334.11
404.32	1479.22
404.51	1294.32
404.70	793.44
404.89	287.89
405.09	245.76
405.28	166.18
405.47	81.92
405.66	189.58
405.85	114.69
406.05	170.86
406.24	121.71
406.43	194.26
406.62	161.50
406.81	191.92
407.00	205.97
407.20	344.06
407.39	306.61
407.58	238.73
407.77	301.93
407.96	241.08
408.15	198.95
408.34	140.43
408.54	154.48
408.73	135.75
408.92	107.66
409.11	121.71
409.30	189.58
409.49	117.03
409.68	133.41
409.87	198.95
410.07	100.64
410.26	60.85
410.45	117.03
410.64	44.47
410.83	121.71
411.02	110.01
411.21	142.77
411.40	117.03
411.59	138.09
411.78	208.31
411.98	98.30
412.17	163.84
412.36	112.35
412.55	102.98
412.74	117.03
412.93	117.03
413.12	93.62
413.31	142.77
413.50	161.50
413.69	180.22
413.88	138.09
414.07	168.52
414.26	131.07
414.45	131.07
414.64	208.31
414.83	245.76
415.02	102.98
415.22	161.50
415.41	220.01
415.60	98.30
415.79	124.05
415.98	51.49
416.17	152.13
416.36	119.37
416.55	177.88
416.74	201.29
416.93	154.48
417.12	156.82
417.31	119.37
417.50	156.82
417.69	175.54
417.88	133.41
418.07	121.71
418.26	138.09
418.45	175.54
418.64	177.88
418.83	159.16
419.02	234.05
419.21	152.13
419.39	159.16
419.58	194.26
419.77	133.41
419.96	152.13
420.15	163.84
420.34	159.16
420.53	205.97
420.72	201.29
420.91	140.43
421.10	156.82
421.29	182.56
421.48	170.86
421.67	224.69
421.86	77.24
422.05	156.82
422.24	142.77
422.43	154.48
422.61	131.07
422.80	154.48
422.99	168.52
423.18	117.03
423.37	163.84
423.56	175.54
423.75	159.16
423.94	159.16
424.13	67.88
424.32	124.05
424.50	215.33
424.69	102.98
424.88	194.26
425.07	119.37
425.26	198.95
425.45	205.97
425.64	215.33
425.83	220.01
426.01	203.63
426.20	124.05
426.39	220.01
426.58	126.39
426.77	88.94
426.96	222.35
427.15	163.84
427.33	182.56
427.52	173.20
427.71	276.18
427.90	191.92
428.09	198.95
428.28	135.75
428.46	187.24
428.65	220.01
428.84	168.52
429.03	201.29
429.22	121.71
429.40	161.50
429.59	187.24
429.78	198.95
429.97	170.86
430.16	220.01
430.34	215.33
430.53	168.52
430.72	145.11
430.91	210.65
431.10	128.73
431.28	70.22
431.47	224.69
431.66	212.99
431.85	152.13
432.03	257.46
432.22	271.50
432.41	163.84
432.60	243.42
432.79	170.86
432.97	280.86
433.16	201.29
433.35	203.63
433.54	184.90
433.72	212.99
433.91	252.78
434.10	306.61
434.28	365.12
434.47	280.86
434.66	313.63
434.85	428.32
435.03	1043.88
435.22	3356.33
435.41	6300.72
435.59	5692.18
435.78	3960.19
435.97	1923.92
436.16	814.51
436.34	416.62
436.53	301.93
436.72	325.33
436.90	266.82
437.09	257.46
437.28	201.29
437.46	271.50
437.65	177.88
437.84	292.57
438.02	212.99
438.21	229.37
438.40	264.48
438.58	245.76
438.77	245.76
438.96	182.56
439.14	168.52
439.33	234.05
439.52	152.13
439.70	198.95
439.89	201.29
440.08	191.92
440.26	173.20
440.45	262.14
440.63	241.08
440.82	243.42
441.01	257.46
441.19	198.95
441.38	220.01
441.57	250.44
441.75	271.50
441.94	259.80
442.12	133.41
442.31	168.52
442.50	255.12
442.68	147.45
442.87	252.78
443.05	229.37
443.24	194.26
443.43	290.23
443.61	273.84
443.80	175.54
443.98	191.92
444.17	140.43
444.35	252.78
444.54	215.33
444.73	243.42
444.91	212.99
445.10	168.52
445.28	241.08
445.47	222.35
445.65	227.03
445.84	196.60
446.02	187.24
446.21	243.42
446.39	280.86
446.58	196.60
446.77	262.14
446.95	212.99
447.14	255.12
447.32	250.44
447.51	245.76
447.69	194.26
447.88	248.10
448.06	243.42
448.25	220.01
448.43	257.46
448.62	234.05
448.80	234.05
448.99	170.86
449.17	252.78
449.36	280.86
449.54	182.56
449.73	215.33
449.91	248.10
450.10	224.69
450.28	203.63
450.46	266.82
450.65	217.67
450.83	198.95
451.02	208.31
451.20	231.71
451.39	210.65
451.57	243.42
451.76	257.46
451.94	191.92
452.13	262.14
452.31	238.73
452.49	250.44
452.68	222.35
452.86	203.63
453.05	236.39
453.23	159.16
453.42	173.20
453.60	248.10
453.78	198.95
453.97	154.48
454.15	184.90
454.34	128.73
454.52	252.78
454.70	215.33
454.89	203.63
455.07	313.63
455.26	212.99
455.44	241.08
455.62	205.97
455.81	189.58
455.99	203.63
456.17	149.79
456.36	269.16
456.54	182.56
456.73	245.76
456.91	229.37
457.09	262.14
457.28	236.39
457.46	285.55
457.64	250.44
457.83	175.54
458.01	110.01
458.19	276.18
458.38	266.82
458.56	205.97
458.74	198.95
458.93	248.10
459.11	220.01
459.29	231.71
459.48	220.01
459.66	280.86
459.84	227.03
460.03	187.24
460.21	252.78
460.39	236.39
460.57	241.08
460.76	168.52
460.94	255.12
461.12	290.23
461.31	278.52
461.49	236.39
461.67	241.08
461.85	217.67
462.04	217.67
462.22	299.59
462.40	245.76
462.59	278.52
462.77	222.35
462.95	255.12
463.13	262.14
463.32	234.05
463.50	212.99
463.68	222.35
463.86	163.84
464.05	248.10
464.23	255.12
464.41	255.12
464.59	212.99
464.78	205.97
464.96	304.27
465.14	124.05
465.32	149.79
465.50	236.39
465.69	184.90
465.87	266.82
466.05	177.88
466.23	252.78
466.41	194.26
466.60	180.22
466.78	264.48
466.96	220.01
467.14	229.37
467.32	255.12
467.51	234.05
467.69	220.01
467.87	262.14
468.05	243.42
468.23	334.70
468.41	201.29
468.60	257.46
468.78	201.29
468.96	170.86
469.14	224.69
469.32	112.35
469.50	255.12
469.69	212.99
469.87	170.86
470.05	205.97
470.23	184.90
470.41	189.58
470.59	210.65
470.77	229.37
470.95	220.01
471.14	259.80
471.32	234.05
471.50	292.57
471.68	259.80
471.86	315.97
472.04	236.39
472.22	234.05
472.40	220.01
472.58	257.46
472.77	138.09
472.95	212.99
473.13	285.55
473.31	227.03
473.49	196.60
473.67	273.84
473.85	245.76
474.03	243.42
474.21	250.44
474.39	189.58
474.57	210.65
474.75	205.97
474.93	252.78
475.12	234.05
475.30	201.29
475.48	208.31
475.66	189.58
475.84	259.80
476.02	212.99
476.20	292.57
476.38	170.86
476.56	252.78
476.74	182.56
476.92	182.56
477.10	224.69
477.28	191.92
477.46	180.22
477.64	227.03
477.82	271.50
478.00	248.10
478.18	212.99
478.36	269.16
478.54	215.33
478.72	182.56
478.90	252.78
479.08	280.86
479.26	220.01
479.44	257.46
479.62	227.03
479.80	229.37
479.98	210.65
480.16	301.93
480.34	320.65
480.52	248.10
480.70	308.95
480.88	320.65
481.06	322.99
481.24	224.69
481.41	313.63
481.59	334.70
481.77	339.38
481.95	313.63
482.13	332.36
482.31	322.99
482.49	367.46
482.67	318.31
482.85	414.27
483.03	433.00
483.21	402.57
483.39	461.09
483.57	454.06
483.74	540.66
483.92	571.09
484.10	517.26
484.28	566.41
484.46	641.31
484.64	671.73
484.82	655.35
485.00	685.78
485.18	737.27
485.35	711.52
485.53	858.98
485.71	858.98
485.89	844.93
486.07	903.45
486.25	912.81
486.43	877.70
486.61	880.04
486.78	866.00
486.96	917.49
487.14	905.79
487.32	870.68
487.50	976.00
487.68	870.68
487.85	823.87
488.03	936.21
488.21	847.27
488.39	826.21
488.57	884.72
488.75	725.57
488.92	1088.35
489.10	828.55
489.28	805.14
489.46	770.04
489.64	748.97
489.81	753.65
489.99	833.23
490.17	763.01
490.35	753.65
490.53	840.25
490.70	734.93
490.88	765.36
491.06	770.04
491.24	856.64
491.41	758.33
491.59	767.70
491.77	660.03
491.95	634.29
492.13	650.67
492.30	631.94
492.48	676.41
492.66	641.31
492.84	699.82
493.01	650.67
493.19	592.16
493.37	706.84
493.54	755.99
493.72	603.86
493.90	559.39
494.08	655.35
494.25	582.79
494.43	582.79
494.61	603.86
494.79	603.86
494.96	550.03
495.14	624.92
495.32	538.32
495.49	561.73
495.67	627.26
495.85	557.05
496.02	575.77
496.20	615.56
496.38	578.11
496.55	517.26
496.73	627.26
496.91	573.43
497.09	561.73
497.26	533.64
497.44	592.16
497.62	468.11
497.79	500.87
497.97	507.90
498.14	519.60
498.32	512.58
498.50	561.73
498.67	489.17
498.85	414.27
499.03	418.96
499.20	580.45
499.38	440.02
499.56	355.76
499.73	528.96
499.91	465.77
500.08	348.74
500.26	334.70
500.44	395.55
500.61	346.40
500.79	407.25
500.97	379.17
501.14	402.57
501.32	388.53
501.49	337.04
501.67	386.19
501.84	369.80
502.02	292.57
502.20	334.70
502.37	348.74
502.55	367.46
502.72	313.63
502.90	320.65
503.07	318.31
503.25	395.55
503.43	264.48
503.60	334.70
503.78	266.82
503.95	252.78
504.13	259.80
504.30	283.20
504.48	315.97
504.65	299.59
504.83	348.74
505.01	320.65
505.18	229.37
505.36	315.97
505.53	250.44
505.71	280.86
505.88	362.78
506.06	287.89
506.23	241.08
506.41	290.23
506.58	243.42
506.76	276.18
506.93	191.92
507.11	276.18
507.28	187.24
507.46	292.57
507.63	280.86
507.81	313.63
507.98	273.84
508.16	236.39
508.33	292.57
508.50	344.06
508.68	348.74
508.85	264.48
509.03	236.39
509.20	262.14
509.38	341.72
509.55	269.16
509.73	339.38
509.90	320.65
510.08	234.05
510.25	262.14
510.42	262.14
510.60	292.57
510.77	245.76
510.95	238.73
511.12	220.01
511.30	276.18
511.47	280.86
511.64	337.04
511.82	255.12
511.99	269.16
512.17	173.20
512.34	220.01
512.51	266.82
512.69	332.36
512.86	327.68
513.04	306.61
513.21	250.44
513.38	259.80
513.56	290.23
513.73	306.61
513.90	290.23
514.08	238.73
514.25	280.86
514.43	198.95
514.60	287.89
514.77	299.59
514.95	304.27
515.12	285.55
515.29	304.27
515.47	269.16
515.64	264.48
515.81	201.29
515.99	315.97
516.16	234.05
516.33	166.18
516.51	245.76
516.68	266.82
516.85	245.76
517.03	273.84
517.20	248.10
517.37	243.42
517.54	278.52
517.72	243.42
517.89	236.39
518.06	262.14
518.24	273.84
518.41	313.63
518.58	299.59
518.75	205.97
518.93	278.52
519.10	217.67
519.27	203.63
519.45	283.20
519.62	248.10
519.79	245.76
519.96	241.08
520.14	238.73
520.31	322.99
520.48	252.78
520.65	227.03
520.83	346.40
521.00	276.18
521.17	285.55
521.34	224.69
521.52	245.76
521.69	315.97
521.86	330.02
522.03	308.95
522.20	304.27
522.38	264.48
522.55	271.50
522.72	257.46
522.89	266.82
523.07	304.27
523.24	224.69
523.41	187.24
523.58	301.93
523.75	215.33
523.92	166.18
524.10	203.63
524.27	320.65
524.44	250.44
524.61	299.59
524.78	257.46
524.96	294.91
525.13	234.05
525.30	285.55
525.47	271.50
525.64	259.80
525.81	259.80
525.98	285.55
526.16	248.10
526.33	299.59
526.50	222.35
526.67	231.71
526.84	215.33
527.01	322.99
527.18	248.10
527.36	290.23
527.53	234.05
527.70	297.25
527.87	315.97
528.04	322.99
528.21	227.03
528.38	341.72
528.55	257.46
528.72	315.97
528.89	348.74
529.07	285.55
529.24	290.23
529.41	306.61
529.58	313.63
529.75	241.08
529.92	325.33
530.09	360.44
530.26	346.40
530.43	276.18
530.60	243.42
530.77	297.25
530.94	327.68
531.11	330.02
531.28	294.91
531.46	231.71
531.63	285.55
531.80	311.29
531.97	379.17
532.14	353.42
532.31	330.02
532.48	355.76
532.65	486.83
532.82	442.36
532.99	454.06
533.16	493.85
533.33	484.49
533.50	573.43
533.67	477.47
533.84	465.77
534.01	433.00
534.18	404.91
534.35	437.68
534.52	447.04
534.69	449.38
534.86	390.87
535.03	376.83
535.20	510.24
535.37	505.56
535.54	503.22
535.71	437.68
535.88	414.27
536.05	477.47
536.22	550.03
536.38	437.68
536.55	638.97
536.72	603.86
536.89	674.07
537.06	800.46
537.23	868.34
537.40	828.55
537.57	861.32
537.74	940.90
537.91	1050.90
538.08	1043.88
538.25	1015.79
538.42	1142.18
538.59	1179.63
538.75	1156.22
538.92	1233.46
539.09	1345.81
539.26	1242.82
539.43	1479.22
539.60	1732.00
539.77	1879.45
539.94	1989.46
540.11	2230.53
540.28	2312.45
540.44	2630.76
540.61	2843.75
540.78	3162.06
540.95	3765.92
541.12	4344.03
541.29	4727.88
541.46	5399.62
541.62	5364.51
541.79	5490.90
541.96	5680.48
542.13	5343.44
542.30	5149.18
542.47	4910.44
542.63	4887.04
542.80	4772.35
542.97	4760.65
543.14	4968.96
543.31	4650.64
543.48	4835.55
543.64	4980.66
543.81	4823.84
543.98	4755.97
544.15	4709.16
544.32	4599.15
544.48	4585.11
544.65	4404.89
544.82	4177.86
544.99	4224.67
545.16	4236.37
545.32	4442.34
545.49	7740.15
545.66	13144.45
545.83	14717.29
546.00	11922.69
546.16	8259.75
546.33	6019.86
546.50	4390.84
546.67	3442.93
546.83	3068.44
547.00	3033.33
547.17	2722.04
547.34	2661.19
547.50	2562.89
547.67	2612.04
547.84	2380.32
548.00	2347.56
548.17	2333.51
548.34	2363.94
548.51	2317.13
548.67	2258.62
548.84	2214.15
549.01	2218.83
549.18	2223.51
549.34	2064.35
549.51	2005.84
549.68	1778.81
549.84	1823.28
550.01	1640.72
550.18	1741.36
550.34	1575.18
550.51	1554.12
550.68	1469.86
550.84	1453.47
551.01	1350.49
551.18	1364.53
551.34	1306.02
551.51	1329.42
551.68	1322.40
551.84	1219.42
552.01	1217.08
552.18	1158.57
552.34	1083.67
552.51	1060.26
552.68	1043.88
552.84	1008.77
553.01	952.60
553.18	999.41
553.34	919.83
553.51	833.23
553.67	784.08
553.84	826.21
554.01	805.14
554.17	716.20
554.34	671.73
554.51	638.97
554.67	620.24
554.84	615.56
555.00	524.28
555.17	507.90
555.33	528.96
555.50	526.62
555.67	491.51
555.83	500.87
556.00	428.32
556.16	557.05
556.33	407.25
556.50	472.79
556.66	390.87
556.83	402.57
556.99	402.57
557.16	383.85
557.32	435.34
557.49	292.57
557.65	346.40
557.82	362.78
557.98	407.25
558.15	341.72
558.32	318.31
558.48	353.42
558.65	332.36
558.81	423.64
558.98	262.14
559.14	365.12
559.31	318.31
559.47	435.34
559.64	367.46
559.80	414.27
559.97	358.10
560.13	379.17
560.30	339.38
560.46	330.02
560.63	381.51
560.79	280.86
560.96	346.40
561.12	339.38
561.29	365.12
561.45	430.66
561.61	351.08
561.78	374.49
561.94	339.38
562.11	217.67
562.27	325.33
562.44	315.97
562.60	327.68
562.77	259.80
562.93	463.43
563.10	332.36
563.26	224.69
563.42	259.80
563.59	341.72
563.75	313.63
563.92	327.68
564.08	308.95
564.24	271.50
564.41	346.40
564.57	266.82
564.74	346.40
564.90	330.02
565.07	308.95
565.23	308.95
565.39	243.42
565.56	299.59
565.72	285.55
565.88	241.08
566.05	308.95
566.21	346.40
566.38	341.72
566.54	297.25
566.70	339.38
566.87	292.57
567.03	248.10
567.19	252.78
567.36	320.65
567.52	196.60
567.68	299.59
567.85	273.84
568.01	248.10
568.17	325.33
568.34	322.99
568.50	278.52
568.66	236.39
568.83	393.21
568.99	238.73
569.15	355.76
569.32	332.36
569.48	332.36
569.64	276.18
569.81	271.50
569.97	285.55
570.13	360.44
570.30	212.99
570.46	231.71
570.62	273.84
570.78	294.91
570.95	280.86
571.11	313.63
571.27	334.70
571.43	341.72
571.60	229.37
571.76	257.46
571.92	236.39
572.09	271.50
572.25	285.55
572.41	234.05
572.57	313.63
572.74	322.99
572.90	257.46
573.06	311.29
573.22	376.83
573.38	283.20
573.55	283.20
573.71	311.29
573.87	315.97
574.03	290.23
574.20	299.59
574.36	294.91
574.52	315.97
574.68	269.16
574.84	337.04
575.01	299.59
575.17	383.85
575.33	376.83
575.49	365.12
575.65	393.21
575.82	334.70
575.98	423.64
576.14	376.83
576.30	669.39
576.46	1720.29
576.62	2438.84
576.79	2459.90
576.95	1717.95
577.11	1327.08
577.27	950.26
577.43	725.57
577.59	561.73
577.75	470.45
577.92	435.34
578.08	397.89
578.24	461.09
578.40	746.63
578.56	1643.06
578.72	2284.36
578.88	2345.22
579.04	1795.19
579.21	1306.02
579.37	1069.62
579.53	943.24
579.69	968.98
579.85	1062.60
580.01	1191.33
580.17	1137.50
580.33	1090.69
580.49	828.55
580.65	772.38
580.82	793.44
580.98	784.08
581.14	784.08
581.30	856.64
581.46	828.55
581.62	891.74
581.78	917.49
581.94	1041.54
582.10	950.26
582.26	1135.16
582.42	1078.99
582.58	1188.99
582.74	1142.18
582.90	1191.33
583.06	1238.14
583.22	1191.33
583.38	1203.04
583.54	1277.93
583.70	1235.80
583.86	1249.85
584.02	1214.74
584.18	1188.99
584.34	1203.04
584.50	1069.62
584.66	1076.65
584.82	1083.67
584.98	1121.12
585.14	926.85
585.30	999.41
585.46	976.00
585.62	959.62
585.78	1013.45
585.94	1006.43
586.10	971.32
586.26	1100.05
586.42	1188.99
586.58	1401.98
586.74	1500.28
586.90	1827.96
587.06	1966.05
587.22	1998.82
587.38	1830.30
587.54	1668.80
587.70	1493.26
587.86	1299.00
588.02	1097.71
588.18	985.37
588.34	976.00
588.49	807.48
588.65	873.02
588.81	814.51
588.97	763.01
589.13	718.54
589.29	746.63
589.45	816.85
589.61	809.83
589.77	767.70
589.93	772.38
590.08	763.01
590.24	737.27
590.40	779.40
590.56	800.46
590.72	819.19
590.88	725.57
591.04	798.12
591.20	835.57
591.35	931.53
591.51	858.98
591.67	919.83
591.83	1004.09
591.99	936.21
592.15	1071.97
592.31	1078.99
592.46	1167.93
592.62	1310.70
592.78	1385.60
592.94	1306.02
593.10	1448.79
593.26	1385.60
593.41	1165.59
593.57	1036.86
593.73	978.34
593.89	903.45
594.05	781.74
594.20	753.65
594.36	695.14
594.52	594.50
594.68	648.33
594.84	615.56
594.99	615.56
595.15	603.86
595.31	603.86
595.47	573.43
595.62	564.07
595.78	552.37
595.94	552.37
596.10	599.18
596.25	545.34
596.41	608.54
596.57	624.92
596.73	564.07
596.88	521.94
597.04	489.17
597.20	519.60
597.36	528.96
597.51	507.90
597.67	561.73
597.83	636.63
597.99	603.86
598.14	779.40
598.30	713.86
598.46	667.05
598.61	809.83
598.77	723.23
598.93	866.00
599.09	884.72
599.24	844.93
599.40	912.81
599.56	858.98
599.71	884.72
599.87	725.57
600.03	697.48
600.18	779.40
600.34	704.50
600.50	671.73
600.65	571.09
600.81	550.03
600.97	575.77
601.12	479.81
601.28	472.79
601.44	477.47
601.59	390.87
601.75	456.40
601.91	463.43
602.06	463.43
602.22	519.60
602.37	479.81
602.53	409.59
602.69	458.74
602.84	421.30
603.00	433.00
603.16	423.64
603.31	470.45
603.47	477.47
603.62	435.34
603.78	393.21
603.94	472.79
604.09	559.39
604.25	369.80
604.40	400.23
604.56	470.45
604.71	510.24
604.87	456.40
605.03	531.30
605.18	484.49
605.34	580.45
605.49	559.39
605.65	589.82
605.80	547.69
605.96	557.05
606.12	547.69
606.27	608.54
606.43	547.69
606.58	559.39
606.74	624.92
606.89	681.10
607.05	720.88
607.20	727.91
607.36	690.46
607.51	688.12
607.67	781.74
607.82	849.61
607.98	908.13
608.13	877.70
608.29	983.02
608.44	1039.20
608.60	1097.71
608.75	1174.95
608.91	1291.98
609.06	1434.75
609.22	1519.01
609.37	1776.47
609.53	1806.89
609.68	2022.22
609.84	2399.05
609.99	2780.56
610.15	3515.48
610.30	4182.54
610.46	5336.42
610.61	6925.65
610.76	8828.50
610.92	10565.18
611.07	11644.17
611.23	11726.08
611.38	10988.82
611.54	9575.13
611.69	7927.39
611.84	6626.06
612.00	5551.75
612.15	4711.50
612.31	4109.98
612.46	3784.65
612.62	3538.89
612.77	3405.48
612.92	3133.98
613.08	3040.36
613.23	2953.76
613.39	2724.38
613.54	2813.32
613.69	2619.06
613.85	2583.95
614.00	2537.14
614.15	2441.18
614.31	2565.23
614.46	2558.21
614.62	2335.85
614.77	2251.60
614.92	2239.89
615.08	2094.78
615.23	1907.54
615.38	1760.08
615.54	1596.25
615.69	1495.60
615.84	1420.71
616.00	1291.98
616.15	1287.29
616.30	1146.86
616.46	1132.82
616.61	1090.69
616.76	1018.13
616.92	971.32
617.07	968.98
617.22	905.79
617.37	976.00
617.53	954.94
617.68	880.04
617.83	833.23
617.99	880.04
618.14	887.06
618.29	851.96
618.45	830.89
618.60	800.46
618.75	819.19
618.90	901.11
619.06	730.25
619.21	837.91
619.36	802.80
619.51	774.72
619.67	828.55
619.82	830.89
619.97	819.19
620.12	905.79
620.28	931.53
620.43	896.43
620.58	912.81
620.73	943.24
620.89	774.72
621.04	786.42
621.19	816.85
621.34	807.48
621.49	840.25
621.65	877.70
621.80	793.44
621.95	903.45
622.10	868.34
622.25	758.33
622.41	730.25
622.56	777.06
622.71	812.17
622.86	875.36
623.01	777.06
623.16	798.12
623.32	779.40
623.47	777.06
623.62	767.70
623.77	791.10
623.92	777.06
624.07	774.72
624.23	746.63
624.38	770.04
624.53	837.91
624.68	849.61
624.83	828.55
624.98	816.85
625.13	842.59
625.29	683.44
625.44	807.48
625.59	777.06
625.74	844.93
625.89	805.14
626.04	758.33
626.19	723.23
626.34	823.87
626.49	791.10
626.65	732.59
626.80	774.72
626.95	758.33
627.10	732.59
627.25	716.20
627.40	667.05
627.55	641.31
627.70	685.78
627.85	695.14
628.00	692.80
628.15	648.33
628.30	643.65
628.45	615.56
628.60	690.46
628.76	685.78
628.91	767.70
629.06	739.61
629.21	779.40
629.36	683.44
629.51	765.36
629.66	748.97
629.81	770.04
629.96	985.37
630.11	1004.09
630.26	1090.69
630.41	1095.37
630.56	1231.12
630.71	1313.04
630.86	1289.64
631.01	1317.72
631.16	1205.38
631.31	1132.82
631.46	917.49
631.61	821.53
631.76	702.16
631.91	578.11
632.06	603.86
632.21	554.71
632.36	503.22
632.51	524.28
632.66	496.19
632.81	390.87
632.96	393.21
633.10	393.21
633.25	348.74
633.40	376.83
633.55	388.53
633.70	294.91
633.85	299.59
634.00	334.70
634.15	292.57
634.30	304.27
634.45	278.52
634.60	276.18
634.75	255.12
634.90	386.19
635.05	222.35
635.19	255.12
635.34	301.93
635.49	330.02
635.64	315.97
635.79	332.36
635.94	276.18
636.09	395.55
636.24	280.86
636.39	217.67
636.53	304.27
636.68	285.55
636.83	252.78
636.98	259.80
637.13	271.50
637.28	252.78
637.43	304.27
637.57	210.65
637.72	337.04
637.87	313.63
638.02	308.95
638.17	208.31
638.32	280.86
638.46	285.55
638.61	231.71
638.76	238.73
638.91	224.69
639.06	198.95
639.20	308.95
639.35	259.80
639.50	322.99
639.65	255.12
639.80	210.65
639.94	311.29
640.09	301.93
640.24	297.25
640.39	325.33
640.54	252.78
640.68	217.67
640.83	283.20
640.98	229.37
641.13	271.50
641.27	262.14
641.42	212.99
641.57	273.84
641.72	208.31
641.86	245.76
642.01	215.33
642.16	292.57
642.31	271.50
642.45	259.80
642.60	299.59
642.75	238.73
642.90	290.23
643.04	220.01
643.19	217.67
643.34	259.80
643.48	280.86
643.63	241.08
643.78	259.80
643.93	320.65
644.07	320.65
644.22	252.78
644.37	220.01
644.51	297.25
644.66	276.18
644.81	320.65
644.95	280.86
645.10	238.73
645.25	285.55
645.39	234.05
645.54	236.39
645.69	325.33
645.83	255.12
645.98	278.52
646.13	229.37
646.27	241.08
646.42	238.73
646.57	257.46
646.71	271.50
646.86	198.95
647.00	161.50
647.15	283.20
647.30	210.65
647.44	231.71
647.59	220.01
647.74	227.03
647.88	294.91
648.03	191.92
648.17	266.82
648.32	191.92
648.47	238.73
648.61	203.63
648.76	205.97
648.90	205.97
649.05	294.91
649.20	205.97
649.34	285.55
649.49	292.57
649.63	264.48
649.78	308.95
649.92	381.51
650.07	470.45
650.21	447.04
650.36	589.82
650.51	435.34
650.65	437.68
650.80	409.59
650.94	430.66
651.09	367.46
651.23	255.12
651.38	238.73
651.52	280.86
651.67	292.57
651.81	280.86
651.96	355.76
652.10	318.31
652.25	301.93
652.39	285.55
652.54	334.70
652.68	320.65
652.83	264.48
652.97	337.04
653.12	325.33
653.26	266.82
653.41	330.02
653.55	264.48
653.70	278.52
653.84	341.72
653.99	205.97
654.13	222.35
654.27	255.12
654.42	131.07
654.56	180.22
654.71	250.44
654.85	229.37
655.00	269.16
655.14	196.60
655.29	229.37
655.43	241.08
655.57	205.97
655.72	215.33
655.86	243.42
656.01	198.95
656.15	248.10
656.30	273.84
656.44	290.23
656.58	210.65
656.73	257.46
656.87	173.20
657.01	184.90
657.16	290.23
657.30	273.84
657.45	234.05
657.59	248.10
657.73	264.48
657.88	264.48
658.02	393.21
658.16	224.69
658.31	177.88
658.45	238.73
658.60	215.33
658.74	266.82
658.88	112.35
659.03	187.24
659.17	163.84
659.31	217.67
659.46	252.78
659.60	273.84
659.74	182.56
659.89	147.45
660.03	205.97
660.17	304.27
660.32	201.29
660.46	203.63
660.60	191.92
660.74	294.91
660.89	227.03
661.03	154.48
661.17	145.11
661.32	241.08
661.46	224.69
661.60	280.86
661.74	227.03
661.89	259.80
662.03	351.08
662.17	255.12
662.31	376.83
662.46	292.57
662.60	322.99
662.74	248.10
662.88	227.03
663.03	264.48
663.17	294.91
663.31	287.89
663.45	259.80
663.60	220.01
663.74	191.92
663.88	208.31
664.02	154.48
664.17	210.65
664.31	227.03
664.45	217.67
664.59	208.31
664.73	248.10
664.88	255.12
665.02	248.10
665.16	245.76
665.30	215.33
665.44	252.78
665.59	198.95
665.73	166.18
665.87	201.29
666.01	201.29
666.15	154.48
666.29	149.79
666.44	224.69
666.58	259.80
666.72	262.14
666.86	140.43
667.00	259.80
667.14	210.65
667.28	227.03
667.43	203.63
667.57	191.92
667.71	191.92
667.85	234.05
667.99	222.35
668.13	194.26
668.27	210.65
668.41	234.05
668.56	117.03
668.70	187.24
668.84	156.82
668.98	187.24
669.12	234.05
669.26	257.46
669.40	248.10
669.54	227.03
669.68	248.10
669.82	159.16
669.96	271.50
670.10	210.65
670.25	290.23
670.39	252.78
670.53	154.48
670.67	163.84
670.81	180.22
670.95	280.86
671.09	170.86
671.23	241.08
671.37	234.05
671.51	245.76
671.65	198.95
671.79	227.03
671.93	175.54
672.07	271.50
672.21	198.95
672.35	105.32
672.49	215.33
672.63	248.10
672.77	175.54
672.91	191.92
673.05	205.97
673.19	149.79
673.33	152.13
673.47	276.18
673.61	217.67
673.75	210.65
673.89	182.56
674.03	264.48
674.17	234.05
674.31	182.56
674.45	177.88
674.59	203.63
674.73	166.18
674.87	245.76
675.01	220.01
675.15	154.48
675.29	147.45
675.43	156.82
675.56	191.92
675.70	215.33
675.84	189.58
675.98	177.88
676.12	189.58
676.26	264.48
676.40	156.82
676.54	220.01
676.68	177.88
676.82	231.71
676.96	138.09
677.10	203.63
677.23	107.66
677.37	131.07
677.51	152.13
677.65	259.80
677.79	154.48
677.93	170.86
678.07	187.24
678.21	121.71
678.34	135.75
678.48	138.09
678.62	152.13
678.76	147.45
678.90	217.67
679.04	154.48
679.18	100.64
679.31	201.29
679.45	152.13
679.59	264.48
679.73	243.42
679.87	184.90
680.00	215.33
680.14	170.86
680.28	224.69
680.42	187.24
680.56	217.67
680.70	110.01
680.83	119.37
680.97	93.62
681.11	154.48
681.25	189.58
681.39	121.71
681.52	102.98
681.66	220.01
681.80	180.22
681.94	114.69
682.07	163.84
682.21	168.52
682.35	166.18
682.49	163.84
682.62	210.65
682.76	128.73
682.90	147.45
683.04	145.11
683.17	194.26
683.31	205.97
683.45	217.67
683.59	220.01
683.72	245.76
683.86	159.16
684.00	91.28
684.13	140.43
684.27	128.73
684.41	196.60
684.55	140.43
684.68	138.09
684.82	168.52
684.96	177.88
685.09	168.52
685.23	149.79
685.37	93.62
685.50	131.07
685.64	170.86
685.78	154.48
685.91	140.43
686.05	156.82
686.19	205.97
686.32	283.20
686.46	243.42
686.60	189.58
686.73	180.22
686.87	278.52
687.01	140.43
687.14	224.69
687.28	212.99
687.42	194.26
687.55	259.80
687.69	210.65
687.82	182.56
687.96	212.99
688.10	241.08
688.23	159.16
688.37	271.50
688.50	168.52
688.64	175.54
688.78	168.52
688.91	138.09
689.05	156.82
689.18	184.90
689.32	177.88
689.46	154.48
689.59	222.35
689.73	245.76
689.86	166.18
690.00	149.79
690.13	114.69
690.27	142.77
690.41	201.29
690.54	222.35
690.68	126.39
690.81	156.82
690.95	196.60
691.08	191.92
691.22	133.41
691.35	156.82
691.49	194.26
691.62	105.32
691.76	91.28
691.89	142.77
692.03	86.60
692.16	198.95
692.30	201.29
692.43	147.45
692.57	147.45
692.70	110.01
692.84	124.05
692.97	117.03
693.11	152.13
693.24	196.60
693.38	119.37
693.51	168.52
693.65	245.76
693.78	159.16
693.92	191.92
694.05	227.03
694.19	142.77
694.32	79.58
694.45	135.75
694.59	77.24
694.72	124.05
694.86	119.37
694.99	187.24
695.13	67.88
695.26	95.96
695.39	222.35
695.53	131.07
695.66	133.41
695.80	198.95
695.93	65.54
696.07	98.30
696.20	161.50
696.33	149.79
696.47	131.07
696.60	124.05
696.73	135.75
696.87	145.11
697.00	187.24
697.14	30.43
697.27	133.41
697.40	159.16
697.54	126.39
697.67	170.86
697.80	119.37
697.94	138.09
698.07	49.15
698.21	88.94
698.34	107.66
698.47	117.03
698.61	107.66
698.74	84.26
698.87	135.75
699.01	93.62
699.14	177.88
699.27	147.45
699.40	210.65
699.54	126.39
699.67	126.39
699.80	88.94
699.94	262.14
700.07	72.56
700.20	112.35
700.34	161.50
700.47	93.62
700.60	175.54
700.73	126.39
700.87	142.77
701.00	107.66
701.13	42.13
701.26	126.39
701.40	119.37
701.53	117.03
701.66	88.94
701.79	166.18
701.93	175.54
702.06	191.92
702.19	184.90
702.32	175.54
702.46	117.03
702.59	182.56
702.72	138.09
702.85	187.24
702.99	128.73
703.12	105.32
703.25	156.82
703.38	100.64
703.51	145.11
703.65	63.19
703.78	74.90
703.91	119.37
704.04	161.50
704.17	112.35
704.31	98.30
704.44	119.37
704.57	205.97
704.70	105.32
704.83	121.71
704.96	147.45
705.10	191.92
705.23	142.77
>>>>>End Processed Spectral Data<<<<<
