SpectraSuite Data File
++++++++++++++++++++++++++++++++++++
Date: Fri Oct 04 11:42:19 GMT-05:00 2013
User: price-jones
Dark Spectrum Present: No
Reference Spectrum Present: No
Number of Sampled Component Spectra: 1
Spectrometers: USB2+H05261
Integration Time (usec): 100000 (USB2+H05261)
Spectra Averaged: 1 (USB2+H05261)
Boxcar Smoothing: 0 (USB2+H05261)
Correct for Electrical Dark: No (USB2+H05261)
Strobe/Lamp Enabled: No (USB2+H05261)
Correct for Detector Non-linearity: No (USB2+H05261)
Correct for Stray Light: No (USB2+H05261)
Number of Pixels in Processed Spectrum: 2048
>>>>>Begin Processed Spectral Data<<<<<
365.73	46.81
365.92	46.81
366.12	46.81
366.32	0.00
366.52	0.00
366.72	0.00
366.91	0.00
367.11	0.00
367.31	0.00
367.51	0.00
367.70	0.00
367.90	0.00
368.10	0.00
368.30	0.00
368.49	0.00
368.69	0.00
368.89	0.00
369.09	0.00
369.28	0.00
369.48	18.72
369.68	0.00
369.87	16.38
370.07	0.00
370.27	0.00
370.47	21.06
370.66	0.00
370.86	39.79
371.06	70.22
371.25	79.58
371.45	58.51
371.65	79.58
371.84	58.51
372.04	84.26
372.24	107.66
372.44	119.37
372.63	84.26
372.83	91.28
373.03	124.05
373.22	60.85
373.42	91.28
373.62	128.73
373.81	175.54
374.01	152.13
374.21	152.13
374.40	86.60
374.60	161.50
374.79	65.54
374.99	91.28
375.19	140.43
375.38	100.64
375.58	135.75
375.78	107.66
375.97	98.30
376.17	205.97
376.37	112.35
376.56	107.66
376.76	84.26
376.95	72.56
377.15	173.20
377.35	114.69
377.54	152.13
377.74	63.19
377.93	114.69
378.13	135.75
378.33	117.03
378.52	51.49
378.72	112.35
378.91	135.75
379.11	102.98
379.31	81.92
379.50	117.03
379.70	135.75
379.89	126.39
380.09	168.52
380.28	77.24
380.48	177.88
380.68	91.28
380.87	110.01
381.07	91.28
381.26	168.52
381.46	100.64
381.65	105.32
381.85	93.62
382.04	86.60
382.24	30.43
382.43	91.28
382.63	23.41
382.83	107.66
383.02	131.07
383.22	175.54
383.41	100.64
383.61	86.60
383.80	105.32
384.00	107.66
384.19	154.48
384.39	100.64
384.58	126.39
384.78	166.18
384.97	147.45
385.17	98.30
385.36	58.51
385.56	166.18
385.75	74.90
385.95	102.98
386.14	124.05
386.34	79.58
386.53	166.18
386.72	154.48
386.92	154.48
387.11	86.60
387.31	88.94
387.50	65.54
387.70	152.13
387.89	135.75
388.09	81.92
388.28	88.94
388.48	100.64
388.67	121.71
388.86	95.96
389.06	112.35
389.25	124.05
389.45	110.01
389.64	105.32
389.84	128.73
390.03	53.83
390.22	86.60
390.42	131.07
390.61	95.96
390.81	131.07
391.00	102.98
391.19	198.95
391.39	95.96
391.58	114.69
391.78	60.85
391.97	140.43
392.16	121.71
392.36	161.50
392.55	117.03
392.75	114.69
392.94	112.35
393.13	114.69
393.33	67.88
393.52	102.98
393.71	131.07
393.91	93.62
394.10	84.26
394.29	79.58
394.49	135.75
394.68	159.16
394.88	117.03
395.07	152.13
395.26	145.11
395.46	53.83
395.65	86.60
395.84	121.71
396.04	124.05
396.23	77.24
396.42	159.16
396.62	142.77
396.81	170.86
397.00	131.07
397.19	126.39
397.39	170.86
397.58	131.07
397.77	91.28
397.97	154.48
398.16	159.16
398.35	102.98
398.55	117.03
398.74	140.43
398.93	149.79
399.12	159.16
399.32	98.30
399.51	63.19
399.70	58.51
399.90	198.95
400.09	196.60
400.28	210.65
400.47	145.11
400.67	124.05
400.86	117.03
401.05	124.05
401.24	133.41
401.44	110.01
401.63	163.84
401.82	191.92
402.01	177.88
402.21	91.28
402.40	140.43
402.59	159.16
402.78	145.11
402.97	138.09
403.17	149.79
403.36	98.30
403.55	287.89
403.74	463.43
403.93	1476.88
404.13	3082.49
404.32	3578.68
404.51	2876.52
404.70	1720.29
404.89	641.31
405.09	346.40
405.28	236.39
405.47	163.84
405.66	170.86
405.85	135.75
406.05	170.86
406.24	112.35
406.43	182.56
406.62	166.18
406.81	224.69
407.00	262.14
407.20	458.74
407.39	587.47
407.58	543.00
407.77	372.15
407.96	266.82
408.15	210.65
408.34	170.86
408.54	128.73
408.73	95.96
408.92	46.81
409.11	227.03
409.30	196.60
409.49	182.56
409.68	163.84
409.87	189.58
410.07	128.73
410.26	170.86
410.45	124.05
410.64	112.35
410.83	154.48
411.02	107.66
411.21	131.07
411.40	173.20
411.59	114.69
411.78	198.95
411.98	180.22
412.17	252.78
412.36	124.05
412.55	184.90
412.74	187.24
412.93	180.22
413.12	159.16
413.31	215.33
413.50	205.97
413.69	149.79
413.88	163.84
414.07	180.22
414.26	175.54
414.45	81.92
414.64	266.82
414.83	222.35
415.02	117.03
415.22	229.37
415.41	203.63
415.60	133.41
415.79	180.22
415.98	224.69
416.17	168.52
416.36	175.54
416.55	114.69
416.74	189.58
416.93	250.44
417.12	154.48
417.31	121.71
417.50	140.43
417.69	243.42
417.88	217.67
418.07	110.01
418.26	222.35
418.45	245.76
418.64	217.67
418.83	156.82
419.02	227.03
419.21	245.76
419.39	208.31
419.58	198.95
419.77	182.56
419.96	215.33
420.15	212.99
420.34	224.69
420.53	215.33
420.72	280.86
420.91	184.90
421.10	142.77
421.29	156.82
421.48	135.75
421.67	217.67
421.86	166.18
422.05	255.12
422.24	238.73
422.43	198.95
422.61	194.26
422.80	243.42
422.99	224.69
423.18	220.01
423.37	257.46
423.56	194.26
423.75	271.50
423.94	159.16
424.13	215.33
424.32	234.05
424.50	180.22
424.69	184.90
424.88	220.01
425.07	201.29
425.26	147.45
425.45	238.73
425.64	180.22
425.83	227.03
426.01	248.10
426.20	182.56
426.39	236.39
426.58	166.18
426.77	241.08
426.96	243.42
427.15	245.76
427.33	276.18
427.52	294.91
427.71	304.27
427.90	257.46
428.09	271.50
428.28	238.73
428.46	252.78
428.65	248.10
428.84	177.88
429.03	318.31
429.22	285.55
429.40	236.39
429.59	184.90
429.78	273.84
429.97	283.20
430.16	248.10
430.34	306.61
430.53	238.73
430.72	245.76
430.91	241.08
431.10	180.22
431.28	276.18
431.47	243.42
431.66	283.20
431.85	283.20
432.03	264.48
432.22	346.40
432.41	245.76
432.60	308.95
432.79	304.27
432.97	308.95
433.16	325.33
433.35	383.85
433.54	411.93
433.72	369.80
433.91	404.91
434.10	514.92
434.28	491.51
434.47	683.44
434.66	620.24
434.85	779.40
435.03	2340.54
435.22	8397.84
435.41	15882.88
435.59	14300.67
435.78	9221.71
435.97	4521.92
436.16	1863.07
436.34	671.73
436.53	512.58
436.72	421.30
436.90	376.83
437.09	315.97
437.28	374.49
437.46	313.63
437.65	353.42
437.84	332.36
438.02	287.89
438.21	297.25
438.40	280.86
438.58	325.33
438.77	372.15
438.96	337.04
439.14	248.10
439.33	304.27
439.52	294.91
439.70	358.10
439.89	311.29
440.08	191.92
440.26	315.97
440.45	379.17
440.63	346.40
440.82	313.63
441.01	280.86
441.19	266.82
441.38	358.10
441.57	421.30
441.75	348.74
441.94	390.87
442.12	297.25
442.31	250.44
442.50	255.12
442.68	325.33
442.87	330.02
443.05	287.89
443.24	351.08
443.43	353.42
443.61	334.70
443.80	264.48
443.98	297.25
444.17	327.68
444.35	365.12
444.54	278.52
444.73	264.48
444.91	308.95
445.10	322.99
445.28	273.84
445.47	353.42
445.65	252.78
445.84	334.70
446.02	330.02
446.21	337.04
446.39	339.38
446.58	393.21
446.77	308.95
446.95	379.17
447.14	390.87
447.32	276.18
447.51	283.20
447.69	320.65
447.88	269.16
448.06	271.50
448.25	313.63
448.43	299.59
448.62	294.91
448.80	301.93
448.99	264.48
449.17	280.86
449.36	243.42
449.54	266.82
449.73	339.38
449.91	390.87
450.10	313.63
450.28	353.42
450.46	308.95
450.65	327.68
450.83	320.65
451.02	297.25
451.20	290.23
451.39	306.61
451.57	360.44
451.76	248.10
451.94	320.65
452.13	376.83
452.31	306.61
452.49	346.40
452.68	250.44
452.86	301.93
453.05	332.36
453.23	318.31
453.42	238.73
453.60	285.55
453.78	311.29
453.97	271.50
454.15	306.61
454.34	365.12
454.52	297.25
454.70	229.37
454.89	236.39
455.07	278.52
455.26	320.65
455.44	334.70
455.62	322.99
455.81	339.38
455.99	297.25
456.17	285.55
456.36	259.80
456.54	308.95
456.73	360.44
456.91	308.95
457.09	290.23
457.28	297.25
457.46	285.55
457.64	339.38
457.83	292.57
458.01	308.95
458.19	255.12
458.38	313.63
458.56	341.72
458.74	311.29
458.93	304.27
459.11	327.68
459.29	269.16
459.48	390.87
459.66	280.86
459.84	318.31
460.03	351.08
460.21	334.70
460.39	297.25
460.57	308.95
460.76	311.29
460.94	318.31
461.12	414.27
461.31	358.10
461.49	339.38
461.67	346.40
461.85	166.18
462.04	203.63
462.22	386.19
462.40	322.99
462.59	379.17
462.77	283.20
462.95	332.36
463.13	290.23
463.32	341.72
463.50	278.52
463.68	264.48
463.86	339.38
464.05	285.55
464.23	322.99
464.41	327.68
464.59	341.72
464.78	290.23
464.96	259.80
465.14	264.48
465.32	330.02
465.50	210.65
465.69	248.10
465.87	177.88
466.05	283.20
466.23	243.42
466.41	276.18
466.60	262.14
466.78	236.39
466.96	372.15
467.14	334.70
467.32	393.21
467.51	266.82
467.69	322.99
467.87	397.89
468.05	299.59
468.23	234.05
468.41	383.85
468.60	299.59
468.78	262.14
468.96	376.83
469.14	245.76
469.32	245.76
469.50	278.52
469.69	227.03
469.87	262.14
470.05	259.80
470.23	266.82
470.41	210.65
470.59	320.65
470.77	290.23
470.95	269.16
471.14	271.50
471.32	322.99
471.50	269.16
471.68	313.63
471.86	306.61
472.04	259.80
472.22	269.16
472.40	311.29
472.58	243.42
472.77	266.82
472.95	231.71
473.13	393.21
473.31	334.70
473.49	339.38
473.67	308.95
473.85	334.70
474.03	297.25
474.21	283.20
474.39	299.59
474.57	351.08
474.75	229.37
474.93	322.99
475.12	362.78
475.30	245.76
475.48	330.02
475.66	313.63
475.84	271.50
476.02	322.99
476.20	332.36
476.38	334.70
476.56	390.87
476.74	297.25
476.92	362.78
477.10	287.89
477.28	266.82
477.46	280.86
477.64	264.48
477.82	252.78
478.00	245.76
478.18	327.68
478.36	365.12
478.54	315.97
478.72	266.82
478.90	404.91
479.08	395.55
479.26	409.59
479.44	374.49
479.62	351.08
479.80	280.86
479.98	334.70
480.16	409.59
480.34	379.17
480.52	346.40
480.70	402.57
480.88	484.49
481.06	390.87
481.24	447.04
481.41	458.74
481.59	454.06
481.77	638.97
481.95	585.13
482.13	669.39
482.31	603.86
482.49	615.56
482.67	702.16
482.85	732.59
483.03	795.78
483.21	723.23
483.39	809.83
483.57	847.27
483.74	947.92
483.92	964.30
484.10	994.73
484.28	968.98
484.46	1121.12
484.64	1205.38
484.82	1160.91
485.00	1247.51
485.18	1313.04
485.35	1317.72
485.53	1469.86
485.71	1502.62
485.89	1563.48
486.07	1542.41
486.25	1652.42
486.43	1598.59
486.61	1666.46
486.78	1650.08
486.96	1577.52
487.14	1661.78
487.32	1528.37
487.50	1652.42
487.68	1593.90
487.85	1511.99
488.03	1572.84
488.21	1692.21
488.39	1514.33
488.57	1572.84
488.75	1458.15
488.92	1717.95
489.10	1479.22
489.28	1345.81
489.46	1296.66
489.64	1303.68
489.81	1238.14
489.99	1350.49
490.17	1277.93
490.35	1287.29
490.53	1310.70
490.70	1191.33
490.88	1261.55
491.06	1350.49
491.24	1350.49
491.41	1444.11
491.59	1399.64
491.77	1231.12
491.95	1254.53
492.13	1212.40
492.30	1203.04
492.48	1160.91
492.66	1146.86
492.84	1123.46
493.01	1093.03
493.19	1104.73
493.37	1125.80
493.54	1111.75
493.72	1144.52
493.90	1088.35
494.08	952.60
494.25	978.34
494.43	1060.26
494.61	1015.79
494.79	997.07
494.96	983.02
495.14	978.34
495.32	961.96
495.49	901.11
495.67	947.92
495.85	875.36
496.02	880.04
496.20	983.02
496.38	954.94
496.55	851.96
496.73	814.51
496.91	858.98
497.09	917.49
497.26	807.48
497.44	786.42
497.62	779.40
497.79	786.42
497.97	727.91
498.14	748.97
498.32	772.38
498.50	748.97
498.67	718.54
498.85	753.65
499.03	685.78
499.20	718.54
499.38	692.80
499.56	676.41
499.73	709.18
499.91	648.33
500.08	573.43
500.26	606.20
500.44	613.22
500.61	491.51
500.79	535.98
500.97	465.77
501.14	603.86
501.32	535.98
501.49	437.68
501.67	533.64
501.84	486.83
502.02	388.53
502.20	540.66
502.37	461.09
502.55	479.81
502.72	395.55
502.90	482.15
503.07	470.45
503.25	463.43
503.43	458.74
503.60	416.62
503.78	475.13
503.95	409.59
504.13	383.85
504.30	393.21
504.48	418.96
504.65	512.58
504.83	407.25
505.01	409.59
505.18	386.19
505.36	348.74
505.53	320.65
505.71	416.62
505.88	435.34
506.06	337.04
506.23	355.76
506.41	294.91
506.58	390.87
506.76	400.23
506.93	351.08
507.11	367.46
507.28	397.89
507.46	386.19
507.63	369.80
507.81	379.17
507.98	313.63
508.16	348.74
508.33	365.12
508.50	325.33
508.68	372.15
508.85	486.83
509.03	440.02
509.20	395.55
509.38	383.85
509.55	344.06
509.73	348.74
509.90	353.42
510.08	346.40
510.25	283.20
510.42	318.31
510.60	313.63
510.77	355.76
510.95	376.83
511.12	365.12
511.30	301.93
511.47	346.40
511.64	386.19
511.82	327.68
511.99	376.83
512.17	294.91
512.34	301.93
512.51	383.85
512.69	313.63
512.86	322.99
513.04	344.06
513.21	395.55
513.38	313.63
513.56	236.39
513.73	264.48
513.90	355.76
514.08	290.23
514.25	369.80
514.43	325.33
514.60	315.97
514.77	332.36
514.95	334.70
515.12	276.18
515.29	299.59
515.47	320.65
515.64	290.23
515.81	304.27
515.99	390.87
516.16	313.63
516.33	304.27
516.51	315.97
516.68	360.44
516.85	280.86
517.03	269.16
517.20	346.40
517.37	346.40
517.54	311.29
517.72	325.33
517.89	283.20
518.06	273.84
518.24	358.10
518.41	390.87
518.58	358.10
518.75	273.84
518.93	290.23
519.10	306.61
519.27	262.14
519.45	332.36
519.62	402.57
519.79	383.85
519.96	308.95
520.14	276.18
520.31	264.48
520.48	220.01
520.65	294.91
520.83	372.15
521.00	330.02
521.17	348.74
521.34	283.20
521.52	318.31
521.69	264.48
521.86	341.72
522.03	290.23
522.20	379.17
522.38	283.20
522.55	306.61
522.72	276.18
522.89	304.27
523.07	358.10
523.24	266.82
523.41	297.25
523.58	250.44
523.75	215.33
523.92	224.69
524.10	313.63
524.27	276.18
524.44	346.40
524.61	304.27
524.78	290.23
524.96	280.86
525.13	348.74
525.30	355.76
525.47	411.93
525.64	388.53
525.81	348.74
525.98	297.25
526.16	358.10
526.33	299.59
526.50	278.52
526.67	276.18
526.84	224.69
527.01	325.33
527.18	355.76
527.36	353.42
527.53	369.80
527.70	367.46
527.87	369.80
528.04	374.49
528.21	327.68
528.38	367.46
528.55	355.76
528.72	355.76
528.89	411.93
529.07	283.20
529.24	379.17
529.41	409.59
529.58	393.21
529.75	390.87
529.92	430.66
530.09	355.76
530.26	379.17
530.43	304.27
530.60	355.76
530.77	402.57
530.94	397.89
531.11	433.00
531.28	393.21
531.46	414.27
531.63	444.70
531.80	489.17
531.97	526.62
532.14	554.71
532.31	606.20
532.48	664.71
532.65	739.61
532.82	816.85
532.99	884.72
533.16	1057.92
533.33	952.60
533.50	1001.75
533.67	795.78
533.84	741.95
534.01	690.46
534.18	608.54
534.35	615.56
534.52	748.97
534.69	676.41
534.86	669.39
535.03	660.03
535.20	732.59
535.37	805.14
535.54	842.59
535.71	828.55
535.88	959.62
536.05	978.34
536.22	1029.84
536.38	1156.22
536.55	1151.54
536.72	1284.95
536.89	1430.07
537.06	1561.14
537.23	1638.38
537.40	1863.07
537.57	1874.77
537.74	2045.63
537.91	2134.57
538.08	1977.75
538.25	2150.95
538.42	2195.42
538.59	2235.21
538.75	2361.60
538.92	2422.45
539.09	2754.81
539.26	3068.44
539.43	3370.37
539.60	3684.00
539.77	4163.81
539.94	4482.13
540.11	4980.66
540.28	5411.32
540.44	5998.79
540.61	6609.67
540.78	7885.26
540.95	9118.73
541.12	10883.49
541.29	11817.36
541.46	12409.52
541.62	12383.77
541.79	11648.85
541.96	10803.91
542.13	10101.75
542.30	9561.09
542.47	9107.02
542.63	8606.15
542.80	8519.55
542.97	8346.35
543.14	8025.70
543.31	8365.07
543.48	8341.67
543.64	8264.43
543.81	8439.97
543.98	8208.26
544.15	8451.67
544.32	8393.16
544.48	8379.12
544.65	8456.36
544.82	8355.71
544.99	8329.97
545.16	8491.46
545.32	9207.67
545.49	18092.34
545.66	30221.00
545.83	33074.11
546.00	27058.93
546.16	18965.36
546.33	14108.75
546.50	10441.13
546.67	8540.61
546.83	7686.32
547.00	7421.84
547.17	6909.26
547.34	6532.44
547.50	6218.80
547.67	6157.95
547.84	5991.77
548.00	5596.22
548.17	5495.58
548.34	5317.70
548.51	5041.51
548.67	4903.42
548.84	4610.86
549.01	4386.16
549.18	4280.84
549.34	4039.76
549.51	4011.68
549.68	3922.74
549.84	3599.74
550.01	3471.01
550.18	3421.86
550.34	3253.34
550.51	3199.51
550.68	2925.67
550.84	2752.47
551.01	2663.53
551.18	2520.76
551.34	2359.26
551.51	2272.66
551.68	2153.29
551.84	2188.40
552.01	2054.99
552.18	2026.90
552.34	1961.37
552.51	1823.28
552.68	1853.70
552.84	1682.85
553.01	1645.40
553.18	1633.69
553.34	1633.69
553.51	1465.18
553.67	1493.26
553.84	1582.20
554.01	1294.32
554.17	1256.87
554.34	1284.95
554.51	1170.27
554.67	1172.61
554.84	1097.71
555.00	1064.94
555.17	924.51
555.33	933.87
555.50	863.66
555.67	891.74
555.83	763.01
556.00	819.19
556.16	933.87
556.33	814.51
556.50	645.99
556.66	739.61
556.83	627.26
556.99	760.67
557.16	683.44
557.32	657.69
557.49	650.67
557.65	596.84
557.82	601.52
557.98	634.29
558.15	620.24
558.32	582.79
558.48	559.39
558.65	559.39
558.81	524.28
558.98	521.94
559.14	624.92
559.31	545.34
559.47	615.56
559.64	526.62
559.80	486.83
559.97	512.58
560.13	486.83
560.30	498.53
560.46	397.89
560.63	496.19
560.79	503.22
560.96	409.59
561.12	465.77
561.29	418.96
561.45	540.66
561.61	543.00
561.78	603.86
561.94	533.64
562.11	505.56
562.27	500.87
562.44	566.41
562.60	496.19
562.77	477.47
562.93	571.09
563.10	521.94
563.26	458.74
563.42	454.06
563.59	418.96
563.75	407.25
563.92	456.40
564.08	433.00
564.24	421.30
564.41	477.47
564.57	423.64
564.74	440.02
564.90	470.45
565.07	484.49
565.23	435.34
565.39	390.87
565.56	400.23
565.72	407.25
565.88	397.89
566.05	456.40
566.21	430.66
566.38	411.93
566.54	353.42
566.70	425.98
566.87	376.83
567.03	435.34
567.19	447.04
567.36	423.64
567.52	423.64
567.68	437.68
567.85	486.83
568.01	435.34
568.17	451.72
568.34	383.85
568.50	435.34
568.66	351.08
568.83	414.27
568.99	383.85
569.15	444.70
569.32	332.36
569.48	311.29
569.64	390.87
569.81	320.65
569.97	411.93
570.13	376.83
570.30	278.52
570.46	348.74
570.62	362.78
570.78	390.87
570.95	287.89
571.11	339.38
571.27	337.04
571.43	418.96
571.60	285.55
571.76	320.65
571.92	425.98
572.09	372.15
572.25	433.00
572.41	273.84
572.57	313.63
572.74	435.34
572.90	451.72
573.06	353.42
573.22	449.38
573.38	332.36
573.55	416.62
573.71	393.21
573.87	461.09
574.03	351.08
574.20	304.27
574.36	346.40
574.52	325.33
574.68	379.17
574.84	430.66
575.01	437.68
575.17	503.22
575.33	411.93
575.49	400.23
575.65	545.34
575.82	599.18
575.98	601.52
576.14	547.69
576.30	1303.68
576.46	3983.59
576.62	5427.70
576.79	5568.13
576.95	3983.59
577.11	2658.85
577.27	1987.11
577.43	1411.34
577.59	926.85
577.75	891.74
577.92	741.95
578.08	753.65
578.24	772.38
578.40	1385.60
578.56	3609.11
578.72	5219.39
578.88	5200.67
579.04	3826.78
579.21	2691.62
579.37	2157.97
579.53	1781.15
579.69	1776.47
579.85	2076.06
580.01	2277.34
580.17	2125.21
580.33	1778.81
580.49	1621.99
580.65	1542.41
580.82	1331.76
580.98	1334.11
581.14	1406.66
581.30	1514.33
581.46	1537.73
581.62	1699.23
581.78	1746.04
581.94	1827.96
582.10	2012.86
582.26	2097.12
582.42	2076.06
582.58	2047.97
582.74	2195.42
582.90	2225.85
583.06	2279.68
583.22	2223.51
583.38	2111.16
583.54	2209.47
583.70	2193.08
583.86	2174.36
584.02	2059.67
584.18	2078.40
584.34	2080.74
584.50	2001.16
584.66	2069.03
584.82	1895.83
584.98	1991.80
585.14	1975.41
585.30	1886.47
585.46	1825.62
585.62	1881.79
585.78	1788.17
585.94	1818.60
586.10	1935.62
586.26	2059.67
586.42	2345.22
586.58	2792.26
586.74	3372.71
586.90	3829.12
587.06	4222.33
587.22	4004.66
587.38	3606.77
587.54	3117.59
587.70	2736.09
587.86	2307.77
588.02	1935.62
588.18	1755.40
588.34	1680.50
588.49	1404.32
588.65	1385.60
588.81	1413.68
588.97	1329.42
589.13	1284.95
589.29	1203.04
589.45	1275.59
589.61	1317.72
589.77	1350.49
589.93	1320.06
590.08	1296.66
590.24	1345.81
590.40	1308.36
590.56	1441.77
590.72	1448.79
590.88	1490.92
591.04	1493.26
591.20	1577.52
591.35	1640.72
591.51	1675.82
591.67	1755.40
591.83	1865.41
591.99	2169.68
592.15	2361.60
592.31	2450.54
592.46	2633.10
592.62	2764.17
592.78	2944.39
592.94	3059.08
593.10	2986.52
593.26	2766.51
593.41	2675.23
593.57	2410.75
593.73	2097.12
593.89	1837.32
594.05	1584.54
594.20	1540.07
594.36	1460.49
594.52	1249.85
594.68	1261.55
594.84	1242.82
594.99	1275.59
595.15	1139.84
595.31	1151.54
595.47	1090.69
595.62	1081.33
595.78	1139.84
595.94	1128.14
596.10	1165.59
596.25	1177.29
596.41	1217.08
596.57	1111.75
596.73	1128.14
596.88	1151.54
597.04	1186.65
597.20	1097.71
597.36	1198.35
597.51	1289.64
597.67	1282.61
597.83	1362.19
597.99	1411.34
598.14	1521.35
598.30	1547.09
598.46	1629.01
598.61	1680.50
598.77	1612.63
598.93	1781.15
599.09	1797.53
599.24	1884.13
599.40	1849.02
599.56	1834.98
599.71	1788.17
599.87	1673.48
600.03	1476.88
600.18	1460.49
600.34	1366.87
600.50	1186.65
600.65	1200.69
600.81	1165.59
600.97	1029.84
601.12	1020.47
601.28	1057.92
601.44	966.64
601.59	873.02
601.75	858.98
601.91	882.38
602.06	856.64
602.22	929.19
602.37	777.06
602.53	854.30
602.69	788.76
602.84	805.14
603.00	809.83
603.16	823.87
603.31	875.36
603.47	929.19
603.62	765.36
603.78	858.98
603.94	889.40
604.09	908.13
604.25	875.36
604.40	887.06
604.56	1011.11
604.71	901.11
604.87	926.85
605.03	973.66
605.18	905.79
605.34	994.73
605.49	1043.88
605.65	1048.56
605.80	940.90
605.96	1039.20
606.12	1121.12
606.27	1114.10
606.43	1156.22
606.58	1238.14
606.74	1198.35
606.89	1472.20
607.05	1411.34
607.20	1465.18
607.36	1645.40
607.51	1584.54
607.67	1809.23
607.82	1788.17
607.98	2015.20
608.13	2099.46
608.29	2179.04
608.44	2417.77
608.60	2644.81
608.75	2974.82
608.91	3115.25
609.06	3356.33
609.22	3850.18
609.37	4114.66
609.53	4613.20
609.68	5261.52
609.84	5928.58
609.99	7110.55
610.15	8573.38
610.30	10263.25
610.46	13095.30
610.61	16989.95
610.76	21303.56
610.92	25111.61
611.07	28229.20
611.23	28194.09
611.38	26415.29
611.54	23215.77
611.69	20226.91
611.84	16882.28
612.00	13900.44
612.15	11777.58
612.31	10256.23
612.46	9362.14
612.62	8578.06
612.77	8273.79
612.92	7829.09
613.08	7297.79
613.23	6892.88
613.39	6502.01
613.54	6410.73
613.69	6581.59
613.85	6328.81
614.00	6228.17
614.15	6181.35
614.31	6150.93
614.46	6078.37
614.62	5785.80
614.77	5715.59
614.92	5195.99
615.08	4975.98
615.23	4627.24
615.38	4180.20
615.54	3864.22
615.69	3492.08
615.84	3215.90
616.00	2949.08
616.15	2745.45
616.30	2597.99
616.46	2455.22
616.61	2143.93
616.76	2256.28
616.92	2115.84
617.07	1987.11
617.22	1877.11
617.37	1825.62
617.53	1767.10
617.68	1659.44
617.83	1636.03
617.99	1624.33
618.14	1572.84
618.29	1600.93
618.45	1519.01
618.60	1519.01
618.75	1455.81
618.90	1432.41
619.06	1540.07
619.21	1490.92
619.36	1483.90
619.51	1394.96
619.67	1451.13
619.82	1504.96
619.97	1528.37
620.12	1544.75
620.28	1441.77
620.43	1561.14
620.58	1593.90
620.73	1659.44
620.89	1591.56
621.04	1460.49
621.19	1523.69
621.34	1476.88
621.49	1514.33
621.65	1455.81
621.80	1500.28
621.95	1399.64
622.10	1439.43
622.25	1446.45
622.41	1493.26
622.56	1490.92
622.71	1598.59
622.86	1603.27
623.01	1511.99
623.16	1636.03
623.32	1720.29
623.47	1629.01
623.62	1626.67
623.77	1675.82
623.92	1598.59
624.07	1465.18
624.23	1659.44
624.38	1561.14
624.53	1629.01
624.68	1645.40
624.83	1638.38
624.98	1598.59
625.13	1664.12
625.29	1692.21
625.44	1643.06
625.59	1762.42
625.74	1750.72
625.89	1673.48
626.04	1685.19
626.19	1584.54
626.34	1668.80
626.49	1652.42
626.65	1624.33
626.80	1664.12
626.95	1657.10
627.10	1448.79
627.25	1551.78
627.40	1528.37
627.55	1469.86
627.70	1535.39
627.85	1500.28
628.00	1476.88
628.15	1444.11
628.30	1500.28
628.45	1509.65
628.60	1526.03
628.76	1479.22
628.91	1519.01
629.06	1540.07
629.21	1547.09
629.36	1647.74
629.51	1598.59
629.66	1760.08
629.81	1753.06
629.96	1982.43
630.11	2129.89
630.26	2431.82
630.41	2733.75
630.56	2834.39
630.71	3054.40
630.86	3096.53
631.01	2974.82
631.16	2808.64
631.31	2483.31
631.46	2167.34
631.61	1846.68
631.76	1504.96
631.91	1357.51
632.06	1125.80
632.21	1078.99
632.36	887.06
632.51	863.66
632.66	835.57
632.81	732.59
632.96	678.76
633.10	676.41
633.25	690.46
633.40	531.30
633.55	596.84
633.70	524.28
633.85	573.43
634.00	587.47
634.15	451.72
634.30	587.47
634.45	486.83
634.60	519.60
634.75	545.34
634.90	559.39
635.05	454.06
635.19	538.32
635.34	416.62
635.49	547.69
635.64	498.53
635.79	409.59
635.94	512.58
636.09	543.00
636.24	543.00
636.39	503.22
636.53	545.34
636.68	491.51
636.83	477.47
636.98	465.77
637.13	451.72
637.28	456.40
637.43	517.26
637.57	449.38
637.72	496.19
637.87	451.72
638.02	379.17
638.17	451.72
638.32	369.80
638.46	346.40
638.61	458.74
638.76	411.93
638.91	409.59
639.06	351.08
639.20	512.58
639.35	507.90
639.50	390.87
639.65	411.93
639.80	315.97
639.94	360.44
640.09	369.80
640.24	393.21
640.39	320.65
640.54	355.76
640.68	414.27
640.83	404.91
640.98	437.68
641.13	339.38
641.27	341.72
641.42	383.85
641.57	458.74
641.72	325.33
641.86	369.80
642.01	376.83
642.16	407.25
642.31	344.06
642.45	395.55
642.60	402.57
642.75	367.46
642.90	404.91
643.04	332.36
643.19	369.80
643.34	362.78
643.48	259.80
643.63	393.21
643.78	428.32
643.93	433.00
644.07	395.55
644.22	395.55
644.37	393.21
644.51	360.44
644.66	411.93
644.81	344.06
644.95	461.09
645.10	402.57
645.25	332.36
645.39	315.97
645.54	435.34
645.69	355.76
645.83	332.36
645.98	365.12
646.13	301.93
646.27	353.42
646.42	308.95
646.57	430.66
646.71	397.89
646.86	393.21
647.00	269.16
647.15	390.87
647.30	339.38
647.44	255.12
647.59	325.33
647.74	285.55
647.88	346.40
648.03	330.02
648.17	402.57
648.32	440.02
648.47	355.76
648.61	278.52
648.76	369.80
648.90	372.15
649.05	404.91
649.20	465.77
649.34	411.93
649.49	437.68
649.63	552.37
649.78	601.52
649.92	755.99
650.07	833.23
650.21	863.66
650.36	917.49
650.51	880.04
650.65	856.64
650.80	725.57
650.94	734.93
651.09	676.41
651.23	564.07
651.38	566.41
651.52	428.32
651.67	489.17
651.81	477.47
651.96	496.19
652.10	409.59
652.25	409.59
652.39	524.28
652.54	538.32
652.68	571.09
652.83	514.92
652.97	465.77
653.12	559.39
653.26	479.81
653.41	521.94
653.55	489.17
653.70	393.21
653.84	407.25
653.99	381.51
654.13	376.83
654.27	315.97
654.42	442.36
654.56	292.57
654.71	365.12
654.85	407.25
655.00	306.61
655.14	322.99
655.29	313.63
655.43	358.10
655.57	320.65
655.72	320.65
655.86	369.80
656.01	259.80
656.15	285.55
656.30	334.70
656.44	278.52
656.58	318.31
656.73	458.74
656.87	322.99
657.01	374.49
657.16	344.06
657.30	332.36
657.45	407.25
657.59	402.57
657.73	402.57
657.88	358.10
658.02	451.72
658.16	327.68
658.31	299.59
658.45	348.74
658.60	276.18
658.74	301.93
658.88	337.04
659.03	248.10
659.17	292.57
659.31	278.52
659.46	322.99
659.60	285.55
659.74	236.39
659.89	184.90
660.03	290.23
660.17	325.33
660.32	285.55
660.46	252.78
660.60	304.27
660.74	301.93
660.89	313.63
661.03	266.82
661.17	327.68
661.32	287.89
661.46	393.21
661.60	351.08
661.74	486.83
661.89	538.32
662.03	631.94
662.17	559.39
662.31	531.30
662.46	571.09
662.60	533.64
662.74	470.45
662.88	428.32
663.03	381.51
663.17	369.80
663.31	383.85
663.45	386.19
663.60	269.16
663.74	280.86
663.88	313.63
664.02	348.74
664.17	362.78
664.31	306.61
664.45	297.25
664.59	315.97
664.73	280.86
664.88	278.52
665.02	236.39
665.16	259.80
665.30	311.29
665.44	238.73
665.59	313.63
665.73	245.76
665.87	266.82
666.01	198.95
666.15	259.80
666.29	311.29
666.44	318.31
666.58	285.55
666.72	322.99
666.86	294.91
667.00	238.73
667.14	215.33
667.28	313.63
667.43	250.44
667.57	313.63
667.71	210.65
667.85	273.84
667.99	245.76
668.13	299.59
668.27	297.25
668.41	325.33
668.56	175.54
668.70	294.91
668.84	248.10
668.98	205.97
669.12	280.86
669.26	184.90
669.40	273.84
669.54	194.26
669.68	222.35
669.82	255.12
669.96	217.67
670.10	238.73
670.25	250.44
670.39	248.10
670.53	243.42
670.67	264.48
670.81	245.76
670.95	301.93
671.09	255.12
671.23	273.84
671.37	285.55
671.51	196.60
671.65	318.31
671.79	154.48
671.93	238.73
672.07	339.38
672.21	229.37
672.35	138.09
672.49	290.23
672.63	243.42
672.77	175.54
672.91	236.39
673.05	250.44
673.19	273.84
673.33	154.48
673.47	257.46
673.61	255.12
673.75	184.90
673.89	177.88
674.03	236.39
674.17	278.52
674.31	248.10
674.45	301.93
674.59	273.84
674.73	241.08
674.87	231.71
675.01	257.46
675.15	205.97
675.29	290.23
675.43	210.65
675.56	250.44
675.70	236.39
675.84	252.78
675.98	201.29
676.12	191.92
676.26	182.56
676.40	194.26
676.54	196.60
676.68	196.60
676.82	273.84
676.96	166.18
677.10	220.01
677.23	161.50
677.37	255.12
677.51	224.69
677.65	234.05
677.79	203.63
677.93	189.58
678.07	149.79
678.21	170.86
678.34	152.13
678.48	257.46
678.62	189.58
678.76	154.48
678.90	208.31
679.04	292.57
679.18	173.20
679.31	259.80
679.45	215.33
679.59	229.37
679.73	203.63
679.87	205.97
680.00	234.05
680.14	217.67
680.28	196.60
680.42	255.12
680.56	236.39
680.70	215.33
680.83	227.03
680.97	231.71
681.11	191.92
681.25	294.91
681.39	187.24
681.52	278.52
681.66	194.26
681.80	229.37
681.94	220.01
682.07	278.52
682.21	245.76
682.35	227.03
682.49	217.67
682.62	175.54
682.76	203.63
682.90	173.20
683.04	292.57
683.17	203.63
683.31	168.52
683.45	231.71
683.59	231.71
683.72	273.84
683.86	266.82
684.00	128.73
684.13	252.78
684.27	245.76
684.41	285.55
684.55	257.46
684.68	201.29
684.82	191.92
684.96	180.22
685.09	203.63
685.23	217.67
685.37	180.22
685.50	245.76
685.64	257.46
685.78	166.18
685.91	198.95
686.05	341.72
686.19	215.33
686.32	269.16
686.46	290.23
686.60	292.57
686.73	381.51
686.87	311.29
687.01	234.05
687.14	299.59
687.28	327.68
687.42	320.65
687.55	376.83
687.69	341.72
687.82	367.46
687.96	311.29
688.10	449.38
688.23	271.50
688.37	374.49
688.50	334.70
688.64	255.12
688.78	283.20
688.91	234.05
689.05	269.16
689.18	245.76
689.32	241.08
689.46	220.01
689.59	224.69
689.73	184.90
689.86	217.67
690.00	128.73
690.13	173.20
690.27	187.24
690.41	212.99
690.54	255.12
690.68	196.60
690.81	250.44
690.95	194.26
691.08	184.90
691.22	159.16
691.35	166.18
691.49	145.11
691.62	131.07
691.76	138.09
691.89	187.24
692.03	154.48
692.16	126.39
692.30	142.77
692.43	184.90
692.57	168.52
692.70	98.30
692.84	210.65
692.97	248.10
693.11	243.42
693.24	259.80
693.38	269.16
693.51	248.10
693.65	358.10
693.78	294.91
693.92	285.55
694.05	280.86
694.19	264.48
694.32	220.01
694.45	142.77
694.59	49.15
694.72	201.29
694.86	161.50
694.99	163.84
695.13	222.35
695.26	196.60
695.39	227.03
695.53	189.58
695.66	105.32
695.80	170.86
695.93	149.79
696.07	170.86
696.20	154.48
696.33	180.22
696.47	177.88
696.60	154.48
696.73	156.82
696.87	114.69
697.00	142.77
697.14	175.54
697.27	131.07
697.40	170.86
697.54	124.05
697.67	131.07
697.80	138.09
697.94	124.05
698.07	126.39
698.21	81.92
698.34	227.03
698.47	138.09
698.61	58.51
698.74	135.75
698.87	184.90
699.01	203.63
699.14	145.11
699.27	95.96
699.40	135.75
699.54	168.52
699.67	154.48
699.80	81.92
699.94	170.86
700.07	180.22
700.20	168.52
700.34	189.58
700.47	51.49
700.60	191.92
700.73	117.03
700.87	145.11
701.00	138.09
701.13	203.63
701.26	133.41
701.40	114.69
701.53	203.63
701.66	159.16
701.79	156.82
701.93	152.13
702.06	189.58
702.19	140.43
702.32	236.39
702.46	177.88
702.59	126.39
702.72	112.35
702.85	177.88
702.99	198.95
703.12	224.69
703.25	100.64
703.38	170.86
703.51	196.60
703.65	194.26
703.78	124.05
703.91	156.82
704.04	224.69
704.17	203.63
704.31	117.03
704.44	166.18
704.57	208.31
704.70	208.31
704.83	266.82
704.96	173.20
705.10	201.29
705.23	255.12
>>>>>End Processed Spectral Data<<<<<
