SpectraSuite Data File
++++++++++++++++++++++++++++++++++++
Date: Fri Oct 04 11:41:48 GMT-05:00 2013
User: price-jones
Dark Spectrum Present: No
Reference Spectrum Present: No
Number of Sampled Component Spectra: 1
Spectrometers: USB2+H05261
Integration Time (usec): 100000 (USB2+H05261)
Spectra Averaged: 1 (USB2+H05261)
Boxcar Smoothing: 0 (USB2+H05261)
Correct for Electrical Dark: No (USB2+H05261)
Strobe/Lamp Enabled: No (USB2+H05261)
Correct for Detector Non-linearity: No (USB2+H05261)
Correct for Stray Light: No (USB2+H05261)
Number of Pixels in Processed Spectrum: 2048
>>>>>Begin Processed Spectral Data<<<<<
365.73	46.81
365.92	46.81
366.12	46.81
366.32	0.00
366.52	0.00
366.72	23.41
366.91	0.00
367.11	0.00
367.31	0.00
367.51	0.00
367.70	0.00
367.90	0.00
368.10	0.00
368.30	0.00
368.49	0.00
368.69	0.00
368.89	0.00
369.09	0.00
369.28	30.43
369.48	0.00
369.68	25.75
369.87	0.00
370.07	0.00
370.27	11.70
370.47	0.00
370.66	0.00
370.86	32.77
371.06	98.30
371.25	53.83
371.45	51.49
371.65	142.77
371.84	102.98
372.04	74.90
372.24	102.98
372.44	93.62
372.63	81.92
372.83	98.30
373.03	100.64
373.22	142.77
373.42	53.83
373.62	56.17
373.81	173.20
374.01	159.16
374.21	182.56
374.40	112.35
374.60	161.50
374.79	156.82
374.99	112.35
375.19	138.09
375.38	98.30
375.58	131.07
375.78	156.82
375.97	119.37
376.17	166.18
376.37	168.52
376.56	79.58
376.76	196.60
376.95	161.50
377.15	191.92
377.35	119.37
377.54	117.03
377.74	91.28
377.93	128.73
378.13	95.96
378.33	177.88
378.52	168.52
378.72	126.39
378.91	140.43
379.11	93.62
379.31	177.88
379.50	131.07
379.70	86.60
379.89	77.24
380.09	100.64
380.28	119.37
380.48	86.60
380.68	140.43
380.87	32.77
381.07	133.41
381.26	126.39
381.46	142.77
381.65	208.31
381.85	112.35
382.04	79.58
382.24	173.20
382.43	112.35
382.63	131.07
382.83	126.39
383.02	131.07
383.22	135.75
383.41	105.32
383.61	135.75
383.80	114.69
384.00	88.94
384.19	102.98
384.39	182.56
384.58	65.54
384.78	205.97
384.97	65.54
385.17	177.88
385.36	121.71
385.56	119.37
385.75	121.71
385.95	149.79
386.14	217.67
386.34	135.75
386.53	105.32
386.72	95.96
386.92	156.82
387.11	14.04
387.31	147.45
387.50	110.01
387.70	72.56
387.89	140.43
388.09	117.03
388.28	126.39
388.48	131.07
388.67	88.94
388.86	81.92
389.06	124.05
389.25	149.79
389.45	60.85
389.64	100.64
389.84	156.82
390.03	140.43
390.22	133.41
390.42	95.96
390.61	212.99
390.81	121.71
391.00	184.90
391.19	177.88
391.39	147.45
391.58	187.24
391.78	166.18
391.97	88.94
392.16	110.01
392.36	140.43
392.55	149.79
392.75	189.58
392.94	145.11
393.13	114.69
393.33	124.05
393.52	107.66
393.71	187.24
393.91	117.03
394.10	163.84
394.29	102.98
394.49	189.58
394.68	142.77
394.88	170.86
395.07	88.94
395.26	39.79
395.46	147.45
395.65	189.58
395.84	177.88
396.04	196.60
396.23	88.94
396.42	84.26
396.62	114.69
396.81	147.45
397.00	152.13
397.19	107.66
397.39	133.41
397.58	182.56
397.77	86.60
397.97	187.24
398.16	147.45
398.35	145.11
398.55	124.05
398.74	220.01
398.93	67.88
399.12	88.94
399.32	142.77
399.51	114.69
399.70	184.90
399.90	86.60
400.09	184.90
400.28	112.35
400.47	182.56
400.67	182.56
400.86	168.52
401.05	46.81
401.24	182.56
401.44	84.26
401.63	163.84
401.82	227.03
402.01	100.64
402.21	222.35
402.40	201.29
402.59	161.50
402.78	173.20
402.97	236.39
403.17	273.84
403.36	257.46
403.55	290.23
403.74	702.16
403.93	2225.85
404.13	5406.64
404.32	8093.57
404.51	7309.49
404.70	4372.12
404.89	1661.78
405.09	538.32
405.28	248.10
405.47	187.24
405.66	210.65
405.85	264.48
406.05	271.50
406.24	154.48
406.43	182.56
406.62	212.99
406.81	297.25
407.00	367.46
407.20	564.07
407.39	1046.22
407.58	1242.82
407.77	875.36
407.96	526.62
408.15	264.48
408.34	217.67
408.54	124.05
408.73	145.11
408.92	133.41
409.11	280.86
409.30	236.39
409.49	182.56
409.68	128.73
409.87	205.97
410.07	175.54
410.26	227.03
410.45	182.56
410.64	133.41
410.83	175.54
411.02	276.18
411.21	262.14
411.40	273.84
411.59	241.08
411.78	236.39
411.98	163.84
412.17	252.78
412.36	189.58
412.55	182.56
412.74	229.37
412.93	222.35
413.12	222.35
413.31	255.12
413.50	201.29
413.69	301.93
413.88	238.73
414.07	198.95
414.26	198.95
414.45	241.08
414.64	250.44
414.83	222.35
415.02	264.48
415.22	257.46
415.41	238.73
415.60	285.55
415.79	210.65
415.98	351.08
416.17	297.25
416.36	229.37
416.55	250.44
416.74	299.59
416.93	283.20
417.12	362.78
417.31	238.73
417.50	241.08
417.69	367.46
417.88	290.23
418.07	301.93
418.26	299.59
418.45	280.86
418.64	285.55
418.83	278.52
419.02	264.48
419.21	278.52
419.39	325.33
419.58	285.55
419.77	266.82
419.96	266.82
420.15	283.20
420.34	250.44
420.53	297.25
420.72	273.84
420.91	276.18
421.10	285.55
421.29	308.95
421.48	245.76
421.67	259.80
421.86	255.12
422.05	297.25
422.24	311.29
422.43	299.59
422.61	250.44
422.80	259.80
422.99	283.20
423.18	262.14
423.37	290.23
423.56	325.33
423.75	294.91
423.94	315.97
424.13	330.02
424.32	287.89
424.50	341.72
424.69	334.70
424.88	376.83
425.07	320.65
425.26	292.57
425.45	304.27
425.64	353.42
425.83	315.97
426.01	376.83
426.20	325.33
426.39	348.74
426.58	327.68
426.77	423.64
426.96	320.65
427.15	348.74
427.33	334.70
427.52	367.46
427.71	381.51
427.90	299.59
428.09	322.99
428.28	330.02
428.46	365.12
428.65	383.85
428.84	400.23
429.03	381.51
429.22	393.21
429.40	437.68
429.59	330.02
429.78	390.87
429.97	332.36
430.16	341.72
430.34	404.91
430.53	330.02
430.72	442.36
430.91	463.43
431.10	353.42
431.28	404.91
431.47	416.62
431.66	472.79
431.85	400.23
432.03	376.83
432.22	479.81
432.41	421.30
432.60	463.43
432.79	433.00
432.97	475.13
433.16	449.38
433.35	641.31
433.54	650.67
433.72	690.46
433.91	709.18
434.10	779.40
434.28	964.30
434.47	1090.69
434.66	1196.01
434.85	1434.75
435.03	3510.80
435.22	13081.25
435.41	32100.45
435.59	37516.45
435.78	24603.71
435.97	11988.22
436.16	4578.09
436.34	1621.99
436.53	950.26
436.72	763.01
436.90	627.26
437.09	671.73
437.28	634.29
437.46	547.69
437.65	554.71
437.84	543.00
438.02	505.56
438.21	454.06
438.40	458.74
438.58	411.93
438.77	531.30
438.96	489.17
439.14	463.43
439.33	564.07
439.52	472.79
439.70	428.32
439.89	503.22
440.08	547.69
440.26	510.24
440.45	533.64
440.63	470.45
440.82	463.43
441.01	458.74
441.19	475.13
441.38	524.28
441.57	582.79
441.75	393.21
441.94	514.92
442.12	484.49
442.31	500.87
442.50	505.56
442.68	524.28
442.87	575.77
443.05	456.40
443.24	491.51
443.43	627.26
443.61	531.30
443.80	517.26
443.98	538.32
444.17	442.36
444.35	580.45
444.54	528.96
444.73	351.08
444.91	442.36
445.10	465.77
445.28	393.21
445.47	538.32
445.65	503.22
445.84	456.40
446.02	545.34
446.21	470.45
446.39	514.92
446.58	440.02
446.77	409.59
446.95	435.34
447.14	528.96
447.32	449.38
447.51	531.30
447.69	440.02
447.88	430.66
448.06	599.18
448.25	512.58
448.43	437.68
448.62	435.34
448.80	418.96
448.99	367.46
449.17	477.47
449.36	437.68
449.54	503.22
449.73	477.47
449.91	540.66
450.10	486.83
450.28	564.07
450.46	547.69
450.65	524.28
450.83	425.98
451.02	517.26
451.20	440.02
451.39	461.09
451.57	482.15
451.76	521.94
451.94	470.45
452.13	493.85
452.31	521.94
452.49	458.74
452.68	512.58
452.86	468.11
453.05	484.49
453.23	390.87
453.42	507.90
453.60	423.64
453.78	465.77
453.97	418.96
454.15	383.85
454.34	447.04
454.52	454.06
454.70	447.04
454.89	409.59
455.07	447.04
455.26	477.47
455.44	517.26
455.62	561.73
455.81	489.17
455.99	409.59
456.17	425.98
456.36	477.47
456.54	503.22
456.73	531.30
456.91	507.90
457.09	491.51
457.28	561.73
457.46	433.00
457.64	468.11
457.83	442.36
458.01	397.89
458.19	484.49
458.38	482.15
458.56	533.64
458.74	372.15
458.93	421.30
459.11	425.98
459.29	451.72
459.48	528.96
459.66	557.05
459.84	456.40
460.03	589.82
460.21	552.37
460.39	503.22
460.57	454.06
460.76	489.17
460.94	535.98
461.12	458.74
461.31	482.15
461.49	461.09
461.67	449.38
461.85	444.70
462.04	470.45
462.22	952.60
462.40	493.85
462.59	435.34
462.77	505.56
462.95	395.55
463.13	514.92
463.32	440.02
463.50	425.98
463.68	496.19
463.86	493.85
464.05	479.81
464.23	477.47
464.41	543.00
464.59	571.09
464.78	500.87
464.96	484.49
465.14	475.13
465.32	468.11
465.50	440.02
465.69	360.44
465.87	404.91
466.05	440.02
466.23	407.25
466.41	552.37
466.60	498.53
466.78	444.70
466.96	507.90
467.14	440.02
467.32	533.64
467.51	447.04
467.69	449.38
467.87	468.11
468.05	463.43
468.23	416.62
468.41	486.83
468.60	451.72
468.78	416.62
468.96	454.06
469.14	454.06
469.32	404.91
469.50	395.55
469.69	444.70
469.87	418.96
470.05	517.26
470.23	484.49
470.41	330.02
470.59	400.23
470.77	489.17
470.95	496.19
471.14	437.68
471.32	463.43
471.50	545.34
471.68	482.15
471.86	477.47
472.04	559.39
472.22	423.64
472.40	369.80
472.58	440.02
472.77	465.77
472.95	425.98
473.13	470.45
473.31	512.58
473.49	433.00
473.67	421.30
473.85	507.90
474.03	514.92
474.21	444.70
474.39	496.19
474.57	470.45
474.75	575.77
474.93	456.40
475.12	416.62
475.30	395.55
475.48	407.25
475.66	531.30
475.84	482.15
476.02	489.17
476.20	390.87
476.38	428.32
476.56	416.62
476.74	472.79
476.92	503.22
477.10	489.17
477.28	421.30
477.46	489.17
477.64	472.79
477.82	524.28
478.00	461.09
478.18	433.00
478.36	526.62
478.54	477.47
478.72	528.96
478.90	557.05
479.08	603.86
479.26	606.20
479.44	531.30
479.62	606.20
479.80	671.73
479.98	582.79
480.16	699.82
480.34	648.33
480.52	624.92
480.70	643.65
480.88	631.94
481.06	751.31
481.24	788.76
481.41	826.21
481.59	849.61
481.77	990.05
481.95	1018.13
482.13	1060.26
482.31	1125.80
482.49	1097.71
482.67	1261.55
482.85	1376.24
483.03	1493.26
483.21	1526.03
483.39	1483.90
483.57	1643.06
483.74	1816.26
483.92	1916.90
484.10	1949.67
484.28	2136.91
484.46	2242.23
484.64	2385.01
484.82	2380.32
485.00	2558.21
485.18	2703.32
485.35	2944.39
485.53	2963.12
485.71	3061.42
485.89	3330.58
486.07	3353.99
486.25	3400.80
486.43	3414.84
486.61	3330.58
486.78	3471.01
486.96	3501.44
487.14	3496.76
487.32	3370.37
487.50	3377.39
487.68	3358.67
487.85	3379.73
488.03	3339.94
488.21	3328.24
488.39	3089.51
488.57	3073.12
488.75	2979.50
488.92	3108.23
489.10	2881.20
489.28	2899.92
489.46	2759.49
489.64	2640.12
489.81	2665.87
489.99	2581.61
490.17	2532.46
490.35	2619.06
490.53	2642.46
490.70	2560.55
490.88	2605.02
491.06	2757.15
491.24	2890.56
491.41	2918.65
491.59	2705.66
491.77	2593.31
491.95	2581.61
492.13	2455.22
492.30	2368.62
492.48	2169.68
492.66	2305.43
492.84	2317.13
493.01	2317.13
493.19	2218.83
493.37	2169.68
493.54	2047.97
493.72	2190.74
493.90	2174.36
494.08	1975.41
494.25	2153.29
494.43	2022.22
494.61	2022.22
494.79	1818.60
494.96	1944.99
495.14	1905.20
495.32	1860.73
495.49	1785.83
495.67	1849.02
495.85	1776.47
496.02	1685.19
496.20	1753.06
496.38	1561.14
496.55	1668.80
496.73	1600.93
496.91	1692.21
497.09	1629.01
497.26	1551.78
497.44	1526.03
497.62	1446.45
497.79	1409.00
497.97	1474.54
498.14	1465.18
498.32	1437.09
498.50	1404.32
498.67	1231.12
498.85	1294.32
499.03	1320.06
499.20	1263.89
499.38	1233.46
499.56	1153.88
499.73	1299.00
499.91	1156.22
500.08	1109.41
500.26	1093.03
500.44	1041.54
500.61	896.43
500.79	1053.24
500.97	976.00
501.14	1006.43
501.32	882.38
501.49	915.15
501.67	835.57
501.84	840.25
502.02	966.64
502.20	856.64
502.37	786.42
502.55	713.86
502.72	697.48
502.90	802.80
503.07	692.80
503.25	704.50
503.43	704.50
503.60	706.84
503.78	767.70
503.95	568.75
504.13	653.01
504.30	676.41
504.48	627.26
504.65	683.44
504.83	669.39
505.01	564.07
505.18	573.43
505.36	564.07
505.53	543.00
505.71	608.54
505.88	617.90
506.06	575.77
506.23	507.90
506.41	521.94
506.58	594.50
506.76	500.87
506.93	517.26
507.11	521.94
507.28	449.38
507.46	500.87
507.63	428.32
507.81	493.85
507.98	533.64
508.16	444.70
508.33	540.66
508.50	416.62
508.68	503.22
508.85	519.60
509.03	486.83
509.20	543.00
509.38	512.58
509.55	484.49
509.73	374.49
509.90	524.28
510.08	496.19
510.25	475.13
510.42	449.38
510.60	470.45
510.77	486.83
510.95	489.17
511.12	486.83
511.30	479.81
511.47	510.24
511.64	585.13
511.82	409.59
511.99	421.30
512.17	425.98
512.34	437.68
512.51	433.00
512.69	409.59
512.86	470.45
513.04	425.98
513.21	447.04
513.38	447.04
513.56	411.93
513.73	433.00
513.90	369.80
514.08	482.15
514.25	425.98
514.43	472.79
514.60	428.32
514.77	374.49
514.95	374.49
515.12	376.83
515.29	416.62
515.47	353.42
515.64	388.53
515.81	414.27
515.99	365.12
516.16	346.40
516.33	486.83
516.51	322.99
516.68	461.09
516.85	414.27
517.03	341.72
517.20	386.19
517.37	449.38
517.54	449.38
517.72	376.83
517.89	337.04
518.06	430.66
518.24	440.02
518.41	435.34
518.58	468.11
518.75	409.59
518.93	407.25
519.10	404.91
519.27	393.21
519.45	418.96
519.62	411.93
519.79	365.12
519.96	430.66
520.14	322.99
520.31	334.70
520.48	344.06
520.65	383.85
520.83	386.19
521.00	454.06
521.17	362.78
521.34	330.02
521.52	330.02
521.69	397.89
521.86	351.08
522.03	358.10
522.20	440.02
522.38	353.42
522.55	388.53
522.72	372.15
522.89	418.96
523.07	430.66
523.24	397.89
523.41	393.21
523.58	383.85
523.75	360.44
523.92	407.25
524.10	447.04
524.27	397.89
524.44	416.62
524.61	430.66
524.78	351.08
524.96	444.70
525.13	423.64
525.30	386.19
525.47	379.17
525.64	409.59
525.81	447.04
525.98	362.78
526.16	381.51
526.33	418.96
526.50	447.04
526.67	437.68
526.84	411.93
527.01	421.30
527.18	463.43
527.36	517.26
527.53	543.00
527.70	554.71
527.87	521.94
528.04	524.28
528.21	468.11
528.38	447.04
528.55	528.96
528.72	514.92
528.89	472.79
529.07	482.15
529.24	543.00
529.41	566.41
529.58	493.85
529.75	484.49
529.92	468.11
530.09	554.71
530.26	568.75
530.43	521.94
530.60	550.03
530.77	554.71
530.94	585.13
531.11	617.90
531.28	653.01
531.46	561.73
531.63	774.72
531.80	671.73
531.97	716.20
532.14	765.36
532.31	1020.47
532.48	1144.52
532.65	1324.74
532.82	1399.64
532.99	1769.44
533.16	1991.80
533.33	2139.25
533.50	1900.52
533.67	1771.79
533.84	1425.39
534.01	1261.55
534.18	1284.95
534.35	1254.53
534.52	1198.35
534.69	1252.19
534.86	1263.89
535.03	1317.72
535.20	1373.89
535.37	1425.39
535.54	1511.99
535.71	1577.52
535.88	1633.69
536.05	1802.21
536.22	1961.37
536.38	2127.55
536.55	2265.64
536.72	2574.59
536.89	2808.64
537.06	3129.30
537.23	3445.27
537.40	3779.97
537.57	4219.99
537.74	4306.59
537.91	4461.06
538.08	4645.96
538.25	4533.62
538.42	4704.48
538.59	4786.40
538.75	5025.13
538.92	5212.37
539.09	5687.50
539.26	6359.24
539.43	7061.40
539.60	8018.68
539.77	9100.00
539.94	10359.21
540.11	11630.12
540.28	12678.68
540.44	13804.48
540.61	15176.03
540.78	16968.88
540.95	20594.37
541.12	24966.49
541.29	27999.83
541.46	30089.93
541.62	29982.26
541.79	28521.77
541.96	26181.23
542.13	24489.03
542.30	22707.88
542.47	21191.21
542.63	20116.90
542.80	19625.39
542.97	19302.40
543.14	19077.71
543.31	19103.45
543.48	19480.28
543.64	19864.13
543.81	19777.53
543.98	20194.14
544.15	19857.10
544.32	20072.43
544.48	19831.36
544.65	19655.82
544.82	19321.12
544.99	19555.18
545.16	19939.02
545.32	20954.82
545.49	32746.44
545.66	56472.45
545.83	63765.56
546.00	59924.74
546.16	47065.83
546.33	34136.71
546.50	25734.19
546.67	19999.88
546.83	18178.94
547.00	17254.43
547.17	16444.60
547.34	15431.15
547.50	14656.43
547.67	14363.87
547.84	13635.96
548.00	13128.06
548.17	12894.01
548.34	12568.68
548.51	12142.70
548.67	11545.86
548.84	10668.16
549.01	10246.87
549.18	9696.84
549.34	9322.35
549.51	9001.70
549.68	8667.00
549.84	8477.42
550.01	7906.33
550.18	7623.12
550.34	7398.43
550.51	6963.09
550.68	6595.63
550.84	6204.76
551.01	6031.56
551.18	5736.65
551.34	5291.95
551.51	5071.94
551.68	4833.21
551.84	4819.16
552.01	4573.41
552.18	4318.29
552.34	4166.15
552.51	4046.79
552.68	3969.55
552.84	3726.13
553.01	3569.32
553.18	3557.61
553.34	3302.50
553.51	3253.34
553.67	3258.03
553.84	3059.08
554.01	2944.39
554.17	2649.49
554.34	2541.82
554.51	2490.33
554.67	2251.60
554.84	2136.91
555.00	2017.54
555.17	1811.57
555.33	1895.83
555.50	1746.04
555.67	1703.91
555.83	1448.79
556.00	1589.22
556.16	1664.12
556.33	1390.28
556.50	1437.09
556.66	1373.89
556.83	1284.95
556.99	1277.93
557.16	1268.57
557.32	1196.01
557.49	1221.76
557.65	1135.16
557.82	1109.41
557.98	1022.81
558.15	1062.60
558.32	985.37
558.48	933.87
558.65	964.30
558.81	987.71
558.98	954.94
559.14	945.58
559.31	896.43
559.47	964.30
559.64	861.32
559.80	858.98
559.97	880.04
560.13	819.19
560.30	858.98
560.46	868.34
560.63	866.00
560.79	873.02
560.96	840.25
561.12	798.12
561.29	922.17
561.45	828.55
561.61	898.77
561.78	856.64
561.94	873.02
562.11	821.53
562.27	798.12
562.44	765.36
562.60	725.57
562.77	802.80
562.93	730.25
563.10	835.57
563.26	758.33
563.42	692.80
563.59	725.57
563.75	685.78
563.92	753.65
564.08	779.40
564.24	725.57
564.41	765.36
564.57	629.60
564.74	734.93
564.90	617.90
565.07	695.14
565.23	683.44
565.39	706.84
565.56	653.01
565.72	620.24
565.88	671.73
566.05	603.86
566.21	636.63
566.38	704.50
566.54	573.43
566.70	585.13
566.87	596.84
567.03	645.99
567.19	695.14
567.36	737.27
567.52	678.76
567.68	676.41
567.85	683.44
568.01	688.12
568.17	720.88
568.34	669.39
568.50	688.12
568.66	667.05
568.83	821.53
568.99	655.35
569.15	767.70
569.32	585.13
569.48	608.54
569.64	533.64
569.81	601.52
569.97	514.92
570.13	500.87
570.30	557.05
570.46	526.62
570.62	519.60
570.78	475.13
570.95	400.23
571.11	601.52
571.27	535.98
571.43	470.45
571.60	491.51
571.76	437.68
571.92	500.87
572.09	486.83
572.25	528.96
572.41	482.15
572.57	442.36
572.74	519.60
572.90	521.94
573.06	461.09
573.22	519.60
573.38	507.90
573.55	517.26
573.71	510.24
573.87	608.54
574.03	573.43
574.20	547.69
574.36	610.88
574.52	613.22
574.68	620.24
574.84	669.39
575.01	753.65
575.17	727.91
575.33	739.61
575.49	779.40
575.65	833.23
575.82	976.00
575.98	950.26
576.14	1015.79
576.30	2127.55
576.46	6551.16
576.62	12924.44
576.79	14115.77
576.95	10359.21
577.11	6560.52
577.27	4575.75
577.43	3171.43
577.59	2113.50
577.75	1584.54
577.92	1446.45
578.08	1409.00
578.24	1462.83
578.40	2291.38
578.56	6298.38
578.72	11740.13
578.88	13317.65
579.04	9783.44
579.21	6511.37
579.37	4908.10
579.53	3637.19
579.69	3440.59
579.85	4318.29
580.01	4994.70
580.17	5097.69
580.33	4341.69
580.49	3667.62
580.65	3248.66
580.82	2972.48
580.98	2892.90
581.14	2984.18
581.30	3157.38
581.46	3330.58
581.62	3662.94
581.78	3637.19
581.94	4037.42
582.10	4299.56
582.26	4727.88
582.42	4667.03
582.58	5032.15
582.74	4903.42
582.90	4954.91
583.06	5104.71
583.22	5029.81
583.38	5022.79
583.54	4922.15
583.70	5013.43
583.86	4961.94
584.02	4961.94
584.18	4819.16
584.34	4613.20
584.50	4610.86
584.66	4517.23
584.82	4468.08
584.98	4400.21
585.14	4367.44
585.30	4290.20
585.46	4236.37
585.62	4177.86
585.78	4067.85
585.94	4128.70
586.10	4262.12
586.26	4477.44
586.42	5032.15
586.58	5977.73
586.74	7248.64
586.90	8851.91
587.06	9673.43
587.22	9631.30
587.38	8538.27
587.54	7393.75
587.70	6424.77
587.86	5380.89
588.02	4662.35
588.18	4021.04
588.34	3569.32
588.49	3342.28
588.65	3061.42
588.81	2963.12
588.97	2920.99
589.13	2782.90
589.29	2773.53
589.45	2885.88
589.61	2689.28
589.77	2743.11
589.93	2848.43
590.08	2932.69
590.24	2995.89
590.40	3005.25
590.56	3176.11
590.72	3206.53
590.88	3258.03
591.04	3398.46
591.20	3349.31
591.35	3721.45
591.51	3913.38
591.67	4011.68
591.83	4301.90
591.99	4535.96
592.15	5109.39
592.31	5315.36
592.46	5989.43
592.62	6441.15
592.78	6825.00
592.94	7040.33
593.10	7068.42
593.26	6544.14
593.41	6113.48
593.57	5568.13
593.73	4732.56
593.89	4276.16
594.05	3845.50
594.20	3482.72
594.36	3234.62
594.52	2951.42
594.68	2857.79
594.84	2719.70
594.99	2757.15
595.15	2612.04
595.31	2551.18
595.47	2450.54
595.62	2504.37
595.78	2506.71
595.94	2483.31
596.10	2525.44
596.25	2537.14
596.41	2541.82
596.57	2422.45
596.73	2490.33
596.88	2551.18
597.04	2476.29
597.20	2499.69
597.36	2586.29
597.51	2693.96
597.67	2703.32
597.83	2913.97
597.99	2991.20
598.14	3148.02
598.30	3424.20
598.46	3527.19
598.61	3747.20
598.77	3843.16
598.93	3978.91
599.09	4156.79
599.24	4217.65
599.40	4367.44
599.56	4208.28
599.71	4028.06
599.87	3765.92
600.03	3461.65
600.18	3222.92
600.34	3035.67
600.50	2715.02
600.65	2677.57
600.81	2462.24
600.97	2359.26
601.12	2352.24
601.28	2150.95
601.44	2040.95
601.59	1888.81
601.75	1926.26
601.91	1937.96
602.06	1717.95
602.22	1825.62
602.37	1708.59
602.53	1694.55
602.69	1659.44
602.84	1659.44
603.00	1750.72
603.16	1680.50
603.31	1713.27
603.47	1830.30
603.62	1724.97
603.78	1762.42
603.94	1790.51
604.09	1823.28
604.25	1968.39
604.40	1963.71
604.56	1886.47
604.71	2031.58
604.87	2017.54
605.03	1975.41
605.18	1956.69
605.34	2078.40
605.49	2214.15
605.65	2235.21
605.80	2146.27
605.96	2382.67
606.12	2436.50
606.27	2546.50
606.43	2647.15
606.58	2895.24
606.74	2916.31
606.89	3014.61
607.05	3152.70
607.20	3342.28
607.36	3515.48
607.51	3747.20
607.67	3843.16
607.82	4145.09
607.98	4407.23
608.13	5029.81
608.29	5128.11
608.44	5703.89
608.60	6038.58
608.75	6712.66
608.91	7241.62
609.06	7997.61
609.22	8959.57
609.37	9722.59
609.53	10958.39
609.68	12297.17
609.84	14150.88
609.99	16407.16
610.15	19491.98
610.30	23887.51
610.46	30541.65
610.61	39194.61
610.76	49078.69
610.92	55756.24
611.07	59510.46
611.23	59868.56
611.38	58433.81
611.54	55222.60
611.69	50354.29
611.84	43583.12
612.00	36664.49
612.15	31000.40
612.31	26504.23
612.46	23552.81
612.62	22139.13
612.77	20662.25
612.92	19646.46
613.08	18403.63
613.23	17352.73
613.39	16556.95
613.54	16283.11
613.69	15983.52
613.85	15943.73
614.00	15618.39
614.15	15236.89
614.31	15302.42
614.46	14766.44
614.62	14317.06
614.77	13657.03
614.92	12578.04
615.08	12074.82
615.23	11234.57
615.38	10265.59
615.54	9558.75
615.69	8524.23
615.84	7803.35
616.00	7197.15
616.15	6703.29
616.30	6396.68
616.46	5816.23
616.61	5516.64
616.76	5235.78
616.92	4896.40
617.07	4676.39
617.22	4580.43
617.37	4290.20
617.53	3995.29
617.68	3836.14
617.83	3719.11
617.99	3747.20
618.14	3618.47
618.29	3536.55
618.45	3405.48
618.60	3295.47
618.75	3143.34
618.90	3211.22
619.06	3290.79
619.21	3377.39
619.36	3272.07
619.51	3138.66
619.67	3232.28
619.82	3201.85
619.97	3295.47
620.12	3318.88
620.28	3412.50
620.43	3496.76
620.58	3435.91
620.73	3417.18
620.89	3557.61
621.04	3478.04
621.19	3454.63
621.34	3454.63
621.49	3314.20
621.65	3339.94
621.80	3410.16
621.95	3260.37
622.10	3300.16
622.25	3246.32
622.41	3293.13
622.56	3433.57
622.71	3520.17
622.86	3751.88
623.01	3761.24
623.16	3768.26
623.32	3691.02
623.47	3691.02
623.62	3644.21
623.77	3709.75
623.92	3784.65
624.07	3768.26
624.23	3775.28
624.38	3634.85
624.53	3730.81
624.68	3688.68
624.83	3712.09
624.98	3840.82
625.13	3810.39
625.29	3845.50
625.44	3805.71
625.59	3817.41
625.74	3985.93
625.89	3847.84
626.04	3786.99
626.19	3852.52
626.34	3812.73
626.49	3836.14
626.65	3744.86
626.80	3885.29
626.95	3747.20
627.10	3740.18
627.25	3693.37
627.40	3559.95
627.55	3646.55
627.70	3552.93
627.85	3496.76
628.00	3414.84
628.15	3496.76
628.30	3463.99
628.45	3382.07
628.60	3372.71
628.76	3445.27
628.91	3478.04
629.06	3375.05
629.21	3424.20
629.36	3557.61
629.51	3581.02
629.66	3847.84
629.81	4095.94
629.96	4589.79
630.11	4926.83
630.26	5708.57
630.41	6265.61
630.56	6864.79
630.71	7417.16
630.86	7751.85
631.01	7793.98
631.16	6850.75
631.31	6235.19
631.46	5217.05
631.61	4447.02
631.76	3616.13
631.91	2960.78
632.06	2768.85
632.21	2375.64
632.36	2031.58
632.51	1902.86
632.66	1657.10
632.81	1579.86
632.96	1474.54
633.10	1413.68
633.25	1336.45
633.40	1296.66
633.55	1217.08
633.70	1186.65
633.85	1205.38
634.00	1039.20
634.15	1114.10
634.30	1128.14
634.45	1039.20
634.60	997.07
634.75	978.34
634.90	910.47
635.05	926.85
635.19	966.64
635.34	919.83
635.49	966.64
635.64	992.39
635.79	903.45
635.94	795.78
636.09	940.90
636.24	854.30
636.39	856.64
636.53	950.26
636.68	795.78
636.83	798.12
636.98	891.74
637.13	706.84
637.28	809.83
637.43	837.91
637.57	723.23
637.72	793.44
637.87	699.82
638.02	725.57
638.17	734.93
638.32	777.06
638.46	681.10
638.61	697.48
638.76	653.01
638.91	763.01
639.06	660.03
639.20	718.54
639.35	653.01
639.50	615.56
639.65	723.23
639.80	723.23
639.94	739.61
640.09	718.54
640.24	681.10
640.39	697.48
640.54	664.71
640.68	709.18
640.83	685.78
640.98	655.35
641.13	620.24
641.27	685.78
641.42	704.50
641.57	660.03
641.72	643.65
641.86	683.44
642.01	683.44
642.16	697.48
642.31	704.50
642.45	748.97
642.60	627.26
642.75	599.18
642.90	681.10
643.04	641.31
643.19	732.59
643.34	676.41
643.48	615.56
643.63	648.33
643.78	718.54
643.93	734.93
644.07	603.86
644.22	648.33
644.37	688.12
644.51	730.25
644.66	641.31
644.81	653.01
644.95	667.05
645.10	692.80
645.25	610.88
645.39	634.29
645.54	657.69
645.69	702.16
645.83	550.03
645.98	681.10
646.13	559.39
646.27	617.90
646.42	559.39
646.57	559.39
646.71	627.26
646.86	578.11
647.00	676.41
647.15	514.92
647.30	538.32
647.44	596.84
647.59	664.71
647.74	622.58
647.88	634.29
648.03	624.92
648.17	603.86
648.32	622.58
648.47	475.13
648.61	608.54
648.76	695.14
648.90	664.71
649.05	758.33
649.20	737.27
649.34	760.67
649.49	968.98
649.63	1036.86
649.78	1203.04
649.92	1526.03
650.07	1734.34
650.21	1942.64
650.36	2104.14
650.51	2157.97
650.65	1952.01
650.80	1746.04
650.94	1572.84
651.09	1416.02
651.23	1254.53
651.38	1118.78
651.52	1034.52
651.67	1039.20
651.81	854.30
651.96	903.45
652.10	755.99
652.25	854.30
652.39	851.96
652.54	894.08
652.68	917.49
652.83	1095.37
652.97	1128.14
653.12	1088.35
653.26	924.51
653.41	1027.50
653.55	968.98
653.70	774.72
653.84	882.38
653.99	744.29
654.13	685.78
654.27	674.07
654.42	648.33
654.56	706.84
654.71	671.73
654.85	624.92
655.00	533.64
655.14	606.20
655.29	573.43
655.43	601.52
655.57	585.13
655.72	601.52
655.86	550.03
656.01	498.53
656.15	559.39
656.30	636.63
656.44	589.82
656.58	589.82
656.73	564.07
656.87	543.00
657.01	636.63
657.16	697.48
657.30	711.52
657.45	685.78
657.59	685.78
657.73	758.33
657.88	772.38
658.02	793.44
658.16	699.82
658.31	631.94
658.45	601.52
658.60	559.39
658.74	491.51
658.88	496.19
659.03	486.83
659.17	503.22
659.31	409.59
659.46	505.56
659.60	514.92
659.74	503.22
659.89	447.04
660.03	451.72
660.17	458.74
660.32	477.47
660.46	402.57
660.60	454.06
660.74	521.94
660.89	547.69
661.03	386.19
661.17	458.74
661.32	510.24
661.46	603.86
661.60	758.33
661.74	861.32
661.89	898.77
662.03	1135.16
662.17	1240.48
662.31	1200.69
662.46	1221.76
662.60	1170.27
662.74	1078.99
662.88	940.90
663.03	896.43
663.17	866.00
663.31	748.97
663.45	683.44
663.60	622.58
663.74	645.99
663.88	606.20
664.02	538.32
664.17	526.62
664.31	547.69
664.45	578.11
664.59	552.37
664.73	507.90
664.88	535.98
665.02	393.21
665.16	470.45
665.30	540.66
665.44	482.15
665.59	409.59
665.73	376.83
665.87	479.81
666.01	400.23
666.15	421.30
666.29	451.72
666.44	440.02
666.58	505.56
666.72	386.19
666.86	475.13
667.00	507.90
667.14	449.38
667.28	425.98
667.43	519.60
667.57	505.56
667.71	421.30
667.85	414.27
667.99	447.04
668.13	435.34
668.27	440.02
668.41	386.19
668.56	437.68
668.70	435.34
668.84	402.57
668.98	369.80
669.12	468.11
669.26	444.70
669.40	484.49
669.54	404.91
669.68	421.30
669.82	425.98
669.96	402.57
670.10	358.10
670.25	360.44
670.39	440.02
670.53	365.12
670.67	383.85
670.81	362.78
670.95	379.17
671.09	337.04
671.23	414.27
671.37	414.27
671.51	423.64
671.65	430.66
671.79	358.10
671.93	381.51
672.07	493.85
672.21	416.62
672.35	320.65
672.49	390.87
672.63	416.62
672.77	280.86
672.91	306.61
673.05	339.38
673.19	320.65
673.33	404.91
673.47	440.02
673.61	402.57
673.75	294.91
673.89	344.06
674.03	390.87
674.17	320.65
674.31	330.02
674.45	327.68
674.59	290.23
674.73	325.33
674.87	264.48
675.01	423.64
675.15	337.04
675.29	393.21
675.43	346.40
675.56	346.40
675.70	320.65
675.84	376.83
675.98	255.12
676.12	231.71
676.26	365.12
676.40	330.02
676.54	269.16
676.68	369.80
676.82	306.61
676.96	322.99
677.10	339.38
677.23	280.86
677.37	339.38
677.51	308.95
677.65	299.59
677.79	248.10
677.93	374.49
678.07	273.84
678.21	355.76
678.34	320.65
678.48	416.62
678.62	379.17
678.76	294.91
678.90	259.80
679.04	362.78
679.18	325.33
679.31	255.12
679.45	234.05
679.59	290.23
679.73	337.04
679.87	334.70
680.00	397.89
680.14	376.83
680.28	433.00
680.42	341.72
680.56	386.19
680.70	287.89
680.83	337.04
680.97	374.49
681.11	365.12
681.25	339.38
681.39	435.34
681.52	337.04
681.66	315.97
681.80	322.99
681.94	320.65
682.07	304.27
682.21	372.15
682.35	257.46
682.49	294.91
682.62	259.80
682.76	308.95
682.90	318.31
683.04	374.49
683.17	358.10
683.31	311.29
683.45	332.36
683.59	355.76
683.72	315.97
683.86	325.33
684.00	311.29
684.13	355.76
684.27	255.12
684.41	262.14
684.55	301.93
684.68	320.65
684.82	236.39
684.96	278.52
685.09	341.72
685.23	266.82
685.37	390.87
685.50	360.44
685.64	379.17
685.78	297.25
685.91	435.34
686.05	411.93
686.19	325.33
686.32	383.85
686.46	428.32
686.60	435.34
686.73	578.11
686.87	524.28
687.01	507.90
687.14	550.03
687.28	566.41
687.42	669.39
687.55	695.14
687.69	737.27
687.82	748.97
687.96	699.82
688.10	657.69
688.23	638.97
688.37	667.05
688.50	573.43
688.64	531.30
688.78	514.92
688.91	449.38
689.05	381.51
689.18	346.40
689.32	311.29
689.46	341.72
689.59	271.50
689.73	308.95
689.86	238.73
690.00	201.29
690.13	285.55
690.27	262.14
690.41	304.27
690.54	390.87
690.68	332.36
690.81	376.83
690.95	292.57
691.08	294.91
691.22	215.33
691.35	264.48
691.49	198.95
691.62	262.14
691.76	187.24
691.89	262.14
692.03	163.84
692.16	175.54
692.30	278.52
692.43	276.18
692.57	189.58
692.70	238.73
692.84	266.82
692.97	290.23
693.11	318.31
693.24	425.98
693.38	496.19
693.51	580.45
693.65	638.97
693.78	543.00
693.92	547.69
694.05	526.62
694.19	477.47
694.32	381.51
694.45	330.02
694.59	262.14
694.72	175.54
694.86	234.05
694.99	287.89
695.13	234.05
695.26	266.82
695.39	212.99
695.53	283.20
695.66	245.76
695.80	208.31
695.93	222.35
696.07	198.95
696.20	208.31
696.33	271.50
696.47	262.14
696.60	297.25
696.73	220.01
696.87	191.92
697.00	264.48
697.14	161.50
697.27	215.33
697.40	208.31
697.54	159.16
697.67	194.26
697.80	154.48
697.94	163.84
698.07	180.22
698.21	229.37
698.34	210.65
698.47	149.79
698.61	149.79
698.74	149.79
698.87	142.77
699.01	227.03
699.14	147.45
699.27	238.73
699.40	294.91
699.54	198.95
699.67	177.88
699.80	117.03
699.94	177.88
700.07	217.67
700.20	196.60
700.34	187.24
700.47	145.11
700.60	170.86
700.73	161.50
700.87	262.14
701.00	203.63
701.13	166.18
701.26	184.90
701.40	145.11
701.53	124.05
701.66	145.11
701.79	182.56
701.93	245.76
702.06	217.67
702.19	241.08
702.32	231.71
702.46	194.26
702.59	182.56
702.72	121.71
702.85	138.09
702.99	210.65
703.12	220.01
703.25	243.42
703.38	264.48
703.51	304.27
703.65	208.31
703.78	220.01
703.91	245.76
704.04	292.57
704.17	255.12
704.31	299.59
704.44	241.08
704.57	299.59
704.70	351.08
704.83	243.42
704.96	290.23
705.10	290.23
705.23	386.19
>>>>>End Processed Spectral Data<<<<<
