SpectraSuite Data File
++++++++++++++++++++++++++++++++++++
Date: Fri Oct 04 11:42:05 GMT-05:00 2013
User: price-jones
Dark Spectrum Present: No
Reference Spectrum Present: No
Number of Sampled Component Spectra: 1
Spectrometers: USB2+H05261
Integration Time (usec): 100000 (USB2+H05261)
Spectra Averaged: 1 (USB2+H05261)
Boxcar Smoothing: 0 (USB2+H05261)
Correct for Electrical Dark: No (USB2+H05261)
Strobe/Lamp Enabled: No (USB2+H05261)
Correct for Detector Non-linearity: No (USB2+H05261)
Correct for Stray Light: No (USB2+H05261)
Number of Pixels in Processed Spectrum: 2048
>>>>>Begin Processed Spectral Data<<<<<
365.73	67.88
365.92	67.88
366.12	67.88
366.32	0.00
366.52	0.00
366.72	0.00
366.91	0.00
367.11	0.00
367.31	0.00
367.51	0.00
367.70	0.00
367.90	0.00
368.10	0.00
368.30	0.00
368.49	0.00
368.69	0.00
368.89	0.00
369.09	7.02
369.28	0.00
369.48	0.00
369.68	44.47
369.87	0.00
370.07	0.00
370.27	56.17
370.47	77.24
370.66	35.11
370.86	93.62
371.06	35.11
371.25	100.64
371.45	65.54
371.65	72.56
371.84	93.62
372.04	11.70
372.24	70.22
372.44	93.62
372.63	194.26
372.83	107.66
373.03	177.88
373.22	110.01
373.42	100.64
373.62	159.16
373.81	149.79
374.01	189.58
374.21	117.03
374.40	84.26
374.60	215.33
374.79	56.17
374.99	166.18
375.19	145.11
375.38	152.13
375.58	135.75
375.78	163.84
375.97	100.64
376.17	184.90
376.37	128.73
376.56	168.52
376.76	135.75
376.95	159.16
377.15	140.43
377.35	77.24
377.54	184.90
377.74	88.94
377.93	156.82
378.13	149.79
378.33	177.88
378.52	154.48
378.72	161.50
378.91	166.18
379.11	126.39
379.31	142.77
379.50	70.22
379.70	187.24
379.89	140.43
380.09	140.43
380.28	121.71
380.48	126.39
380.68	65.54
380.87	105.32
381.07	100.64
381.26	177.88
381.46	112.35
381.65	131.07
381.85	154.48
382.04	184.90
382.24	201.29
382.43	147.45
382.63	79.58
382.83	81.92
383.02	126.39
383.22	121.71
383.41	168.52
383.61	79.58
383.80	133.41
384.00	91.28
384.19	32.77
384.39	112.35
384.58	93.62
384.78	140.43
384.97	105.32
385.17	95.96
385.36	91.28
385.56	159.16
385.75	140.43
385.95	35.11
386.14	133.41
386.34	140.43
386.53	135.75
386.72	93.62
386.92	180.22
387.11	145.11
387.31	177.88
387.50	196.60
387.70	131.07
387.89	131.07
388.09	86.60
388.28	107.66
388.48	152.13
388.67	180.22
388.86	196.60
389.06	170.86
389.25	119.37
389.45	102.98
389.64	56.17
389.84	173.20
390.03	147.45
390.22	173.20
390.42	72.56
390.61	119.37
390.81	91.28
391.00	100.64
391.19	166.18
391.39	100.64
391.58	138.09
391.78	86.60
391.97	74.90
392.16	117.03
392.36	166.18
392.55	79.58
392.75	119.37
392.94	100.64
393.13	161.50
393.33	189.58
393.52	91.28
393.71	198.95
393.91	119.37
394.10	100.64
394.29	114.69
394.49	100.64
394.68	170.86
394.88	156.82
395.07	198.95
395.26	138.09
395.46	102.98
395.65	107.66
395.84	140.43
396.04	152.13
396.23	65.54
396.42	180.22
396.62	152.13
396.81	114.69
397.00	170.86
397.19	126.39
397.39	168.52
397.58	121.71
397.77	93.62
397.97	135.75
398.16	138.09
398.35	170.86
398.55	51.49
398.74	138.09
398.93	145.11
399.12	166.18
399.32	133.41
399.51	166.18
399.70	182.56
399.90	177.88
400.09	203.63
400.28	152.13
400.47	133.41
400.67	91.28
400.86	105.32
401.05	198.95
401.24	198.95
401.44	154.48
401.63	276.18
401.82	170.86
402.01	189.58
402.21	159.16
402.40	187.24
402.59	189.58
402.78	217.67
402.97	180.22
403.17	227.03
403.36	269.16
403.55	313.63
403.74	739.61
403.93	2244.57
404.13	5504.94
404.32	8470.40
404.51	7852.50
404.70	4929.17
404.89	1811.57
405.09	575.77
405.28	351.08
405.47	208.31
405.66	250.44
405.85	245.76
406.05	189.58
406.24	184.90
406.43	224.69
406.62	189.58
406.81	330.02
407.00	407.25
407.20	676.41
407.39	1149.20
407.58	1245.16
407.77	931.53
407.96	491.51
408.15	269.16
408.34	201.29
408.54	191.92
408.73	189.58
408.92	266.82
409.11	222.35
409.30	224.69
409.49	248.10
409.68	168.52
409.87	248.10
410.07	229.37
410.26	262.14
410.45	184.90
410.64	191.92
410.83	170.86
411.02	163.84
411.21	220.01
411.40	243.42
411.59	177.88
411.78	168.52
411.98	182.56
412.17	234.05
412.36	229.37
412.55	234.05
412.74	266.82
412.93	234.05
413.12	290.23
413.31	278.52
413.50	276.18
413.69	248.10
413.88	229.37
414.07	229.37
414.26	266.82
414.45	166.18
414.64	257.46
414.83	271.50
415.02	231.71
415.22	294.91
415.41	266.82
415.60	287.89
415.79	224.69
415.98	210.65
416.17	184.90
416.36	337.04
416.55	271.50
416.74	287.89
416.93	257.46
417.12	250.44
417.31	252.78
417.50	198.95
417.69	388.53
417.88	266.82
418.07	241.08
418.26	269.16
418.45	280.86
418.64	358.10
418.83	259.80
419.02	231.71
419.21	292.57
419.39	308.95
419.58	229.37
419.77	290.23
419.96	283.20
420.15	334.70
420.34	369.80
420.53	311.29
420.72	271.50
420.91	294.91
421.10	273.84
421.29	269.16
421.48	330.02
421.67	234.05
421.86	365.12
422.05	269.16
422.24	362.78
422.43	266.82
422.61	245.76
422.80	341.72
422.99	367.46
423.18	381.51
423.37	376.83
423.56	341.72
423.75	351.08
423.94	259.80
424.13	318.31
424.32	301.93
424.50	334.70
424.69	388.53
424.88	353.42
425.07	376.83
425.26	334.70
425.45	390.87
425.64	297.25
425.83	257.46
426.01	437.68
426.20	322.99
426.39	416.62
426.58	334.70
426.77	404.91
426.96	360.44
427.15	433.00
427.33	379.17
427.52	355.76
427.71	379.17
427.90	383.85
428.09	409.59
428.28	348.74
428.46	454.06
428.65	447.04
428.84	416.62
429.03	442.36
429.22	411.93
429.40	367.46
429.59	381.51
429.78	409.59
429.97	414.27
430.16	388.53
430.34	407.25
430.53	365.12
430.72	468.11
430.91	365.12
431.10	440.02
431.28	465.77
431.47	414.27
431.66	454.06
431.85	393.21
432.03	514.92
432.22	512.58
432.41	528.96
432.60	507.90
432.79	468.11
432.97	573.43
433.16	493.85
433.35	582.79
433.54	685.78
433.72	692.80
433.91	730.25
434.10	772.38
434.28	1034.52
434.47	1107.07
434.66	1153.88
434.85	1514.33
435.03	3485.06
435.22	13502.55
435.41	33670.95
435.59	42033.68
435.78	28318.14
435.97	13465.10
436.16	5076.62
436.34	1732.00
436.53	1076.65
436.72	791.10
436.90	734.93
437.09	620.24
437.28	655.35
437.46	578.11
437.65	554.71
437.84	559.39
438.02	571.09
438.21	566.41
438.40	517.26
438.58	489.17
438.77	484.49
438.96	580.45
439.14	566.41
439.33	489.17
439.52	517.26
439.70	479.81
439.89	564.07
440.08	477.47
440.26	479.81
440.45	521.94
440.63	440.02
440.82	524.28
441.01	564.07
441.19	491.51
441.38	526.62
441.57	531.30
441.75	482.15
441.94	545.34
442.12	547.69
442.31	557.05
442.50	505.56
442.68	489.17
442.87	596.84
443.05	573.43
443.24	599.18
443.43	650.67
443.61	526.62
443.80	566.41
443.98	533.64
444.17	566.41
444.35	615.56
444.54	528.96
444.73	440.02
444.91	533.64
445.10	514.92
445.28	533.64
445.47	461.09
445.65	500.87
445.84	500.87
446.02	526.62
446.21	521.94
446.39	507.90
446.58	512.58
446.77	519.60
446.95	575.77
447.14	571.09
447.32	575.77
447.51	550.03
447.69	533.64
447.88	456.40
448.06	568.75
448.25	475.13
448.43	507.90
448.62	463.43
448.80	550.03
448.99	484.49
449.17	454.06
449.36	346.40
449.54	585.13
449.73	442.36
449.91	505.56
450.10	540.66
450.28	521.94
450.46	622.58
450.65	554.71
450.83	482.15
451.02	564.07
451.20	496.19
451.39	543.00
451.57	447.04
451.76	444.70
451.94	512.58
452.13	578.11
452.31	519.60
452.49	535.98
452.68	564.07
452.86	564.07
453.05	587.47
453.23	482.15
453.42	514.92
453.60	440.02
453.78	425.98
453.97	491.51
454.15	449.38
454.34	365.12
454.52	489.17
454.70	519.60
454.89	533.64
455.07	463.43
455.26	456.40
455.44	514.92
455.62	479.81
455.81	491.51
455.99	575.77
456.17	444.70
456.36	479.81
456.54	461.09
456.73	514.92
456.91	458.74
457.09	512.58
457.28	561.73
457.46	526.62
457.64	550.03
457.83	550.03
458.01	416.62
458.19	505.56
458.38	496.19
458.56	554.71
458.74	493.85
458.93	404.91
459.11	440.02
459.29	482.15
459.48	524.28
459.66	526.62
459.84	454.06
460.03	547.69
460.21	440.02
460.39	479.81
460.57	489.17
460.76	454.06
460.94	486.83
461.12	566.41
461.31	550.03
461.49	489.17
461.67	470.45
461.85	540.66
462.04	491.51
462.22	973.66
462.40	503.22
462.59	500.87
462.77	521.94
462.95	547.69
463.13	540.66
463.32	423.64
463.50	505.56
463.68	458.74
463.86	489.17
464.05	451.72
464.23	437.68
464.41	524.28
464.59	564.07
464.78	519.60
464.96	458.74
465.14	514.92
465.32	458.74
465.50	566.41
465.69	540.66
465.87	468.11
466.05	507.90
466.23	554.71
466.41	465.77
466.60	545.34
466.78	564.07
466.96	533.64
467.14	603.86
467.32	470.45
467.51	566.41
467.69	538.32
467.87	461.09
468.05	507.90
468.23	475.13
468.41	526.62
468.60	397.89
468.78	526.62
468.96	500.87
469.14	510.24
469.32	437.68
469.50	507.90
469.69	402.57
469.87	493.85
470.05	477.47
470.23	444.70
470.41	433.00
470.59	477.47
470.77	465.77
470.95	526.62
471.14	465.77
471.32	360.44
471.50	543.00
471.68	416.62
471.86	507.90
472.04	451.72
472.22	442.36
472.40	390.87
472.58	435.34
472.77	468.11
472.95	409.59
473.13	428.32
473.31	575.77
473.49	454.06
473.67	425.98
473.85	510.24
474.03	498.53
474.21	517.26
474.39	552.37
474.57	486.83
474.75	472.79
474.93	449.38
475.12	440.02
475.30	421.30
475.48	491.51
475.66	440.02
475.84	465.77
476.02	442.36
476.20	428.32
476.38	472.79
476.56	505.56
476.74	528.96
476.92	500.87
477.10	547.69
477.28	526.62
477.46	568.75
477.64	519.60
477.82	465.77
478.00	517.26
478.18	484.49
478.36	521.94
478.54	512.58
478.72	503.22
478.90	543.00
479.08	617.90
479.26	678.76
479.44	531.30
479.62	608.54
479.80	662.37
479.98	599.18
480.16	685.78
480.34	650.67
480.52	711.52
480.70	767.70
480.88	788.76
481.06	858.98
481.24	837.91
481.41	875.36
481.59	1067.28
481.77	1039.20
481.95	1076.65
482.13	1149.20
482.31	1118.78
482.49	1331.76
482.67	1315.38
482.85	1458.15
483.03	1528.37
483.21	1629.01
483.39	1762.42
483.57	1820.94
483.74	1963.71
483.92	2036.27
484.10	1947.33
484.28	2331.17
484.46	2473.95
484.64	2483.31
484.82	2663.53
485.00	2764.17
485.18	2972.48
485.35	3070.78
485.53	3400.80
485.71	3513.14
485.89	3538.89
486.07	3545.91
486.25	3714.43
486.43	3662.94
486.61	3712.09
486.78	3801.03
486.96	3655.92
487.14	3721.45
487.32	3466.33
487.50	3611.45
487.68	3588.04
487.85	3478.04
488.03	3559.95
488.21	3581.02
488.39	3482.72
488.57	3353.99
488.75	3332.92
488.92	3489.74
489.10	3176.11
489.28	3040.36
489.46	2998.23
489.64	2892.90
489.81	2956.10
489.99	2928.01
490.17	2789.92
490.35	2928.01
490.53	2888.22
490.70	2899.92
490.88	2827.37
491.06	2822.69
491.24	3098.87
491.41	3220.58
491.59	2993.55
491.77	2780.56
491.95	2789.92
492.13	2539.48
492.30	2438.84
492.48	2525.44
492.66	2471.61
492.84	2387.35
493.01	2516.08
493.19	2410.75
493.37	2270.32
493.54	2363.94
493.72	2349.90
493.90	2207.13
494.08	2153.29
494.25	2167.34
494.43	2040.95
494.61	2111.16
494.79	2043.29
494.96	2054.99
495.14	1963.71
495.32	1888.81
495.49	2071.37
495.67	1994.14
495.85	1907.54
496.02	1921.58
496.20	1954.35
496.38	1783.49
496.55	1664.12
496.73	1729.66
496.91	1746.04
497.09	1834.98
497.26	1652.42
497.44	1722.63
497.62	1542.41
497.79	1537.73
497.97	1629.01
498.14	1547.09
498.32	1399.64
498.50	1460.49
498.67	1523.69
498.85	1444.11
499.03	1357.51
499.20	1322.40
499.38	1336.45
499.56	1320.06
499.73	1320.06
499.91	1268.57
500.08	1205.38
500.26	1167.93
500.44	1011.11
500.61	1060.26
500.79	1090.69
500.97	1055.58
501.14	1032.18
501.32	1027.50
501.49	1008.77
501.67	908.13
501.84	968.98
502.02	919.83
502.20	875.36
502.37	889.40
502.55	924.51
502.72	741.95
502.90	821.53
503.07	753.65
503.25	730.25
503.43	753.65
503.60	660.03
503.78	685.78
503.95	692.80
504.13	688.12
504.30	678.76
504.48	613.22
504.65	706.84
504.83	718.54
505.01	603.86
505.18	620.24
505.36	596.84
505.53	638.97
505.71	528.96
505.88	681.10
506.06	580.45
506.23	594.50
506.41	608.54
506.58	559.39
506.76	521.94
506.93	543.00
507.11	575.77
507.28	603.86
507.46	550.03
507.63	550.03
507.81	514.92
507.98	482.15
508.16	533.64
508.33	531.30
508.50	543.00
508.68	636.63
508.85	566.41
509.03	550.03
509.20	552.37
509.38	596.84
509.55	552.37
509.73	552.37
509.90	491.51
510.08	521.94
510.25	468.11
510.42	447.04
510.60	433.00
510.77	526.62
510.95	521.94
511.12	477.47
511.30	514.92
511.47	395.55
511.64	454.06
511.82	519.60
511.99	454.06
512.17	472.79
512.34	456.40
512.51	442.36
512.69	442.36
512.86	430.66
513.04	521.94
513.21	521.94
513.38	409.59
513.56	337.04
513.73	423.64
513.90	421.30
514.08	423.64
514.25	482.15
514.43	512.58
514.60	416.62
514.77	407.25
514.95	397.89
515.12	369.80
515.29	423.64
515.47	353.42
515.64	421.30
515.81	496.19
515.99	388.53
516.16	484.49
516.33	411.93
516.51	465.77
516.68	404.91
516.85	360.44
517.03	395.55
517.20	388.53
517.37	470.45
517.54	418.96
517.72	386.19
517.89	372.15
518.06	327.68
518.24	372.15
518.41	435.34
518.58	409.59
518.75	376.83
518.93	395.55
519.10	360.44
519.27	360.44
519.45	425.98
519.62	418.96
519.79	351.08
519.96	362.78
520.14	409.59
520.31	458.74
520.48	386.19
520.65	416.62
520.83	435.34
521.00	400.23
521.17	428.32
521.34	351.08
521.52	416.62
521.69	400.23
521.86	315.97
522.03	362.78
522.20	458.74
522.38	444.70
522.55	358.10
522.72	388.53
522.89	451.72
523.07	395.55
523.24	367.46
523.41	355.76
523.58	423.64
523.75	360.44
523.92	397.89
524.10	332.36
524.27	390.87
524.44	374.49
524.61	442.36
524.78	411.93
524.96	400.23
525.13	447.04
525.30	486.83
525.47	449.38
525.64	437.68
525.81	397.89
525.98	540.66
526.16	468.11
526.33	428.32
526.50	517.26
526.67	416.62
526.84	407.25
527.01	411.93
527.18	514.92
527.36	552.37
527.53	547.69
527.70	557.05
527.87	503.22
528.04	519.60
528.21	411.93
528.38	444.70
528.55	479.81
528.72	519.60
528.89	547.69
529.07	477.47
529.24	491.51
529.41	613.22
529.58	566.41
529.75	486.83
529.92	564.07
530.09	589.82
530.26	582.79
530.43	685.78
530.60	620.24
530.77	566.41
530.94	610.88
531.11	643.65
531.28	617.90
531.46	704.50
531.63	622.58
531.80	765.36
531.97	809.83
532.14	870.68
532.31	997.07
532.48	1224.10
532.65	1439.43
532.82	1535.39
532.99	1827.96
533.16	2064.35
533.33	2312.45
533.50	2125.21
533.67	1820.94
533.84	1495.60
534.01	1430.07
534.18	1369.21
534.35	1142.18
534.52	1240.48
534.69	1401.98
534.86	1355.17
535.03	1357.51
535.20	1401.98
535.37	1593.90
535.54	1586.88
535.71	1739.02
535.88	1842.00
536.05	1907.54
536.22	2106.48
536.38	2153.29
536.55	2422.45
536.72	2649.49
536.89	2942.05
537.06	3267.39
537.23	3730.81
537.40	4070.19
537.57	4329.99
537.74	4657.67
537.91	4903.42
538.08	4840.23
538.25	5001.72
538.42	4997.04
538.59	5062.58
538.75	5181.95
538.92	5603.24
539.09	6008.16
539.26	6871.81
539.43	7566.95
539.60	8477.42
539.77	9898.13
539.94	10799.23
540.11	12044.40
540.28	13329.35
540.44	14490.26
540.61	15709.68
540.78	18546.40
540.95	22333.39
541.12	26635.30
541.29	29890.98
541.46	31709.58
541.62	31452.12
541.79	30394.20
541.96	28112.17
542.13	26080.59
542.30	24269.01
542.47	22810.86
542.63	21762.30
542.80	21184.19
542.97	20477.35
543.14	20910.35
543.31	20549.90
543.48	20594.37
543.64	21249.72
543.81	20924.39
543.98	21125.68
544.15	21802.09
544.32	21235.68
544.48	21546.97
544.65	20992.26
544.82	20793.32
544.99	20828.43
545.16	21266.11
545.32	22326.37
545.49	34342.68
545.66	56491.17
545.83	65518.62
546.00	62672.52
546.16	51126.66
546.33	37436.87
546.50	28084.09
546.67	21575.06
546.83	19452.19
547.00	18361.50
547.17	17717.86
547.34	16926.75
547.50	16058.42
547.67	15660.52
547.84	14759.42
548.00	14532.39
548.17	13823.20
548.34	13525.96
548.51	12755.92
548.67	12451.65
548.84	11339.90
549.01	11178.40
549.18	10743.06
549.34	10066.64
549.51	9907.49
549.68	9664.07
549.84	9195.96
550.01	8587.43
550.18	8311.24
550.34	7796.32
550.51	7538.87
550.68	7183.10
550.84	6682.23
551.01	6450.52
551.18	6136.88
551.34	5804.53
551.51	5678.14
551.68	5259.18
551.84	5139.82
552.01	4833.21
552.18	4676.39
552.34	4552.34
552.51	4367.44
552.68	4067.85
552.84	4124.02
553.01	3873.59
553.18	3772.94
553.34	3592.72
553.51	3536.55
553.67	3356.33
553.84	3337.60
554.01	3070.78
554.17	2885.88
554.34	2778.22
554.51	2399.05
554.67	2380.32
554.84	2246.91
555.00	2127.55
555.17	1933.28
555.33	1919.24
555.50	1764.76
555.67	1708.59
555.83	1626.67
556.00	1650.08
556.16	1717.95
556.33	1514.33
556.50	1476.88
556.66	1434.75
556.83	1451.13
556.99	1371.55
557.16	1275.59
557.32	1287.29
557.49	1261.55
557.65	1132.82
557.82	1121.12
557.98	1188.99
558.15	1181.97
558.32	1104.73
558.48	1132.82
558.65	1142.18
558.81	1020.47
558.98	985.37
559.14	983.02
559.31	1013.45
559.47	905.79
559.64	887.06
559.80	884.72
559.97	959.62
560.13	898.77
560.30	882.38
560.46	959.62
560.63	858.98
560.79	943.24
560.96	901.11
561.12	866.00
561.29	945.58
561.45	922.17
561.61	858.98
561.78	959.62
561.94	875.36
562.11	819.19
562.27	891.74
562.44	884.72
562.60	793.44
562.77	751.31
562.93	891.74
563.10	828.55
563.26	791.10
563.42	826.21
563.59	767.70
563.75	770.04
563.92	795.78
564.08	704.50
564.24	690.46
564.41	788.76
564.57	688.12
564.74	713.86
564.90	737.27
565.07	636.63
565.23	765.36
565.39	662.37
565.56	713.86
565.72	671.73
565.88	620.24
566.05	664.71
566.21	653.01
566.38	662.37
566.54	697.48
566.70	660.03
566.87	741.95
567.03	669.39
567.19	667.05
567.36	727.91
567.52	695.14
567.68	702.16
567.85	720.88
568.01	706.84
568.17	704.50
568.34	650.67
568.50	779.40
568.66	763.01
568.83	706.84
568.99	638.97
569.15	697.48
569.32	636.63
569.48	645.99
569.64	629.60
569.81	617.90
569.97	521.94
570.13	592.16
570.30	535.98
570.46	456.40
570.62	528.96
570.78	540.66
570.95	449.38
571.11	543.00
571.27	547.69
571.43	538.32
571.60	538.32
571.76	463.43
571.92	519.60
572.09	519.60
572.25	475.13
572.41	500.87
572.57	486.83
572.74	545.34
572.90	561.73
573.06	617.90
573.22	564.07
573.38	514.92
573.55	543.00
573.71	587.47
573.87	587.47
574.03	582.79
574.20	603.86
574.36	704.50
574.52	664.71
574.68	711.52
574.84	645.99
575.01	636.63
575.17	734.93
575.33	734.93
575.49	903.45
575.65	814.51
575.82	933.87
575.98	1046.22
576.14	1081.33
576.30	2113.50
576.46	6722.02
576.62	13474.46
576.79	16376.73
576.95	11634.80
577.11	7445.24
577.27	4994.70
577.43	3269.73
577.59	2162.66
577.75	1717.95
577.92	1556.46
578.08	1514.33
578.24	1533.05
578.40	2328.83
578.56	6260.93
578.72	12449.31
578.88	14450.47
579.04	10579.22
579.21	6883.52
579.37	5050.88
579.53	4044.45
579.69	3737.84
579.85	4503.19
580.01	5303.65
580.17	5301.31
580.33	4484.47
580.49	3838.48
580.65	3475.70
580.82	3173.77
580.98	2977.16
581.14	3063.76
581.30	3307.18
581.46	3538.89
581.62	3609.11
581.78	3904.01
581.94	4418.93
582.10	4542.98
582.26	4863.63
582.42	4966.62
582.58	5055.56
582.74	5071.94
582.90	5345.78
583.06	5303.65
583.22	5266.21
583.38	5397.28
583.54	5324.72
583.70	5303.65
583.86	5203.01
584.02	4964.28
584.18	5107.05
584.34	4898.74
584.50	4870.65
584.66	4685.75
584.82	4695.11
584.98	4793.42
585.14	4660.01
585.30	4423.61
585.46	4397.87
585.62	4390.84
585.78	4217.65
585.94	4493.83
586.10	4512.55
586.26	4706.82
586.42	5282.59
586.58	6324.13
586.74	7459.29
586.90	9345.76
587.06	10406.02
587.22	10527.73
587.38	9390.23
587.54	8006.97
587.70	6832.02
587.86	5923.90
588.02	4894.06
588.18	4248.07
588.34	3929.76
588.49	3641.87
588.65	3272.07
588.81	3283.77
588.97	3066.10
589.13	3026.31
589.29	3009.93
589.45	3009.93
589.61	2895.24
589.77	2881.20
589.93	2867.16
590.08	3122.27
590.24	3091.85
590.40	3073.12
590.56	3325.90
590.72	3276.75
590.88	3496.76
591.04	3599.74
591.20	3737.84
591.35	3875.93
591.51	3997.64
591.67	4180.20
591.83	4517.23
591.99	4821.50
592.15	5121.09
592.31	5762.40
592.46	6115.82
592.62	6729.04
592.78	7157.36
592.94	7337.58
593.10	7473.33
593.26	7126.93
593.41	6558.18
593.57	5998.79
593.73	5291.95
593.89	4762.99
594.05	4170.83
594.20	3775.28
594.36	3438.25
594.52	3016.95
594.68	2953.76
594.84	2920.99
594.99	2850.77
595.15	2729.06
595.31	2595.65
595.47	2562.89
595.62	2616.72
595.78	2626.08
595.94	2677.57
596.10	2710.34
596.25	2518.42
596.41	2633.10
596.57	2724.38
596.73	2628.42
596.88	2684.59
597.04	2642.46
597.20	2785.24
597.36	2839.07
597.51	2768.85
597.67	2899.92
597.83	2956.10
597.99	3239.30
598.14	3276.75
598.30	3695.71
598.46	3740.18
598.61	3960.19
598.77	4194.24
598.93	4276.16
599.09	4395.53
599.24	4575.75
599.40	4430.63
599.56	4346.37
599.71	4203.60
599.87	3997.64
600.03	3784.65
600.18	3438.25
600.34	3243.98
600.50	3094.19
600.65	2918.65
600.81	2736.09
600.97	2579.27
601.12	2345.22
601.28	2380.32
601.44	2249.25
601.59	2059.67
601.75	2001.16
601.91	2036.27
602.06	1834.98
602.22	1865.41
602.37	1816.26
602.53	1722.63
602.69	1790.51
602.84	1746.04
603.00	1776.47
603.16	1746.04
603.31	1872.43
603.47	1729.66
603.62	1856.04
603.78	1846.68
603.94	1937.96
604.09	1909.88
604.25	1996.48
604.40	1980.09
604.56	1886.47
604.71	1956.69
604.87	1940.30
605.03	2010.52
605.18	2125.21
605.34	2150.95
605.49	2256.28
605.65	2202.44
605.80	2303.09
605.96	2354.58
606.12	2483.31
606.27	2565.23
606.43	2693.96
606.58	2773.53
606.74	3014.61
606.89	3272.07
607.05	3251.00
607.20	3569.32
607.36	3536.55
607.51	3843.16
607.67	4191.90
607.82	4301.90
607.98	4596.81
608.13	5062.58
608.29	5561.11
608.44	5776.44
608.60	6450.52
608.75	7169.06
608.91	7763.56
609.06	8397.84
609.22	9210.01
609.37	9949.62
609.53	11506.07
609.68	12800.39
609.84	14675.16
609.99	17137.40
610.15	20500.75
610.30	25441.62
610.46	32025.55
610.61	40809.58
610.76	50604.72
610.92	57125.46
611.07	60743.92
611.23	61626.31
611.38	60367.10
611.54	57317.38
611.69	52736.95
611.84	46342.61
612.00	39253.12
612.15	32421.10
612.31	28107.49
612.46	24971.18
612.62	23274.29
612.77	21809.11
612.92	20505.43
613.08	19566.88
613.23	18443.42
613.39	17652.32
613.54	16893.99
613.69	16552.27
613.85	16596.74
614.00	16561.63
614.15	16615.46
614.31	16084.16
614.46	15868.83
614.62	15367.96
614.77	14654.09
614.92	13502.55
615.08	12634.21
615.23	11653.53
615.38	11002.86
615.54	9626.62
615.69	8936.17
615.84	8177.83
616.00	7819.73
616.15	7068.42
616.30	6548.82
616.46	6298.38
616.61	5947.30
616.76	5671.12
616.92	5200.67
617.07	5004.07
617.22	4791.08
617.37	4344.03
617.53	4458.72
617.68	4196.58
617.83	4039.76
617.99	3913.38
618.14	3779.97
618.29	3634.85
618.45	3662.94
618.60	3592.72
618.75	3410.16
618.90	3400.80
619.06	3471.01
619.21	3370.37
619.36	3391.44
619.51	3274.41
619.67	3318.88
619.82	3473.36
619.97	3452.29
620.12	3595.06
620.28	3545.91
620.43	3651.24
620.58	3686.34
620.73	3700.39
620.89	3815.07
621.04	3770.60
621.19	3562.30
621.34	3529.53
621.49	3435.91
621.65	3447.61
621.80	3454.63
621.95	3435.91
622.10	3400.80
622.25	3302.50
622.41	3410.16
622.56	3510.80
622.71	3660.60
622.86	3840.82
623.01	3922.74
623.16	3925.08
623.32	3808.05
623.47	3985.93
623.62	3927.42
623.77	4065.51
623.92	3992.95
624.07	4030.40
624.23	3873.59
624.38	3915.72
624.53	3920.40
624.68	3995.29
624.83	4126.36
624.98	4021.04
625.13	4070.19
625.29	4072.53
625.44	4046.79
625.59	4147.43
625.74	4079.55
625.89	4114.66
626.04	3936.78
626.19	4119.34
626.34	4009.34
626.49	4018.70
626.65	3967.21
626.80	3805.71
626.95	3899.33
627.10	3896.99
627.25	3868.91
627.40	3653.58
627.55	3798.69
627.70	3639.53
627.85	3618.47
628.00	3623.15
628.15	3538.89
628.30	3585.70
628.45	3552.93
628.60	3555.27
628.76	3562.30
628.91	3634.85
629.06	3674.64
629.21	3763.58
629.36	3772.94
629.51	3829.12
629.66	3985.93
629.81	4369.78
629.96	4674.05
630.11	5114.07
630.26	5748.36
630.41	6324.13
630.56	7002.88
630.71	7365.67
630.86	7782.28
631.01	7653.55
631.16	7063.74
631.31	6375.62
631.46	5533.03
631.61	4620.22
631.76	3915.72
631.91	3363.35
632.06	2813.32
632.21	2424.80
632.36	2148.61
632.51	1916.90
632.66	1739.02
632.81	1619.65
632.96	1535.39
633.10	1409.00
633.25	1357.51
633.40	1322.40
633.55	1277.93
633.70	1256.87
633.85	1158.57
634.00	1114.10
634.15	1036.86
634.30	1163.25
634.45	1043.88
634.60	1116.44
634.75	1057.92
634.90	999.41
635.05	1013.45
635.19	952.60
635.34	929.19
635.49	938.55
635.64	978.34
635.79	954.94
635.94	980.68
636.09	903.45
636.24	894.08
636.39	823.87
636.53	882.38
636.68	781.74
636.83	746.63
636.98	849.61
637.13	798.12
637.28	835.57
637.43	805.14
637.57	807.48
637.72	774.72
637.87	720.88
638.02	826.21
638.17	730.25
638.32	709.18
638.46	835.57
638.61	819.19
638.76	678.76
638.91	770.04
639.06	674.07
639.20	681.10
639.35	676.41
639.50	772.38
639.65	730.25
639.80	643.65
639.94	770.04
640.09	709.18
640.24	678.76
640.39	734.93
640.54	718.54
640.68	692.80
640.83	730.25
640.98	669.39
641.13	718.54
641.27	664.71
641.42	641.31
641.57	760.67
641.72	758.33
641.86	594.50
642.01	669.39
642.16	653.01
642.31	678.76
642.45	763.01
642.60	692.80
642.75	685.78
642.90	709.18
643.04	716.20
643.19	697.48
643.34	751.31
643.48	709.18
643.63	706.84
643.78	751.31
643.93	667.05
644.07	720.88
644.22	770.04
644.37	718.54
644.51	660.03
644.66	739.61
644.81	744.29
644.95	655.35
645.10	706.84
645.25	643.65
645.39	660.03
645.54	704.50
645.69	610.88
645.83	660.03
645.98	746.63
646.13	648.33
646.27	634.29
646.42	589.82
646.57	648.33
646.71	608.54
646.86	589.82
647.00	622.58
647.15	568.75
647.30	674.07
647.44	624.92
647.59	615.56
647.74	650.67
647.88	653.01
648.03	543.00
648.17	660.03
648.32	615.56
648.47	636.63
648.61	690.46
648.76	681.10
648.90	777.06
649.05	748.97
649.20	844.93
649.34	866.00
649.49	940.90
649.63	1057.92
649.78	1231.12
649.92	1390.28
650.07	1750.72
650.21	1900.52
650.36	2080.74
650.51	2029.24
650.65	2040.95
650.80	1746.04
650.94	1629.01
651.09	1526.03
651.23	1317.72
651.38	1226.44
651.52	1132.82
651.67	999.41
651.81	936.21
651.96	952.60
652.10	901.11
652.25	912.81
652.39	905.79
652.54	887.06
652.68	957.28
652.83	1088.35
652.97	1100.05
653.12	1025.15
653.26	1046.22
653.41	1008.77
653.55	952.60
653.70	908.13
653.84	788.76
653.99	746.63
654.13	746.63
654.27	758.33
654.42	613.22
654.56	697.48
654.71	582.79
654.85	664.71
655.00	557.05
655.14	603.86
655.29	653.01
655.43	620.24
655.57	550.03
655.72	545.34
655.86	592.16
656.01	599.18
656.15	573.43
656.30	660.03
656.44	585.13
656.58	613.22
656.73	514.92
656.87	610.88
657.01	573.43
657.16	585.13
657.30	617.90
657.45	774.72
657.59	713.86
657.73	760.67
657.88	770.04
658.02	702.16
658.16	678.76
658.31	681.10
658.45	601.52
658.60	500.87
658.74	557.05
658.88	554.71
659.03	566.41
659.17	500.87
659.31	503.22
659.46	479.81
659.60	491.51
659.74	486.83
659.89	512.58
660.03	489.17
660.17	528.96
660.32	423.64
660.46	489.17
660.60	491.51
660.74	425.98
660.89	505.56
661.03	507.90
661.17	496.19
661.32	550.03
661.46	699.82
661.60	767.70
661.74	896.43
661.89	952.60
662.03	1137.50
662.17	1259.21
662.31	1291.98
662.46	1322.40
662.60	1231.12
662.74	1078.99
662.88	973.66
663.03	912.81
663.17	791.10
663.31	758.33
663.45	704.50
663.60	624.92
663.74	653.01
663.88	631.94
664.02	587.47
664.17	538.32
664.31	451.72
664.45	561.73
664.59	505.56
664.73	498.53
664.88	580.45
665.02	514.92
665.16	484.49
665.30	500.87
665.44	379.17
665.59	482.15
665.73	470.45
665.87	423.64
666.01	430.66
666.15	442.36
666.29	402.57
666.44	451.72
666.58	461.09
666.72	372.15
666.86	416.62
667.00	510.24
667.14	482.15
667.28	489.17
667.43	409.59
667.57	463.43
667.71	475.13
667.85	418.96
667.99	383.85
668.13	477.47
668.27	477.47
668.41	430.66
668.56	454.06
668.70	514.92
668.84	353.42
668.98	421.30
669.12	479.81
669.26	395.55
669.40	437.68
669.54	386.19
669.68	477.47
669.82	395.55
669.96	482.15
670.10	386.19
670.25	362.78
670.39	344.06
670.53	449.38
670.67	397.89
670.81	344.06
670.95	442.36
671.09	395.55
671.23	500.87
671.37	393.21
671.51	456.40
671.65	472.79
671.79	341.72
671.93	447.04
672.07	383.85
672.21	376.83
672.35	447.04
672.49	423.64
672.63	360.44
672.77	386.19
672.91	374.49
673.05	372.15
673.19	433.00
673.33	334.70
673.47	362.78
673.61	332.36
673.75	379.17
673.89	337.04
674.03	360.44
674.17	294.91
674.31	353.42
674.45	393.21
674.59	283.20
674.73	365.12
674.87	383.85
675.01	337.04
675.15	229.37
675.29	358.10
675.43	407.25
675.56	330.02
675.70	362.78
675.84	322.99
675.98	285.55
676.12	344.06
676.26	308.95
676.40	292.57
676.54	325.33
676.68	308.95
676.82	325.33
676.96	271.50
677.10	262.14
677.23	341.72
677.37	327.68
677.51	402.57
677.65	390.87
677.79	358.10
677.93	334.70
678.07	339.38
678.21	365.12
678.34	257.46
678.48	290.23
678.62	376.83
678.76	210.65
678.90	325.33
679.04	379.17
679.18	238.73
679.31	271.50
679.45	372.15
679.59	365.12
679.73	341.72
679.87	292.57
680.00	355.76
680.14	407.25
680.28	351.08
680.42	379.17
680.56	388.53
680.70	344.06
680.83	325.33
680.97	425.98
681.11	388.53
681.25	351.08
681.39	369.80
681.52	376.83
681.66	400.23
681.80	341.72
681.94	390.87
682.07	311.29
682.21	367.46
682.35	294.91
682.49	318.31
682.62	400.23
682.76	339.38
682.90	374.49
683.04	238.73
683.17	290.23
683.31	313.63
683.45	238.73
683.59	341.72
683.72	327.68
683.86	285.55
684.00	276.18
684.13	346.40
684.27	294.91
684.41	301.93
684.55	320.65
684.68	308.95
684.82	381.51
684.96	344.06
685.09	334.70
685.23	276.18
685.37	313.63
685.50	297.25
685.64	416.62
685.78	344.06
685.91	444.70
686.05	395.55
686.19	428.32
686.32	512.58
686.46	411.93
686.60	491.51
686.73	571.09
686.87	557.05
687.01	524.28
687.14	606.20
687.28	613.22
687.42	695.14
687.55	751.31
687.69	779.40
687.82	812.17
687.96	699.82
688.10	727.91
688.23	678.76
688.37	641.31
688.50	629.60
688.64	514.92
688.78	407.25
688.91	423.64
689.05	454.06
689.18	306.61
689.32	325.33
689.46	320.65
689.59	276.18
689.73	278.52
689.86	301.93
690.00	393.21
690.13	285.55
690.27	205.97
690.41	271.50
690.54	376.83
690.68	388.53
690.81	327.68
690.95	273.84
691.08	337.04
691.22	203.63
691.35	294.91
691.49	210.65
691.62	203.63
691.76	203.63
691.89	252.78
692.03	126.39
692.16	119.37
692.30	159.16
692.43	243.42
692.57	222.35
692.70	210.65
692.84	264.48
692.97	271.50
693.11	365.12
693.24	397.89
693.38	437.68
693.51	561.73
693.65	638.97
693.78	524.28
693.92	566.41
694.05	514.92
694.19	402.57
694.32	486.83
694.45	320.65
694.59	311.29
694.72	304.27
694.86	273.84
694.99	257.46
695.13	224.69
695.26	234.05
695.39	227.03
695.53	304.27
695.66	234.05
695.80	231.71
695.93	243.42
696.07	252.78
696.20	290.23
696.33	194.26
696.47	252.78
696.60	212.99
696.73	348.74
696.87	175.54
697.00	306.61
697.14	88.94
697.27	140.43
697.40	205.97
697.54	152.13
697.67	159.16
697.80	166.18
697.94	184.90
698.07	175.54
698.21	112.35
698.34	210.65
698.47	212.99
698.61	170.86
698.74	210.65
698.87	198.95
699.01	140.43
699.14	182.56
699.27	170.86
699.40	304.27
699.54	208.31
699.67	212.99
699.80	152.13
699.94	196.60
700.07	187.24
700.20	88.94
700.34	194.26
700.47	170.86
700.60	196.60
700.73	189.58
700.87	287.89
701.00	236.39
701.13	194.26
701.26	191.92
701.40	203.63
701.53	191.92
701.66	84.26
701.79	161.50
701.93	212.99
702.06	222.35
702.19	175.54
702.32	229.37
702.46	205.97
702.59	180.22
702.72	191.92
702.85	189.58
702.99	175.54
703.12	227.03
703.25	201.29
703.38	196.60
703.51	252.78
703.65	280.86
703.78	269.16
703.91	292.57
704.04	304.27
704.17	243.42
704.31	231.71
704.44	280.86
704.57	294.91
704.70	276.18
704.83	283.20
704.96	269.16
705.10	252.78
705.23	337.04
>>>>>End Processed Spectral Data<<<<<
