SpectraSuite Data File
++++++++++++++++++++++++++++++++++++
Date: Fri Oct 04 11:42:06 GMT-05:00 2013
User: price-jones
Dark Spectrum Present: No
Reference Spectrum Present: No
Number of Sampled Component Spectra: 1
Spectrometers: USB2+H05261
Integration Time (usec): 100000 (USB2+H05261)
Spectra Averaged: 1 (USB2+H05261)
Boxcar Smoothing: 0 (USB2+H05261)
Correct for Electrical Dark: No (USB2+H05261)
Strobe/Lamp Enabled: No (USB2+H05261)
Correct for Detector Non-linearity: No (USB2+H05261)
Correct for Stray Light: No (USB2+H05261)
Number of Pixels in Processed Spectrum: 2048
>>>>>Begin Processed Spectral Data<<<<<
365.73	4.68
365.92	4.68
366.12	4.68
366.32	0.00
366.52	0.00
366.72	46.81
366.91	0.00
367.11	0.00
367.31	0.00
367.51	0.00
367.70	0.00
367.90	0.00
368.10	0.00
368.30	0.00
368.49	0.00
368.69	0.00
368.89	0.00
369.09	0.00
369.28	0.00
369.48	0.00
369.68	0.00
369.87	30.43
370.07	0.00
370.27	46.81
370.47	37.45
370.66	21.06
370.86	0.00
371.06	98.30
371.25	98.30
371.45	30.43
371.65	56.17
371.84	60.85
372.04	16.38
372.24	58.51
372.44	53.83
372.63	53.83
372.83	72.56
373.03	128.73
373.22	63.19
373.42	117.03
373.62	0.00
373.81	110.01
374.01	161.50
374.21	88.94
374.40	88.94
374.60	124.05
374.79	93.62
374.99	126.39
375.19	135.75
375.38	74.90
375.58	91.28
375.78	159.16
375.97	126.39
376.17	147.45
376.37	138.09
376.56	102.98
376.76	168.52
376.95	117.03
377.15	138.09
377.35	121.71
377.54	124.05
377.74	88.94
377.93	119.37
378.13	133.41
378.33	124.05
378.52	191.92
378.72	140.43
378.91	138.09
379.11	107.66
379.31	145.11
379.50	135.75
379.70	149.79
379.89	110.01
380.09	65.54
380.28	74.90
380.48	133.41
380.68	67.88
380.87	67.88
381.07	124.05
381.26	79.58
381.46	93.62
381.65	112.35
381.85	77.24
382.04	63.19
382.24	88.94
382.43	72.56
382.63	138.09
382.83	81.92
383.02	138.09
383.22	180.22
383.41	95.96
383.61	133.41
383.80	81.92
384.00	161.50
384.19	135.75
384.39	110.01
384.58	88.94
384.78	166.18
384.97	105.32
385.17	44.47
385.36	95.96
385.56	135.75
385.75	53.83
385.95	91.28
386.14	124.05
386.34	67.88
386.53	91.28
386.72	28.09
386.92	147.45
387.11	86.60
387.31	100.64
387.50	100.64
387.70	131.07
387.89	70.22
388.09	126.39
388.28	81.92
388.48	46.81
388.67	72.56
388.86	77.24
389.06	124.05
389.25	95.96
389.45	138.09
389.64	110.01
389.84	126.39
390.03	86.60
390.22	145.11
390.42	86.60
390.61	147.45
390.81	56.17
391.00	105.32
391.19	142.77
391.39	110.01
391.58	60.85
391.78	67.88
391.97	135.75
392.16	16.38
392.36	142.77
392.55	135.75
392.75	107.66
392.94	112.35
393.13	212.99
393.33	100.64
393.52	98.30
393.71	119.37
393.91	114.69
394.10	100.64
394.29	86.60
394.49	88.94
394.68	93.62
394.88	182.56
395.07	100.64
395.26	117.03
395.46	65.54
395.65	105.32
395.84	161.50
396.04	175.54
396.23	93.62
396.42	16.38
396.62	114.69
396.81	173.20
397.00	117.03
397.19	30.43
397.39	131.07
397.58	93.62
397.77	119.37
397.97	91.28
398.16	102.98
398.35	124.05
398.55	84.26
398.74	77.24
398.93	112.35
399.12	84.26
399.32	182.56
399.51	177.88
399.70	175.54
399.90	138.09
400.09	124.05
400.28	152.13
400.47	105.32
400.67	124.05
400.86	138.09
401.05	161.50
401.24	187.24
401.44	149.79
401.63	128.73
401.82	175.54
402.01	98.30
402.21	119.37
402.40	74.90
402.59	110.01
402.78	135.75
402.97	84.26
403.17	117.03
403.36	128.73
403.55	74.90
403.74	142.77
403.93	163.84
404.13	255.12
404.32	266.82
404.51	224.69
404.70	262.14
404.89	147.45
405.09	140.43
405.28	208.31
405.47	114.69
405.66	126.39
405.85	184.90
406.05	86.60
406.24	28.09
406.43	168.52
406.62	135.75
406.81	156.82
407.00	210.65
407.20	58.51
407.39	138.09
407.58	105.32
407.77	128.73
407.96	163.84
408.15	86.60
408.34	105.32
408.54	168.52
408.73	133.41
408.92	142.77
409.11	131.07
409.30	88.94
409.49	110.01
409.68	95.96
409.87	161.50
410.07	105.32
410.26	166.18
410.45	173.20
410.64	117.03
410.83	149.79
411.02	182.56
411.21	131.07
411.40	175.54
411.59	138.09
411.78	100.64
411.98	105.32
412.17	60.85
412.36	93.62
412.55	140.43
412.74	128.73
412.93	84.26
413.12	93.62
413.31	170.86
413.50	131.07
413.69	86.60
413.88	117.03
414.07	30.43
414.26	88.94
414.45	142.77
414.64	156.82
414.83	163.84
415.02	98.30
415.22	121.71
415.41	63.19
415.60	124.05
415.79	131.07
415.98	208.31
416.17	114.69
416.36	133.41
416.55	154.48
416.74	147.45
416.93	170.86
417.12	163.84
417.31	152.13
417.50	131.07
417.69	149.79
417.88	156.82
418.07	74.90
418.26	184.90
418.45	131.07
418.64	163.84
418.83	79.58
419.02	126.39
419.21	147.45
419.39	114.69
419.58	91.28
419.77	156.82
419.96	208.31
420.15	187.24
420.34	140.43
420.53	107.66
420.72	149.79
420.91	142.77
421.10	152.13
421.29	67.88
421.48	173.20
421.67	203.63
421.86	161.50
422.05	60.85
422.24	168.52
422.43	161.50
422.61	138.09
422.80	147.45
422.99	126.39
423.18	166.18
423.37	154.48
423.56	203.63
423.75	98.30
423.94	124.05
424.13	135.75
424.32	152.13
424.50	86.60
424.69	152.13
424.88	168.52
425.07	86.60
425.26	194.26
425.45	107.66
425.64	114.69
425.83	79.58
426.01	147.45
426.20	88.94
426.39	147.45
426.58	145.11
426.77	163.84
426.96	196.60
427.15	110.01
427.33	107.66
427.52	142.77
427.71	161.50
427.90	238.73
428.09	205.97
428.28	124.05
428.46	119.37
428.65	175.54
428.84	198.95
429.03	236.39
429.22	126.39
429.40	121.71
429.59	117.03
429.78	135.75
429.97	138.09
430.16	135.75
430.34	177.88
430.53	182.56
430.72	182.56
430.91	222.35
431.10	74.90
431.28	177.88
431.47	154.48
431.66	159.16
431.85	124.05
432.03	159.16
432.22	198.95
432.41	140.43
432.60	201.29
432.79	133.41
432.97	227.03
433.16	145.11
433.35	163.84
433.54	133.41
433.72	229.37
433.91	182.56
434.10	170.86
434.28	198.95
434.47	182.56
434.66	198.95
434.85	194.26
435.03	301.93
435.22	657.69
435.41	1151.54
435.59	1151.54
435.78	854.30
435.97	456.40
436.16	262.14
436.34	163.84
436.53	121.71
436.72	140.43
436.90	182.56
437.09	140.43
437.28	173.20
437.46	201.29
437.65	133.41
437.84	198.95
438.02	217.67
438.21	227.03
438.40	191.92
438.58	138.09
438.77	65.54
438.96	138.09
439.14	117.03
439.33	170.86
439.52	124.05
439.70	224.69
439.89	210.65
440.08	100.64
440.26	81.92
440.45	177.88
440.63	198.95
440.82	208.31
441.01	98.30
441.19	215.33
441.38	208.31
441.57	81.92
441.75	124.05
441.94	224.69
442.12	198.95
442.31	119.37
442.50	184.90
442.68	238.73
442.87	163.84
443.05	156.82
443.24	131.07
443.43	189.58
443.61	201.29
443.80	140.43
443.98	177.88
444.17	210.65
444.35	234.05
444.54	126.39
444.73	170.86
444.91	107.66
445.10	131.07
445.28	170.86
445.47	191.92
445.65	91.28
445.84	145.11
446.02	149.79
446.21	170.86
446.39	117.03
446.58	156.82
446.77	187.24
446.95	161.50
447.14	177.88
447.32	189.58
447.51	133.41
447.69	243.42
447.88	100.64
448.06	147.45
448.25	203.63
448.43	79.58
448.62	161.50
448.80	196.60
448.99	203.63
449.17	138.09
449.36	133.41
449.54	161.50
449.73	175.54
449.91	212.99
450.10	180.22
450.28	245.76
450.46	156.82
450.65	140.43
450.83	210.65
451.02	131.07
451.20	191.92
451.39	98.30
451.57	173.20
451.76	182.56
451.94	140.43
452.13	175.54
452.31	191.92
452.49	166.18
452.68	161.50
452.86	170.86
453.05	210.65
453.23	163.84
453.42	140.43
453.60	149.79
453.78	124.05
453.97	131.07
454.15	201.29
454.34	163.84
454.52	215.33
454.70	222.35
454.89	304.27
455.07	147.45
455.26	177.88
455.44	173.20
455.62	98.30
455.81	173.20
455.99	201.29
456.17	201.29
456.36	201.29
456.54	177.88
456.73	112.35
456.91	147.45
457.09	112.35
457.28	217.67
457.46	175.54
457.64	227.03
457.83	124.05
458.01	173.20
458.19	124.05
458.38	128.73
458.56	149.79
458.74	147.45
458.93	105.32
459.11	88.94
459.29	161.50
459.48	245.76
459.66	187.24
459.84	180.22
460.03	290.23
460.21	152.13
460.39	168.52
460.57	182.56
460.76	238.73
460.94	245.76
461.12	208.31
461.31	194.26
461.49	173.20
461.67	98.30
461.85	107.66
462.04	227.03
462.22	660.03
462.40	161.50
462.59	177.88
462.77	191.92
462.95	175.54
463.13	133.41
463.32	198.95
463.50	194.26
463.68	205.97
463.86	229.37
464.05	220.01
464.23	252.78
464.41	177.88
464.59	215.33
464.78	114.69
464.96	159.16
465.14	220.01
465.32	173.20
465.50	166.18
465.69	128.73
465.87	133.41
466.05	163.84
466.23	280.86
466.41	110.01
466.60	128.73
466.78	212.99
466.96	173.20
467.14	128.73
467.32	187.24
467.51	119.37
467.69	142.77
467.87	212.99
468.05	133.41
468.23	229.37
468.41	177.88
468.60	189.58
468.78	133.41
468.96	217.67
469.14	170.86
469.32	220.01
469.50	159.16
469.69	168.52
469.87	170.86
470.05	229.37
470.23	241.08
470.41	163.84
470.59	142.77
470.77	112.35
470.95	133.41
471.14	133.41
471.32	156.82
471.50	196.60
471.68	184.90
471.86	156.82
472.04	152.13
472.22	196.60
472.40	159.16
472.58	152.13
472.77	170.86
472.95	170.86
473.13	161.50
473.31	156.82
473.49	203.63
473.67	100.64
473.85	269.16
474.03	236.39
474.21	154.48
474.39	212.99
474.57	227.03
474.75	177.88
474.93	142.77
475.12	170.86
475.30	245.76
475.48	138.09
475.66	182.56
475.84	173.20
476.02	224.69
476.20	159.16
476.38	187.24
476.56	182.56
476.74	236.39
476.92	98.30
477.10	121.71
477.28	152.13
477.46	194.26
477.64	238.73
477.82	212.99
478.00	236.39
478.18	152.13
478.36	175.54
478.54	180.22
478.72	175.54
478.90	191.92
479.08	182.56
479.26	166.18
479.44	177.88
479.62	168.52
479.80	173.20
479.98	212.99
480.16	177.88
480.34	191.92
480.52	201.29
480.70	154.48
480.88	194.26
481.06	182.56
481.24	142.77
481.41	234.05
481.59	166.18
481.77	212.99
481.95	119.37
482.13	250.44
482.31	205.97
482.49	215.33
482.67	212.99
482.85	220.01
483.03	262.14
483.21	241.08
483.39	250.44
483.57	194.26
483.74	248.10
483.92	290.23
484.10	241.08
484.28	238.73
484.46	304.27
484.64	266.82
484.82	257.46
485.00	259.80
485.18	308.95
485.35	374.49
485.53	332.36
485.71	280.86
485.89	222.35
486.07	351.08
486.25	365.12
486.43	269.16
486.61	252.78
486.78	306.61
486.96	217.67
487.14	292.57
487.32	301.93
487.50	318.31
487.68	301.93
487.85	362.78
488.03	276.18
488.21	315.97
488.39	271.50
488.57	365.12
488.75	313.63
488.92	587.47
489.10	290.23
489.28	325.33
489.46	238.73
489.64	271.50
489.81	294.91
489.99	311.29
490.17	318.31
490.35	315.97
490.53	278.52
490.70	311.29
490.88	245.76
491.06	322.99
491.24	353.42
491.41	409.59
491.59	353.42
491.77	259.80
491.95	259.80
492.13	304.27
492.30	297.25
492.48	276.18
492.66	266.82
492.84	348.74
493.01	245.76
493.19	290.23
493.37	273.84
493.54	299.59
493.72	358.10
493.90	334.70
494.08	266.82
494.25	306.61
494.43	294.91
494.61	269.16
494.79	205.97
494.96	334.70
495.14	257.46
495.32	227.03
495.49	358.10
495.67	229.37
495.85	208.31
496.02	292.57
496.20	273.84
496.38	264.48
496.55	215.33
496.73	255.12
496.91	264.48
497.09	175.54
497.26	337.04
497.44	243.42
497.62	402.57
497.79	330.02
497.97	344.06
498.14	250.44
498.32	287.89
498.50	271.50
498.67	271.50
498.85	325.33
499.03	194.26
499.20	287.89
499.38	269.16
499.56	278.52
499.73	283.20
499.91	280.86
500.08	273.84
500.26	187.24
500.44	215.33
500.61	234.05
500.79	217.67
500.97	259.80
501.14	308.95
501.32	255.12
501.49	248.10
501.67	201.29
501.84	184.90
502.02	187.24
502.20	304.27
502.37	250.44
502.55	255.12
502.72	196.60
502.90	292.57
503.07	273.84
503.25	222.35
503.43	210.65
503.60	187.24
503.78	280.86
503.95	215.33
504.13	229.37
504.30	304.27
504.48	290.23
504.65	301.93
504.83	301.93
505.01	194.26
505.18	257.46
505.36	259.80
505.53	210.65
505.71	194.26
505.88	313.63
506.06	257.46
506.23	245.76
506.41	262.14
506.58	231.71
506.76	227.03
506.93	262.14
507.11	234.05
507.28	217.67
507.46	245.76
507.63	327.68
507.81	163.84
507.98	121.71
508.16	182.56
508.33	177.88
508.50	203.63
508.68	250.44
508.85	224.69
509.03	222.35
509.20	180.22
509.38	205.97
509.55	271.50
509.73	231.71
509.90	318.31
510.08	203.63
510.25	351.08
510.42	210.65
510.60	187.24
510.77	332.36
510.95	168.52
511.12	250.44
511.30	341.72
511.47	287.89
511.64	264.48
511.82	203.63
511.99	273.84
512.17	168.52
512.34	133.41
512.51	177.88
512.69	292.57
512.86	257.46
513.04	203.63
513.21	182.56
513.38	245.76
513.56	222.35
513.73	201.29
513.90	215.33
514.08	234.05
514.25	238.73
514.43	269.16
514.60	217.67
514.77	266.82
514.95	203.63
515.12	273.84
515.29	245.76
515.47	215.33
515.64	191.92
515.81	220.01
515.99	264.48
516.16	276.18
516.33	271.50
516.51	191.92
516.68	135.75
516.85	215.33
517.03	238.73
517.20	266.82
517.37	224.69
517.54	187.24
517.72	229.37
517.89	220.01
518.06	177.88
518.24	243.42
518.41	238.73
518.58	327.68
518.75	194.26
518.93	227.03
519.10	231.71
519.27	194.26
519.45	236.39
519.62	220.01
519.79	287.89
519.96	257.46
520.14	173.20
520.31	203.63
520.48	283.20
520.65	280.86
520.83	215.33
521.00	255.12
521.17	278.52
521.34	142.77
521.52	222.35
521.69	297.25
521.86	191.92
522.03	283.20
522.20	273.84
522.38	248.10
522.55	262.14
522.72	212.99
522.89	276.18
523.07	236.39
523.24	280.86
523.41	280.86
523.58	294.91
523.75	276.18
523.92	208.31
524.10	304.27
524.27	245.76
524.44	227.03
524.61	280.86
524.78	283.20
524.96	276.18
525.13	271.50
525.30	322.99
525.47	252.78
525.64	285.55
525.81	278.52
525.98	236.39
526.16	236.39
526.33	229.37
526.50	191.92
526.67	159.16
526.84	220.01
527.01	257.46
527.18	266.82
527.36	245.76
527.53	180.22
527.70	217.67
527.87	252.78
528.04	304.27
528.21	241.08
528.38	205.97
528.55	301.93
528.72	346.40
528.89	334.70
529.07	250.44
529.24	187.24
529.41	278.52
529.58	290.23
529.75	313.63
529.92	252.78
530.09	241.08
530.26	301.93
530.43	290.23
530.60	252.78
530.77	220.01
530.94	318.31
531.11	327.68
531.28	262.14
531.46	250.44
531.63	241.08
531.80	196.60
531.97	332.36
532.14	248.10
532.31	262.14
532.48	273.84
532.65	313.63
532.82	238.73
532.99	255.12
533.16	367.46
533.33	322.99
533.50	369.80
533.67	205.97
533.84	276.18
534.01	327.68
534.18	287.89
534.35	250.44
534.52	248.10
534.69	320.65
534.86	290.23
535.03	229.37
535.20	301.93
535.37	301.93
535.54	231.71
535.71	313.63
535.88	322.99
536.05	234.05
536.22	287.89
536.38	313.63
536.55	334.70
536.72	276.18
536.89	311.29
537.06	348.74
537.23	383.85
537.40	245.76
537.57	313.63
537.74	423.64
537.91	428.32
538.08	447.04
538.25	510.24
538.42	358.10
538.59	507.90
538.75	444.70
538.92	428.32
539.09	491.51
539.26	456.40
539.43	543.00
539.60	594.50
539.77	575.77
539.94	547.69
540.11	594.50
540.28	660.03
540.44	697.48
540.61	772.38
540.78	837.91
540.95	898.77
541.12	968.98
541.29	1064.94
541.46	1153.88
541.62	1132.82
541.79	1128.14
541.96	1324.74
542.13	1217.08
542.30	1151.54
542.47	1259.21
542.63	1053.24
542.80	1184.31
542.97	1132.82
543.14	1156.22
543.31	1123.46
543.48	1172.61
543.64	1156.22
543.81	1160.91
543.98	1151.54
544.15	1097.71
544.32	1128.14
544.48	1083.67
544.65	1104.73
544.82	1025.15
544.99	976.00
545.16	1020.47
545.32	1151.54
545.49	1657.10
545.66	2427.14
545.83	2942.05
546.00	2518.42
546.16	1790.51
546.33	1369.21
546.50	964.30
546.67	903.45
546.83	774.72
547.00	805.14
547.17	706.84
547.34	662.37
547.50	599.18
547.67	676.41
547.84	683.44
548.00	678.76
548.17	678.76
548.34	660.03
548.51	744.29
548.67	645.99
548.84	648.33
549.01	559.39
549.18	662.37
549.34	575.77
549.51	538.32
549.68	610.88
549.84	535.98
550.01	568.75
550.18	594.50
550.34	601.52
550.51	461.09
550.68	468.11
550.84	477.47
551.01	402.57
551.18	512.58
551.34	454.06
551.51	395.55
551.68	458.74
551.84	519.60
552.01	433.00
552.18	423.64
552.34	386.19
552.51	390.87
552.68	440.02
552.84	475.13
553.01	421.30
553.18	411.93
553.34	397.89
553.51	381.51
553.67	337.04
553.84	477.47
554.01	362.78
554.17	299.59
554.34	327.68
554.51	423.64
554.67	374.49
554.84	325.33
555.00	245.76
555.17	311.29
555.33	353.42
555.50	297.25
555.67	252.78
555.83	262.14
556.00	287.89
556.16	444.70
556.33	285.55
556.50	266.82
556.66	322.99
556.83	245.76
556.99	278.52
557.16	341.72
557.32	308.95
557.49	294.91
557.65	299.59
557.82	287.89
557.98	292.57
558.15	238.73
558.32	259.80
558.48	250.44
558.65	154.48
558.81	262.14
558.98	294.91
559.14	220.01
559.31	327.68
559.47	227.03
559.64	271.50
559.80	334.70
559.97	283.20
560.13	271.50
560.30	243.42
560.46	259.80
560.63	227.03
560.79	306.61
560.96	248.10
561.12	229.37
561.29	203.63
561.45	215.33
561.61	280.86
561.78	304.27
561.94	280.86
562.11	266.82
562.27	227.03
562.44	238.73
562.60	266.82
562.77	297.25
562.93	280.86
563.10	299.59
563.26	191.92
563.42	304.27
563.59	259.80
563.75	238.73
563.92	257.46
564.08	266.82
564.24	318.31
564.41	292.57
564.57	154.48
564.74	203.63
564.90	280.86
565.07	311.29
565.23	297.25
565.39	205.97
565.56	287.89
565.72	170.86
565.88	224.69
566.05	252.78
566.21	159.16
566.38	212.99
566.54	292.57
566.70	257.46
566.87	234.05
567.03	196.60
567.19	250.44
567.36	175.54
567.52	227.03
567.68	189.58
567.85	215.33
568.01	248.10
568.17	259.80
568.34	194.26
568.50	325.33
568.66	159.16
568.83	334.70
568.99	280.86
569.15	259.80
569.32	201.29
569.48	208.31
569.64	290.23
569.81	180.22
569.97	189.58
570.13	301.93
570.30	294.91
570.46	252.78
570.62	205.97
570.78	278.52
570.95	126.39
571.11	248.10
571.27	231.71
571.43	205.97
571.60	212.99
571.76	248.10
571.92	208.31
572.09	215.33
572.25	182.56
572.41	283.20
572.57	276.18
572.74	276.18
572.90	245.76
573.06	245.76
573.22	290.23
573.38	278.52
573.55	278.52
573.71	269.16
573.87	203.63
574.03	205.97
574.20	234.05
574.36	210.65
574.52	241.08
574.68	215.33
574.84	276.18
575.01	236.39
575.17	177.88
575.33	229.37
575.49	278.52
575.65	217.67
575.82	297.25
575.98	287.89
576.14	264.48
576.30	327.68
576.46	477.47
576.62	636.63
576.79	683.44
576.95	629.60
577.11	374.49
577.27	388.53
577.43	271.50
577.59	346.40
577.75	203.63
577.92	283.20
578.08	269.16
578.24	297.25
578.40	278.52
578.56	484.49
578.72	648.33
578.88	720.88
579.04	535.98
579.21	475.13
579.37	411.93
579.53	425.98
579.69	400.23
579.85	311.29
580.01	355.76
580.17	447.04
580.33	414.27
580.49	414.27
580.65	425.98
580.82	332.36
580.98	327.68
581.14	402.57
581.30	285.55
581.46	339.38
581.62	479.81
581.78	388.53
581.94	362.78
582.10	372.15
582.26	362.78
582.42	414.27
582.58	346.40
582.74	418.96
582.90	397.89
583.06	482.15
583.22	390.87
583.38	433.00
583.54	435.34
583.70	451.72
583.86	374.49
584.02	510.24
584.18	440.02
584.34	433.00
584.50	451.72
584.66	390.87
584.82	465.77
584.98	395.55
585.14	320.65
585.30	416.62
585.46	346.40
585.62	355.76
585.78	379.17
585.94	330.02
586.10	386.19
586.26	423.64
586.42	397.89
586.58	435.34
586.74	559.39
586.90	622.58
587.06	568.75
587.22	603.86
587.38	601.52
587.54	484.49
587.70	505.56
587.86	472.79
588.02	372.15
588.18	393.21
588.34	369.80
588.49	388.53
588.65	292.57
588.81	395.55
588.97	301.93
589.13	294.91
589.29	358.10
589.45	372.15
589.61	330.02
589.77	337.04
589.93	290.23
590.08	355.76
590.24	386.19
590.40	332.36
590.56	332.36
590.72	266.82
590.88	358.10
591.04	360.44
591.20	386.19
591.35	355.76
591.51	337.04
591.67	355.76
591.83	348.74
591.99	388.53
592.15	409.59
592.31	451.72
592.46	348.74
592.62	395.55
592.78	428.32
592.94	400.23
593.10	334.70
593.26	404.91
593.41	433.00
593.57	416.62
593.73	395.55
593.89	358.10
594.05	273.84
594.20	287.89
594.36	280.86
594.52	348.74
594.68	332.36
594.84	290.23
594.99	337.04
595.15	297.25
595.31	294.91
595.47	346.40
595.62	248.10
595.78	301.93
595.94	250.44
596.10	330.02
596.25	264.48
596.41	367.46
596.57	191.92
596.73	283.20
596.88	187.24
597.04	276.18
597.20	304.27
597.36	346.40
597.51	278.52
597.67	294.91
597.83	259.80
597.99	348.74
598.14	306.61
598.30	353.42
598.46	362.78
598.61	299.59
598.77	311.29
598.93	395.55
599.09	351.08
599.24	383.85
599.40	365.12
599.56	369.80
599.71	334.70
599.87	308.95
600.03	369.80
600.18	280.86
600.34	330.02
600.50	320.65
600.65	327.68
600.81	257.46
600.97	187.24
601.12	346.40
601.28	306.61
601.44	386.19
601.59	229.37
601.75	250.44
601.91	252.78
602.06	285.55
602.22	276.18
602.37	224.69
602.53	215.33
602.69	231.71
602.84	266.82
603.00	273.84
603.16	273.84
603.31	287.89
603.47	351.08
603.62	280.86
603.78	255.12
603.94	287.89
604.09	374.49
604.25	236.39
604.40	196.60
604.56	276.18
604.71	285.55
604.87	308.95
605.03	320.65
605.18	294.91
605.34	301.93
605.49	248.10
605.65	266.82
605.80	287.89
605.96	320.65
606.12	374.49
606.27	327.68
606.43	360.44
606.58	365.12
606.74	353.42
606.89	313.63
607.05	332.36
607.20	362.78
607.36	320.65
607.51	308.95
607.67	339.38
607.82	409.59
607.98	379.17
608.13	313.63
608.29	353.42
608.44	381.51
608.60	437.68
608.75	418.96
608.91	470.45
609.06	479.81
609.22	528.96
609.37	496.19
609.53	571.09
609.68	676.41
609.84	716.20
609.99	746.63
610.15	873.02
610.30	1083.67
610.46	1221.76
610.61	1633.69
610.76	1956.69
610.92	2401.39
611.07	2539.48
611.23	2651.83
611.38	2408.41
611.54	2260.96
611.69	1846.68
611.84	1577.52
612.00	1369.21
612.15	1228.78
612.31	1032.18
612.46	889.40
612.62	858.98
612.77	840.25
612.92	760.67
613.08	842.59
613.23	847.27
613.39	812.17
613.54	667.05
613.69	706.84
613.85	774.72
614.00	601.52
614.15	720.88
614.31	713.86
614.46	737.27
614.62	755.99
614.77	678.76
614.92	592.16
615.08	603.86
615.23	578.11
615.38	486.83
615.54	517.26
615.69	531.30
615.84	524.28
616.00	414.27
616.15	500.87
616.30	388.53
616.46	470.45
616.61	353.42
616.76	402.57
616.92	313.63
617.07	386.19
617.22	334.70
617.37	337.04
617.53	327.68
617.68	362.78
617.83	383.85
617.99	339.38
618.14	423.64
618.29	367.46
618.45	346.40
618.60	341.72
618.75	290.23
618.90	327.68
619.06	315.97
619.21	395.55
619.36	318.31
619.51	360.44
619.67	353.42
619.82	257.46
619.97	362.78
620.12	353.42
620.28	383.85
620.43	348.74
620.58	409.59
620.73	362.78
620.89	332.36
621.04	280.86
621.19	320.65
621.34	327.68
621.49	341.72
621.65	353.42
621.80	332.36
621.95	285.55
622.10	369.80
622.25	306.61
622.41	348.74
622.56	252.78
622.71	353.42
622.86	327.68
623.01	390.87
623.16	337.04
623.32	318.31
623.47	320.65
623.62	337.04
623.77	294.91
623.92	351.08
624.07	320.65
624.23	271.50
624.38	301.93
624.53	276.18
624.68	330.02
624.83	390.87
624.98	369.80
625.13	365.12
625.29	271.50
625.44	191.92
625.59	332.36
625.74	362.78
625.89	360.44
626.04	250.44
626.19	299.59
626.34	327.68
626.49	273.84
626.65	301.93
626.80	266.82
626.95	322.99
627.10	304.27
627.25	262.14
627.40	262.14
627.55	301.93
627.70	322.99
627.85	353.42
628.00	358.10
628.15	252.78
628.30	369.80
628.45	189.58
628.60	301.93
628.76	376.83
628.91	259.80
629.06	255.12
629.21	285.55
629.36	322.99
629.51	308.95
629.66	269.16
629.81	311.29
629.96	423.64
630.11	355.76
630.26	463.43
630.41	376.83
630.56	435.34
630.71	447.04
630.86	510.24
631.01	414.27
631.16	437.68
631.31	416.62
631.46	472.79
631.61	362.78
631.76	344.06
631.91	243.42
632.06	285.55
632.21	271.50
632.36	313.63
632.51	248.10
632.66	273.84
632.81	241.08
632.96	250.44
633.10	278.52
633.25	280.86
633.40	280.86
633.55	273.84
633.70	215.33
633.85	290.23
634.00	175.54
634.15	259.80
634.30	271.50
634.45	212.99
634.60	231.71
634.75	194.26
634.90	252.78
635.05	215.33
635.19	220.01
635.34	163.84
635.49	175.54
635.64	170.86
635.79	173.20
635.94	177.88
636.09	220.01
636.24	238.73
636.39	264.48
636.53	238.73
636.68	259.80
636.83	135.75
636.98	236.39
637.13	194.26
637.28	198.95
637.43	243.42
637.57	212.99
637.72	252.78
637.87	208.31
638.02	222.35
638.17	194.26
638.32	259.80
638.46	175.54
638.61	255.12
638.76	177.88
638.91	243.42
639.06	229.37
639.20	210.65
639.35	224.69
639.50	196.60
639.65	208.31
639.80	194.26
639.94	236.39
640.09	248.10
640.24	212.99
640.39	175.54
640.54	180.22
640.68	191.92
640.83	224.69
640.98	196.60
641.13	196.60
641.27	105.32
641.42	212.99
641.57	273.84
641.72	283.20
641.86	145.11
642.01	159.16
642.16	175.54
642.31	191.92
642.45	184.90
642.60	327.68
642.75	152.13
642.90	266.82
643.04	252.78
643.19	100.64
643.34	152.13
643.48	163.84
643.63	245.76
643.78	187.24
643.93	311.29
644.07	156.82
644.22	203.63
644.37	203.63
644.51	262.14
644.66	245.76
644.81	161.50
644.95	217.67
645.10	170.86
645.25	182.56
645.39	222.35
645.54	220.01
645.69	220.01
645.83	173.20
645.98	184.90
646.13	161.50
646.27	196.60
646.42	212.99
646.57	163.84
646.71	175.54
646.86	154.48
647.00	210.65
647.15	227.03
647.30	208.31
647.44	95.96
647.59	114.69
647.74	163.84
647.88	248.10
648.03	145.11
648.17	208.31
648.32	208.31
648.47	175.54
648.61	163.84
648.76	163.84
648.90	201.29
649.05	100.64
649.20	168.52
649.34	133.41
649.49	180.22
649.63	138.09
649.78	142.77
649.92	180.22
650.07	269.16
650.21	138.09
650.36	266.82
650.51	269.16
650.65	175.54
650.80	210.65
650.94	332.36
651.09	238.73
651.23	191.92
651.38	248.10
651.52	187.24
651.67	142.77
651.81	245.76
651.96	208.31
652.10	203.63
652.25	175.54
652.39	198.95
652.54	145.11
652.68	217.67
652.83	161.50
652.97	175.54
653.12	208.31
653.26	154.48
653.41	238.73
653.55	180.22
653.70	154.48
653.84	159.16
653.99	241.08
654.13	201.29
654.27	191.92
654.42	142.77
654.56	205.97
654.71	248.10
654.85	224.69
655.00	189.58
655.14	117.03
655.29	234.05
655.43	119.37
655.57	201.29
655.72	145.11
655.86	170.86
656.01	168.52
656.15	79.58
656.30	205.97
656.44	236.39
656.58	126.39
656.73	198.95
656.87	182.56
657.01	222.35
657.16	248.10
657.30	264.48
657.45	285.55
657.59	138.09
657.73	194.26
657.88	182.56
658.02	294.91
658.16	189.58
658.31	140.43
658.45	187.24
658.60	161.50
658.74	248.10
658.88	131.07
659.03	154.48
659.17	131.07
659.31	191.92
659.46	131.07
659.60	271.50
659.74	135.75
659.89	224.69
660.03	191.92
660.17	189.58
660.32	220.01
660.46	128.73
660.60	133.41
660.74	217.67
660.89	142.77
661.03	147.45
661.17	187.24
661.32	191.92
661.46	220.01
661.60	236.39
661.74	217.67
661.89	224.69
662.03	205.97
662.17	156.82
662.31	142.77
662.46	217.67
662.60	177.88
662.74	205.97
662.88	269.16
663.03	156.82
663.17	210.65
663.31	229.37
663.45	173.20
663.60	220.01
663.74	182.56
663.88	227.03
664.02	180.22
664.17	168.52
664.31	191.92
664.45	117.03
664.59	163.84
664.73	154.48
664.88	269.16
665.02	126.39
665.16	152.13
665.30	198.95
665.44	161.50
665.59	201.29
665.73	201.29
665.87	170.86
666.01	175.54
666.15	138.09
666.29	156.82
666.44	241.08
666.58	266.82
666.72	166.18
666.86	159.16
667.00	156.82
667.14	196.60
667.28	145.11
667.43	222.35
667.57	126.39
667.71	140.43
667.85	142.77
667.99	121.71
668.13	100.64
668.27	191.92
668.41	203.63
668.56	154.48
668.70	135.75
668.84	163.84
668.98	152.13
669.12	175.54
669.26	175.54
669.40	248.10
669.54	156.82
669.68	182.56
669.82	140.43
669.96	163.84
670.10	163.84
670.25	212.99
670.39	191.92
670.53	91.28
670.67	147.45
670.81	145.11
670.95	182.56
671.09	140.43
671.23	166.18
671.37	112.35
671.51	187.24
671.65	215.33
671.79	119.37
671.93	212.99
672.07	159.16
672.21	138.09
672.35	91.28
672.49	170.86
672.63	128.73
672.77	114.69
672.91	217.67
673.05	145.11
673.19	93.62
673.33	224.69
673.47	217.67
673.61	222.35
673.75	182.56
673.89	114.69
674.03	182.56
674.17	126.39
674.31	161.50
674.45	182.56
674.59	182.56
674.73	191.92
674.87	215.33
675.01	203.63
675.15	126.39
675.29	276.18
675.43	124.05
675.56	238.73
675.70	161.50
675.84	142.77
675.98	203.63
676.12	180.22
676.26	154.48
676.40	142.77
676.54	166.18
676.68	119.37
676.82	110.01
676.96	119.37
677.10	205.97
677.23	124.05
677.37	128.73
677.51	191.92
677.65	278.52
677.79	217.67
677.93	229.37
678.07	163.84
678.21	149.79
678.34	224.69
678.48	131.07
678.62	159.16
678.76	163.84
678.90	131.07
679.04	147.45
679.18	187.24
679.31	138.09
679.45	102.98
679.59	168.52
679.73	135.75
679.87	124.05
680.00	184.90
680.14	166.18
680.28	156.82
680.42	107.66
680.56	124.05
680.70	180.22
680.83	133.41
680.97	173.20
681.11	145.11
681.25	121.71
681.39	126.39
681.52	163.84
681.66	107.66
681.80	128.73
681.94	159.16
682.07	154.48
682.21	149.79
682.35	189.58
682.49	114.69
682.62	191.92
682.76	91.28
682.90	119.37
683.04	170.86
683.17	170.86
683.31	170.86
683.45	170.86
683.59	252.78
683.72	166.18
683.86	154.48
684.00	126.39
684.13	215.33
684.27	173.20
684.41	124.05
684.55	117.03
684.68	163.84
684.82	138.09
684.96	191.92
685.09	128.73
685.23	93.62
685.37	147.45
685.50	236.39
685.64	210.65
685.78	117.03
685.91	128.73
686.05	163.84
686.19	173.20
686.32	170.86
686.46	88.94
686.60	203.63
686.73	149.79
686.87	203.63
687.01	107.66
687.14	187.24
687.28	112.35
687.42	173.20
687.55	154.48
687.69	224.69
687.82	201.29
687.96	135.75
688.10	210.65
688.23	159.16
688.37	170.86
688.50	154.48
688.64	154.48
688.78	191.92
688.91	128.73
689.05	152.13
689.18	114.69
689.32	147.45
689.46	154.48
689.59	100.64
689.73	149.79
689.86	86.60
690.00	142.77
690.13	170.86
690.27	131.07
690.41	154.48
690.54	217.67
690.68	180.22
690.81	166.18
690.95	53.83
691.08	154.48
691.22	147.45
691.35	119.37
691.49	161.50
691.62	173.20
691.76	156.82
691.89	70.22
692.03	67.88
692.16	63.19
692.30	135.75
692.43	117.03
692.57	131.07
692.70	131.07
692.84	180.22
692.97	105.32
693.11	154.48
693.24	124.05
693.38	72.56
693.51	152.13
693.65	196.60
693.78	67.88
693.92	107.66
694.05	119.37
694.19	154.48
694.32	187.24
694.45	100.64
694.59	63.19
694.72	77.24
694.86	145.11
694.99	194.26
695.13	175.54
695.26	84.26
695.39	128.73
695.53	238.73
695.66	234.05
695.80	166.18
695.93	95.96
696.07	126.39
696.20	126.39
696.33	70.22
696.47	173.20
696.60	140.43
696.73	133.41
696.87	86.60
697.00	135.75
697.14	166.18
697.27	98.30
697.40	187.24
697.54	135.75
697.67	175.54
697.80	119.37
697.94	177.88
698.07	91.28
698.21	110.01
698.34	107.66
698.47	95.96
698.61	121.71
698.74	177.88
698.87	145.11
699.01	131.07
699.14	135.75
699.27	138.09
699.40	236.39
699.54	121.71
699.67	156.82
699.80	72.56
699.94	140.43
700.07	128.73
700.20	81.92
700.34	161.50
700.47	112.35
700.60	70.22
700.73	95.96
700.87	182.56
701.00	189.58
701.13	124.05
701.26	154.48
701.40	126.39
701.53	142.77
701.66	128.73
701.79	84.26
701.93	159.16
702.06	196.60
702.19	117.03
702.32	105.32
702.46	100.64
702.59	126.39
702.72	63.19
702.85	65.54
702.99	147.45
703.12	159.16
703.25	46.81
703.38	110.01
703.51	124.05
703.65	91.28
703.78	138.09
703.91	124.05
704.04	208.31
704.17	140.43
704.31	102.98
704.44	105.32
704.57	14.04
704.70	147.45
704.83	23.41
704.96	163.84
705.10	58.51
705.23	72.56
>>>>>End Processed Spectral Data<<<<<
