SpectraSuite Data File
++++++++++++++++++++++++++++++++++++
Date: Fri Oct 04 11:42:12 GMT-05:00 2013
User: price-jones
Dark Spectrum Present: No
Reference Spectrum Present: No
Number of Sampled Component Spectra: 1
Spectrometers: USB2+H05261
Integration Time (usec): 100000 (USB2+H05261)
Spectra Averaged: 1 (USB2+H05261)
Boxcar Smoothing: 0 (USB2+H05261)
Correct for Electrical Dark: No (USB2+H05261)
Strobe/Lamp Enabled: No (USB2+H05261)
Correct for Detector Non-linearity: No (USB2+H05261)
Correct for Stray Light: No (USB2+H05261)
Number of Pixels in Processed Spectrum: 2048
>>>>>Begin Processed Spectral Data<<<<<
365.73	56.17
365.92	56.17
366.12	56.17
366.32	0.00
366.52	0.00
366.72	0.00
366.91	0.00
367.11	0.00
367.31	0.00
367.51	2.34
367.70	0.00
367.90	0.00
368.10	0.00
368.30	0.00
368.49	0.00
368.69	0.00
368.89	7.02
369.09	0.00
369.28	0.00
369.48	0.00
369.68	32.77
369.87	0.00
370.07	0.00
370.27	0.00
370.47	14.04
370.66	21.06
370.86	81.92
371.06	102.98
371.25	135.75
371.45	91.28
371.65	140.43
371.84	49.15
372.04	107.66
372.24	100.64
372.44	28.09
372.63	124.05
372.83	163.84
373.03	95.96
373.22	49.15
373.42	37.45
373.62	18.72
373.81	42.13
374.01	117.03
374.21	117.03
374.40	131.07
374.60	138.09
374.79	147.45
374.99	119.37
375.19	117.03
375.38	112.35
375.58	112.35
375.78	140.43
375.97	70.22
376.17	154.48
376.37	114.69
376.56	173.20
376.76	88.94
376.95	110.01
377.15	128.73
377.35	149.79
377.54	121.71
377.74	72.56
377.93	154.48
378.13	72.56
378.33	184.90
378.52	72.56
378.72	184.90
378.91	159.16
379.11	102.98
379.31	70.22
379.50	107.66
379.70	152.13
379.89	140.43
380.09	145.11
380.28	32.77
380.48	98.30
380.68	114.69
380.87	102.98
381.07	114.69
381.26	159.16
381.46	205.97
381.65	114.69
381.85	81.92
382.04	180.22
382.24	142.77
382.43	56.17
382.63	105.32
382.83	100.64
383.02	112.35
383.22	126.39
383.41	114.69
383.61	93.62
383.80	161.50
384.00	131.07
384.19	77.24
384.39	77.24
384.58	135.75
384.78	77.24
384.97	135.75
385.17	114.69
385.36	95.96
385.56	126.39
385.75	131.07
385.95	65.54
386.14	152.13
386.34	77.24
386.53	175.54
386.72	128.73
386.92	149.79
387.11	145.11
387.31	114.69
387.50	88.94
387.70	110.01
387.89	65.54
388.09	67.88
388.28	77.24
388.48	56.17
388.67	105.32
388.86	138.09
389.06	119.37
389.25	117.03
389.45	128.73
389.64	173.20
389.84	145.11
390.03	84.26
390.22	177.88
390.42	107.66
390.61	44.47
390.81	180.22
391.00	135.75
391.19	135.75
391.39	98.30
391.58	180.22
391.78	79.58
391.97	88.94
392.16	88.94
392.36	110.01
392.55	163.84
392.75	110.01
392.94	63.19
393.13	107.66
393.33	84.26
393.52	131.07
393.71	117.03
393.91	110.01
394.10	121.71
394.29	105.32
394.49	145.11
394.68	114.69
394.88	117.03
395.07	138.09
395.26	121.71
395.46	117.03
395.65	42.13
395.84	86.60
396.04	205.97
396.23	152.13
396.42	119.37
396.62	154.48
396.81	159.16
397.00	93.62
397.19	208.31
397.39	194.26
397.58	236.39
397.77	77.24
397.97	131.07
398.16	182.56
398.35	182.56
398.55	100.64
398.74	168.52
398.93	187.24
399.12	156.82
399.32	131.07
399.51	112.35
399.70	110.01
399.90	98.30
400.09	135.75
400.28	98.30
400.47	182.56
400.67	112.35
400.86	124.05
401.05	187.24
401.24	163.84
401.44	128.73
401.63	156.82
401.82	156.82
402.01	91.28
402.21	152.13
402.40	222.35
402.59	203.63
402.78	126.39
402.97	191.92
403.17	191.92
403.36	222.35
403.55	262.14
403.74	564.07
403.93	1867.75
404.13	4409.57
404.32	6202.42
404.51	5334.08
404.70	3346.97
404.89	1207.72
405.09	402.57
405.28	294.91
405.47	173.20
405.66	262.14
405.85	147.45
406.05	182.56
406.24	187.24
406.43	210.65
406.62	140.43
406.81	222.35
407.00	257.46
407.20	554.71
407.39	875.36
407.58	861.32
407.77	638.97
407.96	339.38
408.15	276.18
408.34	201.29
408.54	222.35
408.73	131.07
408.92	159.16
409.11	145.11
409.30	175.54
409.49	163.84
409.68	154.48
409.87	182.56
410.07	156.82
410.26	159.16
410.45	191.92
410.64	154.48
410.83	177.88
411.02	217.67
411.21	147.45
411.40	250.44
411.59	154.48
411.78	196.60
411.98	212.99
412.17	245.76
412.36	170.86
412.55	147.45
412.74	203.63
412.93	280.86
413.12	212.99
413.31	180.22
413.50	248.10
413.69	159.16
413.88	250.44
414.07	224.69
414.26	163.84
414.45	238.73
414.64	257.46
414.83	175.54
415.02	212.99
415.22	243.42
415.41	248.10
415.60	187.24
415.79	224.69
415.98	252.78
416.17	245.76
416.36	187.24
416.55	220.01
416.74	210.65
416.93	229.37
417.12	231.71
417.31	234.05
417.50	262.14
417.69	257.46
417.88	245.76
418.07	203.63
418.26	255.12
418.45	177.88
418.64	231.71
418.83	266.82
419.02	236.39
419.21	234.05
419.39	238.73
419.58	306.61
419.77	250.44
419.96	229.37
420.15	313.63
420.34	224.69
420.53	215.33
420.72	241.08
420.91	315.97
421.10	287.89
421.29	271.50
421.48	287.89
421.67	262.14
421.86	238.73
422.05	273.84
422.24	182.56
422.43	280.86
422.61	266.82
422.80	259.80
422.99	241.08
423.18	222.35
423.37	292.57
423.56	243.42
423.75	311.29
423.94	255.12
424.13	231.71
424.32	339.38
424.50	241.08
424.69	299.59
424.88	292.57
425.07	280.86
425.26	283.20
425.45	280.86
425.64	278.52
425.83	330.02
426.01	278.52
426.20	243.42
426.39	301.93
426.58	273.84
426.77	299.59
426.96	285.55
427.15	341.72
427.33	327.68
427.52	308.95
427.71	278.52
427.90	318.31
428.09	311.29
428.28	313.63
428.46	360.44
428.65	271.50
428.84	332.36
429.03	287.89
429.22	320.65
429.40	337.04
429.59	325.33
429.78	358.10
429.97	304.27
430.16	304.27
430.34	372.15
430.53	358.10
430.72	313.63
430.91	311.29
431.10	327.68
431.28	337.04
431.47	299.59
431.66	388.53
431.85	344.06
432.03	376.83
432.22	444.70
432.41	416.62
432.60	442.36
432.79	337.04
432.97	475.13
433.16	400.23
433.35	493.85
433.54	489.17
433.72	603.86
433.91	554.71
434.10	648.33
434.28	866.00
434.47	884.72
434.66	894.08
434.85	1217.08
435.03	3087.17
435.22	11632.46
435.41	26529.97
435.59	28858.81
435.78	18403.63
435.97	8929.14
436.16	3473.36
436.34	1114.10
436.53	781.74
436.72	575.77
436.90	561.73
437.09	482.15
437.28	449.38
437.46	444.70
437.65	428.32
437.84	510.24
438.02	479.81
438.21	470.45
438.40	430.66
438.58	433.00
438.77	374.49
438.96	500.87
439.14	418.96
439.33	374.49
439.52	449.38
439.70	348.74
439.89	388.53
440.08	435.34
440.26	458.74
440.45	395.55
440.63	388.53
440.82	402.57
441.01	447.04
441.19	461.09
441.38	334.70
441.57	425.98
441.75	447.04
441.94	475.13
442.12	395.55
442.31	397.89
442.50	404.91
442.68	344.06
442.87	456.40
443.05	425.98
443.24	433.00
443.43	402.57
443.61	435.34
443.80	454.06
443.98	425.98
444.17	322.99
444.35	475.13
444.54	367.46
444.73	449.38
444.91	479.81
445.10	416.62
445.28	484.49
445.47	416.62
445.65	393.21
445.84	430.66
446.02	440.02
446.21	353.42
446.39	433.00
446.58	430.66
446.77	451.72
446.95	402.57
447.14	423.64
447.32	477.47
447.51	442.36
447.69	330.02
447.88	454.06
448.06	416.62
448.25	332.36
448.43	383.85
448.62	372.15
448.80	400.23
448.99	444.70
449.17	351.08
449.36	379.17
449.54	451.72
449.73	411.93
449.91	454.06
450.10	386.19
450.28	437.68
450.46	437.68
450.65	383.85
450.83	430.66
451.02	381.51
451.20	507.90
451.39	425.98
451.57	435.34
451.76	428.32
451.94	379.17
452.13	468.11
452.31	409.59
452.49	416.62
452.68	334.70
452.86	411.93
453.05	451.72
453.23	479.81
453.42	414.27
453.60	367.46
453.78	407.25
453.97	449.38
454.15	376.83
454.34	437.68
454.52	337.04
454.70	447.04
454.89	447.04
455.07	365.12
455.26	374.49
455.44	430.66
455.62	402.57
455.81	484.49
455.99	390.87
456.17	381.51
456.36	404.91
456.54	430.66
456.73	351.08
456.91	433.00
457.09	381.51
457.28	484.49
457.46	362.78
457.64	416.62
457.83	381.51
458.01	418.96
458.19	430.66
458.38	374.49
458.56	477.47
458.74	351.08
458.93	425.98
459.11	400.23
459.29	374.49
459.48	414.27
459.66	414.27
459.84	430.66
460.03	428.32
460.21	395.55
460.39	407.25
460.57	372.15
460.76	440.02
460.94	442.36
461.12	449.38
461.31	435.34
461.49	407.25
461.67	388.53
461.85	444.70
462.04	421.30
462.22	554.71
462.40	397.89
462.59	463.43
462.77	397.89
462.95	449.38
463.13	442.36
463.32	414.27
463.50	456.40
463.68	418.96
463.86	376.83
464.05	388.53
464.23	421.30
464.41	472.79
464.59	348.74
464.78	465.77
464.96	433.00
465.14	397.89
465.32	402.57
465.50	334.70
465.69	360.44
465.87	362.78
466.05	425.98
466.23	327.68
466.41	388.53
466.60	510.24
466.78	407.25
466.96	496.19
467.14	418.96
467.32	423.64
467.51	379.17
467.69	468.11
467.87	451.72
468.05	421.30
468.23	360.44
468.41	421.30
468.60	449.38
468.78	353.42
468.96	425.98
469.14	388.53
469.32	402.57
469.50	414.27
469.69	315.97
469.87	433.00
470.05	308.95
470.23	411.93
470.41	315.97
470.59	348.74
470.77	402.57
470.95	372.15
471.14	325.33
471.32	304.27
471.50	374.49
471.68	353.42
471.86	397.89
472.04	341.72
472.22	390.87
472.40	315.97
472.58	475.13
472.77	381.51
472.95	404.91
473.13	486.83
473.31	456.40
473.49	367.46
473.67	379.17
473.85	444.70
474.03	360.44
474.21	409.59
474.39	517.26
474.57	440.02
474.75	418.96
474.93	418.96
475.12	393.21
475.30	404.91
475.48	362.78
475.66	383.85
475.84	379.17
476.02	433.00
476.20	379.17
476.38	451.72
476.56	463.43
476.74	337.04
476.92	390.87
477.10	311.29
477.28	447.04
477.46	388.53
477.64	498.53
477.82	463.43
478.00	418.96
478.18	353.42
478.36	458.74
478.54	374.49
478.72	472.79
478.90	491.51
479.08	416.62
479.26	472.79
479.44	505.56
479.62	484.49
479.80	543.00
479.98	470.45
480.16	442.36
480.34	638.97
480.52	540.66
480.70	636.63
480.88	692.80
481.06	741.95
481.24	608.54
481.41	645.99
481.59	777.06
481.77	767.70
481.95	880.04
482.13	898.77
482.31	844.93
482.49	1006.43
482.67	1013.45
482.85	1071.97
483.03	1130.48
483.21	1221.76
483.39	1341.13
483.57	1432.41
483.74	1474.54
483.92	1584.54
484.10	1652.42
484.28	1696.89
484.46	1734.34
484.64	1919.24
484.82	1886.47
485.00	1998.82
485.18	2181.38
485.35	2319.47
485.53	2317.13
485.71	2555.86
485.89	2597.99
486.07	2600.34
486.25	2668.21
486.43	2752.47
486.61	2722.04
486.78	2752.47
486.96	2733.75
487.14	2757.15
487.32	2717.36
487.50	2548.84
487.68	2710.34
487.85	2541.82
488.03	2628.42
488.21	2548.84
488.39	2562.89
488.57	2429.48
488.75	2497.35
488.92	2663.53
489.10	2370.96
489.28	2190.74
489.46	2143.93
489.64	2136.91
489.81	2200.10
489.99	2090.10
490.17	1982.43
490.35	2057.33
490.53	1959.03
490.70	1977.75
490.88	2129.89
491.06	2136.91
491.24	2373.30
491.41	2354.58
491.59	2108.82
491.77	2101.80
491.95	1933.28
492.13	1916.90
492.30	1877.11
492.48	1827.96
492.66	1823.28
492.84	1853.70
493.01	1842.00
493.19	1820.94
493.37	1813.92
493.54	1647.74
493.72	1720.29
493.90	1685.19
494.08	1696.89
494.25	1593.90
494.43	1764.76
494.61	1551.78
494.79	1614.97
494.96	1577.52
495.14	1474.54
495.32	1497.94
495.49	1490.92
495.67	1397.30
495.85	1490.92
496.02	1350.49
496.20	1362.19
496.38	1322.40
496.55	1217.08
496.73	1310.70
496.91	1270.91
497.09	1320.06
497.26	1177.29
497.44	1238.14
497.62	1355.17
497.79	1207.72
497.97	1172.61
498.14	1172.61
498.32	1210.06
498.50	1062.60
498.67	1142.18
498.85	1088.35
499.03	1022.81
499.20	1036.86
499.38	1144.52
499.56	1093.03
499.73	964.30
499.91	1008.77
500.08	1025.15
500.26	926.85
500.44	940.90
500.61	866.00
500.79	732.59
500.97	823.87
501.14	844.93
501.32	723.23
501.49	826.21
501.67	767.70
501.84	627.26
502.02	697.48
502.20	741.95
502.37	713.86
502.55	617.90
502.72	575.77
502.90	564.07
503.07	617.90
503.25	613.22
503.43	491.51
503.60	538.32
503.78	603.86
503.95	608.54
504.13	493.85
504.30	613.22
504.48	571.09
504.65	531.30
504.83	510.24
505.01	489.17
505.18	535.98
505.36	505.56
505.53	465.77
505.71	543.00
505.88	491.51
506.06	463.43
506.23	503.22
506.41	500.87
506.58	428.32
506.76	491.51
506.93	418.96
507.11	374.49
507.28	444.70
507.46	374.49
507.63	557.05
507.81	430.66
507.98	456.40
508.16	475.13
508.33	393.21
508.50	404.91
508.68	418.96
508.85	479.81
509.03	475.13
509.20	461.09
509.38	554.71
509.55	475.13
509.73	447.04
509.90	507.90
510.08	355.76
510.25	503.22
510.42	409.59
510.60	430.66
510.77	428.32
510.95	425.98
511.12	390.87
511.30	379.17
511.47	435.34
511.64	440.02
511.82	353.42
511.99	339.38
512.17	308.95
512.34	404.91
512.51	358.10
512.69	458.74
512.86	421.30
513.04	404.91
513.21	461.09
513.38	400.23
513.56	425.98
513.73	400.23
513.90	365.12
514.08	337.04
514.25	337.04
514.43	306.61
514.60	393.21
514.77	362.78
514.95	365.12
515.12	358.10
515.29	292.57
515.47	393.21
515.64	383.85
515.81	315.97
515.99	313.63
516.16	402.57
516.33	308.95
516.51	393.21
516.68	292.57
516.85	297.25
517.03	397.89
517.20	358.10
517.37	313.63
517.54	332.36
517.72	365.12
517.89	322.99
518.06	308.95
518.24	428.32
518.41	341.72
518.58	259.80
518.75	327.68
518.93	330.02
519.10	383.85
519.27	337.04
519.45	397.89
519.62	311.29
519.79	435.34
519.96	369.80
520.14	332.36
520.31	430.66
520.48	304.27
520.65	313.63
520.83	376.83
521.00	252.78
521.17	344.06
521.34	337.04
521.52	376.83
521.69	353.42
521.86	348.74
522.03	360.44
522.20	421.30
522.38	330.02
522.55	365.12
522.72	341.72
522.89	355.76
523.07	402.57
523.24	325.33
523.41	337.04
523.58	423.64
523.75	393.21
523.92	292.57
524.10	418.96
524.27	325.33
524.44	344.06
524.61	409.59
524.78	322.99
524.96	358.10
525.13	383.85
525.30	407.25
525.47	390.87
525.64	416.62
525.81	376.83
525.98	411.93
526.16	330.02
526.33	395.55
526.50	337.04
526.67	372.15
526.84	315.97
527.01	421.30
527.18	461.09
527.36	514.92
527.53	423.64
527.70	505.56
527.87	376.83
528.04	500.87
528.21	444.70
528.38	475.13
528.55	451.72
528.72	456.40
528.89	367.46
529.07	428.32
529.24	390.87
529.41	482.15
529.58	437.68
529.75	414.27
529.92	400.23
530.09	362.78
530.26	477.47
530.43	512.58
530.60	496.19
530.77	550.03
530.94	451.72
531.11	568.75
531.28	545.34
531.46	475.13
531.63	592.16
531.80	599.18
531.97	617.90
532.14	779.40
532.31	887.06
532.48	1076.65
532.65	1102.39
532.82	1259.21
532.99	1397.30
533.16	1568.16
533.33	1626.67
533.50	1472.20
533.67	1406.66
533.84	1226.44
534.01	976.00
534.18	997.07
534.35	1039.20
534.52	971.32
534.69	1071.97
534.86	1118.78
535.03	1060.26
535.20	1118.78
535.37	1177.29
535.54	1165.59
535.71	1289.64
535.88	1474.54
536.05	1401.98
536.22	1678.16
536.38	1647.74
536.55	1879.45
536.72	2078.40
536.89	2214.15
537.06	2567.57
537.23	2780.56
537.40	3190.15
537.57	3208.87
537.74	3468.67
537.91	3508.46
538.08	3632.51
538.25	3590.38
538.42	3606.77
538.59	3651.24
538.75	3969.55
538.92	4217.65
539.09	4573.41
539.26	4887.04
539.43	5561.11
539.60	6392.00
539.77	7014.59
539.94	8049.10
540.11	8690.41
540.28	9509.60
540.44	10621.35
540.61	11587.99
540.78	13516.59
540.95	16020.97
541.12	19286.01
541.29	21678.04
541.46	22710.22
541.62	22579.15
541.79	21722.51
541.96	19894.55
542.13	18661.09
542.30	17216.98
542.47	16315.87
542.63	15459.24
542.80	15405.41
542.97	14724.31
543.14	14686.86
543.31	14696.22
543.48	14593.24
543.64	14750.06
543.81	15019.22
543.98	15213.48
544.15	15239.23
544.32	15339.87
544.48	15419.45
544.65	14913.89
544.82	14939.64
544.99	14820.27
545.16	15552.86
545.32	16140.33
545.49	26497.20
545.66	48832.94
545.83	57380.57
546.00	52018.41
546.16	36308.73
546.33	27033.19
546.50	19796.25
546.67	15515.41
546.83	13640.64
547.00	13209.98
547.17	12458.67
547.34	11939.07
547.50	11382.03
547.67	11173.72
547.84	10487.94
548.00	10216.44
548.17	9738.97
548.34	9423.00
548.51	8877.65
548.67	8678.71
548.84	8236.35
549.01	7913.35
549.18	7691.00
549.34	7258.00
549.51	6998.20
549.68	6799.26
549.84	6492.65
550.01	6139.23
550.18	6017.52
550.34	5687.50
550.51	5387.91
550.68	5156.20
550.84	4734.90
551.01	4634.26
551.18	4411.91
551.34	4102.96
551.51	4077.21
551.68	3882.95
551.84	3702.73
552.01	3337.60
552.18	3478.04
552.34	3307.18
552.51	3150.36
552.68	3000.57
552.84	2956.10
553.01	2881.20
553.18	2717.36
553.34	2684.59
553.51	2504.37
553.67	2574.59
553.84	2331.17
554.01	2375.64
554.17	2040.95
554.34	1930.94
554.51	1851.36
554.67	1771.79
554.84	1586.88
555.00	1554.12
555.17	1537.73
555.33	1497.94
555.50	1439.43
555.67	1313.04
555.83	1338.79
556.00	1249.85
556.16	1366.87
556.33	1188.99
556.50	1104.73
556.66	1144.52
556.83	1064.94
556.99	1020.47
557.16	1057.92
557.32	1006.43
557.49	931.53
557.65	952.60
557.82	910.47
557.98	922.17
558.15	802.80
558.32	760.67
558.48	807.48
558.65	809.83
558.81	802.80
558.98	828.55
559.14	809.83
559.31	753.65
559.47	784.08
559.64	758.33
559.80	781.74
559.97	723.23
560.13	634.29
560.30	650.67
560.46	664.71
560.63	702.16
560.79	732.59
560.96	716.20
561.12	690.46
561.29	709.18
561.45	723.23
561.61	716.20
561.78	739.61
561.94	645.99
562.11	650.67
562.27	669.39
562.44	608.54
562.60	704.50
562.77	610.88
562.93	713.86
563.10	657.69
563.26	636.63
563.42	690.46
563.59	585.13
563.75	580.45
563.92	585.13
564.08	557.05
564.24	564.07
564.41	674.07
564.57	531.30
564.74	531.30
564.90	601.52
565.07	528.96
565.23	575.77
565.39	592.16
565.56	543.00
565.72	552.37
565.88	524.28
566.05	552.37
566.21	601.52
566.38	641.31
566.54	507.90
566.70	587.47
566.87	585.13
567.03	521.94
567.19	566.41
567.36	566.41
567.52	568.75
567.68	564.07
567.85	594.50
568.01	582.79
568.17	622.58
568.34	512.58
568.50	704.50
568.66	554.71
568.83	629.60
568.99	521.94
569.15	554.71
569.32	554.71
569.48	524.28
569.64	519.60
569.81	521.94
569.97	435.34
570.13	461.09
570.30	500.87
570.46	444.70
570.62	479.81
570.78	425.98
570.95	341.72
571.11	428.32
571.27	491.51
571.43	372.15
571.60	388.53
571.76	425.98
571.92	468.11
572.09	479.81
572.25	447.04
572.41	468.11
572.57	423.64
572.74	489.17
572.90	458.74
573.06	470.45
573.22	507.90
573.38	451.72
573.55	496.19
573.71	477.47
573.87	444.70
574.03	575.77
574.20	465.77
574.36	493.85
574.52	519.60
574.68	566.41
574.84	582.79
575.01	538.32
575.17	638.97
575.33	676.41
575.49	685.78
575.65	718.54
575.82	777.06
575.98	873.02
576.14	896.43
576.30	1701.57
576.46	5392.59
576.62	9598.54
576.79	10750.08
576.95	8023.36
577.11	5277.91
577.27	3688.68
577.43	2436.50
577.59	1605.61
577.75	1371.55
577.92	1188.99
578.08	1090.69
578.24	1205.38
578.40	1881.79
578.56	5296.63
578.72	9390.23
578.88	9928.55
579.04	7035.65
579.21	4809.80
579.37	3850.18
579.53	2923.33
579.69	2876.52
579.85	3382.07
580.01	3864.22
580.17	3803.37
580.33	3190.15
580.49	2839.07
580.65	2527.78
580.82	2244.57
580.98	2312.45
581.14	2298.41
581.30	2487.99
581.46	2595.65
581.62	2803.96
581.78	2981.84
581.94	3035.67
582.10	3251.00
582.26	3487.40
582.42	3534.21
582.58	3660.60
582.74	3751.88
582.90	3693.37
583.06	3768.26
583.22	3770.60
583.38	3740.18
583.54	3740.18
583.70	3702.73
583.86	3705.07
584.02	3679.32
584.18	3779.97
584.34	3538.89
584.50	3506.12
584.66	3412.50
584.82	3288.45
584.98	3396.12
585.14	3260.37
585.30	3211.22
585.46	3208.87
585.62	3194.83
585.78	3255.69
585.94	3232.28
586.10	3328.24
586.26	3435.91
586.42	3997.64
586.58	4695.11
586.74	5579.84
586.90	6712.66
587.06	7276.73
587.22	7218.21
587.38	6506.69
587.54	5699.20
587.70	4858.95
587.86	4149.77
588.02	3569.32
588.18	3084.83
588.34	2801.62
588.49	2548.84
588.65	2443.52
588.81	2289.04
588.97	2143.93
589.13	2157.97
589.29	2160.31
589.45	2186.06
589.61	2169.68
589.77	2113.50
589.93	2237.55
590.08	2232.87
590.24	2363.94
590.40	2380.32
590.56	2509.05
590.72	2396.71
590.88	2431.82
591.04	2619.06
591.20	2703.32
591.35	2787.58
591.51	3098.87
591.67	3019.29
591.83	3176.11
591.99	3428.88
592.15	3791.67
592.31	4058.49
592.46	4512.55
592.62	4861.29
592.78	4994.70
592.94	5275.57
593.10	5203.01
593.26	5097.69
593.41	4692.77
593.57	4102.96
593.73	3705.07
593.89	3232.28
594.05	2981.84
594.20	2619.06
594.36	2565.23
594.52	2270.32
594.68	2242.23
594.84	2050.31
594.99	2043.29
595.15	2069.03
595.31	1905.20
595.47	1933.28
595.62	1884.13
595.78	1994.14
595.94	1844.34
596.10	1912.22
596.25	1987.11
596.41	2019.88
596.57	1893.49
596.73	1837.32
596.88	1975.41
597.04	1916.90
597.20	1916.90
597.36	2003.50
597.51	2059.67
597.67	2104.14
597.83	2314.79
597.99	2279.68
598.14	2424.80
598.30	2579.27
598.46	2803.96
598.61	2974.82
598.77	2970.14
598.93	3148.02
599.09	3187.81
599.24	3248.66
599.40	3176.11
599.56	3171.43
599.71	3042.70
599.87	2810.98
600.03	2668.21
600.18	2455.22
600.34	2385.01
600.50	2111.16
600.65	2190.74
600.81	1867.75
600.97	1928.60
601.12	1741.36
601.28	1732.00
601.44	1629.01
601.59	1577.52
601.75	1469.86
601.91	1451.13
602.06	1373.89
602.22	1404.32
602.37	1338.79
602.53	1270.91
602.69	1425.39
602.84	1324.74
603.00	1254.53
603.16	1315.38
603.31	1359.85
603.47	1308.36
603.62	1446.45
603.78	1352.83
603.94	1437.09
604.09	1465.18
604.25	1479.22
604.40	1488.58
604.56	1434.75
604.71	1467.52
604.87	1516.67
605.03	1621.99
605.18	1682.85
605.34	1575.18
605.49	1650.08
605.65	1661.78
605.80	1757.74
605.96	1877.11
606.12	1902.86
606.27	1959.03
606.43	1996.48
606.58	2073.71
606.74	2249.25
606.89	2291.38
607.05	2466.92
607.20	2548.84
607.36	2773.53
607.51	2679.91
607.67	2977.16
607.82	3061.42
607.98	3323.56
608.13	3611.45
608.29	3896.99
608.44	4140.41
608.60	4444.68
608.75	4873.00
608.91	5465.15
609.06	6038.58
609.22	6513.71
609.37	7201.83
609.53	7990.59
609.68	9156.18
609.84	10640.08
609.99	12505.48
610.15	14841.34
610.30	17980.00
610.46	22672.77
610.61	29509.47
610.76	37766.88
610.92	45464.91
611.07	50026.61
611.23	50967.51
611.38	48942.94
611.54	44208.04
611.69	38565.01
611.84	32079.38
612.00	26785.09
612.15	22302.96
612.31	19517.73
612.46	17371.46
612.62	16018.63
612.77	15169.01
612.92	14476.21
613.08	13619.58
613.23	12999.34
613.39	12243.34
613.54	11908.65
613.69	11847.79
613.85	11625.44
614.00	11524.80
614.15	11482.67
614.31	11269.68
614.46	10993.50
614.62	10689.23
614.77	10251.55
614.92	9530.66
615.08	8840.20
615.23	8161.45
615.38	7487.37
615.54	6923.30
615.69	6401.37
615.84	5724.95
616.00	5551.75
616.15	5116.41
616.30	4758.31
616.46	4329.99
616.61	4196.58
616.76	4011.68
616.92	3730.81
617.07	3632.51
617.22	3389.10
617.37	3089.51
617.53	2972.48
617.68	2906.95
617.83	2801.62
617.99	2708.00
618.14	2715.02
618.29	2822.69
618.45	2576.93
618.60	2520.76
618.75	2413.09
618.90	2354.58
619.06	2490.33
619.21	2441.18
619.36	2476.29
619.51	2408.41
619.67	2370.96
619.82	2588.63
619.97	2588.63
620.12	2572.25
620.28	2581.61
620.43	2602.68
620.58	2726.72
620.73	2743.11
620.89	2670.55
621.04	2602.68
621.19	2675.23
621.34	2546.50
621.49	2633.10
621.65	2495.01
621.80	2492.67
621.95	2429.48
622.10	2487.99
622.25	2443.52
622.41	2473.95
622.56	2520.76
622.71	2677.57
622.86	2726.72
623.01	2708.00
623.16	2892.90
623.32	2693.96
623.47	2902.26
623.62	2822.69
623.77	2885.88
623.92	2867.16
624.07	2778.22
624.23	2827.37
624.38	2745.45
624.53	2825.03
624.68	2888.22
624.83	3038.02
624.98	2951.42
625.13	2958.44
625.29	2888.22
625.44	2923.33
625.59	2888.22
625.74	2785.24
625.89	2871.84
626.04	2867.16
626.19	2918.65
626.34	2761.83
626.49	2909.29
626.65	2705.66
626.80	2747.79
626.95	2682.25
627.10	2789.92
627.25	2766.51
627.40	2663.53
627.55	2724.38
627.70	2546.50
627.85	2616.72
628.00	2492.67
628.15	2525.44
628.30	2558.21
628.45	2438.84
628.60	2583.95
628.76	2656.51
628.91	2644.81
629.06	2623.74
629.21	2656.51
629.36	2745.45
629.51	2761.83
629.66	2986.52
629.81	3178.45
629.96	3297.81
630.11	3653.58
630.26	3960.19
630.41	4440.00
630.56	4931.51
630.71	5352.81
630.86	5341.10
631.01	5298.97
631.16	4985.34
631.31	4559.36
631.46	3922.74
631.61	3176.11
631.76	2677.57
631.91	2370.96
632.06	2031.58
632.21	1673.48
632.36	1521.35
632.51	1329.42
632.66	1242.82
632.81	1188.99
632.96	1212.40
633.10	1025.15
633.25	1069.62
633.40	1027.50
633.55	931.53
633.70	870.68
633.85	898.77
634.00	861.32
634.15	844.93
634.30	849.61
634.45	795.78
634.60	823.87
634.75	744.29
634.90	777.06
635.05	760.67
635.19	767.70
635.34	734.93
635.49	748.97
635.64	709.18
635.79	706.84
635.94	610.88
636.09	727.91
636.24	695.14
636.39	690.46
636.53	683.44
636.68	608.54
636.83	667.05
636.98	685.78
637.13	681.10
637.28	606.20
637.43	624.92
637.57	688.12
637.72	655.35
637.87	571.09
638.02	547.69
638.17	566.41
638.32	645.99
638.46	622.58
638.61	634.29
638.76	610.88
638.91	568.75
639.06	543.00
639.20	587.47
639.35	608.54
639.50	533.64
639.65	608.54
639.80	535.98
639.94	559.39
640.09	631.94
640.24	627.26
640.39	615.56
640.54	538.32
640.68	528.96
640.83	557.05
640.98	561.73
641.13	479.81
641.27	512.58
641.42	543.00
641.57	472.79
641.72	578.11
641.86	545.34
642.01	479.81
642.16	552.37
642.31	463.43
642.45	543.00
642.60	547.69
642.75	505.56
642.90	519.60
643.04	505.56
643.19	507.90
643.34	540.66
643.48	538.32
643.63	603.86
643.78	606.20
643.93	531.30
644.07	554.71
644.22	554.71
644.37	547.69
644.51	531.30
644.66	554.71
644.81	493.85
644.95	580.45
645.10	454.06
645.25	566.41
645.39	507.90
645.54	472.79
645.69	517.26
645.83	437.68
645.98	573.43
646.13	517.26
646.27	493.85
646.42	444.70
646.57	519.60
646.71	561.73
646.86	493.85
647.00	521.94
647.15	535.98
647.30	554.71
647.44	505.56
647.59	454.06
647.74	442.36
647.88	503.22
648.03	451.72
648.17	482.15
648.32	547.69
648.47	507.90
648.61	475.13
648.76	507.90
648.90	587.47
649.05	662.37
649.20	587.47
649.34	601.52
649.49	697.48
649.63	674.07
649.78	915.15
649.92	1144.52
650.07	1350.49
650.21	1561.14
650.36	1519.01
650.51	1455.81
650.65	1373.89
650.80	1303.68
650.94	1146.86
651.09	1097.71
651.23	901.11
651.38	884.72
651.52	826.21
651.67	746.63
651.81	760.67
651.96	671.73
652.10	578.11
652.25	641.31
652.39	667.05
652.54	671.73
652.68	706.84
652.83	784.08
652.97	774.72
653.12	774.72
653.26	748.97
653.41	744.29
653.55	653.01
653.70	655.35
653.84	615.56
653.99	538.32
654.13	547.69
654.27	657.69
654.42	601.52
654.56	482.15
654.71	554.71
654.85	470.45
655.00	468.11
655.14	491.51
655.29	440.02
655.43	444.70
655.57	479.81
655.72	449.38
655.86	568.75
656.01	528.96
656.15	454.06
656.30	498.53
656.44	416.62
656.58	442.36
656.73	440.02
656.87	458.74
657.01	454.06
657.16	582.79
657.30	528.96
657.45	557.05
657.59	531.30
657.73	608.54
657.88	526.62
658.02	620.24
658.16	587.47
658.31	594.50
658.45	507.90
658.60	393.21
658.74	393.21
658.88	355.76
659.03	341.72
659.17	440.02
659.31	351.08
659.46	306.61
659.60	362.78
659.74	360.44
659.89	351.08
660.03	327.68
660.17	425.98
660.32	376.83
660.46	383.85
660.60	376.83
660.74	348.74
660.89	414.27
661.03	482.15
661.17	456.40
661.32	430.66
661.46	468.11
661.60	540.66
661.74	713.86
661.89	763.01
662.03	788.76
662.17	952.60
662.31	1004.09
662.46	915.15
662.60	964.30
662.74	861.32
662.88	791.10
663.03	671.73
663.17	582.79
663.31	627.26
663.45	547.69
663.60	463.43
663.74	461.09
663.88	397.89
664.02	463.43
664.17	381.51
664.31	360.44
664.45	381.51
664.59	362.78
664.73	348.74
664.88	397.89
665.02	411.93
665.16	383.85
665.30	421.30
665.44	425.98
665.59	407.25
665.73	440.02
665.87	346.40
666.01	393.21
666.15	404.91
666.29	280.86
666.44	416.62
666.58	400.23
666.72	416.62
666.86	411.93
667.00	386.19
667.14	355.76
667.28	353.42
667.43	388.53
667.57	411.93
667.71	290.23
667.85	409.59
667.99	351.08
668.13	374.49
668.27	341.72
668.41	334.70
668.56	330.02
668.70	346.40
668.84	332.36
668.98	365.12
669.12	381.51
669.26	451.72
669.40	381.51
669.54	395.55
669.68	421.30
669.82	325.33
669.96	315.97
670.10	355.76
670.25	351.08
670.39	428.32
670.53	315.97
670.67	330.02
670.81	257.46
670.95	327.68
671.09	334.70
671.23	376.83
671.37	355.76
671.51	348.74
671.65	292.57
671.79	365.12
671.93	395.55
672.07	402.57
672.21	379.17
672.35	304.27
672.49	248.10
672.63	383.85
672.77	346.40
672.91	351.08
673.05	327.68
673.19	372.15
673.33	299.59
673.47	358.10
673.61	376.83
673.75	273.84
673.89	325.33
674.03	397.89
674.17	271.50
674.31	346.40
674.45	278.52
674.59	283.20
674.73	337.04
674.87	269.16
675.01	297.25
675.15	248.10
675.29	315.97
675.43	259.80
675.56	362.78
675.70	383.85
675.84	278.52
675.98	266.82
676.12	252.78
676.26	299.59
676.40	280.86
676.54	231.71
676.68	210.65
676.82	294.91
676.96	287.89
677.10	330.02
677.23	276.18
677.37	285.55
677.51	292.57
677.65	262.14
677.79	243.42
677.93	229.37
678.07	322.99
678.21	262.14
678.34	278.52
678.48	177.88
678.62	311.29
678.76	322.99
678.90	278.52
679.04	177.88
679.18	212.99
679.31	301.93
679.45	299.59
679.59	287.89
679.73	259.80
679.87	252.78
680.00	383.85
680.14	248.10
680.28	294.91
680.42	259.80
680.56	311.29
680.70	294.91
680.83	339.38
680.97	259.80
681.11	205.97
681.25	367.46
681.39	222.35
681.52	358.10
681.66	285.55
681.80	208.31
681.94	306.61
682.07	259.80
682.21	306.61
682.35	269.16
682.49	299.59
682.62	308.95
682.76	238.73
682.90	280.86
683.04	250.44
683.17	241.08
683.31	257.46
683.45	259.80
683.59	259.80
683.72	236.39
683.86	266.82
684.00	283.20
684.13	229.37
684.27	212.99
684.41	182.56
684.55	238.73
684.68	304.27
684.82	257.46
684.96	245.76
685.09	273.84
685.23	290.23
685.37	276.18
685.50	245.76
685.64	313.63
685.78	271.50
685.91	308.95
686.05	325.33
686.19	402.57
686.32	348.74
686.46	334.70
686.60	320.65
686.73	428.32
686.87	397.89
687.01	428.32
687.14	428.32
687.28	498.53
687.42	456.40
687.55	535.98
687.69	624.92
687.82	463.43
687.96	561.73
688.10	456.40
688.23	528.96
688.37	465.77
688.50	505.56
688.64	416.62
688.78	348.74
688.91	381.51
689.05	308.95
689.18	294.91
689.32	241.08
689.46	299.59
689.59	269.16
689.73	292.57
689.86	280.86
690.00	182.56
690.13	243.42
690.27	229.37
690.41	322.99
690.54	360.44
690.68	334.70
690.81	231.71
690.95	255.12
691.08	205.97
691.22	236.39
691.35	210.65
691.49	168.52
691.62	222.35
691.76	149.79
691.89	149.79
692.03	201.29
692.16	156.82
692.30	170.86
692.43	177.88
692.57	224.69
692.70	208.31
692.84	259.80
692.97	222.35
693.11	250.44
693.24	334.70
693.38	360.44
693.51	418.96
693.65	388.53
693.78	526.62
693.92	397.89
694.05	407.25
694.19	318.31
694.32	332.36
694.45	311.29
694.59	194.26
694.72	215.33
694.86	196.60
694.99	212.99
695.13	163.84
695.26	201.29
695.39	220.01
695.53	266.82
695.66	231.71
695.80	196.60
695.93	229.37
696.07	161.50
696.20	173.20
696.33	259.80
696.47	266.82
696.60	196.60
696.73	198.95
696.87	180.22
697.00	224.69
697.14	140.43
697.27	159.16
697.40	252.78
697.54	180.22
697.67	161.50
697.80	175.54
697.94	168.52
698.07	114.69
698.21	60.85
698.34	7.02
698.47	128.73
698.61	159.16
698.74	201.29
698.87	191.92
699.01	67.88
699.14	187.24
699.27	184.90
699.40	271.50
699.54	168.52
699.67	138.09
699.80	102.98
699.94	149.79
700.07	189.58
700.20	49.15
700.34	180.22
700.47	187.24
700.60	175.54
700.73	84.26
700.87	210.65
701.00	255.12
701.13	243.42
701.26	154.48
701.40	191.92
701.53	203.63
701.66	110.01
701.79	131.07
701.93	215.33
702.06	227.03
702.19	177.88
702.32	238.73
702.46	271.50
702.59	189.58
702.72	138.09
702.85	182.56
702.99	152.13
703.12	184.90
703.25	205.97
703.38	208.31
703.51	229.37
703.65	203.63
703.78	175.54
703.91	212.99
704.04	212.99
704.17	243.42
704.31	243.42
704.44	236.39
704.57	262.14
704.70	198.95
704.83	285.55
704.96	299.59
705.10	255.12
705.23	262.14
>>>>>End Processed Spectral Data<<<<<
