SpectraSuite Data File
++++++++++++++++++++++++++++++++++++
Date: Fri Oct 04 11:42:04 GMT-05:00 2013
User: price-jones
Dark Spectrum Present: No
Reference Spectrum Present: No
Number of Sampled Component Spectra: 1
Spectrometers: USB2+H05261
Integration Time (usec): 100000 (USB2+H05261)
Spectra Averaged: 1 (USB2+H05261)
Boxcar Smoothing: 0 (USB2+H05261)
Correct for Electrical Dark: No (USB2+H05261)
Strobe/Lamp Enabled: No (USB2+H05261)
Correct for Detector Non-linearity: No (USB2+H05261)
Correct for Stray Light: No (USB2+H05261)
Number of Pixels in Processed Spectrum: 2048
>>>>>Begin Processed Spectral Data<<<<<
365.73	49.15
365.92	49.15
366.12	49.15
366.32	0.00
366.52	0.00
366.72	0.00
366.91	0.00
367.11	0.00
367.31	0.00
367.51	0.00
367.70	0.00
367.90	0.00
368.10	0.00
368.30	0.00
368.49	0.00
368.69	0.00
368.89	0.00
369.09	0.00
369.28	0.00
369.48	0.00
369.68	58.51
369.87	0.00
370.07	11.70
370.27	16.38
370.47	0.00
370.66	0.00
370.86	63.19
371.06	121.71
371.25	142.77
371.45	88.94
371.65	93.62
371.84	23.41
372.04	95.96
372.24	100.64
372.44	142.77
372.63	98.30
372.83	117.03
373.03	177.88
373.22	67.88
373.42	44.47
373.62	135.75
373.81	100.64
374.01	189.58
374.21	154.48
374.40	121.71
374.60	217.67
374.79	126.39
374.99	63.19
375.19	173.20
375.38	51.49
375.58	149.79
375.78	149.79
375.97	175.54
376.17	184.90
376.37	121.71
376.56	159.16
376.76	119.37
376.95	156.82
377.15	180.22
377.35	145.11
377.54	93.62
377.74	140.43
377.93	114.69
378.13	110.01
378.33	142.77
378.52	117.03
378.72	177.88
378.91	149.79
379.11	166.18
379.31	107.66
379.50	39.79
379.70	149.79
379.89	166.18
380.09	70.22
380.28	156.82
380.48	98.30
380.68	147.45
380.87	100.64
381.07	135.75
381.26	182.56
381.46	140.43
381.65	147.45
381.85	79.58
382.04	149.79
382.24	46.81
382.43	51.49
382.63	72.56
382.83	46.81
383.02	110.01
383.22	119.37
383.41	63.19
383.61	100.64
383.80	100.64
384.00	67.88
384.19	60.85
384.39	121.71
384.58	112.35
384.78	135.75
384.97	128.73
385.17	86.60
385.36	100.64
385.56	131.07
385.75	107.66
385.95	112.35
386.14	173.20
386.34	126.39
386.53	128.73
386.72	93.62
386.92	133.41
387.11	93.62
387.31	161.50
387.50	100.64
387.70	110.01
387.89	84.26
388.09	84.26
388.28	84.26
388.48	74.90
388.67	133.41
388.86	121.71
389.06	177.88
389.25	124.05
389.45	182.56
389.64	67.88
389.84	79.58
390.03	173.20
390.22	156.82
390.42	98.30
390.61	79.58
390.81	86.60
391.00	133.41
391.19	81.92
391.39	105.32
391.58	121.71
391.78	149.79
391.97	138.09
392.16	142.77
392.36	149.79
392.55	77.24
392.75	110.01
392.94	60.85
393.13	138.09
393.33	119.37
393.52	23.41
393.71	102.98
393.91	91.28
394.10	119.37
394.29	114.69
394.49	51.49
394.68	88.94
394.88	177.88
395.07	217.67
395.26	95.96
395.46	102.98
395.65	201.29
395.84	168.52
396.04	182.56
396.23	105.32
396.42	105.32
396.62	93.62
396.81	95.96
397.00	112.35
397.19	84.26
397.39	107.66
397.58	184.90
397.77	86.60
397.97	180.22
398.16	149.79
398.35	154.48
398.55	114.69
398.74	102.98
398.93	166.18
399.12	131.07
399.32	154.48
399.51	147.45
399.70	142.77
399.90	166.18
400.09	229.37
400.28	166.18
400.47	231.71
400.67	161.50
400.86	133.41
401.05	152.13
401.24	126.39
401.44	121.71
401.63	152.13
401.82	166.18
402.01	88.94
402.21	145.11
402.40	145.11
402.59	105.32
402.78	168.52
402.97	110.01
403.17	203.63
403.36	184.90
403.55	166.18
403.74	152.13
403.93	161.50
404.13	269.16
404.32	348.74
404.51	257.46
404.70	131.07
404.89	135.75
405.09	250.44
405.28	215.33
405.47	152.13
405.66	154.48
405.85	163.84
406.05	210.65
406.24	126.39
406.43	170.86
406.62	142.77
406.81	175.54
407.00	168.52
407.20	156.82
407.39	135.75
407.58	140.43
407.77	152.13
407.96	182.56
408.15	140.43
408.34	140.43
408.54	159.16
408.73	126.39
408.92	234.05
409.11	95.96
409.30	208.31
409.49	177.88
409.68	102.98
409.87	121.71
410.07	145.11
410.26	128.73
410.45	149.79
410.64	245.76
410.83	88.94
411.02	133.41
411.21	236.39
411.40	133.41
411.59	119.37
411.78	138.09
411.98	163.84
412.17	126.39
412.36	131.07
412.55	152.13
412.74	124.05
412.93	215.33
413.12	142.77
413.31	166.18
413.50	187.24
413.69	163.84
413.88	107.66
414.07	189.58
414.26	95.96
414.45	145.11
414.64	119.37
414.83	168.52
415.02	119.37
415.22	133.41
415.41	133.41
415.60	98.30
415.79	138.09
415.98	238.73
416.17	180.22
416.36	133.41
416.55	156.82
416.74	159.16
416.93	201.29
417.12	126.39
417.31	170.86
417.50	114.69
417.69	210.65
417.88	117.03
418.07	205.97
418.26	173.20
418.45	100.64
418.64	149.79
418.83	177.88
419.02	245.76
419.21	229.37
419.39	149.79
419.58	175.54
419.77	201.29
419.96	203.63
420.15	191.92
420.34	145.11
420.53	212.99
420.72	119.37
420.91	161.50
421.10	154.48
421.29	222.35
421.48	224.69
421.67	135.75
421.86	156.82
422.05	159.16
422.24	168.52
422.43	114.69
422.61	177.88
422.80	189.58
422.99	135.75
423.18	147.45
423.37	210.65
423.56	166.18
423.75	201.29
423.94	145.11
424.13	194.26
424.32	191.92
424.50	194.26
424.69	175.54
424.88	161.50
425.07	184.90
425.26	205.97
425.45	105.32
425.64	142.77
425.83	168.52
426.01	168.52
426.20	149.79
426.39	91.28
426.58	142.77
426.77	201.29
426.96	227.03
427.15	173.20
427.33	168.52
427.52	194.26
427.71	156.82
427.90	224.69
428.09	212.99
428.28	182.56
428.46	163.84
428.65	194.26
428.84	182.56
429.03	196.60
429.22	163.84
429.40	112.35
429.59	100.64
429.78	198.95
429.97	74.90
430.16	175.54
430.34	135.75
430.53	114.69
430.72	117.03
430.91	184.90
431.10	184.90
431.28	154.48
431.47	205.97
431.66	184.90
431.85	147.45
432.03	133.41
432.22	264.48
432.41	203.63
432.60	257.46
432.79	187.24
432.97	88.94
433.16	227.03
433.35	177.88
433.54	177.88
433.72	198.95
433.91	201.29
434.10	210.65
434.28	262.14
434.47	168.52
434.66	168.52
434.85	229.37
435.03	290.23
435.22	636.63
435.41	985.37
435.59	1020.47
435.78	837.91
435.97	428.32
436.16	280.86
436.34	189.58
436.53	212.99
436.72	222.35
436.90	222.35
437.09	191.92
437.28	252.78
437.46	145.11
437.65	201.29
437.84	236.39
438.02	173.20
438.21	198.95
438.40	191.92
438.58	224.69
438.77	168.52
438.96	222.35
439.14	161.50
439.33	201.29
439.52	142.77
439.70	117.03
439.89	170.86
440.08	187.24
440.26	198.95
440.45	198.95
440.63	194.26
440.82	238.73
441.01	210.65
441.19	163.84
441.38	156.82
441.57	156.82
441.75	245.76
441.94	191.92
442.12	187.24
442.31	238.73
442.50	236.39
442.68	166.18
442.87	208.31
443.05	187.24
443.24	175.54
443.43	229.37
443.61	234.05
443.80	173.20
443.98	217.67
444.17	187.24
444.35	245.76
444.54	128.73
444.73	208.31
444.91	278.52
445.10	149.79
445.28	224.69
445.47	196.60
445.65	177.88
445.84	166.18
446.02	222.35
446.21	168.52
446.39	184.90
446.58	210.65
446.77	170.86
446.95	168.52
447.14	210.65
447.32	252.78
447.51	215.33
447.69	194.26
447.88	194.26
448.06	201.29
448.25	194.26
448.43	173.20
448.62	168.52
448.80	241.08
448.99	173.20
449.17	187.24
449.36	191.92
449.54	262.14
449.73	161.50
449.91	259.80
450.10	236.39
450.28	287.89
450.46	236.39
450.65	248.10
450.83	224.69
451.02	252.78
451.20	198.95
451.39	177.88
451.57	194.26
451.76	212.99
451.94	166.18
452.13	203.63
452.31	201.29
452.49	229.37
452.68	208.31
452.86	280.86
453.05	194.26
453.23	149.79
453.42	180.22
453.60	128.73
453.78	175.54
453.97	269.16
454.15	180.22
454.34	194.26
454.52	177.88
454.70	259.80
454.89	208.31
455.07	203.63
455.26	156.82
455.44	294.91
455.62	259.80
455.81	238.73
455.99	182.56
456.17	208.31
456.36	194.26
456.54	149.79
456.73	159.16
456.91	166.18
457.09	168.52
457.28	227.03
457.46	231.71
457.64	231.71
457.83	271.50
458.01	187.24
458.19	222.35
458.38	217.67
458.56	205.97
458.74	255.12
458.93	252.78
459.11	152.13
459.29	196.60
459.48	236.39
459.66	208.31
459.84	276.18
460.03	311.29
460.21	198.95
460.39	212.99
460.57	255.12
460.76	166.18
460.94	229.37
461.12	257.46
461.31	280.86
461.49	194.26
461.67	227.03
461.85	271.50
462.04	210.65
462.22	713.86
462.40	198.95
462.59	229.37
462.77	238.73
462.95	215.33
463.13	224.69
463.32	238.73
463.50	159.16
463.68	173.20
463.86	154.48
464.05	191.92
464.23	257.46
464.41	234.05
464.59	245.76
464.78	161.50
464.96	145.11
465.14	266.82
465.32	166.18
465.50	231.71
465.69	208.31
465.87	191.92
466.05	266.82
466.23	191.92
466.41	262.14
466.60	166.18
466.78	243.42
466.96	184.90
467.14	203.63
467.32	304.27
467.51	222.35
467.69	231.71
467.87	269.16
468.05	187.24
468.23	320.65
468.41	189.58
468.60	220.01
468.78	198.95
468.96	227.03
469.14	191.92
469.32	133.41
469.50	196.60
469.69	203.63
469.87	212.99
470.05	191.92
470.23	177.88
470.41	201.29
470.59	74.90
470.77	196.60
470.95	227.03
471.14	227.03
471.32	248.10
471.50	245.76
471.68	161.50
471.86	276.18
472.04	191.92
472.22	224.69
472.40	234.05
472.58	173.20
472.77	217.67
472.95	156.82
473.13	224.69
473.31	229.37
473.49	138.09
473.67	243.42
473.85	205.97
474.03	166.18
474.21	168.52
474.39	245.76
474.57	269.16
474.75	222.35
474.93	269.16
475.12	243.42
475.30	222.35
475.48	245.76
475.66	262.14
475.84	241.08
476.02	184.90
476.20	222.35
476.38	234.05
476.56	269.16
476.74	234.05
476.92	170.86
477.10	191.92
477.28	285.55
477.46	224.69
477.64	250.44
477.82	212.99
478.00	194.26
478.18	234.05
478.36	140.43
478.54	220.01
478.72	241.08
478.90	248.10
479.08	243.42
479.26	212.99
479.44	149.79
479.62	238.73
479.80	180.22
479.98	217.67
480.16	166.18
480.34	229.37
480.52	283.20
480.70	299.59
480.88	229.37
481.06	248.10
481.24	231.71
481.41	222.35
481.59	236.39
481.77	299.59
481.95	255.12
482.13	231.71
482.31	241.08
482.49	248.10
482.67	245.76
482.85	287.89
483.03	285.55
483.21	243.42
483.39	264.48
483.57	236.39
483.74	273.84
483.92	278.52
484.10	250.44
484.28	262.14
484.46	332.36
484.64	334.70
484.82	280.86
485.00	360.44
485.18	297.25
485.35	362.78
485.53	262.14
485.71	330.02
485.89	306.61
486.07	351.08
486.25	360.44
486.43	362.78
486.61	353.42
486.78	313.63
486.96	290.23
487.14	341.72
487.32	306.61
487.50	318.31
487.68	315.97
487.85	315.97
488.03	327.68
488.21	383.85
488.39	369.80
488.57	365.12
488.75	320.65
488.92	653.01
489.10	369.80
489.28	351.08
489.46	390.87
489.64	369.80
489.81	334.70
489.99	365.12
490.17	278.52
490.35	341.72
490.53	362.78
490.70	311.29
490.88	374.49
491.06	238.73
491.24	393.21
491.41	416.62
491.59	346.40
491.77	285.55
491.95	355.76
492.13	266.82
492.30	341.72
492.48	362.78
492.66	348.74
492.84	308.95
493.01	351.08
493.19	318.31
493.37	327.68
493.54	313.63
493.72	381.51
493.90	379.17
494.08	276.18
494.25	332.36
494.43	290.23
494.61	337.04
494.79	334.70
494.96	360.44
495.14	372.15
495.32	292.57
495.49	313.63
495.67	360.44
495.85	404.91
496.02	346.40
496.20	304.27
496.38	285.55
496.55	287.89
496.73	447.04
496.91	327.68
497.09	351.08
497.26	231.71
497.44	360.44
497.62	304.27
497.79	262.14
497.97	191.92
498.14	383.85
498.32	374.49
498.50	280.86
498.67	217.67
498.85	297.25
499.03	278.52
499.20	369.80
499.38	337.04
499.56	259.80
499.73	390.87
499.91	351.08
500.08	266.82
500.26	224.69
500.44	308.95
500.61	351.08
500.79	358.10
500.97	306.61
501.14	224.69
501.32	180.22
501.49	292.57
501.67	252.78
501.84	283.20
502.02	297.25
502.20	290.23
502.37	250.44
502.55	278.52
502.72	322.99
502.90	339.38
503.07	259.80
503.25	292.57
503.43	278.52
503.60	308.95
503.78	292.57
503.95	273.84
504.13	327.68
504.30	264.48
504.48	285.55
504.65	278.52
504.83	278.52
505.01	308.95
505.18	280.86
505.36	229.37
505.53	273.84
505.71	280.86
505.88	248.10
506.06	196.60
506.23	294.91
506.41	315.97
506.58	287.89
506.76	327.68
506.93	318.31
507.11	297.25
507.28	311.29
507.46	299.59
507.63	318.31
507.81	252.78
507.98	287.89
508.16	283.20
508.33	297.25
508.50	292.57
508.68	273.84
508.85	301.93
509.03	280.86
509.20	304.27
509.38	236.39
509.55	327.68
509.73	301.93
509.90	367.46
510.08	337.04
510.25	360.44
510.42	285.55
510.60	346.40
510.77	248.10
510.95	322.99
511.12	292.57
511.30	301.93
511.47	416.62
511.64	278.52
511.82	222.35
511.99	306.61
512.17	313.63
512.34	369.80
512.51	269.16
512.69	241.08
512.86	355.76
513.04	278.52
513.21	346.40
513.38	252.78
513.56	306.61
513.73	276.18
513.90	285.55
514.08	229.37
514.25	280.86
514.43	264.48
514.60	257.46
514.77	315.97
514.95	362.78
515.12	325.33
515.29	292.57
515.47	304.27
515.64	297.25
515.81	379.17
515.99	255.12
516.16	236.39
516.33	355.76
516.51	290.23
516.68	257.46
516.85	273.84
517.03	301.93
517.20	257.46
517.37	330.02
517.54	299.59
517.72	353.42
517.89	205.97
518.06	252.78
518.24	304.27
518.41	339.38
518.58	287.89
518.75	255.12
518.93	243.42
519.10	325.33
519.27	351.08
519.45	327.68
519.62	313.63
519.79	280.86
519.96	276.18
520.14	276.18
520.31	327.68
520.48	341.72
520.65	248.10
520.83	297.25
521.00	374.49
521.17	367.46
521.34	299.59
521.52	294.91
521.69	344.06
521.86	236.39
522.03	330.02
522.20	297.25
522.38	358.10
522.55	283.20
522.72	271.50
522.89	346.40
523.07	351.08
523.24	294.91
523.41	304.27
523.58	318.31
523.75	304.27
523.92	330.02
524.10	311.29
524.27	325.33
524.44	308.95
524.61	325.33
524.78	252.78
524.96	322.99
525.13	269.16
525.30	262.14
525.47	332.36
525.64	322.99
525.81	322.99
525.98	255.12
526.16	227.03
526.33	241.08
526.50	252.78
526.67	278.52
526.84	285.55
527.01	308.95
527.18	285.55
527.36	320.65
527.53	304.27
527.70	255.12
527.87	355.76
528.04	318.31
528.21	322.99
528.38	250.44
528.55	337.04
528.72	447.04
528.89	339.38
529.07	360.44
529.24	337.04
529.41	285.55
529.58	388.53
529.75	297.25
529.92	292.57
530.09	264.48
530.26	393.21
530.43	313.63
530.60	341.72
530.77	400.23
530.94	245.76
531.11	262.14
531.28	358.10
531.46	301.93
531.63	362.78
531.80	283.20
531.97	287.89
532.14	306.61
532.31	339.38
532.48	285.55
532.65	418.96
532.82	402.57
532.99	348.74
533.16	341.72
533.33	379.17
533.50	306.61
533.67	285.55
533.84	283.20
534.01	294.91
534.18	374.49
534.35	365.12
534.52	339.38
534.69	367.46
534.86	395.55
535.03	362.78
535.20	341.72
535.37	355.76
535.54	348.74
535.71	362.78
535.88	374.49
536.05	393.21
536.22	271.50
536.38	386.19
536.55	388.53
536.72	337.04
536.89	379.17
537.06	334.70
537.23	404.91
537.40	411.93
537.57	388.53
537.74	449.38
537.91	360.44
538.08	465.77
538.25	463.43
538.42	461.09
538.59	491.51
538.75	395.55
538.92	486.83
539.09	531.30
539.26	472.79
539.43	505.56
539.60	578.11
539.77	566.41
539.94	543.00
540.11	671.73
540.28	716.20
540.44	716.20
540.61	802.80
540.78	823.87
540.95	997.07
541.12	1104.73
541.29	1196.01
541.46	1273.25
541.62	1149.20
541.79	1308.36
541.96	1048.56
542.13	1111.75
542.30	1011.11
542.47	1053.24
542.63	1011.11
542.80	1006.43
542.97	1020.47
543.14	976.00
543.31	973.66
543.48	1064.94
543.64	1020.47
543.81	1069.62
543.98	1025.15
544.15	1041.54
544.32	1001.75
544.48	1046.22
544.65	992.39
544.82	1001.75
544.99	915.15
545.16	1048.56
545.32	997.07
545.49	1619.65
545.66	2342.88
545.83	2773.53
546.00	2361.60
546.16	1802.21
546.33	1324.74
546.50	1116.44
546.67	954.94
546.83	901.11
547.00	734.93
547.17	706.84
547.34	748.97
547.50	798.12
547.67	784.08
547.84	690.46
548.00	767.70
548.17	767.70
548.34	685.78
548.51	706.84
548.67	737.27
548.84	669.39
549.01	685.78
549.18	706.84
549.34	578.11
549.51	535.98
549.68	575.77
549.84	599.18
550.01	489.17
550.18	606.20
550.34	610.88
550.51	440.02
550.68	507.90
550.84	395.55
551.01	524.28
551.18	559.39
551.34	442.36
551.51	468.11
551.68	528.96
551.84	437.68
552.01	440.02
552.18	475.13
552.34	458.74
552.51	491.51
552.68	454.06
552.84	416.62
553.01	395.55
553.18	395.55
553.34	383.85
553.51	484.49
553.67	367.46
553.84	535.98
554.01	404.91
554.17	402.57
554.34	395.55
554.51	369.80
554.67	383.85
554.84	393.21
555.00	339.38
555.17	332.36
555.33	325.33
555.50	355.76
555.67	334.70
555.83	269.16
556.00	341.72
556.16	351.08
556.33	372.15
556.50	402.57
556.66	313.63
556.83	308.95
556.99	273.84
557.16	376.83
557.32	280.86
557.49	304.27
557.65	313.63
557.82	362.78
557.98	346.40
558.15	346.40
558.32	308.95
558.48	362.78
558.65	304.27
558.81	311.29
558.98	273.84
559.14	313.63
559.31	372.15
559.47	252.78
559.64	269.16
559.80	351.08
559.97	287.89
560.13	292.57
560.30	297.25
560.46	301.93
560.63	311.29
560.79	210.65
560.96	255.12
561.12	313.63
561.29	344.06
561.45	297.25
561.61	259.80
561.78	367.46
561.94	320.65
562.11	257.46
562.27	306.61
562.44	292.57
562.60	351.08
562.77	327.68
562.93	297.25
563.10	283.20
563.26	332.36
563.42	320.65
563.59	280.86
563.75	278.52
563.92	376.83
564.08	358.10
564.24	229.37
564.41	386.19
564.57	308.95
564.74	231.71
564.90	304.27
565.07	271.50
565.23	301.93
565.39	234.05
565.56	311.29
565.72	245.76
565.88	358.10
566.05	271.50
566.21	290.23
566.38	351.08
566.54	320.65
566.70	177.88
566.87	259.80
567.03	337.04
567.19	266.82
567.36	301.93
567.52	271.50
567.68	271.50
567.85	304.27
568.01	283.20
568.17	236.39
568.34	278.52
568.50	285.55
568.66	252.78
568.83	369.80
568.99	236.39
569.15	292.57
569.32	278.52
569.48	255.12
569.64	306.61
569.81	308.95
569.97	227.03
570.13	266.82
570.30	266.82
570.46	304.27
570.62	250.44
570.78	285.55
570.95	257.46
571.11	353.42
571.27	353.42
571.43	313.63
571.60	245.76
571.76	205.97
571.92	231.71
572.09	269.16
572.25	308.95
572.41	330.02
572.57	273.84
572.74	257.46
572.90	224.69
573.06	210.65
573.22	308.95
573.38	201.29
573.55	308.95
573.71	330.02
573.87	322.99
574.03	283.20
574.20	301.93
574.36	238.73
574.52	285.55
574.68	205.97
574.84	332.36
575.01	271.50
575.17	388.53
575.33	348.74
575.49	332.36
575.65	306.61
575.82	222.35
575.98	353.42
576.14	294.91
576.30	440.02
576.46	491.51
576.62	688.12
576.79	807.48
576.95	624.92
577.11	454.06
577.27	388.53
577.43	428.32
577.59	313.63
577.75	381.51
577.92	280.86
578.08	337.04
578.24	318.31
578.40	365.12
578.56	575.77
578.72	751.31
578.88	697.48
579.04	592.16
579.21	435.34
579.37	423.64
579.53	381.51
579.69	456.40
579.85	411.93
580.01	517.26
580.17	416.62
580.33	489.17
580.49	379.17
580.65	386.19
580.82	311.29
580.98	362.78
581.14	351.08
581.30	421.30
581.46	372.15
581.62	383.85
581.78	337.04
581.94	444.70
582.10	390.87
582.26	351.08
582.42	390.87
582.58	430.66
582.74	418.96
582.90	411.93
583.06	425.98
583.22	512.58
583.38	430.66
583.54	444.70
583.70	449.38
583.86	451.72
584.02	458.74
584.18	489.17
584.34	493.85
584.50	442.36
584.66	360.44
584.82	416.62
584.98	444.70
585.14	374.49
585.30	416.62
585.46	411.93
585.62	395.55
585.78	433.00
585.94	505.56
586.10	365.12
586.26	421.30
586.42	493.85
586.58	451.72
586.74	470.45
586.90	557.05
587.06	624.92
587.22	648.33
587.38	564.07
587.54	535.98
587.70	486.83
587.86	461.09
588.02	369.80
588.18	411.93
588.34	397.89
588.49	311.29
588.65	404.91
588.81	447.04
588.97	315.97
589.13	346.40
589.29	353.42
589.45	425.98
589.61	360.44
589.77	416.62
589.93	351.08
590.08	313.63
590.24	320.65
590.40	414.27
590.56	367.46
590.72	379.17
590.88	383.85
591.04	365.12
591.20	374.49
591.35	423.64
591.51	402.57
591.67	315.97
591.83	327.68
591.99	428.32
592.15	428.32
592.31	393.21
592.46	372.15
592.62	498.53
592.78	454.06
592.94	465.77
593.10	449.38
593.26	512.58
593.41	458.74
593.57	461.09
593.73	381.51
593.89	400.23
594.05	421.30
594.20	271.50
594.36	278.52
594.52	311.29
594.68	273.84
594.84	306.61
594.99	386.19
595.15	372.15
595.31	327.68
595.47	301.93
595.62	325.33
595.78	383.85
595.94	255.12
596.10	325.33
596.25	353.42
596.41	330.02
596.57	344.06
596.73	311.29
596.88	327.68
597.04	285.55
597.20	362.78
597.36	262.14
597.51	269.16
597.67	344.06
597.83	353.42
597.99	365.12
598.14	416.62
598.30	320.65
598.46	339.38
598.61	376.83
598.77	351.08
598.93	444.70
599.09	386.19
599.24	358.10
599.40	435.34
599.56	330.02
599.71	402.57
599.87	369.80
600.03	313.63
600.18	334.70
600.34	447.04
600.50	341.72
600.65	334.70
600.81	255.12
600.97	313.63
601.12	428.32
601.28	379.17
601.44	280.86
601.59	252.78
601.75	318.31
601.91	334.70
602.06	318.31
602.22	379.17
602.37	374.49
602.53	290.23
602.69	306.61
602.84	294.91
603.00	278.52
603.16	355.76
603.31	365.12
603.47	339.38
603.62	294.91
603.78	273.84
603.94	238.73
604.09	318.31
604.25	330.02
604.40	290.23
604.56	248.10
604.71	346.40
604.87	234.05
605.03	372.15
605.18	346.40
605.34	278.52
605.49	299.59
605.65	287.89
605.80	353.42
605.96	346.40
606.12	273.84
606.27	318.31
606.43	325.33
606.58	379.17
606.74	360.44
606.89	341.72
607.05	318.31
607.20	348.74
607.36	383.85
607.51	358.10
607.67	386.19
607.82	404.91
607.98	351.08
608.13	395.55
608.29	430.66
608.44	416.62
608.60	404.91
608.75	430.66
608.91	500.87
609.06	498.53
609.22	568.75
609.37	545.34
609.53	571.09
609.68	641.31
609.84	723.23
609.99	847.27
610.15	950.26
610.30	1043.88
610.46	1317.72
610.61	1544.75
610.76	1905.20
610.92	2263.30
611.07	2520.76
611.23	2588.63
611.38	2382.67
611.54	2202.44
611.69	1842.00
611.84	1502.62
612.00	1406.66
612.15	1135.16
612.31	1069.62
612.46	976.00
612.62	931.53
612.77	847.27
612.92	835.57
613.08	919.83
613.23	819.19
613.39	805.14
613.54	730.25
613.69	840.25
613.85	678.76
614.00	760.67
614.15	851.96
614.31	660.03
614.46	807.48
614.62	737.27
614.77	711.52
614.92	608.54
615.08	690.46
615.23	638.97
615.38	634.29
615.54	543.00
615.69	505.56
615.84	573.43
616.00	477.47
616.15	442.36
616.30	437.68
616.46	390.87
616.61	355.76
616.76	468.11
616.92	407.25
617.07	397.89
617.22	400.23
617.37	297.25
617.53	425.98
617.68	393.21
617.83	348.74
617.99	339.38
618.14	355.76
618.29	388.53
618.45	393.21
618.60	344.06
618.75	273.84
618.90	299.59
619.06	304.27
619.21	407.25
619.36	297.25
619.51	308.95
619.67	330.02
619.82	334.70
619.97	341.72
620.12	372.15
620.28	348.74
620.43	351.08
620.58	388.53
620.73	376.83
620.89	348.74
621.04	351.08
621.19	339.38
621.34	355.76
621.49	395.55
621.65	407.25
621.80	322.99
621.95	334.70
622.10	353.42
622.25	320.65
622.41	351.08
622.56	376.83
622.71	395.55
622.86	369.80
623.01	404.91
623.16	407.25
623.32	360.44
623.47	416.62
623.62	313.63
623.77	334.70
623.92	290.23
624.07	290.23
624.23	393.21
624.38	299.59
624.53	325.33
624.68	353.42
624.83	411.93
624.98	407.25
625.13	388.53
625.29	280.86
625.44	395.55
625.59	355.76
625.74	447.04
625.89	301.93
626.04	292.57
626.19	360.44
626.34	320.65
626.49	346.40
626.65	271.50
626.80	341.72
626.95	318.31
627.10	313.63
627.25	292.57
627.40	332.36
627.55	304.27
627.70	308.95
627.85	320.65
628.00	299.59
628.15	372.15
628.30	294.91
628.45	259.80
628.60	236.39
628.76	287.89
628.91	346.40
629.06	313.63
629.21	290.23
629.36	362.78
629.51	229.37
629.66	327.68
629.81	320.65
629.96	358.10
630.11	458.74
630.26	430.66
630.41	383.85
630.56	479.81
630.71	486.83
630.86	493.85
631.01	451.72
631.16	461.09
631.31	470.45
631.46	489.17
631.61	402.57
631.76	362.78
631.91	290.23
632.06	365.12
632.21	313.63
632.36	318.31
632.51	227.03
632.66	220.01
632.81	212.99
632.96	257.46
633.10	346.40
633.25	224.69
633.40	175.54
633.55	241.08
633.70	208.31
633.85	208.31
634.00	238.73
634.15	173.20
634.30	205.97
634.45	177.88
634.60	311.29
634.75	243.42
634.90	156.82
635.05	196.60
635.19	250.44
635.34	276.18
635.49	220.01
635.64	248.10
635.79	276.18
635.94	236.39
636.09	325.33
636.24	215.33
636.39	231.71
636.53	184.90
636.68	159.16
636.83	168.52
636.98	255.12
637.13	212.99
637.28	252.78
637.43	285.55
637.57	262.14
637.72	262.14
637.87	248.10
638.02	187.24
638.17	255.12
638.32	173.20
638.46	252.78
638.61	234.05
638.76	191.92
638.91	243.42
639.06	194.26
639.20	229.37
639.35	215.33
639.50	208.31
639.65	315.97
639.80	220.01
639.94	262.14
640.09	344.06
640.24	175.54
640.39	229.37
640.54	285.55
640.68	220.01
640.83	222.35
640.98	255.12
641.13	135.75
641.27	236.39
641.42	215.33
641.57	215.33
641.72	238.73
641.86	262.14
642.01	210.65
642.16	264.48
642.31	250.44
642.45	276.18
642.60	266.82
642.75	173.20
642.90	194.26
643.04	191.92
643.19	198.95
643.34	220.01
643.48	257.46
643.63	184.90
643.78	184.90
643.93	294.91
644.07	173.20
644.22	173.20
644.37	222.35
644.51	234.05
644.66	238.73
644.81	227.03
644.95	203.63
645.10	161.50
645.25	215.33
645.39	241.08
645.54	234.05
645.69	259.80
645.83	222.35
645.98	278.52
646.13	224.69
646.27	168.52
646.42	166.18
646.57	168.52
646.71	234.05
646.86	252.78
647.00	194.26
647.15	234.05
647.30	210.65
647.44	124.05
647.59	173.20
647.74	194.26
647.88	262.14
648.03	210.65
648.17	227.03
648.32	196.60
648.47	259.80
648.61	201.29
648.76	168.52
648.90	205.97
649.05	177.88
649.20	191.92
649.34	297.25
649.49	222.35
649.63	252.78
649.78	273.84
649.92	257.46
650.07	259.80
650.21	250.44
650.36	266.82
650.51	301.93
650.65	273.84
650.80	201.29
650.94	205.97
651.09	161.50
651.23	220.01
651.38	222.35
651.52	180.22
651.67	147.45
651.81	287.89
651.96	234.05
652.10	203.63
652.25	170.86
652.39	191.92
652.54	203.63
652.68	236.39
652.83	245.76
652.97	250.44
653.12	264.48
653.26	227.03
653.41	259.80
653.55	301.93
653.70	210.65
653.84	196.60
653.99	201.29
654.13	95.96
654.27	170.86
654.42	220.01
654.56	170.86
654.71	191.92
654.85	175.54
655.00	236.39
655.14	266.82
655.29	145.11
655.43	212.99
655.57	238.73
655.72	156.82
655.86	234.05
656.01	229.37
656.15	212.99
656.30	259.80
656.44	117.03
656.58	112.35
656.73	128.73
656.87	133.41
657.01	159.16
657.16	217.67
657.30	262.14
657.45	159.16
657.59	131.07
657.73	191.92
657.88	203.63
658.02	271.50
658.16	255.12
658.31	191.92
658.45	234.05
658.60	229.37
658.74	147.45
658.88	175.54
659.03	133.41
659.17	229.37
659.31	182.56
659.46	170.86
659.60	236.39
659.74	177.88
659.89	149.79
660.03	182.56
660.17	255.12
660.32	231.71
660.46	205.97
660.60	210.65
660.74	208.31
660.89	191.92
661.03	168.52
661.17	149.79
661.32	177.88
661.46	189.58
661.60	212.99
661.74	224.69
661.89	285.55
662.03	217.67
662.17	205.97
662.31	203.63
662.46	182.56
662.60	170.86
662.74	236.39
662.88	201.29
663.03	177.88
663.17	191.92
663.31	201.29
663.45	191.92
663.60	224.69
663.74	210.65
663.88	231.71
664.02	170.86
664.17	182.56
664.31	208.31
664.45	159.16
664.59	124.05
664.73	215.33
664.88	168.52
665.02	191.92
665.16	189.58
665.30	245.76
665.44	156.82
665.59	229.37
665.73	201.29
665.87	224.69
666.01	177.88
666.15	203.63
666.29	152.13
666.44	215.33
666.58	257.46
666.72	168.52
666.86	196.60
667.00	224.69
667.14	138.09
667.28	147.45
667.43	215.33
667.57	194.26
667.71	177.88
667.85	194.26
667.99	241.08
668.13	187.24
668.27	196.60
668.41	84.26
668.56	114.69
668.70	203.63
668.84	201.29
668.98	166.18
669.12	124.05
669.26	245.76
669.40	266.82
669.54	180.22
669.68	205.97
669.82	168.52
669.96	227.03
670.10	187.24
670.25	269.16
670.39	238.73
670.53	119.37
670.67	170.86
670.81	215.33
670.95	184.90
671.09	208.31
671.23	184.90
671.37	201.29
671.51	212.99
671.65	182.56
671.79	145.11
671.93	227.03
672.07	257.46
672.21	243.42
672.35	198.95
672.49	72.56
672.63	191.92
672.77	222.35
672.91	135.75
673.05	124.05
673.19	203.63
673.33	119.37
673.47	262.14
673.61	175.54
673.75	201.29
673.89	166.18
674.03	198.95
674.17	180.22
674.31	180.22
674.45	191.92
674.59	191.92
674.73	161.50
674.87	140.43
675.01	170.86
675.15	210.65
675.29	168.52
675.43	220.01
675.56	140.43
675.70	182.56
675.84	133.41
675.98	107.66
676.12	159.16
676.26	112.35
676.40	201.29
676.54	194.26
676.68	224.69
676.82	217.67
676.96	124.05
677.10	177.88
677.23	121.71
677.37	170.86
677.51	196.60
677.65	210.65
677.79	147.45
677.93	166.18
678.07	152.13
678.21	95.96
678.34	191.92
678.48	194.26
678.62	102.98
678.76	250.44
678.90	231.71
679.04	163.84
679.18	154.48
679.31	124.05
679.45	128.73
679.59	173.20
679.73	205.97
679.87	117.03
680.00	128.73
680.14	156.82
680.28	231.71
680.42	138.09
680.56	114.69
680.70	224.69
680.83	161.50
680.97	208.31
681.11	177.88
681.25	156.82
681.39	147.45
681.52	138.09
681.66	170.86
681.80	182.56
681.94	119.37
682.07	128.73
682.21	95.96
682.35	212.99
682.49	170.86
682.62	184.90
682.76	131.07
682.90	145.11
683.04	170.86
683.17	187.24
683.31	210.65
683.45	182.56
683.59	170.86
683.72	152.13
683.86	175.54
684.00	138.09
684.13	252.78
684.27	140.43
684.41	168.52
684.55	88.94
684.68	133.41
684.82	124.05
684.96	170.86
685.09	234.05
685.23	161.50
685.37	84.26
685.50	159.16
685.64	159.16
685.78	107.66
685.91	135.75
686.05	227.03
686.19	259.80
686.32	121.71
686.46	187.24
686.60	138.09
686.73	173.20
686.87	264.48
687.01	126.39
687.14	210.65
687.28	135.75
687.42	145.11
687.55	124.05
687.69	170.86
687.82	175.54
687.96	166.18
688.10	187.24
688.23	149.79
688.37	152.13
688.50	175.54
688.64	58.51
688.78	128.73
688.91	140.43
689.05	60.85
689.18	131.07
689.32	84.26
689.46	117.03
689.59	159.16
689.73	145.11
689.86	105.32
690.00	138.09
690.13	175.54
690.27	16.38
690.41	147.45
690.54	145.11
690.68	98.30
690.81	114.69
690.95	180.22
691.08	142.77
691.22	86.60
691.35	110.01
691.49	88.94
691.62	154.48
691.76	86.60
691.89	147.45
692.03	105.32
692.16	65.54
692.30	194.26
692.43	182.56
692.57	102.98
692.70	152.13
692.84	124.05
692.97	152.13
693.11	81.92
693.24	170.86
693.38	175.54
693.51	135.75
693.65	142.77
693.78	135.75
693.92	39.79
694.05	140.43
694.19	131.07
694.32	114.69
694.45	119.37
694.59	105.32
694.72	203.63
694.86	117.03
694.99	182.56
695.13	84.26
695.26	79.58
695.39	131.07
695.53	152.13
695.66	133.41
695.80	102.98
695.93	154.48
696.07	147.45
696.20	156.82
696.33	191.92
696.47	100.64
696.60	173.20
696.73	161.50
696.87	107.66
697.00	135.75
697.14	117.03
697.27	95.96
697.40	194.26
697.54	135.75
697.67	184.90
697.80	119.37
697.94	163.84
698.07	142.77
698.21	119.37
698.34	138.09
698.47	93.62
698.61	107.66
698.74	145.11
698.87	117.03
699.01	117.03
699.14	105.32
699.27	189.58
699.40	203.63
699.54	126.39
699.67	152.13
699.80	152.13
699.94	133.41
700.07	81.92
700.20	44.47
700.34	135.75
700.47	117.03
700.60	105.32
700.73	114.69
700.87	138.09
701.00	131.07
701.13	74.90
701.26	95.96
701.40	131.07
701.53	138.09
701.66	65.54
701.79	81.92
701.93	152.13
702.06	145.11
702.19	168.52
702.32	152.13
702.46	154.48
702.59	131.07
702.72	147.45
702.85	86.60
702.99	126.39
703.12	220.01
703.25	124.05
703.38	102.98
703.51	140.43
703.65	135.75
703.78	210.65
703.91	161.50
704.04	95.96
704.17	102.98
704.31	156.82
704.44	154.48
704.57	110.01
704.70	135.75
704.83	128.73
704.96	53.83
705.10	140.43
705.23	100.64
>>>>>End Processed Spectral Data<<<<<
