SpectraSuite Data File
++++++++++++++++++++++++++++++++++++
Date: Fri Oct 04 11:41:51 GMT-05:00 2013
User: price-jones
Dark Spectrum Present: No
Reference Spectrum Present: No
Number of Sampled Component Spectra: 1
Spectrometers: USB2+H05261
Integration Time (usec): 100000 (USB2+H05261)
Spectra Averaged: 1 (USB2+H05261)
Boxcar Smoothing: 0 (USB2+H05261)
Correct for Electrical Dark: No (USB2+H05261)
Strobe/Lamp Enabled: No (USB2+H05261)
Correct for Detector Non-linearity: No (USB2+H05261)
Correct for Stray Light: No (USB2+H05261)
Number of Pixels in Processed Spectrum: 2048
>>>>>Begin Processed Spectral Data<<<<<
365.73	110.01
365.92	110.01
366.12	110.01
366.32	0.00
366.52	0.00
366.72	0.00
366.91	0.00
367.11	0.00
367.31	0.00
367.51	0.00
367.70	0.00
367.90	0.00
368.10	0.00
368.30	0.00
368.49	0.00
368.69	0.00
368.89	0.00
369.09	0.00
369.28	0.00
369.48	0.00
369.68	0.00
369.87	0.00
370.07	35.11
370.27	58.51
370.47	21.06
370.66	49.15
370.86	58.51
371.06	44.47
371.25	133.41
371.45	35.11
371.65	98.30
371.84	63.19
372.04	93.62
372.24	117.03
372.44	124.05
372.63	105.32
372.83	173.20
373.03	95.96
373.22	46.81
373.42	156.82
373.62	114.69
373.81	114.69
374.01	208.31
374.21	124.05
374.40	152.13
374.60	145.11
374.79	135.75
374.99	121.71
375.19	163.84
375.38	196.60
375.58	182.56
375.78	105.32
375.97	131.07
376.17	189.58
376.37	138.09
376.56	121.71
376.76	147.45
376.95	205.97
377.15	208.31
377.35	124.05
377.54	60.85
377.74	91.28
377.93	170.86
378.13	133.41
378.33	114.69
378.52	149.79
378.72	191.92
378.91	107.66
379.11	126.39
379.31	140.43
379.50	98.30
379.70	191.92
379.89	163.84
380.09	77.24
380.28	163.84
380.48	142.77
380.68	100.64
380.87	107.66
381.07	184.90
381.26	168.52
381.46	191.92
381.65	112.35
381.85	121.71
382.04	145.11
382.24	140.43
382.43	65.54
382.63	107.66
382.83	74.90
383.02	170.86
383.22	173.20
383.41	117.03
383.61	124.05
383.80	88.94
384.00	88.94
384.19	86.60
384.39	152.13
384.58	152.13
384.78	102.98
384.97	135.75
385.17	170.86
385.36	147.45
385.56	121.71
385.75	79.58
385.95	105.32
386.14	149.79
386.34	133.41
386.53	133.41
386.72	42.13
386.92	173.20
387.11	91.28
387.31	147.45
387.50	95.96
387.70	81.92
387.89	142.77
388.09	86.60
388.28	72.56
388.48	63.19
388.67	194.26
388.86	93.62
389.06	70.22
389.25	100.64
389.45	133.41
389.64	119.37
389.84	180.22
390.03	128.73
390.22	114.69
390.42	170.86
390.61	91.28
390.81	112.35
391.00	107.66
391.19	124.05
391.39	135.75
391.58	161.50
391.78	147.45
391.97	95.96
392.16	16.38
392.36	147.45
392.55	161.50
392.75	140.43
392.94	112.35
393.13	149.79
393.33	128.73
393.52	81.92
393.71	161.50
393.91	117.03
394.10	98.30
394.29	110.01
394.49	154.48
394.68	84.26
394.88	133.41
395.07	142.77
395.26	170.86
395.46	84.26
395.65	180.22
395.84	102.98
396.04	266.82
396.23	175.54
396.42	100.64
396.62	189.58
396.81	107.66
397.00	126.39
397.19	147.45
397.39	67.88
397.58	154.48
397.77	112.35
397.97	163.84
398.16	198.95
398.35	133.41
398.55	128.73
398.74	88.94
398.93	133.41
399.12	63.19
399.32	147.45
399.51	126.39
399.70	198.95
399.90	140.43
400.09	124.05
400.28	198.95
400.47	184.90
400.67	121.71
400.86	159.16
401.05	161.50
401.24	110.01
401.44	159.16
401.63	266.82
401.82	154.48
402.01	205.97
402.21	140.43
402.40	173.20
402.59	215.33
402.78	203.63
402.97	227.03
403.17	325.33
403.36	351.08
403.55	444.70
403.74	641.31
403.93	2270.32
404.13	5661.76
404.32	9025.11
404.51	8730.20
404.70	5673.46
404.89	2094.78
405.09	582.79
405.28	337.04
405.47	271.50
405.66	231.71
405.85	241.08
406.05	128.73
406.24	175.54
406.43	255.12
406.62	238.73
406.81	189.58
407.00	411.93
407.20	681.10
407.39	1135.16
407.58	1371.55
407.77	997.07
407.96	540.66
408.15	330.02
408.34	231.71
408.54	287.89
408.73	147.45
408.92	173.20
409.11	191.92
409.30	250.44
409.49	248.10
409.68	124.05
409.87	145.11
410.07	138.09
410.26	299.59
410.45	203.63
410.64	180.22
410.83	138.09
411.02	248.10
411.21	241.08
411.40	292.57
411.59	196.60
411.78	182.56
411.98	245.76
412.17	250.44
412.36	234.05
412.55	205.97
412.74	255.12
412.93	301.93
413.12	236.39
413.31	304.27
413.50	252.78
413.69	276.18
413.88	262.14
414.07	212.99
414.26	264.48
414.45	224.69
414.64	280.86
414.83	292.57
415.02	348.74
415.22	301.93
415.41	252.78
415.60	241.08
415.79	318.31
415.98	306.61
416.17	234.05
416.36	280.86
416.55	184.90
416.74	330.02
416.93	287.89
417.12	308.95
417.31	325.33
417.50	292.57
417.69	339.38
417.88	278.52
418.07	327.68
418.26	341.72
418.45	243.42
418.64	332.36
418.83	327.68
419.02	276.18
419.21	276.18
419.39	351.08
419.58	292.57
419.77	318.31
419.96	266.82
420.15	315.97
420.34	325.33
420.53	262.14
420.72	325.33
420.91	290.23
421.10	341.72
421.29	351.08
421.48	301.93
421.67	269.16
421.86	416.62
422.05	287.89
422.24	259.80
422.43	320.65
422.61	341.72
422.80	297.25
422.99	299.59
423.18	353.42
423.37	353.42
423.56	388.53
423.75	355.76
423.94	304.27
424.13	308.95
424.32	381.51
424.50	369.80
424.69	358.10
424.88	381.51
425.07	327.68
425.26	428.32
425.45	376.83
425.64	306.61
425.83	346.40
426.01	383.85
426.20	418.96
426.39	337.04
426.58	344.06
426.77	285.55
426.96	386.19
427.15	346.40
427.33	381.51
427.52	369.80
427.71	367.46
427.90	369.80
428.09	341.72
428.28	447.04
428.46	390.87
428.65	475.13
428.84	498.53
429.03	463.43
429.22	397.89
429.40	407.25
429.59	465.77
429.78	461.09
429.97	393.21
430.16	414.27
430.34	442.36
430.53	437.68
430.72	390.87
430.91	461.09
431.10	484.49
431.28	545.34
431.47	477.47
431.66	491.51
431.85	358.10
432.03	428.32
432.22	489.17
432.41	491.51
432.60	507.90
432.79	580.45
432.97	528.96
433.16	533.64
433.35	620.24
433.54	751.31
433.72	725.57
433.91	866.00
434.10	861.32
434.28	990.05
434.47	1238.14
434.66	1303.68
434.85	1565.82
435.03	3606.77
435.22	13626.60
435.41	35990.42
435.59	45918.97
435.78	31428.71
435.97	14654.09
436.16	5345.78
436.34	1813.92
436.53	1062.60
436.72	912.81
436.90	711.52
437.09	697.48
437.28	655.35
437.46	641.31
437.65	622.58
437.84	575.77
438.02	641.31
438.21	608.54
438.40	538.32
438.58	538.32
438.77	552.37
438.96	617.90
439.14	535.98
439.33	526.62
439.52	493.85
439.70	505.56
439.89	568.75
440.08	528.96
440.26	592.16
440.45	578.11
440.63	550.03
440.82	552.37
441.01	517.26
441.19	496.19
441.38	599.18
441.57	503.22
441.75	688.12
441.94	601.52
442.12	545.34
442.31	561.73
442.50	528.96
442.68	449.38
442.87	545.34
443.05	545.34
443.24	514.92
443.43	648.33
443.61	545.34
443.80	547.69
443.98	564.07
444.17	477.47
444.35	615.56
444.54	564.07
444.73	475.13
444.91	503.22
445.10	571.09
445.28	500.87
445.47	463.43
445.65	512.58
445.84	568.75
446.02	503.22
446.21	451.72
446.39	528.96
446.58	540.66
446.77	510.24
446.95	580.45
447.14	582.79
447.32	624.92
447.51	575.77
447.69	580.45
447.88	543.00
448.06	543.00
448.25	547.69
448.43	505.56
448.62	575.77
448.80	528.96
448.99	557.05
449.17	540.66
449.36	517.26
449.54	507.90
449.73	582.79
449.91	674.07
450.10	512.58
450.28	610.88
450.46	528.96
450.65	566.41
450.83	498.53
451.02	517.26
451.20	624.92
451.39	643.65
451.57	491.51
451.76	543.00
451.94	517.26
452.13	575.77
452.31	580.45
452.49	519.60
452.68	484.49
452.86	547.69
453.05	606.20
453.23	575.77
453.42	538.32
453.60	535.98
453.78	547.69
453.97	475.13
454.15	503.22
454.34	491.51
454.52	500.87
454.70	484.49
454.89	531.30
455.07	428.32
455.26	571.09
455.44	496.19
455.62	587.47
455.81	454.06
455.99	573.43
456.17	547.69
456.36	564.07
456.54	517.26
456.73	470.45
456.91	624.92
457.09	503.22
457.28	568.75
457.46	512.58
457.64	510.24
457.83	507.90
458.01	512.58
458.19	512.58
458.38	491.51
458.56	505.56
458.74	505.56
458.93	538.32
459.11	517.26
459.29	430.66
459.48	519.60
459.66	533.64
459.84	547.69
460.03	559.39
460.21	519.60
460.39	472.79
460.57	535.98
460.76	498.53
460.94	533.64
461.12	514.92
461.31	535.98
461.49	512.58
461.67	449.38
461.85	545.34
462.04	540.66
462.22	1027.50
462.40	554.71
462.59	526.62
462.77	514.92
462.95	554.71
463.13	489.17
463.32	554.71
463.50	519.60
463.68	517.26
463.86	493.85
464.05	517.26
464.23	582.79
464.41	538.32
464.59	578.11
464.78	493.85
464.96	505.56
465.14	496.19
465.32	550.03
465.50	477.47
465.69	528.96
465.87	489.17
466.05	496.19
466.23	475.13
466.41	472.79
466.60	550.03
466.78	629.60
466.96	653.01
467.14	524.28
467.32	564.07
467.51	566.41
467.69	585.13
467.87	613.22
468.05	535.98
468.23	592.16
468.41	451.72
468.60	409.59
468.78	458.74
468.96	552.37
469.14	482.15
469.32	395.55
469.50	470.45
469.69	528.96
469.87	545.34
470.05	484.49
470.23	498.53
470.41	449.38
470.59	437.68
470.77	561.73
470.95	533.64
471.14	545.34
471.32	505.56
471.50	491.51
471.68	517.26
471.86	592.16
472.04	528.96
472.22	486.83
472.40	411.93
472.58	484.49
472.77	503.22
472.95	458.74
473.13	552.37
473.31	519.60
473.49	475.13
473.67	538.32
473.85	470.45
474.03	503.22
474.21	552.37
474.39	580.45
474.57	507.90
474.75	489.17
474.93	447.04
475.12	491.51
475.30	493.85
475.48	507.90
475.66	510.24
475.84	482.15
476.02	519.60
476.20	461.09
476.38	510.24
476.56	512.58
476.74	503.22
476.92	566.41
477.10	550.03
477.28	559.39
477.46	423.64
477.64	498.53
477.82	500.87
478.00	531.30
478.18	613.22
478.36	564.07
478.54	507.90
478.72	608.54
478.90	533.64
479.08	683.44
479.26	655.35
479.44	653.01
479.62	671.73
479.80	638.97
479.98	657.69
480.16	772.38
480.34	732.59
480.52	755.99
480.70	858.98
480.88	856.64
481.06	826.21
481.24	898.77
481.41	1001.75
481.59	971.32
481.77	1046.22
481.95	1240.48
482.13	1287.29
482.31	1217.08
482.49	1399.64
482.67	1486.24
482.85	1556.46
483.03	1617.31
483.21	1715.61
483.39	1823.28
483.57	1956.69
483.74	2162.66
483.92	2190.74
484.10	2197.76
484.28	2492.67
484.46	2787.58
484.64	2717.36
484.82	2911.63
485.00	3091.85
485.18	3150.36
485.35	3342.28
485.53	3681.66
485.71	3829.12
485.89	3845.50
486.07	3894.65
486.25	4002.32
486.43	4035.08
486.61	4039.76
486.78	3992.95
486.96	4046.79
487.14	4037.42
487.32	4128.70
487.50	3988.27
487.68	3985.93
487.85	3948.48
488.03	3974.23
488.21	3840.82
488.39	3630.17
488.57	3765.92
488.75	3513.14
488.92	3749.54
489.10	3435.91
489.28	3332.92
489.46	3356.33
489.64	3213.56
489.81	3115.25
489.99	3197.17
490.17	3110.57
490.35	3185.47
490.53	3042.70
490.70	3145.68
490.88	3054.40
491.06	3171.43
491.24	3349.31
491.41	3435.91
491.59	3382.07
491.77	3096.53
491.95	2855.45
492.13	2841.41
492.30	2883.54
492.48	2590.97
492.66	2717.36
492.84	2689.28
493.01	2583.95
493.19	2602.68
493.37	2560.55
493.54	2410.75
493.72	2413.09
493.90	2340.54
494.08	2335.85
494.25	2335.85
494.43	2354.58
494.61	2387.35
494.79	2251.60
494.96	2293.72
495.14	2244.57
495.32	2153.29
495.49	2094.78
495.67	2104.14
495.85	2108.82
496.02	2010.52
496.20	1954.35
496.38	1933.28
496.55	1905.20
496.73	1959.03
496.91	1919.24
497.09	1827.96
497.26	1757.74
497.44	1736.68
497.62	1708.59
497.79	1717.95
497.97	1703.91
498.14	1633.69
498.32	1640.72
498.50	1591.56
498.67	1474.54
498.85	1458.15
499.03	1359.85
499.20	1404.32
499.38	1409.00
499.56	1383.26
499.73	1460.49
499.91	1331.76
500.08	1308.36
500.26	1322.40
500.44	1158.57
500.61	1121.12
500.79	1090.69
500.97	1137.50
501.14	1179.63
501.32	1036.86
501.49	983.02
501.67	880.04
501.84	959.62
502.02	908.13
502.20	964.30
502.37	1039.20
502.55	882.38
502.72	842.59
502.90	898.77
503.07	915.15
503.25	795.78
503.43	692.80
503.60	763.01
503.78	821.53
503.95	772.38
504.13	765.36
504.30	662.37
504.48	779.40
504.65	739.61
504.83	786.42
505.01	669.39
505.18	676.41
505.36	716.20
505.53	578.11
505.71	589.82
505.88	624.92
506.06	624.92
506.23	627.26
506.41	491.51
506.58	587.47
506.76	587.47
506.93	547.69
507.11	608.54
507.28	514.92
507.46	624.92
507.63	521.94
507.81	564.07
507.98	484.49
508.16	521.94
508.33	552.37
508.50	580.45
508.68	622.58
508.85	519.60
509.03	641.31
509.20	624.92
509.38	608.54
509.55	575.77
509.73	557.05
509.90	573.43
510.08	498.53
510.25	585.13
510.42	578.11
510.60	479.81
510.77	528.96
510.95	528.96
511.12	491.51
511.30	540.66
511.47	465.77
511.64	557.05
511.82	463.43
511.99	477.47
512.17	500.87
512.34	470.45
512.51	592.16
512.69	526.62
512.86	545.34
513.04	498.53
513.21	566.41
513.38	519.60
513.56	491.51
513.73	437.68
513.90	463.43
514.08	430.66
514.25	430.66
514.43	449.38
514.60	430.66
514.77	440.02
514.95	449.38
515.12	381.51
515.29	360.44
515.47	458.74
515.64	397.89
515.81	369.80
515.99	498.53
516.16	524.28
516.33	423.64
516.51	491.51
516.68	386.19
516.85	451.72
517.03	402.57
517.20	465.77
517.37	482.15
517.54	468.11
517.72	381.51
517.89	393.21
518.06	318.31
518.24	465.77
518.41	411.93
518.58	418.96
518.75	456.40
518.93	475.13
519.10	409.59
519.27	393.21
519.45	365.12
519.62	425.98
519.79	454.06
519.96	358.10
520.14	428.32
520.31	482.15
520.48	379.17
520.65	409.59
520.83	379.17
521.00	367.46
521.17	414.27
521.34	397.89
521.52	404.91
521.69	418.96
521.86	390.87
522.03	433.00
522.20	468.11
522.38	379.17
522.55	362.78
522.72	367.46
522.89	386.19
523.07	416.62
523.24	454.06
523.41	416.62
523.58	437.68
523.75	388.53
523.92	369.80
524.10	425.98
524.27	400.23
524.44	367.46
524.61	421.30
524.78	433.00
524.96	477.47
525.13	386.19
525.30	470.45
525.47	491.51
525.64	404.91
525.81	440.02
525.98	484.49
526.16	521.94
526.33	435.34
526.50	451.72
526.67	521.94
526.84	454.06
527.01	531.30
527.18	514.92
527.36	559.39
527.53	601.52
527.70	601.52
527.87	512.58
528.04	472.79
528.21	397.89
528.38	543.00
528.55	540.66
528.72	603.86
528.89	608.54
529.07	531.30
529.24	498.53
529.41	500.87
529.58	540.66
529.75	573.43
529.92	599.18
530.09	500.87
530.26	645.99
530.43	585.13
530.60	589.82
530.77	538.32
530.94	706.84
531.11	638.97
531.28	650.67
531.46	720.88
531.63	681.10
531.80	744.29
531.97	821.53
532.14	926.85
532.31	1050.90
532.48	1287.29
532.65	1500.28
532.82	1809.23
532.99	1930.94
533.16	2359.26
533.33	2448.20
533.50	2258.62
533.67	1975.41
533.84	1710.93
534.01	1586.88
534.18	1345.81
534.35	1357.51
534.52	1401.98
534.69	1451.13
534.86	1371.55
535.03	1521.35
535.20	1425.39
535.37	1607.95
535.54	1746.04
535.71	1944.99
535.88	1998.82
536.05	2122.87
536.22	2239.89
536.38	2448.20
536.55	2696.30
536.72	2960.78
536.89	3297.81
537.06	3562.30
537.23	4046.79
537.40	4458.72
537.57	4725.54
537.74	5029.81
537.91	5167.90
538.08	5397.28
538.25	5270.89
538.42	5605.58
538.59	5640.69
538.75	5748.36
538.92	6132.20
539.09	6635.42
539.26	7557.59
539.43	8573.38
539.60	9310.65
539.77	10766.46
539.94	12056.10
540.11	13518.93
540.28	14581.54
540.44	16259.70
540.61	17680.41
540.78	20311.17
540.95	24058.37
541.12	29624.16
541.29	33539.88
541.46	35559.76
541.62	34806.11
541.79	34043.09
541.96	31611.28
542.13	29214.57
542.30	27063.61
542.47	25626.53
542.63	24009.22
542.80	22930.23
542.97	22614.26
543.14	22864.69
543.31	22382.54
543.48	22579.15
543.64	23218.11
543.81	23332.80
543.98	23396.00
544.15	23660.48
544.32	23936.66
544.48	23667.50
544.65	23073.00
544.82	23070.66
544.99	23157.26
545.16	23868.78
545.32	24175.39
545.49	36643.43
545.66	58438.50
545.83	65535.00
546.00	65535.00
546.16	54117.87
546.33	41453.23
546.50	31101.04
546.67	24261.99
546.83	21275.47
547.00	20594.37
547.17	19400.70
547.34	18810.89
547.50	17951.91
547.67	17439.33
547.84	16404.81
548.00	15934.37
548.17	15337.53
548.34	14785.16
548.51	14022.15
548.67	13474.46
548.84	12882.31
549.01	12421.22
549.18	11772.89
549.34	11091.80
549.51	10644.76
549.68	10518.37
549.84	9884.08
550.01	9551.73
550.18	9064.89
550.34	8547.64
550.51	8194.22
550.68	7936.76
550.84	7433.54
551.01	7014.59
551.18	6717.34
551.34	6347.53
551.51	6015.18
551.68	5757.72
551.84	5647.71
552.01	5507.28
552.18	5226.42
552.34	5018.11
552.51	4662.35
552.68	4432.97
552.84	4437.66
553.01	4170.83
553.18	4121.68
553.34	3941.46
553.51	3901.67
553.67	3740.18
553.84	3545.91
554.01	3300.16
554.17	3241.64
554.34	2958.44
554.51	2764.17
554.67	2581.61
554.84	2455.22
555.00	2361.60
555.17	2321.81
555.33	2087.76
555.50	2010.52
555.67	1973.07
555.83	1902.86
556.00	1790.51
556.16	1809.23
556.33	1650.08
556.50	1710.93
556.66	1591.56
556.83	1556.46
556.99	1439.43
557.16	1373.89
557.32	1310.70
557.49	1320.06
557.65	1331.76
557.82	1277.93
557.98	1275.59
558.15	1224.10
558.32	1128.14
558.48	1153.88
558.65	1128.14
558.81	1142.18
558.98	1078.99
559.14	1071.97
559.31	1069.62
559.47	1022.81
559.64	1029.84
559.80	931.53
559.97	983.02
560.13	1004.09
560.30	947.92
560.46	926.85
560.63	990.05
560.79	987.71
560.96	971.32
561.12	884.72
561.29	910.47
561.45	903.45
561.61	938.55
561.78	1062.60
561.94	983.02
562.11	849.61
562.27	997.07
562.44	917.49
562.60	877.70
562.77	894.08
562.93	919.83
563.10	896.43
563.26	889.40
563.42	835.57
563.59	833.23
563.75	779.40
563.92	830.89
564.08	873.02
564.24	770.04
564.41	732.59
564.57	809.83
564.74	837.91
564.90	763.01
565.07	755.99
565.23	702.16
565.39	751.31
565.56	774.72
565.72	662.37
565.88	692.80
566.05	662.37
566.21	685.78
566.38	704.50
566.54	755.99
566.70	746.63
566.87	671.73
567.03	739.61
567.19	760.67
567.36	739.61
567.52	725.57
567.68	692.80
567.85	746.63
568.01	805.14
568.17	725.57
568.34	791.10
568.50	833.23
568.66	800.46
568.83	861.32
568.99	730.25
569.15	704.50
569.32	641.31
569.48	629.60
569.64	641.31
569.81	620.24
569.97	575.77
570.13	587.47
570.30	578.11
570.46	496.19
570.62	596.84
570.78	531.30
570.95	521.94
571.11	587.47
571.27	550.03
571.43	535.98
571.60	465.77
571.76	489.17
571.92	585.13
572.09	500.87
572.25	627.26
572.41	500.87
572.57	575.77
572.74	596.84
572.90	535.98
573.06	531.30
573.22	603.86
573.38	545.34
573.55	657.69
573.71	617.90
573.87	538.32
574.03	599.18
574.20	538.32
574.36	683.44
574.52	702.16
574.68	641.31
574.84	690.46
575.01	737.27
575.17	847.27
575.33	823.87
575.49	964.30
575.65	983.02
575.82	997.07
575.98	1160.91
576.14	1277.93
576.30	2249.25
576.46	6972.46
576.62	14090.02
576.79	18911.53
576.95	13174.88
577.11	7943.78
577.27	5575.16
577.43	3609.11
577.59	2331.17
577.75	1760.08
577.92	1664.12
578.08	1741.36
578.24	1703.91
578.40	2562.89
578.56	6612.01
578.72	12940.82
578.88	16669.30
579.04	12079.50
579.21	7658.23
579.37	5664.10
579.53	4297.22
579.69	4023.38
579.85	4823.84
580.01	5895.81
580.17	6036.24
580.33	5156.20
580.49	4360.42
580.65	3878.27
580.82	3447.61
580.98	3485.06
581.14	3307.18
581.30	3599.74
581.46	3976.57
581.62	4149.77
581.78	4348.72
581.94	4854.27
582.10	5064.92
582.26	5303.65
582.42	5497.92
582.58	5682.82
582.74	5891.13
582.90	5895.81
583.06	5827.93
583.22	5743.67
583.38	5949.64
583.54	5776.44
583.70	5888.79
583.86	5717.93
584.02	5645.37
584.18	5575.16
584.34	5511.96
584.50	5628.99
584.66	5390.25
584.82	5179.61
584.98	5181.95
585.14	5022.79
585.30	5027.47
585.46	4849.59
585.62	4856.61
585.78	4765.33
585.94	4910.44
586.10	5036.83
586.26	5268.55
586.42	5806.87
586.58	7075.44
586.74	8685.73
586.90	10298.36
587.06	11723.74
587.22	11688.64
587.38	10595.61
587.54	8975.95
587.70	7620.78
587.86	6520.73
588.02	5479.19
588.18	4772.35
588.34	4320.63
588.49	4044.45
588.65	3709.75
588.81	3604.42
588.97	3339.94
589.13	3211.22
589.29	3246.32
589.45	3166.74
589.61	3119.93
589.77	3267.39
589.93	3311.86
590.08	3328.24
590.24	3487.40
590.40	3630.17
590.56	3686.34
590.72	3691.02
590.88	3784.65
591.04	3981.25
591.20	4058.49
591.35	4227.01
591.51	4379.14
591.67	4699.80
591.83	4940.87
591.99	5329.40
592.15	5820.91
592.31	6380.30
592.46	6780.53
592.62	7578.65
592.78	7967.18
592.94	8416.57
593.10	8329.97
593.26	7793.98
593.41	7246.30
593.57	6691.59
593.73	5888.79
593.89	5256.84
594.05	4608.51
594.20	4112.32
594.36	3714.43
594.52	3419.52
594.68	3293.13
594.84	3066.10
594.99	3218.24
595.15	3075.46
595.31	3133.98
595.47	2977.16
595.62	2988.86
595.78	2864.82
595.94	2911.63
596.10	2939.71
596.25	2960.78
596.41	2857.79
596.57	2864.82
596.73	2881.20
596.88	2827.37
597.04	2778.22
597.20	2787.58
597.36	2946.73
597.51	3190.15
597.67	3173.77
597.83	3276.75
597.99	3529.53
598.14	3672.30
598.30	4004.66
598.46	4107.64
598.61	4423.61
598.77	4465.74
598.93	4772.35
599.09	4842.57
599.24	5001.72
599.40	4908.10
599.56	4713.84
599.71	4746.61
599.87	4533.62
600.03	4215.30
600.18	3899.33
600.34	3604.42
600.50	3522.51
600.65	3133.98
600.81	3063.76
600.97	2895.24
601.12	2668.21
601.28	2506.71
601.44	2466.92
601.59	2272.66
601.75	2246.91
601.91	2289.04
602.06	2146.27
602.22	2059.67
602.37	1998.82
602.53	1783.49
602.69	1928.60
602.84	1975.41
603.00	1799.87
603.16	1982.43
603.31	1937.96
603.47	2047.97
603.62	2120.53
603.78	2193.08
603.94	2052.65
604.09	2118.18
604.25	2342.88
604.40	2228.19
604.56	2172.02
604.71	2286.70
604.87	2228.19
605.03	2256.28
605.18	2342.88
605.34	2516.08
605.49	2511.39
605.65	2520.76
605.80	2541.82
605.96	2651.83
606.12	2855.45
606.27	2918.65
606.43	2928.01
606.58	3157.38
606.74	3253.34
606.89	3428.88
607.05	3592.72
607.20	3857.20
607.36	4025.72
607.51	4320.63
607.67	4575.75
607.82	4767.67
607.98	5036.83
608.13	5537.71
608.29	5933.26
608.44	6502.01
608.60	7030.97
608.75	7742.49
608.91	8332.31
609.06	9263.84
609.22	10384.96
609.37	11180.74
609.53	12620.17
609.68	14560.47
609.84	16463.33
609.99	19452.19
610.15	22862.35
610.30	28002.17
610.46	35395.92
610.61	44683.17
610.76	54204.47
610.92	59889.63
611.07	63164.04
611.23	64479.42
611.38	63522.14
611.54	60484.12
611.69	56486.49
611.84	50801.33
612.00	43044.79
612.15	36474.91
612.31	31618.30
612.46	28077.07
612.62	26001.01
612.77	24151.99
612.92	23534.09
613.08	21766.98
613.23	20968.86
613.39	19962.43
613.54	19150.26
613.69	19187.71
613.85	18792.16
614.00	18670.45
614.15	18293.63
614.31	18176.60
614.46	17722.54
614.62	17060.16
614.77	16292.47
614.92	15260.29
615.08	13984.70
615.23	12968.91
615.38	12098.23
615.54	10977.11
615.69	9996.43
615.84	9114.05
616.00	8479.76
616.15	8161.45
616.30	7515.46
616.46	6860.11
616.61	6532.44
616.76	6232.85
616.92	5970.71
617.07	5607.92
617.22	5095.35
617.37	4994.70
617.53	4767.67
617.68	4650.64
617.83	4348.72
617.99	4231.69
618.14	4187.22
618.29	3983.59
618.45	3962.53
618.60	3831.46
618.75	3705.07
618.90	3721.45
619.06	3658.26
619.21	3655.92
619.36	3744.86
619.51	3653.58
619.67	3609.11
619.82	3632.51
619.97	3983.59
620.12	3880.61
620.28	3939.12
620.43	3955.51
620.58	4021.04
620.73	4039.76
620.89	4002.32
621.04	4058.49
621.19	3985.93
621.34	4039.76
621.49	4002.32
621.65	3899.33
621.80	3925.08
621.95	3836.14
622.10	4065.51
622.25	3960.19
622.41	3861.88
622.56	4023.38
622.71	4313.61
622.86	4496.17
623.01	4498.51
623.16	4573.41
623.32	4428.29
623.47	4470.42
623.62	4440.00
623.77	4400.21
623.92	4440.00
624.07	4404.89
624.23	4444.68
624.38	4290.20
624.53	4318.29
624.68	4475.10
624.83	4461.06
624.98	4428.29
625.13	4533.62
625.29	4535.96
625.44	4540.64
625.59	4547.66
625.74	4561.70
625.89	4395.53
626.04	4582.77
626.19	4491.49
626.34	4456.38
626.49	4470.42
626.65	4456.38
626.80	4266.80
626.95	4404.89
627.10	4369.78
627.25	4250.41
627.40	4182.54
627.55	3925.08
627.70	3946.14
627.85	3946.14
628.00	4028.06
628.15	3911.04
628.30	3861.88
628.45	4105.30
628.60	3978.91
628.76	3992.95
628.91	4037.42
629.06	4079.55
629.21	4067.85
629.36	4201.26
629.51	4224.67
629.66	4580.43
629.81	4851.93
629.96	5177.26
630.11	5816.23
630.26	6523.07
630.41	7133.95
630.56	7995.27
630.71	8332.31
630.86	8882.33
631.01	8840.20
631.16	8280.82
631.31	7194.81
631.46	6195.40
631.61	5287.27
631.76	4264.46
631.91	3775.28
632.06	3112.91
632.21	2682.25
632.36	2394.37
632.51	2134.57
632.66	1961.37
632.81	1802.21
632.96	1713.27
633.10	1671.14
633.25	1542.41
633.40	1465.18
633.55	1364.53
633.70	1348.15
633.85	1350.49
634.00	1306.02
634.15	1287.29
634.30	1254.53
634.45	1256.87
634.60	1125.80
634.75	1137.50
634.90	1114.10
635.05	1174.95
635.19	1137.50
635.34	1088.35
635.49	1027.50
635.64	1071.97
635.79	1076.65
635.94	1018.13
636.09	1025.15
636.24	1006.43
636.39	933.87
636.53	985.37
636.68	887.06
636.83	940.90
636.98	901.11
637.13	873.02
637.28	905.79
637.43	896.43
637.57	856.64
637.72	840.25
637.87	854.30
638.02	821.53
638.17	802.80
638.32	802.80
638.46	746.63
638.61	763.01
638.76	755.99
638.91	763.01
639.06	725.57
639.20	746.63
639.35	774.72
639.50	814.51
639.65	786.42
639.80	798.12
639.94	800.46
640.09	854.30
640.24	678.76
640.39	678.76
640.54	777.06
640.68	676.41
640.83	798.12
640.98	812.17
641.13	741.95
641.27	713.86
641.42	648.33
641.57	814.51
641.72	690.46
641.86	779.40
642.01	704.50
642.16	828.55
642.31	723.23
642.45	741.95
642.60	880.04
642.75	765.36
642.90	791.10
643.04	755.99
643.19	702.16
643.34	685.78
643.48	706.84
643.63	744.29
643.78	791.10
643.93	770.04
644.07	814.51
644.22	713.86
644.37	741.95
644.51	786.42
644.66	727.91
644.81	727.91
644.95	746.63
645.10	709.18
645.25	800.46
645.39	723.23
645.54	613.22
645.69	826.21
645.83	669.39
645.98	741.95
646.13	645.99
646.27	737.27
646.42	617.90
646.57	723.23
646.71	603.86
646.86	664.71
647.00	660.03
647.15	629.60
647.30	660.03
647.44	723.23
647.59	678.76
647.74	723.23
647.88	772.38
648.03	718.54
648.17	741.95
648.32	671.73
648.47	788.76
648.61	777.06
648.76	655.35
648.90	786.42
649.05	755.99
649.20	830.89
649.34	847.27
649.49	1004.09
649.63	1181.97
649.78	1392.62
649.92	1706.25
650.07	1973.07
650.21	2277.34
650.36	2476.29
650.51	2324.15
650.65	2258.62
650.80	1975.41
650.94	1746.04
651.09	1673.48
651.23	1467.52
651.38	1331.76
651.52	1287.29
651.67	1167.93
651.81	1027.50
651.96	1071.97
652.10	947.92
652.25	917.49
652.39	1022.81
652.54	954.94
652.68	1067.28
652.83	1100.05
652.97	1245.16
653.12	1219.42
653.26	1163.25
653.41	1181.97
653.55	961.96
653.70	992.39
653.84	966.64
653.99	919.83
654.13	784.08
654.27	760.67
654.42	723.23
654.56	739.61
654.71	805.14
654.85	737.27
655.00	692.80
655.14	655.35
655.29	648.33
655.43	692.80
655.57	608.54
655.72	634.29
655.86	641.31
656.01	655.35
656.15	631.94
656.30	723.23
656.44	690.46
656.58	645.99
656.73	706.84
656.87	636.63
657.01	664.71
657.16	755.99
657.30	704.50
657.45	802.80
657.59	802.80
657.73	779.40
657.88	877.70
658.02	858.98
658.16	791.10
658.31	770.04
658.45	723.23
658.60	671.73
658.74	552.37
658.88	638.97
659.03	592.16
659.17	526.62
659.31	512.58
659.46	517.26
659.60	496.19
659.74	510.24
659.89	526.62
660.03	500.87
660.17	479.81
660.32	456.40
660.46	552.37
660.60	507.90
660.74	517.26
660.89	557.05
661.03	561.73
661.17	531.30
661.32	692.80
661.46	702.16
661.60	805.14
661.74	866.00
661.89	1114.10
662.03	1282.61
662.17	1364.53
662.31	1413.68
662.46	1511.99
662.60	1348.15
662.74	1212.40
662.88	1149.20
663.03	936.21
663.17	873.02
663.31	807.48
663.45	746.63
663.60	784.08
663.74	732.59
663.88	641.31
664.02	620.24
664.17	610.88
664.31	603.86
664.45	594.50
664.59	538.32
664.73	566.41
664.88	596.84
665.02	456.40
665.16	585.13
665.30	564.07
665.44	543.00
665.59	491.51
665.73	503.22
665.87	484.49
666.01	447.04
666.15	383.85
666.29	482.15
666.44	486.83
666.58	528.96
666.72	519.60
666.86	437.68
667.00	517.26
667.14	493.85
667.28	528.96
667.43	472.79
667.57	440.02
667.71	470.45
667.85	503.22
667.99	496.19
668.13	484.49
668.27	454.06
668.41	500.87
668.56	440.02
668.70	454.06
668.84	346.40
668.98	447.04
669.12	351.08
669.26	437.68
669.40	540.66
669.54	470.45
669.68	468.11
669.82	442.36
669.96	437.68
670.10	411.93
670.25	411.93
670.39	416.62
670.53	470.45
670.67	423.64
670.81	367.46
670.95	514.92
671.09	374.49
671.23	416.62
671.37	526.62
671.51	414.27
671.65	447.04
671.79	381.51
671.93	435.34
672.07	528.96
672.21	418.96
672.35	365.12
672.49	411.93
672.63	362.78
672.77	355.76
672.91	386.19
673.05	341.72
673.19	404.91
673.33	400.23
673.47	400.23
673.61	461.09
673.75	330.02
673.89	360.44
674.03	374.49
674.17	400.23
674.31	353.42
674.45	362.78
674.59	306.61
674.73	320.65
674.87	325.33
675.01	367.46
675.15	341.72
675.29	369.80
675.43	348.74
675.56	421.30
675.70	374.49
675.84	322.99
675.98	414.27
676.12	327.68
676.26	334.70
676.40	297.25
676.54	341.72
676.68	369.80
676.82	381.51
676.96	325.33
677.10	379.17
677.23	435.34
677.37	238.73
677.51	346.40
677.65	351.08
677.79	344.06
677.93	332.36
678.07	308.95
678.21	285.55
678.34	313.63
678.48	348.74
678.62	348.74
678.76	332.36
678.90	332.36
679.04	390.87
679.18	351.08
679.31	299.59
679.45	344.06
679.59	322.99
679.73	372.15
679.87	411.93
680.00	395.55
680.14	468.11
680.28	381.51
680.42	421.30
680.56	395.55
680.70	332.36
680.83	388.53
680.97	292.57
681.11	388.53
681.25	564.07
681.39	447.04
681.52	428.32
681.66	376.83
681.80	395.55
681.94	472.79
682.07	404.91
682.21	346.40
682.35	320.65
682.49	308.95
682.62	362.78
682.76	346.40
682.90	367.46
683.04	381.51
683.17	407.25
683.31	313.63
683.45	325.33
683.59	397.89
683.72	318.31
683.86	372.15
684.00	255.12
684.13	372.15
684.27	383.85
684.41	301.93
684.55	341.72
684.68	304.27
684.82	332.36
684.96	327.68
685.09	355.76
685.23	320.65
685.37	348.74
685.50	360.44
685.64	334.70
685.78	440.02
685.91	388.53
686.05	407.25
686.19	416.62
686.32	449.38
686.46	493.85
686.60	538.32
686.73	559.39
686.87	594.50
687.01	662.37
687.14	695.14
687.28	676.41
687.42	692.80
687.55	779.40
687.69	915.15
687.82	875.36
687.96	725.57
688.10	823.87
688.23	741.95
688.37	734.93
688.50	645.99
688.64	645.99
688.78	550.03
688.91	601.52
689.05	444.70
689.18	454.06
689.32	421.30
689.46	409.59
689.59	393.21
689.73	325.33
689.86	346.40
690.00	299.59
690.13	313.63
690.27	280.86
690.41	325.33
690.54	393.21
690.68	404.91
690.81	395.55
690.95	367.46
691.08	339.38
691.22	311.29
691.35	266.82
691.49	145.11
691.62	229.37
691.76	203.63
691.89	327.68
692.03	276.18
692.16	168.52
692.30	259.80
692.43	266.82
692.57	227.03
692.70	257.46
692.84	290.23
692.97	243.42
693.11	416.62
693.24	482.15
693.38	528.96
693.51	601.52
693.65	692.80
693.78	692.80
693.92	734.93
694.05	594.50
694.19	547.69
694.32	500.87
694.45	416.62
694.59	327.68
694.72	262.14
694.86	290.23
694.99	245.76
695.13	332.36
695.26	299.59
695.39	245.76
695.53	278.52
695.66	210.65
695.80	262.14
695.93	229.37
696.07	184.90
696.20	194.26
696.33	222.35
696.47	175.54
696.60	259.80
696.73	266.82
696.87	152.13
697.00	227.03
697.14	154.48
697.27	163.84
697.40	252.78
697.54	198.95
697.67	112.35
697.80	133.41
697.94	149.79
698.07	147.45
698.21	98.30
698.34	217.67
698.47	198.95
698.61	138.09
698.74	147.45
698.87	184.90
699.01	201.29
699.14	159.16
699.27	184.90
699.40	330.02
699.54	184.90
699.67	121.71
699.80	170.86
699.94	222.35
700.07	145.11
700.20	142.77
700.34	168.52
700.47	241.08
700.60	215.33
700.73	152.13
700.87	187.24
701.00	222.35
701.13	212.99
701.26	227.03
701.40	149.79
701.53	222.35
701.66	147.45
701.79	224.69
701.93	252.78
702.06	234.05
702.19	112.35
702.32	252.78
702.46	234.05
702.59	236.39
702.72	217.67
702.85	208.31
702.99	208.31
703.12	299.59
703.25	262.14
703.38	205.97
703.51	266.82
703.65	189.58
703.78	259.80
703.91	322.99
704.04	208.31
704.17	315.97
704.31	308.95
704.44	250.44
704.57	259.80
704.70	313.63
704.83	304.27
704.96	304.27
705.10	367.46
705.23	390.87
>>>>>End Processed Spectral Data<<<<<
