SpectraSuite Data File
++++++++++++++++++++++++++++++++++++
Date: Fri Oct 04 11:42:01 GMT-05:00 2013
User: price-jones
Dark Spectrum Present: No
Reference Spectrum Present: No
Number of Sampled Component Spectra: 1
Spectrometers: USB2+H05261
Integration Time (usec): 100000 (USB2+H05261)
Spectra Averaged: 1 (USB2+H05261)
Boxcar Smoothing: 0 (USB2+H05261)
Correct for Electrical Dark: No (USB2+H05261)
Strobe/Lamp Enabled: No (USB2+H05261)
Correct for Detector Non-linearity: No (USB2+H05261)
Correct for Stray Light: No (USB2+H05261)
Number of Pixels in Processed Spectrum: 2048
>>>>>Begin Processed Spectral Data<<<<<
365.73	46.81
365.92	46.81
366.12	46.81
366.32	0.00
366.52	0.00
366.72	0.00
366.91	0.00
367.11	0.00
367.31	0.00
367.51	0.00
367.70	0.00
367.90	0.00
368.10	0.00
368.30	0.00
368.49	0.00
368.69	0.00
368.89	0.00
369.09	0.00
369.28	42.13
369.48	0.00
369.68	0.00
369.87	0.00
370.07	60.85
370.27	88.94
370.47	0.00
370.66	72.56
370.86	63.19
371.06	105.32
371.25	70.22
371.45	119.37
371.65	67.88
371.84	56.17
372.04	63.19
372.24	39.79
372.44	42.13
372.63	149.79
372.83	170.86
373.03	102.98
373.22	102.98
373.42	126.39
373.62	63.19
373.81	154.48
374.01	117.03
374.21	133.41
374.40	126.39
374.60	145.11
374.79	163.84
374.99	187.24
375.19	121.71
375.38	110.01
375.58	119.37
375.78	173.20
375.97	198.95
376.17	198.95
376.37	88.94
376.56	117.03
376.76	110.01
376.95	163.84
377.15	163.84
377.35	133.41
377.54	154.48
377.74	114.69
377.93	84.26
378.13	205.97
378.33	142.77
378.52	105.32
378.72	182.56
378.91	93.62
379.11	140.43
379.31	159.16
379.50	168.52
379.70	121.71
379.89	147.45
380.09	140.43
380.28	84.26
380.48	145.11
380.68	88.94
380.87	60.85
381.07	105.32
381.26	180.22
381.46	196.60
381.65	170.86
381.85	168.52
382.04	100.64
382.24	95.96
382.43	147.45
382.63	128.73
382.83	131.07
383.02	102.98
383.22	119.37
383.41	159.16
383.61	114.69
383.80	105.32
384.00	67.88
384.19	100.64
384.39	102.98
384.58	65.54
384.78	107.66
384.97	70.22
385.17	112.35
385.36	142.77
385.56	114.69
385.75	131.07
385.95	147.45
386.14	86.60
386.34	81.92
386.53	114.69
386.72	49.15
386.92	112.35
387.11	117.03
387.31	131.07
387.50	117.03
387.70	84.26
387.89	72.56
388.09	102.98
388.28	117.03
388.48	91.28
388.67	156.82
388.86	77.24
389.06	117.03
389.25	191.92
389.45	149.79
389.64	170.86
389.84	121.71
390.03	170.86
390.22	131.07
390.42	166.18
390.61	126.39
390.81	100.64
391.00	60.85
391.19	170.86
391.39	121.71
391.58	133.41
391.78	95.96
391.97	81.92
392.16	124.05
392.36	72.56
392.55	170.86
392.75	147.45
392.94	65.54
393.13	203.63
393.33	86.60
393.52	74.90
393.71	86.60
393.91	107.66
394.10	60.85
394.29	88.94
394.49	30.43
394.68	60.85
394.88	145.11
395.07	166.18
395.26	210.65
395.46	128.73
395.65	217.67
395.84	159.16
396.04	170.86
396.23	79.58
396.42	131.07
396.62	198.95
396.81	105.32
397.00	86.60
397.19	117.03
397.39	147.45
397.58	105.32
397.77	133.41
397.97	140.43
398.16	124.05
398.35	88.94
398.55	102.98
398.74	180.22
398.93	142.77
399.12	74.90
399.32	168.52
399.51	154.48
399.70	121.71
399.90	133.41
400.09	95.96
400.28	173.20
400.47	126.39
400.67	131.07
400.86	117.03
401.05	133.41
401.24	119.37
401.44	138.09
401.63	238.73
401.82	166.18
402.01	149.79
402.21	231.71
402.40	194.26
402.59	121.71
402.78	133.41
402.97	131.07
403.17	154.48
403.36	222.35
403.55	315.97
403.74	620.24
403.93	1860.73
404.13	4400.21
404.32	5760.06
404.51	5090.67
404.70	3096.53
404.89	1121.12
405.09	379.17
405.28	250.44
405.47	208.31
405.66	203.63
405.85	173.20
406.05	180.22
406.24	131.07
406.43	168.52
406.62	198.95
406.81	217.67
407.00	276.18
407.20	482.15
407.39	770.04
407.58	763.01
407.77	599.18
407.96	287.89
408.15	236.39
408.34	215.33
408.54	262.14
408.73	203.63
408.92	135.75
409.11	177.88
409.30	229.37
409.49	222.35
409.68	173.20
409.87	154.48
410.07	91.28
410.26	156.82
410.45	170.86
410.64	128.73
410.83	220.01
411.02	210.65
411.21	201.29
411.40	208.31
411.59	168.52
411.78	201.29
411.98	170.86
412.17	135.75
412.36	273.84
412.55	135.75
412.74	154.48
412.93	177.88
413.12	121.71
413.31	173.20
413.50	145.11
413.69	163.84
413.88	245.76
414.07	224.69
414.26	182.56
414.45	201.29
414.64	283.20
414.83	220.01
415.02	292.57
415.22	311.29
415.41	252.78
415.60	234.05
415.79	208.31
415.98	241.08
416.17	257.46
416.36	152.13
416.55	255.12
416.74	222.35
416.93	212.99
417.12	191.92
417.31	271.50
417.50	156.82
417.69	217.67
417.88	238.73
418.07	173.20
418.26	245.76
418.45	257.46
418.64	330.02
418.83	271.50
419.02	248.10
419.21	280.86
419.39	290.23
419.58	205.97
419.77	168.52
419.96	255.12
420.15	325.33
420.34	234.05
420.53	161.50
420.72	229.37
420.91	203.63
421.10	189.58
421.29	205.97
421.48	252.78
421.67	252.78
421.86	182.56
422.05	236.39
422.24	227.03
422.43	236.39
422.61	283.20
422.80	271.50
422.99	273.84
423.18	201.29
423.37	318.31
423.56	257.46
423.75	224.69
423.94	301.93
424.13	241.08
424.32	243.42
424.50	163.84
424.69	318.31
424.88	257.46
425.07	227.03
425.26	271.50
425.45	318.31
425.64	283.20
425.83	311.29
426.01	294.91
426.20	297.25
426.39	229.37
426.58	283.20
426.77	330.02
426.96	262.14
427.15	283.20
427.33	374.49
427.52	306.61
427.71	285.55
427.90	285.55
428.09	290.23
428.28	344.06
428.46	257.46
428.65	311.29
428.84	353.42
429.03	365.12
429.22	320.65
429.40	273.84
429.59	325.33
429.78	315.97
429.97	348.74
430.16	330.02
430.34	339.38
430.53	365.12
430.72	330.02
430.91	325.33
431.10	294.91
431.28	294.91
431.47	341.72
431.66	325.33
431.85	346.40
432.03	322.99
432.22	383.85
432.41	327.68
432.60	369.80
432.79	372.15
432.97	437.68
433.16	456.40
433.35	477.47
433.54	526.62
433.72	472.79
433.91	578.11
434.10	610.88
434.28	763.01
434.47	854.30
434.66	851.96
434.85	1114.10
435.03	3000.57
435.22	11033.29
435.41	24510.09
435.59	25078.84
435.78	15887.56
435.97	7962.50
436.16	3091.85
436.34	1181.97
436.53	781.74
436.72	582.79
436.90	550.03
437.09	493.85
437.28	486.83
437.46	418.96
437.65	451.72
437.84	411.93
438.02	379.17
438.21	407.25
438.40	390.87
438.58	367.46
438.77	341.72
438.96	440.02
439.14	404.91
439.33	369.80
439.52	351.08
439.70	337.04
439.89	404.91
440.08	390.87
440.26	341.72
440.45	430.66
440.63	440.02
440.82	454.06
441.01	360.44
441.19	386.19
441.38	372.15
441.57	365.12
441.75	440.02
441.94	379.17
442.12	346.40
442.31	454.06
442.50	409.59
442.68	437.68
442.87	369.80
443.05	397.89
443.24	440.02
443.43	489.17
443.61	423.64
443.80	416.62
443.98	454.06
444.17	407.25
444.35	435.34
444.54	447.04
444.73	346.40
444.91	414.27
445.10	379.17
445.28	407.25
445.47	430.66
445.65	428.32
445.84	463.43
446.02	351.08
446.21	414.27
446.39	425.98
446.58	339.38
446.77	374.49
446.95	381.51
447.14	400.23
447.32	435.34
447.51	381.51
447.69	404.91
447.88	351.08
448.06	393.21
448.25	367.46
448.43	395.55
448.62	379.17
448.80	395.55
448.99	393.21
449.17	407.25
449.36	330.02
449.54	334.70
449.73	458.74
449.91	400.23
450.10	379.17
450.28	475.13
450.46	435.34
450.65	493.85
450.83	447.04
451.02	381.51
451.20	447.04
451.39	388.53
451.57	411.93
451.76	388.53
451.94	325.33
452.13	383.85
452.31	418.96
452.49	374.49
452.68	330.02
452.86	332.36
453.05	442.36
453.23	379.17
453.42	337.04
453.60	322.99
453.78	414.27
453.97	400.23
454.15	433.00
454.34	292.57
454.52	327.68
454.70	465.77
454.89	369.80
455.07	362.78
455.26	372.15
455.44	376.83
455.62	341.72
455.81	458.74
455.99	386.19
456.17	489.17
456.36	461.09
456.54	355.76
456.73	355.76
456.91	346.40
457.09	393.21
457.28	400.23
457.46	355.76
457.64	428.32
457.83	322.99
458.01	339.38
458.19	433.00
458.38	414.27
458.56	360.44
458.74	355.76
458.93	318.31
459.11	374.49
459.29	379.17
459.48	348.74
459.66	433.00
459.84	360.44
460.03	390.87
460.21	367.46
460.39	294.91
460.57	444.70
460.76	283.20
460.94	400.23
461.12	414.27
461.31	444.70
461.49	299.59
461.67	273.84
461.85	367.46
462.04	273.84
462.22	816.85
462.40	468.11
462.59	388.53
462.77	327.68
462.95	381.51
463.13	428.32
463.32	376.83
463.50	351.08
463.68	416.62
463.86	400.23
464.05	400.23
464.23	451.72
464.41	425.98
464.59	332.36
464.78	414.27
464.96	451.72
465.14	339.38
465.32	341.72
465.50	390.87
465.69	395.55
465.87	404.91
466.05	428.32
466.23	365.12
466.41	365.12
466.60	491.51
466.78	442.36
466.96	381.51
467.14	440.02
467.32	442.36
467.51	456.40
467.69	411.93
467.87	449.38
468.05	414.27
468.23	404.91
468.41	365.12
468.60	322.99
468.78	355.76
468.96	397.89
469.14	332.36
469.32	416.62
469.50	346.40
469.69	365.12
469.87	346.40
470.05	301.93
470.23	360.44
470.41	402.57
470.59	346.40
470.77	358.10
470.95	437.68
471.14	437.68
471.32	311.29
471.50	400.23
471.68	318.31
471.86	348.74
472.04	341.72
472.22	315.97
472.40	318.31
472.58	428.32
472.77	400.23
472.95	332.36
473.13	425.98
473.31	449.38
473.49	372.15
473.67	325.33
473.85	372.15
474.03	395.55
474.21	379.17
474.39	409.59
474.57	402.57
474.75	428.32
474.93	358.10
475.12	341.72
475.30	428.32
475.48	283.20
475.66	409.59
475.84	348.74
476.02	404.91
476.20	287.89
476.38	315.97
476.56	402.57
476.74	390.87
476.92	409.59
477.10	430.66
477.28	402.57
477.46	411.93
477.64	444.70
477.82	397.89
478.00	379.17
478.18	374.49
478.36	402.57
478.54	404.91
478.72	433.00
478.90	428.32
479.08	526.62
479.26	500.87
479.44	425.98
479.62	409.59
479.80	430.66
479.98	479.81
480.16	528.96
480.34	524.28
480.52	554.71
480.70	552.37
480.88	667.05
481.06	643.65
481.24	550.03
481.41	650.67
481.59	657.69
481.77	788.76
481.95	791.10
482.13	863.66
482.31	819.19
482.49	908.13
482.67	910.47
482.85	1067.28
483.03	1067.28
483.21	1207.72
483.39	1184.31
483.57	1289.64
483.74	1352.83
483.92	1348.15
484.10	1504.96
484.28	1544.75
484.46	1607.95
484.64	1710.93
484.82	1762.42
485.00	1919.24
485.18	1977.75
485.35	2169.68
485.53	2293.72
485.71	2333.51
485.89	2361.60
486.07	2356.92
486.25	2443.52
486.43	2490.33
486.61	2420.11
486.78	2583.95
486.96	2555.86
487.14	2509.05
487.32	2410.75
487.50	2473.95
487.68	2565.23
487.85	2541.82
488.03	2314.79
488.21	2450.54
488.39	2282.02
488.57	2296.07
488.75	2193.08
488.92	2382.67
489.10	2225.85
489.28	2174.36
489.46	2052.65
489.64	1998.82
489.81	2017.54
489.99	1956.69
490.17	1994.14
490.35	1980.09
490.53	1870.09
490.70	1905.20
490.88	1942.64
491.06	1982.43
491.24	2029.24
491.41	2221.17
491.59	2029.24
491.77	1919.24
491.95	1748.38
492.13	1748.38
492.30	1778.81
492.48	1643.06
492.66	1732.00
492.84	1706.25
493.01	1659.44
493.19	1626.67
493.37	1647.74
493.54	1533.05
493.72	1596.25
493.90	1519.01
494.08	1488.58
494.25	1558.80
494.43	1500.28
494.61	1493.26
494.79	1427.73
494.96	1434.75
495.14	1409.00
495.32	1423.05
495.49	1366.87
495.67	1399.64
495.85	1200.69
496.02	1306.02
496.20	1242.82
496.38	1268.57
496.55	1186.65
496.73	1261.55
496.91	1294.32
497.09	1261.55
497.26	1167.93
497.44	1170.27
497.62	1097.71
497.79	1071.97
497.97	1048.56
498.14	1053.24
498.32	992.39
498.50	1083.67
498.67	968.98
498.85	936.21
499.03	919.83
499.20	950.26
499.38	891.74
499.56	901.11
499.73	889.40
499.91	945.58
500.08	849.61
500.26	844.93
500.44	781.74
500.61	739.61
500.79	786.42
500.97	751.31
501.14	791.10
501.32	723.23
501.49	734.93
501.67	711.52
501.84	657.69
502.02	610.88
502.20	690.46
502.37	681.10
502.55	622.58
502.72	603.86
502.90	643.65
503.07	627.26
503.25	540.66
503.43	500.87
503.60	514.92
503.78	524.28
503.95	582.79
504.13	575.77
504.30	594.50
504.48	559.39
504.65	603.86
504.83	580.45
505.01	491.51
505.18	545.34
505.36	524.28
505.53	475.13
505.71	440.02
505.88	472.79
506.06	369.80
506.23	486.83
506.41	430.66
506.58	423.64
506.76	402.57
506.93	444.70
507.11	428.32
507.28	395.55
507.46	379.17
507.63	388.53
507.81	322.99
507.98	414.27
508.16	437.68
508.33	440.02
508.50	437.68
508.68	451.72
508.85	444.70
509.03	421.30
509.20	409.59
509.38	475.13
509.55	339.38
509.73	390.87
509.90	505.56
510.08	390.87
510.25	376.83
510.42	372.15
510.60	400.23
510.77	472.79
510.95	400.23
511.12	444.70
511.30	315.97
511.47	348.74
511.64	400.23
511.82	348.74
511.99	414.27
512.17	362.78
512.34	397.89
512.51	351.08
512.69	332.36
512.86	411.93
513.04	376.83
513.21	386.19
513.38	402.57
513.56	383.85
513.73	362.78
513.90	393.21
514.08	313.63
514.25	379.17
514.43	395.55
514.60	402.57
514.77	372.15
514.95	369.80
515.12	330.02
515.29	393.21
515.47	344.06
515.64	330.02
515.81	311.29
515.99	400.23
516.16	409.59
516.33	332.36
516.51	397.89
516.68	339.38
516.85	355.76
517.03	369.80
517.20	348.74
517.37	287.89
517.54	362.78
517.72	341.72
517.89	353.42
518.06	360.44
518.24	374.49
518.41	376.83
518.58	271.50
518.75	313.63
518.93	332.36
519.10	334.70
519.27	346.40
519.45	320.65
519.62	437.68
519.79	299.59
519.96	337.04
520.14	367.46
520.31	339.38
520.48	381.51
520.65	269.16
520.83	318.31
521.00	301.93
521.17	341.72
521.34	301.93
521.52	280.86
521.69	374.49
521.86	341.72
522.03	311.29
522.20	369.80
522.38	320.65
522.55	341.72
522.72	360.44
522.89	437.68
523.07	334.70
523.24	262.14
523.41	332.36
523.58	301.93
523.75	234.05
523.92	353.42
524.10	367.46
524.27	341.72
524.44	325.33
524.61	372.15
524.78	322.99
524.96	353.42
525.13	313.63
525.30	407.25
525.47	430.66
525.64	360.44
525.81	416.62
525.98	339.38
526.16	294.91
526.33	266.82
526.50	341.72
526.67	390.87
526.84	369.80
527.01	397.89
527.18	456.40
527.36	397.89
527.53	451.72
527.70	463.43
527.87	430.66
528.04	470.45
528.21	383.85
528.38	414.27
528.55	451.72
528.72	451.72
528.89	456.40
529.07	454.06
529.24	498.53
529.41	449.38
529.58	489.17
529.75	440.02
529.92	475.13
530.09	512.58
530.26	484.49
530.43	409.59
530.60	454.06
530.77	430.66
530.94	564.07
531.11	444.70
531.28	599.18
531.46	482.15
531.63	573.43
531.80	603.86
531.97	648.33
532.14	650.67
532.31	826.21
532.48	870.68
532.65	1001.75
532.82	1027.50
532.99	1310.70
533.16	1472.20
533.33	1511.99
533.50	1378.58
533.67	1259.21
533.84	1118.78
534.01	980.68
534.18	968.98
534.35	877.70
534.52	924.51
534.69	1039.20
534.86	1008.77
535.03	922.17
535.20	1027.50
535.37	1184.31
535.54	1228.78
535.71	1266.23
535.88	1420.71
536.05	1392.62
536.22	1490.92
536.38	1636.03
536.55	1689.87
536.72	1895.83
536.89	2106.48
537.06	2230.53
537.23	2593.31
537.40	2775.88
537.57	2984.18
537.74	3145.68
537.91	3346.97
538.08	3337.60
538.25	3351.65
538.42	3501.44
538.59	3618.47
538.75	3609.11
538.92	3845.50
539.09	4187.22
539.26	4608.51
539.43	5273.23
539.60	5856.02
539.77	6785.21
539.94	7543.55
540.11	8212.94
540.28	8851.91
540.44	9823.23
540.61	10857.75
540.78	12367.39
540.95	14815.59
541.12	17689.77
541.29	19487.30
541.46	20730.12
541.62	20526.50
541.79	19646.46
541.96	18139.15
542.13	16767.60
542.30	16030.33
542.47	14693.88
542.63	14251.52
542.80	13954.27
542.97	13696.82
543.14	13626.60
543.31	13664.05
543.48	13593.83
543.64	13804.48
543.81	13893.42
543.98	14029.17
544.15	14122.79
544.32	14284.29
544.48	14207.05
544.65	13907.46
544.82	13790.44
544.99	13727.24
545.16	14146.20
545.32	14796.87
545.49	25696.74
545.66	47332.65
545.83	54529.80
546.00	47515.22
546.16	32173.00
546.33	23887.51
546.50	17596.15
546.67	14003.43
546.83	12571.02
547.00	12006.95
547.17	11555.22
547.34	10824.98
547.50	10679.86
547.67	10260.91
547.84	9600.88
548.00	9572.79
548.17	9200.65
548.34	8676.37
548.51	8290.18
548.67	8177.83
548.84	7667.60
549.01	7255.66
549.18	7084.80
549.34	6817.98
549.51	6532.44
549.68	6375.62
549.84	6031.56
550.01	5624.31
550.18	5540.05
550.34	5305.99
550.51	4908.10
550.68	4753.63
550.84	4390.84
551.01	4308.93
551.18	4011.68
551.34	3808.05
551.51	3730.81
551.68	3459.31
551.84	3578.68
552.01	3382.07
552.18	3089.51
552.34	2991.20
552.51	2981.84
552.68	2937.37
552.84	2789.92
553.01	2705.66
553.18	2567.57
553.34	2452.88
553.51	2415.43
553.67	2352.24
553.84	2258.62
554.01	2092.44
554.17	1975.41
554.34	1757.74
554.51	1736.68
554.67	1664.12
554.84	1519.01
555.00	1542.41
555.17	1479.22
555.33	1413.68
555.50	1341.13
555.67	1263.89
555.83	1144.52
556.00	1186.65
556.16	1259.21
556.33	1086.01
556.50	1193.67
556.66	1057.92
556.83	976.00
556.99	917.49
557.16	978.34
557.32	997.07
557.49	887.06
557.65	866.00
557.82	849.61
557.98	844.93
558.15	812.17
558.32	814.51
558.48	748.97
558.65	660.03
558.81	741.95
558.98	765.36
559.14	723.23
559.31	667.05
559.47	772.38
559.64	755.99
559.80	767.70
559.97	723.23
560.13	676.41
560.30	685.78
560.46	688.12
560.63	615.56
560.79	777.06
560.96	699.82
561.12	634.29
561.29	713.86
561.45	681.10
561.61	746.63
561.78	711.52
561.94	648.33
562.11	627.26
562.27	692.80
562.44	599.18
562.60	627.26
562.77	575.77
562.93	671.73
563.10	664.71
563.26	627.26
563.42	573.43
563.59	585.13
563.75	631.94
563.92	674.07
564.08	540.66
564.24	634.29
564.41	678.76
564.57	514.92
564.74	587.47
564.90	566.41
565.07	482.15
565.23	578.11
565.39	528.96
565.56	531.30
565.72	503.22
565.88	475.13
566.05	491.51
566.21	557.05
566.38	554.71
566.54	540.66
566.70	510.24
566.87	524.28
567.03	468.11
567.19	526.62
567.36	540.66
567.52	519.60
567.68	454.06
567.85	559.39
568.01	545.34
568.17	585.13
568.34	521.94
568.50	566.41
568.66	493.85
568.83	624.92
568.99	477.47
569.15	545.34
569.32	468.11
569.48	496.19
569.64	561.73
569.81	507.90
569.97	414.27
570.13	423.64
570.30	386.19
570.46	461.09
570.62	409.59
570.78	418.96
570.95	472.79
571.11	512.58
571.27	470.45
571.43	454.06
571.60	365.12
571.76	451.72
571.92	496.19
572.09	468.11
572.25	430.66
572.41	470.45
572.57	393.21
572.74	447.04
572.90	451.72
573.06	414.27
573.22	425.98
573.38	550.03
573.55	489.17
573.71	571.09
573.87	416.62
574.03	416.62
574.20	454.06
574.36	440.02
574.52	482.15
574.68	535.98
574.84	561.73
575.01	547.69
575.17	641.31
575.33	498.53
575.49	634.29
575.65	816.85
575.82	690.46
575.98	793.44
576.14	896.43
576.30	1760.08
576.46	5799.85
576.62	9413.63
576.79	9795.14
576.95	6860.11
577.11	4643.62
577.27	3297.81
577.43	2221.17
577.59	1537.73
577.75	1170.27
577.92	1083.67
578.08	1163.25
578.24	1198.35
578.40	1778.81
578.56	5200.67
578.72	8407.20
578.88	9118.73
579.04	6881.18
579.21	4578.09
579.37	3564.64
579.53	2715.02
579.69	2633.10
579.85	3279.09
580.01	3688.68
580.17	3520.17
580.33	3288.45
580.49	2668.21
580.65	2443.52
580.82	2090.10
580.98	2153.29
581.14	2155.63
581.30	2352.24
581.46	2429.48
581.62	2675.23
581.78	2782.90
581.94	2942.05
582.10	3150.36
582.26	3180.79
582.42	3337.60
582.58	3433.57
582.74	3571.66
582.90	3489.74
583.06	3777.62
583.22	3637.19
583.38	3674.64
583.54	3592.72
583.70	3714.43
583.86	3679.32
584.02	3513.14
584.18	3496.76
584.34	3372.71
584.50	3391.44
584.66	3274.41
584.82	3267.39
584.98	3243.98
585.14	3110.57
585.30	3176.11
585.46	3084.83
585.62	3016.95
585.78	2981.84
585.94	3035.67
586.10	2892.90
586.26	3253.34
586.42	3691.02
586.58	4407.23
586.74	5390.25
586.90	6392.00
587.06	6827.34
587.22	6761.81
587.38	6090.07
587.54	5376.21
587.70	4451.70
587.86	3749.54
588.02	3126.96
588.18	2937.37
588.34	2670.55
588.49	2401.39
588.65	2282.02
588.81	2153.29
588.97	2134.57
589.13	2026.90
589.29	2097.12
589.45	2099.46
589.61	2083.08
589.77	1975.41
589.93	2080.74
590.08	2122.87
590.24	2204.78
590.40	2289.04
590.56	2324.15
590.72	2410.75
590.88	2431.82
591.04	2642.46
591.20	2553.52
591.35	2675.23
591.51	2806.30
591.67	2888.22
591.83	3162.06
591.99	3295.47
592.15	3637.19
592.31	3953.16
592.46	4245.73
592.62	4821.50
592.78	4739.58
592.94	5069.60
593.10	4992.36
593.26	4812.14
593.41	4510.21
593.57	3946.14
593.73	3447.61
593.89	3117.59
594.05	2665.87
594.20	2469.27
594.36	2307.77
594.52	2083.08
594.68	2118.18
594.84	1980.09
594.99	1928.60
595.15	1902.86
595.31	1921.58
595.47	1853.70
595.62	1856.04
595.78	1706.25
595.94	1783.49
596.10	1898.17
596.25	1905.20
596.41	1898.17
596.57	1813.92
596.73	1806.89
596.88	1858.39
597.04	1827.96
597.20	1795.19
597.36	1928.60
597.51	1806.89
597.67	2005.84
597.83	2111.16
597.99	2225.85
598.14	2214.15
598.30	2401.39
598.46	2513.74
598.61	2649.49
598.77	2904.60
598.93	2829.71
599.09	2977.16
599.24	2965.46
599.40	3063.76
599.56	2869.50
599.71	2799.28
599.87	2569.91
600.03	2586.29
600.18	2221.17
600.34	2062.01
600.50	2127.55
600.65	1923.92
600.81	1802.21
600.97	1708.59
601.12	1673.48
601.28	1614.97
601.44	1521.35
601.59	1413.68
601.75	1289.64
601.91	1303.68
602.06	1350.49
602.22	1313.04
602.37	1259.21
602.53	1210.06
602.69	1193.67
602.84	1270.91
603.00	1249.85
603.16	1242.82
603.31	1224.10
603.47	1299.00
603.62	1245.16
603.78	1359.85
603.94	1385.60
604.09	1303.68
604.25	1444.11
604.40	1504.96
604.56	1404.32
604.71	1460.49
604.87	1488.58
605.03	1488.58
605.18	1483.90
605.34	1465.18
605.49	1591.56
605.65	1572.84
605.80	1724.97
605.96	1638.38
606.12	1762.42
606.27	1900.52
606.43	1947.33
606.58	2113.50
606.74	2111.16
606.89	2179.04
607.05	2230.53
607.20	2452.88
607.36	2663.53
607.51	2612.04
607.67	2789.92
607.82	3112.91
607.98	3251.00
608.13	3473.36
608.29	3782.31
608.44	4081.89
608.60	4252.75
608.75	4802.78
608.91	5411.32
609.06	5638.35
609.22	6452.86
609.37	6883.52
609.53	7896.97
609.68	8875.31
609.84	10101.75
609.99	11735.45
610.15	14174.28
610.30	17369.12
610.46	22251.47
610.61	28535.81
610.76	36463.21
610.92	44552.10
611.07	48748.68
611.23	49198.06
611.38	46389.42
611.54	41546.85
611.69	35255.49
611.84	29701.40
612.00	24744.14
612.15	20594.37
612.31	18160.22
612.46	16203.53
612.62	15014.54
612.77	13926.19
612.92	13055.51
613.08	12493.78
613.23	12091.21
613.39	11468.62
613.54	11335.21
613.69	11073.07
613.85	10869.45
614.00	10796.89
614.15	10775.83
614.31	10501.98
614.46	10401.34
614.62	9984.73
614.77	9455.76
614.92	8891.70
615.08	8245.71
615.23	7686.32
615.38	7145.66
615.54	6473.92
615.69	6026.88
615.84	5479.19
616.00	5135.14
616.15	4770.01
616.30	4381.48
616.46	4339.35
616.61	3854.86
616.76	3674.64
616.92	3606.77
617.07	3290.79
617.22	3279.09
617.37	2981.84
617.53	3035.67
617.68	2782.90
617.83	2738.43
617.99	2623.74
618.14	2574.59
618.29	2583.95
618.45	2487.99
618.60	2445.86
618.75	2293.72
618.90	2237.55
619.06	2354.58
619.21	2342.88
619.36	2305.43
619.51	2382.67
619.67	2331.17
619.82	2370.96
619.97	2445.86
620.12	2366.28
620.28	2415.43
620.43	2476.29
620.58	2541.82
620.73	2621.40
620.89	2537.14
621.04	2480.97
621.19	2497.35
621.34	2420.11
621.49	2413.09
621.65	2317.13
621.80	2443.52
621.95	2399.05
622.10	2452.88
622.25	2354.58
622.41	2445.86
622.56	2441.18
622.71	2691.62
622.86	2670.55
623.01	2544.16
623.16	2700.98
623.32	2775.88
623.47	2761.83
623.62	2705.66
623.77	2719.70
623.92	2717.36
624.07	2745.45
624.23	2668.21
624.38	2602.68
624.53	2775.88
624.68	2698.64
624.83	2712.68
624.98	2705.66
625.13	2675.23
625.29	2782.90
625.44	2682.25
625.59	2878.86
625.74	2710.34
625.89	2857.79
626.04	2698.64
626.19	2733.75
626.34	2775.88
626.49	2843.75
626.65	2764.17
626.80	2747.79
626.95	2649.49
627.10	2605.02
627.25	2572.25
627.40	2438.84
627.55	2565.23
627.70	2408.41
627.85	2509.05
628.00	2352.24
628.15	2387.35
628.30	2462.24
628.45	2377.98
628.60	2485.65
628.76	2597.99
628.91	2497.35
629.06	2511.39
629.21	2469.27
629.36	2567.57
629.51	2551.18
629.66	2780.56
629.81	3005.25
629.96	3229.94
630.11	3536.55
630.26	3981.25
630.41	4482.13
630.56	4964.28
630.71	5109.39
630.86	5238.12
631.01	5135.14
631.16	4643.62
631.31	4255.09
631.46	3646.55
631.61	3169.09
631.76	2609.70
631.91	2157.97
632.06	1834.98
632.21	1762.42
632.36	1406.66
632.51	1357.51
632.66	1224.10
632.81	1121.12
632.96	1109.41
633.10	961.96
633.25	985.37
633.40	1011.11
633.55	940.90
633.70	854.30
633.85	866.00
634.00	877.70
634.15	868.34
634.30	788.76
634.45	856.64
634.60	779.40
634.75	784.08
634.90	746.63
635.05	753.65
635.19	779.40
635.34	692.80
635.49	636.63
635.64	788.76
635.79	734.93
635.94	685.78
636.09	711.52
636.24	725.57
636.39	669.39
636.53	674.07
636.68	594.50
636.83	596.84
636.98	650.67
637.13	648.33
637.28	634.29
637.43	718.54
637.57	592.16
637.72	580.45
637.87	550.03
638.02	535.98
638.17	585.13
638.32	582.79
638.46	550.03
638.61	608.54
638.76	571.09
638.91	603.86
639.06	538.32
639.20	627.26
639.35	540.66
639.50	510.24
639.65	554.71
639.80	489.17
639.94	545.34
640.09	411.93
640.24	533.64
640.39	547.69
640.54	477.47
640.68	575.77
640.83	615.56
640.98	545.34
641.13	496.19
641.27	535.98
641.42	528.96
641.57	620.24
641.72	444.70
641.86	507.90
642.01	568.75
642.16	573.43
642.31	489.17
642.45	657.69
642.60	554.71
642.75	449.38
642.90	535.98
643.04	526.62
643.19	545.34
643.34	552.37
643.48	538.32
643.63	559.39
643.78	465.77
643.93	573.43
644.07	484.49
644.22	526.62
644.37	524.28
644.51	561.73
644.66	589.82
644.81	606.20
644.95	531.30
645.10	470.45
645.25	505.56
645.39	510.24
645.54	451.72
645.69	524.28
645.83	442.36
645.98	552.37
646.13	449.38
646.27	503.22
646.42	496.19
646.57	468.11
646.71	449.38
646.86	477.47
647.00	489.17
647.15	517.26
647.30	444.70
647.44	442.36
647.59	503.22
647.74	449.38
647.88	512.58
648.03	425.98
648.17	477.47
648.32	475.13
648.47	465.77
648.61	500.87
648.76	554.71
648.90	601.52
649.05	550.03
649.20	559.39
649.34	615.56
649.49	713.86
649.63	800.46
649.78	1015.79
649.92	1036.86
650.07	1259.21
650.21	1404.32
650.36	1418.36
650.51	1481.56
650.65	1437.09
650.80	1158.57
650.94	1062.60
651.09	1078.99
651.23	870.68
651.38	875.36
651.52	800.46
651.67	608.54
651.81	676.41
651.96	711.52
652.10	608.54
652.25	643.65
652.39	751.31
652.54	737.27
652.68	746.63
652.83	788.76
652.97	746.63
653.12	837.91
653.26	753.65
653.41	657.69
653.55	657.69
653.70	667.05
653.84	660.03
653.99	582.79
654.13	519.60
654.27	589.82
654.42	547.69
654.56	554.71
654.71	517.26
654.85	496.19
655.00	578.11
655.14	456.40
655.29	407.25
655.43	449.38
655.57	449.38
655.72	437.68
655.86	514.92
656.01	440.02
656.15	440.02
656.30	489.17
656.44	423.64
656.58	409.59
656.73	447.04
656.87	465.77
657.01	482.15
657.16	519.60
657.30	535.98
657.45	580.45
657.59	526.62
657.73	507.90
657.88	571.09
658.02	594.50
658.16	444.70
658.31	526.62
658.45	519.60
658.60	440.02
658.74	423.64
658.88	425.98
659.03	369.80
659.17	470.45
659.31	360.44
659.46	358.10
659.60	402.57
659.74	271.50
659.89	374.49
660.03	346.40
660.17	428.32
660.32	395.55
660.46	330.02
660.60	421.30
660.74	409.59
660.89	421.30
661.03	421.30
661.17	369.80
661.32	498.53
661.46	489.17
661.60	503.22
661.74	636.63
661.89	802.80
662.03	819.19
662.17	866.00
662.31	957.28
662.46	828.55
662.60	798.12
662.74	847.27
662.88	781.74
663.03	627.26
663.17	653.01
663.31	589.82
663.45	557.05
663.60	561.73
663.74	461.09
663.88	533.64
664.02	402.57
664.17	379.17
664.31	374.49
664.45	423.64
664.59	374.49
664.73	365.12
664.88	407.25
665.02	334.70
665.16	383.85
665.30	318.31
665.44	330.02
665.59	353.42
665.73	414.27
665.87	266.82
666.01	334.70
666.15	369.80
666.29	273.84
666.44	369.80
666.58	402.57
666.72	353.42
666.86	257.46
667.00	360.44
667.14	360.44
667.28	381.51
667.43	423.64
667.57	393.21
667.71	379.17
667.85	397.89
667.99	339.38
668.13	334.70
668.27	311.29
668.41	365.12
668.56	320.65
668.70	351.08
668.84	341.72
668.98	374.49
669.12	301.93
669.26	346.40
669.40	456.40
669.54	362.78
669.68	390.87
669.82	320.65
669.96	362.78
670.10	346.40
670.25	358.10
670.39	292.57
670.53	341.72
670.67	273.84
670.81	311.29
670.95	287.89
671.09	355.76
671.23	404.91
671.37	332.36
671.51	334.70
671.65	322.99
671.79	297.25
671.93	315.97
672.07	360.44
672.21	409.59
672.35	290.23
672.49	297.25
672.63	248.10
672.77	280.86
672.91	383.85
673.05	301.93
673.19	257.46
673.33	259.80
673.47	322.99
673.61	248.10
673.75	222.35
673.89	243.42
674.03	313.63
674.17	315.97
674.31	297.25
674.45	273.84
674.59	198.95
674.73	294.91
674.87	243.42
675.01	255.12
675.15	196.60
675.29	315.97
675.43	360.44
675.56	351.08
675.70	351.08
675.84	313.63
675.98	191.92
676.12	285.55
676.26	231.71
676.40	257.46
676.54	292.57
676.68	376.83
676.82	327.68
676.96	325.33
677.10	327.68
677.23	161.50
677.37	304.27
677.51	301.93
677.65	276.18
677.79	320.65
677.93	236.39
678.07	306.61
678.21	262.14
678.34	210.65
678.48	227.03
678.62	346.40
678.76	290.23
678.90	229.37
679.04	255.12
679.18	311.29
679.31	269.16
679.45	285.55
679.59	271.50
679.73	327.68
679.87	205.97
680.00	255.12
680.14	276.18
680.28	313.63
680.42	273.84
680.56	285.55
680.70	353.42
680.83	351.08
680.97	308.95
681.11	283.20
681.25	315.97
681.39	367.46
681.52	318.31
681.66	297.25
681.80	313.63
681.94	304.27
682.07	257.46
682.21	201.29
682.35	128.73
682.49	248.10
682.62	332.36
682.76	271.50
682.90	252.78
683.04	337.04
683.17	273.84
683.31	248.10
683.45	301.93
683.59	278.52
683.72	283.20
683.86	231.71
684.00	271.50
684.13	266.82
684.27	325.33
684.41	283.20
684.55	231.71
684.68	287.89
684.82	257.46
684.96	248.10
685.09	250.44
685.23	170.86
685.37	276.18
685.50	278.52
685.64	287.89
685.78	276.18
685.91	290.23
686.05	367.46
686.19	301.93
686.32	330.02
686.46	308.95
686.60	301.93
686.73	423.64
686.87	454.06
687.01	440.02
687.14	334.70
687.28	449.38
687.42	533.64
687.55	458.74
687.69	564.07
687.82	566.41
687.96	538.32
688.10	500.87
688.23	573.43
688.37	491.51
688.50	454.06
688.64	334.70
688.78	327.68
688.91	360.44
689.05	297.25
689.18	290.23
689.32	311.29
689.46	287.89
689.59	252.78
689.73	252.78
689.86	208.31
690.00	229.37
690.13	292.57
690.27	201.29
690.41	229.37
690.54	311.29
690.68	320.65
690.81	299.59
690.95	222.35
691.08	222.35
691.22	166.18
691.35	159.16
691.49	215.33
691.62	138.09
691.76	203.63
691.89	131.07
692.03	168.52
692.16	236.39
692.30	205.97
692.43	159.16
692.57	243.42
692.70	215.33
692.84	220.01
692.97	212.99
693.11	245.76
693.24	351.08
693.38	409.59
693.51	416.62
693.65	512.58
693.78	447.04
693.92	362.78
694.05	440.02
694.19	351.08
694.32	355.76
694.45	210.65
694.59	205.97
694.72	203.63
694.86	177.88
694.99	138.09
695.13	217.67
695.26	173.20
695.39	182.56
695.53	180.22
695.66	142.77
695.80	168.52
695.93	189.58
696.07	210.65
696.20	191.92
696.33	161.50
696.47	205.97
696.60	245.76
696.73	238.73
696.87	107.66
697.00	215.33
697.14	126.39
697.27	180.22
697.40	187.24
697.54	77.24
697.67	201.29
697.80	159.16
697.94	135.75
698.07	154.48
698.21	152.13
698.34	173.20
698.47	131.07
698.61	133.41
698.74	194.26
698.87	166.18
699.01	163.84
699.14	170.86
699.27	161.50
699.40	191.92
699.54	117.03
699.67	102.98
699.80	107.66
699.94	187.24
700.07	170.86
700.20	189.58
700.34	159.16
700.47	156.82
700.60	166.18
700.73	81.92
700.87	217.67
701.00	98.30
701.13	168.52
701.26	180.22
701.40	147.45
701.53	117.03
701.66	156.82
701.79	196.60
701.93	152.13
702.06	163.84
702.19	201.29
702.32	166.18
702.46	152.13
702.59	212.99
702.72	173.20
702.85	238.73
702.99	205.97
703.12	292.57
703.25	205.97
703.38	227.03
703.51	140.43
703.65	173.20
703.78	205.97
703.91	252.78
704.04	222.35
704.17	201.29
704.31	203.63
704.44	201.29
704.57	205.97
704.70	231.71
704.83	262.14
704.96	245.76
705.10	266.82
705.23	322.99
>>>>>End Processed Spectral Data<<<<<
