SpectraSuite Data File
++++++++++++++++++++++++++++++++++++
Date: Fri Oct 04 11:41:41 GMT-05:00 2013
User: price-jones
Dark Spectrum Present: No
Reference Spectrum Present: No
Number of Sampled Component Spectra: 1
Spectrometers: USB2+H05261
Integration Time (usec): 100000 (USB2+H05261)
Spectra Averaged: 1 (USB2+H05261)
Boxcar Smoothing: 0 (USB2+H05261)
Correct for Electrical Dark: No (USB2+H05261)
Strobe/Lamp Enabled: No (USB2+H05261)
Correct for Detector Non-linearity: No (USB2+H05261)
Correct for Stray Light: No (USB2+H05261)
Number of Pixels in Processed Spectrum: 2048
>>>>>Begin Processed Spectral Data<<<<<
365.73	77.24
365.92	77.24
366.12	77.24
366.32	0.00
366.52	0.00
366.72	7.02
366.91	0.00
367.11	0.00
367.31	0.00
367.51	0.00
367.70	0.00
367.90	0.00
368.10	0.00
368.30	0.00
368.49	0.00
368.69	0.00
368.89	0.00
369.09	0.00
369.28	0.00
369.48	0.00
369.68	7.02
369.87	0.00
370.07	0.00
370.27	0.00
370.47	37.45
370.66	21.06
370.86	56.17
371.06	72.56
371.25	114.69
371.45	39.79
371.65	131.07
371.84	74.90
372.04	46.81
372.24	105.32
372.44	51.49
372.63	147.45
372.83	140.43
373.03	142.77
373.22	135.75
373.42	124.05
373.62	98.30
373.81	156.82
374.01	133.41
374.21	149.79
374.40	149.79
374.60	156.82
374.79	133.41
374.99	81.92
375.19	93.62
375.38	170.86
375.58	117.03
375.78	189.58
375.97	126.39
376.17	100.64
376.37	98.30
376.56	95.96
376.76	119.37
376.95	84.26
377.15	100.64
377.35	102.98
377.54	147.45
377.74	170.86
377.93	124.05
378.13	145.11
378.33	149.79
378.52	154.48
378.72	208.31
378.91	95.96
379.11	177.88
379.31	126.39
379.50	107.66
379.70	138.09
379.89	140.43
380.09	102.98
380.28	131.07
380.48	173.20
380.68	168.52
380.87	72.56
381.07	168.52
381.26	135.75
381.46	189.58
381.65	114.69
381.85	95.96
382.04	119.37
382.24	93.62
382.43	84.26
382.63	154.48
382.83	102.98
383.02	100.64
383.22	196.60
383.41	100.64
383.61	72.56
383.80	56.17
384.00	114.69
384.19	81.92
384.39	117.03
384.58	161.50
384.78	205.97
384.97	53.83
385.17	117.03
385.36	93.62
385.56	205.97
385.75	74.90
385.95	102.98
386.14	161.50
386.34	81.92
386.53	56.17
386.72	88.94
386.92	203.63
387.11	163.84
387.31	98.30
387.50	44.47
387.70	56.17
387.89	91.28
388.09	74.90
388.28	107.66
388.48	133.41
388.67	173.20
388.86	152.13
389.06	159.16
389.25	84.26
389.45	142.77
389.64	107.66
389.84	152.13
390.03	84.26
390.22	168.52
390.42	156.82
390.61	105.32
390.81	86.60
391.00	93.62
391.19	163.84
391.39	86.60
391.58	145.11
391.78	112.35
391.97	140.43
392.16	198.95
392.36	102.98
392.55	133.41
392.75	124.05
392.94	72.56
393.13	58.51
393.33	140.43
393.52	145.11
393.71	189.58
393.91	117.03
394.10	191.92
394.29	145.11
394.49	112.35
394.68	126.39
394.88	133.41
395.07	77.24
395.26	145.11
395.46	168.52
395.65	203.63
395.84	170.86
396.04	222.35
396.23	175.54
396.42	121.71
396.62	114.69
396.81	142.77
397.00	170.86
397.19	131.07
397.39	121.71
397.58	154.48
397.77	135.75
397.97	145.11
398.16	126.39
398.35	77.24
398.55	114.69
398.74	161.50
398.93	119.37
399.12	107.66
399.32	203.63
399.51	234.05
399.70	161.50
399.90	191.92
400.09	138.09
400.28	156.82
400.47	138.09
400.67	161.50
400.86	168.52
401.05	126.39
401.24	182.56
401.44	177.88
401.63	227.03
401.82	227.03
402.01	180.22
402.21	182.56
402.40	220.01
402.59	184.90
402.78	236.39
402.97	145.11
403.17	262.14
403.36	252.78
403.55	325.33
403.74	699.82
403.93	2122.87
404.13	5305.99
404.32	7803.35
404.51	6942.03
404.70	4545.32
404.89	1806.89
405.09	547.69
405.28	266.82
405.47	142.77
405.66	222.35
405.85	198.95
406.05	205.97
406.24	168.52
406.43	205.97
406.62	255.12
406.81	271.50
407.00	393.21
407.20	608.54
407.39	1050.90
407.58	1095.37
407.77	880.04
407.96	463.43
408.15	234.05
408.34	222.35
408.54	177.88
408.73	210.65
408.92	163.84
409.11	114.69
409.30	231.71
409.49	147.45
409.68	194.26
409.87	166.18
410.07	177.88
410.26	212.99
410.45	196.60
410.64	201.29
410.83	227.03
411.02	224.69
411.21	243.42
411.40	245.76
411.59	175.54
411.78	238.73
411.98	201.29
412.17	215.33
412.36	212.99
412.55	229.37
412.74	229.37
412.93	269.16
413.12	84.26
413.31	273.84
413.50	166.18
413.69	184.90
413.88	231.71
414.07	191.92
414.26	231.71
414.45	198.95
414.64	175.54
414.83	224.69
415.02	210.65
415.22	271.50
415.41	337.04
415.60	241.08
415.79	208.31
415.98	285.55
416.17	255.12
416.36	283.20
416.55	322.99
416.74	234.05
416.93	278.52
417.12	273.84
417.31	271.50
417.50	217.67
417.69	315.97
417.88	245.76
418.07	287.89
418.26	271.50
418.45	341.72
418.64	299.59
418.83	346.40
419.02	320.65
419.21	334.70
419.39	327.68
419.58	255.12
419.77	327.68
419.96	304.27
420.15	315.97
420.34	325.33
420.53	220.01
420.72	212.99
420.91	365.12
421.10	313.63
421.29	264.48
421.48	369.80
421.67	322.99
421.86	292.57
422.05	313.63
422.24	313.63
422.43	271.50
422.61	346.40
422.80	299.59
422.99	348.74
423.18	294.91
423.37	313.63
423.56	330.02
423.75	283.20
423.94	264.48
424.13	358.10
424.32	294.91
424.50	369.80
424.69	299.59
424.88	351.08
425.07	339.38
425.26	337.04
425.45	322.99
425.64	404.91
425.83	334.70
426.01	327.68
426.20	330.02
426.39	407.25
426.58	379.17
426.77	379.17
426.96	339.38
427.15	334.70
427.33	315.97
427.52	299.59
427.71	294.91
427.90	369.80
428.09	365.12
428.28	418.96
428.46	418.96
428.65	402.57
428.84	435.34
429.03	437.68
429.22	437.68
429.40	360.44
429.59	433.00
429.78	454.06
429.97	400.23
430.16	346.40
430.34	320.65
430.53	362.78
430.72	409.59
430.91	416.62
431.10	418.96
431.28	433.00
431.47	388.53
431.66	409.59
431.85	423.64
432.03	362.78
432.22	470.45
432.41	477.47
432.60	465.77
432.79	433.00
432.97	442.36
433.16	573.43
433.35	540.66
433.54	650.67
433.72	706.84
433.91	695.14
434.10	809.83
434.28	971.32
434.47	1102.39
434.66	1228.78
434.85	1488.58
435.03	3707.41
435.22	13324.67
435.41	32837.72
435.59	38986.30
435.78	25919.09
435.97	12519.53
436.16	4690.43
436.34	1666.46
436.53	1022.81
436.72	830.89
436.90	622.58
437.09	697.48
437.28	624.92
437.46	552.37
437.65	594.50
437.84	561.73
438.02	571.09
438.21	540.66
438.40	479.81
438.58	552.37
438.77	589.82
438.96	491.51
439.14	505.56
439.33	468.11
439.52	486.83
439.70	468.11
439.89	500.87
440.08	496.19
440.26	552.37
440.45	571.09
440.63	526.62
440.82	372.15
441.01	528.96
441.19	461.09
441.38	463.43
441.57	500.87
441.75	500.87
441.94	531.30
442.12	517.26
442.31	477.47
442.50	491.51
442.68	512.58
442.87	421.30
443.05	554.71
443.24	538.32
443.43	535.98
443.61	519.60
443.80	512.58
443.98	510.24
444.17	521.94
444.35	533.64
444.54	519.60
444.73	428.32
444.91	559.39
445.10	477.47
445.28	418.96
445.47	444.70
445.65	507.90
445.84	465.77
446.02	493.85
446.21	493.85
446.39	526.62
446.58	568.75
446.77	475.13
446.95	533.64
447.14	465.77
447.32	435.34
447.51	503.22
447.69	433.00
447.88	496.19
448.06	489.17
448.25	528.96
448.43	472.79
448.62	505.56
448.80	435.34
448.99	498.53
449.17	465.77
449.36	512.58
449.54	514.92
449.73	435.34
449.91	449.38
450.10	449.38
450.28	564.07
450.46	571.09
450.65	500.87
450.83	470.45
451.02	430.66
451.20	468.11
451.39	477.47
451.57	421.30
451.76	505.56
451.94	498.53
452.13	547.69
452.31	519.60
452.49	566.41
452.68	447.04
452.86	430.66
453.05	561.73
453.23	442.36
453.42	491.51
453.60	484.49
453.78	463.43
453.97	477.47
454.15	456.40
454.34	435.34
454.52	430.66
454.70	470.45
454.89	547.69
455.07	428.32
455.26	472.79
455.44	507.90
455.62	475.13
455.81	519.60
455.99	533.64
456.17	505.56
456.36	444.70
456.54	561.73
456.73	437.68
456.91	414.27
457.09	470.45
457.28	533.64
457.46	505.56
457.64	479.81
457.83	458.74
458.01	404.91
458.19	528.96
458.38	428.32
458.56	524.28
458.74	470.45
458.93	456.40
459.11	444.70
459.29	425.98
459.48	451.72
459.66	519.60
459.84	547.69
460.03	514.92
460.21	472.79
460.39	472.79
460.57	554.71
460.76	451.72
460.94	451.72
461.12	500.87
461.31	517.26
461.49	447.04
461.67	493.85
461.85	507.90
462.04	470.45
462.22	589.82
462.40	531.30
462.59	463.43
462.77	437.68
462.95	526.62
463.13	482.15
463.32	472.79
463.50	451.72
463.68	425.98
463.86	521.94
464.05	454.06
464.23	573.43
464.41	517.26
464.59	475.13
464.78	489.17
464.96	433.00
465.14	533.64
465.32	475.13
465.50	461.09
465.69	458.74
465.87	418.96
466.05	444.70
466.23	470.45
466.41	451.72
466.60	491.51
466.78	484.49
466.96	543.00
467.14	491.51
467.32	414.27
467.51	568.75
467.69	557.05
467.87	512.58
468.05	425.98
468.23	533.64
468.41	465.77
468.60	482.15
468.78	524.28
468.96	498.53
469.14	442.36
469.32	362.78
469.50	416.62
469.69	400.23
469.87	477.47
470.05	404.91
470.23	458.74
470.41	514.92
470.59	440.02
470.77	482.15
470.95	437.68
471.14	472.79
471.32	402.57
471.50	437.68
471.68	479.81
471.86	444.70
472.04	428.32
472.22	435.34
472.40	498.53
472.58	470.45
472.77	440.02
472.95	451.72
473.13	550.03
473.31	496.19
473.49	519.60
473.67	395.55
473.85	472.79
474.03	550.03
474.21	482.15
474.39	545.34
474.57	498.53
474.75	482.15
474.93	409.59
475.12	507.90
475.30	416.62
475.48	421.30
475.66	428.32
475.84	425.98
476.02	400.23
476.20	456.40
476.38	428.32
476.56	418.96
476.74	440.02
476.92	559.39
477.10	482.15
477.28	526.62
477.46	411.93
477.64	547.69
477.82	543.00
478.00	561.73
478.18	564.07
478.36	578.11
478.54	545.34
478.72	463.43
478.90	512.58
479.08	627.26
479.26	587.47
479.44	545.34
479.62	559.39
479.80	650.67
479.98	601.52
480.16	650.67
480.34	734.93
480.52	758.33
480.70	699.82
480.88	753.65
481.06	692.80
481.24	763.01
481.41	814.51
481.59	898.77
481.77	971.32
481.95	929.19
482.13	1006.43
482.31	1022.81
482.49	1158.57
482.67	1203.04
482.85	1439.43
483.03	1416.02
483.21	1568.16
483.39	1600.93
483.57	1778.81
483.74	1888.81
483.92	1902.86
484.10	2062.01
484.28	2193.08
484.46	2267.98
484.64	2251.60
484.82	2466.92
485.00	2696.30
485.18	2841.41
485.35	3005.25
485.53	3122.27
485.71	3117.59
485.89	3414.84
486.07	3461.65
486.25	3592.72
486.43	3496.76
486.61	3513.14
486.78	3536.55
486.96	3545.91
487.14	3545.91
487.32	3557.61
487.50	3471.01
487.68	3442.93
487.85	3353.99
488.03	3428.88
488.21	3438.25
488.39	3260.37
488.57	3218.24
488.75	3077.80
488.92	3197.17
489.10	3023.97
489.28	2913.97
489.46	2944.39
489.64	2810.98
489.81	2888.22
489.99	2813.32
490.17	2619.06
490.35	2759.49
490.53	2719.70
490.70	2607.36
490.88	2738.43
491.06	2876.52
491.24	2928.01
491.41	3054.40
491.59	2984.18
491.77	2686.94
491.95	2562.89
492.13	2434.16
492.30	2527.78
492.48	2331.17
492.66	2319.47
492.84	2260.96
493.01	2312.45
493.19	2279.68
493.37	2228.19
493.54	2150.95
493.72	2150.95
493.90	2157.97
494.08	2066.69
494.25	2111.16
494.43	2045.63
494.61	2165.00
494.79	2054.99
494.96	1886.47
495.14	1952.01
495.32	1956.69
495.49	1865.41
495.67	1809.23
495.85	1952.01
496.02	1891.15
496.20	1760.08
496.38	1832.64
496.55	1809.23
496.73	1750.72
496.91	1633.69
497.09	1727.32
497.26	1640.72
497.44	1643.06
497.62	1544.75
497.79	1509.65
497.97	1570.50
498.14	1458.15
498.32	1528.37
498.50	1434.75
498.67	1320.06
498.85	1331.76
499.03	1299.00
499.20	1240.48
499.38	1277.93
499.56	1231.12
499.73	1217.08
499.91	1228.78
500.08	1203.04
500.26	1142.18
500.44	978.34
500.61	1001.75
500.79	1029.84
500.97	987.71
501.14	931.53
501.32	908.13
501.49	847.27
501.67	936.21
501.84	873.02
502.02	873.02
502.20	971.32
502.37	891.74
502.55	849.61
502.72	791.10
502.90	720.88
503.07	746.63
503.25	819.19
503.43	702.16
503.60	624.92
503.78	725.57
503.95	734.93
504.13	636.63
504.30	615.56
504.48	688.12
504.65	669.39
504.83	667.05
505.01	606.20
505.18	582.79
505.36	601.52
505.53	545.34
505.71	528.96
505.88	559.39
506.06	554.71
506.23	486.83
506.41	540.66
506.58	575.77
506.76	547.69
506.93	416.62
507.11	517.26
507.28	418.96
507.46	496.19
507.63	559.39
507.81	496.19
507.98	491.51
508.16	486.83
508.33	479.81
508.50	503.22
508.68	547.69
508.85	613.22
509.03	519.60
509.20	538.32
509.38	491.51
509.55	505.56
509.73	505.56
509.90	479.81
510.08	468.11
510.25	372.15
510.42	500.87
510.60	449.38
510.77	414.27
510.95	510.24
511.12	435.34
511.30	444.70
511.47	404.91
511.64	531.30
511.82	503.22
511.99	489.17
512.17	454.06
512.34	402.57
512.51	458.74
512.69	414.27
512.86	531.30
513.04	484.49
513.21	458.74
513.38	414.27
513.56	379.17
513.73	407.25
513.90	425.98
514.08	491.51
514.25	409.59
514.43	367.46
514.60	397.89
514.77	379.17
514.95	440.02
515.12	442.36
515.29	388.53
515.47	428.32
515.64	440.02
515.81	390.87
515.99	470.45
516.16	428.32
516.33	425.98
516.51	393.21
516.68	409.59
516.85	479.81
517.03	514.92
517.20	344.06
517.37	360.44
517.54	402.57
517.72	379.17
517.89	414.27
518.06	468.11
518.24	404.91
518.41	454.06
518.58	428.32
518.75	376.83
518.93	346.40
519.10	454.06
519.27	360.44
519.45	358.10
519.62	425.98
519.79	428.32
519.96	325.33
520.14	374.49
520.31	358.10
520.48	358.10
520.65	400.23
520.83	404.91
521.00	395.55
521.17	344.06
521.34	355.76
521.52	416.62
521.69	339.38
521.86	456.40
522.03	372.15
522.20	355.76
522.38	409.59
522.55	404.91
522.72	315.97
522.89	381.51
523.07	479.81
523.24	322.99
523.41	395.55
523.58	327.68
523.75	369.80
523.92	411.93
524.10	409.59
524.27	346.40
524.44	409.59
524.61	386.19
524.78	409.59
524.96	400.23
525.13	395.55
525.30	444.70
525.47	449.38
525.64	369.80
525.81	430.66
525.98	442.36
526.16	414.27
526.33	395.55
526.50	414.27
526.67	437.68
526.84	423.64
527.01	442.36
527.18	461.09
527.36	582.79
527.53	557.05
527.70	512.58
527.87	454.06
528.04	437.68
528.21	402.57
528.38	479.81
528.55	416.62
528.72	552.37
528.89	484.49
529.07	503.22
529.24	395.55
529.41	554.71
529.58	531.30
529.75	580.45
529.92	543.00
530.09	538.32
530.26	531.30
530.43	489.17
530.60	554.71
530.77	543.00
530.94	594.50
531.11	589.82
531.28	599.18
531.46	566.41
531.63	730.25
531.80	690.46
531.97	727.91
532.14	875.36
532.31	990.05
532.48	1081.33
532.65	1301.34
532.82	1493.26
532.99	1823.28
533.16	2010.52
533.33	2139.25
533.50	1923.92
533.67	1685.19
533.84	1502.62
534.01	1228.78
534.18	1301.34
534.35	1174.95
534.52	1179.63
534.69	1359.85
534.86	1362.19
535.03	1357.51
535.20	1404.32
535.37	1458.15
535.54	1617.31
535.71	1710.93
535.88	1701.57
536.05	1795.19
536.22	1952.01
536.38	2101.80
536.55	2279.68
536.72	2647.15
536.89	2752.47
537.06	3199.51
537.23	3599.74
537.40	3920.40
537.57	4234.03
537.74	4393.19
537.91	4566.39
538.08	4699.80
538.25	4833.21
538.42	4774.69
538.59	4856.61
538.75	5160.88
538.92	5357.49
539.09	5914.53
539.26	6356.90
539.43	7279.07
539.60	8187.19
539.77	9266.18
539.94	10464.54
540.11	11499.05
540.28	12751.24
540.44	14230.46
540.61	15683.93
540.78	17514.23
540.95	21181.85
541.12	25488.43
541.29	29237.97
541.46	30080.56
541.62	30408.24
541.79	28954.77
541.96	27332.78
542.13	25200.55
542.30	23433.44
542.47	21797.41
542.63	20966.52
542.80	19789.23
542.97	19749.44
543.14	19400.70
543.31	19501.34
543.48	19831.36
543.64	20034.99
543.81	19889.87
543.98	20072.43
544.15	20400.11
544.32	20683.31
544.48	20648.21
544.65	20142.65
544.82	20325.21
544.99	20278.40
545.16	20379.04
545.32	21598.46
545.49	33780.95
545.66	56477.13
545.83	64271.11
546.00	61364.17
546.16	48612.93
546.33	35688.49
546.50	26845.94
546.67	20650.55
546.83	18595.56
547.00	17514.23
547.17	16704.40
547.34	16035.01
547.50	15489.67
547.67	14757.08
547.84	14352.16
548.00	13968.32
548.17	13200.62
548.34	12629.53
548.51	12145.04
548.67	11655.87
548.84	11178.40
549.01	10441.13
549.18	10202.40
549.34	9781.10
549.51	9378.53
549.68	8973.61
549.84	8594.45
550.01	8252.73
550.18	7948.46
550.34	7665.25
550.51	7082.46
550.68	6857.77
550.84	6368.60
551.01	6122.84
551.18	5884.11
551.34	5689.84
551.51	5324.72
551.68	4964.28
551.84	4823.84
552.01	4627.24
552.18	4493.83
552.34	4388.50
552.51	4170.83
552.68	3978.91
552.84	3882.95
553.01	3667.62
553.18	3672.30
553.34	3510.80
553.51	3351.65
553.67	3307.18
553.84	3061.42
554.01	2935.03
554.17	2726.72
554.34	2441.18
554.51	2422.45
554.67	2363.94
554.84	2176.70
555.00	2099.46
555.17	1940.30
555.33	1764.76
555.50	1795.19
555.67	1692.21
555.83	1652.42
556.00	1549.43
556.16	1673.48
556.33	1556.46
556.50	1397.30
556.66	1329.42
556.83	1268.57
556.99	1313.04
557.16	1287.29
557.32	1294.32
557.49	1266.23
557.65	1146.86
557.82	1172.61
557.98	1074.31
558.15	1095.37
558.32	1015.79
558.48	1128.14
558.65	1055.58
558.81	1011.11
558.98	896.43
559.14	947.92
559.31	903.45
559.47	987.71
559.64	945.58
559.80	910.47
559.97	947.92
560.13	880.04
560.30	828.55
560.46	816.85
560.63	851.96
560.79	830.89
560.96	833.23
561.12	823.87
561.29	915.15
561.45	880.04
561.61	858.98
561.78	940.90
561.94	821.53
562.11	807.48
562.27	873.02
562.44	835.57
562.60	945.58
562.77	788.76
562.93	880.04
563.10	812.17
563.26	755.99
563.42	823.87
563.59	779.40
563.75	746.63
563.92	835.57
564.08	755.99
564.24	795.78
564.41	711.52
564.57	727.91
564.74	674.07
564.90	713.86
565.07	753.65
565.23	669.39
565.39	645.99
565.56	669.39
565.72	601.52
565.88	585.13
566.05	636.63
566.21	568.75
566.38	695.14
566.54	716.20
566.70	704.50
566.87	638.97
567.03	624.92
567.19	664.71
567.36	634.29
567.52	685.78
567.68	627.26
567.85	674.07
568.01	580.45
568.17	615.56
568.34	634.29
568.50	758.33
568.66	662.37
568.83	664.71
568.99	620.24
569.15	746.63
569.32	669.39
569.48	718.54
569.64	526.62
569.81	578.11
569.97	526.62
570.13	573.43
570.30	475.13
570.46	447.04
570.62	531.30
570.78	486.83
570.95	421.30
571.11	456.40
571.27	594.50
571.43	379.17
571.60	428.32
571.76	475.13
571.92	517.26
572.09	500.87
572.25	482.15
572.41	550.03
572.57	571.09
572.74	559.39
572.90	498.53
573.06	500.87
573.22	535.98
573.38	557.05
573.55	580.45
573.71	547.69
573.87	615.56
574.03	655.35
574.20	585.13
574.36	655.35
574.52	580.45
574.68	564.07
574.84	645.99
575.01	704.50
575.17	732.59
575.33	716.20
575.49	833.23
575.65	889.40
575.82	931.53
575.98	1022.81
576.14	1132.82
576.30	2022.22
576.46	6225.82
576.62	12720.81
576.79	15452.22
576.95	11185.42
577.11	7101.19
577.27	4957.25
577.43	3208.87
577.59	2080.74
577.75	1661.78
577.92	1563.48
578.08	1437.09
578.24	1441.77
578.40	2427.14
578.56	6267.95
578.72	11922.69
578.88	14106.41
579.04	10389.64
579.21	6822.66
579.37	4889.38
579.53	3861.88
579.69	3548.25
579.85	4360.42
580.01	5397.28
580.17	5067.26
580.33	4404.89
580.49	3765.92
580.65	3323.56
580.82	3045.04
580.98	2967.80
581.14	2937.37
581.30	3138.66
581.46	3391.44
581.62	3660.60
581.78	3892.31
581.94	4283.18
582.10	4517.23
582.26	4596.81
582.42	4793.42
582.58	4844.91
582.74	5132.79
582.90	5064.92
583.06	5097.69
583.22	5266.21
583.38	5114.07
583.54	5181.95
583.70	4985.34
583.86	4950.23
584.02	4980.66
584.18	4746.61
584.34	4791.08
584.50	4833.21
584.66	4486.81
584.82	4500.85
584.98	4531.28
585.14	4489.15
585.30	4414.25
585.46	4283.18
585.62	4393.19
585.78	4187.22
585.94	4245.73
586.10	4388.50
586.26	4617.88
586.42	5186.63
586.58	6237.53
586.74	7442.90
586.90	8945.53
587.06	10059.62
587.22	9998.77
587.38	9036.81
587.54	7714.41
587.70	6581.59
587.86	5600.90
588.02	4599.15
588.18	4077.21
588.34	3829.12
588.49	3492.08
588.65	3194.83
588.81	3033.33
588.97	2951.42
589.13	2909.29
589.29	2871.84
589.45	2787.58
589.61	2874.18
589.77	2801.62
589.93	2818.00
590.08	2981.84
590.24	2956.10
590.40	3112.91
590.56	3192.49
590.72	3321.22
590.88	3335.26
591.04	3419.52
591.20	3688.68
591.35	3798.69
591.51	3892.31
591.67	4051.47
591.83	4255.09
591.99	4510.21
592.15	4936.19
592.31	5624.31
592.46	6085.39
592.62	6480.94
592.78	6923.30
592.94	7250.98
593.10	7314.17
593.26	6895.22
593.41	6253.91
593.57	5696.86
593.73	4917.47
593.89	4432.97
594.05	3936.78
594.20	3536.55
594.36	3260.37
594.52	3009.93
594.68	2855.45
594.84	2803.96
594.99	2815.66
595.15	2445.86
595.31	2647.15
595.47	2579.27
595.62	2452.88
595.78	2586.29
595.94	2476.29
596.10	2534.80
596.25	2647.15
596.41	2534.80
596.57	2394.37
596.73	2623.74
596.88	2581.61
597.04	2553.52
597.20	2483.31
597.36	2609.70
597.51	2710.34
597.67	2705.66
597.83	2925.67
597.99	3087.17
598.14	3150.36
598.30	3375.05
598.46	3478.04
598.61	3740.18
598.77	3875.93
598.93	4142.75
599.09	4236.37
599.24	4325.31
599.40	4421.27
599.56	4283.18
599.71	4035.08
599.87	3880.61
600.03	3566.98
600.18	3234.62
600.34	3091.85
600.50	2792.26
600.65	2600.34
600.81	2647.15
600.97	2422.45
601.12	2333.51
601.28	2200.10
601.44	2143.93
601.59	2024.56
601.75	1893.49
601.91	1884.13
602.06	1771.79
602.22	1790.51
602.37	1699.23
602.53	1671.14
602.69	1619.65
602.84	1661.78
603.00	1600.93
603.16	1682.85
603.31	1703.91
603.47	1673.48
603.62	1790.51
603.78	1816.26
603.94	1715.61
604.09	1849.02
604.25	1961.37
604.40	1900.52
604.56	1959.03
604.71	1996.48
604.87	2008.18
605.03	2059.67
605.18	2078.40
605.34	2064.35
605.49	2132.23
605.65	2209.47
605.80	2275.00
605.96	2373.30
606.12	2541.82
606.27	2590.97
606.43	2567.57
606.58	2775.88
606.74	2855.45
606.89	3040.36
607.05	3171.43
607.20	3337.60
607.36	3456.97
607.51	3742.52
607.67	3864.22
607.82	4219.99
607.98	4526.60
608.13	4781.71
608.29	5310.68
608.44	5664.10
608.60	6251.57
608.75	6710.32
608.91	7375.03
609.06	8128.68
609.22	8933.82
609.37	9860.68
609.53	11066.05
609.68	12650.60
609.84	14256.20
609.99	16968.88
610.15	20240.95
610.30	25046.07
610.46	30944.22
610.61	40191.68
610.76	49712.98
610.92	56193.92
611.07	59784.30
611.23	60610.51
611.38	59625.15
611.54	56481.81
611.69	51512.85
611.84	44154.21
612.00	37134.94
612.15	31227.43
612.31	27110.43
612.46	23796.23
612.62	22403.61
612.77	21132.70
612.92	20046.69
613.08	18293.63
613.23	17610.19
613.39	17097.61
613.54	16662.27
613.69	16484.39
613.85	15873.51
614.00	16056.08
614.15	15908.62
614.31	15770.53
614.46	14920.92
614.62	14780.48
614.77	14242.16
614.92	12772.30
615.08	12177.81
615.23	11288.40
615.38	10354.53
615.54	9542.36
615.69	8720.84
615.84	8114.64
616.00	7274.38
616.15	6733.72
616.30	6441.15
616.46	6099.44
616.61	5591.54
616.76	5411.32
616.92	5060.24
617.07	4833.21
617.22	4507.87
617.37	4355.74
617.53	4128.70
617.68	4007.00
617.83	3796.35
617.99	3826.78
618.14	3644.21
618.29	3510.80
618.45	3389.10
618.60	3391.44
618.75	3311.86
618.90	3239.30
619.06	3353.99
619.21	3225.26
619.36	3138.66
619.51	3192.49
619.67	3253.34
619.82	3103.55
619.97	3293.13
620.12	3372.71
620.28	3435.91
620.43	3482.72
620.58	3576.34
620.73	3421.86
620.89	3435.91
621.04	3463.99
621.19	3487.40
621.34	3400.80
621.49	3370.37
621.65	3314.20
621.80	3325.90
621.95	3241.64
622.10	3370.37
622.25	3337.60
622.41	3456.97
622.56	3513.14
622.71	3501.44
622.86	3744.86
623.01	3737.84
623.16	3772.94
623.32	3803.37
623.47	3756.56
623.62	3833.80
623.77	3819.75
623.92	3803.37
624.07	3801.03
624.23	3850.18
624.38	3653.58
624.53	3885.29
624.68	3829.12
624.83	3932.10
624.98	3859.54
625.13	3925.08
625.29	3948.48
625.44	3932.10
625.59	3971.89
625.74	4025.72
625.89	3885.29
626.04	3906.35
626.19	3838.48
626.34	3817.41
626.49	3845.50
626.65	3854.86
626.80	3794.01
626.95	3866.56
627.10	3695.71
627.25	3723.79
627.40	3545.91
627.55	3417.18
627.70	3407.82
627.85	3513.14
628.00	3506.12
628.15	3459.31
628.30	3466.33
628.45	3463.99
628.60	3410.16
628.76	3391.44
628.91	3548.25
629.06	3473.36
629.21	3541.23
629.36	3648.90
629.51	3854.86
629.66	3887.63
629.81	4149.77
629.96	4423.61
630.11	5022.79
630.26	5600.90
630.41	6221.14
630.56	6949.05
630.71	7419.50
630.86	7597.38
631.01	7325.88
631.16	6930.33
631.31	6148.59
631.46	5256.84
631.61	4498.51
631.76	3726.13
631.91	3173.77
632.06	2621.40
632.21	2321.81
632.36	2122.87
632.51	1881.79
632.66	1692.21
632.81	1586.88
632.96	1479.22
633.10	1350.49
633.25	1371.55
633.40	1301.34
633.55	1282.61
633.70	1303.68
633.85	1203.04
634.00	1043.88
634.15	1100.05
634.30	1046.22
634.45	1086.01
634.60	985.37
634.75	1071.97
634.90	1121.12
635.05	1013.45
635.19	875.36
635.34	910.47
635.49	959.62
635.64	884.72
635.79	926.85
635.94	947.92
636.09	917.49
636.24	889.40
636.39	781.74
636.53	880.04
636.68	795.78
636.83	802.80
636.98	744.29
637.13	788.76
637.28	753.65
637.43	856.64
637.57	744.29
637.72	793.44
637.87	746.63
638.02	638.97
638.17	716.20
638.32	767.70
638.46	770.04
638.61	723.23
638.76	690.46
638.91	685.78
639.06	704.50
639.20	709.18
639.35	676.41
639.50	671.73
639.65	744.29
639.80	713.86
639.94	683.44
640.09	660.03
640.24	650.67
640.39	613.22
640.54	624.92
640.68	709.18
640.83	711.52
640.98	704.50
641.13	741.95
641.27	610.88
641.42	638.97
641.57	641.31
641.72	603.86
641.86	734.93
642.01	636.63
642.16	690.46
642.31	683.44
642.45	622.58
642.60	664.71
642.75	657.69
642.90	697.48
643.04	681.10
643.19	578.11
643.34	634.29
643.48	709.18
643.63	709.18
643.78	741.95
643.93	648.33
644.07	692.80
644.22	692.80
644.37	622.58
644.51	634.29
644.66	582.79
644.81	617.90
644.95	699.82
645.10	688.12
645.25	601.52
645.39	667.05
645.54	669.39
645.69	723.23
645.83	587.47
645.98	681.10
646.13	706.84
646.27	695.14
646.42	603.86
646.57	629.60
646.71	620.24
646.86	545.34
647.00	685.78
647.15	608.54
647.30	624.92
647.44	561.73
647.59	580.45
647.74	650.67
647.88	620.24
648.03	601.52
648.17	554.71
648.32	660.03
648.47	655.35
648.61	702.16
648.76	716.20
648.90	699.82
649.05	786.42
649.20	814.51
649.34	826.21
649.49	917.49
649.63	1022.81
649.78	1231.12
649.92	1462.83
650.07	1746.04
650.21	1923.92
650.36	2090.10
650.51	2071.37
650.65	1940.30
650.80	1736.68
650.94	1537.73
651.09	1394.96
651.23	1343.47
651.38	1160.91
651.52	1100.05
651.67	933.87
651.81	896.43
651.96	894.08
652.10	819.19
652.25	781.74
652.39	828.55
652.54	873.02
652.68	917.49
652.83	1086.01
652.97	1036.86
653.12	1069.62
653.26	1008.77
653.41	1043.88
653.55	863.66
653.70	873.02
653.84	793.44
653.99	725.57
654.13	678.76
654.27	737.27
654.42	627.26
654.56	634.29
654.71	650.67
654.85	667.05
655.00	748.97
655.14	704.50
655.29	655.35
655.43	629.60
655.57	587.47
655.72	582.79
655.86	580.45
656.01	606.20
656.15	638.97
656.30	638.97
656.44	589.82
656.58	596.84
656.73	650.67
656.87	535.98
657.01	622.58
657.16	678.76
657.30	720.88
657.45	713.86
657.59	697.48
657.73	716.20
657.88	692.80
658.02	826.21
658.16	704.50
658.31	716.20
658.45	627.26
658.60	552.37
658.74	510.24
658.88	514.92
659.03	503.22
659.17	465.77
659.31	475.13
659.46	491.51
659.60	505.56
659.74	521.94
659.89	411.93
660.03	425.98
660.17	479.81
660.32	428.32
660.46	428.32
660.60	472.79
660.74	468.11
660.89	477.47
661.03	461.09
661.17	533.64
661.32	568.75
661.46	599.18
661.60	697.48
661.74	877.70
661.89	1004.09
662.03	1146.86
662.17	1242.82
662.31	1261.55
662.46	1261.55
662.60	1193.67
662.74	1156.22
662.88	1053.24
663.03	823.87
663.17	709.18
663.31	767.70
663.45	667.05
663.60	751.31
663.74	571.09
663.88	641.31
664.02	545.34
664.17	531.30
664.31	458.74
664.45	498.53
664.59	475.13
664.73	456.40
664.88	395.55
665.02	430.66
665.16	491.51
665.30	470.45
665.44	496.19
665.59	479.81
665.73	458.74
665.87	383.85
666.01	440.02
666.15	381.51
666.29	393.21
666.44	528.96
666.58	456.40
666.72	449.38
666.86	449.38
667.00	493.85
667.14	367.46
667.28	428.32
667.43	376.83
667.57	425.98
667.71	500.87
667.85	451.72
667.99	409.59
668.13	407.25
668.27	421.30
668.41	381.51
668.56	418.96
668.70	435.34
668.84	435.34
668.98	433.00
669.12	369.80
669.26	381.51
669.40	526.62
669.54	393.21
669.68	470.45
669.82	470.45
669.96	407.25
670.10	388.53
670.25	365.12
670.39	477.47
670.53	381.51
670.67	423.64
670.81	393.21
670.95	358.10
671.09	409.59
671.23	433.00
671.37	416.62
671.51	437.68
671.65	390.87
671.79	451.72
671.93	393.21
672.07	461.09
672.21	407.25
672.35	400.23
672.49	330.02
672.63	402.57
672.77	411.93
672.91	395.55
673.05	318.31
673.19	334.70
673.33	294.91
673.47	290.23
673.61	337.04
673.75	297.25
673.89	344.06
674.03	374.49
674.17	353.42
674.31	418.96
674.45	325.33
674.59	252.78
674.73	360.44
674.87	337.04
675.01	301.93
675.15	313.63
675.29	393.21
675.43	416.62
675.56	468.11
675.70	351.08
675.84	322.99
675.98	315.97
676.12	299.59
676.26	290.23
676.40	306.61
676.54	327.68
676.68	306.61
676.82	348.74
676.96	306.61
677.10	311.29
677.23	283.20
677.37	330.02
677.51	332.36
677.65	339.38
677.79	271.50
677.93	264.48
678.07	330.02
678.21	304.27
678.34	257.46
678.48	243.42
678.62	381.51
678.76	346.40
678.90	306.61
679.04	255.12
679.18	341.72
679.31	271.50
679.45	346.40
679.59	304.27
679.73	330.02
679.87	367.46
680.00	320.65
680.14	409.59
680.28	407.25
680.42	290.23
680.56	353.42
680.70	290.23
680.83	344.06
680.97	334.70
681.11	367.46
681.25	358.10
681.39	393.21
681.52	365.12
681.66	423.64
681.80	353.42
681.94	334.70
682.07	332.36
682.21	341.72
682.35	315.97
682.49	306.61
682.62	346.40
682.76	215.33
682.90	198.95
683.04	337.04
683.17	304.27
683.31	259.80
683.45	292.57
683.59	341.72
683.72	341.72
683.86	304.27
684.00	278.52
684.13	301.93
684.27	264.48
684.41	334.70
684.55	285.55
684.68	264.48
684.82	358.10
684.96	318.31
685.09	306.61
685.23	292.57
685.37	341.72
685.50	376.83
685.64	397.89
685.78	341.72
685.91	285.55
686.05	353.42
686.19	376.83
686.32	390.87
686.46	465.77
686.60	449.38
686.73	519.60
686.87	505.56
687.01	475.13
687.14	603.86
687.28	657.69
687.42	636.63
687.55	610.88
687.69	718.54
687.82	718.54
687.96	655.35
688.10	737.27
688.23	657.69
688.37	671.73
688.50	578.11
688.64	475.13
688.78	472.79
688.91	435.34
689.05	437.68
689.18	404.91
689.32	327.68
689.46	381.51
689.59	451.72
689.73	290.23
689.86	252.78
690.00	301.93
690.13	238.73
690.27	252.78
690.41	348.74
690.54	409.59
690.68	390.87
690.81	280.86
690.95	276.18
691.08	362.78
691.22	259.80
691.35	203.63
691.49	180.22
691.62	212.99
691.76	212.99
691.89	266.82
692.03	217.67
692.16	194.26
692.30	126.39
692.43	248.10
692.57	224.69
692.70	198.95
692.84	290.23
692.97	280.86
693.11	376.83
693.24	418.96
693.38	402.57
693.51	568.75
693.65	664.71
693.78	550.03
693.92	564.07
694.05	500.87
694.19	425.98
694.32	463.43
694.45	287.89
694.59	339.38
694.72	285.55
694.86	262.14
694.99	215.33
695.13	170.86
695.26	234.05
695.39	189.58
695.53	294.91
695.66	182.56
695.80	259.80
695.93	196.60
696.07	187.24
696.20	252.78
696.33	250.44
696.47	201.29
696.60	285.55
696.73	245.76
696.87	156.82
697.00	245.76
697.14	205.97
697.27	198.95
697.40	301.93
697.54	168.52
697.67	163.84
697.80	166.18
697.94	128.73
698.07	180.22
698.21	135.75
698.34	210.65
698.47	184.90
698.61	170.86
698.74	184.90
698.87	196.60
699.01	168.52
699.14	152.13
699.27	105.32
699.40	243.42
699.54	189.58
699.67	184.90
699.80	163.84
699.94	163.84
700.07	222.35
700.20	257.46
700.34	128.73
700.47	210.65
700.60	180.22
700.73	154.48
700.87	205.97
701.00	184.90
701.13	142.77
701.26	215.33
701.40	170.86
701.53	175.54
701.66	166.18
701.79	175.54
701.93	191.92
702.06	208.31
702.19	194.26
702.32	238.73
702.46	170.86
702.59	222.35
702.72	241.08
702.85	238.73
702.99	196.60
703.12	194.26
703.25	212.99
703.38	189.58
703.51	243.42
703.65	227.03
703.78	252.78
703.91	280.86
704.04	276.18
704.17	299.59
704.31	217.67
704.44	283.20
704.57	297.25
704.70	306.61
704.83	266.82
704.96	257.46
705.10	327.68
705.23	322.99
>>>>>End Processed Spectral Data<<<<<
