SpectraSuite Data File
++++++++++++++++++++++++++++++++++++
Date: Fri Oct 04 11:42:14 GMT-05:00 2013
User: price-jones
Dark Spectrum Present: No
Reference Spectrum Present: No
Number of Sampled Component Spectra: 1
Spectrometers: USB2+H05261
Integration Time (usec): 100000 (USB2+H05261)
Spectra Averaged: 1 (USB2+H05261)
Boxcar Smoothing: 0 (USB2+H05261)
Correct for Electrical Dark: No (USB2+H05261)
Strobe/Lamp Enabled: No (USB2+H05261)
Correct for Detector Non-linearity: No (USB2+H05261)
Correct for Stray Light: No (USB2+H05261)
Number of Pixels in Processed Spectrum: 2048
>>>>>Begin Processed Spectral Data<<<<<
365.73	42.13
365.92	42.13
366.12	42.13
366.32	39.79
366.52	0.00
366.72	0.00
366.91	0.00
367.11	0.00
367.31	0.00
367.51	0.00
367.70	0.00
367.90	0.00
368.10	0.00
368.30	0.00
368.49	0.00
368.69	0.00
368.89	0.00
369.09	0.00
369.28	0.00
369.48	11.70
369.68	0.00
369.87	0.00
370.07	0.00
370.27	4.68
370.47	46.81
370.66	37.45
370.86	110.01
371.06	74.90
371.25	145.11
371.45	107.66
371.65	135.75
371.84	74.90
372.04	107.66
372.24	56.17
372.44	9.36
372.63	203.63
372.83	152.13
373.03	126.39
373.22	173.20
373.42	51.49
373.62	142.77
373.81	140.43
374.01	142.77
374.21	58.51
374.40	95.96
374.60	149.79
374.79	67.88
374.99	79.58
375.19	131.07
375.38	79.58
375.58	135.75
375.78	196.60
375.97	95.96
376.17	161.50
376.37	95.96
376.56	114.69
376.76	98.30
376.95	102.98
377.15	163.84
377.35	128.73
377.54	145.11
377.74	79.58
377.93	110.01
378.13	173.20
378.33	138.09
378.52	112.35
378.72	93.62
378.91	182.56
379.11	119.37
379.31	138.09
379.50	74.90
379.70	133.41
379.89	124.05
380.09	121.71
380.28	128.73
380.48	46.81
380.68	56.17
380.87	98.30
381.07	81.92
381.26	128.73
381.46	93.62
381.65	49.15
381.85	133.41
382.04	98.30
382.24	98.30
382.43	112.35
382.63	53.83
382.83	154.48
383.02	135.75
383.22	180.22
383.41	28.09
383.61	49.15
383.80	84.26
384.00	70.22
384.19	124.05
384.39	86.60
384.58	102.98
384.78	173.20
384.97	126.39
385.17	121.71
385.36	93.62
385.56	175.54
385.75	67.88
385.95	77.24
386.14	147.45
386.34	117.03
386.53	32.77
386.72	91.28
386.92	180.22
387.11	128.73
387.31	135.75
387.50	84.26
387.70	107.66
387.89	126.39
388.09	58.51
388.28	135.75
388.48	138.09
388.67	154.48
388.86	93.62
389.06	163.84
389.25	86.60
389.45	117.03
389.64	117.03
389.84	161.50
390.03	30.43
390.22	93.62
390.42	121.71
390.61	72.56
390.81	161.50
391.00	107.66
391.19	133.41
391.39	81.92
391.58	91.28
391.78	117.03
391.97	126.39
392.16	51.49
392.36	161.50
392.55	215.33
392.75	131.07
392.94	114.69
393.13	140.43
393.33	93.62
393.52	152.13
393.71	201.29
393.91	70.22
394.10	114.69
394.29	168.52
394.49	117.03
394.68	128.73
394.88	163.84
395.07	154.48
395.26	135.75
395.46	93.62
395.65	161.50
395.84	107.66
396.04	173.20
396.23	105.32
396.42	98.30
396.62	86.60
396.81	63.19
397.00	170.86
397.19	131.07
397.39	74.90
397.58	126.39
397.77	138.09
397.97	112.35
398.16	168.52
398.35	65.54
398.55	100.64
398.74	95.96
398.93	149.79
399.12	175.54
399.32	102.98
399.51	91.28
399.70	119.37
399.90	180.22
400.09	156.82
400.28	170.86
400.47	145.11
400.67	140.43
400.86	117.03
401.05	170.86
401.24	210.65
401.44	133.41
401.63	121.71
401.82	138.09
402.01	145.11
402.21	135.75
402.40	147.45
402.59	117.03
402.78	133.41
402.97	159.16
403.17	184.90
403.36	170.86
403.55	166.18
403.74	409.59
403.93	1043.88
404.13	2385.01
404.32	2658.85
404.51	2246.91
404.70	1350.49
404.89	566.41
405.09	229.37
405.28	105.32
405.47	140.43
405.66	184.90
405.85	182.56
406.05	145.11
406.24	166.18
406.43	170.86
406.62	154.48
406.81	187.24
407.00	224.69
407.20	339.38
407.39	461.09
407.58	421.30
407.77	393.21
407.96	290.23
408.15	243.42
408.34	173.20
408.54	177.88
408.73	161.50
408.92	175.54
409.11	262.14
409.30	208.31
409.49	128.73
409.68	159.16
409.87	117.03
410.07	133.41
410.26	93.62
410.45	135.75
410.64	126.39
410.83	175.54
411.02	166.18
411.21	196.60
411.40	201.29
411.59	194.26
411.78	166.18
411.98	205.97
412.17	187.24
412.36	88.94
412.55	110.01
412.74	212.99
412.93	187.24
413.12	203.63
413.31	152.13
413.50	74.90
413.69	121.71
413.88	152.13
414.07	191.92
414.26	184.90
414.45	184.90
414.64	208.31
414.83	166.18
415.02	208.31
415.22	238.73
415.41	180.22
415.60	119.37
415.79	198.95
415.98	177.88
416.17	182.56
416.36	170.86
416.55	168.52
416.74	124.05
416.93	234.05
417.12	196.60
417.31	196.60
417.50	184.90
417.69	259.80
417.88	166.18
418.07	145.11
418.26	121.71
418.45	222.35
418.64	234.05
418.83	241.08
419.02	196.60
419.21	147.45
419.39	201.29
419.58	177.88
419.77	170.86
419.96	210.65
420.15	142.77
420.34	159.16
420.53	224.69
420.72	175.54
420.91	212.99
421.10	189.58
421.29	203.63
421.48	140.43
421.67	203.63
421.86	234.05
422.05	191.92
422.24	257.46
422.43	184.90
422.61	147.45
422.80	248.10
422.99	198.95
423.18	264.48
423.37	231.71
423.56	212.99
423.75	203.63
423.94	180.22
424.13	227.03
424.32	133.41
424.50	212.99
424.69	203.63
424.88	276.18
425.07	205.97
425.26	205.97
425.45	81.92
425.64	121.71
425.83	184.90
426.01	215.33
426.20	168.52
426.39	227.03
426.58	124.05
426.77	187.24
426.96	201.29
427.15	215.33
427.33	229.37
427.52	271.50
427.71	229.37
427.90	222.35
428.09	217.67
428.28	184.90
428.46	252.78
428.65	224.69
428.84	344.06
429.03	280.86
429.22	196.60
429.40	238.73
429.59	250.44
429.78	255.12
429.97	252.78
430.16	210.65
430.34	257.46
430.53	166.18
430.72	222.35
430.91	205.97
431.10	128.73
431.28	227.03
431.47	271.50
431.66	191.92
431.85	266.82
432.03	257.46
432.22	320.65
432.41	191.92
432.60	292.57
432.79	236.39
432.97	262.14
433.16	306.61
433.35	276.18
433.54	322.99
433.72	344.06
433.91	402.57
434.10	365.12
434.28	430.66
434.47	500.87
434.66	472.79
434.85	727.91
435.03	1879.45
435.22	6179.01
435.41	11552.88
435.59	11098.82
435.78	6841.39
435.97	3625.49
436.16	1469.86
436.34	650.67
436.53	339.38
436.72	390.87
436.90	374.49
437.09	376.83
437.28	210.65
437.46	308.95
437.65	259.80
437.84	332.36
438.02	280.86
438.21	304.27
438.40	259.80
438.58	285.55
438.77	222.35
438.96	255.12
439.14	138.09
439.33	292.57
439.52	301.93
439.70	283.20
439.89	287.89
440.08	299.59
440.26	280.86
440.45	287.89
440.63	227.03
440.82	351.08
441.01	273.84
441.19	257.46
441.38	238.73
441.57	229.37
441.75	311.29
441.94	290.23
442.12	210.65
442.31	297.25
442.50	217.67
442.68	252.78
442.87	271.50
443.05	266.82
443.24	245.76
443.43	297.25
443.61	365.12
443.80	290.23
443.98	252.78
444.17	313.63
444.35	180.22
444.54	264.48
444.73	278.52
444.91	220.01
445.10	231.71
445.28	278.52
445.47	245.76
445.65	337.04
445.84	304.27
446.02	287.89
446.21	266.82
446.39	257.46
446.58	182.56
446.77	285.55
446.95	262.14
447.14	212.99
447.32	304.27
447.51	299.59
447.69	182.56
447.88	318.31
448.06	140.43
448.25	276.18
448.43	173.20
448.62	196.60
448.80	252.78
448.99	252.78
449.17	266.82
449.36	245.76
449.54	320.65
449.73	283.20
449.91	285.55
450.10	182.56
450.28	346.40
450.46	315.97
450.65	297.25
450.83	292.57
451.02	212.99
451.20	259.80
451.39	271.50
451.57	318.31
451.76	262.14
451.94	222.35
452.13	301.93
452.31	252.78
452.49	290.23
452.68	308.95
452.86	271.50
453.05	355.76
453.23	269.16
453.42	287.89
453.60	315.97
453.78	271.50
453.97	196.60
454.15	224.69
454.34	294.91
454.52	252.78
454.70	273.84
454.89	318.31
455.07	250.44
455.26	271.50
455.44	264.48
455.62	266.82
455.81	280.86
455.99	259.80
456.17	290.23
456.36	273.84
456.54	313.63
456.73	241.08
456.91	252.78
457.09	262.14
457.28	283.20
457.46	184.90
457.64	306.61
457.83	299.59
458.01	215.33
458.19	252.78
458.38	212.99
458.56	301.93
458.74	224.69
458.93	201.29
459.11	217.67
459.29	191.92
459.48	262.14
459.66	241.08
459.84	257.46
460.03	313.63
460.21	271.50
460.39	311.29
460.57	276.18
460.76	318.31
460.94	283.20
461.12	292.57
461.31	271.50
461.49	241.08
461.67	217.67
461.85	264.48
462.04	210.65
462.22	393.21
462.40	334.70
462.59	327.68
462.77	241.08
462.95	301.93
463.13	224.69
463.32	285.55
463.50	229.37
463.68	308.95
463.86	236.39
464.05	220.01
464.23	283.20
464.41	337.04
464.59	217.67
464.78	273.84
464.96	252.78
465.14	266.82
465.32	145.11
465.50	220.01
465.69	229.37
465.87	269.16
466.05	227.03
466.23	299.59
466.41	271.50
466.60	238.73
466.78	266.82
466.96	367.46
467.14	292.57
467.32	241.08
467.51	259.80
467.69	229.37
467.87	280.86
468.05	332.36
468.23	325.33
468.41	311.29
468.60	285.55
468.78	273.84
468.96	234.05
469.14	194.26
469.32	170.86
469.50	264.48
469.69	266.82
469.87	248.10
470.05	231.71
470.23	234.05
470.41	252.78
470.59	306.61
470.77	229.37
470.95	259.80
471.14	318.31
471.32	236.39
471.50	297.25
471.68	278.52
471.86	273.84
472.04	292.57
472.22	297.25
472.40	229.37
472.58	203.63
472.77	236.39
472.95	205.97
473.13	257.46
473.31	198.95
473.49	271.50
473.67	252.78
473.85	184.90
474.03	273.84
474.21	250.44
474.39	306.61
474.57	257.46
474.75	266.82
474.93	273.84
475.12	215.33
475.30	220.01
475.48	210.65
475.66	248.10
475.84	311.29
476.02	215.33
476.20	252.78
476.38	320.65
476.56	311.29
476.74	201.29
476.92	311.29
477.10	290.23
477.28	255.12
477.46	276.18
477.64	320.65
477.82	315.97
478.00	306.61
478.18	264.48
478.36	322.99
478.54	290.23
478.72	227.03
478.90	304.27
479.08	304.27
479.26	334.70
479.44	327.68
479.62	337.04
479.80	339.38
479.98	292.57
480.16	325.33
480.34	278.52
480.52	294.91
480.70	390.87
480.88	325.33
481.06	365.12
481.24	318.31
481.41	327.68
481.59	369.80
481.77	433.00
481.95	421.30
482.13	454.06
482.31	449.38
482.49	660.03
482.67	510.24
482.85	601.52
483.03	676.41
483.21	645.99
483.39	695.14
483.57	725.57
483.74	706.84
483.92	739.61
484.10	737.27
484.28	760.67
484.46	952.60
484.64	983.02
484.82	929.19
485.00	938.55
485.18	994.73
485.35	1015.79
485.53	1156.22
485.71	1151.54
485.89	1158.57
486.07	1121.12
486.25	1306.02
486.43	1198.35
486.61	1273.25
486.78	1416.02
486.96	1338.79
487.14	1184.31
487.32	1214.74
487.50	1294.32
487.68	1294.32
487.85	1181.97
488.03	1242.82
488.21	1303.68
488.39	1139.84
488.57	1107.07
488.75	1062.60
488.92	1334.11
489.10	1046.22
489.28	1036.86
489.46	1004.09
489.64	1039.20
489.81	924.51
489.99	1011.11
490.17	1022.81
490.35	1088.35
490.53	950.26
490.70	1027.50
490.88	1039.20
491.06	952.60
491.24	1121.12
491.41	1191.33
491.59	1057.92
491.77	1020.47
491.95	922.17
492.13	908.13
492.30	863.66
492.48	901.11
492.66	868.34
492.84	809.83
493.01	856.64
493.19	870.68
493.37	901.11
493.54	868.34
493.72	875.36
493.90	812.17
494.08	725.57
494.25	798.12
494.43	767.70
494.61	779.40
494.79	723.23
494.96	746.63
495.14	821.53
495.32	788.76
495.49	727.91
495.67	828.55
495.85	732.59
496.02	674.07
496.20	704.50
496.38	711.52
496.55	631.94
496.73	688.12
496.91	699.82
497.09	709.18
497.26	744.29
497.44	636.63
497.62	674.07
497.79	669.39
497.97	608.54
498.14	615.56
498.32	596.84
498.50	636.63
498.67	531.30
498.85	533.64
499.03	624.92
499.20	557.05
499.38	601.52
499.56	552.37
499.73	610.88
499.91	526.62
500.08	531.30
500.26	510.24
500.44	416.62
500.61	454.06
500.79	444.70
500.97	449.38
501.14	409.59
501.32	402.57
501.49	479.81
501.67	407.25
501.84	437.68
502.02	397.89
502.20	461.09
502.37	449.38
502.55	407.25
502.72	383.85
502.90	402.57
503.07	402.57
503.25	402.57
503.43	372.15
503.60	315.97
503.78	341.72
503.95	402.57
504.13	306.61
504.30	388.53
504.48	369.80
504.65	313.63
504.83	397.89
505.01	351.08
505.18	381.51
505.36	402.57
505.53	283.20
505.71	348.74
505.88	339.38
506.06	269.16
506.23	353.42
506.41	325.33
506.58	315.97
506.76	339.38
506.93	257.46
507.11	315.97
507.28	313.63
507.46	346.40
507.63	280.86
507.81	287.89
507.98	330.02
508.16	290.23
508.33	308.95
508.50	325.33
508.68	360.44
508.85	304.27
509.03	358.10
509.20	292.57
509.38	327.68
509.55	306.61
509.73	402.57
509.90	369.80
510.08	318.31
510.25	353.42
510.42	308.95
510.60	315.97
510.77	248.10
510.95	383.85
511.12	339.38
511.30	308.95
511.47	294.91
511.64	330.02
511.82	362.78
511.99	337.04
512.17	358.10
512.34	337.04
512.51	278.52
512.69	266.82
512.86	322.99
513.04	271.50
513.21	264.48
513.38	262.14
513.56	292.57
513.73	304.27
513.90	245.76
514.08	287.89
514.25	294.91
514.43	255.12
514.60	294.91
514.77	259.80
514.95	259.80
515.12	264.48
515.29	248.10
515.47	301.93
515.64	234.05
515.81	318.31
515.99	334.70
516.16	313.63
516.33	306.61
516.51	243.42
516.68	301.93
516.85	238.73
517.03	234.05
517.20	257.46
517.37	280.86
517.54	311.29
517.72	306.61
517.89	271.50
518.06	182.56
518.24	313.63
518.41	327.68
518.58	320.65
518.75	285.55
518.93	299.59
519.10	205.97
519.27	269.16
519.45	297.25
519.62	320.65
519.79	259.80
519.96	297.25
520.14	332.36
520.31	287.89
520.48	278.52
520.65	271.50
520.83	304.27
521.00	252.78
521.17	327.68
521.34	222.35
521.52	241.08
521.69	273.84
521.86	273.84
522.03	257.46
522.20	339.38
522.38	320.65
522.55	294.91
522.72	241.08
522.89	269.16
523.07	362.78
523.24	311.29
523.41	220.01
523.58	269.16
523.75	301.93
523.92	285.55
524.10	341.72
524.27	215.33
524.44	294.91
524.61	358.10
524.78	287.89
524.96	283.20
525.13	250.44
525.30	367.46
525.47	311.29
525.64	344.06
525.81	294.91
525.98	224.69
526.16	344.06
526.33	283.20
526.50	278.52
526.67	280.86
526.84	292.57
527.01	198.95
527.18	308.95
527.36	346.40
527.53	379.17
527.70	339.38
527.87	330.02
528.04	341.72
528.21	360.44
528.38	341.72
528.55	369.80
528.72	376.83
528.89	308.95
529.07	374.49
529.24	313.63
529.41	395.55
529.58	301.93
529.75	292.57
529.92	360.44
530.09	290.23
530.26	409.59
530.43	344.06
530.60	325.33
530.77	355.76
530.94	330.02
531.11	341.72
531.28	355.76
531.46	351.08
531.63	358.10
531.80	418.96
531.97	416.62
532.14	449.38
532.31	524.28
532.48	550.03
532.65	650.67
532.82	727.91
532.99	814.51
533.16	777.06
533.33	868.34
533.50	828.55
533.67	669.39
533.84	650.67
534.01	578.11
534.18	566.41
534.35	540.66
534.52	496.19
534.69	641.31
534.86	561.73
535.03	643.65
535.20	596.84
535.37	650.67
535.54	695.14
535.71	645.99
535.88	739.61
536.05	737.27
536.22	713.86
536.38	856.64
536.55	873.02
536.72	1050.90
536.89	933.87
537.06	1203.04
537.23	1277.93
537.40	1409.00
537.57	1437.09
537.74	1561.14
537.91	1652.42
538.08	1687.53
538.25	1614.97
538.42	1701.57
538.59	1659.44
538.75	1703.91
538.92	1834.98
539.09	2099.46
539.26	2256.28
539.43	2569.91
539.60	2864.82
539.77	3056.74
539.94	3419.52
540.11	3672.30
540.28	4262.12
540.44	4404.89
540.61	4760.65
540.78	5575.16
540.95	6747.76
541.12	7875.90
541.29	8819.14
541.46	8954.89
541.62	8868.29
541.79	8566.36
541.96	8107.62
542.13	7501.42
542.30	6960.75
542.47	6740.74
542.63	6445.84
542.80	6251.57
542.97	6164.97
543.14	6127.52
543.31	6195.40
543.48	6104.12
543.64	6361.58
543.81	6232.85
543.98	6139.23
544.15	6356.90
544.32	6267.95
544.48	6361.58
544.65	6265.61
544.82	6193.06
544.99	6223.48
545.16	6469.24
545.32	6834.36
545.49	12805.07
545.66	21783.37
545.83	24379.02
546.00	20322.87
546.16	14038.53
546.33	10310.06
546.50	7779.94
546.67	6392.00
546.83	5624.31
547.00	5425.36
547.17	4978.32
547.34	4950.23
547.50	4882.36
547.67	4636.60
547.84	4500.85
548.00	4311.27
548.17	4037.42
548.34	4011.68
548.51	3817.41
548.67	3728.47
548.84	3623.15
549.01	3382.07
549.18	3215.90
549.34	3124.62
549.51	3030.99
549.68	2979.50
549.84	2738.43
550.01	2703.32
550.18	2569.91
550.34	2539.48
550.51	2335.85
550.68	2169.68
550.84	1987.11
551.01	1975.41
551.18	2003.50
551.34	1788.17
551.51	1694.55
551.68	1736.68
551.84	1762.42
552.01	1713.27
552.18	1568.16
552.34	1500.28
552.51	1427.73
552.68	1390.28
552.84	1322.40
553.01	1259.21
553.18	1203.04
553.34	1273.25
553.51	1135.16
553.67	1259.21
553.84	1196.01
554.01	1078.99
554.17	1104.73
554.34	999.41
554.51	983.02
554.67	898.77
554.84	847.27
555.00	842.59
555.17	758.33
555.33	772.38
555.50	765.36
555.67	746.63
555.83	674.07
556.00	664.71
556.16	763.01
556.33	664.71
556.50	573.43
556.66	519.60
556.83	615.56
556.99	538.32
557.16	615.56
557.32	557.05
557.49	472.79
557.65	521.94
557.82	482.15
557.98	482.15
558.15	510.24
558.32	414.27
558.48	472.79
558.65	451.72
558.81	447.04
558.98	444.70
559.14	491.51
559.31	451.72
559.47	491.51
559.64	409.59
559.80	442.36
559.97	430.66
560.13	433.00
560.30	421.30
560.46	393.21
560.63	395.55
560.79	447.04
560.96	414.27
561.12	348.74
561.29	449.38
561.45	388.53
561.61	390.87
561.78	447.04
561.94	376.83
562.11	386.19
562.27	430.66
562.44	416.62
562.60	388.53
562.77	397.89
562.93	540.66
563.10	400.23
563.26	393.21
563.42	369.80
563.59	386.19
563.75	400.23
563.92	430.66
564.08	330.02
564.24	416.62
564.41	433.00
564.57	376.83
564.74	376.83
564.90	395.55
565.07	463.43
565.23	379.17
565.39	243.42
565.56	379.17
565.72	409.59
565.88	404.91
566.05	355.76
566.21	411.93
566.38	334.70
566.54	313.63
566.70	423.64
566.87	374.49
567.03	325.33
567.19	337.04
567.36	451.72
567.52	362.78
567.68	292.57
567.85	425.98
568.01	402.57
568.17	353.42
568.34	362.78
568.50	440.02
568.66	414.27
568.83	414.27
568.99	386.19
569.15	393.21
569.32	315.97
569.48	353.42
569.64	402.57
569.81	269.16
569.97	299.59
570.13	339.38
570.30	358.10
570.46	285.55
570.62	280.86
570.78	306.61
570.95	325.33
571.11	397.89
571.27	365.12
571.43	327.68
571.60	318.31
571.76	372.15
571.92	262.14
572.09	259.80
572.25	334.70
572.41	318.31
572.57	287.89
572.74	386.19
572.90	379.17
573.06	348.74
573.22	318.31
573.38	428.32
573.55	348.74
573.71	285.55
573.87	397.89
574.03	344.06
574.20	301.93
574.36	353.42
574.52	383.85
574.68	306.61
574.84	313.63
575.01	360.44
575.17	433.00
575.33	379.17
575.49	447.04
575.65	503.22
575.82	407.25
575.98	533.64
576.14	496.19
576.30	1006.43
576.46	2902.26
576.62	4231.69
576.79	4208.28
576.95	3105.89
577.11	2104.14
577.27	1544.75
577.43	1060.26
577.59	800.46
577.75	624.92
577.92	615.56
578.08	645.99
578.24	622.58
578.40	992.39
578.56	2609.70
578.72	3737.84
578.88	3992.95
579.04	2963.12
579.21	2057.33
579.37	1724.97
579.53	1357.51
579.69	1306.02
579.85	1626.67
580.01	1741.36
580.17	1572.84
580.33	1542.41
580.49	1301.34
580.65	1132.82
580.82	1062.60
580.98	1029.84
581.14	1057.92
581.30	1121.12
581.46	1181.97
581.62	1268.57
581.78	1352.83
581.94	1458.15
582.10	1366.87
582.26	1565.82
582.42	1544.75
582.58	1614.97
582.74	1652.42
582.90	1743.70
583.06	1741.36
583.22	1678.16
583.38	1827.96
583.54	1755.40
583.70	1764.76
583.86	1708.59
584.02	1554.12
584.18	1736.68
584.34	1657.10
584.50	1717.95
584.66	1638.38
584.82	1540.07
584.98	1453.47
585.14	1469.86
585.30	1570.50
585.46	1549.43
585.62	1416.02
585.78	1425.39
585.94	1385.60
586.10	1572.84
586.26	1533.05
586.42	1666.46
586.58	2001.16
586.74	2614.38
586.90	2899.92
587.06	3087.17
587.22	2963.12
587.38	2780.56
587.54	2363.94
587.70	2132.23
587.86	1802.21
588.02	1544.75
588.18	1455.81
588.34	1261.55
588.49	1196.01
588.65	1130.48
588.81	1121.12
588.97	1001.75
589.13	992.39
589.29	1090.69
589.45	992.39
589.61	987.71
589.77	1046.22
589.93	990.05
590.08	1036.86
590.24	1008.77
590.40	1125.80
590.56	1240.48
590.72	1053.24
590.88	1181.97
591.04	1146.86
591.20	1217.08
591.35	1308.36
591.51	1331.76
591.67	1451.13
591.83	1465.18
591.99	1521.35
592.15	1739.02
592.31	1804.55
592.46	2026.90
592.62	2155.63
592.78	2129.89
592.94	2244.57
593.10	2141.59
593.26	2099.46
593.41	1926.26
593.57	1809.23
593.73	1591.56
593.89	1465.18
594.05	1294.32
594.20	1076.65
594.36	1102.39
594.52	1076.65
594.68	1029.84
594.84	968.98
594.99	903.45
595.15	971.32
595.31	954.94
595.47	945.58
595.62	910.47
595.78	924.51
595.94	821.53
596.10	931.53
596.25	926.85
596.41	945.58
596.57	858.98
596.73	856.64
596.88	854.30
597.04	924.51
597.20	889.40
597.36	978.34
597.51	952.60
597.67	1013.45
597.83	1034.52
597.99	1125.80
598.14	1050.90
598.30	1132.82
598.46	1170.27
598.61	1303.68
598.77	1348.15
598.93	1404.32
599.09	1394.96
599.24	1444.11
599.40	1341.13
599.56	1376.24
599.71	1259.21
599.87	1289.64
600.03	1151.54
600.18	1179.63
600.34	1055.58
600.50	1006.43
600.65	1067.28
600.81	910.47
600.97	854.30
601.12	821.53
601.28	812.17
601.44	723.23
601.59	809.83
601.75	798.12
601.91	685.78
602.06	655.35
602.22	788.76
602.37	615.56
602.53	608.54
602.69	688.12
602.84	711.52
603.00	660.03
603.16	660.03
603.31	706.84
603.47	732.59
603.62	739.61
603.78	674.07
603.94	704.50
604.09	690.46
604.25	772.38
604.40	791.10
604.56	763.01
604.71	685.78
604.87	746.63
605.03	858.98
605.18	774.72
605.34	814.51
605.49	835.57
605.65	772.38
605.80	840.25
605.96	847.27
606.12	905.79
606.27	1055.58
606.43	964.30
606.58	1055.58
606.74	1015.79
606.89	1102.39
607.05	1062.60
607.20	1095.37
607.36	1242.82
607.51	1299.00
607.67	1355.17
607.82	1399.64
607.98	1561.14
608.13	1629.01
608.29	1764.76
608.44	1947.33
608.60	2019.88
608.75	2225.85
608.91	2377.98
609.06	2572.25
609.22	2902.26
609.37	3145.68
609.53	3468.67
609.68	3859.54
609.84	4425.95
609.99	5163.22
610.15	6223.48
610.30	7620.78
610.46	9671.09
610.61	12372.07
610.76	15990.54
610.92	18534.70
611.07	20774.60
611.23	20669.27
611.38	19735.40
611.54	17343.37
611.69	14651.75
611.84	12285.47
612.00	10473.90
612.15	8702.11
612.31	7641.85
612.46	6958.41
612.62	6511.37
612.77	6136.88
612.92	5720.27
613.08	5493.24
613.23	5144.50
613.39	5015.77
613.54	4788.74
613.69	4908.10
613.85	4922.15
614.00	4615.54
614.15	4685.75
614.31	4505.53
614.46	4545.32
614.62	4320.63
614.77	4159.13
614.92	3915.72
615.08	3667.62
615.23	3405.48
615.38	3002.91
615.54	2754.81
615.69	2677.57
615.84	2387.35
616.00	2335.85
616.15	2113.50
616.30	1921.58
616.46	1874.77
616.61	1755.40
616.76	1809.23
616.92	1720.29
617.07	1507.30
617.22	1451.13
617.37	1441.77
617.53	1320.06
617.68	1214.74
617.83	1238.14
617.99	1270.91
618.14	1203.04
618.29	1153.88
618.45	1142.18
618.60	1107.07
618.75	1109.41
618.90	1081.33
619.06	1090.69
619.21	1132.82
619.36	1114.10
619.51	1125.80
619.67	1111.75
619.82	1139.84
619.97	1252.19
620.12	1226.44
620.28	1156.22
620.43	1207.72
620.58	1263.89
620.73	1191.33
620.89	1196.01
621.04	1261.55
621.19	1104.73
621.34	1188.99
621.49	1097.71
621.65	1224.10
621.80	1165.59
621.95	1184.31
622.10	1125.80
622.25	1067.28
622.41	1104.73
622.56	1144.52
622.71	1179.63
622.86	1219.42
623.01	1233.46
623.16	1249.85
623.32	1226.44
623.47	1240.48
623.62	1331.76
623.77	1245.16
623.92	1327.08
624.07	1203.04
624.23	1331.76
624.38	1186.65
624.53	1299.00
624.68	1270.91
624.83	1273.25
624.98	1172.61
625.13	1296.66
625.29	1322.40
625.44	1352.83
625.59	1313.04
625.74	1352.83
625.89	1310.70
626.04	1177.29
626.19	1303.68
626.34	1263.89
626.49	1355.17
626.65	1135.16
626.80	1226.44
626.95	1291.98
627.10	1181.97
627.25	1280.27
627.40	1212.40
627.55	1174.95
627.70	1153.88
627.85	1207.72
628.00	1074.31
628.15	1069.62
628.30	1071.97
628.45	1146.86
628.60	1144.52
628.76	1156.22
628.91	1146.86
629.06	1242.82
629.21	1163.25
629.36	1160.91
629.51	1219.42
629.66	1352.83
629.81	1380.92
629.96	1544.75
630.11	1633.69
630.26	1851.36
630.41	1982.43
630.56	2139.25
630.71	2216.49
630.86	2305.43
631.01	2237.55
631.16	2090.10
631.31	1956.69
631.46	1554.12
631.61	1348.15
631.76	1268.57
631.91	994.73
632.06	802.80
632.21	835.57
632.36	772.38
632.51	685.78
632.66	641.31
632.81	617.90
632.96	660.03
633.10	528.96
633.25	578.11
633.40	500.87
633.55	447.04
633.70	409.59
633.85	524.28
634.00	423.64
634.15	428.32
634.30	425.98
634.45	383.85
634.60	402.57
634.75	482.15
634.90	440.02
635.05	372.15
635.19	351.08
635.34	360.44
635.49	358.10
635.64	433.00
635.79	449.38
635.94	411.93
636.09	337.04
636.24	386.19
636.39	348.74
636.53	414.27
636.68	360.44
636.83	353.42
636.98	414.27
637.13	372.15
637.28	423.64
637.43	437.68
637.57	358.10
637.72	374.49
637.87	411.93
638.02	374.49
638.17	367.46
638.32	400.23
638.46	348.74
638.61	383.85
638.76	337.04
638.91	334.70
639.06	273.84
639.20	358.10
639.35	339.38
639.50	325.33
639.65	383.85
639.80	287.89
639.94	292.57
640.09	322.99
640.24	407.25
640.39	330.02
640.54	315.97
640.68	320.65
640.83	341.72
640.98	358.10
641.13	346.40
641.27	390.87
641.42	304.27
641.57	299.59
641.72	344.06
641.86	322.99
642.01	334.70
642.16	311.29
642.31	330.02
642.45	407.25
642.60	271.50
642.75	355.76
642.90	344.06
643.04	304.27
643.19	271.50
643.34	365.12
643.48	355.76
643.63	353.42
643.78	308.95
643.93	367.46
644.07	322.99
644.22	262.14
644.37	245.76
644.51	250.44
644.66	315.97
644.81	322.99
644.95	304.27
645.10	301.93
645.25	334.70
645.39	283.20
645.54	320.65
645.69	374.49
645.83	297.25
645.98	402.57
646.13	294.91
646.27	313.63
646.42	311.29
646.57	255.12
646.71	365.12
646.86	313.63
647.00	299.59
647.15	315.97
647.30	315.97
647.44	292.57
647.59	273.84
647.74	276.18
647.88	297.25
648.03	299.59
648.17	311.29
648.32	327.68
648.47	273.84
648.61	304.27
648.76	273.84
648.90	341.72
649.05	360.44
649.20	299.59
649.34	376.83
649.49	360.44
649.63	397.89
649.78	430.66
649.92	571.09
650.07	702.16
650.21	758.33
650.36	737.27
650.51	713.86
650.65	741.95
650.80	634.29
650.94	521.94
651.09	505.56
651.23	433.00
651.38	510.24
651.52	397.89
651.67	360.44
651.81	306.61
651.96	402.57
652.10	353.42
652.25	353.42
652.39	348.74
652.54	407.25
652.68	388.53
652.83	409.59
652.97	444.70
653.12	458.74
653.26	407.25
653.41	381.51
653.55	421.30
653.70	344.06
653.84	339.38
653.99	341.72
654.13	339.38
654.27	299.59
654.42	355.76
654.56	297.25
654.71	318.31
654.85	297.25
655.00	234.05
655.14	283.20
655.29	191.92
655.43	348.74
655.57	325.33
655.72	238.73
655.86	299.59
656.01	250.44
656.15	238.73
656.30	327.68
656.44	320.65
656.58	262.14
656.73	290.23
656.87	222.35
657.01	346.40
657.16	308.95
657.30	325.33
657.45	362.78
657.59	308.95
657.73	255.12
657.88	351.08
658.02	381.51
658.16	292.57
658.31	306.61
658.45	339.38
658.60	280.86
658.74	337.04
658.88	278.52
659.03	313.63
659.17	252.78
659.31	290.23
659.46	278.52
659.60	231.71
659.74	231.71
659.89	243.42
660.03	191.92
660.17	344.06
660.32	285.55
660.46	283.20
660.60	203.63
660.74	234.05
660.89	245.76
661.03	308.95
661.17	346.40
661.32	262.14
661.46	278.52
661.60	332.36
661.74	400.23
661.89	456.40
662.03	421.30
662.17	500.87
662.31	489.17
662.46	535.98
662.60	395.55
662.74	409.59
662.88	433.00
663.03	372.15
663.17	330.02
663.31	280.86
663.45	315.97
663.60	285.55
663.74	290.23
663.88	198.95
664.02	222.35
664.17	276.18
664.31	205.97
664.45	245.76
664.59	367.46
664.73	276.18
664.88	257.46
665.02	234.05
665.16	245.76
665.30	285.55
665.44	283.20
665.59	217.67
665.73	290.23
665.87	224.69
666.01	231.71
666.15	182.56
666.29	217.67
666.44	304.27
666.58	262.14
666.72	203.63
666.86	203.63
667.00	327.68
667.14	332.36
667.28	313.63
667.43	304.27
667.57	212.99
667.71	250.44
667.85	266.82
667.99	236.39
668.13	257.46
668.27	215.33
668.41	269.16
668.56	283.20
668.70	227.03
668.84	210.65
668.98	229.37
669.12	283.20
669.26	248.10
669.40	287.89
669.54	170.86
669.68	294.91
669.82	231.71
669.96	187.24
670.10	196.60
670.25	210.65
670.39	191.92
670.53	208.31
670.67	280.86
670.81	201.29
670.95	243.42
671.09	287.89
671.23	259.80
671.37	238.73
671.51	252.78
671.65	264.48
671.79	252.78
671.93	238.73
672.07	294.91
672.21	241.08
672.35	238.73
672.49	191.92
672.63	234.05
672.77	285.55
672.91	250.44
673.05	222.35
673.19	252.78
673.33	175.54
673.47	285.55
673.61	196.60
673.75	224.69
673.89	215.33
674.03	241.08
674.17	184.90
674.31	243.42
674.45	236.39
674.59	236.39
674.73	208.31
674.87	227.03
675.01	266.82
675.15	187.24
675.29	297.25
675.43	255.12
675.56	341.72
675.70	198.95
675.84	182.56
675.98	248.10
676.12	231.71
676.26	285.55
676.40	184.90
676.54	210.65
676.68	250.44
676.82	191.92
676.96	102.98
677.10	196.60
677.23	119.37
677.37	147.45
677.51	184.90
677.65	215.33
677.79	191.92
677.93	161.50
678.07	203.63
678.21	161.50
678.34	152.13
678.48	201.29
678.62	259.80
678.76	156.82
678.90	187.24
679.04	175.54
679.18	203.63
679.31	243.42
679.45	262.14
679.59	229.37
679.73	210.65
679.87	149.79
680.00	215.33
680.14	241.08
680.28	198.95
680.42	198.95
680.56	227.03
680.70	189.58
680.83	264.48
680.97	154.48
681.11	248.10
681.25	201.29
681.39	245.76
681.52	266.82
681.66	276.18
681.80	210.65
681.94	255.12
682.07	210.65
682.21	177.88
682.35	194.26
682.49	180.22
682.62	262.14
682.76	166.18
682.90	217.67
683.04	227.03
683.17	205.97
683.31	266.82
683.45	187.24
683.59	241.08
683.72	187.24
683.86	224.69
684.00	161.50
684.13	231.71
684.27	203.63
684.41	269.16
684.55	163.84
684.68	198.95
684.82	156.82
684.96	191.92
685.09	227.03
685.23	161.50
685.37	112.35
685.50	257.46
685.64	177.88
685.78	142.77
685.91	262.14
686.05	243.42
686.19	187.24
686.32	222.35
686.46	243.42
686.60	196.60
686.73	234.05
686.87	280.86
687.01	266.82
687.14	273.84
687.28	264.48
687.42	318.31
687.55	280.86
687.69	292.57
687.82	283.20
687.96	315.97
688.10	339.38
688.23	217.67
688.37	404.91
688.50	262.14
688.64	238.73
688.78	161.50
688.91	175.54
689.05	180.22
689.18	177.88
689.32	224.69
689.46	177.88
689.59	212.99
689.73	145.11
689.86	152.13
690.00	147.45
690.13	140.43
690.27	187.24
690.41	198.95
690.54	177.88
690.68	170.86
690.81	257.46
690.95	198.95
691.08	128.73
691.22	154.48
691.35	138.09
691.49	72.56
691.62	170.86
691.76	105.32
691.89	145.11
692.03	114.69
692.16	196.60
692.30	163.84
692.43	135.75
692.57	145.11
692.70	98.30
692.84	154.48
692.97	166.18
693.11	198.95
693.24	255.12
693.38	187.24
693.51	184.90
693.65	297.25
693.78	238.73
693.92	236.39
694.05	264.48
694.19	168.52
694.32	250.44
694.45	170.86
694.59	98.30
694.72	147.45
694.86	114.69
694.99	145.11
695.13	105.32
695.26	114.69
695.39	149.79
695.53	210.65
695.66	234.05
695.80	180.22
695.93	161.50
696.07	173.20
696.20	152.13
696.33	124.05
696.47	170.86
696.60	142.77
696.73	126.39
696.87	117.03
697.00	196.60
697.14	98.30
697.27	170.86
697.40	203.63
697.54	191.92
697.67	105.32
697.80	152.13
697.94	119.37
698.07	147.45
698.21	126.39
698.34	161.50
698.47	112.35
698.61	128.73
698.74	173.20
698.87	201.29
699.01	63.19
699.14	112.35
699.27	173.20
699.40	210.65
699.54	93.62
699.67	67.88
699.80	119.37
699.94	88.94
700.07	98.30
700.20	70.22
700.34	170.86
700.47	187.24
700.60	46.81
700.73	145.11
700.87	163.84
701.00	166.18
701.13	58.51
701.26	194.26
701.40	173.20
701.53	159.16
701.66	126.39
701.79	196.60
701.93	128.73
702.06	180.22
702.19	147.45
702.32	163.84
702.46	196.60
702.59	152.13
702.72	161.50
702.85	175.54
702.99	234.05
703.12	138.09
703.25	117.03
703.38	117.03
703.51	142.77
703.65	65.54
703.78	147.45
703.91	173.20
704.04	205.97
704.17	124.05
704.31	180.22
704.44	191.92
704.57	156.82
704.70	159.16
704.83	133.41
704.96	170.86
705.10	212.99
705.23	170.86
>>>>>End Processed Spectral Data<<<<<
