SpectraSuite Data File
++++++++++++++++++++++++++++++++++++
Date: Fri Oct 04 11:41:50 GMT-05:00 2013
User: price-jones
Dark Spectrum Present: No
Reference Spectrum Present: No
Number of Sampled Component Spectra: 1
Spectrometers: USB2+H05261
Integration Time (usec): 100000 (USB2+H05261)
Spectra Averaged: 1 (USB2+H05261)
Boxcar Smoothing: 0 (USB2+H05261)
Correct for Electrical Dark: No (USB2+H05261)
Strobe/Lamp Enabled: No (USB2+H05261)
Correct for Detector Non-linearity: No (USB2+H05261)
Correct for Stray Light: No (USB2+H05261)
Number of Pixels in Processed Spectrum: 2048
>>>>>Begin Processed Spectral Data<<<<<
365.73	30.43
365.92	30.43
366.12	30.43
366.32	0.00
366.52	0.00
366.72	0.00
366.91	0.00
367.11	0.00
367.31	0.00
367.51	0.00
367.70	0.00
367.90	0.00
368.10	0.00
368.30	0.00
368.49	0.00
368.69	0.00
368.89	0.00
369.09	0.00
369.28	0.00
369.48	0.00
369.68	7.02
369.87	30.43
370.07	0.00
370.27	0.00
370.47	0.00
370.66	0.00
370.86	37.45
371.06	60.85
371.25	112.35
371.45	65.54
371.65	58.51
371.84	100.64
372.04	39.79
372.24	156.82
372.44	81.92
372.63	67.88
372.83	105.32
373.03	170.86
373.22	131.07
373.42	126.39
373.62	105.32
373.81	110.01
374.01	189.58
374.21	140.43
374.40	105.32
374.60	145.11
374.79	142.77
374.99	65.54
375.19	81.92
375.38	147.45
375.58	159.16
375.78	175.54
375.97	131.07
376.17	217.67
376.37	86.60
376.56	159.16
376.76	156.82
376.95	131.07
377.15	149.79
377.35	156.82
377.54	77.24
377.74	147.45
377.93	147.45
378.13	180.22
378.33	173.20
378.52	128.73
378.72	79.58
378.91	131.07
379.11	133.41
379.31	117.03
379.50	166.18
379.70	198.95
379.89	147.45
380.09	102.98
380.28	58.51
380.48	145.11
380.68	37.45
380.87	105.32
381.07	56.17
381.26	142.77
381.46	154.48
381.65	156.82
381.85	88.94
382.04	128.73
382.24	121.71
382.43	98.30
382.63	79.58
382.83	114.69
383.02	63.19
383.22	128.73
383.41	72.56
383.61	112.35
383.80	51.49
384.00	107.66
384.19	159.16
384.39	142.77
384.58	107.66
384.78	173.20
384.97	91.28
385.17	67.88
385.36	152.13
385.56	117.03
385.75	182.56
385.95	72.56
386.14	105.32
386.34	159.16
386.53	112.35
386.72	124.05
386.92	168.52
387.11	91.28
387.31	163.84
387.50	95.96
387.70	159.16
387.89	138.09
388.09	49.15
388.28	112.35
388.48	105.32
388.67	248.10
388.86	149.79
389.06	142.77
389.25	152.13
389.45	170.86
389.64	126.39
389.84	131.07
390.03	138.09
390.22	159.16
390.42	152.13
390.61	110.01
390.81	0.00
391.00	100.64
391.19	156.82
391.39	121.71
391.58	98.30
391.78	77.24
391.97	60.85
392.16	44.47
392.36	149.79
392.55	159.16
392.75	126.39
392.94	102.98
393.13	107.66
393.33	147.45
393.52	161.50
393.71	182.56
393.91	51.49
394.10	119.37
394.29	93.62
394.49	88.94
394.68	205.97
394.88	234.05
395.07	161.50
395.26	142.77
395.46	84.26
395.65	110.01
395.84	128.73
396.04	208.31
396.23	91.28
396.42	56.17
396.62	100.64
396.81	187.24
397.00	91.28
397.19	121.71
397.39	91.28
397.58	147.45
397.77	98.30
397.97	121.71
398.16	159.16
398.35	147.45
398.55	51.49
398.74	170.86
398.93	140.43
399.12	117.03
399.32	100.64
399.51	152.13
399.70	154.48
399.90	166.18
400.09	95.96
400.28	119.37
400.47	114.69
400.67	222.35
400.86	100.64
401.05	154.48
401.24	184.90
401.44	203.63
401.63	67.88
401.82	210.65
402.01	149.79
402.21	236.39
402.40	189.58
402.59	159.16
402.78	170.86
402.97	196.60
403.17	191.92
403.36	269.16
403.55	283.20
403.74	732.59
403.93	2101.80
404.13	5149.18
404.32	7155.02
404.51	6129.86
404.70	3777.62
404.89	1533.05
405.09	484.49
405.28	266.82
405.47	187.24
405.66	156.82
405.85	266.82
406.05	205.97
406.24	220.01
406.43	196.60
406.62	180.22
406.81	301.93
407.00	355.76
407.20	531.30
407.39	978.34
407.58	990.05
407.77	737.27
407.96	360.44
408.15	273.84
408.34	271.50
408.54	227.03
408.73	170.86
408.92	184.90
409.11	245.76
409.30	184.90
409.49	161.50
409.68	241.08
409.87	215.33
410.07	168.52
410.26	227.03
410.45	210.65
410.64	175.54
410.83	205.97
411.02	149.79
411.21	177.88
411.40	189.58
411.59	149.79
411.78	168.52
411.98	208.31
412.17	140.43
412.36	177.88
412.55	250.44
412.74	283.20
412.93	276.18
413.12	227.03
413.31	264.48
413.50	168.52
413.69	215.33
413.88	252.78
414.07	224.69
414.26	290.23
414.45	220.01
414.64	175.54
414.83	271.50
415.02	203.63
415.22	285.55
415.41	264.48
415.60	222.35
415.79	292.57
415.98	346.40
416.17	304.27
416.36	290.23
416.55	229.37
416.74	287.89
416.93	292.57
417.12	273.84
417.31	177.88
417.50	208.31
417.69	334.70
417.88	227.03
418.07	252.78
418.26	215.33
418.45	245.76
418.64	397.89
418.83	313.63
419.02	224.69
419.21	203.63
419.39	255.12
419.58	212.99
419.77	271.50
419.96	322.99
420.15	327.68
420.34	250.44
420.53	234.05
420.72	229.37
420.91	278.52
421.10	271.50
421.29	248.10
421.48	222.35
421.67	241.08
421.86	266.82
422.05	283.20
422.24	301.93
422.43	238.73
422.61	248.10
422.80	346.40
422.99	287.89
423.18	259.80
423.37	264.48
423.56	285.55
423.75	229.37
423.94	257.46
424.13	266.82
424.32	262.14
424.50	304.27
424.69	273.84
424.88	313.63
425.07	348.74
425.26	344.06
425.45	255.12
425.64	304.27
425.83	264.48
426.01	334.70
426.20	365.12
426.39	397.89
426.58	325.33
426.77	283.20
426.96	367.46
427.15	257.46
427.33	339.38
427.52	334.70
427.71	337.04
427.90	320.65
428.09	318.31
428.28	395.55
428.46	257.46
428.65	330.02
428.84	390.87
429.03	395.55
429.22	334.70
429.40	327.68
429.59	320.65
429.78	435.34
429.97	334.70
430.16	337.04
430.34	372.15
430.53	348.74
430.72	437.68
430.91	379.17
431.10	355.76
431.28	409.59
431.47	404.91
431.66	407.25
431.85	369.80
432.03	421.30
432.22	447.04
432.41	423.64
432.60	444.70
432.79	388.53
432.97	486.83
433.16	547.69
433.35	550.03
433.54	648.33
433.72	638.97
433.91	650.67
434.10	723.23
434.28	931.53
434.47	1076.65
434.66	1163.25
434.85	1369.21
435.03	3545.91
435.22	13142.11
435.41	30412.92
435.59	32921.98
435.78	21415.90
435.97	10787.53
436.16	4138.07
436.34	1390.28
436.53	793.44
436.72	713.86
436.90	624.92
437.09	636.63
437.28	524.28
437.46	472.79
437.65	505.56
437.84	430.66
438.02	425.98
438.21	444.70
438.40	465.77
438.58	440.02
438.77	479.81
438.96	358.10
439.14	477.47
439.33	496.19
439.52	479.81
439.70	505.56
439.89	456.40
440.08	430.66
440.26	418.96
440.45	447.04
440.63	486.83
440.82	484.49
441.01	454.06
441.19	411.93
441.38	355.76
441.57	498.53
441.75	456.40
441.94	496.19
442.12	493.85
442.31	470.45
442.50	444.70
442.68	472.79
442.87	505.56
443.05	489.17
443.24	505.56
443.43	517.26
443.61	477.47
443.80	383.85
443.98	430.66
444.17	425.98
444.35	503.22
444.54	449.38
444.73	449.38
444.91	493.85
445.10	444.70
445.28	440.02
445.47	428.32
445.65	421.30
445.84	470.45
446.02	433.00
446.21	477.47
446.39	444.70
446.58	475.13
446.77	458.74
446.95	374.49
447.14	482.15
447.32	500.87
447.51	376.83
447.69	521.94
447.88	491.51
448.06	470.45
448.25	447.04
448.43	430.66
448.62	397.89
448.80	379.17
448.99	493.85
449.17	477.47
449.36	360.44
449.54	414.27
449.73	465.77
449.91	510.24
450.10	421.30
450.28	507.90
450.46	437.68
450.65	484.49
450.83	344.06
451.02	477.47
451.20	440.02
451.39	454.06
451.57	402.57
451.76	449.38
451.94	414.27
452.13	404.91
452.31	468.11
452.49	400.23
452.68	489.17
452.86	449.38
453.05	468.11
453.23	493.85
453.42	564.07
453.60	465.77
453.78	477.47
453.97	379.17
454.15	435.34
454.34	395.55
454.52	444.70
454.70	479.81
454.89	428.32
455.07	437.68
455.26	507.90
455.44	475.13
455.62	447.04
455.81	458.74
455.99	479.81
456.17	423.64
456.36	428.32
456.54	435.34
456.73	428.32
456.91	411.93
457.09	430.66
457.28	472.79
457.46	423.64
457.64	440.02
457.83	440.02
458.01	418.96
458.19	423.64
458.38	421.30
458.56	386.19
458.74	437.68
458.93	421.30
459.11	348.74
459.29	437.68
459.48	514.92
459.66	482.15
459.84	472.79
460.03	533.64
460.21	524.28
460.39	477.47
460.57	442.36
460.76	477.47
460.94	479.81
461.12	407.25
461.31	491.51
461.49	482.15
461.67	444.70
461.85	472.79
462.04	428.32
462.22	952.60
462.40	519.60
462.59	470.45
462.77	437.68
462.95	411.93
463.13	423.64
463.32	461.09
463.50	421.30
463.68	498.53
463.86	430.66
464.05	353.42
464.23	505.56
464.41	435.34
464.59	461.09
464.78	454.06
464.96	456.40
465.14	388.53
465.32	470.45
465.50	512.58
465.69	451.72
465.87	372.15
466.05	421.30
466.23	346.40
466.41	484.49
466.60	484.49
466.78	472.79
466.96	461.09
467.14	435.34
467.32	580.45
467.51	521.94
467.69	451.72
467.87	430.66
468.05	442.36
468.23	521.94
468.41	390.87
468.60	418.96
468.78	411.93
468.96	414.27
469.14	468.11
469.32	278.52
469.50	367.46
469.69	440.02
469.87	407.25
470.05	437.68
470.23	376.83
470.41	372.15
470.59	365.12
470.77	425.98
470.95	514.92
471.14	440.02
471.32	313.63
471.50	449.38
471.68	491.51
471.86	484.49
472.04	411.93
472.22	416.62
472.40	397.89
472.58	468.11
472.77	456.40
472.95	428.32
473.13	482.15
473.31	454.06
473.49	383.85
473.67	390.87
473.85	444.70
474.03	451.72
474.21	393.21
474.39	489.17
474.57	468.11
474.75	456.40
474.93	503.22
475.12	299.59
475.30	447.04
475.48	472.79
475.66	463.43
475.84	404.91
476.02	479.81
476.20	444.70
476.38	477.47
476.56	559.39
476.74	372.15
476.92	374.49
477.10	376.83
477.28	451.72
477.46	440.02
477.64	397.89
477.82	458.74
478.00	512.58
478.18	421.30
478.36	456.40
478.54	456.40
478.72	477.47
478.90	407.25
479.08	528.96
479.26	545.34
479.44	557.05
479.62	491.51
479.80	582.79
479.98	587.47
480.16	629.60
480.34	585.13
480.52	730.25
480.70	777.06
480.88	667.05
481.06	746.63
481.24	716.20
481.41	763.01
481.59	826.21
481.77	823.87
481.95	947.92
482.13	1029.84
482.31	1001.75
482.49	1060.26
482.67	1242.82
482.85	1289.64
483.03	1418.36
483.21	1336.45
483.39	1530.71
483.57	1596.25
483.74	1626.67
483.92	1715.61
484.10	1877.11
484.28	1940.30
484.46	2092.44
484.64	2106.48
484.82	2296.07
485.00	2284.36
485.18	2637.78
485.35	2705.66
485.53	2656.51
485.71	2916.31
485.89	2970.14
486.07	3073.12
486.25	3178.45
486.43	3258.03
486.61	3047.38
486.78	3183.13
486.96	3253.34
487.14	3054.40
487.32	3026.31
487.50	3059.08
487.68	2993.55
487.85	3110.57
488.03	3035.67
488.21	3038.02
488.39	2855.45
488.57	2846.09
488.75	2853.11
488.92	2899.92
489.10	2527.78
489.28	2546.50
489.46	2427.14
489.64	2616.72
489.81	2513.74
489.99	2413.09
490.17	2438.84
490.35	2495.01
490.53	2356.92
490.70	2452.88
490.88	2324.15
491.06	2506.71
491.24	2668.21
491.41	2665.87
491.59	2558.21
491.77	2424.80
491.95	2218.83
492.13	2237.55
492.30	2237.55
492.48	2085.42
492.66	1952.01
492.84	2118.18
493.01	2122.87
493.19	1926.26
493.37	2099.46
493.54	1982.43
493.72	1952.01
493.90	1820.94
494.08	1907.54
494.25	1898.17
494.43	1734.34
494.61	1788.17
494.79	1863.07
494.96	1692.21
495.14	1785.83
495.32	1783.49
495.49	1680.50
495.67	1675.82
495.85	1668.80
496.02	1607.95
496.20	1619.65
496.38	1551.78
496.55	1528.37
496.73	1521.35
496.91	1399.64
497.09	1523.69
497.26	1387.94
497.44	1352.83
497.62	1385.60
497.79	1430.07
497.97	1366.87
498.14	1355.17
498.32	1294.32
498.50	1242.82
498.67	1214.74
498.85	1135.16
499.03	1172.61
499.20	1128.14
499.38	1128.14
499.56	1231.12
499.73	1177.29
499.91	1074.31
500.08	971.32
500.26	1039.20
500.44	901.11
500.61	870.68
500.79	877.70
500.97	950.26
501.14	976.00
501.32	910.47
501.49	847.27
501.67	816.85
501.84	758.33
502.02	755.99
502.20	809.83
502.37	802.80
502.55	685.78
502.72	669.39
502.90	758.33
503.07	657.69
503.25	671.73
503.43	669.39
503.60	718.54
503.78	610.88
503.95	540.66
504.13	547.69
504.30	540.66
504.48	648.33
504.65	653.01
504.83	573.43
505.01	559.39
505.18	578.11
505.36	587.47
505.53	543.00
505.71	552.37
505.88	519.60
506.06	517.26
506.23	512.58
506.41	528.96
506.58	552.37
506.76	416.62
506.93	514.92
507.11	437.68
507.28	428.32
507.46	435.34
507.63	468.11
507.81	437.68
507.98	423.64
508.16	561.73
508.33	477.47
508.50	510.24
508.68	557.05
508.85	458.74
509.03	456.40
509.20	519.60
509.38	496.19
509.55	517.26
509.73	528.96
509.90	451.72
510.08	531.30
510.25	540.66
510.42	383.85
510.60	404.91
510.77	503.22
510.95	514.92
511.12	444.70
511.30	395.55
511.47	435.34
511.64	472.79
511.82	449.38
511.99	540.66
512.17	390.87
512.34	386.19
512.51	339.38
512.69	407.25
512.86	479.81
513.04	491.51
513.21	421.30
513.38	454.06
513.56	393.21
513.73	428.32
513.90	409.59
514.08	442.36
514.25	362.78
514.43	411.93
514.60	318.31
514.77	425.98
514.95	360.44
515.12	315.97
515.29	411.93
515.47	367.46
515.64	351.08
515.81	320.65
515.99	381.51
516.16	447.04
516.33	437.68
516.51	407.25
516.68	411.93
516.85	348.74
517.03	404.91
517.20	358.10
517.37	353.42
517.54	402.57
517.72	299.59
517.89	339.38
518.06	313.63
518.24	449.38
518.41	414.27
518.58	407.25
518.75	421.30
518.93	388.53
519.10	374.49
519.27	428.32
519.45	423.64
519.62	355.76
519.79	367.46
519.96	351.08
520.14	383.85
520.31	355.76
520.48	330.02
520.65	330.02
520.83	327.68
521.00	388.53
521.17	472.79
521.34	365.12
521.52	346.40
521.69	351.08
521.86	337.04
522.03	358.10
522.20	435.34
522.38	395.55
522.55	351.08
522.72	318.31
522.89	390.87
523.07	381.51
523.24	367.46
523.41	407.25
523.58	299.59
523.75	315.97
523.92	283.20
524.10	379.17
524.27	304.27
524.44	341.72
524.61	351.08
524.78	337.04
524.96	437.68
525.13	440.02
525.30	458.74
525.47	376.83
525.64	421.30
525.81	318.31
525.98	421.30
526.16	372.15
526.33	404.91
526.50	376.83
526.67	330.02
526.84	444.70
527.01	393.21
527.18	458.74
527.36	533.64
527.53	524.28
527.70	531.30
527.87	458.74
528.04	449.38
528.21	482.15
528.38	372.15
528.55	402.57
528.72	447.04
528.89	482.15
529.07	440.02
529.24	503.22
529.41	423.64
529.58	568.75
529.75	418.96
529.92	498.53
530.09	477.47
530.26	521.94
530.43	519.60
530.60	566.41
530.77	582.79
530.94	524.28
531.11	545.34
531.28	564.07
531.46	589.82
531.63	636.63
531.80	711.52
531.97	767.70
532.14	723.23
532.31	910.47
532.48	1041.54
532.65	1233.46
532.82	1369.21
532.99	1643.06
533.16	1834.98
533.33	2120.53
533.50	1844.34
533.67	1614.97
533.84	1343.47
534.01	1184.31
534.18	1111.75
534.35	1069.62
534.52	1041.54
534.69	1163.25
534.86	1095.37
535.03	1172.61
535.20	1294.32
535.37	1284.95
535.54	1378.58
535.71	1392.62
535.88	1699.23
536.05	1556.46
536.22	1732.00
536.38	1933.28
536.55	2024.56
536.72	2352.24
536.89	2525.44
537.06	2766.51
537.23	3215.90
537.40	3501.44
537.57	3721.45
537.74	3941.46
537.91	4201.26
538.08	4177.86
538.25	4117.00
538.42	4346.37
538.59	4447.02
538.75	4641.28
538.92	4814.48
539.09	5114.07
539.26	5942.62
539.43	6586.27
539.60	7588.02
539.77	8334.65
539.94	9296.61
540.11	10249.21
540.28	11403.09
540.44	12325.26
540.61	13633.62
540.78	15941.39
540.95	19164.31
541.12	22527.66
541.29	25401.83
541.46	26560.40
541.62	26305.28
541.79	25380.77
541.96	23569.19
542.13	21710.81
542.30	20311.17
542.47	19110.47
542.63	18167.24
542.80	17701.47
542.97	17565.72
543.14	17397.20
543.31	17153.79
543.48	17050.80
543.64	17584.44
543.81	17547.00
543.98	17685.09
544.15	18125.11
544.32	18270.22
544.48	17965.95
544.65	17759.98
544.82	17706.15
544.99	18024.47
545.16	18361.50
545.32	19063.66
545.49	31124.44
545.66	54925.35
545.83	61331.40
546.00	57506.96
546.16	43456.73
546.33	32311.10
546.50	24137.94
546.67	18525.34
546.83	16161.40
547.00	15606.69
547.17	14906.87
547.34	14075.98
547.50	13624.26
547.67	13144.45
547.84	12575.70
548.00	12353.35
548.17	11400.75
548.34	11152.65
548.51	10661.14
548.67	10441.13
548.84	9769.40
549.01	9376.19
549.18	9095.32
549.34	8456.36
549.51	8170.81
549.68	7985.91
549.84	7641.85
550.01	7239.28
550.18	6953.73
550.34	6895.22
550.51	6370.94
550.68	6139.23
550.84	5617.29
551.01	5294.29
551.18	5338.76
551.34	4800.44
551.51	4788.74
551.68	4496.17
551.84	4482.13
552.01	4212.96
552.18	3990.61
552.34	3744.86
552.51	3756.56
552.68	3529.53
552.84	3407.82
553.01	3372.71
553.18	3295.47
553.34	3234.62
553.51	3023.97
553.67	2904.60
553.84	2803.96
554.01	2635.44
554.17	2471.61
554.34	2347.56
554.51	2167.34
554.67	2064.35
554.84	1952.01
555.00	1732.00
555.17	1699.23
555.33	1717.95
555.50	1621.99
555.67	1659.44
555.83	1523.69
556.00	1432.41
556.16	1460.49
556.33	1266.23
556.50	1275.59
556.66	1261.55
556.83	1186.65
556.99	1219.42
557.16	1191.33
557.32	1160.91
557.49	1100.05
557.65	1057.92
557.82	985.37
557.98	971.32
558.15	978.34
558.32	992.39
558.48	957.28
558.65	866.00
558.81	931.53
558.98	854.30
559.14	866.00
559.31	791.10
559.47	833.23
559.64	835.57
559.80	851.96
559.97	774.72
560.13	863.66
560.30	713.86
560.46	847.27
560.63	739.61
560.79	709.18
560.96	784.08
561.12	772.38
561.29	828.55
561.45	772.38
561.61	697.48
561.78	856.64
561.94	753.65
562.11	828.55
562.27	802.80
562.44	758.33
562.60	755.99
562.77	704.50
562.93	795.78
563.10	779.40
563.26	699.82
563.42	660.03
563.59	746.63
563.75	655.35
563.92	683.44
564.08	634.29
564.24	636.63
564.41	692.80
564.57	688.12
564.74	631.94
564.90	514.92
565.07	636.63
565.23	571.09
565.39	594.50
565.56	594.50
565.72	535.98
565.88	603.86
566.05	552.37
566.21	624.92
566.38	720.88
566.54	585.13
566.70	620.24
566.87	641.31
567.03	615.56
567.19	603.86
567.36	566.41
567.52	585.13
567.68	608.54
567.85	641.31
568.01	681.10
568.17	606.20
568.34	615.56
568.50	669.39
568.66	589.82
568.83	664.71
568.99	631.94
569.15	575.77
569.32	547.69
569.48	566.41
569.64	589.82
569.81	482.15
569.97	582.79
570.13	582.79
570.30	397.89
570.46	423.64
570.62	463.43
570.78	437.68
570.95	409.59
571.11	454.06
571.27	512.58
571.43	386.19
571.60	484.49
571.76	486.83
571.92	430.66
572.09	444.70
572.25	533.64
572.41	435.34
572.57	402.57
572.74	543.00
572.90	463.43
573.06	451.72
573.22	470.45
573.38	486.83
573.55	528.96
573.71	489.17
573.87	552.37
574.03	444.70
574.20	505.56
574.36	624.92
574.52	617.90
574.68	545.34
574.84	634.29
575.01	620.24
575.17	596.84
575.33	676.41
575.49	709.18
575.65	814.51
575.82	779.40
575.98	945.58
576.14	1029.84
576.30	1919.24
576.46	5973.05
576.62	11864.18
576.79	13064.87
576.95	9221.71
577.11	5951.98
577.27	4060.83
577.43	2743.11
577.59	1790.51
577.75	1427.73
577.92	1329.42
578.08	1303.68
578.24	1427.73
578.40	2167.34
578.56	6097.10
578.72	10937.32
578.88	11714.38
579.04	8772.33
579.21	5870.06
579.37	4425.95
579.53	3522.51
579.69	3351.65
579.85	3976.57
580.01	4678.73
580.17	4533.62
580.33	3826.78
580.49	3377.39
580.65	2911.63
580.82	2729.06
580.98	2677.57
581.14	2722.04
581.30	2829.71
581.46	2832.05
581.62	3187.81
581.78	3485.06
581.94	3864.22
582.10	3960.19
582.26	4170.83
582.42	4341.69
582.58	4451.70
582.74	4435.32
582.90	4479.79
583.06	4643.62
583.22	4510.21
583.38	4615.54
583.54	4498.51
583.70	4432.97
583.86	4409.57
584.02	4198.92
584.18	4238.71
584.34	4119.34
584.50	4100.62
584.66	4023.38
584.82	4028.06
584.98	4011.68
585.14	3906.35
585.30	3817.41
585.46	3730.81
585.62	3695.71
585.78	3838.48
585.94	3850.18
586.10	3899.33
586.26	4198.92
586.42	4709.16
586.58	5654.73
586.74	6773.51
586.90	8021.02
587.06	8872.97
587.22	8835.52
587.38	8039.74
587.54	6874.15
587.70	5914.53
587.86	4870.65
588.02	4184.88
588.18	3815.07
588.34	3449.95
588.49	3014.61
588.65	2860.13
588.81	2745.45
588.97	2509.05
589.13	2534.80
589.29	2534.80
589.45	2539.48
589.61	2537.14
589.77	2499.69
589.93	2459.90
590.08	2649.49
590.24	2745.45
590.40	2644.81
590.56	2841.41
590.72	2895.24
590.88	3019.29
591.04	3073.12
591.20	3323.56
591.35	3363.35
591.51	3456.97
591.67	3625.49
591.83	3857.20
591.99	4121.68
592.15	4519.57
592.31	4861.29
592.46	5195.99
592.62	5762.40
592.78	6113.48
592.94	6270.30
593.10	6258.59
593.26	6022.20
593.41	5570.48
593.57	4901.08
593.73	4468.08
593.89	3812.73
594.05	3356.33
594.20	3023.97
594.36	2834.39
594.52	2600.34
594.68	2612.04
594.84	2548.84
594.99	2319.47
595.15	2335.85
595.31	2251.60
595.47	2237.55
595.62	2284.36
595.78	2434.16
595.94	2375.64
596.10	2317.13
596.25	2265.64
596.41	2267.98
596.57	2258.62
596.73	2298.41
596.88	2204.78
597.04	2183.72
597.20	2331.17
597.36	2354.58
597.51	2499.69
597.67	2417.77
597.83	2588.63
597.99	2724.38
598.14	2834.39
598.30	3047.38
598.46	3136.32
598.61	3365.69
598.77	3588.04
598.93	3761.24
599.09	3721.45
599.24	3896.99
599.40	3777.62
599.56	3716.77
599.71	3487.40
599.87	3290.79
600.03	3143.34
600.18	2841.41
600.34	2803.96
600.50	2438.84
600.65	2401.39
600.81	2359.26
600.97	2148.61
601.12	2047.97
601.28	1961.37
601.44	1844.34
601.59	1802.21
601.75	1694.55
601.91	1502.62
602.06	1605.61
602.22	1561.14
602.37	1568.16
602.53	1472.20
602.69	1544.75
602.84	1488.58
603.00	1486.24
603.16	1472.20
603.31	1469.86
603.47	1603.27
603.62	1577.52
603.78	1617.31
603.94	1643.06
604.09	1607.95
604.25	1935.62
604.40	1771.79
604.56	1783.49
604.71	1722.63
604.87	1743.70
605.03	1846.68
605.18	1818.60
605.34	1952.01
605.49	1994.14
605.65	1989.46
605.80	2024.56
605.96	2153.29
606.12	2237.55
606.27	2258.62
606.43	2469.27
606.58	2523.10
606.74	2523.10
606.89	2843.75
607.05	2881.20
607.20	2909.29
607.36	3014.61
607.51	3293.13
607.67	3496.76
607.82	3733.15
607.98	3978.91
608.13	4329.99
608.29	4760.65
608.44	5146.84
608.60	5416.00
608.75	6045.60
608.91	6670.53
609.06	7265.02
609.22	8030.38
609.37	8636.58
609.53	9921.53
609.68	11002.86
609.84	12952.52
609.99	15185.40
610.15	17956.59
610.30	22141.47
610.46	27908.55
610.61	36268.94
610.76	45177.02
610.92	53076.33
611.07	57045.88
611.23	57996.13
611.38	55957.53
611.54	52189.27
611.69	46103.87
611.84	38710.12
612.00	32189.39
612.15	27152.55
612.31	23833.68
612.46	21018.01
612.62	19634.75
612.77	18677.48
612.92	17326.99
613.08	16400.13
613.23	15330.51
613.39	15019.22
613.54	14534.73
613.69	14572.18
613.85	13832.57
614.00	14132.15
614.15	13614.90
614.31	13818.52
614.46	13427.65
614.62	13144.45
614.77	12198.87
614.92	11314.15
615.08	10677.52
615.23	9886.42
615.38	9111.71
615.54	8154.43
615.69	7513.12
615.84	6899.90
616.00	6417.75
616.15	6043.26
616.30	5617.29
616.46	5310.68
616.61	4952.57
616.76	4685.75
616.92	4447.02
617.07	4241.05
617.22	3936.78
617.37	3794.01
617.53	3655.92
617.68	3398.46
617.83	3337.60
617.99	3400.80
618.14	3358.67
618.29	3213.56
618.45	2944.39
618.60	2930.35
618.75	2977.16
618.90	2885.88
619.06	2843.75
619.21	2850.77
619.36	2928.01
619.51	2843.75
619.67	2782.90
619.82	2979.50
619.97	2991.20
620.12	3084.83
620.28	3052.06
620.43	3206.53
620.58	3215.90
620.73	3112.91
620.89	3262.71
621.04	3016.95
621.19	3162.06
621.34	3038.02
621.49	2979.50
621.65	3066.10
621.80	2906.95
621.95	2871.84
622.10	3073.12
622.25	2946.73
622.41	3110.57
622.56	3052.06
622.71	3185.47
622.86	3248.66
623.01	3353.99
623.16	3412.50
623.32	3337.60
623.47	3403.14
623.62	3279.09
623.77	3410.16
623.92	3597.40
624.07	3375.05
624.23	3419.52
624.38	3365.69
624.53	3272.07
624.68	3463.99
624.83	3517.83
624.98	3529.53
625.13	3503.78
625.29	3424.20
625.44	3485.06
625.59	3527.19
625.74	3454.63
625.89	3447.61
626.04	3454.63
626.19	3496.76
626.34	3454.63
626.49	3440.59
626.65	3468.67
626.80	3463.99
626.95	3269.73
627.10	3337.60
627.25	3309.52
627.40	3194.83
627.55	3066.10
627.70	3098.87
627.85	3136.32
628.00	3019.29
628.15	3080.14
628.30	3169.09
628.45	2974.82
628.60	3094.19
628.76	3068.44
628.91	3063.76
629.06	3059.08
629.21	3220.58
629.36	3239.30
629.51	3384.41
629.66	3501.44
629.81	3772.94
629.96	4067.85
630.11	4369.78
630.26	5170.24
630.41	5720.27
630.56	6305.40
630.71	6649.46
630.86	6693.93
631.01	6572.22
631.16	6064.33
631.31	5668.78
631.46	4812.14
631.61	4004.66
631.76	3445.27
631.91	2881.20
632.06	2363.94
632.21	2106.48
632.36	1877.11
632.51	1750.72
632.66	1486.24
632.81	1409.00
632.96	1334.11
633.10	1167.93
633.25	1226.44
633.40	1231.12
633.55	1153.88
633.70	1128.14
633.85	1004.09
634.00	891.74
634.15	985.37
634.30	954.94
634.45	926.85
634.60	945.58
634.75	894.08
634.90	870.68
635.05	943.24
635.19	844.93
635.34	889.40
635.49	884.72
635.64	765.36
635.79	802.80
635.94	849.61
636.09	725.57
636.24	751.31
636.39	791.10
636.53	835.57
636.68	795.78
636.83	770.04
636.98	809.83
637.13	716.20
637.28	706.84
637.43	718.54
637.57	702.16
637.72	866.00
637.87	753.65
638.02	660.03
638.17	704.50
638.32	638.97
638.46	734.93
638.61	683.44
638.76	629.60
638.91	627.26
639.06	564.07
639.20	688.12
639.35	589.82
639.50	608.54
639.65	678.76
639.80	662.37
639.94	655.35
640.09	561.73
640.24	573.43
640.39	566.41
640.54	608.54
640.68	622.58
640.83	645.99
640.98	571.09
641.13	531.30
641.27	634.29
641.42	594.50
641.57	624.92
641.72	587.47
641.86	559.39
642.01	606.20
642.16	585.13
642.31	603.86
642.45	645.99
642.60	741.95
642.75	613.22
642.90	692.80
643.04	685.78
643.19	622.58
643.34	599.18
643.48	636.63
643.63	615.56
643.78	653.01
643.93	732.59
644.07	620.24
644.22	692.80
644.37	594.50
644.51	615.56
644.66	617.90
644.81	610.88
644.95	753.65
645.10	535.98
645.25	674.07
645.39	667.05
645.54	503.22
645.69	631.94
645.83	554.71
645.98	697.48
646.13	606.20
646.27	594.50
646.42	519.60
646.57	582.79
646.71	545.34
646.86	505.56
647.00	568.75
647.15	533.64
647.30	578.11
647.44	566.41
647.59	540.66
647.74	585.13
647.88	608.54
648.03	660.03
648.17	566.41
648.32	528.96
648.47	627.26
648.61	582.79
648.76	669.39
648.90	634.29
649.05	617.90
649.20	676.41
649.34	730.25
649.49	784.08
649.63	992.39
649.78	1118.78
649.92	1462.83
650.07	1624.33
650.21	1755.40
650.36	1893.49
650.51	1919.24
650.65	1863.07
650.80	1528.37
650.94	1406.66
651.09	1259.21
651.23	1146.86
651.38	1043.88
651.52	940.90
651.67	945.58
651.81	828.55
651.96	875.36
652.10	732.59
652.25	753.65
652.39	767.70
652.54	795.78
652.68	805.14
652.83	873.02
652.97	908.13
653.12	947.92
653.26	901.11
653.41	887.06
653.55	894.08
653.70	791.10
653.84	692.80
653.99	592.16
654.13	730.25
654.27	634.29
654.42	547.69
654.56	582.79
654.71	512.58
654.85	655.35
655.00	592.16
655.14	507.90
655.29	547.69
655.43	624.92
655.57	606.20
655.72	585.13
655.86	603.86
656.01	561.73
656.15	564.07
656.30	491.51
656.44	559.39
656.58	519.60
656.73	594.50
656.87	538.32
657.01	517.26
657.16	622.58
657.30	615.56
657.45	655.35
657.59	648.33
657.73	657.69
657.88	648.33
658.02	732.59
658.16	608.54
658.31	648.33
658.45	528.96
658.60	461.09
658.74	533.64
658.88	514.92
659.03	486.83
659.17	461.09
659.31	411.93
659.46	451.72
659.60	540.66
659.74	456.40
659.89	472.79
660.03	423.64
660.17	475.13
660.32	416.62
660.46	397.89
660.60	390.87
660.74	526.62
660.89	404.91
661.03	491.51
661.17	465.77
661.32	540.66
661.46	648.33
661.60	660.03
661.74	753.65
661.89	863.66
662.03	1008.77
662.17	1053.24
662.31	1111.75
662.46	1111.75
662.60	1053.24
662.74	901.11
662.88	938.55
663.03	763.01
663.17	650.67
663.31	676.41
663.45	645.99
663.60	575.77
663.74	554.71
663.88	505.56
664.02	418.96
664.17	496.19
664.31	437.68
664.45	507.90
664.59	428.32
664.73	444.70
664.88	407.25
665.02	404.91
665.16	463.43
665.30	468.11
665.44	444.70
665.59	421.30
665.73	430.66
665.87	475.13
666.01	468.11
666.15	409.59
666.29	395.55
666.44	444.70
666.58	477.47
666.72	360.44
666.86	407.25
667.00	463.43
667.14	376.83
667.28	409.59
667.43	313.63
667.57	344.06
667.71	418.96
667.85	411.93
667.99	367.46
668.13	362.78
668.27	484.49
668.41	451.72
668.56	344.06
668.70	440.02
668.84	414.27
668.98	383.85
669.12	374.49
669.26	433.00
669.40	421.30
669.54	379.17
669.68	393.21
669.82	367.46
669.96	346.40
670.10	346.40
670.25	367.46
670.39	430.66
670.53	332.36
670.67	327.68
670.81	362.78
670.95	458.74
671.09	341.72
671.23	318.31
671.37	409.59
671.51	388.53
671.65	344.06
671.79	428.32
671.93	241.08
672.07	421.30
672.21	367.46
672.35	358.10
672.49	365.12
672.63	353.42
672.77	308.95
672.91	360.44
673.05	381.51
673.19	276.18
673.33	353.42
673.47	337.04
673.61	369.80
673.75	351.08
673.89	315.97
674.03	308.95
674.17	367.46
674.31	318.31
674.45	348.74
674.59	334.70
674.73	325.33
674.87	367.46
675.01	348.74
675.15	278.52
675.29	374.49
675.43	365.12
675.56	397.89
675.70	334.70
675.84	304.27
675.98	287.89
676.12	304.27
676.26	299.59
676.40	243.42
676.54	334.70
676.68	273.84
676.82	301.93
676.96	262.14
677.10	280.86
677.23	271.50
677.37	299.59
677.51	278.52
677.65	360.44
677.79	210.65
677.93	297.25
678.07	348.74
678.21	287.89
678.34	334.70
678.48	217.67
678.62	257.46
678.76	315.97
678.90	320.65
679.04	252.78
679.18	278.52
679.31	327.68
679.45	224.69
679.59	306.61
679.73	341.72
679.87	243.42
680.00	241.08
680.14	248.10
680.28	315.97
680.42	280.86
680.56	311.29
680.70	313.63
680.83	308.95
680.97	283.20
681.11	397.89
681.25	334.70
681.39	358.10
681.52	322.99
681.66	388.53
681.80	234.05
681.94	311.29
682.07	311.29
682.21	280.86
682.35	278.52
682.49	264.48
682.62	348.74
682.76	264.48
682.90	273.84
683.04	348.74
683.17	341.72
683.31	269.16
683.45	318.31
683.59	297.25
683.72	297.25
683.86	341.72
684.00	229.37
684.13	234.05
684.27	259.80
684.41	283.20
684.55	348.74
684.68	257.46
684.82	269.16
684.96	285.55
685.09	229.37
685.23	351.08
685.37	205.97
685.50	313.63
685.64	320.65
685.78	299.59
685.91	271.50
686.05	334.70
686.19	376.83
686.32	353.42
686.46	416.62
686.60	348.74
686.73	559.39
686.87	592.16
687.01	465.77
687.14	566.41
687.28	615.56
687.42	589.82
687.55	608.54
687.69	671.73
687.82	580.45
687.96	650.67
688.10	568.75
688.23	491.51
688.37	519.60
688.50	524.28
688.64	507.90
688.78	437.68
688.91	395.55
689.05	433.00
689.18	395.55
689.32	327.68
689.46	365.12
689.59	348.74
689.73	337.04
689.86	255.12
690.00	208.31
690.13	189.58
690.27	227.03
690.41	325.33
690.54	318.31
690.68	339.38
690.81	248.10
690.95	271.50
691.08	273.84
691.22	280.86
691.35	180.22
691.49	142.77
691.62	154.48
691.76	117.03
691.89	276.18
692.03	184.90
692.16	177.88
692.30	231.71
692.43	210.65
692.57	93.62
692.70	149.79
692.84	259.80
692.97	273.84
693.11	320.65
693.24	433.00
693.38	379.17
693.51	603.86
693.65	559.39
693.78	468.11
693.92	503.22
694.05	470.45
694.19	418.96
694.32	379.17
694.45	292.57
694.59	250.44
694.72	271.50
694.86	198.95
694.99	243.42
695.13	196.60
695.26	208.31
695.39	163.84
695.53	241.08
695.66	215.33
695.80	262.14
695.93	231.71
696.07	189.58
696.20	220.01
696.33	236.39
696.47	252.78
696.60	191.92
696.73	198.95
696.87	175.54
697.00	215.33
697.14	224.69
697.27	119.37
697.40	250.44
697.54	201.29
697.67	163.84
697.80	196.60
697.94	102.98
698.07	191.92
698.21	102.98
698.34	236.39
698.47	152.13
698.61	72.56
698.74	276.18
698.87	231.71
699.01	91.28
699.14	91.28
699.27	234.05
699.40	271.50
699.54	138.09
699.67	102.98
699.80	112.35
699.94	175.54
700.07	126.39
700.20	194.26
700.34	215.33
700.47	117.03
700.60	110.01
700.73	163.84
700.87	252.78
701.00	208.31
701.13	124.05
701.26	131.07
701.40	121.71
701.53	177.88
701.66	140.43
701.79	135.75
701.93	135.75
702.06	180.22
702.19	259.80
702.32	210.65
702.46	205.97
702.59	128.73
702.72	182.56
702.85	173.20
702.99	184.90
703.12	248.10
703.25	184.90
703.38	238.73
703.51	287.89
703.65	285.55
703.78	189.58
703.91	287.89
704.04	248.10
704.17	252.78
704.31	351.08
704.44	229.37
704.57	266.82
704.70	241.08
704.83	294.91
704.96	238.73
705.10	304.27
705.23	266.82
>>>>>End Processed Spectral Data<<<<<
