SpectraSuite Data File
++++++++++++++++++++++++++++++++++++
Date: Fri Oct 04 11:41:47 GMT-05:00 2013
User: price-jones
Dark Spectrum Present: No
Reference Spectrum Present: No
Number of Sampled Component Spectra: 1
Spectrometers: USB2+H05261
Integration Time (usec): 100000 (USB2+H05261)
Spectra Averaged: 1 (USB2+H05261)
Boxcar Smoothing: 0 (USB2+H05261)
Correct for Electrical Dark: No (USB2+H05261)
Strobe/Lamp Enabled: No (USB2+H05261)
Correct for Detector Non-linearity: No (USB2+H05261)
Correct for Stray Light: No (USB2+H05261)
Number of Pixels in Processed Spectrum: 2048
>>>>>Begin Processed Spectral Data<<<<<
365.73	60.85
365.92	60.85
366.12	60.85
366.32	0.00
366.52	0.00
366.72	0.00
366.91	0.00
367.11	0.00
367.31	0.00
367.51	0.00
367.70	0.00
367.90	0.00
368.10	0.00
368.30	0.00
368.49	0.00
368.69	0.00
368.89	0.00
369.09	0.00
369.28	0.00
369.48	0.00
369.68	21.06
369.87	28.09
370.07	53.83
370.27	9.36
370.47	23.41
370.66	9.36
370.86	35.11
371.06	70.22
371.25	74.90
371.45	53.83
371.65	131.07
371.84	56.17
372.04	79.58
372.24	72.56
372.44	65.54
372.63	128.73
372.83	196.60
373.03	117.03
373.22	119.37
373.42	86.60
373.62	58.51
373.81	105.32
374.01	180.22
374.21	131.07
374.40	117.03
374.60	138.09
374.79	135.75
374.99	133.41
375.19	198.95
375.38	147.45
375.58	105.32
375.78	126.39
375.97	67.88
376.17	149.79
376.37	163.84
376.56	93.62
376.76	74.90
376.95	126.39
377.15	196.60
377.35	121.71
377.54	133.41
377.74	128.73
377.93	208.31
378.13	177.88
378.33	154.48
378.52	121.71
378.72	119.37
378.91	238.73
379.11	63.19
379.31	100.64
379.50	121.71
379.70	133.41
379.89	182.56
380.09	98.30
380.28	95.96
380.48	67.88
380.68	177.88
380.87	121.71
381.07	114.69
381.26	145.11
381.46	114.69
381.65	138.09
381.85	70.22
382.04	95.96
382.24	81.92
382.43	241.08
382.63	86.60
382.83	95.96
383.02	142.77
383.22	170.86
383.41	93.62
383.61	133.41
383.80	81.92
384.00	110.01
384.19	166.18
384.39	126.39
384.58	58.51
384.78	91.28
384.97	110.01
385.17	173.20
385.36	145.11
385.56	70.22
385.75	100.64
385.95	131.07
386.14	161.50
386.34	91.28
386.53	124.05
386.72	140.43
386.92	95.96
387.11	93.62
387.31	154.48
387.50	124.05
387.70	93.62
387.89	133.41
388.09	105.32
388.28	42.13
388.48	117.03
388.67	168.52
388.86	74.90
389.06	98.30
389.25	161.50
389.45	65.54
389.64	131.07
389.84	93.62
390.03	124.05
390.22	121.71
390.42	121.71
390.61	86.60
390.81	147.45
391.00	49.15
391.19	128.73
391.39	60.85
391.58	121.71
391.78	201.29
391.97	227.03
392.16	114.69
392.36	110.01
392.55	98.30
392.75	107.66
392.94	112.35
393.13	126.39
393.33	140.43
393.52	119.37
393.71	168.52
393.91	152.13
394.10	86.60
394.29	175.54
394.49	126.39
394.68	231.71
394.88	74.90
395.07	114.69
395.26	131.07
395.46	126.39
395.65	208.31
395.84	128.73
396.04	152.13
396.23	156.82
396.42	121.71
396.62	161.50
396.81	84.26
397.00	163.84
397.19	170.86
397.39	114.69
397.58	156.82
397.77	105.32
397.97	124.05
398.16	135.75
398.35	152.13
398.55	187.24
398.74	98.30
398.93	81.92
399.12	110.01
399.32	142.77
399.51	88.94
399.70	140.43
399.90	189.58
400.09	126.39
400.28	161.50
400.47	168.52
400.67	131.07
400.86	163.84
401.05	173.20
401.24	224.69
401.44	184.90
401.63	102.98
401.82	107.66
402.01	110.01
402.21	149.79
402.40	205.97
402.59	126.39
402.78	142.77
402.97	100.64
403.17	177.88
403.36	152.13
403.55	198.95
403.74	538.32
403.93	1495.60
404.13	3218.24
404.32	3740.18
404.51	2977.16
404.70	1790.51
404.89	676.41
405.09	332.36
405.28	212.99
405.47	145.11
405.66	184.90
405.85	180.22
406.05	154.48
406.24	227.03
406.43	170.86
406.62	210.65
406.81	180.22
407.00	273.84
407.20	435.34
407.39	550.03
407.58	615.56
407.77	409.59
407.96	308.95
408.15	208.31
408.34	220.01
408.54	156.82
408.73	173.20
408.92	147.45
409.11	131.07
409.30	131.07
409.49	189.58
409.68	154.48
409.87	182.56
410.07	140.43
410.26	79.58
410.45	166.18
410.64	152.13
410.83	210.65
411.02	182.56
411.21	173.20
411.40	121.71
411.59	175.54
411.78	173.20
411.98	227.03
412.17	173.20
412.36	126.39
412.55	182.56
412.74	161.50
412.93	189.58
413.12	175.54
413.31	152.13
413.50	154.48
413.69	217.67
413.88	266.82
414.07	210.65
414.26	140.43
414.45	128.73
414.64	163.84
414.83	203.63
415.02	205.97
415.22	266.82
415.41	170.86
415.60	180.22
415.79	205.97
415.98	191.92
416.17	170.86
416.36	222.35
416.55	159.16
416.74	180.22
416.93	212.99
417.12	133.41
417.31	264.48
417.50	229.37
417.69	248.10
417.88	215.33
418.07	231.71
418.26	234.05
418.45	177.88
418.64	259.80
418.83	217.67
419.02	128.73
419.21	182.56
419.39	173.20
419.58	201.29
419.77	210.65
419.96	135.75
420.15	231.71
420.34	189.58
420.53	215.33
420.72	238.73
420.91	245.76
421.10	173.20
421.29	198.95
421.48	217.67
421.67	227.03
421.86	177.88
422.05	231.71
422.24	152.13
422.43	294.91
422.61	210.65
422.80	182.56
422.99	222.35
423.18	266.82
423.37	238.73
423.56	224.69
423.75	220.01
423.94	259.80
424.13	236.39
424.32	194.26
424.50	194.26
424.69	198.95
424.88	278.52
425.07	259.80
425.26	180.22
425.45	222.35
425.64	299.59
425.83	259.80
426.01	290.23
426.20	217.67
426.39	250.44
426.58	229.37
426.77	231.71
426.96	287.89
427.15	229.37
427.33	210.65
427.52	224.69
427.71	250.44
427.90	189.58
428.09	322.99
428.28	224.69
428.46	278.52
428.65	248.10
428.84	273.84
429.03	234.05
429.22	283.20
429.40	112.35
429.59	180.22
429.78	266.82
429.97	208.31
430.16	205.97
430.34	285.55
430.53	229.37
430.72	278.52
430.91	236.39
431.10	250.44
431.28	276.18
431.47	294.91
431.66	276.18
431.85	299.59
432.03	351.08
432.22	334.70
432.41	313.63
432.60	318.31
432.79	297.25
432.97	285.55
433.16	299.59
433.35	390.87
433.54	339.38
433.72	390.87
433.91	433.00
434.10	425.98
434.28	573.43
434.47	662.37
434.66	606.20
434.85	819.19
435.03	2560.55
435.22	9104.68
435.41	16421.20
435.59	14396.64
435.78	9446.40
435.97	4753.63
436.16	1872.43
436.34	767.70
436.53	456.40
436.72	458.74
436.90	353.42
437.09	402.57
437.28	433.00
437.46	372.15
437.65	341.72
437.84	348.74
438.02	374.49
438.21	362.78
438.40	290.23
438.58	273.84
438.77	322.99
438.96	280.86
439.14	290.23
439.33	402.57
439.52	318.31
439.70	252.78
439.89	299.59
440.08	306.61
440.26	322.99
440.45	257.46
440.63	301.93
440.82	257.46
441.01	276.18
441.19	344.06
441.38	255.12
441.57	301.93
441.75	376.83
441.94	301.93
442.12	332.36
442.31	320.65
442.50	327.68
442.68	381.51
442.87	283.20
443.05	341.72
443.24	292.57
443.43	308.95
443.61	348.74
443.80	278.52
443.98	334.70
444.17	271.50
444.35	346.40
444.54	278.52
444.73	322.99
444.91	374.49
445.10	262.14
445.28	304.27
445.47	280.86
445.65	322.99
445.84	304.27
446.02	304.27
446.21	276.18
446.39	266.82
446.58	311.29
446.77	318.31
446.95	229.37
447.14	322.99
447.32	262.14
447.51	285.55
447.69	360.44
447.88	238.73
448.06	346.40
448.25	388.53
448.43	299.59
448.62	283.20
448.80	332.36
448.99	278.52
449.17	297.25
449.36	273.84
449.54	320.65
449.73	306.61
449.91	369.80
450.10	280.86
450.28	404.91
450.46	259.80
450.65	290.23
450.83	374.49
451.02	330.02
451.20	264.48
451.39	212.99
451.57	299.59
451.76	332.36
451.94	292.57
452.13	360.44
452.31	365.12
452.49	266.82
452.68	276.18
452.86	334.70
453.05	346.40
453.23	259.80
453.42	278.52
453.60	266.82
453.78	278.52
453.97	159.16
454.15	320.65
454.34	257.46
454.52	308.95
454.70	381.51
454.89	229.37
455.07	315.97
455.26	388.53
455.44	362.78
455.62	231.71
455.81	215.33
455.99	344.06
456.17	400.23
456.36	250.44
456.54	252.78
456.73	330.02
456.91	325.33
457.09	257.46
457.28	379.17
457.46	297.25
457.64	355.76
457.83	337.04
458.01	318.31
458.19	346.40
458.38	215.33
458.56	311.29
458.74	320.65
458.93	341.72
459.11	308.95
459.29	311.29
459.48	297.25
459.66	285.55
459.84	299.59
460.03	379.17
460.21	234.05
460.39	227.03
460.57	369.80
460.76	327.68
460.94	306.61
461.12	369.80
461.31	358.10
461.49	292.57
461.67	374.49
461.85	355.76
462.04	283.20
462.22	774.72
462.40	322.99
462.59	341.72
462.77	276.18
462.95	259.80
463.13	320.65
463.32	372.15
463.50	250.44
463.68	210.65
463.86	294.91
464.05	346.40
464.23	362.78
464.41	388.53
464.59	245.76
464.78	252.78
464.96	287.89
465.14	280.86
465.32	301.93
465.50	301.93
465.69	292.57
465.87	255.12
466.05	262.14
466.23	292.57
466.41	297.25
466.60	290.23
466.78	369.80
466.96	344.06
467.14	301.93
467.32	330.02
467.51	355.76
467.69	259.80
467.87	334.70
468.05	276.18
468.23	337.04
468.41	283.20
468.60	311.29
468.78	360.44
468.96	236.39
469.14	318.31
469.32	243.42
469.50	257.46
469.69	257.46
469.87	245.76
470.05	313.63
470.23	327.68
470.41	280.86
470.59	332.36
470.77	301.93
470.95	306.61
471.14	266.82
471.32	318.31
471.50	365.12
471.68	313.63
471.86	301.93
472.04	294.91
472.22	301.93
472.40	285.55
472.58	285.55
472.77	299.59
472.95	243.42
473.13	304.27
473.31	355.76
473.49	297.25
473.67	334.70
473.85	308.95
474.03	243.42
474.21	297.25
474.39	337.04
474.57	301.93
474.75	306.61
474.93	299.59
475.12	259.80
475.30	255.12
475.48	315.97
475.66	348.74
475.84	283.20
476.02	252.78
476.20	325.33
476.38	294.91
476.56	390.87
476.74	313.63
476.92	330.02
477.10	278.52
477.28	318.31
477.46	306.61
477.64	365.12
477.82	299.59
478.00	304.27
478.18	341.72
478.36	276.18
478.54	308.95
478.72	393.21
478.90	315.97
479.08	325.33
479.26	379.17
479.44	327.68
479.62	423.64
479.80	322.99
479.98	390.87
480.16	386.19
480.34	411.93
480.52	395.55
480.70	449.38
480.88	442.36
481.06	472.79
481.24	440.02
481.41	435.34
481.59	517.26
481.77	533.64
481.95	540.66
482.13	580.45
482.31	571.09
482.49	613.22
482.67	716.20
482.85	739.61
483.03	791.10
483.21	812.17
483.39	833.23
483.57	894.08
483.74	997.07
483.92	980.68
484.10	1001.75
484.28	1078.99
484.46	1158.57
484.64	1064.94
484.82	1226.44
485.00	1256.87
485.18	1270.91
485.35	1371.55
485.53	1448.79
485.71	1565.82
485.89	1519.01
486.07	1565.82
486.25	1647.74
486.43	1685.19
486.61	1668.80
486.78	1703.91
486.96	1626.67
487.14	1577.52
487.32	1544.75
487.50	1652.42
487.68	1572.84
487.85	1556.46
488.03	1612.63
488.21	1526.03
488.39	1413.68
488.57	1371.55
488.75	1444.11
488.92	1661.78
489.10	1373.89
489.28	1261.55
489.46	1306.02
489.64	1357.51
489.81	1270.91
489.99	1329.42
490.17	1191.33
490.35	1320.06
490.53	1219.42
490.70	1273.25
490.88	1224.10
491.06	1392.62
491.24	1399.64
491.41	1343.47
491.59	1352.83
491.77	1294.32
491.95	1160.91
492.13	1130.48
492.30	1107.07
492.48	1149.20
492.66	1135.16
492.84	1015.79
493.01	1125.80
493.19	1146.86
493.37	1074.31
493.54	1050.90
493.72	1050.90
493.90	1053.24
494.08	971.32
494.25	1034.52
494.43	945.58
494.61	997.07
494.79	917.49
494.96	940.90
495.14	952.60
495.32	931.53
495.49	842.59
495.67	978.34
495.85	835.57
496.02	891.74
496.20	945.58
496.38	905.79
496.55	835.57
496.73	812.17
496.91	779.40
497.09	887.06
497.26	807.48
497.44	840.25
497.62	807.48
497.79	828.55
497.97	800.46
498.14	720.88
498.32	800.46
498.50	760.67
498.67	744.29
498.85	660.03
499.03	627.26
499.20	606.20
499.38	636.63
499.56	655.35
499.73	657.69
499.91	711.52
500.08	648.33
500.26	622.58
500.44	662.37
500.61	557.05
500.79	535.98
500.97	521.94
501.14	547.69
501.32	521.94
501.49	491.51
501.67	521.94
501.84	472.79
502.02	470.45
502.20	461.09
502.37	531.30
502.55	535.98
502.72	449.38
502.90	463.43
503.07	451.72
503.25	437.68
503.43	463.43
503.60	388.53
503.78	407.25
503.95	395.55
504.13	440.02
504.30	355.76
504.48	430.66
504.65	444.70
504.83	367.46
505.01	346.40
505.18	390.87
505.36	404.91
505.53	320.65
505.71	367.46
505.88	437.68
506.06	327.68
506.23	395.55
506.41	362.78
506.58	294.91
506.76	339.38
506.93	376.83
507.11	351.08
507.28	365.12
507.46	346.40
507.63	358.10
507.81	259.80
507.98	346.40
508.16	379.17
508.33	395.55
508.50	397.89
508.68	355.76
508.85	449.38
509.03	325.33
509.20	376.83
509.38	346.40
509.55	339.38
509.73	346.40
509.90	322.99
510.08	306.61
510.25	358.10
510.42	334.70
510.60	287.89
510.77	327.68
510.95	372.15
511.12	243.42
511.30	376.83
511.47	283.20
511.64	283.20
511.82	374.49
511.99	386.19
512.17	308.95
512.34	315.97
512.51	315.97
512.69	365.12
512.86	304.27
513.04	222.35
513.21	369.80
513.38	353.42
513.56	301.93
513.73	241.08
513.90	269.16
514.08	318.31
514.25	301.93
514.43	304.27
514.60	397.89
514.77	301.93
514.95	250.44
515.12	334.70
515.29	355.76
515.47	285.55
515.64	292.57
515.81	327.68
515.99	369.80
516.16	301.93
516.33	353.42
516.51	234.05
516.68	266.82
516.85	264.48
517.03	257.46
517.20	344.06
517.37	346.40
517.54	341.72
517.72	266.82
517.89	334.70
518.06	278.52
518.24	402.57
518.41	383.85
518.58	313.63
518.75	294.91
518.93	339.38
519.10	287.89
519.27	313.63
519.45	294.91
519.62	297.25
519.79	334.70
519.96	308.95
520.14	301.93
520.31	231.71
520.48	297.25
520.65	238.73
520.83	322.99
521.00	297.25
521.17	250.44
521.34	290.23
521.52	315.97
521.69	304.27
521.86	379.17
522.03	322.99
522.20	308.95
522.38	353.42
522.55	280.86
522.72	290.23
522.89	353.42
523.07	337.04
523.24	325.33
523.41	341.72
523.58	278.52
523.75	285.55
523.92	313.63
524.10	339.38
524.27	337.04
524.44	355.76
524.61	346.40
524.78	262.14
524.96	290.23
525.13	257.46
525.30	372.15
525.47	355.76
525.64	346.40
525.81	414.27
525.98	285.55
526.16	311.29
526.33	327.68
526.50	358.10
526.67	287.89
526.84	330.02
527.01	337.04
527.18	348.74
527.36	379.17
527.53	369.80
527.70	353.42
527.87	388.53
528.04	388.53
528.21	337.04
528.38	322.99
528.55	362.78
528.72	416.62
528.89	395.55
529.07	351.08
529.24	339.38
529.41	451.72
529.58	346.40
529.75	299.59
529.92	383.85
530.09	430.66
530.26	430.66
530.43	397.89
530.60	407.25
530.77	388.53
530.94	402.57
531.11	440.02
531.28	458.74
531.46	423.64
531.63	456.40
531.80	465.77
531.97	440.02
532.14	500.87
532.31	564.07
532.48	557.05
532.65	800.46
532.82	753.65
532.99	964.30
533.16	973.66
533.33	1029.84
533.50	924.51
533.67	884.72
533.84	830.89
534.01	699.82
534.18	606.20
534.35	603.86
534.52	688.12
534.69	807.48
534.86	617.90
535.03	725.57
535.20	734.93
535.37	791.10
535.54	873.02
535.71	772.38
535.88	994.73
536.05	1004.09
536.22	922.17
536.38	1013.45
536.55	1174.95
536.72	1301.34
536.89	1338.79
537.06	1596.25
537.23	1600.93
537.40	1823.28
537.57	1914.56
537.74	1975.41
537.91	2064.35
538.08	2080.74
538.25	2139.25
538.42	2143.93
538.59	2249.25
538.75	2279.68
538.92	2466.92
539.09	2686.94
539.26	2972.48
539.43	3297.81
539.60	3712.09
539.77	4229.35
539.94	4652.98
540.11	5053.22
540.28	5638.35
540.44	6249.23
540.61	6700.95
540.78	7899.31
540.95	9263.84
541.12	10817.96
541.29	11999.93
541.46	12332.28
541.62	12212.92
541.79	11681.61
541.96	11047.33
542.13	9900.47
542.30	9785.78
542.47	9064.89
542.63	8837.86
542.80	8456.36
542.97	8344.01
543.14	8360.39
543.31	8451.67
543.48	8475.08
543.64	8589.77
543.81	8552.32
543.98	8528.91
544.15	8549.98
544.32	8688.07
544.48	8489.12
544.65	8528.91
544.82	8334.65
544.99	8252.73
545.16	8744.24
545.32	9191.28
545.49	17944.89
545.66	30300.58
545.83	32456.21
546.00	26396.56
546.16	18586.19
546.33	13390.20
546.50	10289.00
546.67	8351.03
546.83	7595.04
547.00	7033.31
547.17	6665.85
547.34	6581.59
547.50	6300.72
547.67	6113.48
547.84	5909.85
548.00	5696.86
548.17	5387.91
548.34	5233.44
548.51	5200.67
548.67	5020.45
548.84	4610.86
549.01	4411.91
549.18	4294.88
549.34	4007.00
549.51	4014.02
549.68	3747.20
549.84	3571.66
550.01	3478.04
550.18	3339.94
550.34	3318.88
550.51	3052.06
550.68	2984.18
550.84	2813.32
551.01	2726.72
551.18	2504.37
551.34	2310.11
551.51	2277.34
551.68	2279.68
551.84	2165.00
552.01	2183.72
552.18	1977.75
552.34	1926.26
552.51	1970.73
552.68	1734.34
552.84	1717.95
553.01	1619.65
553.18	1636.03
553.34	1689.87
553.51	1521.35
553.67	1479.22
553.84	1451.13
554.01	1359.85
554.17	1231.12
554.34	1165.59
554.51	1144.52
554.67	1118.78
554.84	976.00
555.00	898.77
555.17	924.51
555.33	976.00
555.50	805.14
555.67	835.57
555.83	777.06
556.00	781.74
556.16	917.49
556.33	758.33
556.50	690.46
556.66	760.67
556.83	664.71
556.99	669.39
557.16	744.29
557.32	662.37
557.49	655.35
557.65	662.37
557.82	573.43
557.98	603.86
558.15	601.52
558.32	545.34
558.48	559.39
558.65	521.94
558.81	519.60
558.98	571.09
559.14	472.79
559.31	505.56
559.47	627.26
559.64	533.64
559.80	500.87
559.97	447.04
560.13	463.43
560.30	507.90
560.46	381.51
560.63	470.45
560.79	468.11
560.96	531.30
561.12	561.73
561.29	526.62
561.45	519.60
561.61	470.45
561.78	545.34
561.94	524.28
562.11	461.09
562.27	500.87
562.44	479.81
562.60	533.64
562.77	440.02
562.93	470.45
563.10	374.49
563.26	451.72
563.42	430.66
563.59	440.02
563.75	477.47
563.92	477.47
564.08	451.72
564.24	411.93
564.41	470.45
564.57	395.55
564.74	407.25
564.90	456.40
565.07	414.27
565.23	470.45
565.39	362.78
565.56	362.78
565.72	379.17
565.88	388.53
566.05	365.12
566.21	383.85
566.38	493.85
566.54	440.02
566.70	454.06
566.87	383.85
567.03	477.47
567.19	440.02
567.36	535.98
567.52	421.30
567.68	355.76
567.85	400.23
568.01	383.85
568.17	440.02
568.34	454.06
568.50	505.56
568.66	372.15
568.83	442.36
568.99	351.08
569.15	386.19
569.32	367.46
569.48	402.57
569.64	355.76
569.81	341.72
569.97	339.38
570.13	376.83
570.30	360.44
570.46	339.38
570.62	344.06
570.78	341.72
570.95	330.02
571.11	325.33
571.27	330.02
571.43	266.82
571.60	355.76
571.76	344.06
571.92	287.89
572.09	341.72
572.25	315.97
572.41	383.85
572.57	299.59
572.74	339.38
572.90	451.72
573.06	440.02
573.22	404.91
573.38	374.49
573.55	362.78
573.71	372.15
573.87	475.13
574.03	404.91
574.20	397.89
574.36	411.93
574.52	325.33
574.68	442.36
574.84	435.34
575.01	355.76
575.17	430.66
575.33	447.04
575.49	505.56
575.65	498.53
575.82	557.05
575.98	624.92
576.14	601.52
576.30	1462.83
576.46	3929.76
576.62	5638.35
576.79	5507.28
576.95	3904.01
577.11	2747.79
577.27	1921.58
577.43	1329.42
577.59	898.77
577.75	784.08
577.92	770.04
578.08	748.97
578.24	751.31
578.40	1540.07
578.56	3908.69
578.72	5088.32
578.88	5245.14
579.04	3803.37
579.21	2581.61
579.37	2017.54
579.53	1605.61
579.69	1701.57
579.85	2001.16
580.01	2260.96
580.17	2146.27
580.33	1891.15
580.49	1645.40
580.65	1549.43
580.82	1409.00
580.98	1345.81
581.14	1341.13
581.30	1554.12
581.46	1519.01
581.62	1694.55
581.78	1753.06
581.94	1928.60
582.10	1984.77
582.26	1982.43
582.42	2157.97
582.58	2085.42
582.74	2143.93
582.90	2195.42
583.06	2235.21
583.22	2242.23
583.38	2235.21
583.54	2193.08
583.70	2162.66
583.86	2183.72
584.02	2244.57
584.18	2277.34
584.34	2148.61
584.50	2143.93
584.66	2010.52
584.82	2073.71
584.98	2066.69
585.14	2047.97
585.30	1968.39
585.46	1921.58
585.62	1816.26
585.78	1907.54
585.94	1837.32
586.10	2017.54
586.26	2097.12
586.42	2399.05
586.58	2878.86
586.74	3391.44
586.90	3838.48
587.06	4084.23
587.22	4074.87
587.38	3566.98
587.54	3227.60
587.70	2583.95
587.86	2209.47
588.02	1860.73
588.18	1776.47
588.34	1739.02
588.49	1441.77
588.65	1378.58
588.81	1350.49
588.97	1324.74
589.13	1296.66
589.29	1296.66
589.45	1235.80
589.61	1287.29
589.77	1289.64
589.93	1238.14
590.08	1329.42
590.24	1352.83
590.40	1413.68
590.56	1488.58
590.72	1432.41
590.88	1420.71
591.04	1502.62
591.20	1645.40
591.35	1696.89
591.51	1795.19
591.67	1743.70
591.83	1956.69
591.99	2108.82
592.15	2122.87
592.31	2401.39
592.46	2612.04
592.62	2850.77
592.78	3068.44
592.94	3066.10
593.10	2911.63
593.26	2738.43
593.41	2583.95
593.57	2298.41
593.73	2069.03
593.89	1849.02
594.05	1699.23
594.20	1521.35
594.36	1430.07
594.52	1357.51
594.68	1280.27
594.84	1296.66
594.99	1308.36
595.15	1240.48
595.31	1203.04
595.47	1191.33
595.62	1235.80
595.78	1193.67
595.94	1123.46
596.10	1249.85
596.25	1165.59
596.41	1203.04
596.57	1144.52
596.73	1118.78
596.88	1109.41
597.04	1114.10
597.20	1226.44
597.36	1181.97
597.51	1221.76
597.67	1249.85
597.83	1427.73
597.99	1399.64
598.14	1446.45
598.30	1488.58
598.46	1568.16
598.61	1750.72
598.77	1774.13
598.93	1703.91
599.09	1783.49
599.24	1781.15
599.40	1870.09
599.56	1748.38
599.71	1636.03
599.87	1678.16
600.03	1446.45
600.18	1458.15
600.34	1387.94
600.50	1231.12
600.65	1151.54
600.81	1212.40
600.97	1025.15
601.12	1062.60
601.28	1104.73
601.44	931.53
601.59	980.68
601.75	990.05
601.91	922.17
602.06	990.05
602.22	952.60
602.37	828.55
602.53	725.57
602.69	802.80
602.84	777.06
603.00	861.32
603.16	903.45
603.31	905.79
603.47	905.79
603.62	905.79
603.78	851.96
603.94	821.53
604.09	835.57
604.25	917.49
604.40	943.24
604.56	875.36
604.71	933.87
604.87	933.87
605.03	961.96
605.18	985.37
605.34	987.71
605.49	1027.50
605.65	1029.84
605.80	1041.54
605.96	1151.54
606.12	1233.46
606.27	1219.42
606.43	1137.50
606.58	1240.48
606.74	1308.36
606.89	1434.75
607.05	1462.83
607.20	1401.98
607.36	1476.88
607.51	1675.82
607.67	1668.80
607.82	1799.87
607.98	1996.48
608.13	2083.08
608.29	2387.35
608.44	2539.48
608.60	2715.02
608.75	2913.97
608.91	3236.96
609.06	3426.54
609.22	3894.65
609.37	4131.05
609.53	4730.22
609.68	5298.97
609.84	6179.01
609.99	6918.62
610.15	8285.50
610.30	10335.81
610.46	13261.48
610.61	17020.38
610.76	21855.92
610.92	25956.54
611.07	28683.27
611.23	28800.29
611.38	27246.18
611.54	23630.05
611.69	19812.63
611.84	16500.78
612.00	13767.03
612.15	11922.69
612.31	10401.34
612.46	9259.16
612.62	8671.68
612.77	8344.01
612.92	7733.13
613.08	7485.03
613.23	7180.76
613.39	6855.43
613.54	6558.18
613.69	6525.41
613.85	6282.00
614.00	6298.38
614.15	6225.82
614.31	6258.59
614.46	6073.69
614.62	5909.85
614.77	5528.35
614.92	5172.58
615.08	4828.53
615.23	4491.49
615.38	4105.30
615.54	3686.34
615.69	3363.35
615.84	3283.77
616.00	3087.17
616.15	2871.84
616.30	2555.86
616.46	2462.24
616.61	2338.20
616.76	2265.64
616.92	2078.40
617.07	1994.14
617.22	1949.67
617.37	1827.96
617.53	1722.63
617.68	1696.89
617.83	1696.89
617.99	1678.16
618.14	1668.80
618.29	1514.33
618.45	1511.99
618.60	1519.01
618.75	1411.34
618.90	1479.22
619.06	1380.92
619.21	1446.45
619.36	1493.26
619.51	1416.02
619.67	1465.18
619.82	1460.49
619.97	1537.73
620.12	1519.01
620.28	1474.54
620.43	1526.03
620.58	1577.52
620.73	1612.63
620.89	1516.67
621.04	1607.95
621.19	1521.35
621.34	1467.52
621.49	1523.69
621.65	1423.05
621.80	1425.39
621.95	1476.88
622.10	1535.39
622.25	1624.33
622.41	1411.34
622.56	1664.12
622.71	1586.88
622.86	1624.33
623.01	1530.71
623.16	1717.95
623.32	1629.01
623.47	1671.14
623.62	1544.75
623.77	1678.16
623.92	1645.40
624.07	1591.56
624.23	1558.80
624.38	1626.67
624.53	1600.93
624.68	1638.38
624.83	1682.85
624.98	1692.21
625.13	1643.06
625.29	1666.46
625.44	1636.03
625.59	1750.72
625.74	1591.56
625.89	1727.32
626.04	1689.87
626.19	1717.95
626.34	1659.44
626.49	1703.91
626.65	1624.33
626.80	1694.55
626.95	1755.40
627.10	1617.31
627.25	1643.06
627.40	1542.41
627.55	1530.71
627.70	1526.03
627.85	1563.48
628.00	1497.94
628.15	1549.43
628.30	1514.33
628.45	1439.43
628.60	1420.71
628.76	1394.96
628.91	1603.27
629.06	1624.33
629.21	1556.46
629.36	1607.95
629.51	1530.71
629.66	1774.13
629.81	1827.96
629.96	2008.18
630.11	2293.72
630.26	2410.75
630.41	2864.82
630.56	2832.05
630.71	3110.57
630.86	3152.70
631.01	2984.18
631.16	2780.56
631.31	2469.27
631.46	2129.89
631.61	1783.49
631.76	1558.80
631.91	1390.28
632.06	1205.38
632.21	1055.58
632.36	868.34
632.51	760.67
632.66	781.74
632.81	732.59
632.96	669.39
633.10	662.37
633.25	730.25
633.40	599.18
633.55	589.82
633.70	564.07
633.85	535.98
634.00	582.79
634.15	575.77
634.30	461.09
634.45	498.53
634.60	482.15
634.75	589.82
634.90	482.15
635.05	566.41
635.19	454.06
635.34	461.09
635.49	463.43
635.64	447.04
635.79	475.13
635.94	479.81
636.09	489.17
636.24	414.27
636.39	442.36
636.53	402.57
636.68	386.19
636.83	477.47
636.98	409.59
637.13	465.77
637.28	510.24
637.43	430.66
637.57	465.77
637.72	440.02
637.87	500.87
638.02	386.19
638.17	433.00
638.32	437.68
638.46	374.49
638.61	409.59
638.76	337.04
638.91	425.98
639.06	433.00
639.20	423.64
639.35	353.42
639.50	416.62
639.65	435.34
639.80	447.04
639.94	421.30
640.09	372.15
640.24	397.89
640.39	402.57
640.54	346.40
640.68	351.08
640.83	397.89
640.98	372.15
641.13	397.89
641.27	402.57
641.42	353.42
641.57	379.17
641.72	456.40
641.86	379.17
642.01	395.55
642.16	465.77
642.31	362.78
642.45	379.17
642.60	320.65
642.75	299.59
642.90	299.59
643.04	299.59
643.19	369.80
643.34	383.85
643.48	304.27
643.63	360.44
643.78	437.68
643.93	449.38
644.07	287.89
644.22	318.31
644.37	395.55
644.51	376.83
644.66	369.80
644.81	327.68
644.95	390.87
645.10	337.04
645.25	372.15
645.39	351.08
645.54	330.02
645.69	421.30
645.83	351.08
645.98	421.30
646.13	344.06
646.27	358.10
646.42	341.72
646.57	337.04
646.71	341.72
646.86	348.74
647.00	416.62
647.15	355.76
647.30	358.10
647.44	334.70
647.59	325.33
647.74	283.20
647.88	351.08
648.03	355.76
648.17	353.42
648.32	376.83
648.47	411.93
648.61	402.57
648.76	334.70
648.90	433.00
649.05	379.17
649.20	393.21
649.34	468.11
649.49	512.58
649.63	550.03
649.78	596.84
649.92	767.70
650.07	816.85
650.21	877.70
650.36	1027.50
650.51	933.87
650.65	866.00
650.80	854.30
650.94	695.14
651.09	648.33
651.23	587.47
651.38	535.98
651.52	559.39
651.67	484.49
651.81	491.51
651.96	425.98
652.10	428.32
652.25	468.11
652.39	503.22
652.54	491.51
652.68	486.83
652.83	489.17
652.97	507.90
653.12	489.17
653.26	435.34
653.41	561.73
653.55	517.26
653.70	423.64
653.84	440.02
653.99	388.53
654.13	395.55
654.27	341.72
654.42	376.83
654.56	402.57
654.71	341.72
654.85	381.51
655.00	273.84
655.14	308.95
655.29	245.76
655.43	393.21
655.57	330.02
655.72	365.12
655.86	379.17
656.01	381.51
656.15	372.15
656.30	344.06
656.44	308.95
656.58	372.15
656.73	311.29
656.87	341.72
657.01	315.97
657.16	381.51
657.30	430.66
657.45	484.49
657.59	383.85
657.73	386.19
657.88	311.29
658.02	404.91
658.16	397.89
658.31	381.51
658.45	362.78
658.60	308.95
658.74	395.55
658.88	297.25
659.03	234.05
659.17	283.20
659.31	269.16
659.46	264.48
659.60	290.23
659.74	262.14
659.89	334.70
660.03	322.99
660.17	327.68
660.32	250.44
660.46	276.18
660.60	264.48
660.74	271.50
660.89	304.27
661.03	248.10
661.17	257.46
661.32	301.93
661.46	393.21
661.60	407.25
661.74	507.90
661.89	463.43
662.03	613.22
662.17	585.13
662.31	564.07
662.46	582.79
662.60	561.73
662.74	528.96
662.88	507.90
663.03	381.51
663.17	451.72
663.31	454.06
663.45	353.42
663.60	292.57
663.74	287.89
663.88	330.02
664.02	318.31
664.17	283.20
664.31	294.91
664.45	271.50
664.59	283.20
664.73	266.82
664.88	304.27
665.02	294.91
665.16	280.86
665.30	280.86
665.44	315.97
665.59	311.29
665.73	255.12
665.87	278.52
666.01	198.95
666.15	322.99
666.29	259.80
666.44	301.93
666.58	311.29
666.72	255.12
666.86	273.84
667.00	322.99
667.14	262.14
667.28	334.70
667.43	255.12
667.57	243.42
667.71	299.59
667.85	346.40
667.99	297.25
668.13	325.33
668.27	217.67
668.41	250.44
668.56	241.08
668.70	292.57
668.84	315.97
668.98	262.14
669.12	245.76
669.26	196.60
669.40	285.55
669.54	182.56
669.68	287.89
669.82	245.76
669.96	257.46
670.10	285.55
670.25	259.80
670.39	241.08
670.53	257.46
670.67	283.20
670.81	203.63
670.95	311.29
671.09	250.44
671.23	325.33
671.37	285.55
671.51	271.50
671.65	236.39
671.79	220.01
671.93	322.99
672.07	308.95
672.21	243.42
672.35	238.73
672.49	229.37
672.63	271.50
672.77	304.27
672.91	241.08
673.05	177.88
673.19	208.31
673.33	175.54
673.47	229.37
673.61	245.76
673.75	236.39
673.89	203.63
674.03	276.18
674.17	227.03
674.31	238.73
674.45	264.48
674.59	234.05
674.73	222.35
674.87	238.73
675.01	173.20
675.15	161.50
675.29	283.20
675.43	280.86
675.56	308.95
675.70	287.89
675.84	198.95
675.98	201.29
676.12	159.16
676.26	248.10
676.40	234.05
676.54	250.44
676.68	262.14
676.82	236.39
676.96	173.20
677.10	201.29
677.23	189.58
677.37	269.16
677.51	198.95
677.65	276.18
677.79	283.20
677.93	276.18
678.07	262.14
678.21	222.35
678.34	248.10
678.48	168.52
678.62	273.84
678.76	196.60
678.90	248.10
679.04	215.33
679.18	196.60
679.31	205.97
679.45	215.33
679.59	217.67
679.73	248.10
679.87	163.84
680.00	222.35
680.14	262.14
680.28	266.82
680.42	264.48
680.56	215.33
680.70	189.58
680.83	229.37
680.97	217.67
681.11	238.73
681.25	252.78
681.39	201.29
681.52	173.20
681.66	315.97
681.80	234.05
681.94	222.35
682.07	255.12
682.21	191.92
682.35	133.41
682.49	215.33
682.62	224.69
682.76	154.48
682.90	215.33
683.04	241.08
683.17	182.56
683.31	175.54
683.45	245.76
683.59	299.59
683.72	234.05
683.86	212.99
684.00	217.67
684.13	273.84
684.27	168.52
684.41	173.20
684.55	177.88
684.68	196.60
684.82	252.78
684.96	257.46
685.09	212.99
685.23	133.41
685.37	283.20
685.50	215.33
685.64	217.67
685.78	278.52
685.91	257.46
686.05	271.50
686.19	205.97
686.32	301.93
686.46	278.52
686.60	276.18
686.73	367.46
686.87	285.55
687.01	259.80
687.14	332.36
687.28	353.42
687.42	369.80
687.55	337.04
687.69	418.96
687.82	313.63
687.96	395.55
688.10	388.53
688.23	304.27
688.37	425.98
688.50	325.33
688.64	248.10
688.78	210.65
688.91	285.55
689.05	154.48
689.18	189.58
689.32	238.73
689.46	156.82
689.59	257.46
689.73	262.14
689.86	271.50
690.00	117.03
690.13	177.88
690.27	79.58
690.41	243.42
690.54	231.71
690.68	220.01
690.81	245.76
690.95	168.52
691.08	229.37
691.22	161.50
691.35	140.43
691.49	138.09
691.62	119.37
691.76	173.20
691.89	215.33
692.03	135.75
692.16	138.09
692.30	161.50
692.43	126.39
692.57	173.20
692.70	201.29
692.84	234.05
692.97	245.76
693.11	217.67
693.24	313.63
693.38	287.89
693.51	271.50
693.65	327.68
693.78	315.97
693.92	252.78
694.05	280.86
694.19	131.07
694.32	259.80
694.45	191.92
694.59	161.50
694.72	145.11
694.86	149.79
694.99	180.22
695.13	126.39
695.26	135.75
695.39	133.41
695.53	184.90
695.66	196.60
695.80	154.48
695.93	201.29
696.07	149.79
696.20	264.48
696.33	147.45
696.47	135.75
696.60	198.95
696.73	131.07
696.87	65.54
697.00	222.35
697.14	124.05
697.27	180.22
697.40	133.41
697.54	222.35
697.67	149.79
697.80	147.45
697.94	107.66
698.07	107.66
698.21	180.22
698.34	205.97
698.47	145.11
698.61	128.73
698.74	194.26
698.87	182.56
699.01	166.18
699.14	175.54
699.27	187.24
699.40	229.37
699.54	170.86
699.67	128.73
699.80	105.32
699.94	110.01
700.07	166.18
700.20	124.05
700.34	140.43
700.47	166.18
700.60	81.92
700.73	180.22
700.87	227.03
701.00	135.75
701.13	156.82
701.26	133.41
701.40	182.56
701.53	147.45
701.66	126.39
701.79	128.73
701.93	126.39
702.06	205.97
702.19	231.71
702.32	149.79
702.46	124.05
702.59	147.45
702.72	121.71
702.85	205.97
702.99	128.73
703.12	191.92
703.25	220.01
703.38	110.01
703.51	175.54
703.65	149.79
703.78	208.31
703.91	210.65
704.04	266.82
704.17	187.24
704.31	236.39
704.44	184.90
704.57	241.08
704.70	154.48
704.83	184.90
704.96	212.99
705.10	194.26
705.23	210.65
>>>>>End Processed Spectral Data<<<<<
