SpectraSuite Data File
++++++++++++++++++++++++++++++++++++
Date: Fri Oct 04 11:42:28 GMT-05:00 2013
User: price-jones
Dark Spectrum Present: No
Reference Spectrum Present: No
Number of Sampled Component Spectra: 1
Spectrometers: USB2+H05261
Integration Time (usec): 100000 (USB2+H05261)
Spectra Averaged: 1 (USB2+H05261)
Boxcar Smoothing: 0 (USB2+H05261)
Correct for Electrical Dark: No (USB2+H05261)
Strobe/Lamp Enabled: No (USB2+H05261)
Correct for Detector Non-linearity: No (USB2+H05261)
Correct for Stray Light: No (USB2+H05261)
Number of Pixels in Processed Spectrum: 2048
>>>>>Begin Processed Spectral Data<<<<<
365.73	0.00
365.92	0.00
366.12	0.00
366.32	0.00
366.52	0.00
366.72	0.00
366.91	0.00
367.11	0.00
367.31	0.00
367.51	0.00
367.70	0.00
367.90	0.00
368.10	0.00
368.30	0.00
368.49	0.00
368.69	0.00
368.89	4.68
369.09	18.72
369.28	0.00
369.48	0.00
369.68	0.00
369.87	14.04
370.07	0.00
370.27	49.15
370.47	23.41
370.66	16.38
370.86	9.36
371.06	28.09
371.25	119.37
371.45	4.68
371.65	65.54
371.84	86.60
372.04	79.58
372.24	53.83
372.44	86.60
372.63	65.54
372.83	208.31
373.03	93.62
373.22	67.88
373.42	135.75
373.62	138.09
373.81	121.71
374.01	65.54
374.21	105.32
374.40	58.51
374.60	145.11
374.79	126.39
374.99	128.73
375.19	133.41
375.38	161.50
375.58	189.58
375.78	88.94
375.97	95.96
376.17	107.66
376.37	88.94
376.56	126.39
376.76	49.15
376.95	32.77
377.15	159.16
377.35	124.05
377.54	86.60
377.74	152.13
377.93	133.41
378.13	88.94
378.33	77.24
378.52	149.79
378.72	72.56
378.91	145.11
379.11	91.28
379.31	147.45
379.50	72.56
379.70	102.98
379.89	93.62
380.09	14.04
380.28	114.69
380.48	21.06
380.68	79.58
380.87	79.58
381.07	95.96
381.26	126.39
381.46	159.16
381.65	98.30
381.85	105.32
382.04	42.13
382.24	102.98
382.43	81.92
382.63	79.58
382.83	121.71
383.02	86.60
383.22	145.11
383.41	107.66
383.61	145.11
383.80	124.05
384.00	53.83
384.19	74.90
384.39	81.92
384.58	42.13
384.78	126.39
384.97	126.39
385.17	95.96
385.36	102.98
385.56	147.45
385.75	67.88
385.95	70.22
386.14	119.37
386.34	124.05
386.53	119.37
386.72	173.20
386.92	138.09
387.11	117.03
387.31	84.26
387.50	91.28
387.70	114.69
387.89	131.07
388.09	72.56
388.28	77.24
388.48	74.90
388.67	42.13
388.86	170.86
389.06	100.64
389.25	102.98
389.45	220.01
389.64	110.01
389.84	154.48
390.03	121.71
390.22	126.39
390.42	126.39
390.61	56.17
390.81	84.26
391.00	49.15
391.19	88.94
391.39	154.48
391.58	124.05
391.78	84.26
391.97	63.19
392.16	72.56
392.36	121.71
392.55	154.48
392.75	98.30
392.94	67.88
393.13	86.60
393.33	91.28
393.52	133.41
393.71	88.94
393.91	91.28
394.10	105.32
394.29	58.51
394.49	91.28
394.68	145.11
394.88	117.03
395.07	105.32
395.26	112.35
395.46	147.45
395.65	205.97
395.84	194.26
396.04	170.86
396.23	187.24
396.42	98.30
396.62	231.71
396.81	124.05
397.00	133.41
397.19	175.54
397.39	173.20
397.58	117.03
397.77	110.01
397.97	128.73
398.16	124.05
398.35	100.64
398.55	119.37
398.74	147.45
398.93	126.39
399.12	119.37
399.32	124.05
399.51	67.88
399.70	105.32
399.90	198.95
400.09	166.18
400.28	234.05
400.47	112.35
400.67	161.50
400.86	46.81
401.05	126.39
401.24	175.54
401.44	173.20
401.63	191.92
401.82	112.35
402.01	63.19
402.21	86.60
402.40	154.48
402.59	121.71
402.78	91.28
402.97	79.58
403.17	212.99
403.36	220.01
403.55	88.94
403.74	187.24
403.93	266.82
404.13	524.28
404.32	638.97
404.51	535.98
404.70	402.57
404.89	229.37
405.09	205.97
405.28	74.90
405.47	112.35
405.66	119.37
405.85	152.13
406.05	67.88
406.24	110.01
406.43	77.24
406.62	140.43
406.81	203.63
407.00	156.82
407.20	238.73
407.39	224.69
407.58	245.76
407.77	163.84
407.96	196.60
408.15	117.03
408.34	128.73
408.54	117.03
408.73	159.16
408.92	140.43
409.11	161.50
409.30	44.47
409.49	81.92
409.68	140.43
409.87	227.03
410.07	126.39
410.26	177.88
410.45	110.01
410.64	142.77
410.83	140.43
411.02	145.11
411.21	124.05
411.40	182.56
411.59	138.09
411.78	81.92
411.98	98.30
412.17	105.32
412.36	74.90
412.55	72.56
412.74	159.16
412.93	133.41
413.12	105.32
413.31	182.56
413.50	154.48
413.69	98.30
413.88	142.77
414.07	105.32
414.26	145.11
414.45	131.07
414.64	170.86
414.83	112.35
415.02	58.51
415.22	149.79
415.41	184.90
415.60	138.09
415.79	112.35
415.98	140.43
416.17	77.24
416.36	114.69
416.55	46.81
416.74	128.73
416.93	152.13
417.12	163.84
417.31	142.77
417.50	131.07
417.69	252.78
417.88	184.90
418.07	121.71
418.26	117.03
418.45	196.60
418.64	222.35
418.83	163.84
419.02	124.05
419.21	147.45
419.39	161.50
419.58	79.58
419.77	215.33
419.96	126.39
420.15	182.56
420.34	131.07
420.53	154.48
420.72	198.95
420.91	168.52
421.10	159.16
421.29	166.18
421.48	135.75
421.67	222.35
421.86	100.64
422.05	91.28
422.24	74.90
422.43	126.39
422.61	72.56
422.80	126.39
422.99	220.01
423.18	224.69
423.37	224.69
423.56	102.98
423.75	86.60
423.94	86.60
424.13	175.54
424.32	145.11
424.50	166.18
424.69	128.73
424.88	149.79
425.07	131.07
425.26	156.82
425.45	156.82
425.64	102.98
425.83	117.03
426.01	170.86
426.20	189.58
426.39	147.45
426.58	154.48
426.77	212.99
426.96	154.48
427.15	187.24
427.33	102.98
427.52	131.07
427.71	149.79
427.90	156.82
428.09	166.18
428.28	112.35
428.46	156.82
428.65	175.54
428.84	156.82
429.03	227.03
429.22	152.13
429.40	110.01
429.59	203.63
429.78	147.45
429.97	131.07
430.16	145.11
430.34	159.16
430.53	112.35
430.72	138.09
430.91	135.75
431.10	163.84
431.28	168.52
431.47	133.41
431.66	180.22
431.85	166.18
432.03	191.92
432.22	173.20
432.41	196.60
432.60	161.50
432.79	182.56
432.97	182.56
433.16	234.05
433.35	140.43
433.54	107.66
433.72	175.54
433.91	170.86
434.10	156.82
434.28	208.31
434.47	187.24
434.66	224.69
434.85	196.60
435.03	486.83
435.22	1465.18
435.41	2506.71
435.59	2377.98
435.78	1762.42
435.97	971.32
436.16	491.51
436.34	236.39
436.53	184.90
436.72	236.39
436.90	236.39
437.09	248.10
437.28	161.50
437.46	187.24
437.65	208.31
437.84	184.90
438.02	177.88
438.21	145.11
438.40	156.82
438.58	145.11
438.77	182.56
438.96	128.73
439.14	133.41
439.33	163.84
439.52	175.54
439.70	248.10
439.89	189.58
440.08	184.90
440.26	191.92
440.45	102.98
440.63	191.92
440.82	227.03
441.01	170.86
441.19	198.95
441.38	222.35
441.57	191.92
441.75	189.58
441.94	236.39
442.12	107.66
442.31	138.09
442.50	222.35
442.68	166.18
442.87	201.29
443.05	234.05
443.24	161.50
443.43	215.33
443.61	215.33
443.80	161.50
443.98	124.05
444.17	121.71
444.35	100.64
444.54	149.79
444.73	208.31
444.91	208.31
445.10	88.94
445.28	86.60
445.47	196.60
445.65	236.39
445.84	98.30
446.02	156.82
446.21	175.54
446.39	161.50
446.58	187.24
446.77	161.50
446.95	131.07
447.14	166.18
447.32	196.60
447.51	205.97
447.69	194.26
447.88	168.52
448.06	224.69
448.25	187.24
448.43	173.20
448.62	173.20
448.80	184.90
448.99	184.90
449.17	166.18
449.36	198.95
449.54	187.24
449.73	215.33
449.91	175.54
450.10	257.46
450.28	198.95
450.46	217.67
450.65	252.78
450.83	149.79
451.02	238.73
451.20	154.48
451.39	180.22
451.57	231.71
451.76	271.50
451.94	234.05
452.13	182.56
452.31	217.67
452.49	203.63
452.68	128.73
452.86	170.86
453.05	262.14
453.23	145.11
453.42	131.07
453.60	128.73
453.78	159.16
453.97	170.86
454.15	161.50
454.34	135.75
454.52	198.95
454.70	215.33
454.89	196.60
455.07	220.01
455.26	196.60
455.44	269.16
455.62	201.29
455.81	215.33
455.99	175.54
456.17	234.05
456.36	187.24
456.54	142.77
456.73	128.73
456.91	173.20
457.09	212.99
457.28	203.63
457.46	196.60
457.64	234.05
457.83	236.39
458.01	145.11
458.19	212.99
458.38	201.29
458.56	177.88
458.74	194.26
458.93	182.56
459.11	110.01
459.29	105.32
459.48	191.92
459.66	250.44
459.84	175.54
460.03	180.22
460.21	212.99
460.39	133.41
460.57	189.58
460.76	248.10
460.94	210.65
461.12	208.31
461.31	229.37
461.49	187.24
461.67	215.33
461.85	161.50
462.04	194.26
462.22	262.14
462.40	154.48
462.59	224.69
462.77	236.39
462.95	173.20
463.13	145.11
463.32	163.84
463.50	210.65
463.68	205.97
463.86	184.90
464.05	210.65
464.23	203.63
464.41	182.56
464.59	163.84
464.78	180.22
464.96	234.05
465.14	142.77
465.32	117.03
465.50	227.03
465.69	194.26
465.87	152.13
466.05	212.99
466.23	117.03
466.41	198.95
466.60	180.22
466.78	161.50
466.96	135.75
467.14	140.43
467.32	234.05
467.51	156.82
467.69	264.48
467.87	215.33
468.05	187.24
468.23	163.84
468.41	161.50
468.60	175.54
468.78	161.50
468.96	245.76
469.14	210.65
469.32	175.54
469.50	159.16
469.69	217.67
469.87	215.33
470.05	156.82
470.23	229.37
470.41	184.90
470.59	161.50
470.77	222.35
470.95	170.86
471.14	236.39
471.32	224.69
471.50	229.37
471.68	222.35
471.86	245.76
472.04	163.84
472.22	170.86
472.40	128.73
472.58	210.65
472.77	177.88
472.95	229.37
473.13	276.18
473.31	248.10
473.49	182.56
473.67	154.48
473.85	191.92
474.03	196.60
474.21	229.37
474.39	224.69
474.57	198.95
474.75	142.77
474.93	159.16
475.12	229.37
475.30	215.33
475.48	184.90
475.66	198.95
475.84	184.90
476.02	140.43
476.20	189.58
476.38	154.48
476.56	243.42
476.74	205.97
476.92	217.67
477.10	170.86
477.28	189.58
477.46	189.58
477.64	238.73
477.82	161.50
478.00	203.63
478.18	212.99
478.36	159.16
478.54	180.22
478.72	175.54
478.90	222.35
479.08	215.33
479.26	191.92
479.44	212.99
479.62	231.71
479.80	166.18
479.98	215.33
480.16	147.45
480.34	227.03
480.52	238.73
480.70	191.92
480.88	189.58
481.06	196.60
481.24	131.07
481.41	119.37
481.59	241.08
481.77	203.63
481.95	227.03
482.13	248.10
482.31	278.52
482.49	255.12
482.67	290.23
482.85	367.46
483.03	273.84
483.21	318.31
483.39	351.08
483.57	315.97
483.74	416.62
483.92	362.78
484.10	285.55
484.28	332.36
484.46	435.34
484.64	362.78
484.82	372.15
485.00	402.57
485.18	404.91
485.35	358.10
485.53	414.27
485.71	463.43
485.89	475.13
486.07	484.49
486.25	561.73
486.43	463.43
486.61	538.32
486.78	496.19
486.96	470.45
487.14	543.00
487.32	505.56
487.50	528.96
487.68	531.30
487.85	505.56
488.03	470.45
488.21	540.66
488.39	465.77
488.57	484.49
488.75	463.43
488.92	786.42
489.10	533.64
489.28	468.11
489.46	442.36
489.64	465.77
489.81	449.38
489.99	451.72
490.17	409.59
490.35	505.56
490.53	386.19
490.70	463.43
490.88	477.47
491.06	500.87
491.24	479.81
491.41	489.17
491.59	524.28
491.77	428.32
491.95	463.43
492.13	425.98
492.30	451.72
492.48	393.21
492.66	484.49
492.84	447.04
493.01	440.02
493.19	425.98
493.37	463.43
493.54	404.91
493.72	386.19
493.90	433.00
494.08	491.51
494.25	418.96
494.43	449.38
494.61	374.49
494.79	348.74
494.96	304.27
495.14	369.80
495.32	351.08
495.49	330.02
495.67	339.38
495.85	418.96
496.02	290.23
496.20	313.63
496.38	365.12
496.55	395.55
496.73	360.44
496.91	416.62
497.09	360.44
497.26	402.57
497.44	379.17
497.62	311.29
497.79	318.31
497.97	325.33
498.14	386.19
498.32	376.83
498.50	290.23
498.67	332.36
498.85	337.04
499.03	318.31
499.20	358.10
499.38	337.04
499.56	266.82
499.73	330.02
499.91	362.78
500.08	339.38
500.26	238.73
500.44	313.63
500.61	245.76
500.79	210.65
500.97	271.50
501.14	304.27
501.32	208.31
501.49	271.50
501.67	231.71
501.84	264.48
502.02	271.50
502.20	325.33
502.37	287.89
502.55	220.01
502.72	276.18
502.90	285.55
503.07	201.29
503.25	196.60
503.43	173.20
503.60	299.59
503.78	248.10
503.95	203.63
504.13	243.42
504.30	212.99
504.48	222.35
504.65	283.20
504.83	241.08
505.01	227.03
505.18	283.20
505.36	266.82
505.53	299.59
505.71	173.20
505.88	283.20
506.06	196.60
506.23	224.69
506.41	276.18
506.58	287.89
506.76	318.31
506.93	266.82
507.11	278.52
507.28	224.69
507.46	252.78
507.63	222.35
507.81	248.10
507.98	227.03
508.16	297.25
508.33	229.37
508.50	212.99
508.68	262.14
508.85	313.63
509.03	234.05
509.20	201.29
509.38	222.35
509.55	290.23
509.73	252.78
509.90	215.33
510.08	224.69
510.25	271.50
510.42	217.67
510.60	194.26
510.77	243.42
510.95	250.44
511.12	248.10
511.30	266.82
511.47	241.08
511.64	292.57
511.82	252.78
511.99	238.73
512.17	135.75
512.34	241.08
512.51	215.33
512.69	229.37
512.86	238.73
513.04	257.46
513.21	269.16
513.38	311.29
513.56	266.82
513.73	234.05
513.90	257.46
514.08	191.92
514.25	215.33
514.43	238.73
514.60	231.71
514.77	238.73
514.95	217.67
515.12	168.52
515.29	222.35
515.47	264.48
515.64	292.57
515.81	220.01
515.99	273.84
516.16	212.99
516.33	299.59
516.51	145.11
516.68	161.50
516.85	227.03
517.03	252.78
517.20	264.48
517.37	266.82
517.54	224.69
517.72	170.86
517.89	198.95
518.06	227.03
518.24	236.39
518.41	231.71
518.58	248.10
518.75	257.46
518.93	215.33
519.10	229.37
519.27	112.35
519.45	212.99
519.62	243.42
519.79	325.33
519.96	262.14
520.14	173.20
520.31	262.14
520.48	297.25
520.65	201.29
520.83	318.31
521.00	238.73
521.17	255.12
521.34	283.20
521.52	196.60
521.69	269.16
521.86	203.63
522.03	236.39
522.20	220.01
522.38	236.39
522.55	252.78
522.72	250.44
522.89	280.86
523.07	238.73
523.24	273.84
523.41	245.76
523.58	264.48
523.75	149.79
523.92	210.65
524.10	210.65
524.27	259.80
524.44	252.78
524.61	241.08
524.78	241.08
524.96	217.67
525.13	248.10
525.30	248.10
525.47	355.76
525.64	299.59
525.81	322.99
525.98	224.69
526.16	250.44
526.33	273.84
526.50	262.14
526.67	304.27
526.84	196.60
527.01	264.48
527.18	205.97
527.36	271.50
527.53	252.78
527.70	241.08
527.87	243.42
528.04	325.33
528.21	212.99
528.38	278.52
528.55	269.16
528.72	315.97
528.89	304.27
529.07	269.16
529.24	280.86
529.41	269.16
529.58	278.52
529.75	280.86
529.92	299.59
530.09	257.46
530.26	388.53
530.43	276.18
530.60	327.68
530.77	236.39
530.94	304.27
531.11	266.82
531.28	238.73
531.46	301.93
531.63	294.91
531.80	334.70
531.97	276.18
532.14	273.84
532.31	280.86
532.48	273.84
532.65	299.59
532.82	318.31
532.99	367.46
533.16	322.99
533.33	386.19
533.50	435.34
533.67	311.29
533.84	269.16
534.01	306.61
534.18	306.61
534.35	388.53
534.52	339.38
534.69	311.29
534.86	294.91
535.03	341.72
535.20	367.46
535.37	451.72
535.54	322.99
535.71	301.93
535.88	383.85
536.05	353.42
536.22	372.15
536.38	362.78
536.55	409.59
536.72	402.57
536.89	435.34
537.06	421.30
537.23	397.89
537.40	468.11
537.57	543.00
537.74	603.86
537.91	599.18
538.08	681.10
538.25	615.56
538.42	650.67
538.59	674.07
538.75	638.97
538.92	653.01
539.09	655.35
539.26	741.95
539.43	894.08
539.60	807.48
539.77	933.87
539.94	940.90
540.11	945.58
540.28	1083.67
540.44	1109.41
540.61	1273.25
540.78	1324.74
540.95	1378.58
541.12	1729.66
541.29	1881.79
541.46	2157.97
541.62	2406.07
541.79	2424.80
541.96	2560.55
542.13	2696.30
542.30	2532.46
542.47	2588.63
542.63	2471.61
542.80	2560.55
542.97	2623.74
543.14	2541.82
543.31	2640.12
543.48	2607.36
543.64	2574.59
543.81	2565.23
543.98	2438.84
544.15	2436.50
544.32	2438.84
544.48	2375.64
544.65	2260.96
544.82	2214.15
544.99	2143.93
545.16	2136.91
545.32	2012.86
545.49	3375.05
545.66	5605.58
545.83	6153.27
546.00	5231.10
546.16	3522.51
546.33	2532.46
546.50	1912.22
546.67	1582.20
546.83	1373.89
547.00	1266.23
547.17	1156.22
547.34	1165.59
547.50	1060.26
547.67	1083.67
547.84	1048.56
548.00	1205.38
548.17	1025.15
548.34	957.28
548.51	1076.65
548.67	1060.26
548.84	1107.07
549.01	1029.84
549.18	1090.69
549.34	1048.56
549.51	1011.11
549.68	908.13
549.84	837.91
550.01	901.11
550.18	868.34
550.34	915.15
550.51	725.57
550.68	833.23
550.84	777.06
551.01	751.31
551.18	697.48
551.34	739.61
551.51	819.19
551.68	662.37
551.84	770.04
552.01	744.29
552.18	746.63
552.34	716.20
552.51	674.07
552.68	634.29
552.84	669.39
553.01	608.54
553.18	650.67
553.34	580.45
553.51	540.66
553.67	521.94
553.84	484.49
554.01	498.53
554.17	503.22
554.34	479.81
554.51	472.79
554.67	402.57
554.84	390.87
555.00	407.25
555.17	362.78
555.33	374.49
555.50	301.93
555.67	313.63
555.83	339.38
556.00	365.12
556.16	510.24
556.33	360.44
556.50	285.55
556.66	334.70
556.83	255.12
556.99	322.99
557.16	294.91
557.32	299.59
557.49	308.95
557.65	346.40
557.82	250.44
557.98	262.14
558.15	205.97
558.32	299.59
558.48	306.61
558.65	227.03
558.81	360.44
558.98	271.50
559.14	362.78
559.31	346.40
559.47	264.48
559.64	290.23
559.80	292.57
559.97	227.03
560.13	294.91
560.30	297.25
560.46	264.48
560.63	294.91
560.79	327.68
560.96	315.97
561.12	271.50
561.29	255.12
561.45	320.65
561.61	250.44
561.78	374.49
561.94	325.33
562.11	294.91
562.27	311.29
562.44	266.82
562.60	334.70
562.77	283.20
562.93	339.38
563.10	280.86
563.26	369.80
563.42	297.25
563.59	306.61
563.75	257.46
563.92	238.73
564.08	320.65
564.24	294.91
564.41	222.35
564.57	191.92
564.74	205.97
564.90	252.78
565.07	257.46
565.23	248.10
565.39	271.50
565.56	283.20
565.72	297.25
565.88	334.70
566.05	245.76
566.21	175.54
566.38	276.18
566.54	283.20
566.70	283.20
566.87	203.63
567.03	227.03
567.19	262.14
567.36	306.61
567.52	264.48
567.68	266.82
567.85	285.55
568.01	290.23
568.17	220.01
568.34	224.69
568.50	280.86
568.66	191.92
568.83	285.55
568.99	257.46
569.15	325.33
569.32	252.78
569.48	217.67
569.64	238.73
569.81	278.52
569.97	252.78
570.13	301.93
570.30	212.99
570.46	264.48
570.62	215.33
570.78	262.14
570.95	212.99
571.11	184.90
571.27	285.55
571.43	234.05
571.60	243.42
571.76	248.10
571.92	217.67
572.09	264.48
572.25	285.55
572.41	177.88
572.57	294.91
572.74	250.44
572.90	248.10
573.06	257.46
573.22	266.82
573.38	369.80
573.55	297.25
573.71	374.49
573.87	339.38
574.03	266.82
574.20	301.93
574.36	351.08
574.52	297.25
574.68	212.99
574.84	264.48
575.01	245.76
575.17	236.39
575.33	313.63
575.49	409.59
575.65	283.20
575.82	311.29
575.98	308.95
576.14	313.63
576.30	468.11
576.46	945.58
576.62	1196.01
576.79	1203.04
576.95	987.71
577.11	730.25
577.27	510.24
577.43	468.11
577.59	440.02
577.75	318.31
577.92	330.02
578.08	348.74
578.24	334.70
578.40	472.79
578.56	926.85
578.72	1146.86
578.88	1158.57
579.04	950.26
579.21	772.38
579.37	603.86
579.53	552.37
579.69	601.52
579.85	645.99
580.01	737.27
580.17	653.01
580.33	631.94
580.49	596.84
580.65	489.17
580.82	564.07
580.98	517.26
581.14	463.43
581.30	557.05
581.46	510.24
581.62	514.92
581.78	557.05
581.94	514.92
582.10	491.51
582.26	622.58
582.42	631.94
582.58	571.09
582.74	786.42
582.90	709.18
583.06	711.52
583.22	763.01
583.38	613.22
583.54	702.16
583.70	779.40
583.86	718.54
584.02	667.05
584.18	732.59
584.34	688.12
584.50	669.39
584.66	641.31
584.82	631.94
584.98	655.35
585.14	559.39
585.30	641.31
585.46	585.13
585.62	650.67
585.78	552.37
585.94	610.88
586.10	582.79
586.26	622.58
586.42	765.36
586.58	713.86
586.74	788.76
586.90	1020.47
587.06	1128.14
587.22	1060.26
587.38	1006.43
587.54	910.47
587.70	774.72
587.86	716.20
588.02	624.92
588.18	709.18
588.34	622.58
588.49	550.03
588.65	500.87
588.81	491.51
588.97	479.81
589.13	463.43
589.29	458.74
589.45	510.24
589.61	454.06
589.77	550.03
589.93	528.96
590.08	538.32
590.24	538.32
590.40	486.83
590.56	566.41
590.72	475.13
590.88	472.79
591.04	514.92
591.20	486.83
591.35	561.73
591.51	489.17
591.67	514.92
591.83	435.34
591.99	578.11
592.15	603.86
592.31	631.94
592.46	699.82
592.62	734.93
592.78	657.69
592.94	718.54
593.10	774.72
593.26	702.16
593.41	657.69
593.57	561.73
593.73	493.85
593.89	535.98
594.05	456.40
594.20	383.85
594.36	374.49
594.52	425.98
594.68	402.57
594.84	355.76
594.99	430.66
595.15	388.53
595.31	425.98
595.47	428.32
595.62	332.36
595.78	353.42
595.94	369.80
596.10	383.85
596.25	334.70
596.41	339.38
596.57	322.99
596.73	341.72
596.88	360.44
597.04	388.53
597.20	376.83
597.36	325.33
597.51	332.36
597.67	365.12
597.83	322.99
597.99	430.66
598.14	435.34
598.30	491.51
598.46	463.43
598.61	514.92
598.77	433.00
598.93	423.64
599.09	482.15
599.24	503.22
599.40	507.90
599.56	503.22
599.71	512.58
599.87	479.81
600.03	353.42
600.18	395.55
600.34	458.74
600.50	334.70
600.65	493.85
600.81	393.21
600.97	327.68
601.12	301.93
601.28	308.95
601.44	294.91
601.59	294.91
601.75	299.59
601.91	341.72
602.06	318.31
602.22	372.15
602.37	334.70
602.53	269.16
602.69	348.74
602.84	231.71
603.00	327.68
603.16	290.23
603.31	313.63
603.47	259.80
603.62	287.89
603.78	283.20
603.94	304.27
604.09	308.95
604.25	372.15
604.40	372.15
604.56	339.38
604.71	332.36
604.87	290.23
605.03	271.50
605.18	337.04
605.34	381.51
605.49	315.97
605.65	320.65
605.80	346.40
605.96	379.17
606.12	318.31
606.27	311.29
606.43	437.68
606.58	430.66
606.74	346.40
606.89	421.30
607.05	369.80
607.20	397.89
607.36	395.55
607.51	451.72
607.67	421.30
607.82	475.13
607.98	557.05
608.13	582.79
608.29	540.66
608.44	627.26
608.60	613.22
608.75	692.80
608.91	697.48
609.06	791.10
609.22	805.14
609.37	870.68
609.53	894.08
609.68	1067.28
609.84	1235.80
609.99	1376.24
610.15	1596.25
610.30	1944.99
610.46	2492.67
610.61	3190.15
610.76	3950.82
610.92	4667.03
611.07	5324.72
611.23	5261.52
611.38	4959.60
611.54	4341.69
611.69	3796.35
611.84	3246.32
612.00	2747.79
612.15	2148.61
612.31	2003.50
612.46	1895.83
612.62	1701.57
612.77	1626.67
612.92	1537.73
613.08	1533.05
613.23	1460.49
613.39	1394.96
613.54	1362.19
613.69	1373.89
613.85	1221.76
614.00	1364.53
614.15	1280.27
614.31	1238.14
614.46	1327.08
614.62	1172.61
614.77	1224.10
614.92	1074.31
615.08	1102.39
615.23	994.73
615.38	915.15
615.54	753.65
615.69	828.55
615.84	753.65
616.00	734.93
616.15	706.84
616.30	648.33
616.46	676.41
616.61	657.69
616.76	608.54
616.92	594.50
617.07	524.28
617.22	477.47
617.37	538.32
617.53	507.90
617.68	545.34
617.83	486.83
617.99	517.26
618.14	486.83
618.29	535.98
618.45	491.51
618.60	416.62
618.75	517.26
618.90	526.62
619.06	454.06
619.21	503.22
619.36	528.96
619.51	493.85
619.67	489.17
619.82	610.88
619.97	559.39
620.12	521.94
620.28	587.47
620.43	510.24
620.58	627.26
620.73	575.77
620.89	533.64
621.04	552.37
621.19	528.96
621.34	430.66
621.49	547.69
621.65	540.66
621.80	538.32
621.95	500.87
622.10	468.11
622.25	402.57
622.41	454.06
622.56	484.49
622.71	514.92
622.86	465.77
623.01	512.58
623.16	479.81
623.32	409.59
623.47	461.09
623.62	477.47
623.77	477.47
623.92	498.53
624.07	451.72
624.23	409.59
624.38	421.30
624.53	489.17
624.68	475.13
624.83	465.77
624.98	507.90
625.13	489.17
625.29	386.19
625.44	421.30
625.59	440.02
625.74	447.04
625.89	465.77
626.04	369.80
626.19	390.87
626.34	444.70
626.49	449.38
626.65	390.87
626.80	437.68
626.95	444.70
627.10	475.13
627.25	407.25
627.40	409.59
627.55	393.21
627.70	386.19
627.85	409.59
628.00	407.25
628.15	355.76
628.30	325.33
628.45	367.46
628.60	379.17
628.76	503.22
628.91	421.30
629.06	367.46
629.21	383.85
629.36	372.15
629.51	442.36
629.66	482.15
629.81	503.22
629.96	498.53
630.11	580.45
630.26	573.43
630.41	697.48
630.56	638.97
630.71	594.50
630.86	594.50
631.01	681.10
631.16	660.03
631.31	620.24
631.46	547.69
631.61	601.52
631.76	482.15
631.91	477.47
632.06	369.80
632.21	280.86
632.36	285.55
632.51	330.02
632.66	334.70
632.81	255.12
632.96	278.52
633.10	285.55
633.25	299.59
633.40	327.68
633.55	271.50
633.70	245.76
633.85	203.63
634.00	163.84
634.15	266.82
634.30	222.35
634.45	198.95
634.60	248.10
634.75	201.29
634.90	271.50
635.05	212.99
635.19	236.39
635.34	306.61
635.49	184.90
635.64	231.71
635.79	152.13
635.94	276.18
636.09	217.67
636.24	236.39
636.39	189.58
636.53	276.18
636.68	229.37
636.83	187.24
636.98	173.20
637.13	194.26
637.28	234.05
637.43	299.59
637.57	297.25
637.72	205.97
637.87	241.08
638.02	203.63
638.17	177.88
638.32	264.48
638.46	248.10
638.61	259.80
638.76	203.63
638.91	248.10
639.06	184.90
639.20	220.01
639.35	351.08
639.50	243.42
639.65	290.23
639.80	182.56
639.94	241.08
640.09	287.89
640.24	250.44
640.39	252.78
640.54	208.31
640.68	189.58
640.83	290.23
640.98	180.22
641.13	224.69
641.27	212.99
641.42	175.54
641.57	243.42
641.72	187.24
641.86	128.73
642.01	163.84
642.16	231.71
642.31	184.90
642.45	227.03
642.60	252.78
642.75	166.18
642.90	255.12
643.04	166.18
643.19	215.33
643.34	187.24
643.48	201.29
643.63	170.86
643.78	212.99
643.93	231.71
644.07	280.86
644.22	149.79
644.37	269.16
644.51	285.55
644.66	208.31
644.81	241.08
644.95	198.95
645.10	173.20
645.25	224.69
645.39	248.10
645.54	177.88
645.69	220.01
645.83	217.67
645.98	346.40
646.13	161.50
646.27	264.48
646.42	194.26
646.57	229.37
646.71	177.88
646.86	161.50
647.00	245.76
647.15	227.03
647.30	220.01
647.44	201.29
647.59	212.99
647.74	222.35
647.88	245.76
648.03	140.43
648.17	250.44
648.32	212.99
648.47	205.97
648.61	215.33
648.76	276.18
648.90	203.63
649.05	198.95
649.20	234.05
649.34	266.82
649.49	236.39
649.63	238.73
649.78	255.12
649.92	262.14
650.07	227.03
650.21	372.15
650.36	306.61
650.51	278.52
650.65	294.91
650.80	276.18
650.94	297.25
651.09	245.76
651.23	290.23
651.38	205.97
651.52	234.05
651.67	180.22
651.81	236.39
651.96	257.46
652.10	191.92
652.25	180.22
652.39	224.69
652.54	217.67
652.68	215.33
652.83	262.14
652.97	243.42
653.12	243.42
653.26	248.10
653.41	217.67
653.55	285.55
653.70	257.46
653.84	163.84
653.99	224.69
654.13	194.26
654.27	301.93
654.42	182.56
654.56	238.73
654.71	175.54
654.85	175.54
655.00	201.29
655.14	177.88
655.29	156.82
655.43	191.92
655.57	170.86
655.72	191.92
655.86	250.44
656.01	175.54
656.15	86.60
656.30	203.63
656.44	156.82
656.58	196.60
656.73	187.24
656.87	110.01
657.01	264.48
657.16	177.88
657.30	156.82
657.45	236.39
657.59	231.71
657.73	210.65
657.88	205.97
658.02	287.89
658.16	290.23
658.31	205.97
658.45	145.11
658.60	170.86
658.74	166.18
658.88	187.24
659.03	203.63
659.17	161.50
659.31	198.95
659.46	105.32
659.60	140.43
659.74	224.69
659.89	170.86
660.03	161.50
660.17	182.56
660.32	156.82
660.46	222.35
660.60	163.84
660.74	147.45
660.89	170.86
661.03	117.03
661.17	128.73
661.32	210.65
661.46	191.92
661.60	255.12
661.74	212.99
661.89	273.84
662.03	203.63
662.17	255.12
662.31	259.80
662.46	248.10
662.60	245.76
662.74	248.10
662.88	360.44
663.03	166.18
663.17	182.56
663.31	196.60
663.45	163.84
663.60	147.45
663.74	124.05
663.88	210.65
664.02	229.37
664.17	173.20
664.31	196.60
664.45	243.42
664.59	166.18
664.73	138.09
664.88	156.82
665.02	182.56
665.16	184.90
665.30	166.18
665.44	184.90
665.59	245.76
665.73	243.42
665.87	217.67
666.01	138.09
666.15	74.90
666.29	217.67
666.44	231.71
666.58	266.82
666.72	215.33
666.86	149.79
667.00	191.92
667.14	227.03
667.28	159.16
667.43	212.99
667.57	135.75
667.71	196.60
667.85	203.63
667.99	290.23
668.13	180.22
668.27	201.29
668.41	159.16
668.56	220.01
668.70	217.67
668.84	203.63
668.98	163.84
669.12	163.84
669.26	191.92
669.40	210.65
669.54	154.48
669.68	170.86
669.82	126.39
669.96	212.99
670.10	156.82
670.25	215.33
670.39	248.10
670.53	154.48
670.67	117.03
670.81	198.95
670.95	140.43
671.09	140.43
671.23	222.35
671.37	191.92
671.51	255.12
671.65	163.84
671.79	149.79
671.93	250.44
672.07	222.35
672.21	259.80
672.35	74.90
672.49	187.24
672.63	234.05
672.77	170.86
672.91	154.48
673.05	177.88
673.19	163.84
673.33	152.13
673.47	175.54
673.61	182.56
673.75	138.09
673.89	105.32
674.03	184.90
674.17	149.79
674.31	128.73
674.45	245.76
674.59	175.54
674.73	128.73
674.87	156.82
675.01	156.82
675.15	156.82
675.29	196.60
675.43	227.03
675.56	175.54
675.70	212.99
675.84	220.01
675.98	154.48
676.12	168.52
676.26	117.03
676.40	100.64
676.54	210.65
676.68	154.48
676.82	170.86
676.96	187.24
677.10	152.13
677.23	168.52
677.37	154.48
677.51	107.66
677.65	187.24
677.79	154.48
677.93	154.48
678.07	166.18
678.21	138.09
678.34	161.50
678.48	149.79
678.62	166.18
678.76	168.52
678.90	227.03
679.04	222.35
679.18	161.50
679.31	168.52
679.45	145.11
679.59	173.20
679.73	180.22
679.87	163.84
680.00	138.09
680.14	180.22
680.28	262.14
680.42	121.71
680.56	117.03
680.70	196.60
680.83	175.54
680.97	147.45
681.11	117.03
681.25	187.24
681.39	177.88
681.52	180.22
681.66	191.92
681.80	191.92
681.94	140.43
682.07	105.32
682.21	126.39
682.35	149.79
682.49	105.32
682.62	93.62
682.76	117.03
682.90	166.18
683.04	245.76
683.17	145.11
683.31	180.22
683.45	145.11
683.59	177.88
683.72	131.07
683.86	215.33
684.00	198.95
684.13	194.26
684.27	138.09
684.41	168.52
684.55	135.75
684.68	191.92
684.82	196.60
684.96	133.41
685.09	156.82
685.23	95.96
685.37	124.05
685.50	173.20
685.64	194.26
685.78	175.54
685.91	121.71
686.05	229.37
686.19	196.60
686.32	121.71
686.46	180.22
686.60	72.56
686.73	142.77
686.87	215.33
687.01	198.95
687.14	149.79
687.28	203.63
687.42	152.13
687.55	124.05
687.69	175.54
687.82	149.79
687.96	182.56
688.10	222.35
688.23	198.95
688.37	210.65
688.50	126.39
688.64	217.67
688.78	110.01
688.91	107.66
689.05	110.01
689.18	147.45
689.32	112.35
689.46	98.30
689.59	177.88
689.73	145.11
689.86	58.51
690.00	198.95
690.13	212.99
690.27	121.71
690.41	131.07
690.54	166.18
690.68	222.35
690.81	110.01
690.95	142.77
691.08	196.60
691.22	145.11
691.35	196.60
691.49	152.13
691.62	110.01
691.76	67.88
691.89	198.95
692.03	117.03
692.16	86.60
692.30	238.73
692.43	166.18
692.57	98.30
692.70	133.41
692.84	166.18
692.97	128.73
693.11	175.54
693.24	163.84
693.38	149.79
693.51	100.64
693.65	222.35
693.78	133.41
693.92	182.56
694.05	138.09
694.19	121.71
694.32	161.50
694.45	131.07
694.59	91.28
694.72	142.77
694.86	126.39
694.99	191.92
695.13	107.66
695.26	84.26
695.39	98.30
695.53	152.13
695.66	98.30
695.80	152.13
695.93	126.39
696.07	114.69
696.20	65.54
696.33	110.01
696.47	145.11
696.60	131.07
696.73	187.24
696.87	180.22
697.00	201.29
697.14	112.35
697.27	227.03
697.40	159.16
697.54	119.37
697.67	119.37
697.80	81.92
697.94	114.69
698.07	145.11
698.21	98.30
698.34	102.98
698.47	147.45
698.61	93.62
698.74	149.79
698.87	119.37
699.01	117.03
699.14	117.03
699.27	107.66
699.40	241.08
699.54	163.84
699.67	102.98
699.80	105.32
699.94	102.98
700.07	163.84
700.20	88.94
700.34	149.79
700.47	117.03
700.60	131.07
700.73	49.15
700.87	170.86
701.00	105.32
701.13	128.73
701.26	170.86
701.40	121.71
701.53	91.28
701.66	138.09
701.79	147.45
701.93	173.20
702.06	215.33
702.19	159.16
702.32	149.79
702.46	98.30
702.59	105.32
702.72	121.71
702.85	102.98
702.99	114.69
703.12	170.86
703.25	152.13
703.38	145.11
703.51	161.50
703.65	168.52
703.78	138.09
703.91	91.28
704.04	156.82
704.17	187.24
704.31	88.94
704.44	182.56
704.57	163.84
704.70	236.39
704.83	147.45
704.96	126.39
705.10	212.99
705.23	163.84
>>>>>End Processed Spectral Data<<<<<
