SpectraSuite Data File
++++++++++++++++++++++++++++++++++++
Date: Fri Oct 04 11:41:51 GMT-05:00 2013
User: price-jones
Dark Spectrum Present: No
Reference Spectrum Present: No
Number of Sampled Component Spectra: 1
Spectrometers: USB2+H05261
Integration Time (usec): 100000 (USB2+H05261)
Spectra Averaged: 1 (USB2+H05261)
Boxcar Smoothing: 0 (USB2+H05261)
Correct for Electrical Dark: No (USB2+H05261)
Strobe/Lamp Enabled: No (USB2+H05261)
Correct for Detector Non-linearity: No (USB2+H05261)
Correct for Stray Light: No (USB2+H05261)
Number of Pixels in Processed Spectrum: 2048
>>>>>Begin Processed Spectral Data<<<<<
365.73	42.13
365.92	42.13
366.12	42.13
366.32	4.68
366.52	9.36
366.72	0.00
366.91	0.00
367.11	0.00
367.31	0.00
367.51	0.00
367.70	0.00
367.90	0.00
368.10	0.00
368.30	0.00
368.49	0.00
368.69	0.00
368.89	0.00
369.09	0.00
369.28	0.00
369.48	0.00
369.68	42.13
369.87	9.36
370.07	11.70
370.27	11.70
370.47	18.72
370.66	44.47
370.86	46.81
371.06	84.26
371.25	60.85
371.45	35.11
371.65	86.60
371.84	102.98
372.04	39.79
372.24	81.92
372.44	81.92
372.63	114.69
372.83	126.39
373.03	105.32
373.22	110.01
373.42	81.92
373.62	49.15
373.81	77.24
374.01	98.30
374.21	208.31
374.40	65.54
374.60	149.79
374.79	177.88
374.99	128.73
375.19	126.39
375.38	149.79
375.58	177.88
375.78	112.35
375.97	168.52
376.17	191.92
376.37	156.82
376.56	166.18
376.76	84.26
376.95	149.79
377.15	140.43
377.35	154.48
377.54	194.26
377.74	65.54
377.93	154.48
378.13	51.49
378.33	126.39
378.52	142.77
378.72	159.16
378.91	138.09
379.11	110.01
379.31	149.79
379.50	138.09
379.70	140.43
379.89	201.29
380.09	124.05
380.28	107.66
380.48	131.07
380.68	60.85
380.87	152.13
381.07	161.50
381.26	112.35
381.46	138.09
381.65	180.22
381.85	110.01
382.04	88.94
382.24	184.90
382.43	67.88
382.63	88.94
382.83	161.50
383.02	93.62
383.22	163.84
383.41	177.88
383.61	168.52
383.80	84.26
384.00	198.95
384.19	65.54
384.39	140.43
384.58	86.60
384.78	180.22
384.97	180.22
385.17	147.45
385.36	154.48
385.56	147.45
385.75	131.07
385.95	177.88
386.14	175.54
386.34	86.60
386.53	166.18
386.72	67.88
386.92	74.90
387.11	60.85
387.31	149.79
387.50	175.54
387.70	133.41
387.89	131.07
388.09	88.94
388.28	133.41
388.48	107.66
388.67	159.16
388.86	156.82
389.06	142.77
389.25	98.30
389.45	117.03
389.64	102.98
389.84	161.50
390.03	149.79
390.22	107.66
390.42	217.67
390.61	112.35
390.81	63.19
391.00	98.30
391.19	173.20
391.39	112.35
391.58	154.48
391.78	149.79
391.97	72.56
392.16	63.19
392.36	84.26
392.55	159.16
392.75	126.39
392.94	102.98
393.13	154.48
393.33	135.75
393.52	131.07
393.71	84.26
393.91	91.28
394.10	72.56
394.29	98.30
394.49	133.41
394.68	173.20
394.88	198.95
395.07	187.24
395.26	140.43
395.46	180.22
395.65	86.60
395.84	142.77
396.04	170.86
396.23	117.03
396.42	187.24
396.62	175.54
396.81	110.01
397.00	124.05
397.19	163.84
397.39	159.16
397.58	217.67
397.77	147.45
397.97	112.35
398.16	131.07
398.35	70.22
398.55	105.32
398.74	156.82
398.93	81.92
399.12	140.43
399.32	156.82
399.51	210.65
399.70	156.82
399.90	100.64
400.09	142.77
400.28	222.35
400.47	140.43
400.67	173.20
400.86	201.29
401.05	154.48
401.24	170.86
401.44	180.22
401.63	187.24
401.82	210.65
402.01	175.54
402.21	194.26
402.40	161.50
402.59	231.71
402.78	187.24
402.97	191.92
403.17	248.10
403.36	269.16
403.55	337.04
403.74	725.57
403.93	2230.53
404.13	5685.16
404.32	8479.76
404.51	8088.89
404.70	4978.32
404.89	1795.19
405.09	575.77
405.28	334.70
405.47	269.16
405.66	203.63
405.85	231.71
406.05	248.10
406.24	224.69
406.43	278.52
406.62	189.58
406.81	255.12
407.00	311.29
407.20	772.38
407.39	1062.60
407.58	1203.04
407.77	908.13
407.96	524.28
408.15	236.39
408.34	315.97
408.54	255.12
408.73	238.73
408.92	203.63
409.11	210.65
409.30	187.24
409.49	88.94
409.68	212.99
409.87	191.92
410.07	107.66
410.26	168.52
410.45	191.92
410.64	227.03
410.83	203.63
411.02	210.65
411.21	131.07
411.40	276.18
411.59	269.16
411.78	215.33
411.98	173.20
412.17	231.71
412.36	250.44
412.55	222.35
412.74	269.16
412.93	322.99
413.12	234.05
413.31	320.65
413.50	269.16
413.69	222.35
413.88	264.48
414.07	262.14
414.26	252.78
414.45	285.55
414.64	255.12
414.83	236.39
415.02	299.59
415.22	243.42
415.41	308.95
415.60	220.01
415.79	196.60
415.98	285.55
416.17	266.82
416.36	304.27
416.55	271.50
416.74	276.18
416.93	334.70
417.12	315.97
417.31	266.82
417.50	325.33
417.69	304.27
417.88	269.16
418.07	245.76
418.26	236.39
418.45	262.14
418.64	266.82
418.83	220.01
419.02	327.68
419.21	313.63
419.39	315.97
419.58	255.12
419.77	304.27
419.96	292.57
420.15	344.06
420.34	294.91
420.53	280.86
420.72	376.83
420.91	248.10
421.10	334.70
421.29	276.18
421.48	334.70
421.67	269.16
421.86	297.25
422.05	341.72
422.24	248.10
422.43	381.51
422.61	304.27
422.80	285.55
422.99	322.99
423.18	315.97
423.37	365.12
423.56	383.85
423.75	341.72
423.94	285.55
424.13	271.50
424.32	285.55
424.50	381.51
424.69	383.85
424.88	404.91
425.07	330.02
425.26	393.21
425.45	383.85
425.64	374.49
425.83	353.42
426.01	369.80
426.20	411.93
426.39	318.31
426.58	290.23
426.77	341.72
426.96	400.23
427.15	379.17
427.33	315.97
427.52	294.91
427.71	418.96
427.90	383.85
428.09	290.23
428.28	374.49
428.46	437.68
428.65	414.27
428.84	535.98
429.03	414.27
429.22	369.80
429.40	351.08
429.59	388.53
429.78	404.91
429.97	381.51
430.16	456.40
430.34	449.38
430.53	425.98
430.72	500.87
430.91	461.09
431.10	416.62
431.28	447.04
431.47	582.79
431.66	496.19
431.85	414.27
432.03	465.77
432.22	437.68
432.41	430.66
432.60	543.00
432.79	411.93
432.97	582.79
433.16	592.16
433.35	631.94
433.54	685.78
433.72	720.88
433.91	718.54
434.10	786.42
434.28	973.66
434.47	1165.59
434.66	1233.46
434.85	1572.84
435.03	3651.24
435.22	13591.49
435.41	34085.22
435.59	42902.02
435.78	28666.88
435.97	13743.63
436.16	5329.40
436.34	1778.81
436.53	1011.11
436.72	844.93
436.90	779.40
437.09	669.39
437.28	606.20
437.46	596.84
437.65	575.77
437.84	559.39
438.02	533.64
438.21	519.60
438.40	482.15
438.58	585.13
438.77	543.00
438.96	514.92
439.14	550.03
439.33	582.79
439.52	545.34
439.70	430.66
439.89	475.13
440.08	437.68
440.26	575.77
440.45	528.96
440.63	580.45
440.82	568.75
441.01	512.58
441.19	533.64
441.38	564.07
441.57	510.24
441.75	505.56
441.94	519.60
442.12	517.26
442.31	491.51
442.50	493.85
442.68	587.47
442.87	507.90
443.05	547.69
443.24	631.94
443.43	535.98
443.61	505.56
443.80	493.85
443.98	456.40
444.17	519.60
444.35	557.05
444.54	503.22
444.73	514.92
444.91	498.53
445.10	540.66
445.28	514.92
445.47	507.90
445.65	613.22
445.84	512.58
446.02	587.47
446.21	540.66
446.39	533.64
446.58	582.79
446.77	526.62
446.95	575.77
447.14	486.83
447.32	524.28
447.51	550.03
447.69	566.41
447.88	594.50
448.06	550.03
448.25	493.85
448.43	489.17
448.62	547.69
448.80	514.92
448.99	543.00
449.17	540.66
449.36	458.74
449.54	596.84
449.73	463.43
449.91	472.79
450.10	503.22
450.28	657.69
450.46	552.37
450.65	528.96
450.83	599.18
451.02	512.58
451.20	533.64
451.39	421.30
451.57	521.94
451.76	585.13
451.94	528.96
452.13	554.71
452.31	526.62
452.49	540.66
452.68	512.58
452.86	496.19
453.05	578.11
453.23	507.90
453.42	486.83
453.60	510.24
453.78	540.66
453.97	444.70
454.15	498.53
454.34	524.28
454.52	531.30
454.70	557.05
454.89	470.45
455.07	519.60
455.26	510.24
455.44	512.58
455.62	575.77
455.81	538.32
455.99	559.39
456.17	512.58
456.36	486.83
456.54	456.40
456.73	458.74
456.91	547.69
457.09	566.41
457.28	557.05
457.46	510.24
457.64	535.98
457.83	404.91
458.01	475.13
458.19	610.88
458.38	493.85
458.56	545.34
458.74	468.11
458.93	491.51
459.11	425.98
459.29	512.58
459.48	552.37
459.66	524.28
459.84	491.51
460.03	533.64
460.21	535.98
460.39	498.53
460.57	510.24
460.76	512.58
460.94	540.66
461.12	517.26
461.31	484.49
461.49	421.30
461.67	456.40
461.85	528.96
462.04	433.00
462.22	936.21
462.40	500.87
462.59	505.56
462.77	484.49
462.95	573.43
463.13	561.73
463.32	566.41
463.50	547.69
463.68	528.96
463.86	500.87
464.05	458.74
464.23	550.03
464.41	517.26
464.59	498.53
464.78	610.88
464.96	428.32
465.14	566.41
465.32	503.22
465.50	451.72
465.69	580.45
465.87	545.34
466.05	440.02
466.23	500.87
466.41	463.43
466.60	510.24
466.78	524.28
466.96	592.16
467.14	533.64
467.32	535.98
467.51	552.37
467.69	489.17
467.87	500.87
468.05	444.70
468.23	444.70
468.41	484.49
468.60	362.78
468.78	461.09
468.96	372.15
469.14	521.94
469.32	533.64
469.50	461.09
469.69	454.06
469.87	456.40
470.05	444.70
470.23	386.19
470.41	528.96
470.59	400.23
470.77	491.51
470.95	456.40
471.14	535.98
471.32	458.74
471.50	550.03
471.68	493.85
471.86	538.32
472.04	533.64
472.22	519.60
472.40	430.66
472.58	414.27
472.77	411.93
472.95	503.22
473.13	528.96
473.31	524.28
473.49	400.23
473.67	510.24
473.85	482.15
474.03	449.38
474.21	503.22
474.39	491.51
474.57	533.64
474.75	533.64
474.93	503.22
475.12	514.92
475.30	510.24
475.48	451.72
475.66	486.83
475.84	505.56
476.02	514.92
476.20	503.22
476.38	514.92
476.56	496.19
476.74	468.11
476.92	435.34
477.10	447.04
477.28	479.81
477.46	603.86
477.64	465.77
477.82	500.87
478.00	475.13
478.18	587.47
478.36	634.29
478.54	505.56
478.72	610.88
478.90	624.92
479.08	550.03
479.26	638.97
479.44	676.41
479.62	552.37
479.80	657.69
479.98	683.44
480.16	606.20
480.34	821.53
480.52	734.93
480.70	784.08
480.88	821.53
481.06	868.34
481.24	828.55
481.41	926.85
481.59	968.98
481.77	1020.47
481.95	1078.99
482.13	1263.89
482.31	1203.04
482.49	1303.68
482.67	1355.17
482.85	1458.15
483.03	1551.78
483.21	1729.66
483.39	1839.66
483.57	1853.70
483.74	1998.82
483.92	2094.78
484.10	2202.44
484.28	2363.94
484.46	2565.23
484.64	2729.06
484.82	2614.38
485.00	2677.57
485.18	3000.57
485.35	3288.45
485.53	3400.80
485.71	3475.70
485.89	3719.11
486.07	3796.35
486.25	3740.18
486.43	3859.54
486.61	3754.22
486.78	3751.88
486.96	3707.41
487.14	3847.84
487.32	3950.82
487.50	3779.97
487.68	3618.47
487.85	3602.08
488.03	3665.28
488.21	3569.32
488.39	3482.72
488.57	3426.54
488.75	3316.54
488.92	3611.45
489.10	3293.13
489.28	3335.26
489.46	3096.53
489.64	3009.93
489.81	3105.89
489.99	2986.52
490.17	2836.73
490.35	2958.44
490.53	2815.66
490.70	2785.24
490.88	2834.39
491.06	2932.69
491.24	3300.16
491.41	3239.30
491.59	3124.62
491.77	2977.16
491.95	2693.96
492.13	2733.75
492.30	2633.10
492.48	2619.06
492.66	2513.74
492.84	2478.63
493.01	2525.44
493.19	2434.16
493.37	2487.99
493.54	2450.54
493.72	2349.90
493.90	2305.43
494.08	2317.13
494.25	2132.23
494.43	2143.93
494.61	2195.42
494.79	2066.69
494.96	2146.27
495.14	2045.63
495.32	2076.06
495.49	2094.78
495.67	1933.28
495.85	1970.73
496.02	1949.67
496.20	1832.64
496.38	1909.88
496.55	1802.21
496.73	1753.06
496.91	1827.96
497.09	1797.53
497.26	1792.85
497.44	1685.19
497.62	1654.76
497.79	1636.03
497.97	1624.33
498.14	1598.59
498.32	1671.14
498.50	1626.67
498.67	1451.13
498.85	1352.83
499.03	1336.45
499.20	1425.39
499.38	1315.38
499.56	1289.64
499.73	1371.55
499.91	1301.34
500.08	1214.74
500.26	1184.31
500.44	1137.50
500.61	1118.78
500.79	1053.24
500.97	990.05
501.14	1011.11
501.32	997.07
501.49	985.37
501.67	1001.75
501.84	978.34
502.02	992.39
502.20	896.43
502.37	910.47
502.55	882.38
502.72	772.38
502.90	840.25
503.07	809.83
503.25	676.41
503.43	711.52
503.60	688.12
503.78	734.93
503.95	678.76
504.13	601.52
504.30	692.80
504.48	720.88
504.65	669.39
504.83	653.01
505.01	629.60
505.18	681.10
505.36	580.45
505.53	592.16
505.71	617.90
505.88	641.31
506.06	500.87
506.23	650.67
506.41	528.96
506.58	671.73
506.76	594.50
506.93	538.32
507.11	528.96
507.28	447.04
507.46	521.94
507.63	538.32
507.81	543.00
507.98	507.90
508.16	449.38
508.33	606.20
508.50	589.82
508.68	543.00
508.85	631.94
509.03	627.26
509.20	524.28
509.38	566.41
509.55	535.98
509.73	482.15
509.90	681.10
510.08	578.11
510.25	557.05
510.42	500.87
510.60	496.19
510.77	491.51
510.95	479.81
511.12	524.28
511.30	486.83
511.47	468.11
511.64	564.07
511.82	458.74
511.99	503.22
512.17	482.15
512.34	411.93
512.51	475.13
512.69	498.53
512.86	505.56
513.04	521.94
513.21	535.98
513.38	456.40
513.56	526.62
513.73	489.17
513.90	416.62
514.08	355.76
514.25	386.19
514.43	458.74
514.60	451.72
514.77	407.25
514.95	484.49
515.12	346.40
515.29	416.62
515.47	395.55
515.64	411.93
515.81	421.30
515.99	486.83
516.16	489.17
516.33	463.43
516.51	447.04
516.68	360.44
516.85	390.87
517.03	482.15
517.20	379.17
517.37	416.62
517.54	468.11
517.72	449.38
517.89	402.57
518.06	376.83
518.24	477.47
518.41	559.39
518.58	341.72
518.75	344.06
518.93	358.10
519.10	400.23
519.27	362.78
519.45	381.51
519.62	423.64
519.79	353.42
519.96	344.06
520.14	423.64
520.31	414.27
520.48	372.15
520.65	341.72
520.83	365.12
521.00	379.17
521.17	308.95
521.34	402.57
521.52	362.78
521.69	416.62
521.86	402.57
522.03	416.62
522.20	327.68
522.38	351.08
522.55	428.32
522.72	395.55
522.89	395.55
523.07	421.30
523.24	318.31
523.41	372.15
523.58	362.78
523.75	344.06
523.92	332.36
524.10	440.02
524.27	442.36
524.44	418.96
524.61	440.02
524.78	418.96
524.96	463.43
525.13	425.98
525.30	491.51
525.47	596.84
525.64	510.24
525.81	414.27
525.98	433.00
526.16	418.96
526.33	418.96
526.50	433.00
526.67	444.70
526.84	421.30
527.01	437.68
527.18	538.32
527.36	519.60
527.53	489.17
527.70	477.47
527.87	545.34
528.04	486.83
528.21	451.72
528.38	449.38
528.55	484.49
528.72	472.79
528.89	505.56
529.07	571.09
529.24	505.56
529.41	557.05
529.58	575.77
529.75	589.82
529.92	526.62
530.09	519.60
530.26	599.18
530.43	624.92
530.60	624.92
530.77	643.65
530.94	648.33
531.11	653.01
531.28	674.07
531.46	732.59
531.63	653.01
531.80	770.04
531.97	866.00
532.14	1013.45
532.31	1102.39
532.48	1263.89
532.65	1406.66
532.82	1607.95
532.99	1933.28
533.16	2246.91
533.33	2293.72
533.50	2120.53
533.67	1867.75
533.84	1600.93
534.01	1434.75
534.18	1277.93
534.35	1371.55
534.52	1263.89
534.69	1343.47
534.86	1378.58
535.03	1486.24
535.20	1490.92
535.37	1554.12
535.54	1605.61
535.71	1727.32
535.88	1935.62
536.05	1982.43
536.22	2125.21
536.38	2209.47
536.55	2473.95
536.72	2888.22
536.89	3068.44
537.06	3379.73
537.23	3854.86
537.40	4028.06
537.57	4493.83
537.74	4732.56
537.91	4894.06
538.08	5132.79
538.25	5029.81
538.42	5359.83
538.59	5327.06
538.75	5497.92
538.92	5809.21
539.09	6363.92
539.26	7007.56
539.43	7817.39
539.60	8973.61
539.77	10340.49
539.94	11513.10
540.11	12769.96
540.28	13825.54
540.44	15119.86
540.61	16783.98
540.78	19073.03
540.95	22658.73
541.12	27571.51
541.29	32002.14
541.46	33144.33
541.62	32943.04
541.79	31634.68
541.96	29593.73
542.13	27344.48
542.30	25549.29
542.47	23543.45
542.63	22422.33
542.80	21774.00
542.97	21556.33
543.14	21348.03
543.31	20968.86
543.48	21551.65
543.64	21788.05
543.81	21865.28
543.98	22050.19
544.15	22192.96
544.32	22530.00
544.48	22455.10
544.65	21940.18
544.82	21869.97
544.99	21930.82
545.16	22207.00
545.32	23367.91
545.49	35262.51
545.66	57790.17
545.83	65535.00
546.00	63482.35
546.16	51950.53
546.33	39328.02
546.50	29677.99
546.67	22930.23
546.83	20184.78
547.00	19681.56
547.17	18558.11
547.34	17605.51
547.50	16891.65
547.67	16390.77
547.84	15646.48
548.00	15005.17
548.17	14377.91
548.34	13909.80
548.51	13343.39
548.67	12959.55
548.84	12327.60
549.01	11609.06
549.18	10785.19
549.34	10621.35
549.51	10193.03
549.68	9895.78
549.84	9394.91
550.01	8992.34
550.18	8762.97
550.34	8236.35
550.51	7581.00
550.68	7522.48
550.84	6899.90
551.01	6654.14
551.18	6209.44
551.34	5870.06
551.51	5743.67
551.68	5551.75
551.84	5231.10
552.01	5064.92
552.18	4954.91
552.34	4903.42
552.51	4339.35
552.68	4348.72
552.84	4002.32
553.01	3810.39
553.18	3878.27
553.34	3794.01
553.51	3850.18
553.67	3468.67
553.84	3475.70
554.01	3145.68
554.17	3007.59
554.34	2722.04
554.51	2712.68
554.67	2485.65
554.84	2368.62
555.00	2246.91
555.17	2099.46
555.33	2017.54
555.50	1900.52
555.67	1872.43
555.83	1799.87
556.00	1776.47
556.16	1818.60
556.33	1535.39
556.50	1556.46
556.66	1547.09
556.83	1439.43
556.99	1437.09
557.16	1355.17
557.32	1371.55
557.49	1313.04
557.65	1282.61
557.82	1235.80
557.98	1146.86
558.15	1174.95
558.32	1188.99
558.48	1076.65
558.65	1041.54
558.81	1062.60
558.98	936.21
559.14	968.98
559.31	908.13
559.47	905.79
559.64	971.32
559.80	1022.81
559.97	856.64
560.13	1036.86
560.30	954.94
560.46	884.72
560.63	835.57
560.79	880.04
560.96	849.61
561.12	889.40
561.29	929.19
561.45	973.66
561.61	964.30
561.78	961.96
561.94	873.02
562.11	842.59
562.27	957.28
562.44	835.57
562.60	812.17
562.77	812.17
562.93	943.24
563.10	786.42
563.26	795.78
563.42	891.74
563.59	777.06
563.75	830.89
563.92	798.12
564.08	805.14
564.24	767.70
564.41	828.55
564.57	718.54
564.74	760.67
564.90	746.63
565.07	725.57
565.23	737.27
565.39	664.71
565.56	664.71
565.72	709.18
565.88	660.03
566.05	683.44
566.21	777.06
566.38	683.44
566.54	739.61
566.70	746.63
566.87	748.97
567.03	720.88
567.19	758.33
567.36	748.97
567.52	664.71
567.68	699.82
567.85	709.18
568.01	770.04
568.17	606.20
568.34	744.29
568.50	814.51
568.66	725.57
568.83	774.72
568.99	648.33
569.15	746.63
569.32	631.94
569.48	624.92
569.64	678.76
569.81	582.79
569.97	610.88
570.13	582.79
570.30	592.16
570.46	528.96
570.62	512.58
570.78	463.43
570.95	543.00
571.11	582.79
571.27	627.26
571.43	479.81
571.60	535.98
571.76	519.60
571.92	545.34
572.09	503.22
572.25	608.54
572.41	564.07
572.57	550.03
572.74	571.09
572.90	578.11
573.06	561.73
573.22	538.32
573.38	514.92
573.55	575.77
573.71	564.07
573.87	599.18
574.03	622.58
574.20	657.69
574.36	627.26
574.52	622.58
574.68	655.35
574.84	739.61
575.01	730.25
575.17	704.50
575.33	744.29
575.49	856.64
575.65	873.02
575.82	1027.50
575.98	1090.69
576.14	1132.82
576.30	2197.76
576.46	6715.00
576.62	13706.18
576.79	17284.86
576.95	12100.57
577.11	7698.02
577.27	5291.95
577.43	3574.00
577.59	2239.89
577.75	1760.08
577.92	1575.18
578.08	1577.52
578.24	1563.48
578.40	2445.86
578.56	6349.87
578.72	12365.05
578.88	15335.19
579.04	11000.52
579.21	7368.01
579.37	5465.15
579.53	4194.24
579.69	3911.04
579.85	4709.16
580.01	5675.80
580.17	5774.10
580.33	4908.10
580.49	4131.05
580.65	3630.17
580.82	3475.70
580.98	3185.47
581.14	3227.60
581.30	3545.91
581.46	3620.81
581.62	3913.38
581.78	4339.35
581.94	4554.68
582.10	4828.53
582.26	5184.29
582.42	5226.42
582.58	5474.51
582.74	5528.35
582.90	5397.28
583.06	5511.96
583.22	5598.56
583.38	5631.33
583.54	5582.18
583.70	5568.13
583.86	5570.48
584.02	5322.38
584.18	5427.70
584.34	5214.71
584.50	5184.29
584.66	5046.20
584.82	4959.60
584.98	4901.08
585.14	4884.70
585.30	4770.01
585.46	4587.45
585.62	4615.54
585.78	4575.75
585.94	4699.80
586.10	4697.46
586.26	5069.60
586.42	5561.11
586.58	6773.51
586.74	8114.64
586.90	10106.43
587.06	10813.28
587.22	10799.23
587.38	9654.71
587.54	8465.72
587.70	7180.76
587.86	6038.58
588.02	5174.92
588.18	4627.24
588.34	4067.85
588.49	3660.60
588.65	3468.67
588.81	3272.07
588.97	3229.94
589.13	3084.83
589.29	3063.76
589.45	3096.53
589.61	3143.34
589.77	3112.91
589.93	3108.23
590.08	3241.64
590.24	3332.92
590.40	3393.78
590.56	3414.84
590.72	3440.59
590.88	3611.45
591.04	3709.75
591.20	3808.05
591.35	4107.64
591.51	4154.45
591.67	4325.31
591.83	4781.71
591.99	4957.25
592.15	5511.96
592.31	6106.46
592.46	6637.76
592.62	7021.61
592.78	7566.95
592.94	7964.84
593.10	7733.13
593.26	7288.43
593.41	6871.81
593.57	6272.64
593.73	5458.13
593.89	4975.98
594.05	4259.78
594.20	3761.24
594.36	3651.24
594.52	3258.03
594.68	3148.02
594.84	2939.71
594.99	2857.79
595.15	2843.75
595.31	2806.30
595.47	2691.62
595.62	2747.79
595.78	2892.90
595.94	2796.94
596.10	2796.94
596.25	2745.45
596.41	2663.53
596.57	2670.55
596.73	2750.13
596.88	2708.00
597.04	2738.43
597.20	2649.49
597.36	2874.18
597.51	2869.50
597.67	3023.97
597.83	3066.10
597.99	3302.50
598.14	3534.21
598.30	3831.46
598.46	3859.54
598.61	4194.24
598.77	4362.76
598.93	4503.19
599.09	4854.27
599.24	4753.63
599.40	4770.01
599.56	4645.96
599.71	4341.69
599.87	4149.77
600.03	4021.04
600.18	3536.55
600.34	3499.10
600.50	3222.92
600.65	2864.82
600.81	2752.47
600.97	2661.19
601.12	2490.33
601.28	2436.50
601.44	2214.15
601.59	2066.69
601.75	2115.84
601.91	2043.29
602.06	1928.60
602.22	2104.14
602.37	1907.54
602.53	1776.47
602.69	1764.76
602.84	1682.85
603.00	1839.66
603.16	1853.70
603.31	1846.68
603.47	1858.39
603.62	1933.28
603.78	2001.16
603.94	2062.01
604.09	2059.67
604.25	2136.91
604.40	2143.93
604.56	2062.01
604.71	2218.83
604.87	2242.23
605.03	2256.28
605.18	2331.17
605.34	2326.49
605.49	2349.90
605.65	2319.47
605.80	2408.41
605.96	2600.34
606.12	2656.51
606.27	2815.66
606.43	2869.50
606.58	3005.25
606.74	3126.96
606.89	3356.33
607.05	3478.04
607.20	3646.55
607.36	3859.54
607.51	4117.00
607.67	4353.40
607.82	4613.20
607.98	4882.36
608.13	5362.17
608.29	5593.88
608.44	6218.80
608.60	6801.60
608.75	7255.66
608.91	8102.93
609.06	9006.38
609.22	9708.54
609.37	10689.23
609.53	12245.68
609.68	13877.04
609.84	15627.76
609.99	18427.04
610.15	21893.37
610.30	26647.00
610.46	34052.45
610.61	43122.03
610.76	52568.43
610.92	58637.44
611.07	61623.96
611.23	62693.59
611.38	62028.88
611.54	58962.78
611.69	54473.63
611.84	49055.29
612.00	41263.64
612.15	34555.67
612.31	29731.83
612.46	26256.13
612.62	24458.60
612.77	23248.54
612.92	22097.00
613.08	20624.80
613.23	19992.86
613.39	18970.04
613.54	18295.97
613.69	17989.36
613.85	17575.08
614.00	17750.62
614.15	17355.07
614.31	17130.38
614.46	16772.28
614.62	15964.79
614.77	15358.60
614.92	14457.49
615.08	13172.54
615.23	12269.09
615.38	11520.12
615.54	10410.70
615.69	9521.30
615.84	8695.09
616.00	8177.83
616.15	7531.84
616.30	7143.32
616.46	6658.82
616.61	6162.63
616.76	5832.62
616.92	5479.19
617.07	5294.29
617.22	5088.32
617.37	4615.54
617.53	4575.75
617.68	4259.78
617.83	4018.70
617.99	3953.16
618.14	4084.23
618.29	3962.53
618.45	3733.15
618.60	3728.47
618.75	3552.93
618.90	3543.57
619.06	3515.48
619.21	3562.30
619.36	3445.27
619.51	3566.98
619.67	3543.57
619.82	3529.53
619.97	3667.62
620.12	3609.11
620.28	3679.32
620.43	3798.69
620.58	3899.33
620.73	3981.25
620.89	3854.86
621.04	4011.68
621.19	3861.88
621.34	3786.99
621.49	3775.28
621.65	3646.55
621.80	3655.92
621.95	3784.65
622.10	3726.13
622.25	3726.13
622.41	3801.03
622.56	3810.39
622.71	3896.99
622.86	4032.74
623.01	4182.54
623.16	4241.05
623.32	4203.60
623.47	4229.35
623.62	4276.16
623.77	4290.20
623.92	4243.39
624.07	4168.49
624.23	4042.11
624.38	4077.21
624.53	4145.09
624.68	4182.54
624.83	4278.50
624.98	4465.74
625.13	4056.15
625.29	4386.16
625.44	4259.78
625.59	4367.44
625.74	4285.52
625.89	4381.48
626.04	4362.76
626.19	4252.75
626.34	4198.92
626.49	4322.97
626.65	4269.14
626.80	4297.22
626.95	4182.54
627.10	4154.45
627.25	4042.11
627.40	3882.95
627.55	3918.06
627.70	3892.31
627.85	3836.14
628.00	3922.74
628.15	3733.15
628.30	3702.73
628.45	3810.39
628.60	3786.99
628.76	3859.54
628.91	3911.04
629.06	3826.78
629.21	3847.84
629.36	4042.11
629.51	4084.23
629.66	4248.07
629.81	4477.44
629.96	4910.44
630.11	5528.35
630.26	6129.86
630.41	6810.96
630.56	7618.44
630.71	7943.78
630.86	8238.69
631.01	8187.19
631.16	7681.64
631.31	6794.58
631.46	5689.84
631.61	5184.29
631.76	4215.30
631.91	3463.99
632.06	2857.79
632.21	2644.81
632.36	2312.45
632.51	1987.11
632.66	1813.92
632.81	1685.19
632.96	1603.27
633.10	1542.41
633.25	1476.88
633.40	1483.90
633.55	1352.83
633.70	1320.06
633.85	1355.17
634.00	1214.74
634.15	1235.80
634.30	1146.86
634.45	1139.84
634.60	1081.33
634.75	1135.16
634.90	1093.03
635.05	1081.33
635.19	1041.54
635.34	1055.58
635.49	1053.24
635.64	1025.15
635.79	1114.10
635.94	936.21
636.09	917.49
636.24	978.34
636.39	877.70
636.53	1013.45
636.68	908.13
636.83	842.59
636.98	851.96
637.13	901.11
637.28	842.59
637.43	863.66
637.57	786.42
637.72	835.57
637.87	875.36
638.02	809.83
638.17	823.87
638.32	755.99
638.46	725.57
638.61	734.93
638.76	690.46
638.91	711.52
639.06	741.95
639.20	781.74
639.35	711.52
639.50	725.57
639.65	765.36
639.80	744.29
639.94	730.25
640.09	739.61
640.24	737.27
640.39	692.80
640.54	758.33
640.68	718.54
640.83	751.31
640.98	695.14
641.13	671.73
641.27	760.67
641.42	678.76
641.57	772.38
641.72	727.91
641.86	634.29
642.01	716.20
642.16	688.12
642.31	674.07
642.45	774.72
642.60	772.38
642.75	741.95
642.90	713.86
643.04	704.50
643.19	809.83
643.34	744.29
643.48	695.14
643.63	706.84
643.78	718.54
643.93	795.78
644.07	805.14
644.22	774.72
644.37	678.76
644.51	737.27
644.66	793.44
644.81	662.37
644.95	772.38
645.10	704.50
645.25	692.80
645.39	697.48
645.54	653.01
645.69	716.20
645.83	674.07
645.98	833.23
646.13	770.04
646.27	744.29
646.42	650.67
646.57	713.86
646.71	676.41
646.86	709.18
647.00	660.03
647.15	641.31
647.30	627.26
647.44	650.67
647.59	650.67
647.74	716.20
647.88	690.46
648.03	706.84
648.17	643.65
648.32	690.46
648.47	690.46
648.61	814.51
648.76	760.67
648.90	765.36
649.05	802.80
649.20	898.77
649.34	844.93
649.49	947.92
649.63	1102.39
649.78	1327.08
649.92	1511.99
650.07	1849.02
650.21	2228.19
650.36	2317.13
650.51	2225.85
650.65	2193.08
650.80	1856.04
650.94	1788.17
651.09	1563.48
651.23	1409.00
651.38	1242.82
651.52	1196.01
651.67	1036.86
651.81	1015.79
651.96	947.92
652.10	950.26
652.25	917.49
652.39	896.43
652.54	877.70
652.68	1027.50
652.83	1233.46
652.97	1114.10
653.12	1050.90
653.26	1064.94
653.41	1053.24
653.55	1146.86
653.70	875.36
653.84	889.40
653.99	821.53
654.13	777.06
654.27	671.73
654.42	737.27
654.56	634.29
654.71	777.06
654.85	760.67
655.00	695.14
655.14	709.18
655.29	641.31
655.43	706.84
655.57	601.52
655.72	566.41
655.86	627.26
656.01	685.78
656.15	653.01
656.30	660.03
656.44	613.22
656.58	594.50
656.73	650.67
656.87	688.12
657.01	620.24
657.16	641.31
657.30	732.59
657.45	828.55
657.59	873.02
657.73	802.80
657.88	842.59
658.02	816.85
658.16	734.93
658.31	711.52
658.45	631.94
658.60	660.03
658.74	631.94
658.88	636.63
659.03	573.43
659.17	557.05
659.31	500.87
659.46	482.15
659.60	533.64
659.74	430.66
659.89	491.51
660.03	531.30
660.17	521.94
660.32	559.39
660.46	442.36
660.60	491.51
660.74	491.51
660.89	500.87
661.03	587.47
661.17	557.05
661.32	608.54
661.46	730.25
661.60	898.77
661.74	887.06
661.89	1114.10
662.03	1193.67
662.17	1322.40
662.31	1434.75
662.46	1378.58
662.60	1240.48
662.74	1198.35
662.88	1074.31
663.03	861.32
663.17	870.68
663.31	837.91
663.45	781.74
663.60	711.52
663.74	578.11
663.88	657.69
664.02	589.82
664.17	580.45
664.31	599.18
664.45	440.02
664.59	552.37
664.73	503.22
664.88	458.74
665.02	475.13
665.16	505.56
665.30	592.16
665.44	503.22
665.59	500.87
665.73	505.56
665.87	365.12
666.01	493.85
666.15	557.05
666.29	575.77
666.44	470.45
666.58	561.73
666.72	484.49
666.86	493.85
667.00	528.96
667.14	458.74
667.28	489.17
667.43	477.47
667.57	491.51
667.71	540.66
667.85	465.77
667.99	493.85
668.13	491.51
668.27	425.98
668.41	461.09
668.56	507.90
668.70	353.42
668.84	447.04
668.98	484.49
669.12	351.08
669.26	440.02
669.40	578.11
669.54	414.27
669.68	454.06
669.82	402.57
669.96	407.25
670.10	341.72
670.25	486.83
670.39	503.22
670.53	402.57
670.67	463.43
670.81	430.66
670.95	397.89
671.09	381.51
671.23	440.02
671.37	456.40
671.51	461.09
671.65	376.83
671.79	425.98
671.93	430.66
672.07	463.43
672.21	393.21
672.35	402.57
672.49	456.40
672.63	397.89
672.77	379.17
672.91	388.53
673.05	365.12
673.19	367.46
673.33	430.66
673.47	437.68
673.61	330.02
673.75	304.27
673.89	365.12
674.03	421.30
674.17	348.74
674.31	374.49
674.45	454.06
674.59	386.19
674.73	348.74
674.87	299.59
675.01	365.12
675.15	369.80
675.29	358.10
675.43	374.49
675.56	400.23
675.70	402.57
675.84	315.97
675.98	351.08
676.12	304.27
676.26	322.99
676.40	390.87
676.54	369.80
676.68	376.83
676.82	325.33
676.96	386.19
677.10	290.23
677.23	322.99
677.37	348.74
677.51	262.14
677.65	376.83
677.79	360.44
677.93	301.93
678.07	280.86
678.21	287.89
678.34	381.51
678.48	360.44
678.62	348.74
678.76	367.46
678.90	337.04
679.04	348.74
679.18	304.27
679.31	360.44
679.45	414.27
679.59	332.36
679.73	318.31
679.87	383.85
680.00	376.83
680.14	416.62
680.28	440.02
680.42	376.83
680.56	341.72
680.70	297.25
680.83	374.49
680.97	416.62
681.11	360.44
681.25	369.80
681.39	337.04
681.52	360.44
681.66	337.04
681.80	318.31
681.94	344.06
682.07	315.97
682.21	393.21
682.35	262.14
682.49	327.68
682.62	341.72
682.76	362.78
682.90	313.63
683.04	369.80
683.17	341.72
683.31	320.65
683.45	397.89
683.59	294.91
683.72	351.08
683.86	292.57
684.00	348.74
684.13	360.44
684.27	313.63
684.41	294.91
684.55	290.23
684.68	304.27
684.82	322.99
684.96	276.18
685.09	320.65
685.23	269.16
685.37	351.08
685.50	381.51
685.64	435.34
685.78	447.04
685.91	355.76
686.05	348.74
686.19	416.62
686.32	430.66
686.46	440.02
686.60	498.53
686.73	622.58
686.87	610.88
687.01	582.79
687.14	608.54
687.28	697.48
687.42	732.59
687.55	711.52
687.69	896.43
687.82	763.01
687.96	805.14
688.10	767.70
688.23	786.42
688.37	683.44
688.50	678.76
688.64	578.11
688.78	454.06
688.91	437.68
689.05	388.53
689.18	404.91
689.32	423.64
689.46	400.23
689.59	334.70
689.73	379.17
689.86	360.44
690.00	290.23
690.13	297.25
690.27	266.82
690.41	365.12
690.54	341.72
690.68	383.85
690.81	330.02
690.95	318.31
691.08	341.72
691.22	308.95
691.35	255.12
691.49	241.08
691.62	241.08
691.76	266.82
691.89	248.10
692.03	229.37
692.16	248.10
692.30	259.80
692.43	266.82
692.57	276.18
692.70	222.35
692.84	365.12
692.97	238.73
693.11	381.51
693.24	416.62
693.38	594.50
693.51	587.47
693.65	608.54
693.78	660.03
693.92	601.52
694.05	521.94
694.19	341.72
694.32	425.98
694.45	318.31
694.59	287.89
694.72	231.71
694.86	320.65
694.99	241.08
695.13	198.95
695.26	217.67
695.39	238.73
695.53	325.33
695.66	147.45
695.80	259.80
695.93	215.33
696.07	224.69
696.20	187.24
696.33	234.05
696.47	248.10
696.60	301.93
696.73	264.48
696.87	166.18
697.00	194.26
697.14	196.60
697.27	215.33
697.40	280.86
697.54	175.54
697.67	159.16
697.80	250.44
697.94	241.08
698.07	180.22
698.21	180.22
698.34	271.50
698.47	173.20
698.61	194.26
698.74	224.69
698.87	224.69
699.01	180.22
699.14	145.11
699.27	191.92
699.40	273.84
699.54	191.92
699.67	140.43
699.80	166.18
699.94	138.09
700.07	121.71
700.20	128.73
700.34	196.60
700.47	210.65
700.60	243.42
700.73	229.37
700.87	222.35
701.00	182.56
701.13	175.54
701.26	175.54
701.40	163.84
701.53	170.86
701.66	248.10
701.79	210.65
701.93	95.96
702.06	205.97
702.19	241.08
702.32	234.05
702.46	217.67
702.59	196.60
702.72	210.65
702.85	220.01
702.99	262.14
703.12	271.50
703.25	212.99
703.38	306.61
703.51	250.44
703.65	175.54
703.78	205.97
703.91	215.33
704.04	337.04
704.17	245.76
704.31	208.31
704.44	360.44
704.57	365.12
704.70	339.38
704.83	330.02
704.96	325.33
705.10	351.08
705.23	320.65
>>>>>End Processed Spectral Data<<<<<
