SpectraSuite Data File
++++++++++++++++++++++++++++++++++++
Date: Fri Oct 04 11:42:04 GMT-05:00 2013
User: price-jones
Dark Spectrum Present: No
Reference Spectrum Present: No
Number of Sampled Component Spectra: 1
Spectrometers: USB2+H05261
Integration Time (usec): 100000 (USB2+H05261)
Spectra Averaged: 1 (USB2+H05261)
Boxcar Smoothing: 0 (USB2+H05261)
Correct for Electrical Dark: No (USB2+H05261)
Strobe/Lamp Enabled: No (USB2+H05261)
Correct for Detector Non-linearity: No (USB2+H05261)
Correct for Stray Light: No (USB2+H05261)
Number of Pixels in Processed Spectrum: 2048
>>>>>Begin Processed Spectral Data<<<<<
365.73	63.19
365.92	63.19
366.12	63.19
366.32	0.00
366.52	0.00
366.72	14.04
366.91	0.00
367.11	23.41
367.31	0.00
367.51	0.00
367.70	0.00
367.90	0.00
368.10	0.00
368.30	0.00
368.49	0.00
368.69	25.75
368.89	0.00
369.09	0.00
369.28	0.00
369.48	0.00
369.68	0.00
369.87	0.00
370.07	9.36
370.27	44.47
370.47	0.00
370.66	51.49
370.86	39.79
371.06	28.09
371.25	142.77
371.45	84.26
371.65	126.39
371.84	117.03
372.04	100.64
372.24	124.05
372.44	135.75
372.63	128.73
372.83	133.41
373.03	126.39
373.22	124.05
373.42	49.15
373.62	102.98
373.81	175.54
374.01	184.90
374.21	196.60
374.40	117.03
374.60	149.79
374.79	107.66
374.99	138.09
375.19	107.66
375.38	135.75
375.58	102.98
375.78	154.48
375.97	163.84
376.17	152.13
376.37	114.69
376.56	187.24
376.76	131.07
376.95	159.16
377.15	166.18
377.35	189.58
377.54	133.41
377.74	102.98
377.93	100.64
378.13	91.28
378.33	187.24
378.52	121.71
378.72	140.43
378.91	175.54
379.11	70.22
379.31	107.66
379.50	135.75
379.70	114.69
379.89	131.07
380.09	105.32
380.28	60.85
380.48	138.09
380.68	156.82
380.87	154.48
381.07	194.26
381.26	198.95
381.46	170.86
381.65	182.56
381.85	140.43
382.04	98.30
382.24	152.13
382.43	121.71
382.63	147.45
382.83	93.62
383.02	110.01
383.22	81.92
383.41	121.71
383.61	112.35
383.80	81.92
384.00	119.37
384.19	128.73
384.39	65.54
384.58	180.22
384.78	189.58
384.97	177.88
385.17	124.05
385.36	98.30
385.56	154.48
385.75	110.01
385.95	117.03
386.14	196.60
386.34	138.09
386.53	46.81
386.72	149.79
386.92	224.69
387.11	159.16
387.31	152.13
387.50	126.39
387.70	149.79
387.89	131.07
388.09	95.96
388.28	131.07
388.48	79.58
388.67	210.65
388.86	149.79
389.06	110.01
389.25	135.75
389.45	208.31
389.64	91.28
389.84	161.50
390.03	147.45
390.22	102.98
390.42	161.50
390.61	138.09
390.81	159.16
391.00	161.50
391.19	175.54
391.39	147.45
391.58	243.42
391.78	124.05
391.97	117.03
392.16	126.39
392.36	187.24
392.55	119.37
392.75	58.51
392.94	163.84
393.13	102.98
393.33	81.92
393.52	63.19
393.71	147.45
393.91	84.26
394.10	135.75
394.29	154.48
394.49	142.77
394.68	189.58
394.88	154.48
395.07	222.35
395.26	140.43
395.46	215.33
395.65	117.03
395.84	149.79
396.04	220.01
396.23	163.84
396.42	117.03
396.62	135.75
396.81	187.24
397.00	91.28
397.19	198.95
397.39	189.58
397.58	229.37
397.77	189.58
397.97	126.39
398.16	173.20
398.35	163.84
398.55	210.65
398.74	161.50
398.93	177.88
399.12	220.01
399.32	161.50
399.51	105.32
399.70	149.79
399.90	238.73
400.09	220.01
400.28	147.45
400.47	198.95
400.67	194.26
400.86	121.71
401.05	205.97
401.24	276.18
401.44	215.33
401.63	222.35
401.82	159.16
402.01	180.22
402.21	234.05
402.40	152.13
402.59	201.29
402.78	180.22
402.97	154.48
403.17	159.16
403.36	248.10
403.55	252.78
403.74	278.52
403.93	189.58
404.13	315.97
404.32	332.36
404.51	365.12
404.70	248.10
404.89	271.50
405.09	196.60
405.28	236.39
405.47	212.99
405.66	220.01
405.85	248.10
406.05	222.35
406.24	145.11
406.43	215.33
406.62	163.84
406.81	229.37
407.00	264.48
407.20	276.18
407.39	229.37
407.58	184.90
407.77	187.24
407.96	224.69
408.15	243.42
408.34	177.88
408.54	168.52
408.73	266.82
408.92	152.13
409.11	189.58
409.30	208.31
409.49	182.56
409.68	159.16
409.87	271.50
410.07	124.05
410.26	147.45
410.45	196.60
410.64	180.22
410.83	133.41
411.02	241.08
411.21	201.29
411.40	163.84
411.59	112.35
411.78	205.97
411.98	126.39
412.17	173.20
412.36	241.08
412.55	126.39
412.74	187.24
412.93	180.22
413.12	187.24
413.31	287.89
413.50	287.89
413.69	266.82
413.88	234.05
414.07	180.22
414.26	161.50
414.45	215.33
414.64	215.33
414.83	189.58
415.02	196.60
415.22	166.18
415.41	184.90
415.60	189.58
415.79	245.76
415.98	191.92
416.17	173.20
416.36	173.20
416.55	173.20
416.74	262.14
416.93	252.78
417.12	212.99
417.31	234.05
417.50	201.29
417.69	269.16
417.88	311.29
418.07	299.59
418.26	210.65
418.45	229.37
418.64	234.05
418.83	212.99
419.02	222.35
419.21	208.31
419.39	255.12
419.58	212.99
419.77	133.41
419.96	283.20
420.15	227.03
420.34	255.12
420.53	264.48
420.72	203.63
420.91	201.29
421.10	203.63
421.29	205.97
421.48	231.71
421.67	266.82
421.86	208.31
422.05	191.92
422.24	227.03
422.43	212.99
422.61	147.45
422.80	255.12
422.99	238.73
423.18	217.67
423.37	250.44
423.56	201.29
423.75	208.31
423.94	262.14
424.13	220.01
424.32	194.26
424.50	210.65
424.69	170.86
424.88	248.10
425.07	245.76
425.26	138.09
425.45	238.73
425.64	166.18
425.83	227.03
426.01	208.31
426.20	262.14
426.39	236.39
426.58	250.44
426.77	201.29
426.96	243.42
427.15	203.63
427.33	184.90
427.52	234.05
427.71	175.54
427.90	241.08
428.09	257.46
428.28	215.33
428.46	170.86
428.65	250.44
428.84	220.01
429.03	294.91
429.22	227.03
429.40	224.69
429.59	201.29
429.78	212.99
429.97	170.86
430.16	163.84
430.34	133.41
430.53	135.75
430.72	236.39
430.91	220.01
431.10	250.44
431.28	208.31
431.47	276.18
431.66	294.91
431.85	189.58
432.03	266.82
432.22	245.76
432.41	227.03
432.60	238.73
432.79	215.33
432.97	266.82
433.16	154.48
433.35	212.99
433.54	194.26
433.72	241.08
433.91	294.91
434.10	315.97
434.28	252.78
434.47	203.63
434.66	238.73
434.85	280.86
435.03	372.15
435.22	667.05
435.41	1095.37
435.59	1097.71
435.78	861.32
435.97	500.87
436.16	372.15
436.34	208.31
436.53	320.65
436.72	285.55
436.90	264.48
437.09	187.24
437.28	222.35
437.46	250.44
437.65	231.71
437.84	220.01
438.02	280.86
438.21	245.76
438.40	191.92
438.58	224.69
438.77	231.71
438.96	262.14
439.14	255.12
439.33	222.35
439.52	243.42
439.70	313.63
439.89	278.52
440.08	205.97
440.26	243.42
440.45	311.29
440.63	297.25
440.82	304.27
441.01	222.35
441.19	278.52
441.38	287.89
441.57	322.99
441.75	292.57
441.94	210.65
442.12	360.44
442.31	189.58
442.50	365.12
442.68	205.97
442.87	243.42
443.05	257.46
443.24	198.95
443.43	355.76
443.61	330.02
443.80	217.67
443.98	201.29
444.17	198.95
444.35	276.18
444.54	231.71
444.73	262.14
444.91	285.55
445.10	276.18
445.28	231.71
445.47	269.16
445.65	182.56
445.84	220.01
446.02	227.03
446.21	212.99
446.39	280.86
446.58	236.39
446.77	250.44
446.95	245.76
447.14	245.76
447.32	299.59
447.51	301.93
447.69	236.39
447.88	241.08
448.06	308.95
448.25	285.55
448.43	210.65
448.62	271.50
448.80	264.48
448.99	313.63
449.17	227.03
449.36	290.23
449.54	299.59
449.73	201.29
449.91	224.69
450.10	217.67
450.28	318.31
450.46	369.80
450.65	315.97
450.83	313.63
451.02	170.86
451.20	292.57
451.39	276.18
451.57	285.55
451.76	297.25
451.94	262.14
452.13	290.23
452.31	320.65
452.49	325.33
452.68	262.14
452.86	241.08
453.05	325.33
453.23	238.73
453.42	290.23
453.60	301.93
453.78	285.55
453.97	255.12
454.15	308.95
454.34	220.01
454.52	229.37
454.70	313.63
454.89	262.14
455.07	252.78
455.26	325.33
455.44	283.20
455.62	250.44
455.81	210.65
455.99	231.71
456.17	388.53
456.36	245.76
456.54	255.12
456.73	264.48
456.91	287.89
457.09	297.25
457.28	241.08
457.46	245.76
457.64	248.10
457.83	285.55
458.01	238.73
458.19	215.33
458.38	285.55
458.56	234.05
458.74	301.93
458.93	255.12
459.11	313.63
459.29	220.01
459.48	234.05
459.66	365.12
459.84	290.23
460.03	355.76
460.21	271.50
460.39	257.46
460.57	344.06
460.76	280.86
460.94	276.18
461.12	306.61
461.31	266.82
461.49	325.33
461.67	294.91
461.85	264.48
462.04	308.95
462.22	763.01
462.40	276.18
462.59	283.20
462.77	257.46
462.95	168.52
463.13	273.84
463.32	241.08
463.50	135.75
463.68	360.44
463.86	294.91
464.05	262.14
464.23	238.73
464.41	304.27
464.59	194.26
464.78	301.93
464.96	215.33
465.14	269.16
465.32	290.23
465.50	231.71
465.69	259.80
465.87	327.68
466.05	299.59
466.23	297.25
466.41	337.04
466.60	269.16
466.78	243.42
466.96	269.16
467.14	285.55
467.32	348.74
467.51	196.60
467.69	269.16
467.87	318.31
468.05	285.55
468.23	304.27
468.41	330.02
468.60	271.50
468.78	236.39
468.96	294.91
469.14	341.72
469.32	320.65
469.50	259.80
469.69	294.91
469.87	278.52
470.05	276.18
470.23	229.37
470.41	255.12
470.59	241.08
470.77	315.97
470.95	189.58
471.14	351.08
471.32	325.33
471.50	294.91
471.68	259.80
471.86	266.82
472.04	248.10
472.22	248.10
472.40	278.52
472.58	299.59
472.77	255.12
472.95	290.23
473.13	299.59
473.31	320.65
473.49	262.14
473.67	285.55
473.85	212.99
474.03	346.40
474.21	290.23
474.39	334.70
474.57	299.59
474.75	348.74
474.93	290.23
475.12	315.97
475.30	301.93
475.48	334.70
475.66	245.76
475.84	285.55
476.02	266.82
476.20	227.03
476.38	264.48
476.56	383.85
476.74	290.23
476.92	301.93
477.10	402.57
477.28	322.99
477.46	409.59
477.64	313.63
477.82	320.65
478.00	388.53
478.18	280.86
478.36	273.84
478.54	292.57
478.72	304.27
478.90	259.80
479.08	416.62
479.26	339.38
479.44	285.55
479.62	320.65
479.80	330.02
479.98	311.29
480.16	351.08
480.34	351.08
480.52	315.97
480.70	285.55
480.88	362.78
481.06	358.10
481.24	365.12
481.41	337.04
481.59	376.83
481.77	367.46
481.95	292.57
482.13	388.53
482.31	313.63
482.49	381.51
482.67	297.25
482.85	320.65
483.03	395.55
483.21	402.57
483.39	276.18
483.57	332.36
483.74	428.32
483.92	379.17
484.10	390.87
484.28	461.09
484.46	428.32
484.64	393.21
484.82	383.85
485.00	416.62
485.18	451.72
485.35	421.30
485.53	306.61
485.71	456.40
485.89	365.12
486.07	451.72
486.25	458.74
486.43	428.32
486.61	503.22
486.78	470.45
486.96	449.38
487.14	414.27
487.32	425.98
487.50	496.19
487.68	447.04
487.85	414.27
488.03	440.02
488.21	486.83
488.39	437.68
488.57	479.81
488.75	470.45
488.92	730.25
489.10	519.60
489.28	449.38
489.46	528.96
489.64	433.00
489.81	463.43
489.99	458.74
490.17	489.17
490.35	559.39
490.53	400.23
490.70	367.46
490.88	458.74
491.06	498.53
491.24	418.96
491.41	449.38
491.59	510.24
491.77	449.38
491.95	444.70
492.13	458.74
492.30	451.72
492.48	411.93
492.66	449.38
492.84	505.56
493.01	470.45
493.19	442.36
493.37	512.58
493.54	435.34
493.72	477.47
493.90	489.17
494.08	491.51
494.25	463.43
494.43	489.17
494.61	533.64
494.79	489.17
494.96	482.15
495.14	430.66
495.32	393.21
495.49	416.62
495.67	458.74
495.85	411.93
496.02	444.70
496.20	489.17
496.38	503.22
496.55	484.49
496.73	425.98
496.91	409.59
497.09	528.96
497.26	524.28
497.44	493.85
497.62	468.11
497.79	447.04
497.97	491.51
498.14	500.87
498.32	479.81
498.50	472.79
498.67	433.00
498.85	496.19
499.03	423.64
499.20	353.42
499.38	386.19
499.56	451.72
499.73	360.44
499.91	454.06
500.08	458.74
500.26	407.25
500.44	430.66
500.61	433.00
500.79	477.47
500.97	414.27
501.14	447.04
501.32	411.93
501.49	421.30
501.67	430.66
501.84	444.70
502.02	437.68
502.20	465.77
502.37	458.74
502.55	402.57
502.72	461.09
502.90	451.72
503.07	388.53
503.25	482.15
503.43	472.79
503.60	421.30
503.78	404.91
503.95	402.57
504.13	393.21
504.30	500.87
504.48	458.74
504.65	491.51
504.83	517.26
505.01	404.91
505.18	416.62
505.36	428.32
505.53	407.25
505.71	449.38
505.88	533.64
506.06	395.55
506.23	447.04
506.41	428.32
506.58	451.72
506.76	468.11
506.93	440.02
507.11	435.34
507.28	430.66
507.46	451.72
507.63	390.87
507.81	456.40
507.98	456.40
508.16	397.89
508.33	397.89
508.50	486.83
508.68	477.47
508.85	447.04
509.03	404.91
509.20	442.36
509.38	444.70
509.55	484.49
509.73	440.02
509.90	390.87
510.08	433.00
510.25	479.81
510.42	451.72
510.60	454.06
510.77	472.79
510.95	461.09
511.12	507.90
511.30	524.28
511.47	543.00
511.64	507.90
511.82	447.04
511.99	463.43
512.17	461.09
512.34	383.85
512.51	456.40
512.69	447.04
512.86	500.87
513.04	353.42
513.21	440.02
513.38	496.19
513.56	397.89
513.73	421.30
513.90	374.49
514.08	402.57
514.25	470.45
514.43	554.71
514.60	400.23
514.77	353.42
514.95	477.47
515.12	423.64
515.29	500.87
515.47	365.12
515.64	374.49
515.81	475.13
515.99	397.89
516.16	528.96
516.33	435.34
516.51	353.42
516.68	341.72
516.85	348.74
517.03	407.25
517.20	440.02
517.37	418.96
517.54	435.34
517.72	465.77
517.89	416.62
518.06	339.38
518.24	500.87
518.41	479.81
518.58	479.81
518.75	411.93
518.93	428.32
519.10	421.30
519.27	411.93
519.45	425.98
519.62	395.55
519.79	491.51
519.96	425.98
520.14	524.28
520.31	428.32
520.48	510.24
520.65	461.09
520.83	493.85
521.00	430.66
521.17	468.11
521.34	421.30
521.52	430.66
521.69	496.19
521.86	435.34
522.03	479.81
522.20	416.62
522.38	461.09
522.55	496.19
522.72	418.96
522.89	477.47
523.07	477.47
523.24	447.04
523.41	500.87
523.58	421.30
523.75	386.19
523.92	484.49
524.10	493.85
524.27	472.79
524.44	379.17
524.61	475.13
524.78	535.98
524.96	543.00
525.13	423.64
525.30	486.83
525.47	533.64
525.64	421.30
525.81	433.00
525.98	416.62
526.16	444.70
526.33	470.45
526.50	463.43
526.67	381.51
526.84	400.23
527.01	379.17
527.18	456.40
527.36	468.11
527.53	433.00
527.70	475.13
527.87	423.64
528.04	505.56
528.21	458.74
528.38	512.58
528.55	503.22
528.72	472.79
528.89	484.49
529.07	503.22
529.24	395.55
529.41	505.56
529.58	425.98
529.75	444.70
529.92	463.43
530.09	484.49
530.26	461.09
530.43	468.11
530.60	585.13
530.77	479.81
530.94	449.38
531.11	514.92
531.28	433.00
531.46	414.27
531.63	458.74
531.80	465.77
531.97	528.96
532.14	472.79
532.31	550.03
532.48	514.92
532.65	493.85
532.82	383.85
532.99	505.56
533.16	454.06
533.33	566.41
533.50	484.49
533.67	442.36
533.84	561.73
534.01	447.04
534.18	503.22
534.35	498.53
534.52	547.69
534.69	519.60
534.86	458.74
535.03	390.87
535.20	540.66
535.37	552.37
535.54	568.75
535.71	482.15
535.88	491.51
536.05	458.74
536.22	533.64
536.38	545.34
536.55	463.43
536.72	599.18
536.89	463.43
537.06	547.69
537.23	535.98
537.40	664.71
537.57	571.09
537.74	594.50
537.91	655.35
538.08	634.29
538.25	596.84
538.42	620.24
538.59	587.47
538.75	638.97
538.92	615.56
539.09	606.20
539.26	617.90
539.43	620.24
539.60	683.44
539.77	793.44
539.94	737.27
540.11	781.74
540.28	826.21
540.44	849.61
540.61	889.40
540.78	938.55
540.95	1114.10
541.12	1203.04
541.29	1273.25
541.46	1394.96
541.62	1423.05
541.79	1390.28
541.96	1231.12
542.13	1249.85
542.30	1329.42
542.47	1242.82
542.63	1172.61
542.80	1107.07
542.97	1123.46
543.14	1078.99
543.31	1093.03
543.48	1151.54
543.64	1203.04
543.81	1130.48
543.98	1135.16
544.15	1093.03
544.32	1123.46
544.48	1186.65
544.65	1118.78
544.82	1205.38
544.99	1125.80
545.16	1167.93
545.32	1193.67
545.49	1732.00
545.66	2567.57
545.83	2946.73
546.00	2719.70
546.16	1942.64
546.33	1610.29
546.50	1203.04
546.67	1102.39
546.83	997.07
547.00	954.94
547.17	1043.88
547.34	823.87
547.50	940.90
547.67	945.58
547.84	856.64
548.00	896.43
548.17	802.80
548.34	784.08
548.51	901.11
548.67	809.83
548.84	767.70
549.01	800.46
549.18	702.16
549.34	781.74
549.51	755.99
549.68	702.16
549.84	704.50
550.01	638.97
550.18	751.31
550.34	727.91
550.51	704.50
550.68	739.61
550.84	589.82
551.01	641.31
551.18	589.82
551.34	629.60
551.51	603.86
551.68	610.88
551.84	613.22
552.01	610.88
552.18	603.86
552.34	545.34
552.51	617.90
552.68	613.22
552.84	561.73
553.01	545.34
553.18	519.60
553.34	545.34
553.51	608.54
553.67	512.58
553.84	608.54
554.01	554.71
554.17	496.19
554.34	514.92
554.51	573.43
554.67	517.26
554.84	592.16
555.00	519.60
555.17	545.34
555.33	617.90
555.50	482.15
555.67	411.93
555.83	423.64
556.00	484.49
556.16	645.99
556.33	571.09
556.50	451.72
556.66	430.66
556.83	435.34
556.99	449.38
557.16	437.68
557.32	454.06
557.49	468.11
557.65	472.79
557.82	519.60
557.98	388.53
558.15	479.81
558.32	479.81
558.48	400.23
558.65	404.91
558.81	447.04
558.98	454.06
559.14	346.40
559.31	461.09
559.47	442.36
559.64	430.66
559.80	477.47
559.97	454.06
560.13	397.89
560.30	461.09
560.46	421.30
560.63	411.93
560.79	451.72
560.96	510.24
561.12	500.87
561.29	458.74
561.45	411.93
561.61	409.59
561.78	482.15
561.94	451.72
562.11	428.32
562.27	390.87
562.44	472.79
562.60	433.00
562.77	451.72
562.93	430.66
563.10	437.68
563.26	433.00
563.42	468.11
563.59	498.53
563.75	442.36
563.92	428.32
564.08	428.32
564.24	365.12
564.41	411.93
564.57	425.98
564.74	409.59
564.90	414.27
565.07	437.68
565.23	400.23
565.39	381.51
565.56	470.45
565.72	404.91
565.88	409.59
566.05	409.59
566.21	451.72
566.38	372.15
566.54	376.83
566.70	388.53
566.87	463.43
567.03	395.55
567.19	472.79
567.36	447.04
567.52	440.02
567.68	369.80
567.85	388.53
568.01	449.38
568.17	344.06
568.34	454.06
568.50	327.68
568.66	425.98
568.83	475.13
568.99	367.46
569.15	376.83
569.32	449.38
569.48	428.32
569.64	374.49
569.81	339.38
569.97	395.55
570.13	376.83
570.30	315.97
570.46	428.32
570.62	388.53
570.78	348.74
570.95	461.09
571.11	461.09
571.27	383.85
571.43	372.15
571.60	418.96
571.76	411.93
571.92	339.38
572.09	402.57
572.25	454.06
572.41	330.02
572.57	355.76
572.74	428.32
572.90	407.25
573.06	458.74
573.22	393.21
573.38	379.17
573.55	433.00
573.71	402.57
573.87	402.57
574.03	386.19
574.20	400.23
574.36	514.92
574.52	437.68
574.68	280.86
574.84	332.36
575.01	386.19
575.17	456.40
575.33	379.17
575.49	428.32
575.65	388.53
575.82	421.30
575.98	430.66
576.14	411.93
576.30	442.36
576.46	648.33
576.62	835.57
576.79	926.85
576.95	823.87
577.11	648.33
577.27	416.62
577.43	411.93
577.59	489.17
577.75	479.81
577.92	383.85
578.08	372.15
578.24	435.34
578.40	435.34
578.56	660.03
578.72	814.51
578.88	779.40
579.04	692.80
579.21	561.73
579.37	475.13
579.53	517.26
579.69	571.09
579.85	517.26
580.01	566.41
580.17	514.92
580.33	465.77
580.49	514.92
580.65	447.04
580.82	454.06
580.98	486.83
581.14	470.45
581.30	514.92
581.46	545.34
581.62	512.58
581.78	580.45
581.94	496.19
582.10	573.43
582.26	592.16
582.42	521.94
582.58	585.13
582.74	631.94
582.90	575.77
583.06	535.98
583.22	573.43
583.38	571.09
583.54	510.24
583.70	594.50
583.86	571.09
584.02	491.51
584.18	599.18
584.34	472.79
584.50	512.58
584.66	533.64
584.82	484.49
584.98	547.69
585.14	482.15
585.30	545.34
585.46	550.03
585.62	554.71
585.78	514.92
585.94	470.45
586.10	594.50
586.26	524.28
586.42	496.19
586.58	594.50
586.74	566.41
586.90	676.41
587.06	746.63
587.22	695.14
587.38	664.71
587.54	674.07
587.70	653.01
587.86	566.41
588.02	512.58
588.18	484.49
588.34	430.66
588.49	383.85
588.65	383.85
588.81	484.49
588.97	449.38
589.13	383.85
589.29	484.49
589.45	430.66
589.61	369.80
589.77	400.23
589.93	374.49
590.08	369.80
590.24	425.98
590.40	484.49
590.56	435.34
590.72	428.32
590.88	440.02
591.04	381.51
591.20	463.43
591.35	461.09
591.51	528.96
591.67	484.49
591.83	470.45
591.99	472.79
592.15	566.41
592.31	505.56
592.46	582.79
592.62	582.79
592.78	610.88
592.94	573.43
593.10	582.79
593.26	533.64
593.41	554.71
593.57	507.90
593.73	475.13
593.89	470.45
594.05	437.68
594.20	428.32
594.36	369.80
594.52	463.43
594.68	397.89
594.84	400.23
594.99	442.36
595.15	414.27
595.31	465.77
595.47	470.45
595.62	416.62
595.78	369.80
595.94	418.96
596.10	451.72
596.25	435.34
596.41	477.47
596.57	348.74
596.73	393.21
596.88	397.89
597.04	355.76
597.20	421.30
597.36	411.93
597.51	379.17
597.67	425.98
597.83	470.45
597.99	402.57
598.14	479.81
598.30	510.24
598.46	491.51
598.61	430.66
598.77	440.02
598.93	381.51
599.09	470.45
599.24	547.69
599.40	512.58
599.56	493.85
599.71	526.62
599.87	409.59
600.03	444.70
600.18	381.51
600.34	409.59
600.50	489.17
600.65	407.25
600.81	479.81
600.97	456.40
601.12	397.89
601.28	454.06
601.44	451.72
601.59	367.46
601.75	402.57
601.91	383.85
602.06	318.31
602.22	533.64
602.37	402.57
602.53	430.66
602.69	397.89
602.84	437.68
603.00	407.25
603.16	372.15
603.31	486.83
603.47	449.38
603.62	355.76
603.78	454.06
603.94	472.79
604.09	433.00
604.25	489.17
604.40	411.93
604.56	435.34
604.71	479.81
604.87	425.98
605.03	409.59
605.18	435.34
605.34	449.38
605.49	388.53
605.65	379.17
605.80	407.25
605.96	407.25
606.12	416.62
606.27	482.15
606.43	416.62
606.58	418.96
606.74	468.11
606.89	430.66
607.05	395.55
607.20	414.27
607.36	454.06
607.51	411.93
607.67	458.74
607.82	451.72
607.98	472.79
608.13	491.51
608.29	482.15
608.44	589.82
608.60	547.69
608.75	589.82
608.91	671.73
609.06	557.05
609.22	678.76
609.37	671.73
609.53	629.60
609.68	788.76
609.84	847.27
609.99	826.21
610.15	992.39
610.30	1144.52
610.46	1345.81
610.61	1724.97
610.76	2090.10
610.92	2607.36
611.07	2665.87
611.23	2766.51
611.38	2546.50
611.54	2223.51
611.69	1860.73
611.84	1675.82
612.00	1390.28
612.15	1327.08
612.31	1200.69
612.46	1170.27
612.62	1025.15
612.77	1069.62
612.92	990.05
613.08	990.05
613.23	940.90
613.39	851.96
613.54	894.08
613.69	781.74
613.85	858.98
614.00	828.55
614.15	870.68
614.31	753.65
614.46	795.78
614.62	739.61
614.77	720.88
614.92	770.04
615.08	648.33
615.23	645.99
615.38	610.88
615.54	573.43
615.69	610.88
615.84	568.75
616.00	500.87
616.15	580.45
616.30	528.96
616.46	493.85
616.61	456.40
616.76	388.53
616.92	411.93
617.07	465.77
617.22	430.66
617.37	414.27
617.53	442.36
617.68	397.89
617.83	435.34
617.99	479.81
618.14	547.69
618.29	423.64
618.45	475.13
618.60	482.15
618.75	402.57
618.90	430.66
619.06	500.87
619.21	486.83
619.36	421.30
619.51	449.38
619.67	404.91
619.82	423.64
619.97	430.66
620.12	381.51
620.28	393.21
620.43	355.76
620.58	440.02
620.73	486.83
620.89	334.70
621.04	397.89
621.19	416.62
621.34	421.30
621.49	444.70
621.65	411.93
621.80	437.68
621.95	414.27
622.10	465.77
622.25	346.40
622.41	327.68
622.56	409.59
622.71	388.53
622.86	418.96
623.01	341.72
623.16	383.85
623.32	376.83
623.47	411.93
623.62	482.15
623.77	395.55
623.92	418.96
624.07	444.70
624.23	470.45
624.38	290.23
624.53	437.68
624.68	463.43
624.83	475.13
624.98	402.57
625.13	393.21
625.29	500.87
625.44	379.17
625.59	367.46
625.74	423.64
625.89	402.57
626.04	414.27
626.19	444.70
626.34	423.64
626.49	416.62
626.65	411.93
626.80	449.38
626.95	418.96
627.10	397.89
627.25	402.57
627.40	407.25
627.55	390.87
627.70	414.27
627.85	472.79
628.00	376.83
628.15	374.49
628.30	428.32
628.45	330.02
628.60	322.99
628.76	409.59
628.91	306.61
629.06	325.33
629.21	397.89
629.36	463.43
629.51	369.80
629.66	388.53
629.81	372.15
629.96	479.81
630.11	475.13
630.26	496.19
630.41	479.81
630.56	531.30
630.71	475.13
630.86	505.56
631.01	519.60
631.16	543.00
631.31	465.77
631.46	631.94
631.61	397.89
631.76	390.87
631.91	315.97
632.06	355.76
632.21	397.89
632.36	337.04
632.51	262.14
632.66	290.23
632.81	308.95
632.96	341.72
633.10	330.02
633.25	360.44
633.40	315.97
633.55	283.20
633.70	322.99
633.85	278.52
634.00	292.57
634.15	271.50
634.30	344.06
634.45	299.59
634.60	320.65
634.75	257.46
634.90	315.97
635.05	252.78
635.19	297.25
635.34	341.72
635.49	308.95
635.64	287.89
635.79	292.57
635.94	266.82
636.09	339.38
636.24	257.46
636.39	287.89
636.53	294.91
636.68	257.46
636.83	262.14
636.98	297.25
637.13	304.27
637.28	262.14
637.43	362.78
637.57	320.65
637.72	327.68
637.87	308.95
638.02	285.55
638.17	273.84
638.32	283.20
638.46	372.15
638.61	299.59
638.76	360.44
638.91	205.97
639.06	259.80
639.20	372.15
639.35	278.52
639.50	294.91
639.65	386.19
639.80	273.84
639.94	287.89
640.09	320.65
640.24	290.23
640.39	325.33
640.54	301.93
640.68	266.82
640.83	266.82
640.98	198.95
641.13	217.67
641.27	231.71
641.42	276.18
641.57	273.84
641.72	362.78
641.86	304.27
642.01	264.48
642.16	301.93
642.31	287.89
642.45	355.76
642.60	311.29
642.75	337.04
642.90	339.38
643.04	308.95
643.19	322.99
643.34	222.35
643.48	283.20
643.63	285.55
643.78	259.80
643.93	294.91
644.07	238.73
644.22	264.48
644.37	332.36
644.51	304.27
644.66	294.91
644.81	271.50
644.95	344.06
645.10	229.37
645.25	248.10
645.39	278.52
645.54	259.80
645.69	241.08
645.83	241.08
645.98	285.55
646.13	231.71
646.27	292.57
646.42	355.76
646.57	194.26
646.71	222.35
646.86	187.24
647.00	241.08
647.15	255.12
647.30	262.14
647.44	236.39
647.59	257.46
647.74	203.63
647.88	229.37
648.03	234.05
648.17	191.92
648.32	248.10
648.47	245.76
648.61	266.82
648.76	220.01
648.90	287.89
649.05	257.46
649.20	285.55
649.34	224.69
649.49	224.69
649.63	264.48
649.78	255.12
649.92	332.36
650.07	311.29
650.21	346.40
650.36	341.72
650.51	273.84
650.65	327.68
650.80	210.65
650.94	222.35
651.09	262.14
651.23	269.16
651.38	203.63
651.52	301.93
651.67	252.78
651.81	224.69
651.96	325.33
652.10	257.46
652.25	271.50
652.39	215.33
652.54	231.71
652.68	318.31
652.83	344.06
652.97	369.80
653.12	318.31
653.26	264.48
653.41	236.39
653.55	245.76
653.70	304.27
653.84	320.65
653.99	262.14
654.13	215.33
654.27	243.42
654.42	255.12
654.56	234.05
654.71	269.16
654.85	259.80
655.00	262.14
655.14	325.33
655.29	191.92
655.43	250.44
655.57	241.08
655.72	208.31
655.86	252.78
656.01	250.44
656.15	145.11
656.30	276.18
656.44	252.78
656.58	210.65
656.73	229.37
656.87	264.48
657.01	210.65
657.16	205.97
657.30	248.10
657.45	292.57
657.59	238.73
657.73	248.10
657.88	220.01
658.02	264.48
658.16	222.35
658.31	184.90
658.45	203.63
658.60	203.63
658.74	220.01
658.88	273.84
659.03	264.48
659.17	231.71
659.31	259.80
659.46	243.42
659.60	273.84
659.74	215.33
659.89	255.12
660.03	255.12
660.17	337.04
660.32	248.10
660.46	339.38
660.60	262.14
660.74	308.95
660.89	224.69
661.03	229.37
661.17	166.18
661.32	241.08
661.46	290.23
661.60	255.12
661.74	241.08
661.89	304.27
662.03	285.55
662.17	255.12
662.31	210.65
662.46	285.55
662.60	250.44
662.74	273.84
662.88	341.72
663.03	280.86
663.17	201.29
663.31	280.86
663.45	217.67
663.60	238.73
663.74	231.71
663.88	191.92
664.02	297.25
664.17	276.18
664.31	220.01
664.45	180.22
664.59	255.12
664.73	217.67
664.88	252.78
665.02	229.37
665.16	215.33
665.30	243.42
665.44	189.58
665.59	227.03
665.73	322.99
665.87	276.18
666.01	245.76
666.15	243.42
666.29	276.18
666.44	285.55
666.58	243.42
666.72	201.29
666.86	191.92
667.00	318.31
667.14	301.93
667.28	269.16
667.43	201.29
667.57	187.24
667.71	180.22
667.85	271.50
667.99	308.95
668.13	182.56
668.27	217.67
668.41	231.71
668.56	287.89
668.70	234.05
668.84	344.06
668.98	262.14
669.12	269.16
669.26	184.90
669.40	299.59
669.54	250.44
669.68	203.63
669.82	201.29
669.96	269.16
670.10	245.76
670.25	227.03
670.39	210.65
670.53	184.90
670.67	224.69
670.81	255.12
670.95	243.42
671.09	175.54
671.23	294.91
671.37	259.80
671.51	182.56
671.65	259.80
671.79	250.44
671.93	238.73
672.07	304.27
672.21	259.80
672.35	318.31
672.49	201.29
672.63	248.10
672.77	220.01
672.91	215.33
673.05	210.65
673.19	250.44
673.33	306.61
673.47	283.20
673.61	234.05
673.75	224.69
673.89	250.44
674.03	187.24
674.17	222.35
674.31	259.80
674.45	201.29
674.59	236.39
674.73	255.12
674.87	287.89
675.01	257.46
675.15	220.01
675.29	273.84
675.43	280.86
675.56	266.82
675.70	227.03
675.84	201.29
675.98	201.29
676.12	161.50
676.26	262.14
676.40	145.11
676.54	173.20
676.68	285.55
676.82	262.14
676.96	231.71
677.10	229.37
677.23	224.69
677.37	135.75
677.51	273.84
677.65	252.78
677.79	236.39
677.93	140.43
678.07	100.64
678.21	245.76
678.34	243.42
678.48	182.56
678.62	236.39
678.76	220.01
678.90	236.39
679.04	119.37
679.18	220.01
679.31	191.92
679.45	210.65
679.59	283.20
679.73	210.65
679.87	208.31
680.00	227.03
680.14	241.08
680.28	259.80
680.42	210.65
680.56	189.58
680.70	208.31
680.83	220.01
680.97	170.86
681.11	257.46
681.25	271.50
681.39	220.01
681.52	189.58
681.66	161.50
681.80	203.63
681.94	182.56
682.07	236.39
682.21	205.97
682.35	222.35
682.49	208.31
682.62	203.63
682.76	227.03
682.90	177.88
683.04	215.33
683.17	201.29
683.31	135.75
683.45	259.80
683.59	182.56
683.72	222.35
683.86	208.31
684.00	177.88
684.13	196.60
684.27	238.73
684.41	175.54
684.55	198.95
684.68	175.54
684.82	180.22
684.96	198.95
685.09	124.05
685.23	126.39
685.37	222.35
685.50	210.65
685.64	117.03
685.78	177.88
685.91	175.54
686.05	245.76
686.19	88.94
686.32	161.50
686.46	175.54
686.60	170.86
686.73	205.97
686.87	184.90
687.01	117.03
687.14	128.73
687.28	145.11
687.42	210.65
687.55	194.26
687.69	222.35
687.82	163.84
687.96	210.65
688.10	208.31
688.23	159.16
688.37	191.92
688.50	301.93
688.64	191.92
688.78	107.66
688.91	163.84
689.05	177.88
689.18	159.16
689.32	203.63
689.46	217.67
689.59	124.05
689.73	187.24
689.86	168.52
690.00	175.54
690.13	140.43
690.27	210.65
690.41	168.52
690.54	93.62
690.68	170.86
690.81	138.09
690.95	231.71
691.08	147.45
691.22	161.50
691.35	149.79
691.49	121.71
691.62	93.62
691.76	98.30
691.89	170.86
692.03	161.50
692.16	124.05
692.30	177.88
692.43	161.50
692.57	177.88
692.70	88.94
692.84	161.50
692.97	156.82
693.11	107.66
693.24	205.97
693.38	191.92
693.51	177.88
693.65	220.01
693.78	203.63
693.92	182.56
694.05	173.20
694.19	107.66
694.32	121.71
694.45	154.48
694.59	154.48
694.72	196.60
694.86	234.05
694.99	173.20
695.13	166.18
695.26	138.09
695.39	112.35
695.53	255.12
695.66	163.84
695.80	201.29
695.93	117.03
696.07	93.62
696.20	170.86
696.33	74.90
696.47	124.05
696.60	177.88
696.73	124.05
696.87	105.32
697.00	182.56
697.14	110.01
697.27	196.60
697.40	182.56
697.54	117.03
697.67	210.65
697.80	184.90
697.94	156.82
698.07	191.92
698.21	205.97
698.34	145.11
698.47	152.13
698.61	159.16
698.74	98.30
698.87	227.03
699.01	135.75
699.14	126.39
699.27	91.28
699.40	208.31
699.54	182.56
699.67	102.98
699.80	175.54
699.94	145.11
700.07	133.41
700.20	135.75
700.34	124.05
700.47	154.48
700.60	49.15
700.73	114.69
700.87	114.69
701.00	145.11
701.13	198.95
701.26	84.26
701.40	119.37
701.53	154.48
701.66	156.82
701.79	0.00
701.93	182.56
702.06	220.01
702.19	112.35
702.32	191.92
702.46	166.18
702.59	138.09
702.72	114.69
702.85	149.79
702.99	180.22
703.12	147.45
703.25	32.77
703.38	140.43
703.51	100.64
703.65	156.82
703.78	154.48
703.91	105.32
704.04	100.64
704.17	161.50
704.31	154.48
704.44	128.73
704.57	124.05
704.70	170.86
704.83	126.39
704.96	110.01
705.10	135.75
705.23	140.43
>>>>>End Processed Spectral Data<<<<<
