SpectraSuite Data File
++++++++++++++++++++++++++++++++++++
Date: Fri Oct 04 11:41:53 GMT-05:00 2013
User: price-jones
Dark Spectrum Present: No
Reference Spectrum Present: No
Number of Sampled Component Spectra: 1
Spectrometers: USB2+H05261
Integration Time (usec): 100000 (USB2+H05261)
Spectra Averaged: 1 (USB2+H05261)
Boxcar Smoothing: 0 (USB2+H05261)
Correct for Electrical Dark: No (USB2+H05261)
Strobe/Lamp Enabled: No (USB2+H05261)
Correct for Detector Non-linearity: No (USB2+H05261)
Correct for Stray Light: No (USB2+H05261)
Number of Pixels in Processed Spectrum: 2048
>>>>>Begin Processed Spectral Data<<<<<
365.73	44.47
365.92	44.47
366.12	44.47
366.32	0.00
366.52	0.00
366.72	0.00
366.91	0.00
367.11	0.00
367.31	0.00
367.51	0.00
367.70	0.00
367.90	0.00
368.10	0.00
368.30	0.00
368.49	0.00
368.69	4.68
368.89	0.00
369.09	0.00
369.28	0.00
369.48	0.00
369.68	0.00
369.87	0.00
370.07	14.04
370.27	30.43
370.47	42.13
370.66	37.45
370.86	51.49
371.06	28.09
371.25	105.32
371.45	0.00
371.65	60.85
371.84	93.62
372.04	58.51
372.24	100.64
372.44	72.56
372.63	67.88
372.83	147.45
373.03	81.92
373.22	114.69
373.42	107.66
373.62	147.45
373.81	81.92
374.01	170.86
374.21	145.11
374.40	117.03
374.60	205.97
374.79	142.77
374.99	74.90
375.19	102.98
375.38	152.13
375.58	201.29
375.78	191.92
375.97	156.82
376.17	208.31
376.37	95.96
376.56	44.47
376.76	93.62
376.95	168.52
377.15	166.18
377.35	112.35
377.54	133.41
377.74	98.30
377.93	107.66
378.13	107.66
378.33	124.05
378.52	149.79
378.72	95.96
378.91	161.50
379.11	11.70
379.31	154.48
379.50	98.30
379.70	138.09
379.89	187.24
380.09	159.16
380.28	131.07
380.48	102.98
380.68	95.96
380.87	63.19
381.07	74.90
381.26	126.39
381.46	133.41
381.65	133.41
381.85	0.00
382.04	131.07
382.24	119.37
382.43	53.83
382.63	67.88
382.83	95.96
383.02	147.45
383.22	149.79
383.41	51.49
383.61	133.41
383.80	86.60
384.00	124.05
384.19	65.54
384.39	91.28
384.58	166.18
384.78	95.96
384.97	107.66
385.17	133.41
385.36	84.26
385.56	121.71
385.75	175.54
385.95	128.73
386.14	147.45
386.34	126.39
386.53	112.35
386.72	112.35
386.92	142.77
387.11	173.20
387.31	105.32
387.50	117.03
387.70	28.09
387.89	156.82
388.09	91.28
388.28	100.64
388.48	154.48
388.67	166.18
388.86	173.20
389.06	98.30
389.25	93.62
389.45	173.20
389.64	156.82
389.84	177.88
390.03	95.96
390.22	138.09
390.42	84.26
390.61	128.73
390.81	23.41
391.00	91.28
391.19	161.50
391.39	67.88
391.58	147.45
391.78	128.73
391.97	198.95
392.16	86.60
392.36	196.60
392.55	95.96
392.75	147.45
392.94	88.94
393.13	159.16
393.33	117.03
393.52	128.73
393.71	131.07
393.91	121.71
394.10	124.05
394.29	121.71
394.49	126.39
394.68	124.05
394.88	154.48
395.07	161.50
395.26	58.51
395.46	159.16
395.65	86.60
395.84	112.35
396.04	154.48
396.23	84.26
396.42	63.19
396.62	84.26
396.81	128.73
397.00	65.54
397.19	131.07
397.39	107.66
397.58	191.92
397.77	56.17
397.97	105.32
398.16	77.24
398.35	131.07
398.55	114.69
398.74	140.43
398.93	119.37
399.12	147.45
399.32	114.69
399.51	135.75
399.70	170.86
399.90	142.77
400.09	152.13
400.28	88.94
400.47	93.62
400.67	187.24
400.86	147.45
401.05	154.48
401.24	112.35
401.44	231.71
401.63	133.41
401.82	173.20
402.01	133.41
402.21	138.09
402.40	163.84
402.59	177.88
402.78	177.88
402.97	135.75
403.17	163.84
403.36	156.82
403.55	227.03
403.74	500.87
403.93	1416.02
404.13	2942.05
404.32	3286.11
404.51	2668.21
404.70	1544.75
404.89	578.11
405.09	353.42
405.28	220.01
405.47	93.62
405.66	182.56
405.85	159.16
406.05	205.97
406.24	198.95
406.43	180.22
406.62	149.79
406.81	177.88
407.00	278.52
407.20	433.00
407.39	596.84
407.58	535.98
407.77	379.17
407.96	304.27
408.15	177.88
408.34	121.71
408.54	262.14
408.73	163.84
408.92	131.07
409.11	166.18
409.30	168.52
409.49	140.43
409.68	161.50
409.87	107.66
410.07	159.16
410.26	177.88
410.45	159.16
410.64	95.96
410.83	184.90
411.02	170.86
411.21	128.73
411.40	133.41
411.59	210.65
411.78	152.13
411.98	154.48
412.17	180.22
412.36	154.48
412.55	212.99
412.74	184.90
412.93	173.20
413.12	180.22
413.31	147.45
413.50	182.56
413.69	184.90
413.88	184.90
414.07	131.07
414.26	159.16
414.45	180.22
414.64	187.24
414.83	208.31
415.02	142.77
415.22	135.75
415.41	182.56
415.60	175.54
415.79	210.65
415.98	255.12
416.17	191.92
416.36	220.01
416.55	184.90
416.74	145.11
416.93	191.92
417.12	180.22
417.31	173.20
417.50	175.54
417.69	229.37
417.88	184.90
418.07	196.60
418.26	156.82
418.45	208.31
418.64	224.69
418.83	205.97
419.02	198.95
419.21	177.88
419.39	227.03
419.58	168.52
419.77	112.35
419.96	234.05
420.15	215.33
420.34	159.16
420.53	227.03
420.72	187.24
420.91	145.11
421.10	191.92
421.29	170.86
421.48	229.37
421.67	217.67
421.86	224.69
422.05	156.82
422.24	234.05
422.43	234.05
422.61	236.39
422.80	198.95
422.99	154.48
423.18	292.57
423.37	198.95
423.56	187.24
423.75	175.54
423.94	191.92
424.13	210.65
424.32	194.26
424.50	217.67
424.69	194.26
424.88	294.91
425.07	128.73
425.26	250.44
425.45	220.01
425.64	215.33
425.83	308.95
426.01	191.92
426.20	229.37
426.39	166.18
426.58	133.41
426.77	238.73
426.96	276.18
427.15	297.25
427.33	229.37
427.52	142.77
427.71	283.20
427.90	220.01
428.09	250.44
428.28	175.54
428.46	322.99
428.65	227.03
428.84	255.12
429.03	243.42
429.22	222.35
429.40	301.93
429.59	234.05
429.78	276.18
429.97	220.01
430.16	208.31
430.34	224.69
430.53	297.25
430.72	248.10
430.91	280.86
431.10	217.67
431.28	227.03
431.47	271.50
431.66	318.31
431.85	241.08
432.03	271.50
432.22	325.33
432.41	184.90
432.60	351.08
432.79	304.27
432.97	210.65
433.16	299.59
433.35	337.04
433.54	283.20
433.72	346.40
433.91	381.51
434.10	447.04
434.28	571.09
434.47	582.79
434.66	648.33
434.85	844.93
435.03	2438.84
435.22	8372.10
435.41	15236.89
435.59	13830.23
435.78	8798.07
435.97	4320.63
436.16	1764.76
436.34	674.07
436.53	505.56
436.72	510.24
436.90	393.21
437.09	388.53
437.28	402.57
437.46	320.65
437.65	374.49
437.84	266.82
438.02	266.82
438.21	381.51
438.40	311.29
438.58	224.69
438.77	273.84
438.96	294.91
439.14	264.48
439.33	290.23
439.52	250.44
439.70	276.18
439.89	332.36
440.08	327.68
440.26	264.48
440.45	269.16
440.63	290.23
440.82	308.95
441.01	313.63
441.19	327.68
441.38	318.31
441.57	264.48
441.75	360.44
441.94	327.68
442.12	358.10
442.31	201.29
442.50	229.37
442.68	360.44
442.87	285.55
443.05	245.76
443.24	266.82
443.43	322.99
443.61	379.17
443.80	287.89
443.98	266.82
444.17	327.68
444.35	325.33
444.54	285.55
444.73	292.57
444.91	287.89
445.10	262.14
445.28	238.73
445.47	257.46
445.65	245.76
445.84	278.52
446.02	320.65
446.21	205.97
446.39	287.89
446.58	358.10
446.77	280.86
446.95	376.83
447.14	299.59
447.32	273.84
447.51	276.18
447.69	285.55
447.88	318.31
448.06	248.10
448.25	262.14
448.43	294.91
448.62	290.23
448.80	264.48
448.99	292.57
449.17	248.10
449.36	332.36
449.54	304.27
449.73	292.57
449.91	346.40
450.10	325.33
450.28	318.31
450.46	374.49
450.65	320.65
450.83	236.39
451.02	241.08
451.20	337.04
451.39	257.46
451.57	250.44
451.76	290.23
451.94	346.40
452.13	311.29
452.31	348.74
452.49	325.33
452.68	222.35
452.86	234.05
453.05	322.99
453.23	255.12
453.42	290.23
453.60	264.48
453.78	266.82
453.97	297.25
454.15	341.72
454.34	264.48
454.52	234.05
454.70	315.97
454.89	294.91
455.07	248.10
455.26	278.52
455.44	346.40
455.62	311.29
455.81	313.63
455.99	241.08
456.17	311.29
456.36	318.31
456.54	271.50
456.73	313.63
456.91	243.42
457.09	285.55
457.28	325.33
457.46	236.39
457.64	290.23
457.83	271.50
458.01	248.10
458.19	346.40
458.38	255.12
458.56	346.40
458.74	248.10
458.93	262.14
459.11	227.03
459.29	283.20
459.48	269.16
459.66	318.31
459.84	280.86
460.03	381.51
460.21	341.72
460.39	257.46
460.57	372.15
460.76	215.33
460.94	273.84
461.12	379.17
461.31	383.85
461.49	245.76
461.67	238.73
461.85	266.82
462.04	292.57
462.22	718.54
462.40	285.55
462.59	353.42
462.77	234.05
462.95	346.40
463.13	292.57
463.32	269.16
463.50	243.42
463.68	348.74
463.86	255.12
464.05	276.18
464.23	379.17
464.41	339.38
464.59	299.59
464.78	344.06
464.96	276.18
465.14	313.63
465.32	327.68
465.50	315.97
465.69	248.10
465.87	250.44
466.05	248.10
466.23	318.31
466.41	315.97
466.60	229.37
466.78	320.65
466.96	344.06
467.14	372.15
467.32	299.59
467.51	362.78
467.69	285.55
467.87	355.76
468.05	234.05
468.23	360.44
468.41	327.68
468.60	245.76
468.78	238.73
468.96	339.38
469.14	285.55
469.32	311.29
469.50	173.20
469.69	243.42
469.87	262.14
470.05	266.82
470.23	283.20
470.41	306.61
470.59	262.14
470.77	344.06
470.95	234.05
471.14	353.42
471.32	259.80
471.50	320.65
471.68	322.99
471.86	243.42
472.04	327.68
472.22	257.46
472.40	280.86
472.58	294.91
472.77	189.58
472.95	245.76
473.13	297.25
473.31	362.78
473.49	388.53
473.67	322.99
473.85	362.78
474.03	294.91
474.21	353.42
474.39	299.59
474.57	278.52
474.75	337.04
474.93	276.18
475.12	283.20
475.30	304.27
475.48	189.58
475.66	285.55
475.84	351.08
476.02	255.12
476.20	262.14
476.38	292.57
476.56	400.23
476.74	252.78
476.92	341.72
477.10	259.80
477.28	344.06
477.46	266.82
477.64	308.95
477.82	311.29
478.00	292.57
478.18	332.36
478.36	330.02
478.54	332.36
478.72	315.97
478.90	276.18
479.08	395.55
479.26	461.09
479.44	320.65
479.62	348.74
479.80	360.44
479.98	344.06
480.16	421.30
480.34	449.38
480.52	348.74
480.70	437.68
480.88	381.51
481.06	409.59
481.24	395.55
481.41	477.47
481.59	535.98
481.77	503.22
481.95	552.37
482.13	566.41
482.31	580.45
482.49	573.43
482.67	648.33
482.85	606.20
483.03	727.91
483.21	777.06
483.39	753.65
483.57	870.68
483.74	954.94
483.92	1020.47
484.10	894.08
484.28	978.34
484.46	1167.93
484.64	1125.80
484.82	1151.54
485.00	1188.99
485.18	1329.42
485.35	1348.15
485.53	1467.52
485.71	1434.75
485.89	1528.37
486.07	1556.46
486.25	1607.95
486.43	1586.88
486.61	1507.30
486.78	1633.69
486.96	1612.63
487.14	1540.07
487.32	1621.99
487.50	1530.71
487.68	1579.86
487.85	1483.90
488.03	1462.83
488.21	1476.88
488.39	1378.58
488.57	1502.62
488.75	1409.00
488.92	1640.72
489.10	1359.85
489.28	1359.85
489.46	1294.32
489.64	1249.85
489.81	1252.19
489.99	1242.82
490.17	1266.23
490.35	1275.59
490.53	1128.14
490.70	1207.72
490.88	1186.65
491.06	1301.34
491.24	1359.85
491.41	1378.58
491.59	1252.19
491.77	1200.69
491.95	1153.88
492.13	1193.67
492.30	1064.94
492.48	1139.84
492.66	1064.94
492.84	1053.24
493.01	999.41
493.19	1071.97
493.37	1067.28
493.54	1100.05
493.72	1100.05
493.90	978.34
494.08	901.11
494.25	1006.43
494.43	950.26
494.61	952.60
494.79	924.51
494.96	1001.75
495.14	961.96
495.32	945.58
495.49	926.85
495.67	861.32
495.85	837.91
496.02	847.27
496.20	896.43
496.38	812.17
496.55	807.48
496.73	835.57
496.91	791.10
497.09	807.48
497.26	802.80
497.44	795.78
497.62	812.17
497.79	744.29
497.97	734.93
498.14	779.40
498.32	685.78
498.50	702.16
498.67	730.25
498.85	702.16
499.03	734.93
499.20	716.20
499.38	676.41
499.56	631.94
499.73	608.54
499.91	615.56
500.08	709.18
500.26	578.11
500.44	465.77
500.61	531.30
500.79	587.47
500.97	561.73
501.14	634.29
501.32	531.30
501.49	500.87
501.67	442.36
501.84	463.43
502.02	510.24
502.20	566.41
502.37	444.70
502.55	447.04
502.72	475.13
502.90	477.47
503.07	365.12
503.25	451.72
503.43	425.98
503.60	355.76
503.78	447.04
503.95	348.74
504.13	362.78
504.30	332.36
504.48	451.72
504.65	447.04
504.83	414.27
505.01	414.27
505.18	475.13
505.36	388.53
505.53	276.18
505.71	365.12
505.88	369.80
506.06	330.02
506.23	280.86
506.41	369.80
506.58	369.80
506.76	442.36
506.93	360.44
507.11	353.42
507.28	381.51
507.46	348.74
507.63	311.29
507.81	332.36
507.98	318.31
508.16	325.33
508.33	358.10
508.50	358.10
508.68	369.80
508.85	315.97
509.03	447.04
509.20	355.76
509.38	294.91
509.55	262.14
509.73	397.89
509.90	315.97
510.08	381.51
510.25	395.55
510.42	278.52
510.60	374.49
510.77	290.23
510.95	285.55
511.12	365.12
511.30	355.76
511.47	360.44
511.64	376.83
511.82	304.27
511.99	362.78
512.17	341.72
512.34	337.04
512.51	276.18
512.69	313.63
512.86	430.66
513.04	341.72
513.21	257.46
513.38	248.10
513.56	315.97
513.73	337.04
513.90	234.05
514.08	287.89
514.25	283.20
514.43	318.31
514.60	304.27
514.77	285.55
514.95	339.38
515.12	308.95
515.29	339.38
515.47	327.68
515.64	393.21
515.81	264.48
515.99	332.36
516.16	287.89
516.33	362.78
516.51	353.42
516.68	257.46
516.85	327.68
517.03	322.99
517.20	259.80
517.37	285.55
517.54	353.42
517.72	311.29
517.89	184.90
518.06	341.72
518.24	334.70
518.41	337.04
518.58	346.40
518.75	299.59
518.93	306.61
519.10	290.23
519.27	327.68
519.45	355.76
519.62	339.38
519.79	304.27
519.96	252.78
520.14	276.18
520.31	339.38
520.48	217.67
520.65	294.91
520.83	255.12
521.00	344.06
521.17	262.14
521.34	187.24
521.52	259.80
521.69	334.70
521.86	315.97
522.03	365.12
522.20	393.21
522.38	313.63
522.55	243.42
522.72	337.04
522.89	365.12
523.07	367.46
523.24	365.12
523.41	367.46
523.58	339.38
523.75	276.18
523.92	250.44
524.10	252.78
524.27	334.70
524.44	276.18
524.61	337.04
524.78	341.72
524.96	308.95
525.13	276.18
525.30	297.25
525.47	334.70
525.64	327.68
525.81	315.97
525.98	315.97
526.16	285.55
526.33	269.16
526.50	320.65
526.67	297.25
526.84	306.61
527.01	255.12
527.18	367.46
527.36	369.80
527.53	365.12
527.70	369.80
527.87	325.33
528.04	433.00
528.21	416.62
528.38	330.02
528.55	334.70
528.72	311.29
528.89	411.93
529.07	376.83
529.24	381.51
529.41	393.21
529.58	367.46
529.75	348.74
529.92	355.76
530.09	409.59
530.26	458.74
530.43	386.19
530.60	341.72
530.77	456.40
530.94	416.62
531.11	367.46
531.28	479.81
531.46	330.02
531.63	400.23
531.80	454.06
531.97	503.22
532.14	507.90
532.31	669.39
532.48	606.20
532.65	662.37
532.82	767.70
532.99	863.66
533.16	997.07
533.33	987.71
533.50	950.26
533.67	725.57
533.84	669.39
534.01	676.41
534.18	660.03
534.35	638.97
534.52	660.03
534.69	587.47
534.86	699.82
535.03	727.91
535.20	681.10
535.37	821.53
535.54	861.32
535.71	814.51
535.88	903.45
536.05	931.53
536.22	997.07
536.38	1041.54
536.55	1088.35
536.72	1196.01
536.89	1291.98
537.06	1427.73
537.23	1497.94
537.40	1867.75
537.57	1802.21
537.74	1884.13
537.91	2050.31
538.08	2047.97
538.25	2019.88
538.42	2083.08
538.59	2136.91
538.75	2129.89
538.92	2310.11
539.09	2691.62
539.26	2782.90
539.43	3096.53
539.60	3676.98
539.77	3882.95
539.94	4358.08
540.11	4873.00
540.28	5254.50
540.44	5661.76
540.61	6382.64
540.78	7417.16
540.95	8865.95
541.12	10228.14
541.29	11360.96
541.46	11702.68
541.62	11749.49
541.79	11482.67
541.96	10424.75
542.13	9745.99
542.30	9235.75
542.47	8444.65
542.63	8217.62
542.80	8023.36
542.97	8044.42
543.14	7866.54
543.31	7971.86
543.48	7957.82
543.64	8011.65
543.81	8226.98
543.98	8093.57
544.15	8140.38
544.32	8124.00
544.48	8067.83
544.65	8203.58
544.82	7936.76
544.99	7948.46
545.16	8236.35
545.32	8950.21
545.49	17624.23
545.66	29134.99
545.83	32327.48
546.00	25783.34
546.16	18036.17
546.33	13202.96
546.50	10036.22
546.67	8128.68
546.83	7241.62
547.00	6803.94
547.17	6483.28
547.34	6246.89
547.50	5722.61
547.67	5802.19
547.84	5589.20
548.00	5486.22
548.17	5177.26
548.34	5090.67
548.51	4809.80
548.67	4723.20
548.84	4531.28
549.01	4184.88
549.18	4189.56
549.34	3840.82
549.51	3786.99
549.68	3730.81
549.84	3552.93
550.01	3314.20
550.18	3297.81
550.34	3159.72
550.51	3016.95
550.68	2902.26
550.84	2623.74
551.01	2560.55
551.18	2396.71
551.34	2324.15
551.51	2228.19
551.68	2146.27
551.84	2157.97
552.01	1970.73
552.18	1900.52
552.34	1856.04
552.51	1774.13
552.68	1919.24
552.84	1717.95
553.01	1600.93
553.18	1579.86
553.34	1479.22
553.51	1537.73
553.67	1441.77
553.84	1472.20
554.01	1397.30
554.17	1200.69
554.34	1177.29
554.51	1104.73
554.67	1064.94
554.84	983.02
555.00	985.37
555.17	896.43
555.33	978.34
555.50	912.81
555.67	755.99
555.83	758.33
556.00	709.18
556.16	868.34
556.33	704.50
556.50	737.27
556.66	690.46
556.83	709.18
556.99	636.63
557.16	615.56
557.32	641.31
557.49	627.26
557.65	589.82
557.82	608.54
557.98	610.88
558.15	603.86
558.32	606.20
558.48	505.56
558.65	540.66
558.81	500.87
558.98	596.84
559.14	519.60
559.31	514.92
559.47	496.19
559.64	482.15
559.80	416.62
559.97	407.25
560.13	521.94
560.30	486.83
560.46	463.43
560.63	454.06
560.79	547.69
560.96	472.79
561.12	454.06
561.29	451.72
561.45	489.17
561.61	465.77
561.78	575.77
561.94	451.72
562.11	423.64
562.27	498.53
562.44	486.83
562.60	416.62
562.77	430.66
562.93	535.98
563.10	421.30
563.26	402.57
563.42	486.83
563.59	458.74
563.75	416.62
563.92	397.89
564.08	451.72
564.24	500.87
564.41	414.27
564.57	341.72
564.74	390.87
564.90	367.46
565.07	393.21
565.23	479.81
565.39	428.32
565.56	400.23
565.72	395.55
565.88	423.64
566.05	463.43
566.21	440.02
566.38	362.78
566.54	425.98
566.70	435.34
566.87	409.59
567.03	390.87
567.19	365.12
567.36	414.27
567.52	425.98
567.68	325.33
567.85	383.85
568.01	313.63
568.17	372.15
568.34	463.43
568.50	458.74
568.66	369.80
568.83	465.77
568.99	409.59
569.15	484.49
569.32	367.46
569.48	332.36
569.64	325.33
569.81	322.99
569.97	348.74
570.13	369.80
570.30	292.57
570.46	346.40
570.62	390.87
570.78	358.10
570.95	299.59
571.11	248.10
571.27	322.99
571.43	325.33
571.60	344.06
571.76	341.72
571.92	393.21
572.09	367.46
572.25	407.25
572.41	325.33
572.57	285.55
572.74	348.74
572.90	290.23
573.06	379.17
573.22	456.40
573.38	393.21
573.55	362.78
573.71	285.55
573.87	322.99
574.03	353.42
574.20	360.44
574.36	388.53
574.52	353.42
574.68	362.78
574.84	400.23
575.01	430.66
575.17	458.74
575.33	437.68
575.49	451.72
575.65	486.83
575.82	533.64
575.98	535.98
576.14	620.24
576.30	1348.15
576.46	3983.59
576.62	5418.34
576.79	5432.38
576.95	3953.16
577.11	2541.82
577.27	1919.24
577.43	1235.80
577.59	903.45
577.75	793.44
577.92	748.97
578.08	746.63
578.24	795.78
578.40	1362.19
578.56	3616.13
578.72	4891.72
578.88	4947.89
579.04	3651.24
579.21	2672.89
579.37	2036.27
579.53	1570.50
579.69	1724.97
579.85	2071.37
580.01	2209.47
580.17	1996.48
580.33	1942.64
580.49	1591.56
580.65	1420.71
580.82	1327.08
580.98	1282.61
581.14	1207.72
581.30	1462.83
581.46	1558.80
581.62	1607.95
581.78	1673.48
581.94	1891.15
582.10	1944.99
582.26	1959.03
582.42	2092.44
582.58	2092.44
582.74	2071.37
582.90	2104.14
583.06	2181.38
583.22	2228.19
583.38	2188.40
583.54	1982.43
583.70	2101.80
583.86	2066.69
584.02	1973.07
584.18	2059.67
584.34	2003.50
584.50	1994.14
584.66	1921.58
584.82	1846.68
584.98	2019.88
585.14	1877.11
585.30	1886.47
585.46	1877.11
585.62	1748.38
585.78	1767.10
585.94	1816.26
586.10	1928.60
586.26	2052.65
586.42	2204.78
586.58	2794.60
586.74	3124.62
586.90	3765.92
587.06	4081.89
587.22	3819.75
587.38	3389.10
587.54	2897.58
587.70	2633.10
587.86	2368.62
588.02	1944.99
588.18	1753.06
588.34	1636.03
588.49	1380.92
588.65	1362.19
588.81	1315.38
588.97	1217.08
589.13	1263.89
589.29	1219.42
589.45	1186.65
589.61	1277.93
589.77	1270.91
589.93	1240.48
590.08	1231.12
590.24	1301.34
590.40	1338.79
590.56	1425.39
590.72	1423.05
590.88	1469.86
591.04	1483.90
591.20	1409.00
591.35	1687.53
591.51	1617.31
591.67	1708.59
591.83	1788.17
591.99	2015.20
592.15	2136.91
592.31	2377.98
592.46	2420.11
592.62	2619.06
592.78	2885.88
592.94	2981.84
593.10	2764.17
593.26	2768.85
593.41	2455.22
593.57	2204.78
593.73	1912.22
593.89	1860.73
594.05	1554.12
594.20	1453.47
594.36	1418.36
594.52	1268.57
594.68	1219.42
594.84	1156.22
594.99	1247.51
595.15	1193.67
595.31	1088.35
595.47	1132.82
595.62	1146.86
595.78	1125.80
595.94	1078.99
596.10	1228.78
596.25	1165.59
596.41	1146.86
596.57	1090.69
596.73	1160.91
596.88	1090.69
597.04	1121.12
597.20	1109.41
597.36	1188.99
597.51	1242.82
597.67	1282.61
597.83	1275.59
597.99	1268.57
598.14	1378.58
598.30	1451.13
598.46	1575.18
598.61	1654.76
598.77	1806.89
598.93	1760.08
599.09	1715.61
599.24	1804.55
599.40	1776.47
599.56	1774.13
599.71	1584.54
599.87	1584.54
600.03	1474.54
600.18	1336.45
600.34	1235.80
600.50	1235.80
600.65	1219.42
600.81	1125.80
600.97	940.90
601.12	1069.62
601.28	952.60
601.44	891.74
601.59	922.17
601.75	858.98
601.91	992.39
602.06	854.30
602.22	840.25
602.37	763.01
602.53	746.63
602.69	753.65
602.84	844.93
603.00	823.87
603.16	667.05
603.31	849.61
603.47	812.17
603.62	727.91
603.78	814.51
603.94	866.00
604.09	1001.75
604.25	1032.18
604.40	917.49
604.56	856.64
604.71	933.87
604.87	894.08
605.03	940.90
605.18	971.32
605.34	957.28
605.49	936.21
605.65	1076.65
605.80	1011.11
605.96	1081.33
606.12	1095.37
606.27	1048.56
606.43	1158.57
606.58	1291.98
606.74	1371.55
606.89	1359.85
607.05	1385.60
607.20	1430.07
607.36	1535.39
607.51	1561.14
607.67	1701.57
607.82	1743.70
607.98	2057.33
608.13	1970.73
608.29	2108.82
608.44	2380.32
608.60	2530.12
608.75	2909.29
608.91	3066.10
609.06	3386.76
609.22	3585.70
609.37	4098.28
609.53	4601.49
609.68	5203.01
609.84	5603.24
609.99	6691.59
610.15	7922.71
610.30	10291.34
610.46	12776.98
610.61	16627.17
610.76	20442.24
610.92	24833.08
611.07	27269.58
611.23	27253.20
611.38	25500.14
611.54	22300.62
611.69	19021.53
611.84	15826.70
612.00	13319.99
612.15	11318.83
612.31	9886.42
612.46	9022.77
612.62	8149.75
612.77	7992.93
612.92	7548.23
613.08	6885.86
613.23	6696.27
613.39	6523.07
613.54	6363.92
613.69	6249.23
613.85	5987.09
614.00	6066.67
614.15	6029.22
614.31	5909.85
614.46	5909.85
614.62	5668.78
614.77	5476.85
614.92	4990.02
615.08	4557.02
615.23	4334.67
615.38	4042.11
615.54	3637.19
615.69	3321.22
615.84	3096.53
616.00	2916.31
616.15	2665.87
616.30	2530.12
616.46	2373.30
616.61	2108.82
616.76	2148.61
616.92	2097.12
617.07	1909.88
617.22	1823.28
617.37	1722.63
617.53	1685.19
617.68	1600.93
617.83	1575.18
617.99	1589.22
618.14	1556.46
618.29	1427.73
618.45	1444.11
618.60	1397.30
618.75	1329.42
618.90	1399.64
619.06	1315.38
619.21	1409.00
619.36	1493.26
619.51	1355.17
619.67	1427.73
619.82	1303.68
619.97	1453.47
620.12	1465.18
620.28	1507.30
620.43	1521.35
620.58	1441.77
620.73	1476.88
620.89	1575.18
621.04	1561.14
621.19	1509.65
621.34	1383.26
621.49	1387.94
621.65	1357.51
621.80	1404.32
621.95	1383.26
622.10	1376.24
622.25	1355.17
622.41	1383.26
622.56	1373.89
622.71	1612.63
622.86	1519.01
623.01	1490.92
623.16	1563.48
623.32	1558.80
623.47	1561.14
623.62	1500.28
623.77	1617.31
623.92	1514.33
624.07	1593.90
624.23	1579.86
624.38	1523.69
624.53	1523.69
624.68	1699.23
624.83	1640.72
624.98	1577.52
625.13	1537.73
625.29	1537.73
625.44	1626.67
625.59	1600.93
625.74	1610.29
625.89	1636.03
626.04	1551.78
626.19	1603.27
626.34	1584.54
626.49	1521.35
626.65	1626.67
626.80	1495.60
626.95	1535.39
627.10	1540.07
627.25	1514.33
627.40	1563.48
627.55	1495.60
627.70	1437.09
627.85	1500.28
628.00	1469.86
628.15	1455.81
628.30	1425.39
628.45	1392.62
628.60	1359.85
628.76	1397.30
628.91	1460.49
629.06	1427.73
629.21	1437.09
629.36	1523.69
629.51	1504.96
629.66	1732.00
629.81	1783.49
629.96	1881.79
630.11	2129.89
630.26	2174.36
630.41	2513.74
630.56	2848.43
630.71	2895.24
630.86	2869.50
631.01	2944.39
631.16	2829.71
631.31	2452.88
631.46	2169.68
631.61	1727.32
631.76	1593.90
631.91	1259.21
632.06	1048.56
632.21	1034.52
632.36	891.74
632.51	784.08
632.66	777.06
632.81	676.41
632.96	617.90
633.10	603.86
633.25	627.26
633.40	671.73
633.55	669.39
633.70	641.31
633.85	498.53
634.00	552.37
634.15	557.05
634.30	564.07
634.45	585.13
634.60	547.69
634.75	449.38
634.90	514.92
635.05	582.79
635.19	510.24
635.34	538.32
635.49	486.83
635.64	353.42
635.79	526.62
635.94	447.04
636.09	463.43
636.24	521.94
636.39	388.53
636.53	440.02
636.68	430.66
636.83	414.27
636.98	465.77
637.13	461.09
637.28	468.11
637.43	421.30
637.57	418.96
637.72	435.34
637.87	358.10
638.02	367.46
638.17	407.25
638.32	409.59
638.46	344.06
638.61	344.06
638.76	407.25
638.91	308.95
639.06	325.33
639.20	381.51
639.35	383.85
639.50	367.46
639.65	390.87
639.80	252.78
639.94	376.83
640.09	430.66
640.24	344.06
640.39	318.31
640.54	301.93
640.68	454.06
640.83	337.04
640.98	313.63
641.13	400.23
641.27	330.02
641.42	351.08
641.57	449.38
641.72	332.36
641.86	414.27
642.01	365.12
642.16	425.98
642.31	388.53
642.45	376.83
642.60	379.17
642.75	330.02
642.90	355.76
643.04	362.78
643.19	386.19
643.34	355.76
643.48	358.10
643.63	411.93
643.78	430.66
643.93	358.10
644.07	351.08
644.22	374.49
644.37	362.78
644.51	320.65
644.66	381.51
644.81	381.51
644.95	468.11
645.10	369.80
645.25	367.46
645.39	311.29
645.54	285.55
645.69	315.97
645.83	290.23
645.98	381.51
646.13	379.17
646.27	330.02
646.42	351.08
646.57	264.48
646.71	362.78
646.86	315.97
647.00	367.46
647.15	353.42
647.30	351.08
647.44	374.49
647.59	330.02
647.74	365.12
647.88	362.78
648.03	276.18
648.17	341.72
648.32	341.72
648.47	341.72
648.61	367.46
648.76	320.65
648.90	360.44
649.05	409.59
649.20	332.36
649.34	435.34
649.49	470.45
649.63	554.71
649.78	709.18
649.92	760.67
650.07	791.10
650.21	837.91
650.36	884.72
650.51	910.47
650.65	882.38
650.80	739.61
650.94	678.76
651.09	578.11
651.23	543.00
651.38	552.37
651.52	477.47
651.67	418.96
651.81	430.66
651.96	531.30
652.10	376.83
652.25	411.93
652.39	477.47
652.54	465.77
652.68	496.19
652.83	477.47
652.97	535.98
653.12	517.26
653.26	407.25
653.41	493.85
653.55	367.46
653.70	388.53
653.84	430.66
653.99	442.36
654.13	379.17
654.27	386.19
654.42	355.76
654.56	360.44
654.71	369.80
654.85	306.61
655.00	372.15
655.14	341.72
655.29	271.50
655.43	304.27
655.57	355.76
655.72	362.78
655.86	311.29
656.01	330.02
656.15	362.78
656.30	360.44
656.44	381.51
656.58	397.89
656.73	358.10
656.87	313.63
657.01	311.29
657.16	414.27
657.30	475.13
657.45	362.78
657.59	353.42
657.73	381.51
657.88	327.68
658.02	393.21
658.16	397.89
658.31	379.17
658.45	362.78
658.60	245.76
658.74	332.36
658.88	276.18
659.03	299.59
659.17	255.12
659.31	320.65
659.46	341.72
659.60	271.50
659.74	271.50
659.89	252.78
660.03	208.31
660.17	315.97
660.32	299.59
660.46	285.55
660.60	294.91
660.74	259.80
660.89	327.68
661.03	236.39
661.17	334.70
661.32	266.82
661.46	395.55
661.60	404.91
661.74	503.22
661.89	491.51
662.03	566.41
662.17	599.18
662.31	585.13
662.46	547.69
662.60	538.32
662.74	454.06
662.88	507.90
663.03	313.63
663.17	383.85
663.31	379.17
663.45	433.00
663.60	313.63
663.74	241.08
663.88	276.18
664.02	332.36
664.17	294.91
664.31	266.82
664.45	313.63
664.59	325.33
664.73	283.20
664.88	266.82
665.02	212.99
665.16	220.01
665.30	259.80
665.44	224.69
665.59	318.31
665.73	269.16
665.87	208.31
666.01	191.92
666.15	278.52
666.29	339.38
666.44	255.12
666.58	292.57
666.72	248.10
666.86	266.82
667.00	297.25
667.14	255.12
667.28	278.52
667.43	273.84
667.57	262.14
667.71	276.18
667.85	301.93
667.99	301.93
668.13	231.71
668.27	243.42
668.41	337.04
668.56	337.04
668.70	257.46
668.84	245.76
668.98	250.44
669.12	208.31
669.26	210.65
669.40	224.69
669.54	299.59
669.68	269.16
669.82	198.95
669.96	313.63
670.10	297.25
670.25	341.72
670.39	259.80
670.53	273.84
670.67	252.78
670.81	243.42
670.95	259.80
671.09	224.69
671.23	320.65
671.37	285.55
671.51	276.18
671.65	276.18
671.79	203.63
671.93	194.26
672.07	304.27
672.21	224.69
672.35	238.73
672.49	255.12
672.63	208.31
672.77	205.97
672.91	245.76
673.05	189.58
673.19	262.14
673.33	287.89
673.47	238.73
673.61	212.99
673.75	287.89
673.89	238.73
674.03	257.46
674.17	236.39
674.31	208.31
674.45	248.10
674.59	231.71
674.73	187.24
674.87	201.29
675.01	210.65
675.15	262.14
675.29	273.84
675.43	245.76
675.56	220.01
675.70	229.37
675.84	208.31
675.98	231.71
676.12	175.54
676.26	217.67
676.40	243.42
676.54	250.44
676.68	215.33
676.82	205.97
676.96	187.24
677.10	231.71
677.23	138.09
677.37	194.26
677.51	294.91
677.65	315.97
677.79	287.89
677.93	212.99
678.07	163.84
678.21	212.99
678.34	210.65
678.48	255.12
678.62	220.01
678.76	191.92
678.90	229.37
679.04	154.48
679.18	180.22
679.31	147.45
679.45	196.60
679.59	187.24
679.73	215.33
679.87	198.95
680.00	208.31
680.14	222.35
680.28	236.39
680.42	313.63
680.56	285.55
680.70	198.95
680.83	229.37
680.97	149.79
681.11	182.56
681.25	208.31
681.39	290.23
681.52	332.36
681.66	210.65
681.80	220.01
681.94	241.08
682.07	159.16
682.21	203.63
682.35	222.35
682.49	180.22
682.62	248.10
682.76	227.03
682.90	238.73
683.04	205.97
683.17	205.97
683.31	252.78
683.45	166.18
683.59	215.33
683.72	196.60
683.86	231.71
684.00	156.82
684.13	208.31
684.27	182.56
684.41	189.58
684.55	205.97
684.68	168.52
684.82	198.95
684.96	250.44
685.09	191.92
685.23	196.60
685.37	124.05
685.50	255.12
685.64	241.08
685.78	220.01
685.91	248.10
686.05	271.50
686.19	264.48
686.32	278.52
686.46	285.55
686.60	234.05
686.73	227.03
686.87	283.20
687.01	257.46
687.14	294.91
687.28	318.31
687.42	330.02
687.55	334.70
687.69	386.19
687.82	320.65
687.96	362.78
688.10	339.38
688.23	311.29
688.37	355.76
688.50	383.85
688.64	301.93
688.78	264.48
688.91	243.42
689.05	290.23
689.18	217.67
689.32	222.35
689.46	203.63
689.59	224.69
689.73	259.80
689.86	271.50
690.00	222.35
690.13	114.69
690.27	170.86
690.41	245.76
690.54	187.24
690.68	173.20
690.81	205.97
690.95	203.63
691.08	180.22
691.22	133.41
691.35	161.50
691.49	117.03
691.62	131.07
691.76	133.41
691.89	124.05
692.03	154.48
692.16	168.52
692.30	191.92
692.43	194.26
692.57	133.41
692.70	173.20
692.84	212.99
692.97	203.63
693.11	168.52
693.24	212.99
693.38	262.14
693.51	376.83
693.65	271.50
693.78	243.42
693.92	271.50
694.05	262.14
694.19	227.03
694.32	276.18
694.45	212.99
694.59	220.01
694.72	135.75
694.86	166.18
694.99	170.86
695.13	133.41
695.26	180.22
695.39	124.05
695.53	166.18
695.66	100.64
695.80	175.54
695.93	163.84
696.07	191.92
696.20	173.20
696.33	182.56
696.47	168.52
696.60	187.24
696.73	201.29
696.87	180.22
697.00	201.29
697.14	93.62
697.27	100.64
697.40	119.37
697.54	149.79
697.67	163.84
697.80	159.16
697.94	215.33
698.07	163.84
698.21	131.07
698.34	138.09
698.47	138.09
698.61	128.73
698.74	35.11
698.87	140.43
699.01	168.52
699.14	248.10
699.27	110.01
699.40	222.35
699.54	154.48
699.67	114.69
699.80	182.56
699.94	205.97
700.07	135.75
700.20	145.11
700.34	168.52
700.47	149.79
700.60	107.66
700.73	227.03
700.87	163.84
701.00	105.32
701.13	166.18
701.26	184.90
701.40	142.77
701.53	145.11
701.66	128.73
701.79	124.05
701.93	133.41
702.06	102.98
702.19	156.82
702.32	194.26
702.46	138.09
702.59	156.82
702.72	128.73
702.85	159.16
702.99	135.75
703.12	208.31
703.25	220.01
703.38	215.33
703.51	194.26
703.65	250.44
703.78	184.90
703.91	184.90
704.04	145.11
704.17	220.01
704.31	177.88
704.44	163.84
704.57	191.92
704.70	182.56
704.83	168.52
704.96	105.32
705.10	243.42
705.23	166.18
>>>>>End Processed Spectral Data<<<<<
