SpectraSuite Data File
++++++++++++++++++++++++++++++++++++
Date: Fri Oct 04 11:41:55 GMT-05:00 2013
User: price-jones
Dark Spectrum Present: No
Reference Spectrum Present: No
Number of Sampled Component Spectra: 1
Spectrometers: USB2+H05261
Integration Time (usec): 100000 (USB2+H05261)
Spectra Averaged: 1 (USB2+H05261)
Boxcar Smoothing: 0 (USB2+H05261)
Correct for Electrical Dark: No (USB2+H05261)
Strobe/Lamp Enabled: No (USB2+H05261)
Correct for Detector Non-linearity: No (USB2+H05261)
Correct for Stray Light: No (USB2+H05261)
Number of Pixels in Processed Spectrum: 2048
>>>>>Begin Processed Spectral Data<<<<<
365.73	74.90
365.92	74.90
366.12	74.90
366.32	0.00
366.52	0.00
366.72	0.00
366.91	0.00
367.11	0.00
367.31	0.00
367.51	0.00
367.70	0.00
367.90	0.00
368.10	0.00
368.30	0.00
368.49	0.00
368.69	16.38
368.89	0.00
369.09	0.00
369.28	0.00
369.48	0.00
369.68	0.00
369.87	2.34
370.07	51.49
370.27	14.04
370.47	25.75
370.66	98.30
370.86	7.02
371.06	56.17
371.25	70.22
371.45	67.88
371.65	39.79
371.84	131.07
372.04	135.75
372.24	46.81
372.44	161.50
372.63	91.28
372.83	210.65
373.03	119.37
373.22	84.26
373.42	124.05
373.62	189.58
373.81	154.48
374.01	198.95
374.21	51.49
374.40	128.73
374.60	126.39
374.79	238.73
374.99	149.79
375.19	131.07
375.38	173.20
375.58	170.86
375.78	138.09
375.97	128.73
376.17	201.29
376.37	133.41
376.56	93.62
376.76	65.54
376.95	159.16
377.15	161.50
377.35	138.09
377.54	180.22
377.74	114.69
377.93	154.48
378.13	135.75
378.33	142.77
378.52	128.73
378.72	126.39
378.91	149.79
379.11	102.98
379.31	32.77
379.50	124.05
379.70	119.37
379.89	184.90
380.09	147.45
380.28	102.98
380.48	142.77
380.68	95.96
380.87	88.94
381.07	180.22
381.26	184.90
381.46	142.77
381.65	28.09
381.85	205.97
382.04	170.86
382.24	156.82
382.43	25.75
382.63	135.75
382.83	121.71
383.02	152.13
383.22	133.41
383.41	147.45
383.61	114.69
383.80	119.37
384.00	42.13
384.19	72.56
384.39	58.51
384.58	170.86
384.78	161.50
384.97	126.39
385.17	128.73
385.36	147.45
385.56	152.13
385.75	95.96
385.95	135.75
386.14	79.58
386.34	70.22
386.53	91.28
386.72	135.75
386.92	110.01
387.11	147.45
387.31	93.62
387.50	140.43
387.70	93.62
387.89	140.43
388.09	149.79
388.28	86.60
388.48	95.96
388.67	156.82
388.86	135.75
389.06	187.24
389.25	81.92
389.45	124.05
389.64	133.41
389.84	152.13
390.03	138.09
390.22	63.19
390.42	72.56
390.61	93.62
390.81	149.79
391.00	140.43
391.19	173.20
391.39	79.58
391.58	112.35
391.78	117.03
391.97	215.33
392.16	119.37
392.36	170.86
392.55	159.16
392.75	142.77
392.94	147.45
393.13	114.69
393.33	131.07
393.52	149.79
393.71	110.01
393.91	135.75
394.10	147.45
394.29	173.20
394.49	131.07
394.68	201.29
394.88	187.24
395.07	145.11
395.26	95.96
395.46	119.37
395.65	145.11
395.84	84.26
396.04	236.39
396.23	95.96
396.42	117.03
396.62	201.29
396.81	149.79
397.00	163.84
397.19	105.32
397.39	58.51
397.58	175.54
397.77	79.58
397.97	175.54
398.16	175.54
398.35	163.84
398.55	133.41
398.74	177.88
398.93	121.71
399.12	149.79
399.32	74.90
399.51	119.37
399.70	100.64
399.90	128.73
400.09	166.18
400.28	212.99
400.47	182.56
400.67	170.86
400.86	196.60
401.05	163.84
401.24	163.84
401.44	152.13
401.63	227.03
401.82	98.30
402.01	100.64
402.21	236.39
402.40	215.33
402.59	224.69
402.78	215.33
402.97	236.39
403.17	271.50
403.36	273.84
403.55	367.46
403.74	786.42
403.93	2165.00
404.13	5619.63
404.32	9437.04
404.51	9755.35
404.70	6136.88
404.89	2162.66
405.09	538.32
405.28	313.63
405.47	262.14
405.66	243.42
405.85	304.27
406.05	224.69
406.24	142.77
406.43	241.08
406.62	198.95
406.81	304.27
407.00	320.65
407.20	676.41
407.39	1128.14
407.58	1497.94
407.77	1165.59
407.96	655.35
408.15	341.72
408.34	245.76
408.54	184.90
408.73	170.86
408.92	243.42
409.11	210.65
409.30	210.65
409.49	173.20
409.68	154.48
409.87	182.56
410.07	189.58
410.26	201.29
410.45	222.35
410.64	163.84
410.83	187.24
411.02	180.22
411.21	215.33
411.40	271.50
411.59	269.16
411.78	266.82
411.98	173.20
412.17	248.10
412.36	273.84
412.55	318.31
412.74	229.37
412.93	271.50
413.12	252.78
413.31	301.93
413.50	297.25
413.69	243.42
413.88	241.08
414.07	222.35
414.26	266.82
414.45	187.24
414.64	322.99
414.83	262.14
415.02	283.20
415.22	287.89
415.41	318.31
415.60	290.23
415.79	297.25
415.98	297.25
416.17	271.50
416.36	210.65
416.55	318.31
416.74	341.72
416.93	320.65
417.12	278.52
417.31	325.33
417.50	294.91
417.69	280.86
417.88	346.40
418.07	227.03
418.26	234.05
418.45	334.70
418.64	346.40
418.83	325.33
419.02	266.82
419.21	325.33
419.39	245.76
419.58	257.46
419.77	330.02
419.96	334.70
420.15	308.95
420.34	306.61
420.53	414.27
420.72	308.95
420.91	315.97
421.10	271.50
421.29	397.89
421.48	360.44
421.67	351.08
421.86	243.42
422.05	297.25
422.24	285.55
422.43	292.57
422.61	297.25
422.80	337.04
422.99	348.74
423.18	330.02
423.37	327.68
423.56	304.27
423.75	353.42
423.94	369.80
424.13	301.93
424.32	318.31
424.50	299.59
424.69	255.12
424.88	346.40
425.07	320.65
425.26	344.06
425.45	353.42
425.64	376.83
425.83	421.30
426.01	411.93
426.20	372.15
426.39	409.59
426.58	393.21
426.77	374.49
426.96	383.85
427.15	444.70
427.33	454.06
427.52	404.91
427.71	442.36
427.90	414.27
428.09	416.62
428.28	409.59
428.46	512.58
428.65	414.27
428.84	437.68
429.03	404.91
429.22	379.17
429.40	461.09
429.59	451.72
429.78	425.98
429.97	538.32
430.16	500.87
430.34	465.77
430.53	489.17
430.72	421.30
430.91	447.04
431.10	500.87
431.28	444.70
431.47	425.98
431.66	463.43
431.85	444.70
432.03	505.56
432.22	538.32
432.41	472.79
432.60	606.20
432.79	638.97
432.97	596.84
433.16	561.73
433.35	610.88
433.54	727.91
433.72	919.83
433.91	837.91
434.10	800.46
434.28	1069.62
434.47	1299.00
434.66	1373.89
434.85	1610.29
435.03	3826.78
435.22	14064.28
435.41	36116.81
435.59	48664.42
435.78	36411.71
435.97	16561.63
436.16	6141.57
436.34	2038.61
436.53	1167.93
436.72	940.90
436.90	767.70
437.09	748.97
437.28	704.50
437.46	599.18
437.65	702.16
437.84	709.18
438.02	613.22
438.21	648.33
438.40	580.45
438.58	599.18
438.77	596.84
438.96	594.50
439.14	521.94
439.33	540.66
439.52	582.79
439.70	629.60
439.89	507.90
440.08	575.77
440.26	594.50
440.45	620.24
440.63	578.11
440.82	580.45
441.01	533.64
441.19	559.39
441.38	524.28
441.57	571.09
441.75	552.37
441.94	613.22
442.12	603.86
442.31	587.47
442.50	564.07
442.68	601.52
442.87	592.16
443.05	528.96
443.24	573.43
443.43	578.11
443.61	571.09
443.80	594.50
443.98	575.77
444.17	568.75
444.35	582.79
444.54	566.41
444.73	538.32
444.91	552.37
445.10	564.07
445.28	538.32
445.47	599.18
445.65	564.07
445.84	617.90
446.02	526.62
446.21	617.90
446.39	603.86
446.58	524.28
446.77	554.71
446.95	622.58
447.14	578.11
447.32	575.77
447.51	613.22
447.69	578.11
447.88	601.52
448.06	610.88
448.25	517.26
448.43	617.90
448.62	585.13
448.80	589.82
448.99	498.53
449.17	550.03
449.36	566.41
449.54	641.31
449.73	533.64
449.91	643.65
450.10	559.39
450.28	664.71
450.46	587.47
450.65	538.32
450.83	564.07
451.02	580.45
451.20	634.29
451.39	622.58
451.57	528.96
451.76	564.07
451.94	503.22
452.13	599.18
452.31	610.88
452.49	535.98
452.68	540.66
452.86	521.94
453.05	571.09
453.23	524.28
453.42	575.77
453.60	564.07
453.78	599.18
453.97	575.77
454.15	526.62
454.34	528.96
454.52	596.84
454.70	596.84
454.89	510.24
455.07	528.96
455.26	561.73
455.44	528.96
455.62	547.69
455.81	641.31
455.99	505.56
456.17	589.82
456.36	589.82
456.54	599.18
456.73	545.34
456.91	561.73
457.09	573.43
457.28	531.30
457.46	482.15
457.64	596.84
457.83	571.09
458.01	559.39
458.19	507.90
458.38	486.83
458.56	517.26
458.74	641.31
458.93	603.86
459.11	566.41
459.29	561.73
459.48	491.51
459.66	550.03
459.84	554.71
460.03	589.82
460.21	615.56
460.39	594.50
460.57	578.11
460.76	465.77
460.94	498.53
461.12	622.58
461.31	535.98
461.49	465.77
461.67	505.56
461.85	538.32
462.04	507.90
462.22	1039.20
462.40	589.82
462.59	477.47
462.77	533.64
462.95	594.50
463.13	561.73
463.32	589.82
463.50	449.38
463.68	589.82
463.86	500.87
464.05	475.13
464.23	552.37
464.41	538.32
464.59	533.64
464.78	589.82
464.96	505.56
465.14	552.37
465.32	491.51
465.50	528.96
465.69	524.28
465.87	484.49
466.05	533.64
466.23	491.51
466.41	543.00
466.60	596.84
466.78	587.47
466.96	643.65
467.14	510.24
467.32	624.92
467.51	543.00
467.69	589.82
467.87	540.66
468.05	456.40
468.23	510.24
468.41	477.47
468.60	449.38
468.78	526.62
468.96	561.73
469.14	475.13
469.32	489.17
469.50	465.77
469.69	477.47
469.87	437.68
470.05	564.07
470.23	482.15
470.41	489.17
470.59	519.60
470.77	444.70
470.95	484.49
471.14	528.96
471.32	566.41
471.50	662.37
471.68	423.64
471.86	477.47
472.04	533.64
472.22	535.98
472.40	552.37
472.58	475.13
472.77	521.94
472.95	475.13
473.13	571.09
473.31	580.45
473.49	425.98
473.67	505.56
473.85	512.58
474.03	547.69
474.21	561.73
474.39	486.83
474.57	596.84
474.75	552.37
474.93	533.64
475.12	514.92
475.30	498.53
475.48	547.69
475.66	475.13
475.84	505.56
476.02	550.03
476.20	526.62
476.38	610.88
476.56	634.29
476.74	507.90
476.92	545.34
477.10	477.47
477.28	601.52
477.46	510.24
477.64	620.24
477.82	561.73
478.00	622.58
478.18	571.09
478.36	571.09
478.54	540.66
478.72	617.90
478.90	664.71
479.08	690.46
479.26	638.97
479.44	702.16
479.62	699.82
479.80	784.08
479.98	669.39
480.16	718.54
480.34	863.66
480.52	823.87
480.70	788.76
480.88	933.87
481.06	924.51
481.24	938.55
481.41	978.34
481.59	985.37
481.77	1086.01
481.95	1233.46
482.13	1181.97
482.31	1359.85
482.49	1455.81
482.67	1629.01
482.85	1593.90
483.03	1673.48
483.21	1867.75
483.39	1984.77
483.57	2165.00
483.74	2242.23
483.92	2373.30
484.10	2581.61
484.28	2609.70
484.46	2867.16
484.64	2946.73
484.82	3089.51
485.00	3012.27
485.18	3463.99
485.35	3517.83
485.53	3716.77
485.71	4070.19
485.89	4152.11
486.07	4154.45
486.25	4198.92
486.43	4243.39
486.61	4346.37
486.78	4376.80
486.96	4428.29
487.14	4318.29
487.32	4315.95
487.50	4278.50
487.68	4205.94
487.85	4138.07
488.03	4175.52
488.21	4088.92
488.39	4072.53
488.57	3847.84
488.75	3798.69
488.92	3962.53
489.10	3660.60
489.28	3623.15
489.46	3346.97
489.64	3379.73
489.81	3356.33
489.99	3433.57
490.17	3372.71
490.35	3375.05
490.53	3218.24
490.70	3166.74
490.88	3162.06
491.06	3243.98
491.24	3665.28
491.41	3749.54
491.59	3463.99
491.77	3145.68
491.95	3030.99
492.13	3101.21
492.30	2956.10
492.48	2909.29
492.66	2808.64
492.84	2839.07
493.01	2787.58
493.19	2740.77
493.37	2724.38
493.54	2626.08
493.72	2579.27
493.90	2649.49
494.08	2469.27
494.25	2499.69
494.43	2530.12
494.61	2392.03
494.79	2487.99
494.96	2427.14
495.14	2289.04
495.32	2258.62
495.49	2176.70
495.67	2258.62
495.85	2235.21
496.02	2146.27
496.20	2045.63
496.38	2022.22
496.55	2017.54
496.73	2087.76
496.91	1989.46
497.09	1839.66
497.26	1902.86
497.44	2005.84
497.62	1839.66
497.79	1792.85
497.97	1830.30
498.14	1706.25
498.32	1832.64
498.50	1598.59
498.67	1591.56
498.85	1483.90
499.03	1455.81
499.20	1549.43
499.38	1490.92
499.56	1535.39
499.73	1542.41
499.91	1409.00
500.08	1439.43
500.26	1249.85
500.44	1200.69
500.61	1217.08
500.79	1093.03
500.97	1156.22
501.14	1214.74
501.32	1156.22
501.49	1123.46
501.67	936.21
501.84	1036.86
502.02	997.07
502.20	987.71
502.37	971.32
502.55	924.51
502.72	959.62
502.90	943.24
503.07	858.98
503.25	891.74
503.43	844.93
503.60	755.99
503.78	823.87
503.95	713.86
504.13	854.30
504.30	835.57
504.48	751.31
504.65	727.91
504.83	779.40
505.01	739.61
505.18	720.88
505.36	713.86
505.53	695.14
505.71	732.59
505.88	704.50
506.06	585.13
506.23	650.67
506.41	615.56
506.58	634.29
506.76	606.20
506.93	510.24
507.11	624.92
507.28	606.20
507.46	538.32
507.63	697.48
507.81	531.30
507.98	531.30
508.16	554.71
508.33	582.79
508.50	615.56
508.68	594.50
508.85	603.86
509.03	594.50
509.20	643.65
509.38	655.35
509.55	648.33
509.73	585.13
509.90	575.77
510.08	554.71
510.25	526.62
510.42	498.53
510.60	496.19
510.77	503.22
510.95	545.34
511.12	519.60
511.30	552.37
511.47	493.85
511.64	472.79
511.82	519.60
511.99	531.30
512.17	456.40
512.34	531.30
512.51	552.37
512.69	580.45
512.86	610.88
513.04	582.79
513.21	493.85
513.38	545.34
513.56	491.51
513.73	517.26
513.90	503.22
514.08	547.69
514.25	468.11
514.43	512.58
514.60	500.87
514.77	552.37
514.95	475.13
515.12	454.06
515.29	362.78
515.47	411.93
515.64	372.15
515.81	437.68
515.99	456.40
516.16	421.30
516.33	585.13
516.51	447.04
516.68	430.66
516.85	484.49
517.03	346.40
517.20	440.02
517.37	411.93
517.54	475.13
517.72	379.17
517.89	374.49
518.06	344.06
518.24	437.68
518.41	477.47
518.58	395.55
518.75	423.64
518.93	407.25
519.10	425.98
519.27	454.06
519.45	360.44
519.62	458.74
519.79	470.45
519.96	365.12
520.14	433.00
520.31	397.89
520.48	411.93
520.65	362.78
520.83	369.80
521.00	447.04
521.17	465.77
521.34	444.70
521.52	397.89
521.69	339.38
521.86	486.83
522.03	409.59
522.20	468.11
522.38	294.91
522.55	521.94
522.72	355.76
522.89	402.57
523.07	477.47
523.24	379.17
523.41	414.27
523.58	381.51
523.75	390.87
523.92	444.70
524.10	512.58
524.27	353.42
524.44	468.11
524.61	437.68
524.78	381.51
524.96	379.17
525.13	428.32
525.30	442.36
525.47	528.96
525.64	451.72
525.81	510.24
525.98	482.15
526.16	505.56
526.33	444.70
526.50	423.64
526.67	421.30
526.84	477.47
527.01	447.04
527.18	535.98
527.36	547.69
527.53	554.71
527.70	566.41
527.87	578.11
528.04	615.56
528.21	596.84
528.38	564.07
528.55	559.39
528.72	484.49
528.89	641.31
529.07	638.97
529.24	578.11
529.41	653.01
529.58	540.66
529.75	578.11
529.92	624.92
530.09	629.60
530.26	631.94
530.43	582.79
530.60	610.88
530.77	587.47
530.94	641.31
531.11	737.27
531.28	603.86
531.46	692.80
531.63	793.44
531.80	912.81
531.97	807.48
532.14	997.07
532.31	1090.69
532.48	1364.53
532.65	1650.08
532.82	1811.57
532.99	2071.37
533.16	2457.56
533.33	2619.06
533.50	2499.69
533.67	2195.42
533.84	1757.74
534.01	1640.72
534.18	1420.71
534.35	1383.26
534.52	1371.55
534.69	1511.99
534.86	1521.35
535.03	1645.40
535.20	1661.78
535.37	1799.87
535.54	1795.19
535.71	1867.75
535.88	2026.90
536.05	2179.04
536.22	2352.24
536.38	2509.05
536.55	2766.51
536.72	3075.46
536.89	3361.01
537.06	3810.39
537.23	4339.35
537.40	4704.48
537.57	5093.01
537.74	5331.74
537.91	5591.54
538.08	5731.97
538.25	5849.00
538.42	5614.95
538.59	6064.33
538.75	6157.95
538.92	6612.01
539.09	7187.79
539.26	7941.44
539.43	8961.91
539.60	9991.75
539.77	11300.11
539.94	12791.03
540.11	14303.01
540.28	15875.85
540.44	17104.64
540.61	18700.88
540.78	21436.97
540.95	25544.61
541.12	31349.14
541.29	35473.16
541.46	37521.13
541.62	37413.46
541.79	36219.79
541.96	33474.34
542.13	30583.78
542.30	29151.37
542.47	27433.42
542.63	25848.88
542.80	25097.56
542.97	24367.32
543.14	24339.23
543.31	24060.71
543.48	24231.57
543.64	24807.34
543.81	24479.66
543.98	24971.18
544.15	25006.28
544.32	25198.21
544.48	25167.78
544.65	25032.03
544.82	24634.14
544.99	24437.53
545.16	25132.67
545.32	26532.31
545.49	38380.10
545.66	58658.51
545.83	65535.00
546.00	65535.00
546.16	59664.94
546.33	43098.62
546.50	32451.53
546.67	25631.21
546.83	22899.80
547.00	21979.97
547.17	21081.21
547.34	20266.70
547.50	19262.61
547.67	18581.51
547.84	17682.75
548.00	16861.22
548.17	16599.08
548.34	15665.21
548.51	15206.46
548.67	14579.20
548.84	13827.88
549.01	12856.56
549.18	12453.99
549.34	12109.93
549.51	11531.82
549.68	11061.37
549.84	10771.15
550.01	10244.52
550.18	9612.58
550.34	9334.06
550.51	8805.10
550.68	8418.91
550.84	7805.69
551.01	7478.01
551.18	7119.91
551.34	6843.73
551.51	6413.07
551.68	6204.76
551.84	6200.08
552.01	5820.91
552.18	5526.00
552.34	5252.16
552.51	5055.56
552.68	4933.85
552.84	4648.30
553.01	4557.02
553.18	4365.10
553.34	4287.86
553.51	4098.28
553.67	3964.87
553.84	3791.67
554.01	3669.96
554.17	3403.14
554.34	3176.11
554.51	2909.29
554.67	2757.15
554.84	2672.89
555.00	2497.35
555.17	2349.90
555.33	2359.26
555.50	2078.40
555.67	2015.20
555.83	2008.18
556.00	1877.11
556.16	2104.14
556.33	1647.74
556.50	1699.23
556.66	1619.65
556.83	1549.43
556.99	1621.99
557.16	1493.26
557.32	1420.71
557.49	1343.47
557.65	1467.52
557.82	1327.08
557.98	1287.29
558.15	1287.29
558.32	1287.29
558.48	1191.33
558.65	1238.14
558.81	1193.67
558.98	1100.05
559.14	1107.07
559.31	1151.54
559.47	1116.44
559.64	987.71
559.80	1013.45
559.97	1043.88
560.13	1114.10
560.30	940.90
560.46	997.07
560.63	1060.26
560.79	992.39
560.96	985.37
561.12	954.94
561.29	971.32
561.45	940.90
561.61	997.07
561.78	1013.45
561.94	1001.75
562.11	924.51
562.27	1025.15
562.44	924.51
562.60	992.39
562.77	947.92
562.93	992.39
563.10	978.34
563.26	851.96
563.42	964.30
563.59	887.06
563.75	891.74
563.92	889.40
564.08	786.42
564.24	751.31
564.41	889.40
564.57	833.23
564.74	866.00
564.90	908.13
565.07	812.17
565.23	788.76
565.39	653.01
565.56	793.44
565.72	765.36
565.88	767.70
566.05	732.59
566.21	699.82
566.38	781.74
566.54	826.21
566.70	788.76
566.87	739.61
567.03	730.25
567.19	739.61
567.36	830.89
567.52	763.01
567.68	837.91
567.85	821.53
568.01	866.00
568.17	786.42
568.34	772.38
568.50	723.23
568.66	760.67
568.83	793.44
568.99	674.07
569.15	732.59
569.32	702.16
569.48	674.07
569.64	638.97
569.81	624.92
569.97	725.57
570.13	627.26
570.30	528.96
570.46	559.39
570.62	585.13
570.78	564.07
570.95	550.03
571.11	580.45
571.27	545.34
571.43	526.62
571.60	596.84
571.76	468.11
571.92	648.33
572.09	510.24
572.25	594.50
572.41	578.11
572.57	566.41
572.74	596.84
572.90	580.45
573.06	669.39
573.22	678.76
573.38	620.24
573.55	599.18
573.71	629.60
573.87	653.01
574.03	645.99
574.20	713.86
574.36	718.54
574.52	631.94
574.68	727.91
574.84	830.89
575.01	816.85
575.17	730.25
575.33	819.19
575.49	1013.45
575.65	1057.92
575.82	973.66
575.98	1233.46
576.14	1329.42
576.30	2310.11
576.46	7382.05
576.62	14775.80
576.79	20643.52
576.95	14801.55
577.11	8985.32
577.27	5884.11
577.43	3871.25
577.59	2492.67
577.75	2022.22
577.92	1764.76
578.08	1638.38
578.24	1699.23
578.40	2675.23
578.56	6806.28
578.72	13668.73
578.88	18511.30
579.04	13284.88
579.21	8294.86
579.37	5795.17
579.53	4629.58
579.69	4152.11
579.85	5226.42
580.01	6394.34
580.17	6693.93
580.33	5804.53
580.49	4622.56
580.65	4147.43
580.82	3651.24
580.98	3489.74
581.14	3576.34
581.30	3779.97
581.46	4231.69
581.62	4535.96
581.78	4725.54
581.94	5275.57
582.10	5444.09
582.26	5853.68
582.42	6010.50
582.58	6136.88
582.74	6335.83
582.90	6263.27
583.06	6300.72
583.22	6270.30
583.38	6279.66
583.54	6183.70
583.70	6256.25
583.86	6256.25
584.02	6122.84
584.18	6061.99
584.34	5963.68
584.50	5959.00
584.66	5612.60
584.82	5865.38
584.98	5584.52
585.14	5509.62
585.30	5317.70
585.46	5338.76
585.62	5282.59
585.78	5320.04
585.94	5109.39
586.10	5177.26
586.26	5633.67
586.42	6237.53
586.58	7344.60
586.74	9032.13
586.90	10970.09
587.06	12528.89
587.22	12954.87
587.38	11307.13
587.54	9633.64
587.70	8145.06
587.86	6778.19
588.02	5797.51
588.18	5130.45
588.34	4587.45
588.49	4217.65
588.65	3997.64
588.81	3815.07
588.97	3524.85
589.13	3527.19
589.29	3461.65
589.45	3407.82
589.61	3487.40
589.77	3431.23
589.93	3445.27
590.08	3496.76
590.24	3726.13
590.40	3775.28
590.56	3955.51
590.72	3861.88
590.88	4173.18
591.04	4311.27
591.20	4280.84
591.35	4615.54
591.51	4643.62
591.67	5025.13
591.83	5329.40
591.99	5490.90
592.15	6274.98
592.31	6832.02
592.46	7311.83
592.62	7978.89
592.78	8587.43
592.94	8793.39
593.10	9022.77
593.26	8432.95
593.41	7864.20
593.57	7129.27
593.73	6293.70
593.89	5572.82
594.05	4849.59
594.20	4418.93
594.36	3953.16
594.52	3618.47
594.68	3552.93
594.84	3321.22
594.99	3229.94
595.15	3190.15
595.31	3197.17
595.47	3248.66
595.62	3180.79
595.78	3070.78
595.94	3077.80
596.10	3035.67
596.25	2986.52
596.41	3129.30
596.57	3136.32
596.73	3014.61
596.88	3021.63
597.04	3026.31
597.20	3126.96
597.36	3133.98
597.51	3309.52
597.67	3293.13
597.83	3548.25
597.99	3723.79
598.14	4009.34
598.30	4208.28
598.46	4332.33
598.61	4751.29
598.77	4858.95
598.93	4905.76
599.09	5116.41
599.24	5245.14
599.40	5303.65
599.56	5242.80
599.71	4861.29
599.87	4667.03
600.03	4442.34
600.18	4142.75
600.34	3845.50
600.50	3545.91
600.65	3375.05
600.81	3318.88
600.97	2998.23
601.12	2920.99
601.28	2750.13
601.44	2658.85
601.59	2392.03
601.75	2443.52
601.91	2317.13
602.06	2223.51
602.22	2139.25
602.37	2097.12
602.53	2047.97
602.69	1975.41
602.84	2099.46
603.00	2050.31
603.16	2036.27
603.31	2029.24
603.47	2090.10
603.62	2129.89
603.78	2087.76
603.94	2209.47
604.09	2385.01
604.25	2342.88
604.40	2361.60
604.56	2436.50
604.71	2377.98
604.87	2370.96
605.03	2448.20
605.18	2452.88
605.34	2602.68
605.49	2455.22
605.65	2642.46
605.80	2661.19
605.96	2761.83
606.12	3012.27
606.27	3087.17
606.43	3260.37
606.58	3534.21
606.74	3658.26
606.89	3665.28
607.05	4014.02
607.20	4119.34
607.36	4362.76
607.51	4484.47
607.67	4692.77
607.82	5280.25
607.98	5474.51
608.13	5977.73
608.29	6413.07
608.44	6825.00
608.60	7691.00
608.75	8344.01
608.91	9158.52
609.06	9905.15
609.22	11302.45
609.37	12086.53
609.53	13642.98
609.68	15290.72
609.84	17619.55
609.99	20451.60
610.15	24627.12
610.30	30040.78
610.46	38022.00
610.61	47730.54
610.76	56165.84
610.92	61502.26
611.07	64954.55
611.23	65535.00
611.38	64830.50
611.54	62021.86
611.69	58349.56
611.84	53338.47
612.00	45965.78
612.15	38845.87
612.31	33591.37
612.46	29844.17
612.62	27948.34
612.77	26642.32
612.92	25132.67
613.08	23578.56
613.23	22424.67
613.39	21240.36
613.54	20496.07
613.69	19995.20
613.85	19866.47
614.00	19871.15
614.15	20121.59
614.31	19700.29
614.46	19197.07
614.62	18476.19
614.77	17458.06
614.92	16554.61
615.08	15255.61
615.23	13987.04
615.38	12891.67
615.54	12070.14
615.69	10668.16
615.84	9764.72
616.00	9097.66
616.15	8519.55
616.30	8049.10
616.46	7407.80
616.61	6904.58
616.76	6707.98
616.92	6183.70
617.07	5636.01
617.22	5565.79
617.37	5322.38
617.53	5043.85
617.68	4961.94
617.83	4739.58
617.99	4603.83
618.14	4587.45
618.29	4379.14
618.45	4283.18
618.60	4032.74
618.75	4128.70
618.90	3983.59
619.06	3964.87
619.21	4042.11
619.36	4042.11
619.51	3906.35
619.67	3964.87
619.82	4086.58
619.97	4051.47
620.12	4222.33
620.28	4109.98
620.43	4301.90
620.58	4215.30
620.73	4379.14
620.89	4278.50
621.04	4404.89
621.19	4409.57
621.34	4245.73
621.49	4219.99
621.65	4152.11
621.80	4224.67
621.95	3969.55
622.10	3997.64
622.25	4189.56
622.41	4124.02
622.56	4294.88
622.71	4337.01
622.86	4573.41
623.01	4650.64
623.16	4660.01
623.32	4688.09
623.47	4596.81
623.62	4685.75
623.77	4685.75
623.92	4676.39
624.07	4594.47
624.23	4814.48
624.38	4652.98
624.53	4636.60
624.68	4730.22
624.83	4699.80
624.98	4702.14
625.13	4882.36
625.29	4884.70
625.44	4840.23
625.59	4952.57
625.74	4987.68
625.89	4887.04
626.04	4858.95
626.19	4957.25
626.34	4840.23
626.49	4945.55
626.65	4823.84
626.80	4767.67
626.95	4652.98
627.10	4734.90
627.25	4545.32
627.40	4479.79
627.55	4386.16
627.70	4084.23
627.85	4327.65
628.00	4297.22
628.15	4367.44
628.30	4315.95
628.45	4205.94
628.60	4386.16
628.76	4505.53
628.91	4250.41
629.06	4248.07
629.21	4393.19
629.36	4571.07
629.51	4496.17
629.66	4950.23
629.81	5221.74
629.96	5664.10
630.11	6190.72
630.26	6717.34
630.41	7552.91
630.56	8608.49
630.71	9036.81
630.86	9673.43
631.01	9451.08
631.16	8652.96
631.31	7906.33
631.46	6630.74
631.61	5724.95
631.76	4809.80
631.91	3845.50
632.06	3316.54
632.21	2888.22
632.36	2576.93
632.51	2338.20
632.66	2097.12
632.81	1921.58
632.96	1750.72
633.10	1654.76
633.25	1661.78
633.40	1493.26
633.55	1439.43
633.70	1500.28
633.85	1483.90
634.00	1289.64
634.15	1329.42
634.30	1268.57
634.45	1240.48
634.60	1313.04
634.75	1221.76
634.90	1179.63
635.05	1252.19
635.19	1240.48
635.34	1179.63
635.49	1135.16
635.64	1142.18
635.79	1086.01
635.94	1093.03
636.09	1043.88
636.24	1046.22
636.39	994.73
636.53	994.73
636.68	990.05
636.83	968.98
636.98	1055.58
637.13	950.26
637.28	884.72
637.43	880.04
637.57	936.21
637.72	873.02
637.87	861.32
638.02	866.00
638.17	875.36
638.32	851.96
638.46	781.74
638.61	891.74
638.76	760.67
638.91	795.78
639.06	779.40
639.20	830.89
639.35	847.27
639.50	840.25
639.65	788.76
639.80	788.76
639.94	791.10
640.09	840.25
640.24	875.36
640.39	751.31
640.54	809.83
640.68	873.02
640.83	788.76
640.98	784.08
641.13	851.96
641.27	842.59
641.42	866.00
641.57	795.78
641.72	788.76
641.86	812.17
642.01	856.64
642.16	779.40
642.31	734.93
642.45	938.55
642.60	823.87
642.75	671.73
642.90	751.31
643.04	767.70
643.19	716.20
643.34	807.48
643.48	800.46
643.63	786.42
643.78	842.59
643.93	828.55
644.07	847.27
644.22	788.76
644.37	744.29
644.51	858.98
644.66	840.25
644.81	730.25
644.95	777.06
645.10	837.91
645.25	746.63
645.39	795.78
645.54	763.01
645.69	746.63
645.83	798.12
645.98	723.23
646.13	716.20
646.27	753.65
646.42	643.65
646.57	653.01
646.71	674.07
646.86	725.57
647.00	734.93
647.15	807.48
647.30	816.85
647.44	641.31
647.59	617.90
647.74	685.78
647.88	830.89
648.03	713.86
648.17	763.01
648.32	753.65
648.47	755.99
648.61	793.44
648.76	713.86
648.90	793.44
649.05	908.13
649.20	983.02
649.34	1001.75
649.49	1039.20
649.63	1254.53
649.78	1448.79
649.92	1750.72
650.07	2045.63
650.21	2420.11
650.36	2605.02
650.51	2628.42
650.65	2495.01
650.80	2214.15
650.94	2054.99
651.09	1774.13
651.23	1556.46
651.38	1500.28
651.52	1441.77
651.67	1306.02
651.81	1053.24
651.96	999.41
652.10	990.05
652.25	933.87
652.39	1097.71
652.54	1153.88
652.68	1186.65
652.83	1191.33
652.97	1259.21
653.12	1296.66
653.26	1254.53
653.41	1186.65
653.55	1121.12
653.70	1027.50
653.84	961.96
653.99	933.87
654.13	847.27
654.27	744.29
654.42	833.23
654.56	814.51
654.71	812.17
654.85	678.76
655.00	692.80
655.14	690.46
655.29	716.20
655.43	655.35
655.57	690.46
655.72	709.18
655.86	657.69
656.01	674.07
656.15	678.76
656.30	753.65
656.44	704.50
656.58	730.25
656.73	624.92
656.87	739.61
657.01	727.91
657.16	809.83
657.30	854.30
657.45	781.74
657.59	767.70
657.73	870.68
657.88	868.34
658.02	894.08
658.16	805.14
658.31	699.82
658.45	685.78
658.60	641.31
658.74	627.26
658.88	615.56
659.03	643.65
659.17	514.92
659.31	540.66
659.46	545.34
659.60	503.22
659.74	580.45
659.89	545.34
660.03	521.94
660.17	554.71
660.32	599.18
660.46	510.24
660.60	559.39
660.74	557.05
660.89	596.84
661.03	538.32
661.17	568.75
661.32	629.60
661.46	688.12
661.60	847.27
661.74	1036.86
661.89	1125.80
662.03	1310.70
662.17	1451.13
662.31	1521.35
662.46	1521.35
662.60	1373.89
662.74	1238.14
662.88	1097.71
663.03	1008.77
663.17	952.60
663.31	877.70
663.45	821.53
663.60	856.64
663.74	777.06
663.88	631.94
664.02	734.93
664.17	662.37
664.31	608.54
664.45	557.05
664.59	507.90
664.73	587.47
664.88	622.58
665.02	535.98
665.16	477.47
665.30	594.50
665.44	538.32
665.59	545.34
665.73	531.30
665.87	479.81
666.01	538.32
666.15	505.56
666.29	461.09
666.44	550.03
666.58	603.86
666.72	505.56
666.86	493.85
667.00	571.09
667.14	465.77
667.28	496.19
667.43	510.24
667.57	475.13
667.71	496.19
667.85	543.00
667.99	512.58
668.13	435.34
668.27	557.05
668.41	617.90
668.56	468.11
668.70	564.07
668.84	465.77
668.98	433.00
669.12	402.57
669.26	409.59
669.40	454.06
669.54	505.56
669.68	463.43
669.82	444.70
669.96	528.96
670.10	430.66
670.25	507.90
670.39	444.70
670.53	449.38
670.67	491.51
670.81	395.55
670.95	379.17
671.09	451.72
671.23	482.15
671.37	540.66
671.51	500.87
671.65	489.17
671.79	454.06
671.93	451.72
672.07	561.73
672.21	461.09
672.35	510.24
672.49	414.27
672.63	428.32
672.77	322.99
672.91	442.36
673.05	367.46
673.19	409.59
673.33	425.98
673.47	454.06
673.61	472.79
673.75	418.96
673.89	379.17
674.03	437.68
674.17	407.25
674.31	411.93
674.45	449.38
674.59	454.06
674.73	411.93
674.87	404.91
675.01	447.04
675.15	475.13
675.29	407.25
675.43	407.25
675.56	386.19
675.70	400.23
675.84	435.34
675.98	355.76
676.12	376.83
676.26	320.65
676.40	400.23
676.54	433.00
676.68	383.85
676.82	355.76
676.96	421.30
677.10	325.33
677.23	322.99
677.37	358.10
677.51	393.21
677.65	395.55
677.79	351.08
677.93	353.42
678.07	355.76
678.21	332.36
678.34	355.76
678.48	351.08
678.62	360.44
678.76	374.49
678.90	320.65
679.04	414.27
679.18	339.38
679.31	369.80
679.45	400.23
679.59	397.89
679.73	386.19
679.87	344.06
680.00	395.55
680.14	425.98
680.28	390.87
680.42	379.17
680.56	402.57
680.70	416.62
680.83	379.17
680.97	386.19
681.11	383.85
681.25	411.93
681.39	362.78
681.52	449.38
681.66	409.59
681.80	379.17
681.94	369.80
682.07	306.61
682.21	367.46
682.35	374.49
682.49	383.85
682.62	325.33
682.76	327.68
682.90	348.74
683.04	367.46
683.17	346.40
683.31	369.80
683.45	327.68
683.59	365.12
683.72	306.61
683.86	442.36
684.00	397.89
684.13	355.76
684.27	327.68
684.41	383.85
684.55	344.06
684.68	306.61
684.82	358.10
684.96	311.29
685.09	407.25
685.23	369.80
685.37	360.44
685.50	311.29
685.64	358.10
685.78	400.23
685.91	472.79
686.05	388.53
686.19	477.47
686.32	463.43
686.46	545.34
686.60	526.62
686.73	594.50
686.87	603.86
687.01	629.60
687.14	767.70
687.28	695.14
687.42	812.17
687.55	854.30
687.69	922.17
687.82	894.08
687.96	891.74
688.10	882.38
688.23	856.64
688.37	730.25
688.50	723.23
688.64	613.22
688.78	524.28
688.91	566.41
689.05	505.56
689.18	449.38
689.32	395.55
689.46	397.89
689.59	397.89
689.73	390.87
689.86	304.27
690.00	404.91
690.13	430.66
690.27	353.42
690.41	285.55
690.54	440.02
690.68	498.53
690.81	440.02
690.95	332.36
691.08	308.95
691.22	280.86
691.35	189.58
691.49	257.46
691.62	248.10
691.76	278.52
691.89	184.90
692.03	229.37
692.16	220.01
692.30	145.11
692.43	292.57
692.57	224.69
692.70	236.39
692.84	355.76
692.97	346.40
693.11	458.74
693.24	475.13
693.38	592.16
693.51	725.57
693.65	748.97
693.78	699.82
693.92	645.99
694.05	643.65
694.19	521.94
694.32	383.85
694.45	395.55
694.59	421.30
694.72	332.36
694.86	287.89
694.99	311.29
695.13	208.31
695.26	194.26
695.39	222.35
695.53	262.14
695.66	184.90
695.80	278.52
695.93	205.97
696.07	212.99
696.20	248.10
696.33	180.22
696.47	294.91
696.60	259.80
696.73	294.91
696.87	215.33
697.00	266.82
697.14	278.52
697.27	177.88
697.40	259.80
697.54	241.08
697.67	159.16
697.80	163.84
697.94	205.97
698.07	163.84
698.21	198.95
698.34	198.95
698.47	198.95
698.61	124.05
698.74	133.41
698.87	205.97
699.01	131.07
699.14	142.77
699.27	166.18
699.40	301.93
699.54	173.20
699.67	210.65
699.80	236.39
699.94	245.76
700.07	224.69
700.20	224.69
700.34	175.54
700.47	126.39
700.60	177.88
700.73	184.90
700.87	257.46
701.00	194.26
701.13	201.29
701.26	189.58
701.40	187.24
701.53	234.05
701.66	177.88
701.79	170.86
701.93	163.84
702.06	224.69
702.19	184.90
702.32	236.39
702.46	243.42
702.59	191.92
702.72	234.05
702.85	180.22
702.99	264.48
703.12	170.86
703.25	210.65
703.38	248.10
703.51	255.12
703.65	212.99
703.78	245.76
703.91	344.06
704.04	423.64
704.17	365.12
704.31	304.27
704.44	285.55
704.57	327.68
704.70	210.65
704.83	372.15
704.96	325.33
705.10	367.46
705.23	421.30
>>>>>End Processed Spectral Data<<<<<
