SpectraSuite Data File
++++++++++++++++++++++++++++++++++++
Date: Fri Oct 04 11:42:12 GMT-05:00 2013
User: price-jones
Dark Spectrum Present: No
Reference Spectrum Present: No
Number of Sampled Component Spectra: 1
Spectrometers: USB2+H05261
Integration Time (usec): 100000 (USB2+H05261)
Spectra Averaged: 1 (USB2+H05261)
Boxcar Smoothing: 0 (USB2+H05261)
Correct for Electrical Dark: No (USB2+H05261)
Strobe/Lamp Enabled: No (USB2+H05261)
Correct for Detector Non-linearity: No (USB2+H05261)
Correct for Stray Light: No (USB2+H05261)
Number of Pixels in Processed Spectrum: 2048
>>>>>Begin Processed Spectral Data<<<<<
365.73	121.71
365.92	121.71
366.12	121.71
366.32	0.00
366.52	0.00
366.72	0.00
366.91	0.00
367.11	0.00
367.31	0.00
367.51	0.00
367.70	0.00
367.90	0.00
368.10	0.00
368.30	0.00
368.49	0.00
368.69	0.00
368.89	0.00
369.09	0.00
369.28	2.34
369.48	4.68
369.68	0.00
369.87	0.00
370.07	0.00
370.27	44.47
370.47	9.36
370.66	0.00
370.86	32.77
371.06	53.83
371.25	91.28
371.45	49.15
371.65	93.62
371.84	98.30
372.04	63.19
372.24	93.62
372.44	58.51
372.63	84.26
372.83	131.07
373.03	117.03
373.22	53.83
373.42	84.26
373.62	81.92
373.81	119.37
374.01	189.58
374.21	145.11
374.40	145.11
374.60	117.03
374.79	124.05
374.99	170.86
375.19	86.60
375.38	84.26
375.58	161.50
375.78	98.30
375.97	126.39
376.17	210.65
376.37	154.48
376.56	163.84
376.76	135.75
376.95	100.64
377.15	201.29
377.35	177.88
377.54	119.37
377.74	131.07
377.93	163.84
378.13	117.03
378.33	138.09
378.52	180.22
378.72	189.58
378.91	152.13
379.11	37.45
379.31	91.28
379.50	51.49
379.70	173.20
379.89	138.09
380.09	86.60
380.28	107.66
380.48	16.38
380.68	194.26
380.87	79.58
381.07	107.66
381.26	98.30
381.46	194.26
381.65	131.07
381.85	156.82
382.04	121.71
382.24	98.30
382.43	77.24
382.63	126.39
382.83	81.92
383.02	180.22
383.22	142.77
383.41	79.58
383.61	100.64
383.80	140.43
384.00	105.32
384.19	51.49
384.39	105.32
384.58	142.77
384.78	119.37
384.97	182.56
385.17	91.28
385.36	84.26
385.56	168.52
385.75	128.73
385.95	110.01
386.14	114.69
386.34	23.41
386.53	58.51
386.72	142.77
386.92	166.18
387.11	70.22
387.31	112.35
387.50	67.88
387.70	86.60
387.89	131.07
388.09	110.01
388.28	135.75
388.48	72.56
388.67	180.22
388.86	117.03
389.06	100.64
389.25	77.24
389.45	114.69
389.64	51.49
389.84	142.77
390.03	154.48
390.22	173.20
390.42	175.54
390.61	121.71
390.81	81.92
391.00	117.03
391.19	133.41
391.39	112.35
391.58	191.92
391.78	184.90
391.97	135.75
392.16	72.56
392.36	166.18
392.55	128.73
392.75	49.15
392.94	142.77
393.13	149.79
393.33	126.39
393.52	53.83
393.71	145.11
393.91	70.22
394.10	154.48
394.29	102.98
394.49	98.30
394.68	114.69
394.88	191.92
395.07	161.50
395.26	142.77
395.46	138.09
395.65	100.64
395.84	154.48
396.04	182.56
396.23	105.32
396.42	140.43
396.62	154.48
396.81	135.75
397.00	180.22
397.19	126.39
397.39	163.84
397.58	154.48
397.77	102.98
397.97	119.37
398.16	121.71
398.35	159.16
398.55	100.64
398.74	161.50
398.93	133.41
399.12	95.96
399.32	184.90
399.51	140.43
399.70	102.98
399.90	217.67
400.09	152.13
400.28	117.03
400.47	100.64
400.67	168.52
400.86	170.86
401.05	79.58
401.24	189.58
401.44	238.73
401.63	205.97
401.82	191.92
402.01	117.03
402.21	196.60
402.40	266.82
402.59	201.29
402.78	198.95
402.97	210.65
403.17	210.65
403.36	208.31
403.55	334.70
403.74	615.56
403.93	1804.55
404.13	4348.72
404.32	5823.25
404.51	5036.83
404.70	3164.40
404.89	1221.76
405.09	470.45
405.28	271.50
405.47	208.31
405.66	173.20
405.85	241.08
406.05	203.63
406.24	142.77
406.43	110.01
406.62	173.20
406.81	196.60
407.00	290.23
407.20	573.43
407.39	821.53
407.58	823.87
407.77	606.20
407.96	367.46
408.15	227.03
408.34	117.03
408.54	159.16
408.73	180.22
408.92	170.86
409.11	264.48
409.30	229.37
409.49	138.09
409.68	79.58
409.87	173.20
410.07	173.20
410.26	138.09
410.45	154.48
410.64	163.84
410.83	145.11
411.02	163.84
411.21	154.48
411.40	175.54
411.59	198.95
411.78	173.20
411.98	198.95
412.17	126.39
412.36	234.05
412.55	126.39
412.74	252.78
412.93	187.24
413.12	238.73
413.31	170.86
413.50	189.58
413.69	210.65
413.88	271.50
414.07	212.99
414.26	189.58
414.45	140.43
414.64	163.84
414.83	262.14
415.02	201.29
415.22	203.63
415.41	198.95
415.60	231.71
415.79	269.16
415.98	231.71
416.17	194.26
416.36	205.97
416.55	203.63
416.74	220.01
416.93	262.14
417.12	231.71
417.31	196.60
417.50	231.71
417.69	255.12
417.88	245.76
418.07	210.65
418.26	224.69
418.45	259.80
418.64	322.99
418.83	318.31
419.02	245.76
419.21	222.35
419.39	315.97
419.58	201.29
419.77	217.67
419.96	177.88
420.15	276.18
420.34	163.84
420.53	241.08
420.72	248.10
420.91	259.80
421.10	210.65
421.29	355.76
421.48	304.27
421.67	278.52
421.86	175.54
422.05	238.73
422.24	236.39
422.43	245.76
422.61	264.48
422.80	273.84
422.99	278.52
423.18	248.10
423.37	337.04
423.56	320.65
423.75	311.29
423.94	257.46
424.13	208.31
424.32	175.54
424.50	255.12
424.69	262.14
424.88	344.06
425.07	287.89
425.26	348.74
425.45	327.68
425.64	257.46
425.83	301.93
426.01	297.25
426.20	266.82
426.39	344.06
426.58	266.82
426.77	241.08
426.96	301.93
427.15	294.91
427.33	325.33
427.52	285.55
427.71	264.48
427.90	318.31
428.09	294.91
428.28	299.59
428.46	313.63
428.65	353.42
428.84	262.14
429.03	388.53
429.22	264.48
429.40	330.02
429.59	212.99
429.78	332.36
429.97	334.70
430.16	360.44
430.34	271.50
430.53	297.25
430.72	369.80
430.91	285.55
431.10	315.97
431.28	327.68
431.47	367.46
431.66	400.23
431.85	390.87
432.03	421.30
432.22	519.60
432.41	365.12
432.60	381.51
432.79	341.72
432.97	397.89
433.16	425.98
433.35	416.62
433.54	533.64
433.72	547.69
433.91	561.73
434.10	550.03
434.28	730.25
434.47	912.81
434.66	910.47
434.85	1137.50
435.03	2981.84
435.22	11136.27
435.41	25568.01
435.59	26632.96
435.78	16788.66
435.97	8491.46
436.16	3384.41
436.34	1313.04
436.53	732.59
436.72	650.67
436.90	505.56
437.09	592.16
437.28	475.13
437.46	404.91
437.65	402.57
437.84	454.06
438.02	402.57
438.21	400.23
438.40	449.38
438.58	421.30
438.77	365.12
438.96	402.57
439.14	409.59
439.33	421.30
439.52	376.83
439.70	454.06
439.89	411.93
440.08	393.21
440.26	386.19
440.45	421.30
440.63	360.44
440.82	477.47
441.01	383.85
441.19	428.32
441.38	369.80
441.57	442.36
441.75	521.94
441.94	440.02
442.12	496.19
442.31	358.10
442.50	454.06
442.68	402.57
442.87	425.98
443.05	339.38
443.24	414.27
443.43	472.79
443.61	463.43
443.80	425.98
443.98	376.83
444.17	395.55
444.35	400.23
444.54	479.81
444.73	407.25
444.91	444.70
445.10	454.06
445.28	367.46
445.47	435.34
445.65	374.49
445.84	407.25
446.02	423.64
446.21	386.19
446.39	437.68
446.58	477.47
446.77	402.57
446.95	418.96
447.14	358.10
447.32	376.83
447.51	461.09
447.69	400.23
447.88	383.85
448.06	383.85
448.25	395.55
448.43	421.30
448.62	414.27
448.80	402.57
448.99	402.57
449.17	388.53
449.36	346.40
449.54	374.49
449.73	395.55
449.91	479.81
450.10	376.83
450.28	540.66
450.46	379.17
450.65	369.80
450.83	482.15
451.02	374.49
451.20	409.59
451.39	430.66
451.57	390.87
451.76	395.55
451.94	416.62
452.13	407.25
452.31	437.68
452.49	456.40
452.68	355.76
452.86	449.38
453.05	454.06
453.23	400.23
453.42	351.08
453.60	262.14
453.78	381.51
453.97	386.19
454.15	461.09
454.34	393.21
454.52	379.17
454.70	393.21
454.89	437.68
455.07	409.59
455.26	449.38
455.44	404.91
455.62	376.83
455.81	395.55
455.99	416.62
456.17	355.76
456.36	365.12
456.54	433.00
456.73	418.96
456.91	418.96
457.09	442.36
457.28	402.57
457.46	390.87
457.64	510.24
457.83	353.42
458.01	341.72
458.19	418.96
458.38	365.12
458.56	437.68
458.74	428.32
458.93	344.06
459.11	383.85
459.29	330.02
459.48	390.87
459.66	475.13
459.84	400.23
460.03	411.93
460.21	463.43
460.39	362.78
460.57	433.00
460.76	409.59
460.94	411.93
461.12	346.40
461.31	440.02
461.49	355.76
461.67	344.06
461.85	351.08
462.04	379.17
462.22	465.77
462.40	411.93
462.59	348.74
462.77	395.55
462.95	376.83
463.13	355.76
463.32	306.61
463.50	416.62
463.68	407.25
463.86	325.33
464.05	369.80
464.23	463.43
464.41	362.78
464.59	400.23
464.78	346.40
464.96	355.76
465.14	433.00
465.32	433.00
465.50	376.83
465.69	423.64
465.87	315.97
466.05	376.83
466.23	395.55
466.41	411.93
466.60	449.38
466.78	416.62
466.96	437.68
467.14	400.23
467.32	447.04
467.51	388.53
467.69	372.15
467.87	411.93
468.05	337.04
468.23	369.80
468.41	327.68
468.60	358.10
468.78	362.78
468.96	472.79
469.14	346.40
469.32	299.59
469.50	351.08
469.69	397.89
469.87	390.87
470.05	386.19
470.23	334.70
470.41	395.55
470.59	374.49
470.77	306.61
470.95	351.08
471.14	346.40
471.32	355.76
471.50	355.76
471.68	433.00
471.86	325.33
472.04	376.83
472.22	372.15
472.40	301.93
472.58	355.76
472.77	353.42
472.95	301.93
473.13	433.00
473.31	435.34
473.49	386.19
473.67	353.42
473.85	393.21
474.03	322.99
474.21	269.16
474.39	395.55
474.57	463.43
474.75	407.25
474.93	278.52
475.12	388.53
475.30	411.93
475.48	430.66
475.66	407.25
475.84	369.80
476.02	358.10
476.20	332.36
476.38	482.15
476.56	547.69
476.74	313.63
476.92	372.15
477.10	372.15
477.28	358.10
477.46	440.02
477.64	484.49
477.82	468.11
478.00	390.87
478.18	407.25
478.36	468.11
478.54	386.19
478.72	423.64
478.90	449.38
479.08	437.68
479.26	449.38
479.44	519.60
479.62	437.68
479.80	465.77
479.98	421.30
480.16	482.15
480.34	535.98
480.52	559.39
480.70	629.60
480.88	585.13
481.06	674.07
481.24	669.39
481.41	718.54
481.59	730.25
481.77	723.23
481.95	805.14
482.13	866.00
482.31	915.15
482.49	954.94
482.67	961.96
482.85	1071.97
483.03	1111.75
483.21	1282.61
483.39	1245.16
483.57	1299.00
483.74	1500.28
483.92	1465.18
484.10	1589.22
484.28	1652.42
484.46	1729.66
484.64	1750.72
484.82	1879.45
485.00	1900.52
485.18	2073.71
485.35	2235.21
485.53	2422.45
485.71	2450.54
485.89	2471.61
486.07	2616.72
486.25	2663.53
486.43	2518.42
486.61	2588.63
486.78	2546.50
486.96	2677.57
487.14	2651.83
487.32	2527.78
487.50	2647.15
487.68	2647.15
487.85	2403.73
488.03	2490.33
488.21	2476.29
488.39	2331.17
488.57	2385.01
488.75	2237.55
488.92	2516.08
489.10	2125.21
489.28	2092.44
489.46	2167.34
489.64	2024.56
489.81	1996.48
489.99	2040.95
490.17	2017.54
490.35	1937.96
490.53	1940.30
490.70	1982.43
490.88	2108.82
491.06	2066.69
491.24	2272.66
491.41	2263.30
491.59	2141.59
491.77	1907.54
491.95	1928.60
492.13	1795.19
492.30	1844.34
492.48	1732.00
492.66	1743.70
492.84	1720.29
493.01	1682.85
493.19	1685.19
493.37	1820.94
493.54	1685.19
493.72	1650.08
493.90	1661.78
494.08	1614.97
494.25	1612.63
494.43	1486.24
494.61	1549.43
494.79	1502.62
494.96	1451.13
495.14	1509.65
495.32	1460.49
495.49	1437.09
495.67	1495.60
495.85	1399.64
496.02	1261.55
496.20	1434.75
496.38	1224.10
496.55	1259.21
496.73	1355.17
496.91	1252.19
497.09	1268.57
497.26	1277.93
497.44	1167.93
497.62	1268.57
497.79	1116.44
497.97	1186.65
498.14	1172.61
498.32	1097.71
498.50	1104.73
498.67	1020.47
498.85	1097.71
499.03	999.41
499.20	952.60
499.38	915.15
499.56	971.32
499.73	1095.37
499.91	903.45
500.08	901.11
500.26	826.21
500.44	791.10
500.61	842.59
500.79	791.10
500.97	704.50
501.14	765.36
501.32	674.07
501.49	744.29
501.67	746.63
501.84	737.27
502.02	669.39
502.20	681.10
502.37	608.54
502.55	585.13
502.72	596.84
502.90	638.97
503.07	631.94
503.25	622.58
503.43	599.18
503.60	482.15
503.78	608.54
503.95	535.98
504.13	543.00
504.30	533.64
504.48	507.90
504.65	587.47
504.83	585.13
505.01	477.47
505.18	526.62
505.36	538.32
505.53	486.83
505.71	449.38
505.88	571.09
506.06	475.13
506.23	376.83
506.41	430.66
506.58	510.24
506.76	503.22
506.93	477.47
507.11	447.04
507.28	451.72
507.46	484.49
507.63	325.33
507.81	477.47
507.98	416.62
508.16	454.06
508.33	374.49
508.50	425.98
508.68	514.92
508.85	472.79
509.03	486.83
509.20	430.66
509.38	475.13
509.55	425.98
509.73	472.79
509.90	411.93
510.08	330.02
510.25	416.62
510.42	318.31
510.60	383.85
510.77	435.34
510.95	402.57
511.12	402.57
511.30	327.68
511.47	447.04
511.64	437.68
511.82	365.12
511.99	383.85
512.17	411.93
512.34	346.40
512.51	367.46
512.69	374.49
512.86	458.74
513.04	355.76
513.21	421.30
513.38	388.53
513.56	435.34
513.73	365.12
513.90	367.46
514.08	358.10
514.25	395.55
514.43	449.38
514.60	308.95
514.77	407.25
514.95	458.74
515.12	315.97
515.29	362.78
515.47	433.00
515.64	337.04
515.81	423.64
515.99	407.25
516.16	365.12
516.33	320.65
516.51	379.17
516.68	369.80
516.85	266.82
517.03	304.27
517.20	362.78
517.37	379.17
517.54	365.12
517.72	290.23
517.89	252.78
518.06	318.31
518.24	397.89
518.41	358.10
518.58	372.15
518.75	346.40
518.93	383.85
519.10	381.51
519.27	325.33
519.45	306.61
519.62	400.23
519.79	388.53
519.96	304.27
520.14	271.50
520.31	311.29
520.48	332.36
520.65	339.38
520.83	215.33
521.00	346.40
521.17	337.04
521.34	276.18
521.52	374.49
521.69	304.27
521.86	306.61
522.03	360.44
522.20	341.72
522.38	313.63
522.55	299.59
522.72	313.63
522.89	386.19
523.07	430.66
523.24	297.25
523.41	374.49
523.58	381.51
523.75	280.86
523.92	318.31
524.10	334.70
524.27	362.78
524.44	386.19
524.61	379.17
524.78	308.95
524.96	482.15
525.13	383.85
525.30	341.72
525.47	360.44
525.64	362.78
525.81	344.06
525.98	365.12
526.16	330.02
526.33	294.91
526.50	376.83
526.67	358.10
526.84	351.08
527.01	355.76
527.18	423.64
527.36	456.40
527.53	407.25
527.70	456.40
527.87	447.04
528.04	393.21
528.21	414.27
528.38	496.19
528.55	430.66
528.72	386.19
528.89	416.62
529.07	458.74
529.24	463.43
529.41	531.30
529.58	435.34
529.75	425.98
529.92	416.62
530.09	514.92
530.26	500.87
530.43	468.11
530.60	496.19
530.77	489.17
530.94	533.64
531.11	526.62
531.28	465.77
531.46	547.69
531.63	554.71
531.80	608.54
531.97	695.14
532.14	725.57
532.31	833.23
532.48	870.68
532.65	1036.86
532.82	1181.97
532.99	1322.40
533.16	1568.16
533.33	1661.78
533.50	1469.86
533.67	1299.00
533.84	1224.10
534.01	1078.99
534.18	905.79
534.35	961.96
534.52	912.81
534.69	1008.77
534.86	1064.94
535.03	1020.47
535.20	1057.92
535.37	1240.48
535.54	1191.33
535.71	1174.95
535.88	1308.36
536.05	1348.15
536.22	1509.65
536.38	1640.72
536.55	1842.00
536.72	2005.84
536.89	2153.29
537.06	2466.92
537.23	2626.08
537.40	2935.03
537.57	2974.82
537.74	3297.81
537.91	3386.76
538.08	3487.40
538.25	3447.61
538.42	3557.61
538.59	3613.79
538.75	3681.66
538.92	3927.42
539.09	4297.22
539.26	4695.11
539.43	5394.93
539.60	6008.16
539.77	6745.42
539.94	7534.18
540.11	8292.52
540.28	9118.73
540.44	10202.40
540.61	11037.97
540.78	12273.77
540.95	15229.87
541.12	18232.77
541.29	20512.46
541.46	21404.20
541.62	21284.83
541.79	20336.91
541.96	19082.39
542.13	17596.15
542.30	16358.00
542.47	15578.61
542.63	14618.99
542.80	14183.65
542.97	13888.74
543.14	13811.50
543.31	13685.11
543.48	13886.40
543.64	14207.05
543.81	13989.38
543.98	14171.94
544.15	14347.48
544.32	14473.87
544.48	14352.16
544.65	14401.32
544.82	14293.65
544.99	14382.59
545.16	14408.34
545.32	15220.50
545.49	25455.67
545.66	47611.18
545.83	56062.85
546.00	48594.20
546.16	34096.92
546.33	25123.31
546.50	18593.22
546.67	14656.43
546.83	12884.65
547.00	12468.03
547.17	11878.22
547.34	11267.34
547.50	10817.96
547.67	10607.31
547.84	10078.35
548.00	9799.82
548.17	9291.93
548.34	8823.82
548.51	8671.68
548.67	8234.00
548.84	7824.41
549.01	7573.97
549.18	7131.61
549.34	6867.13
549.51	6607.33
549.68	6494.99
549.84	6061.99
550.01	6043.26
550.18	5682.82
550.34	5392.59
550.51	5135.14
550.68	4940.87
550.84	4491.49
551.01	4383.82
551.18	4217.65
551.34	4007.00
551.51	3936.78
551.68	3644.21
551.84	3552.93
552.01	3276.75
552.18	3155.04
552.34	3112.91
552.51	3117.59
552.68	2899.92
552.84	2654.17
553.01	2675.23
553.18	2628.42
553.34	2485.65
553.51	2553.52
553.67	2506.71
553.84	2279.68
554.01	2097.12
554.17	2033.93
554.34	1879.45
554.51	1839.66
554.67	1703.91
554.84	1643.06
555.00	1586.88
555.17	1399.64
555.33	1444.11
555.50	1228.78
555.67	1343.47
555.83	1221.76
556.00	1226.44
556.16	1301.34
556.33	1156.22
556.50	1114.10
556.66	973.66
556.83	985.37
556.99	1060.26
557.16	917.49
557.32	966.64
557.49	985.37
557.65	929.19
557.82	887.06
557.98	882.38
558.15	837.91
558.32	826.21
558.48	800.46
558.65	763.01
558.81	821.53
558.98	685.78
559.14	737.27
559.31	791.10
559.47	784.08
559.64	674.07
559.80	725.57
559.97	685.78
560.13	683.44
560.30	688.12
560.46	603.86
560.63	683.44
560.79	716.20
560.96	669.39
561.12	716.20
561.29	725.57
561.45	667.05
561.61	681.10
561.78	685.78
561.94	688.12
562.11	564.07
562.27	674.07
562.44	685.78
562.60	662.37
562.77	688.12
562.93	629.60
563.10	645.99
563.26	585.13
563.42	566.41
563.59	571.09
563.75	610.88
563.92	571.09
564.08	620.24
564.24	594.50
564.41	713.86
564.57	573.43
564.74	500.87
564.90	451.72
565.07	575.77
565.23	606.20
565.39	564.07
565.56	543.00
565.72	472.79
565.88	533.64
566.05	472.79
566.21	545.34
566.38	531.30
566.54	519.60
566.70	575.77
566.87	559.39
567.03	547.69
567.19	500.87
567.36	505.56
567.52	489.17
567.68	550.03
567.85	575.77
568.01	559.39
568.17	554.71
568.34	559.39
568.50	550.03
568.66	521.94
568.83	617.90
568.99	606.20
569.15	496.19
569.32	578.11
569.48	486.83
569.64	435.34
569.81	540.66
569.97	491.51
570.13	477.47
570.30	395.55
570.46	430.66
570.62	456.40
570.78	477.47
570.95	397.89
571.11	477.47
571.27	430.66
571.43	437.68
571.60	491.51
571.76	465.77
571.92	416.62
572.09	404.91
572.25	442.36
572.41	428.32
572.57	414.27
572.74	468.11
572.90	435.34
573.06	458.74
573.22	465.77
573.38	477.47
573.55	470.45
573.71	416.62
573.87	461.09
574.03	472.79
574.20	425.98
574.36	491.51
574.52	468.11
574.68	498.53
574.84	573.43
575.01	521.94
575.17	657.69
575.33	669.39
575.49	624.92
575.65	594.50
575.82	807.48
575.98	826.21
576.14	884.72
576.30	1729.66
576.46	5345.78
576.62	9359.80
576.79	10113.45
576.95	7148.00
577.11	4760.65
577.27	3421.86
577.43	2272.66
577.59	1521.35
577.75	1247.51
577.92	1050.90
578.08	1167.93
578.24	1165.59
578.40	1879.45
578.56	4919.81
578.72	8748.92
578.88	9247.46
579.04	6913.94
579.21	4699.80
579.37	3559.95
579.53	2808.64
579.69	2820.35
579.85	3070.78
580.01	3868.91
580.17	3550.59
580.33	3122.27
580.49	2745.45
580.65	2408.41
580.82	2186.06
580.98	2169.68
581.14	2146.27
581.30	2359.26
581.46	2450.54
581.62	2684.59
581.78	2743.11
581.94	3105.89
582.10	3241.64
582.26	3405.48
582.42	3375.05
582.58	3515.48
582.74	3471.01
582.90	3623.15
583.06	3522.51
583.22	3588.04
583.38	3639.53
583.54	3669.96
583.70	3637.19
583.86	3513.14
584.02	3461.65
584.18	3403.14
584.34	3529.53
584.50	3459.31
584.66	3307.18
584.82	3145.68
584.98	3157.38
585.14	3119.93
585.30	3009.93
585.46	3084.83
585.62	3126.96
585.78	3026.31
585.94	3038.02
586.10	3138.66
586.26	3433.57
586.42	3789.33
586.58	4306.59
586.74	5336.42
586.90	6307.74
587.06	6834.36
587.22	6888.20
587.38	6171.99
587.54	5200.67
587.70	4617.88
587.86	3871.25
588.02	3431.23
588.18	2932.69
588.34	2651.83
588.49	2408.41
588.65	2399.05
588.81	2265.64
588.97	2087.76
589.13	2057.33
589.29	2047.97
589.45	2059.67
589.61	1952.01
589.77	2026.90
589.93	2043.29
590.08	2202.44
590.24	2143.93
590.40	2244.57
590.56	2237.55
590.72	2427.14
590.88	2471.61
591.04	2408.41
591.20	2527.78
591.35	2661.19
591.51	2834.39
591.67	3014.61
591.83	3126.96
591.99	3391.44
592.15	3662.94
592.31	3899.33
592.46	4280.84
592.62	4624.90
592.78	4865.97
592.94	5020.45
593.10	5093.01
593.26	4678.73
593.41	4341.69
593.57	3971.89
593.73	3482.72
593.89	2995.89
594.05	2780.56
594.20	2600.34
594.36	2403.73
594.52	2118.18
594.68	2052.65
594.84	1947.33
594.99	2008.18
595.15	1912.22
595.31	1895.83
595.47	1827.96
595.62	1823.28
595.78	1834.98
595.94	1858.39
596.10	1895.83
596.25	1834.98
596.41	1797.53
596.57	1774.13
596.73	1872.43
596.88	1717.95
597.04	1795.19
597.20	1778.81
597.36	1902.86
597.51	1905.20
597.67	1961.37
597.83	2209.47
597.99	2181.38
598.14	2373.30
598.30	2413.09
598.46	2649.49
598.61	2738.43
598.77	2846.09
598.93	2855.45
599.09	2967.80
599.24	3150.36
599.40	3136.32
599.56	2871.84
599.71	2876.52
599.87	2771.19
600.03	2487.99
600.18	2363.94
600.34	2150.95
600.50	2083.08
600.65	1998.82
600.81	1914.56
600.97	1802.21
601.12	1659.44
601.28	1572.84
601.44	1544.75
601.59	1418.36
601.75	1439.43
601.91	1369.21
602.06	1329.42
602.22	1317.72
602.37	1238.14
602.53	1214.74
602.69	1221.76
602.84	1233.46
603.00	1266.23
603.16	1221.76
603.31	1320.06
603.47	1334.11
603.62	1280.27
603.78	1338.79
603.94	1366.87
604.09	1385.60
604.25	1472.20
604.40	1441.77
604.56	1387.94
604.71	1495.60
604.87	1469.86
605.03	1495.60
605.18	1444.11
605.34	1673.48
605.49	1568.16
605.65	1561.14
605.80	1661.78
605.96	1715.61
606.12	1769.44
606.27	1846.68
606.43	1863.07
606.58	2026.90
606.74	2160.31
606.89	2223.51
607.05	2335.85
607.20	2408.41
607.36	2609.70
607.51	2668.21
607.67	2810.98
607.82	2965.46
607.98	3204.19
608.13	3527.19
608.29	3831.46
608.44	4021.04
608.60	4229.35
608.75	4690.43
608.91	5128.11
609.06	5703.89
609.22	6272.64
609.37	6927.99
609.53	7618.44
609.68	8823.82
609.84	10087.71
609.99	11597.35
610.15	13673.41
610.30	17043.78
610.46	21743.58
610.61	27882.80
610.76	35583.16
610.92	43232.04
611.07	48025.45
611.23	49050.61
611.38	46944.12
611.54	42232.63
611.69	36079.36
611.84	30401.22
612.00	25020.33
612.15	21373.77
612.31	18338.10
612.46	16369.71
612.62	15323.49
612.77	14298.33
612.92	13692.13
613.08	12631.87
613.23	11929.71
613.39	11414.79
613.54	11073.07
613.69	11000.52
613.85	10956.05
614.00	11049.67
614.15	10881.15
614.31	10670.50
614.46	10539.43
614.62	10200.05
614.77	9523.64
614.92	8926.80
615.08	8496.14
615.23	7726.11
615.38	7101.19
615.54	6466.90
615.69	6047.94
615.84	5418.34
616.00	5125.77
616.15	4709.16
616.30	4524.26
616.46	4259.78
616.61	3859.54
616.76	3913.38
616.92	3447.61
617.07	3353.99
617.22	3068.44
617.37	3000.57
617.53	2899.92
617.68	2759.49
617.83	2752.47
617.99	2668.21
618.14	2492.67
618.29	2560.55
618.45	2370.96
618.60	2410.75
618.75	2314.79
618.90	2275.00
619.06	2225.85
619.21	2324.15
619.36	2260.96
619.51	2190.74
619.67	2277.34
619.82	2263.30
619.97	2267.98
620.12	2417.77
620.28	2415.43
620.43	2469.27
620.58	2530.12
620.73	2555.86
620.89	2450.54
621.04	2544.16
621.19	2504.37
621.34	2385.01
621.49	2317.13
621.65	2340.54
621.80	2452.88
621.95	2354.58
622.10	2349.90
622.25	2375.64
622.41	2385.01
622.56	2441.18
622.71	2532.46
622.86	2621.40
623.01	2637.78
623.16	2672.89
623.32	2658.85
623.47	2771.19
623.62	2839.07
623.77	2670.55
623.92	2693.96
624.07	2773.53
624.23	2619.06
624.38	2630.76
624.53	2609.70
624.68	2684.59
624.83	2663.53
624.98	2731.41
625.13	2726.72
625.29	2843.75
625.44	2722.04
625.59	2644.81
625.74	2640.12
625.89	2696.30
626.04	2684.59
626.19	2745.45
626.34	2633.10
626.49	2698.64
626.65	2696.30
626.80	2656.51
626.95	2602.68
627.10	2586.29
627.25	2466.92
627.40	2574.59
627.55	2600.34
627.70	2502.03
627.85	2335.85
628.00	2389.69
628.15	2373.30
628.30	2385.01
628.45	2340.54
628.60	2333.51
628.76	2377.98
628.91	2443.52
629.06	2387.35
629.21	2502.03
629.36	2558.21
629.51	2588.63
629.66	2773.53
629.81	2876.52
629.96	3185.47
630.11	3548.25
630.26	3969.55
630.41	4365.10
630.56	4877.68
630.71	5100.03
630.86	5043.85
631.01	5111.73
631.16	4767.67
631.31	4287.86
631.46	3667.62
631.61	3166.74
631.76	2562.89
631.91	2312.45
632.06	1937.96
632.21	1598.59
632.36	1544.75
632.51	1299.00
632.66	1165.59
632.81	968.98
632.96	1029.84
633.10	971.32
633.25	1048.56
633.40	1006.43
633.55	903.45
633.70	917.49
633.85	919.83
634.00	798.12
634.15	734.93
634.30	802.80
634.45	737.27
634.60	851.96
634.75	692.80
634.90	816.85
635.05	681.10
635.19	667.05
635.34	702.16
635.49	676.41
635.64	669.39
635.79	662.37
635.94	758.33
636.09	653.01
636.24	660.03
636.39	638.97
636.53	660.03
636.68	601.52
636.83	671.73
636.98	641.31
637.13	641.31
637.28	624.92
637.43	566.41
637.57	615.56
637.72	531.30
637.87	589.82
638.02	514.92
638.17	484.49
638.32	547.69
638.46	557.05
638.61	552.37
638.76	517.26
638.91	517.26
639.06	519.60
639.20	571.09
639.35	451.72
639.50	442.36
639.65	507.90
639.80	528.96
639.94	489.17
640.09	510.24
640.24	610.88
640.39	566.41
640.54	545.34
640.68	496.19
640.83	463.43
640.98	491.51
641.13	552.37
641.27	482.15
641.42	465.77
641.57	510.24
641.72	510.24
641.86	500.87
642.01	512.58
642.16	472.79
642.31	528.96
642.45	507.90
642.60	571.09
642.75	447.04
642.90	514.92
643.04	557.05
643.19	550.03
643.34	493.85
643.48	484.49
643.63	500.87
643.78	624.92
643.93	594.50
644.07	594.50
644.22	475.13
644.37	430.66
644.51	566.41
644.66	528.96
644.81	507.90
644.95	531.30
645.10	479.81
645.25	430.66
645.39	507.90
645.54	484.49
645.69	472.79
645.83	461.09
645.98	510.24
646.13	540.66
646.27	531.30
646.42	470.45
646.57	477.47
646.71	458.74
646.86	407.25
647.00	486.83
647.15	498.53
647.30	524.28
647.44	435.34
647.59	486.83
647.74	423.64
647.88	433.00
648.03	433.00
648.17	505.56
648.32	557.05
648.47	479.81
648.61	470.45
648.76	540.66
648.90	547.69
649.05	552.37
649.20	566.41
649.34	571.09
649.49	643.65
649.63	795.78
649.78	828.55
649.92	1095.37
650.07	1322.40
650.21	1409.00
650.36	1446.45
650.51	1448.79
650.65	1350.49
650.80	1196.01
650.94	1121.12
651.09	990.05
651.23	814.51
651.38	835.57
651.52	823.87
651.67	706.84
651.81	676.41
651.96	674.07
652.10	601.52
652.25	566.41
652.39	667.05
652.54	711.52
652.68	648.33
652.83	718.54
652.97	826.21
653.12	730.25
653.26	763.01
653.41	763.01
653.55	631.94
653.70	575.77
653.84	648.33
653.99	617.90
654.13	524.28
654.27	543.00
654.42	545.34
654.56	510.24
654.71	533.64
654.85	468.11
655.00	421.30
655.14	482.15
655.29	430.66
655.43	526.62
655.57	374.49
655.72	397.89
655.86	423.64
656.01	510.24
656.15	442.36
656.30	418.96
656.44	400.23
656.58	447.04
656.73	451.72
656.87	505.56
657.01	435.34
657.16	503.22
657.30	610.88
657.45	491.51
657.59	573.43
657.73	559.39
657.88	468.11
658.02	519.60
658.16	533.64
658.31	418.96
658.45	400.23
658.60	423.64
658.74	402.57
658.88	428.32
659.03	404.91
659.17	381.51
659.31	395.55
659.46	344.06
659.60	381.51
659.74	367.46
659.89	294.91
660.03	332.36
660.17	346.40
660.32	421.30
660.46	325.33
660.60	318.31
660.74	365.12
660.89	468.11
661.03	348.74
661.17	383.85
661.32	414.27
661.46	456.40
661.60	610.88
661.74	617.90
661.89	704.50
662.03	856.64
662.17	847.27
662.31	858.98
662.46	870.68
662.60	793.44
662.74	758.33
662.88	660.03
663.03	713.86
663.17	620.24
663.31	622.58
663.45	585.13
663.60	479.81
663.74	468.11
663.88	404.91
664.02	454.06
664.17	461.09
664.31	409.59
664.45	351.08
664.59	393.21
664.73	411.93
664.88	437.68
665.02	374.49
665.16	390.87
665.30	397.89
665.44	346.40
665.59	383.85
665.73	409.59
665.87	395.55
666.01	379.17
666.15	372.15
666.29	320.65
666.44	351.08
666.58	376.83
666.72	306.61
666.86	362.78
667.00	423.64
667.14	395.55
667.28	393.21
667.43	346.40
667.57	322.99
667.71	367.46
667.85	299.59
667.99	402.57
668.13	337.04
668.27	358.10
668.41	341.72
668.56	353.42
668.70	374.49
668.84	400.23
668.98	362.78
669.12	353.42
669.26	334.70
669.40	376.83
669.54	264.48
669.68	339.38
669.82	292.57
669.96	360.44
670.10	346.40
670.25	292.57
670.39	234.05
670.53	285.55
670.67	308.95
670.81	315.97
670.95	383.85
671.09	315.97
671.23	369.80
671.37	341.72
671.51	306.61
671.65	257.46
671.79	332.36
671.93	313.63
672.07	351.08
672.21	308.95
672.35	320.65
672.49	332.36
672.63	301.93
672.77	325.33
672.91	259.80
673.05	299.59
673.19	283.20
673.33	236.39
673.47	315.97
673.61	245.76
673.75	257.46
673.89	264.48
674.03	227.03
674.17	259.80
674.31	280.86
674.45	278.52
674.59	276.18
674.73	262.14
674.87	250.44
675.01	341.72
675.15	224.69
675.29	318.31
675.43	283.20
675.56	337.04
675.70	262.14
675.84	248.10
675.98	198.95
676.12	292.57
676.26	262.14
676.40	257.46
676.54	264.48
676.68	220.01
676.82	283.20
676.96	271.50
677.10	264.48
677.23	334.70
677.37	257.46
677.51	273.84
677.65	278.52
677.79	191.92
677.93	208.31
678.07	273.84
678.21	264.48
678.34	294.91
678.48	280.86
678.62	283.20
678.76	269.16
678.90	301.93
679.04	301.93
679.18	154.48
679.31	224.69
679.45	184.90
679.59	229.37
679.73	280.86
679.87	257.46
680.00	271.50
680.14	299.59
680.28	339.38
680.42	250.44
680.56	264.48
680.70	276.18
680.83	320.65
680.97	266.82
681.11	297.25
681.25	294.91
681.39	217.67
681.52	182.56
681.66	304.27
681.80	280.86
681.94	208.31
682.07	259.80
682.21	229.37
682.35	203.63
682.49	145.11
682.62	341.72
682.76	278.52
682.90	238.73
683.04	208.31
683.17	320.65
683.31	208.31
683.45	276.18
683.59	308.95
683.72	250.44
683.86	227.03
684.00	266.82
684.13	311.29
684.27	262.14
684.41	238.73
684.55	187.24
684.68	222.35
684.82	283.20
684.96	250.44
685.09	315.97
685.23	285.55
685.37	229.37
685.50	315.97
685.64	290.23
685.78	205.97
685.91	210.65
686.05	245.76
686.19	332.36
686.32	306.61
686.46	290.23
686.60	411.93
686.73	451.72
686.87	414.27
687.01	374.49
687.14	423.64
687.28	418.96
687.42	409.59
687.55	458.74
687.69	601.52
687.82	514.92
687.96	561.73
688.10	491.51
688.23	463.43
688.37	397.89
688.50	444.70
688.64	407.25
688.78	306.61
688.91	301.93
689.05	362.78
689.18	231.71
689.32	304.27
689.46	313.63
689.59	292.57
689.73	227.03
689.86	243.42
690.00	255.12
690.13	280.86
690.27	205.97
690.41	259.80
690.54	227.03
690.68	304.27
690.81	234.05
690.95	264.48
691.08	208.31
691.22	152.13
691.35	128.73
691.49	287.89
691.62	187.24
691.76	229.37
691.89	145.11
692.03	152.13
692.16	215.33
692.30	217.67
692.43	189.58
692.57	168.52
692.70	220.01
692.84	189.58
692.97	212.99
693.11	262.14
693.24	276.18
693.38	332.36
693.51	395.55
693.65	435.34
693.78	360.44
693.92	348.74
694.05	376.83
694.19	367.46
694.32	280.86
694.45	283.20
694.59	250.44
694.72	220.01
694.86	241.08
694.99	191.92
695.13	173.20
695.26	191.92
695.39	194.26
695.53	241.08
695.66	198.95
695.80	255.12
695.93	180.22
696.07	128.73
696.20	156.82
696.33	210.65
696.47	222.35
696.60	191.92
696.73	229.37
696.87	180.22
697.00	222.35
697.14	166.18
697.27	70.22
697.40	128.73
697.54	152.13
697.67	154.48
697.80	152.13
697.94	166.18
698.07	184.90
698.21	161.50
698.34	149.79
698.47	133.41
698.61	95.96
698.74	98.30
698.87	170.86
699.01	187.24
699.14	135.75
699.27	210.65
699.40	299.59
699.54	196.60
699.67	182.56
699.80	175.54
699.94	231.71
700.07	98.30
700.20	163.84
700.34	170.86
700.47	67.88
700.60	124.05
700.73	168.52
700.87	168.52
701.00	212.99
701.13	145.11
701.26	203.63
701.40	161.50
701.53	180.22
701.66	119.37
701.79	142.77
701.93	187.24
702.06	205.97
702.19	145.11
702.32	191.92
702.46	170.86
702.59	156.82
702.72	234.05
702.85	168.52
702.99	163.84
703.12	217.67
703.25	152.13
703.38	168.52
703.51	187.24
703.65	241.08
703.78	234.05
703.91	187.24
704.04	241.08
704.17	231.71
704.31	252.78
704.44	198.95
704.57	161.50
704.70	241.08
704.83	266.82
704.96	241.08
705.10	196.60
705.23	241.08
>>>>>End Processed Spectral Data<<<<<
