SpectraSuite Data File
++++++++++++++++++++++++++++++++++++
Date: Fri Oct 04 11:42:25 GMT-05:00 2013
User: price-jones
Dark Spectrum Present: No
Reference Spectrum Present: No
Number of Sampled Component Spectra: 1
Spectrometers: USB2+H05261
Integration Time (usec): 100000 (USB2+H05261)
Spectra Averaged: 1 (USB2+H05261)
Boxcar Smoothing: 0 (USB2+H05261)
Correct for Electrical Dark: No (USB2+H05261)
Strobe/Lamp Enabled: No (USB2+H05261)
Correct for Detector Non-linearity: No (USB2+H05261)
Correct for Stray Light: No (USB2+H05261)
Number of Pixels in Processed Spectrum: 2048
>>>>>Begin Processed Spectral Data<<<<<
365.73	65.54
365.92	65.54
366.12	65.54
366.32	0.00
366.52	0.00
366.72	0.00
366.91	0.00
367.11	9.36
367.31	0.00
367.51	0.00
367.70	0.00
367.90	0.00
368.10	0.00
368.30	0.00
368.49	0.00
368.69	0.00
368.89	0.00
369.09	0.00
369.28	0.00
369.48	0.00
369.68	9.36
369.87	0.00
370.07	0.00
370.27	4.68
370.47	30.43
370.66	0.00
370.86	0.00
371.06	67.88
371.25	128.73
371.45	44.47
371.65	100.64
371.84	147.45
372.04	74.90
372.24	28.09
372.44	128.73
372.63	72.56
372.83	112.35
373.03	110.01
373.22	166.18
373.42	11.70
373.62	163.84
373.81	91.28
374.01	121.71
374.21	98.30
374.40	110.01
374.60	121.71
374.79	128.73
374.99	196.60
375.19	102.98
375.38	145.11
375.58	121.71
375.78	152.13
375.97	175.54
376.17	177.88
376.37	107.66
376.56	98.30
376.76	175.54
376.95	72.56
377.15	149.79
377.35	86.60
377.54	124.05
377.74	126.39
377.93	72.56
378.13	142.77
378.33	100.64
378.52	67.88
378.72	161.50
378.91	175.54
379.11	121.71
379.31	98.30
379.50	51.49
379.70	184.90
379.89	91.28
380.09	126.39
380.28	156.82
380.48	98.30
380.68	147.45
380.87	124.05
381.07	65.54
381.26	117.03
381.46	126.39
381.65	110.01
381.85	187.24
382.04	86.60
382.24	88.94
382.43	102.98
382.63	93.62
382.83	107.66
383.02	161.50
383.22	152.13
383.41	91.28
383.61	44.47
383.80	102.98
384.00	91.28
384.19	142.77
384.39	37.45
384.58	133.41
384.78	102.98
384.97	140.43
385.17	88.94
385.36	70.22
385.56	77.24
385.75	93.62
385.95	131.07
386.14	112.35
386.34	86.60
386.53	53.83
386.72	60.85
386.92	156.82
387.11	154.48
387.31	100.64
387.50	112.35
387.70	67.88
387.89	154.48
388.09	110.01
388.28	65.54
388.48	79.58
388.67	95.96
388.86	107.66
389.06	77.24
389.25	72.56
389.45	60.85
389.64	121.71
389.84	131.07
390.03	140.43
390.22	229.37
390.42	152.13
390.61	88.94
390.81	102.98
391.00	152.13
391.19	217.67
391.39	140.43
391.58	147.45
391.78	42.13
391.97	140.43
392.16	79.58
392.36	95.96
392.55	131.07
392.75	135.75
392.94	67.88
393.13	135.75
393.33	102.98
393.52	112.35
393.71	98.30
393.91	119.37
394.10	67.88
394.29	84.26
394.49	56.17
394.68	105.32
394.88	161.50
395.07	107.66
395.26	163.84
395.46	114.69
395.65	124.05
395.84	84.26
396.04	170.86
396.23	124.05
396.42	180.22
396.62	65.54
396.81	107.66
397.00	145.11
397.19	72.56
397.39	140.43
397.58	128.73
397.77	93.62
397.97	98.30
398.16	72.56
398.35	114.69
398.55	128.73
398.74	170.86
398.93	121.71
399.12	149.79
399.32	124.05
399.51	100.64
399.70	70.22
399.90	133.41
400.09	156.82
400.28	212.99
400.47	159.16
400.67	119.37
400.86	65.54
401.05	184.90
401.24	170.86
401.44	170.86
401.63	140.43
401.82	257.46
402.01	88.94
402.21	100.64
402.40	121.71
402.59	189.58
402.78	124.05
402.97	140.43
403.17	135.75
403.36	215.33
403.55	180.22
403.74	301.93
403.93	868.34
404.13	1685.19
404.32	2188.40
404.51	1837.32
404.70	1100.05
404.89	444.70
405.09	252.78
405.28	166.18
405.47	95.96
405.66	173.20
405.85	128.73
406.05	149.79
406.24	152.13
406.43	112.35
406.62	175.54
406.81	149.79
407.00	215.33
407.20	252.78
407.39	458.74
407.58	390.87
407.77	297.25
407.96	203.63
408.15	215.33
408.34	79.58
408.54	138.09
408.73	124.05
408.92	175.54
409.11	128.73
409.30	98.30
409.49	95.96
409.68	135.75
409.87	177.88
410.07	126.39
410.26	145.11
410.45	149.79
410.64	35.11
410.83	100.64
411.02	140.43
411.21	168.52
411.40	180.22
411.59	166.18
411.78	154.48
411.98	175.54
412.17	131.07
412.36	112.35
412.55	117.03
412.74	161.50
412.93	248.10
413.12	112.35
413.31	140.43
413.50	168.52
413.69	140.43
413.88	182.56
414.07	208.31
414.26	124.05
414.45	135.75
414.64	170.86
414.83	154.48
415.02	140.43
415.22	159.16
415.41	203.63
415.60	170.86
415.79	203.63
415.98	205.97
416.17	156.82
416.36	191.92
416.55	170.86
416.74	156.82
416.93	215.33
417.12	198.95
417.31	175.54
417.50	119.37
417.69	224.69
417.88	231.71
418.07	243.42
418.26	140.43
418.45	212.99
418.64	238.73
418.83	147.45
419.02	184.90
419.21	114.69
419.39	187.24
419.58	189.58
419.77	154.48
419.96	220.01
420.15	224.69
420.34	159.16
420.53	201.29
420.72	131.07
420.91	163.84
421.10	177.88
421.29	189.58
421.48	117.03
421.67	166.18
421.86	166.18
422.05	152.13
422.24	140.43
422.43	217.67
422.61	152.13
422.80	126.39
422.99	205.97
423.18	189.58
423.37	126.39
423.56	215.33
423.75	196.60
423.94	84.26
424.13	180.22
424.32	112.35
424.50	156.82
424.69	133.41
424.88	227.03
425.07	194.26
425.26	140.43
425.45	140.43
425.64	81.92
425.83	107.66
426.01	198.95
426.20	154.48
426.39	217.67
426.58	112.35
426.77	196.60
426.96	205.97
427.15	184.90
427.33	175.54
427.52	182.56
427.71	170.86
427.90	191.92
428.09	210.65
428.28	283.20
428.46	182.56
428.65	201.29
428.84	257.46
429.03	243.42
429.22	255.12
429.40	170.86
429.59	212.99
429.78	276.18
429.97	238.73
430.16	210.65
430.34	227.03
430.53	166.18
430.72	215.33
430.91	177.88
431.10	189.58
431.28	210.65
431.47	252.78
431.66	210.65
431.85	205.97
432.03	131.07
432.22	227.03
432.41	266.82
432.60	322.99
432.79	210.65
432.97	210.65
433.16	248.10
433.35	241.08
433.54	212.99
433.72	273.84
433.91	334.70
434.10	308.95
434.28	287.89
434.47	372.15
434.66	435.34
434.85	444.70
435.03	1156.22
435.22	4007.00
435.41	8074.85
435.59	7978.89
435.78	5392.59
435.97	2668.21
436.16	1123.46
436.34	475.13
436.53	304.27
436.72	348.74
436.90	297.25
437.09	360.44
437.28	245.76
437.46	220.01
437.65	245.76
437.84	187.24
438.02	196.60
438.21	290.23
438.40	210.65
438.58	212.99
438.77	271.50
438.96	201.29
439.14	243.42
439.33	234.05
439.52	236.39
439.70	198.95
439.89	285.55
440.08	252.78
440.26	212.99
440.45	306.61
440.63	238.73
440.82	191.92
441.01	208.31
441.19	255.12
441.38	208.31
441.57	276.18
441.75	273.84
441.94	238.73
442.12	255.12
442.31	217.67
442.50	273.84
442.68	278.52
442.87	278.52
443.05	210.65
443.24	217.67
443.43	231.71
443.61	266.82
443.80	287.89
443.98	285.55
444.17	198.95
444.35	269.16
444.54	222.35
444.73	203.63
444.91	313.63
445.10	217.67
445.28	189.58
445.47	229.37
445.65	215.33
445.84	250.44
446.02	238.73
446.21	252.78
446.39	241.08
446.58	229.37
446.77	220.01
446.95	283.20
447.14	205.97
447.32	276.18
447.51	269.16
447.69	365.12
447.88	217.67
448.06	334.70
448.25	271.50
448.43	180.22
448.62	236.39
448.80	262.14
448.99	278.52
449.17	276.18
449.36	231.71
449.54	212.99
449.73	184.90
449.91	266.82
450.10	264.48
450.28	318.31
450.46	315.97
450.65	255.12
450.83	217.67
451.02	276.18
451.20	252.78
451.39	283.20
451.57	297.25
451.76	236.39
451.94	318.31
452.13	217.67
452.31	273.84
452.49	278.52
452.68	273.84
452.86	234.05
453.05	196.60
453.23	203.63
453.42	210.65
453.60	189.58
453.78	201.29
453.97	217.67
454.15	290.23
454.34	180.22
454.52	257.46
454.70	290.23
454.89	266.82
455.07	238.73
455.26	315.97
455.44	245.76
455.62	308.95
455.81	217.67
455.99	273.84
456.17	203.63
456.36	306.61
456.54	269.16
456.73	236.39
456.91	229.37
457.09	255.12
457.28	262.14
457.46	320.65
457.64	250.44
457.83	252.78
458.01	234.05
458.19	227.03
458.38	205.97
458.56	266.82
458.74	234.05
458.93	248.10
459.11	285.55
459.29	266.82
459.48	297.25
459.66	320.65
459.84	217.67
460.03	330.02
460.21	266.82
460.39	212.99
460.57	243.42
460.76	224.69
460.94	222.35
461.12	283.20
461.31	304.27
461.49	222.35
461.67	285.55
461.85	210.65
462.04	241.08
462.22	372.15
462.40	271.50
462.59	231.71
462.77	182.56
462.95	269.16
463.13	145.11
463.32	294.91
463.50	259.80
463.68	222.35
463.86	163.84
464.05	252.78
464.23	224.69
464.41	266.82
464.59	212.99
464.78	201.29
464.96	238.73
465.14	243.42
465.32	159.16
465.50	315.97
465.69	231.71
465.87	273.84
466.05	210.65
466.23	255.12
466.41	238.73
466.60	236.39
466.78	250.44
466.96	294.91
467.14	290.23
467.32	208.31
467.51	198.95
467.69	278.52
467.87	285.55
468.05	182.56
468.23	248.10
468.41	208.31
468.60	245.76
468.78	222.35
468.96	217.67
469.14	215.33
469.32	156.82
469.50	245.76
469.69	229.37
469.87	203.63
470.05	245.76
470.23	273.84
470.41	152.13
470.59	217.67
470.77	248.10
470.95	227.03
471.14	299.59
471.32	266.82
471.50	196.60
471.68	205.97
471.86	217.67
472.04	222.35
472.22	177.88
472.40	241.08
472.58	198.95
472.77	245.76
472.95	236.39
473.13	248.10
473.31	203.63
473.49	290.23
473.67	231.71
473.85	215.33
474.03	238.73
474.21	154.48
474.39	262.14
474.57	341.72
474.75	220.01
474.93	220.01
475.12	189.58
475.30	222.35
475.48	215.33
475.66	299.59
475.84	259.80
476.02	264.48
476.20	212.99
476.38	248.10
476.56	280.86
476.74	271.50
476.92	264.48
477.10	140.43
477.28	210.65
477.46	252.78
477.64	229.37
477.82	182.56
478.00	299.59
478.18	294.91
478.36	243.42
478.54	248.10
478.72	318.31
478.90	299.59
479.08	245.76
479.26	245.76
479.44	203.63
479.62	224.69
479.80	273.84
479.98	285.55
480.16	245.76
480.34	339.38
480.52	365.12
480.70	322.99
480.88	269.16
481.06	276.18
481.24	369.80
481.41	264.48
481.59	374.49
481.77	390.87
481.95	369.80
482.13	376.83
482.31	409.59
482.49	461.09
482.67	489.17
482.85	472.79
483.03	547.69
483.21	545.34
483.39	472.79
483.57	624.92
483.74	653.01
483.92	592.16
484.10	667.05
484.28	727.91
484.46	800.46
484.64	807.48
484.82	821.53
485.00	924.51
485.18	905.79
485.35	952.60
485.53	1008.77
485.71	1006.43
485.89	1020.47
486.07	1018.13
486.25	1074.31
486.43	1196.01
486.61	1160.91
486.78	1074.31
486.96	1125.80
487.14	1198.35
487.32	1137.50
487.50	1200.69
487.68	1256.87
487.85	1036.86
488.03	1076.65
488.21	1135.16
488.39	1118.78
488.57	1167.93
488.75	1104.73
488.92	1369.21
489.10	1132.82
489.28	1146.86
489.46	1090.69
489.64	1095.37
489.81	961.96
489.99	1090.69
490.17	1039.20
490.35	1149.20
490.53	959.62
490.70	985.37
490.88	1069.62
491.06	1039.20
491.24	1053.24
491.41	1046.22
491.59	1062.60
491.77	992.39
491.95	961.96
492.13	990.05
492.30	1006.43
492.48	901.11
492.66	924.51
492.84	851.96
493.01	877.70
493.19	816.85
493.37	858.98
493.54	903.45
493.72	816.85
493.90	898.77
494.08	917.49
494.25	821.53
494.43	737.27
494.61	786.42
494.79	730.25
494.96	755.99
495.14	805.14
495.32	716.20
495.49	744.29
495.67	748.97
495.85	732.59
496.02	744.29
496.20	692.80
496.38	802.80
496.55	732.59
496.73	671.73
496.91	713.86
497.09	800.46
497.26	683.44
497.44	620.24
497.62	622.58
497.79	650.67
497.97	676.41
498.14	681.10
498.32	608.54
498.50	594.50
498.67	615.56
498.85	589.82
499.03	503.22
499.20	489.17
499.38	526.62
499.56	491.51
499.73	575.77
499.91	554.71
500.08	482.15
500.26	465.77
500.44	418.96
500.61	491.51
500.79	402.57
500.97	456.40
501.14	472.79
501.32	416.62
501.49	379.17
501.67	332.36
501.84	318.31
502.02	306.61
502.20	383.85
502.37	447.04
502.55	264.48
502.72	301.93
502.90	355.76
503.07	344.06
503.25	278.52
503.43	348.74
503.60	332.36
503.78	273.84
503.95	250.44
504.13	285.55
504.30	304.27
504.48	299.59
504.65	372.15
504.83	337.04
505.01	234.05
505.18	273.84
505.36	243.42
505.53	297.25
505.71	287.89
505.88	259.80
506.06	327.68
506.23	273.84
506.41	290.23
506.58	264.48
506.76	255.12
506.93	304.27
507.11	325.33
507.28	278.52
507.46	245.76
507.63	257.46
507.81	250.44
507.98	241.08
508.16	283.20
508.33	348.74
508.50	271.50
508.68	224.69
508.85	285.55
509.03	327.68
509.20	311.29
509.38	266.82
509.55	248.10
509.73	294.91
509.90	330.02
510.08	205.97
510.25	220.01
510.42	271.50
510.60	341.72
510.77	390.87
510.95	255.12
511.12	292.57
511.30	269.16
511.47	259.80
511.64	353.42
511.82	215.33
511.99	351.08
512.17	278.52
512.34	248.10
512.51	278.52
512.69	271.50
512.86	238.73
513.04	198.95
513.21	306.61
513.38	205.97
513.56	266.82
513.73	283.20
513.90	269.16
514.08	271.50
514.25	285.55
514.43	322.99
514.60	315.97
514.77	245.76
514.95	276.18
515.12	166.18
515.29	264.48
515.47	264.48
515.64	311.29
515.81	299.59
515.99	327.68
516.16	257.46
516.33	306.61
516.51	283.20
516.68	379.17
516.85	262.14
517.03	250.44
517.20	308.95
517.37	297.25
517.54	301.93
517.72	205.97
517.89	248.10
518.06	147.45
518.24	355.76
518.41	271.50
518.58	299.59
518.75	287.89
518.93	276.18
519.10	278.52
519.27	215.33
519.45	269.16
519.62	201.29
519.79	290.23
519.96	203.63
520.14	353.42
520.31	292.57
520.48	292.57
520.65	271.50
520.83	299.59
521.00	304.27
521.17	330.02
521.34	304.27
521.52	236.39
521.69	243.42
521.86	290.23
522.03	259.80
522.20	264.48
522.38	220.01
522.55	231.71
522.72	149.79
522.89	255.12
523.07	301.93
523.24	297.25
523.41	250.44
523.58	243.42
523.75	250.44
523.92	311.29
524.10	269.16
524.27	259.80
524.44	215.33
524.61	231.71
524.78	278.52
524.96	215.33
525.13	210.65
525.30	299.59
525.47	294.91
525.64	313.63
525.81	222.35
525.98	276.18
526.16	255.12
526.33	194.26
526.50	243.42
526.67	227.03
526.84	220.01
527.01	269.16
527.18	241.08
527.36	353.42
527.53	301.93
527.70	304.27
527.87	201.29
528.04	285.55
528.21	292.57
528.38	194.26
528.55	271.50
528.72	395.55
528.89	294.91
529.07	222.35
529.24	330.02
529.41	322.99
529.58	311.29
529.75	234.05
529.92	304.27
530.09	341.72
530.26	341.72
530.43	278.52
530.60	386.19
530.77	266.82
530.94	355.76
531.11	339.38
531.28	278.52
531.46	262.14
531.63	348.74
531.80	339.38
531.97	402.57
532.14	322.99
532.31	404.91
532.48	351.08
532.65	442.36
532.82	519.60
532.99	524.28
533.16	603.86
533.33	610.88
533.50	669.39
533.67	559.39
533.84	472.79
534.01	442.36
534.18	433.00
534.35	411.93
534.52	374.49
534.69	503.22
534.86	423.64
535.03	479.81
535.20	498.53
535.37	489.17
535.54	592.16
535.71	543.00
535.88	571.09
536.05	578.11
536.22	631.94
536.38	596.84
536.55	648.33
536.72	620.24
536.89	690.46
537.06	798.12
537.23	793.44
537.40	882.38
537.57	931.53
537.74	1097.71
537.91	1151.54
538.08	1163.25
538.25	1299.00
538.42	1313.04
538.59	1380.92
538.75	1437.09
538.92	1434.75
539.09	1579.86
539.26	1535.39
539.43	1809.23
539.60	1994.14
539.77	2125.21
539.94	2455.22
540.11	2525.44
540.28	2813.32
540.44	2918.65
540.61	3131.64
540.78	3389.10
540.95	3946.14
541.12	4624.90
541.29	5282.59
541.46	5664.10
541.62	6200.08
541.79	6822.66
541.96	7218.21
542.13	7536.52
542.30	7297.79
542.47	7396.09
542.63	7363.33
542.80	7267.36
542.97	7309.49
543.14	7417.16
543.31	7377.37
543.48	7304.81
543.64	7391.41
543.81	7431.20
543.98	7033.31
544.15	6832.02
544.32	6895.22
544.48	6590.95
544.65	6544.14
544.82	6069.01
544.99	5940.28
545.16	5816.23
545.32	5919.21
545.49	9399.59
545.66	15836.06
545.83	19012.17
546.00	15749.46
546.16	10417.72
546.33	7332.90
546.50	5270.89
546.67	3915.72
546.83	3442.93
547.00	3241.64
547.17	3033.33
547.34	2764.17
547.50	2864.82
547.67	2717.36
547.84	2635.44
548.00	2656.51
548.17	2595.65
548.34	2677.57
548.51	2761.83
548.67	2759.49
548.84	2782.90
549.01	2689.28
549.18	2651.83
549.34	2635.44
549.51	2534.80
549.68	2270.32
549.84	2143.93
550.01	2069.03
550.18	2165.00
550.34	2099.46
550.51	1856.04
550.68	1956.69
550.84	1905.20
551.01	1732.00
551.18	1757.74
551.34	1710.93
551.51	1671.14
551.68	1682.85
551.84	1736.68
552.01	1586.88
552.18	1547.09
552.34	1500.28
552.51	1439.43
552.68	1413.68
552.84	1420.71
553.01	1294.32
553.18	1357.51
553.34	1118.78
553.51	1088.35
553.67	1015.79
553.84	999.41
554.01	952.60
554.17	819.19
554.34	814.51
554.51	751.31
554.67	798.12
554.84	624.92
555.00	608.54
555.17	688.12
555.33	634.29
555.50	543.00
555.67	526.62
555.83	596.84
556.00	451.72
556.16	603.86
556.33	369.80
556.50	470.45
556.66	477.47
556.83	397.89
556.99	402.57
557.16	461.09
557.32	442.36
557.49	430.66
557.65	353.42
557.82	463.43
557.98	496.19
558.15	442.36
558.32	285.55
558.48	442.36
558.65	458.74
558.81	330.02
558.98	346.40
559.14	327.68
559.31	372.15
559.47	351.08
559.64	330.02
559.80	388.53
559.97	369.80
560.13	334.70
560.30	379.17
560.46	374.49
560.63	318.31
560.79	327.68
560.96	306.61
561.12	367.46
561.29	351.08
561.45	348.74
561.61	351.08
561.78	463.43
561.94	276.18
562.11	358.10
562.27	320.65
562.44	358.10
562.60	374.49
562.77	360.44
562.93	360.44
563.10	322.99
563.26	376.83
563.42	365.12
563.59	390.87
563.75	299.59
563.92	320.65
564.08	395.55
564.24	322.99
564.41	360.44
564.57	283.20
564.74	287.89
564.90	266.82
565.07	301.93
565.23	292.57
565.39	271.50
565.56	276.18
565.72	269.16
565.88	294.91
566.05	327.68
566.21	227.03
566.38	318.31
566.54	341.72
566.70	243.42
566.87	348.74
567.03	234.05
567.19	330.02
567.36	290.23
567.52	287.89
567.68	297.25
567.85	386.19
568.01	278.52
568.17	245.76
568.34	315.97
568.50	337.04
568.66	292.57
568.83	390.87
568.99	280.86
569.15	339.38
569.32	327.68
569.48	280.86
569.64	299.59
569.81	271.50
569.97	243.42
570.13	236.39
570.30	360.44
570.46	271.50
570.62	271.50
570.78	262.14
570.95	250.44
571.11	304.27
571.27	374.49
571.43	257.46
571.60	285.55
571.76	341.72
571.92	257.46
572.09	259.80
572.25	311.29
572.41	308.95
572.57	224.69
572.74	315.97
572.90	325.33
573.06	351.08
573.22	362.78
573.38	362.78
573.55	360.44
573.71	374.49
573.87	376.83
574.03	269.16
574.20	351.08
574.36	388.53
574.52	358.10
574.68	351.08
574.84	376.83
575.01	330.02
575.17	475.13
575.33	327.68
575.49	418.96
575.65	468.11
575.82	393.21
575.98	479.81
576.14	463.43
576.30	760.67
576.46	1884.13
576.62	3045.04
576.79	3178.45
576.95	2345.22
577.11	1579.86
577.27	1114.10
577.43	931.53
577.59	629.60
577.75	458.74
577.92	514.92
578.08	489.17
578.24	545.34
578.40	753.65
578.56	1984.77
578.72	2869.50
578.88	3297.81
579.04	2438.84
579.21	1750.72
579.37	1413.68
579.53	1282.61
579.69	1231.12
579.85	1451.13
580.01	1544.75
580.17	1535.39
580.33	1378.58
580.49	1238.14
580.65	1095.37
580.82	997.07
580.98	1067.28
581.14	990.05
581.30	1015.79
581.46	1069.62
581.62	1121.12
581.78	1191.33
581.94	1259.21
582.10	1284.95
582.26	1322.40
582.42	1355.17
582.58	1404.32
582.74	1544.75
582.90	1497.94
583.06	1664.12
583.22	1666.46
583.38	1661.78
583.54	1703.91
583.70	1696.89
583.86	1600.93
584.02	1652.42
584.18	1577.52
584.34	1542.41
584.50	1511.99
584.66	1451.13
584.82	1423.05
584.98	1303.68
585.14	1366.87
585.30	1268.57
585.46	1299.00
585.62	1303.68
585.78	1343.47
585.94	1376.24
586.10	1355.17
586.26	1404.32
586.42	1437.09
586.58	1753.06
586.74	2024.56
586.90	2485.65
587.06	2693.96
587.22	2654.17
587.38	2567.57
587.54	2169.68
587.70	1940.30
587.86	1867.75
588.02	1596.25
588.18	1509.65
588.34	1401.98
588.49	1259.21
588.65	1210.06
588.81	1151.54
588.97	1020.47
589.13	1114.10
589.29	1062.60
589.45	1224.10
589.61	1160.91
589.77	1114.10
589.93	1046.22
590.08	1011.11
590.24	1086.01
590.40	1039.20
590.56	1067.28
590.72	1095.37
590.88	1011.11
591.04	1041.54
591.20	992.39
591.35	1090.69
591.51	1102.39
591.67	1053.24
591.83	1102.39
591.99	1254.53
592.15	1254.53
592.31	1432.41
592.46	1397.30
592.62	1605.61
592.78	1551.78
592.94	1673.48
593.10	1647.74
593.26	1603.27
593.41	1474.54
593.57	1259.21
593.73	1086.01
593.89	1025.15
594.05	1015.79
594.20	854.30
594.36	861.32
594.52	718.54
594.68	676.41
594.84	746.63
594.99	599.18
595.15	692.80
595.31	699.82
595.47	697.48
595.62	645.99
595.78	676.41
595.94	631.94
596.10	627.26
596.25	650.67
596.41	610.88
596.57	620.24
596.73	624.92
596.88	578.11
597.04	657.69
597.20	716.20
597.36	676.41
597.51	650.67
597.67	734.93
597.83	779.40
597.99	763.01
598.14	884.72
598.30	858.98
598.46	823.87
598.61	976.00
598.77	1020.47
598.93	1074.31
599.09	936.21
599.24	1067.28
599.40	1088.35
599.56	1081.33
599.71	985.37
599.87	966.64
600.03	896.43
600.18	858.98
600.34	777.06
600.50	716.20
600.65	725.57
600.81	667.05
600.97	636.63
601.12	599.18
601.28	575.77
601.44	554.71
601.59	550.03
601.75	540.66
601.91	463.43
602.06	507.90
602.22	566.41
602.37	538.32
602.53	444.70
602.69	550.03
602.84	454.06
603.00	425.98
603.16	484.49
603.31	566.41
603.47	507.90
603.62	505.56
603.78	517.26
603.94	547.69
604.09	521.94
604.25	561.73
604.40	531.30
604.56	564.07
604.71	545.34
604.87	571.09
605.03	564.07
605.18	566.41
605.34	667.05
605.49	648.33
605.65	564.07
605.80	519.60
605.96	692.80
606.12	650.67
606.27	676.41
606.43	617.90
606.58	739.61
606.74	720.88
606.89	741.95
607.05	727.91
607.20	718.54
607.36	833.23
607.51	880.04
607.67	873.02
607.82	933.87
607.98	1086.01
608.13	1181.97
608.29	1217.08
608.44	1249.85
608.60	1401.98
608.75	1486.24
608.91	1666.46
609.06	1790.51
609.22	1949.67
609.37	2122.87
609.53	2319.47
609.68	2670.55
609.84	2998.23
609.99	3424.20
610.15	4109.98
610.30	5163.22
610.46	6712.66
610.61	8603.81
610.76	11103.50
610.92	13659.37
611.07	15304.76
611.23	15304.76
611.38	14104.07
611.54	12608.47
611.69	10546.45
611.84	8695.09
612.00	7253.32
612.15	6106.46
612.31	5500.26
612.46	4762.99
612.62	4381.48
612.77	4346.37
612.92	4044.45
613.08	3936.78
613.23	3688.68
613.39	3428.88
613.54	3323.56
613.69	3286.11
613.85	3293.13
614.00	3412.50
614.15	3412.50
614.31	3190.15
614.46	3234.62
614.62	2988.86
614.77	2860.13
614.92	2691.62
615.08	2581.61
615.23	2452.88
615.38	2277.34
615.54	2108.82
615.69	1844.34
615.84	1823.28
616.00	1561.14
616.15	1654.76
616.30	1516.67
616.46	1425.39
616.61	1352.83
616.76	1275.59
616.92	1301.34
617.07	1308.36
617.22	1170.27
617.37	1142.18
617.53	1219.42
617.68	1057.92
617.83	1123.46
617.99	1055.58
618.14	1071.97
618.29	1053.24
618.45	1043.88
618.60	1172.61
618.75	1083.67
618.90	1036.86
619.06	1137.50
619.21	1165.59
619.36	1207.72
619.51	1165.59
619.67	1174.95
619.82	1188.99
619.97	1181.97
620.12	1210.06
620.28	1256.87
620.43	1170.27
620.58	1277.93
620.73	1181.97
620.89	1177.29
621.04	1200.69
621.19	1221.76
621.34	1137.50
621.49	1196.01
621.65	1226.44
621.80	992.39
621.95	1135.16
622.10	1142.18
622.25	1123.46
622.41	1029.84
622.56	1034.52
622.71	1025.15
622.86	1036.86
623.01	983.02
623.16	1109.41
623.32	1015.79
623.47	968.98
623.62	922.17
623.77	973.66
623.92	968.98
624.07	959.62
624.23	999.41
624.38	957.28
624.53	1029.84
624.68	844.93
624.83	912.81
624.98	922.17
625.13	849.61
625.29	847.27
625.44	940.90
625.59	924.51
625.74	901.11
625.89	866.00
626.04	812.17
626.19	854.30
626.34	830.89
626.49	870.68
626.65	854.30
626.80	765.36
626.95	880.04
627.10	699.82
627.25	786.42
627.40	770.04
627.55	767.70
627.70	772.38
627.85	812.17
628.00	781.74
628.15	828.55
628.30	826.21
628.45	779.40
628.60	774.72
628.76	826.21
628.91	898.77
629.06	830.89
629.21	821.53
629.36	912.81
629.51	910.47
629.66	959.62
629.81	1067.28
629.96	1078.99
630.11	1153.88
630.26	1224.10
630.41	1458.15
630.56	1542.41
630.71	1659.44
630.86	1799.87
631.01	1629.01
631.16	1617.31
631.31	1401.98
631.46	1174.95
631.61	1088.35
631.76	901.11
631.91	739.61
632.06	587.47
632.21	613.22
632.36	578.11
632.51	496.19
632.66	437.68
632.81	444.70
632.96	428.32
633.10	404.91
633.25	416.62
633.40	393.21
633.55	402.57
633.70	388.53
633.85	390.87
634.00	315.97
634.15	362.78
634.30	383.85
634.45	294.91
634.60	383.85
634.75	311.29
634.90	339.38
635.05	330.02
635.19	348.74
635.34	367.46
635.49	402.57
635.64	278.52
635.79	273.84
635.94	348.74
636.09	348.74
636.24	299.59
636.39	344.06
636.53	367.46
636.68	243.42
636.83	273.84
636.98	315.97
637.13	334.70
637.28	287.89
637.43	285.55
637.57	311.29
637.72	304.27
637.87	327.68
638.02	266.82
638.17	152.13
638.32	332.36
638.46	259.80
638.61	311.29
638.76	271.50
638.91	344.06
639.06	276.18
639.20	271.50
639.35	313.63
639.50	320.65
639.65	351.08
639.80	283.20
639.94	243.42
640.09	304.27
640.24	393.21
640.39	245.76
640.54	283.20
640.68	283.20
640.83	297.25
640.98	257.46
641.13	351.08
641.27	271.50
641.42	297.25
641.57	250.44
641.72	180.22
641.86	287.89
642.01	280.86
642.16	266.82
642.31	285.55
642.45	301.93
642.60	266.82
642.75	266.82
642.90	339.38
643.04	177.88
643.19	264.48
643.34	306.61
643.48	224.69
643.63	294.91
643.78	299.59
643.93	400.23
644.07	262.14
644.22	215.33
644.37	278.52
644.51	308.95
644.66	327.68
644.81	266.82
644.95	304.27
645.10	311.29
645.25	271.50
645.39	320.65
645.54	276.18
645.69	318.31
645.83	243.42
645.98	285.55
646.13	252.78
646.27	299.59
646.42	210.65
646.57	208.31
646.71	252.78
646.86	217.67
647.00	266.82
647.15	322.99
647.30	147.45
647.44	217.67
647.59	259.80
647.74	320.65
647.88	292.57
648.03	229.37
648.17	126.39
648.32	212.99
648.47	292.57
648.61	299.59
648.76	245.76
648.90	287.89
649.05	301.93
649.20	269.16
649.34	360.44
649.49	318.31
649.63	353.42
649.78	425.98
649.92	468.11
650.07	489.17
650.21	582.79
650.36	681.10
650.51	510.24
650.65	603.86
650.80	519.60
650.94	423.64
651.09	407.25
651.23	367.46
651.38	400.23
651.52	322.99
651.67	273.84
651.81	299.59
651.96	346.40
652.10	339.38
652.25	283.20
652.39	271.50
652.54	325.33
652.68	332.36
652.83	374.49
652.97	344.06
653.12	318.31
653.26	318.31
653.41	386.19
653.55	341.72
653.70	294.91
653.84	351.08
653.99	196.60
654.13	248.10
654.27	220.01
654.42	238.73
654.56	271.50
654.71	250.44
654.85	224.69
655.00	248.10
655.14	180.22
655.29	212.99
655.43	222.35
655.57	215.33
655.72	224.69
655.86	283.20
656.01	210.65
656.15	227.03
656.30	266.82
656.44	208.31
656.58	124.05
656.73	266.82
656.87	234.05
657.01	297.25
657.16	306.61
657.30	234.05
657.45	248.10
657.59	306.61
657.73	210.65
657.88	299.59
658.02	252.78
658.16	250.44
658.31	212.99
658.45	271.50
658.60	182.56
658.74	217.67
658.88	273.84
659.03	196.60
659.17	215.33
659.31	173.20
659.46	168.52
659.60	250.44
659.74	227.03
659.89	140.43
660.03	175.54
660.17	238.73
660.32	182.56
660.46	191.92
660.60	243.42
660.74	210.65
660.89	205.97
661.03	238.73
661.17	163.84
661.32	184.90
661.46	210.65
661.60	224.69
661.74	273.84
661.89	313.63
662.03	318.31
662.17	416.62
662.31	383.85
662.46	381.51
662.60	322.99
662.74	337.04
662.88	330.02
663.03	341.72
663.17	301.93
663.31	255.12
663.45	215.33
663.60	257.46
663.74	191.92
663.88	217.67
664.02	217.67
664.17	210.65
664.31	231.71
664.45	168.52
664.59	259.80
664.73	161.50
664.88	210.65
665.02	191.92
665.16	285.55
665.30	227.03
665.44	294.91
665.59	217.67
665.73	189.58
665.87	189.58
666.01	215.33
666.15	222.35
666.29	117.03
666.44	311.29
666.58	292.57
666.72	227.03
666.86	173.20
667.00	262.14
667.14	227.03
667.28	257.46
667.43	238.73
667.57	255.12
667.71	252.78
667.85	145.11
667.99	280.86
668.13	241.08
668.27	257.46
668.41	278.52
668.56	234.05
668.70	334.70
668.84	166.18
668.98	177.88
669.12	203.63
669.26	257.46
669.40	208.31
669.54	194.26
669.68	208.31
669.82	180.22
669.96	212.99
670.10	163.84
670.25	262.14
670.39	198.95
670.53	198.95
670.67	294.91
670.81	161.50
670.95	264.48
671.09	205.97
671.23	224.69
671.37	210.65
671.51	173.20
671.65	243.42
671.79	208.31
671.93	236.39
672.07	257.46
672.21	196.60
672.35	201.29
672.49	255.12
672.63	159.16
672.77	138.09
672.91	191.92
673.05	140.43
673.19	170.86
673.33	152.13
673.47	243.42
673.61	147.45
673.75	210.65
673.89	114.69
674.03	168.52
674.17	166.18
674.31	227.03
674.45	215.33
674.59	191.92
674.73	177.88
674.87	180.22
675.01	220.01
675.15	175.54
675.29	238.73
675.43	189.58
675.56	215.33
675.70	205.97
675.84	187.24
675.98	140.43
676.12	189.58
676.26	170.86
676.40	177.88
676.54	154.48
676.68	234.05
676.82	152.13
676.96	182.56
677.10	145.11
677.23	184.90
677.37	196.60
677.51	196.60
677.65	320.65
677.79	184.90
677.93	91.28
678.07	152.13
678.21	203.63
678.34	236.39
678.48	140.43
678.62	215.33
678.76	177.88
678.90	231.71
679.04	194.26
679.18	170.86
679.31	154.48
679.45	182.56
679.59	222.35
679.73	220.01
679.87	180.22
680.00	184.90
680.14	184.90
680.28	142.77
680.42	175.54
680.56	212.99
680.70	168.52
680.83	264.48
680.97	161.50
681.11	133.41
681.25	229.37
681.39	220.01
681.52	222.35
681.66	170.86
681.80	191.92
681.94	191.92
682.07	105.32
682.21	175.54
682.35	182.56
682.49	168.52
682.62	217.67
682.76	198.95
682.90	154.48
683.04	212.99
683.17	138.09
683.31	152.13
683.45	203.63
683.59	212.99
683.72	191.92
683.86	187.24
684.00	102.98
684.13	210.65
684.27	196.60
684.41	187.24
684.55	189.58
684.68	131.07
684.82	166.18
684.96	201.29
685.09	140.43
685.23	145.11
685.37	191.92
685.50	241.08
685.64	163.84
685.78	182.56
685.91	177.88
686.05	266.82
686.19	203.63
686.32	175.54
686.46	198.95
686.60	145.11
686.73	262.14
686.87	220.01
687.01	156.82
687.14	220.01
687.28	292.57
687.42	255.12
687.55	285.55
687.69	194.26
687.82	222.35
687.96	168.52
688.10	287.89
688.23	248.10
688.37	304.27
688.50	220.01
688.64	210.65
688.78	147.45
688.91	152.13
689.05	198.95
689.18	149.79
689.32	194.26
689.46	140.43
689.59	191.92
689.73	250.44
689.86	145.11
690.00	217.67
690.13	102.98
690.27	161.50
690.41	182.56
690.54	152.13
690.68	187.24
690.81	198.95
690.95	166.18
691.08	112.35
691.22	58.51
691.35	131.07
691.49	102.98
691.62	177.88
691.76	128.73
691.89	145.11
692.03	117.03
692.16	114.69
692.30	166.18
692.43	112.35
692.57	149.79
692.70	173.20
692.84	191.92
692.97	205.97
693.11	205.97
693.24	201.29
693.38	177.88
693.51	224.69
693.65	196.60
693.78	163.84
693.92	205.97
694.05	245.76
694.19	220.01
694.32	220.01
694.45	210.65
694.59	133.41
694.72	100.64
694.86	138.09
694.99	252.78
695.13	145.11
695.26	124.05
695.39	138.09
695.53	191.92
695.66	138.09
695.80	126.39
695.93	79.58
696.07	72.56
696.20	152.13
696.33	163.84
696.47	128.73
696.60	212.99
696.73	161.50
696.87	154.48
697.00	138.09
697.14	182.56
697.27	161.50
697.40	135.75
697.54	140.43
697.67	133.41
697.80	161.50
697.94	81.92
698.07	180.22
698.21	124.05
698.34	131.07
698.47	131.07
698.61	119.37
698.74	175.54
698.87	60.85
699.01	166.18
699.14	154.48
699.27	229.37
699.40	243.42
699.54	152.13
699.67	135.75
699.80	126.39
699.94	121.71
700.07	238.73
700.20	215.33
700.34	177.88
700.47	112.35
700.60	145.11
700.73	74.90
700.87	170.86
701.00	131.07
701.13	224.69
701.26	140.43
701.40	138.09
701.53	238.73
701.66	156.82
701.79	177.88
701.93	124.05
702.06	163.84
702.19	107.66
702.32	142.77
702.46	126.39
702.59	149.79
702.72	39.79
702.85	79.58
702.99	114.69
703.12	149.79
703.25	142.77
703.38	110.01
703.51	234.05
703.65	147.45
703.78	131.07
703.91	128.73
704.04	142.77
704.17	156.82
704.31	161.50
704.44	145.11
704.57	194.26
704.70	142.77
704.83	95.96
704.96	168.52
705.10	175.54
705.23	149.79
>>>>>End Processed Spectral Data<<<<<
