SpectraSuite Data File
++++++++++++++++++++++++++++++++++++
Date: Fri Oct 04 11:41:51 GMT-05:00 2013
User: price-jones
Dark Spectrum Present: No
Reference Spectrum Present: No
Number of Sampled Component Spectra: 1
Spectrometers: USB2+H05261
Integration Time (usec): 100000 (USB2+H05261)
Spectra Averaged: 1 (USB2+H05261)
Boxcar Smoothing: 0 (USB2+H05261)
Correct for Electrical Dark: No (USB2+H05261)
Strobe/Lamp Enabled: No (USB2+H05261)
Correct for Detector Non-linearity: No (USB2+H05261)
Correct for Stray Light: No (USB2+H05261)
Number of Pixels in Processed Spectrum: 2048
>>>>>Begin Processed Spectral Data<<<<<
365.73	9.36
365.92	9.36
366.12	9.36
366.32	0.00
366.52	0.00
366.72	18.72
366.91	0.00
367.11	0.00
367.31	0.00
367.51	0.00
367.70	0.00
367.90	0.00
368.10	0.00
368.30	0.00
368.49	0.00
368.69	0.00
368.89	0.00
369.09	0.00
369.28	0.00
369.48	0.00
369.68	63.19
369.87	21.06
370.07	0.00
370.27	32.77
370.47	0.00
370.66	0.00
370.86	35.11
371.06	60.85
371.25	72.56
371.45	105.32
371.65	110.01
371.84	98.30
372.04	131.07
372.24	112.35
372.44	93.62
372.63	86.60
372.83	147.45
373.03	135.75
373.22	81.92
373.42	203.63
373.62	124.05
373.81	182.56
374.01	105.32
374.21	110.01
374.40	257.46
374.60	126.39
374.79	156.82
374.99	91.28
375.19	208.31
375.38	133.41
375.58	152.13
375.78	128.73
375.97	105.32
376.17	163.84
376.37	110.01
376.56	154.48
376.76	77.24
376.95	124.05
377.15	145.11
377.35	131.07
377.54	121.71
377.74	98.30
377.93	93.62
378.13	142.77
378.33	154.48
378.52	84.26
378.72	142.77
378.91	124.05
379.11	79.58
379.31	86.60
379.50	135.75
379.70	112.35
379.89	95.96
380.09	124.05
380.28	60.85
380.48	81.92
380.68	102.98
380.87	84.26
381.07	187.24
381.26	175.54
381.46	126.39
381.65	119.37
381.85	145.11
382.04	154.48
382.24	145.11
382.43	128.73
382.63	128.73
382.83	147.45
383.02	138.09
383.22	184.90
383.41	93.62
383.61	67.88
383.80	159.16
384.00	205.97
384.19	121.71
384.39	147.45
384.58	51.49
384.78	121.71
384.97	124.05
385.17	133.41
385.36	60.85
385.56	72.56
385.75	107.66
385.95	49.15
386.14	72.56
386.34	131.07
386.53	135.75
386.72	107.66
386.92	133.41
387.11	124.05
387.31	98.30
387.50	126.39
387.70	131.07
387.89	126.39
388.09	128.73
388.28	168.52
388.48	126.39
388.67	117.03
388.86	168.52
389.06	107.66
389.25	131.07
389.45	100.64
389.64	126.39
389.84	173.20
390.03	93.62
390.22	131.07
390.42	124.05
390.61	77.24
390.81	84.26
391.00	107.66
391.19	131.07
391.39	67.88
391.58	102.98
391.78	53.83
391.97	72.56
392.16	121.71
392.36	102.98
392.55	147.45
392.75	110.01
392.94	215.33
393.13	196.60
393.33	133.41
393.52	74.90
393.71	187.24
393.91	95.96
394.10	74.90
394.29	124.05
394.49	180.22
394.68	138.09
394.88	98.30
395.07	74.90
395.26	184.90
395.46	156.82
395.65	105.32
395.84	154.48
396.04	250.44
396.23	168.52
396.42	105.32
396.62	161.50
396.81	161.50
397.00	145.11
397.19	189.58
397.39	163.84
397.58	128.73
397.77	95.96
397.97	182.56
398.16	227.03
398.35	215.33
398.55	121.71
398.74	107.66
398.93	163.84
399.12	121.71
399.32	182.56
399.51	121.71
399.70	175.54
399.90	163.84
400.09	184.90
400.28	191.92
400.47	159.16
400.67	154.48
400.86	131.07
401.05	198.95
401.24	63.19
401.44	100.64
401.63	231.71
401.82	315.97
402.01	173.20
402.21	140.43
402.40	182.56
402.59	201.29
402.78	210.65
402.97	243.42
403.17	308.95
403.36	301.93
403.55	322.99
403.74	767.70
403.93	2162.66
404.13	5867.72
404.32	9533.00
404.51	9373.85
404.70	6141.57
404.89	2115.84
405.09	575.77
405.28	341.72
405.47	201.29
405.66	198.95
405.85	227.03
406.05	243.42
406.24	184.90
406.43	196.60
406.62	259.80
406.81	250.44
407.00	346.40
407.20	730.25
407.39	1172.61
407.58	1458.15
407.77	1121.12
407.96	624.92
408.15	290.23
408.34	229.37
408.54	222.35
408.73	201.29
408.92	163.84
409.11	210.65
409.30	198.95
409.49	166.18
409.68	224.69
409.87	224.69
410.07	196.60
410.26	187.24
410.45	210.65
410.64	217.67
410.83	198.95
411.02	243.42
411.21	154.48
411.40	215.33
411.59	194.26
411.78	210.65
411.98	182.56
412.17	255.12
412.36	184.90
412.55	255.12
412.74	212.99
412.93	222.35
413.12	236.39
413.31	201.29
413.50	355.76
413.69	201.29
413.88	332.36
414.07	170.86
414.26	250.44
414.45	252.78
414.64	330.02
414.83	271.50
415.02	278.52
415.22	294.91
415.41	264.48
415.60	182.56
415.79	283.20
415.98	344.06
416.17	351.08
416.36	297.25
416.55	348.74
416.74	299.59
416.93	243.42
417.12	301.93
417.31	320.65
417.50	273.84
417.69	306.61
417.88	229.37
418.07	283.20
418.26	220.01
418.45	271.50
418.64	294.91
418.83	360.44
419.02	325.33
419.21	308.95
419.39	290.23
419.58	236.39
419.77	376.83
419.96	322.99
420.15	339.38
420.34	250.44
420.53	313.63
420.72	337.04
420.91	393.21
421.10	311.29
421.29	299.59
421.48	311.29
421.67	325.33
421.86	313.63
422.05	301.93
422.24	299.59
422.43	330.02
422.61	337.04
422.80	374.49
422.99	308.95
423.18	376.83
423.37	411.93
423.56	297.25
423.75	355.76
423.94	346.40
424.13	269.16
424.32	311.29
424.50	255.12
424.69	395.55
424.88	386.19
425.07	409.59
425.26	339.38
425.45	400.23
425.64	379.17
425.83	451.72
426.01	514.92
426.20	472.79
426.39	428.32
426.58	435.34
426.77	386.19
426.96	353.42
427.15	332.36
427.33	325.33
427.52	393.21
427.71	322.99
427.90	458.74
428.09	404.91
428.28	365.12
428.46	404.91
428.65	437.68
428.84	440.02
429.03	449.38
429.22	351.08
429.40	400.23
429.59	416.62
429.78	470.45
429.97	341.72
430.16	458.74
430.34	414.27
430.53	447.04
430.72	503.22
430.91	442.36
431.10	397.89
431.28	463.43
431.47	463.43
431.66	425.98
431.85	514.92
432.03	526.62
432.22	645.99
432.41	512.58
432.60	545.34
432.79	435.34
432.97	620.24
433.16	641.31
433.35	767.70
433.54	849.61
433.72	837.91
433.91	791.10
434.10	856.64
434.28	1022.81
434.47	1291.98
434.66	1432.41
434.85	1633.69
435.03	3751.88
435.22	14417.70
435.41	36828.33
435.59	48795.49
435.78	35564.44
435.97	16329.92
436.16	6090.07
436.34	2012.86
436.53	1165.59
436.72	1008.77
436.90	753.65
437.09	690.46
437.28	631.94
437.46	713.86
437.65	669.39
437.84	692.80
438.02	578.11
438.21	709.18
438.40	585.13
438.58	543.00
438.77	610.88
438.96	550.03
439.14	545.34
439.33	622.58
439.52	671.73
439.70	610.88
439.89	631.94
440.08	660.03
440.26	571.09
440.45	550.03
440.63	608.54
440.82	601.52
441.01	601.52
441.19	528.96
441.38	603.86
441.57	657.69
441.75	653.01
441.94	645.99
442.12	575.77
442.31	681.10
442.50	575.77
442.68	566.41
442.87	538.32
443.05	571.09
443.24	627.26
443.43	613.22
443.61	571.09
443.80	629.60
443.98	554.71
444.17	596.84
444.35	608.54
444.54	594.50
444.73	587.47
444.91	634.29
445.10	561.73
445.28	657.69
445.47	550.03
445.65	510.24
445.84	615.56
446.02	493.85
446.21	629.60
446.39	613.22
446.58	510.24
446.77	568.75
446.95	545.34
447.14	554.71
447.32	606.20
447.51	552.37
447.69	491.51
447.88	568.75
448.06	578.11
448.25	550.03
448.43	535.98
448.62	521.94
448.80	540.66
448.99	552.37
449.17	571.09
449.36	566.41
449.54	631.94
449.73	517.26
449.91	580.45
450.10	517.26
450.28	667.05
450.46	641.31
450.65	552.37
450.83	613.22
451.02	585.13
451.20	550.03
451.39	573.43
451.57	580.45
451.76	547.69
451.94	629.60
452.13	526.62
452.31	627.26
452.49	587.47
452.68	531.30
452.86	573.43
453.05	657.69
453.23	617.90
453.42	468.11
453.60	578.11
453.78	519.60
453.97	573.43
454.15	636.63
454.34	543.00
454.52	578.11
454.70	575.77
454.89	545.34
455.07	543.00
455.26	566.41
455.44	580.45
455.62	479.81
455.81	510.24
455.99	620.24
456.17	631.94
456.36	608.54
456.54	568.75
456.73	496.19
456.91	603.86
457.09	543.00
457.28	507.90
457.46	540.66
457.64	617.90
457.83	543.00
458.01	547.69
458.19	603.86
458.38	524.28
458.56	575.77
458.74	566.41
458.93	575.77
459.11	564.07
459.29	571.09
459.48	564.07
459.66	629.60
459.84	610.88
460.03	674.07
460.21	566.41
460.39	596.84
460.57	592.16
460.76	545.34
460.94	566.41
461.12	594.50
461.31	704.50
461.49	594.50
461.67	496.19
461.85	561.73
462.04	512.58
462.22	1013.45
462.40	521.94
462.59	447.04
462.77	566.41
462.95	524.28
463.13	599.18
463.32	543.00
463.50	617.90
463.68	521.94
463.86	510.24
464.05	507.90
464.23	566.41
464.41	645.99
464.59	601.52
464.78	550.03
464.96	538.32
465.14	505.56
465.32	533.64
465.50	491.51
465.69	521.94
465.87	433.00
466.05	521.94
466.23	521.94
466.41	526.62
466.60	550.03
466.78	617.90
466.96	655.35
467.14	547.69
467.32	582.79
467.51	592.16
467.69	451.72
467.87	550.03
468.05	575.77
468.23	454.06
468.41	524.28
468.60	484.49
468.78	545.34
468.96	514.92
469.14	454.06
469.32	461.09
469.50	472.79
469.69	521.94
469.87	510.24
470.05	491.51
470.23	496.19
470.41	547.69
470.59	465.77
470.77	447.04
470.95	507.90
471.14	528.96
471.32	428.32
471.50	634.29
471.68	503.22
471.86	517.26
472.04	479.81
472.22	533.64
472.40	493.85
472.58	547.69
472.77	521.94
472.95	458.74
473.13	624.92
473.31	603.86
473.49	517.26
473.67	404.91
473.85	528.96
474.03	538.32
474.21	507.90
474.39	550.03
474.57	592.16
474.75	531.30
474.93	568.75
475.12	521.94
475.30	507.90
475.48	526.62
475.66	578.11
475.84	566.41
476.02	568.75
476.20	524.28
476.38	557.05
476.56	521.94
476.74	519.60
476.92	461.09
477.10	575.77
477.28	535.98
477.46	533.64
477.64	620.24
477.82	613.22
478.00	531.30
478.18	601.52
478.36	559.39
478.54	599.18
478.72	575.77
478.90	615.56
479.08	613.22
479.26	711.52
479.44	636.63
479.62	737.27
479.80	681.10
479.98	702.16
480.16	765.36
480.34	779.40
480.52	784.08
480.70	884.72
480.88	866.00
481.06	894.08
481.24	976.00
481.41	1057.92
481.59	1097.71
481.77	1179.63
481.95	1203.04
482.13	1301.34
482.31	1240.48
482.49	1362.19
482.67	1521.35
482.85	1614.97
483.03	1687.53
483.21	1923.92
483.39	1977.75
483.57	2078.40
483.74	2179.04
483.92	2331.17
484.10	2499.69
484.28	2548.84
484.46	2733.75
484.64	2977.16
484.82	3063.76
485.00	3215.90
485.18	3332.92
485.35	3555.27
485.53	3763.58
485.71	4021.04
485.89	4095.94
486.07	4245.73
486.25	4308.93
486.43	4390.84
486.61	4299.56
486.78	4266.80
486.96	4355.74
487.14	4269.14
487.32	4332.33
487.50	4231.69
487.68	4238.71
487.85	4168.49
488.03	4219.99
488.21	4212.96
488.39	3948.48
488.57	3859.54
488.75	3688.68
488.92	3896.99
489.10	3609.11
489.28	3660.60
489.46	3431.23
489.64	3368.03
489.81	3368.03
489.99	3255.69
490.17	3300.16
490.35	3389.10
490.53	3243.98
490.70	3304.84
490.88	3183.13
491.06	3311.86
491.24	3581.02
491.41	3637.19
491.59	3529.53
491.77	3246.32
491.95	3145.68
492.13	3014.61
492.30	2825.03
492.48	2944.39
492.66	2785.24
492.84	2789.92
493.01	2759.49
493.19	2799.28
493.37	2834.39
493.54	2544.16
493.72	2527.78
493.90	2605.02
494.08	2527.78
494.25	2593.31
494.43	2452.88
494.61	2441.18
494.79	2478.63
494.96	2331.17
495.14	2338.20
495.32	2303.09
495.49	2120.53
495.67	2218.83
495.85	2183.72
496.02	2113.50
496.20	2153.29
496.38	2012.86
496.55	2200.10
496.73	2029.24
496.91	1900.52
497.09	1975.41
497.26	1961.37
497.44	1877.11
497.62	1809.23
497.79	1823.28
497.97	1837.32
498.14	1685.19
498.32	1760.08
498.50	1610.29
498.67	1561.14
498.85	1502.62
499.03	1547.09
499.20	1399.64
499.38	1446.45
499.56	1497.94
499.73	1509.65
499.91	1490.92
500.08	1341.13
500.26	1380.92
500.44	1238.14
500.61	1233.46
500.79	1144.52
500.97	1165.59
501.14	1144.52
501.32	1071.97
501.49	1055.58
501.67	901.11
501.84	1029.84
502.02	978.34
502.20	1043.88
502.37	985.37
502.55	910.47
502.72	891.74
502.90	940.90
503.07	821.53
503.25	861.32
503.43	772.38
503.60	751.31
503.78	763.01
503.95	805.14
504.13	763.01
504.30	690.46
504.48	734.93
504.65	709.18
504.83	758.33
505.01	681.10
505.18	671.73
505.36	681.10
505.53	704.50
505.71	620.24
505.88	671.73
506.06	683.44
506.23	603.86
506.41	599.18
506.58	653.01
506.76	636.63
506.93	610.88
507.11	589.82
507.28	514.92
507.46	627.26
507.63	571.09
507.81	526.62
507.98	575.77
508.16	571.09
508.33	580.45
508.50	636.63
508.68	566.41
508.85	603.86
509.03	557.05
509.20	540.66
509.38	655.35
509.55	585.13
509.73	552.37
509.90	615.56
510.08	528.96
510.25	634.29
510.42	547.69
510.60	503.22
510.77	517.26
510.95	423.64
511.12	451.72
511.30	507.90
511.47	535.98
511.64	540.66
511.82	491.51
511.99	470.45
512.17	491.51
512.34	505.56
512.51	564.07
512.69	465.77
512.86	582.79
513.04	545.34
513.21	505.56
513.38	454.06
513.56	451.72
513.73	493.85
513.90	458.74
514.08	440.02
514.25	458.74
514.43	418.96
514.60	435.34
514.77	519.60
514.95	472.79
515.12	470.45
515.29	440.02
515.47	491.51
515.64	449.38
515.81	444.70
515.99	449.38
516.16	479.81
516.33	514.92
516.51	423.64
516.68	458.74
516.85	496.19
517.03	400.23
517.20	425.98
517.37	390.87
517.54	379.17
517.72	367.46
517.89	369.80
518.06	327.68
518.24	421.30
518.41	440.02
518.58	423.64
518.75	374.49
518.93	433.00
519.10	498.53
519.27	421.30
519.45	500.87
519.62	416.62
519.79	411.93
519.96	400.23
520.14	456.40
520.31	444.70
520.48	360.44
520.65	381.51
520.83	411.93
521.00	496.19
521.17	458.74
521.34	372.15
521.52	390.87
521.69	437.68
521.86	430.66
522.03	423.64
522.20	437.68
522.38	414.27
522.55	379.17
522.72	344.06
522.89	418.96
523.07	458.74
523.24	379.17
523.41	393.21
523.58	409.59
523.75	414.27
523.92	477.47
524.10	433.00
524.27	519.60
524.44	456.40
524.61	411.93
524.78	369.80
524.96	435.34
525.13	454.06
525.30	498.53
525.47	503.22
525.64	477.47
525.81	407.25
525.98	458.74
526.16	472.79
526.33	496.19
526.50	444.70
526.67	479.81
526.84	454.06
527.01	449.38
527.18	535.98
527.36	519.60
527.53	531.30
527.70	561.73
527.87	505.56
528.04	451.72
528.21	491.51
528.38	512.58
528.55	500.87
528.72	660.03
528.89	575.77
529.07	475.13
529.24	645.99
529.41	596.84
529.58	601.52
529.75	589.82
529.92	697.48
530.09	594.50
530.26	608.54
530.43	631.94
530.60	664.71
530.77	622.58
530.94	653.01
531.11	678.76
531.28	763.01
531.46	671.73
531.63	788.76
531.80	786.42
531.97	844.93
532.14	973.66
532.31	1228.78
532.48	1378.58
532.65	1537.73
532.82	1701.57
532.99	1912.22
533.16	2427.14
533.33	2548.84
533.50	2342.88
533.67	2113.50
533.84	1851.36
534.01	1540.07
534.18	1399.64
534.35	1416.02
534.52	1425.39
534.69	1521.35
534.86	1593.90
535.03	1516.67
535.20	1614.97
535.37	1748.38
535.54	1844.34
535.71	1923.92
535.88	2094.78
536.05	2174.36
536.22	2305.43
536.38	2541.82
536.55	2778.22
536.72	3084.83
536.89	3382.07
537.06	3927.42
537.23	4159.13
537.40	4767.67
537.57	5195.99
537.74	5390.25
537.91	5645.37
538.08	5502.60
538.25	5781.12
538.42	5870.06
538.59	6029.22
538.75	6136.88
538.92	6553.50
539.09	7080.12
539.26	7719.09
539.43	8966.59
539.60	10120.48
539.77	11126.91
539.94	12617.83
540.11	14188.33
540.28	15941.39
540.44	17048.46
540.61	18752.37
540.78	21465.05
540.95	25238.00
541.12	31321.05
541.29	35555.08
541.46	37621.77
541.62	37333.89
541.79	35791.47
541.96	33359.66
542.13	30497.18
542.30	28617.73
542.47	27447.46
542.63	25338.64
542.80	24896.28
542.97	24177.73
543.14	23733.03
543.31	23953.04
543.48	23756.44
543.64	24875.21
543.81	24350.93
543.98	24673.93
544.15	25607.80
544.32	25661.63
544.48	25130.33
544.65	24802.66
544.82	24442.21
544.99	24271.36
545.16	25429.92
545.32	25797.38
545.49	38930.13
545.66	59234.28
545.83	65535.00
546.00	65535.00
546.16	58445.52
546.33	43187.56
546.50	32301.73
546.67	25680.36
546.83	22644.68
547.00	21621.87
547.17	20475.01
547.34	19957.75
547.50	19353.89
547.67	18497.25
547.84	17554.02
548.00	16620.14
548.17	16290.13
548.34	15803.30
548.51	14967.73
548.67	14410.68
548.84	13598.51
549.01	12950.18
549.18	12116.95
549.34	11969.50
549.51	11459.26
549.68	11154.99
549.84	10663.48
550.01	10200.05
550.18	9561.09
550.34	9097.66
550.51	8748.92
550.68	8362.73
550.84	7864.20
551.01	7655.89
551.18	7129.27
551.34	6511.37
551.51	6612.01
551.68	6064.33
551.84	6003.47
552.01	5570.48
552.18	5551.75
552.34	5036.83
552.51	4966.62
552.68	4739.58
552.84	4650.64
553.01	4564.04
553.18	4395.53
553.34	4191.90
553.51	4056.15
553.67	3918.06
553.84	3824.44
554.01	3496.76
554.17	3283.77
554.34	3136.32
554.51	2827.37
554.67	2705.66
554.84	2516.08
555.00	2464.58
555.17	2459.90
555.33	2289.04
555.50	2172.02
555.67	1989.46
555.83	1921.58
556.00	1844.34
556.16	2008.18
556.33	1720.29
556.50	1689.87
556.66	1568.16
556.83	1462.83
556.99	1441.77
557.16	1565.82
557.32	1362.19
557.49	1352.83
557.65	1385.60
557.82	1352.83
557.98	1217.08
558.15	1231.12
558.32	1261.55
558.48	1252.19
558.65	1198.35
558.81	1128.14
558.98	1090.69
559.14	1097.71
559.31	1130.48
559.47	1156.22
559.64	992.39
559.80	978.34
559.97	1057.92
560.13	1097.71
560.30	926.85
560.46	1039.20
560.63	1027.50
560.79	978.34
560.96	1027.50
561.12	983.02
561.29	1022.81
561.45	999.41
561.61	919.83
561.78	1142.18
561.94	940.90
562.11	1018.13
562.27	945.58
562.44	978.34
562.60	1025.15
562.77	980.68
562.93	926.85
563.10	938.55
563.26	868.34
563.42	943.24
563.59	858.98
563.75	837.91
563.92	910.47
564.08	767.70
564.24	744.29
564.41	849.61
564.57	798.12
564.74	760.67
564.90	753.65
565.07	753.65
565.23	727.91
565.39	760.67
565.56	767.70
565.72	692.80
565.88	830.89
566.05	760.67
566.21	744.29
566.38	809.83
566.54	807.48
566.70	781.74
566.87	758.33
567.03	711.52
567.19	725.57
567.36	725.57
567.52	755.99
567.68	746.63
567.85	823.87
568.01	760.67
568.17	805.14
568.34	784.08
568.50	854.30
568.66	793.44
568.83	863.66
568.99	760.67
569.15	758.33
569.32	718.54
569.48	744.29
569.64	660.03
569.81	660.03
569.97	535.98
570.13	615.56
570.30	587.47
570.46	615.56
570.62	526.62
570.78	528.96
570.95	510.24
571.11	674.07
571.27	676.41
571.43	507.90
571.60	617.90
571.76	512.58
571.92	517.26
572.09	557.05
572.25	594.50
572.41	535.98
572.57	592.16
572.74	528.96
572.90	603.86
573.06	524.28
573.22	648.33
573.38	629.60
573.55	671.73
573.71	641.31
573.87	631.94
574.03	603.86
574.20	678.76
574.36	725.57
574.52	667.05
574.68	723.23
574.84	711.52
575.01	767.70
575.17	767.70
575.33	816.85
575.49	985.37
575.65	954.94
575.82	990.05
575.98	1118.78
576.14	1259.21
576.30	2319.47
576.46	7456.95
576.62	14654.09
576.79	19913.28
576.95	14647.07
577.11	8837.86
577.27	5975.39
577.43	3988.27
577.59	2534.80
577.75	1912.22
577.92	1785.83
578.08	1708.59
578.24	1788.17
578.40	2682.25
578.56	6700.95
578.72	13762.35
578.88	18274.90
579.04	13294.24
579.21	8044.42
579.37	5898.15
579.53	4493.83
579.69	4086.58
579.85	5205.35
580.01	6399.02
580.17	6567.54
580.33	5465.15
580.49	4521.92
580.65	4067.85
580.82	3646.55
580.98	3562.30
581.14	3531.87
581.30	3950.82
581.46	4236.37
581.62	4430.63
581.78	4660.01
581.94	5036.83
582.10	5420.68
582.26	5741.33
582.42	5900.49
582.58	6054.97
582.74	6143.91
582.90	6078.37
583.06	6279.66
583.22	6282.00
583.38	6274.98
583.54	6427.11
583.70	6305.40
583.86	6265.61
584.02	5841.98
584.18	5935.60
584.34	6001.13
584.50	5736.65
584.66	5689.84
584.82	5713.25
584.98	5607.92
585.14	5383.23
585.30	5149.18
585.46	5301.31
585.62	5273.23
585.78	5261.52
585.94	5170.24
586.10	5046.20
586.26	5408.98
586.42	6118.16
586.58	7047.35
586.74	8943.19
586.90	11042.65
587.06	12657.62
587.22	12634.21
587.38	11311.81
587.54	9635.99
587.70	8128.68
587.86	6675.21
588.02	5731.97
588.18	5078.96
588.34	4535.96
588.49	4318.29
588.65	4025.72
588.81	3667.62
588.97	3581.02
589.13	3609.11
589.29	3445.27
589.45	3361.01
589.61	3375.05
589.77	3339.94
589.93	3590.38
590.08	3534.21
590.24	3765.92
590.40	3782.31
590.56	3922.74
590.72	3901.67
590.88	3983.59
591.04	4159.13
591.20	4470.42
591.35	4594.47
591.51	4856.61
591.67	4971.30
591.83	5107.05
591.99	5610.26
592.15	6157.95
592.31	6881.18
592.46	7325.88
592.62	8056.12
592.78	8484.44
592.94	9013.40
593.10	8879.99
593.26	8458.70
593.41	7791.64
593.57	7045.01
593.73	6171.99
593.89	5537.71
594.05	4938.53
594.20	4142.75
594.36	4018.70
594.52	3524.85
594.68	3426.54
594.84	3449.95
594.99	3365.69
595.15	3094.19
595.31	3162.06
595.47	3187.81
595.62	3028.65
595.78	2967.80
595.94	3009.93
596.10	3124.62
596.25	2958.44
596.41	3016.95
596.57	2949.08
596.73	3049.72
596.88	2888.22
597.04	3045.04
597.20	3105.89
597.36	3136.32
597.51	3180.79
597.67	3361.01
597.83	3482.72
597.99	3733.15
598.14	3941.46
598.30	4208.28
598.46	4299.56
598.61	4526.60
598.77	4781.71
598.93	4889.38
599.09	5249.82
599.24	5224.08
599.40	5219.39
599.56	5004.07
599.71	4922.15
599.87	4669.37
600.03	4404.89
600.18	4212.96
600.34	3840.82
600.50	3449.95
600.65	3398.46
600.81	3258.03
600.97	3049.72
601.12	2787.58
601.28	2780.56
601.44	2532.46
601.59	2389.69
601.75	2389.69
601.91	2232.87
602.06	2157.97
602.22	2167.34
602.37	2139.25
602.53	2104.14
602.69	2094.78
602.84	1912.22
603.00	2005.84
603.16	1909.88
603.31	2090.10
603.47	2188.40
603.62	2099.46
603.78	2132.23
603.94	2043.29
604.09	2134.57
604.25	2246.91
604.40	2242.23
604.56	2396.71
604.71	2483.31
604.87	2277.34
605.03	2511.39
605.18	2478.63
605.34	2586.29
605.49	2518.42
605.65	2590.97
605.80	2614.38
605.96	2710.34
606.12	2892.90
606.27	2995.89
606.43	3143.34
606.58	3295.47
606.74	3522.51
606.89	3555.27
607.05	3859.54
607.20	3953.16
607.36	4337.01
607.51	4482.13
607.67	4828.53
607.82	5104.71
607.98	5542.39
608.13	5736.65
608.29	6464.56
608.44	6965.43
608.60	7325.88
608.75	8210.60
608.91	8903.40
609.06	9783.44
609.22	11012.22
609.37	11840.77
609.53	13359.78
609.68	15220.50
609.84	17254.43
609.99	20744.17
610.15	24734.78
610.30	29839.49
610.46	37750.50
610.61	47494.15
610.76	56030.08
610.92	61488.21
611.07	64697.09
611.23	65535.00
611.38	64636.23
611.54	61731.63
611.69	57918.90
611.84	53233.14
612.00	45698.96
612.15	39000.35
612.31	33298.80
612.46	30045.46
612.62	27515.34
612.77	26178.89
612.92	24624.78
613.08	23403.02
613.23	22324.03
613.39	21029.71
613.54	20311.17
613.69	19782.21
613.85	19822.00
614.00	19697.95
614.15	19763.48
614.31	19370.27
614.46	18817.91
614.62	18146.17
614.77	16996.97
614.92	16166.08
615.08	15037.94
615.23	14040.87
615.38	13095.30
615.54	11674.59
615.69	10750.08
615.84	9734.29
616.00	8961.91
616.15	8365.07
616.30	7793.98
616.46	7267.36
616.61	6965.43
616.76	6647.12
616.92	6174.33
617.07	5771.76
617.22	5537.71
617.37	5268.55
617.53	5151.52
617.68	4936.19
617.83	4950.23
617.99	4636.60
618.14	4400.21
618.29	4262.12
618.45	4257.43
618.60	4102.96
618.75	3988.27
618.90	4095.94
619.06	4042.11
619.21	3857.20
619.36	4028.06
619.51	3831.46
619.67	3904.01
619.82	4063.17
619.97	4060.83
620.12	4142.75
620.28	4196.58
620.43	4231.69
620.58	4402.55
620.73	4437.66
620.89	4432.97
621.04	4210.62
621.19	4259.78
621.34	4112.32
621.49	4334.67
621.65	4098.28
621.80	4002.32
621.95	4014.02
622.10	4147.43
622.25	4100.62
622.41	4170.83
622.56	4138.07
622.71	4299.56
622.86	4491.49
623.01	4627.24
623.16	4706.82
623.32	4695.11
623.47	4645.96
623.62	4648.30
623.77	4613.20
623.92	4830.87
624.07	4657.67
624.23	4690.43
624.38	4585.11
624.53	4648.30
624.68	4594.47
624.83	4732.56
624.98	4692.77
625.13	4819.16
625.29	4795.76
625.44	4933.85
625.59	4732.56
625.74	4732.56
625.89	4802.78
626.04	4898.74
626.19	4873.00
626.34	4793.42
626.49	4844.91
626.65	4667.03
626.80	4613.20
626.95	4746.61
627.10	4514.89
627.25	4571.07
627.40	4355.74
627.55	4397.87
627.70	4278.50
627.85	4379.14
628.00	4308.93
628.15	4285.52
628.30	4252.75
628.45	4255.09
628.60	4177.86
628.76	4161.47
628.91	4285.52
629.06	4170.83
629.21	4292.54
629.36	4575.75
629.51	4667.03
629.66	4793.42
629.81	5170.24
629.96	5448.77
630.11	6108.80
630.26	6553.50
630.41	7613.76
630.56	8538.27
630.71	9025.11
630.86	9411.29
631.01	9249.80
631.16	8681.05
631.31	7749.51
631.46	6630.74
631.61	5476.85
631.76	4781.71
631.91	3946.14
632.06	3431.23
632.21	2904.60
632.36	2469.27
632.51	2305.43
632.66	2052.65
632.81	1872.43
632.96	1732.00
633.10	1710.93
633.25	1600.93
633.40	1558.80
633.55	1401.98
633.70	1432.41
633.85	1406.66
634.00	1343.47
634.15	1366.87
634.30	1327.08
634.45	1324.74
634.60	1249.85
634.75	1172.61
634.90	1160.91
635.05	1205.38
635.19	1167.93
635.34	1170.27
635.49	1191.33
635.64	1093.03
635.79	1076.65
635.94	1088.35
636.09	1050.90
636.24	1046.22
636.39	1022.81
636.53	1057.92
636.68	990.05
636.83	954.94
636.98	971.32
637.13	952.60
637.28	990.05
637.43	1011.11
637.57	940.90
637.72	931.53
637.87	908.13
638.02	880.04
638.17	809.83
638.32	919.83
638.46	905.79
638.61	947.92
638.76	816.85
638.91	774.72
639.06	837.91
639.20	861.32
639.35	767.70
639.50	786.42
639.65	819.19
639.80	788.76
639.94	788.76
640.09	830.89
640.24	767.70
640.39	809.83
640.54	861.32
640.68	828.55
640.83	847.27
640.98	791.10
641.13	699.82
641.27	809.83
641.42	791.10
641.57	877.70
641.72	877.70
641.86	805.14
642.01	784.08
642.16	744.29
642.31	779.40
642.45	739.61
642.60	760.67
642.75	781.74
642.90	774.72
643.04	777.06
643.19	763.01
643.34	880.04
643.48	842.59
643.63	809.83
643.78	854.30
643.93	800.46
644.07	727.91
644.22	868.34
644.37	760.67
644.51	793.44
644.66	807.48
644.81	812.17
644.95	772.38
645.10	763.01
645.25	786.42
645.39	739.61
645.54	732.59
645.69	772.38
645.83	748.97
645.98	802.80
646.13	716.20
646.27	791.10
646.42	716.20
646.57	739.61
646.71	711.52
646.86	676.41
647.00	748.97
647.15	688.12
647.30	758.33
647.44	669.39
647.59	767.70
647.74	748.97
647.88	653.01
648.03	692.80
648.17	734.93
648.32	599.18
648.47	800.46
648.61	737.27
648.76	863.66
648.90	898.77
649.05	866.00
649.20	880.04
649.34	1032.18
649.49	1039.20
649.63	1277.93
649.78	1409.00
649.92	1654.76
650.07	2188.40
650.21	2345.22
650.36	2581.61
650.51	2429.48
650.65	2487.99
650.80	2197.76
650.94	1980.09
651.09	1713.27
651.23	1568.16
651.38	1364.53
651.52	1313.04
651.67	1069.62
651.81	1022.81
651.96	1090.69
652.10	1032.18
652.25	1046.22
652.39	1137.50
652.54	964.30
652.68	1128.14
652.83	1263.89
652.97	1219.42
653.12	1310.70
653.26	1254.53
653.41	1153.88
653.55	1116.44
653.70	952.60
653.84	961.96
653.99	901.11
654.13	821.53
654.27	828.55
654.42	779.40
654.56	786.42
654.71	730.25
654.85	788.76
655.00	706.84
655.14	781.74
655.29	699.82
655.43	730.25
655.57	723.23
655.72	657.69
655.86	720.88
656.01	650.67
656.15	660.03
656.30	669.39
656.44	685.78
656.58	706.84
656.73	718.54
656.87	774.72
657.01	716.20
657.16	751.31
657.30	781.74
657.45	826.21
657.59	763.01
657.73	816.85
657.88	889.40
658.02	912.81
658.16	807.48
658.31	777.06
658.45	760.67
658.60	629.60
658.74	606.20
658.88	582.79
659.03	608.54
659.17	582.79
659.31	482.15
659.46	550.03
659.60	624.92
659.74	517.26
659.89	477.47
660.03	440.02
660.17	538.32
660.32	535.98
660.46	463.43
660.60	472.79
660.74	592.16
660.89	552.37
661.03	552.37
661.17	631.94
661.32	622.58
661.46	744.29
661.60	748.97
661.74	952.60
661.89	1156.22
662.03	1249.85
662.17	1481.56
662.31	1519.01
662.46	1497.94
662.60	1500.28
662.74	1280.27
662.88	1163.25
663.03	1027.50
663.17	1011.11
663.31	908.13
663.45	828.55
663.60	823.87
663.74	704.50
663.88	653.01
664.02	699.82
664.17	638.97
664.31	629.60
664.45	589.82
664.59	557.05
664.73	442.36
664.88	552.37
665.02	482.15
665.16	528.96
665.30	648.33
665.44	454.06
665.59	465.77
665.73	486.83
665.87	486.83
666.01	437.68
666.15	535.98
666.29	517.26
666.44	482.15
666.58	596.84
666.72	620.24
666.86	543.00
667.00	510.24
667.14	510.24
667.28	512.58
667.43	500.87
667.57	510.24
667.71	592.16
667.85	437.68
667.99	564.07
668.13	500.87
668.27	505.56
668.41	519.60
668.56	526.62
668.70	510.24
668.84	447.04
668.98	461.09
669.12	456.40
669.26	390.87
669.40	498.53
669.54	442.36
669.68	468.11
669.82	404.91
669.96	463.43
670.10	493.85
670.25	449.38
670.39	447.04
670.53	463.43
670.67	430.66
670.81	358.10
670.95	505.56
671.09	519.60
671.23	465.77
671.37	386.19
671.51	379.17
671.65	433.00
671.79	440.02
671.93	416.62
672.07	547.69
672.21	440.02
672.35	365.12
672.49	402.57
672.63	423.64
672.77	447.04
672.91	465.77
673.05	463.43
673.19	437.68
673.33	404.91
673.47	440.02
673.61	433.00
673.75	348.74
673.89	381.51
674.03	390.87
674.17	397.89
674.31	407.25
674.45	383.85
674.59	416.62
674.73	423.64
674.87	348.74
675.01	402.57
675.15	379.17
675.29	383.85
675.43	423.64
675.56	421.30
675.70	372.15
675.84	351.08
675.98	283.20
676.12	369.80
676.26	334.70
676.40	318.31
676.54	355.76
676.68	346.40
676.82	414.27
676.96	318.31
677.10	379.17
677.23	383.85
677.37	306.61
677.51	369.80
677.65	454.06
677.79	365.12
677.93	304.27
678.07	355.76
678.21	346.40
678.34	346.40
678.48	353.42
678.62	395.55
678.76	355.76
678.90	379.17
679.04	339.38
679.18	374.49
679.31	360.44
679.45	327.68
679.59	416.62
679.73	514.92
679.87	337.04
680.00	388.53
680.14	369.80
680.28	348.74
680.42	365.12
680.56	381.51
680.70	376.83
680.83	475.13
680.97	397.89
681.11	388.53
681.25	404.91
681.39	390.87
681.52	433.00
681.66	365.12
681.80	402.57
681.94	376.83
682.07	411.93
682.21	383.85
682.35	346.40
682.49	367.46
682.62	369.80
682.76	393.21
682.90	393.21
683.04	397.89
683.17	416.62
683.31	318.31
683.45	381.51
683.59	362.78
683.72	351.08
683.86	341.72
684.00	308.95
684.13	360.44
684.27	393.21
684.41	372.15
684.55	290.23
684.68	360.44
684.82	337.04
684.96	402.57
685.09	290.23
685.23	344.06
685.37	369.80
685.50	425.98
685.64	411.93
685.78	475.13
685.91	381.51
686.05	440.02
686.19	444.70
686.32	559.39
686.46	531.30
686.60	575.77
686.73	643.65
686.87	582.79
687.01	648.33
687.14	685.78
687.28	746.63
687.42	863.66
687.55	772.38
687.69	901.11
687.82	805.14
687.96	854.30
688.10	933.87
688.23	770.04
688.37	763.01
688.50	737.27
688.64	697.48
688.78	580.45
688.91	535.98
689.05	596.84
689.18	395.55
689.32	444.70
689.46	444.70
689.59	381.51
689.73	421.30
689.86	346.40
690.00	304.27
690.13	311.29
690.27	266.82
690.41	339.38
690.54	334.70
690.68	433.00
690.81	280.86
690.95	299.59
691.08	334.70
691.22	245.76
691.35	283.20
691.49	236.39
691.62	276.18
691.76	222.35
691.89	210.65
692.03	217.67
692.16	243.42
692.30	243.42
692.43	245.76
692.57	250.44
692.70	280.86
692.84	339.38
692.97	266.82
693.11	390.87
693.24	456.40
693.38	540.66
693.51	606.20
693.65	695.14
693.78	791.10
693.92	758.33
694.05	648.33
694.19	582.79
694.32	521.94
694.45	414.27
694.59	379.17
694.72	344.06
694.86	290.23
694.99	290.23
695.13	255.12
695.26	215.33
695.39	222.35
695.53	273.84
695.66	227.03
695.80	273.84
695.93	191.92
696.07	262.14
696.20	271.50
696.33	283.20
696.47	308.95
696.60	306.61
696.73	280.86
696.87	299.59
697.00	290.23
697.14	196.60
697.27	220.01
697.40	229.37
697.54	208.31
697.67	163.84
697.80	173.20
697.94	163.84
698.07	189.58
698.21	93.62
698.34	140.43
698.47	201.29
698.61	184.90
698.74	161.50
698.87	243.42
699.01	145.11
699.14	180.22
699.27	269.16
699.40	252.78
699.54	135.75
699.67	145.11
699.80	182.56
699.94	187.24
700.07	215.33
700.20	229.37
700.34	198.95
700.47	133.41
700.60	191.92
700.73	168.52
700.87	215.33
701.00	159.16
701.13	128.73
701.26	184.90
701.40	217.67
701.53	194.26
701.66	168.52
701.79	208.31
701.93	189.58
702.06	278.52
702.19	210.65
702.32	224.69
702.46	220.01
702.59	177.88
702.72	222.35
702.85	241.08
702.99	238.73
703.12	208.31
703.25	191.92
703.38	276.18
703.51	257.46
703.65	208.31
703.78	245.76
703.91	348.74
704.04	334.70
704.17	308.95
704.31	306.61
704.44	320.65
704.57	379.17
704.70	297.25
704.83	351.08
704.96	330.02
705.10	425.98
705.23	425.98
>>>>>End Processed Spectral Data<<<<<
