SpectraSuite Data File
++++++++++++++++++++++++++++++++++++
Date: Fri Oct 04 11:42:07 GMT-05:00 2013
User: price-jones
Dark Spectrum Present: No
Reference Spectrum Present: No
Number of Sampled Component Spectra: 1
Spectrometers: USB2+H05261
Integration Time (usec): 100000 (USB2+H05261)
Spectra Averaged: 1 (USB2+H05261)
Boxcar Smoothing: 0 (USB2+H05261)
Correct for Electrical Dark: No (USB2+H05261)
Strobe/Lamp Enabled: No (USB2+H05261)
Correct for Detector Non-linearity: No (USB2+H05261)
Correct for Stray Light: No (USB2+H05261)
Number of Pixels in Processed Spectrum: 2048
>>>>>Begin Processed Spectral Data<<<<<
365.73	16.38
365.92	16.38
366.12	16.38
366.32	0.00
366.52	0.00
366.72	0.00
366.91	0.00
367.11	0.00
367.31	0.00
367.51	0.00
367.70	0.00
367.90	0.00
368.10	0.00
368.30	0.00
368.49	0.00
368.69	0.00
368.89	0.00
369.09	16.38
369.28	0.00
369.48	0.00
369.68	0.00
369.87	46.81
370.07	0.00
370.27	79.58
370.47	18.72
370.66	65.54
370.86	0.00
371.06	51.49
371.25	112.35
371.45	0.00
371.65	124.05
371.84	28.09
372.04	28.09
372.24	128.73
372.44	35.11
372.63	126.39
372.83	135.75
373.03	58.51
373.22	93.62
373.42	88.94
373.62	119.37
373.81	182.56
374.01	126.39
374.21	135.75
374.40	133.41
374.60	173.20
374.79	100.64
374.99	124.05
375.19	77.24
375.38	100.64
375.58	138.09
375.78	182.56
375.97	114.69
376.17	149.79
376.37	128.73
376.56	201.29
376.76	126.39
376.95	224.69
377.15	128.73
377.35	110.01
377.54	182.56
377.74	77.24
377.93	39.79
378.13	147.45
378.33	126.39
378.52	133.41
378.72	81.92
378.91	138.09
379.11	93.62
379.31	95.96
379.50	42.13
379.70	126.39
379.89	126.39
380.09	74.90
380.28	135.75
380.48	126.39
380.68	77.24
380.87	72.56
381.07	88.94
381.26	173.20
381.46	156.82
381.65	60.85
381.85	100.64
382.04	138.09
382.24	126.39
382.43	117.03
382.63	119.37
382.83	77.24
383.02	203.63
383.22	161.50
383.41	105.32
383.61	86.60
383.80	102.98
384.00	121.71
384.19	56.17
384.39	126.39
384.58	142.77
384.78	98.30
384.97	135.75
385.17	110.01
385.36	133.41
385.56	98.30
385.75	173.20
385.95	121.71
386.14	145.11
386.34	142.77
386.53	119.37
386.72	77.24
386.92	16.38
387.11	133.41
387.31	133.41
387.50	112.35
387.70	208.31
387.89	142.77
388.09	14.04
388.28	100.64
388.48	147.45
388.67	105.32
388.86	138.09
389.06	140.43
389.25	156.82
389.45	100.64
389.64	102.98
389.84	100.64
390.03	128.73
390.22	161.50
390.42	121.71
390.61	91.28
390.81	131.07
391.00	88.94
391.19	121.71
391.39	182.56
391.58	194.26
391.78	140.43
391.97	154.48
392.16	93.62
392.36	135.75
392.55	131.07
392.75	133.41
392.94	114.69
393.13	154.48
393.33	110.01
393.52	91.28
393.71	124.05
393.91	135.75
394.10	53.83
394.29	84.26
394.49	117.03
394.68	152.13
394.88	110.01
395.07	187.24
395.26	133.41
395.46	133.41
395.65	145.11
395.84	147.45
396.04	238.73
396.23	51.49
396.42	159.16
396.62	95.96
396.81	142.77
397.00	28.09
397.19	91.28
397.39	152.13
397.58	117.03
397.77	147.45
397.97	156.82
398.16	126.39
398.35	124.05
398.55	110.01
398.74	138.09
398.93	140.43
399.12	121.71
399.32	65.54
399.51	114.69
399.70	161.50
399.90	182.56
400.09	145.11
400.28	95.96
400.47	131.07
400.67	138.09
400.86	121.71
401.05	184.90
401.24	212.99
401.44	201.29
401.63	93.62
401.82	102.98
402.01	95.96
402.21	159.16
402.40	163.84
402.59	128.73
402.78	100.64
402.97	84.26
403.17	184.90
403.36	154.48
403.55	173.20
403.74	168.52
403.93	175.54
404.13	313.63
404.32	334.70
404.51	234.05
404.70	308.95
404.89	182.56
405.09	126.39
405.28	135.75
405.47	140.43
405.66	140.43
405.85	140.43
406.05	173.20
406.24	152.13
406.43	102.98
406.62	126.39
406.81	175.54
407.00	212.99
407.20	140.43
407.39	173.20
407.58	177.88
407.77	184.90
407.96	175.54
408.15	203.63
408.34	198.95
408.54	140.43
408.73	145.11
408.92	191.92
409.11	201.29
409.30	175.54
409.49	140.43
409.68	161.50
409.87	175.54
410.07	161.50
410.26	128.73
410.45	135.75
410.64	114.69
410.83	135.75
411.02	191.92
411.21	168.52
411.40	184.90
411.59	110.01
411.78	128.73
411.98	149.79
412.17	154.48
412.36	161.50
412.55	138.09
412.74	201.29
412.93	203.63
413.12	149.79
413.31	196.60
413.50	140.43
413.69	126.39
413.88	201.29
414.07	203.63
414.26	208.31
414.45	163.84
414.64	189.58
414.83	215.33
415.02	98.30
415.22	138.09
415.41	184.90
415.60	105.32
415.79	124.05
415.98	128.73
416.17	135.75
416.36	98.30
416.55	138.09
416.74	135.75
416.93	184.90
417.12	182.56
417.31	166.18
417.50	161.50
417.69	140.43
417.88	159.16
418.07	110.01
418.26	175.54
418.45	189.58
418.64	173.20
418.83	149.79
419.02	152.13
419.21	250.44
419.39	255.12
419.58	161.50
419.77	166.18
419.96	161.50
420.15	187.24
420.34	250.44
420.53	110.01
420.72	224.69
420.91	241.08
421.10	173.20
421.29	182.56
421.48	189.58
421.67	93.62
421.86	161.50
422.05	119.37
422.24	95.96
422.43	166.18
422.61	81.92
422.80	117.03
422.99	121.71
423.18	131.07
423.37	133.41
423.56	191.92
423.75	119.37
423.94	194.26
424.13	145.11
424.32	203.63
424.50	173.20
424.69	236.39
424.88	187.24
425.07	65.54
425.26	222.35
425.45	215.33
425.64	156.82
425.83	114.69
426.01	220.01
426.20	152.13
426.39	133.41
426.58	140.43
426.77	180.22
426.96	222.35
427.15	166.18
427.33	112.35
427.52	117.03
427.71	86.60
427.90	161.50
428.09	149.79
428.28	128.73
428.46	149.79
428.65	184.90
428.84	159.16
429.03	205.97
429.22	102.98
429.40	128.73
429.59	166.18
429.78	194.26
429.97	154.48
430.16	133.41
430.34	117.03
430.53	128.73
430.72	112.35
430.91	156.82
431.10	175.54
431.28	182.56
431.47	187.24
431.66	58.51
431.85	159.16
432.03	170.86
432.22	241.08
432.41	147.45
432.60	149.79
432.79	161.50
432.97	210.65
433.16	135.75
433.35	112.35
433.54	201.29
433.72	149.79
433.91	222.35
434.10	196.60
434.28	205.97
434.47	121.71
434.66	266.82
434.85	196.60
435.03	362.78
435.22	578.11
435.41	763.01
435.59	812.17
435.78	662.37
435.97	395.55
436.16	271.50
436.34	234.05
436.53	257.46
436.72	280.86
436.90	203.63
437.09	243.42
437.28	156.82
437.46	173.20
437.65	264.48
437.84	222.35
438.02	189.58
438.21	182.56
438.40	189.58
438.58	180.22
438.77	196.60
438.96	121.71
439.14	173.20
439.33	112.35
439.52	170.86
439.70	140.43
439.89	161.50
440.08	217.67
440.26	163.84
440.45	159.16
440.63	175.54
440.82	177.88
441.01	156.82
441.19	156.82
441.38	133.41
441.57	149.79
441.75	210.65
441.94	128.73
442.12	220.01
442.31	126.39
442.50	152.13
442.68	173.20
442.87	210.65
443.05	133.41
443.24	217.67
443.43	210.65
443.61	227.03
443.80	189.58
443.98	147.45
444.17	259.80
444.35	224.69
444.54	210.65
444.73	238.73
444.91	238.73
445.10	236.39
445.28	77.24
445.47	156.82
445.65	170.86
445.84	194.26
446.02	210.65
446.21	126.39
446.39	189.58
446.58	191.92
446.77	194.26
446.95	163.84
447.14	149.79
447.32	224.69
447.51	210.65
447.69	212.99
447.88	203.63
448.06	220.01
448.25	212.99
448.43	119.37
448.62	194.26
448.80	198.95
448.99	196.60
449.17	201.29
449.36	154.48
449.54	184.90
449.73	159.16
449.91	276.18
450.10	187.24
450.28	283.20
450.46	241.08
450.65	133.41
450.83	138.09
451.02	184.90
451.20	156.82
451.39	140.43
451.57	102.98
451.76	142.77
451.94	138.09
452.13	182.56
452.31	252.78
452.49	201.29
452.68	205.97
452.86	140.43
453.05	236.39
453.23	119.37
453.42	128.73
453.60	128.73
453.78	133.41
453.97	189.58
454.15	154.48
454.34	147.45
454.52	180.22
454.70	227.03
454.89	175.54
455.07	98.30
455.26	133.41
455.44	210.65
455.62	177.88
455.81	243.42
455.99	205.97
456.17	173.20
456.36	210.65
456.54	194.26
456.73	156.82
456.91	194.26
457.09	208.31
457.28	173.20
457.46	175.54
457.64	140.43
457.83	156.82
458.01	234.05
458.19	250.44
458.38	182.56
458.56	189.58
458.74	154.48
458.93	191.92
459.11	262.14
459.29	238.73
459.48	271.50
459.66	203.63
459.84	203.63
460.03	322.99
460.21	177.88
460.39	154.48
460.57	205.97
460.76	194.26
460.94	175.54
461.12	159.16
461.31	257.46
461.49	220.01
461.67	222.35
461.85	250.44
462.04	210.65
462.22	653.01
462.40	241.08
462.59	241.08
462.77	154.48
462.95	184.90
463.13	220.01
463.32	311.29
463.50	234.05
463.68	252.78
463.86	166.18
464.05	156.82
464.23	170.86
464.41	194.26
464.59	149.79
464.78	121.71
464.96	210.65
465.14	142.77
465.32	205.97
465.50	182.56
465.69	140.43
465.87	166.18
466.05	180.22
466.23	175.54
466.41	145.11
466.60	243.42
466.78	191.92
466.96	227.03
467.14	191.92
467.32	220.01
467.51	215.33
467.69	248.10
467.87	220.01
468.05	203.63
468.23	182.56
468.41	217.67
468.60	184.90
468.78	168.52
468.96	173.20
469.14	203.63
469.32	177.88
469.50	182.56
469.69	205.97
469.87	208.31
470.05	173.20
470.23	182.56
470.41	191.92
470.59	184.90
470.77	208.31
470.95	234.05
471.14	250.44
471.32	212.99
471.50	278.52
471.68	212.99
471.86	280.86
472.04	222.35
472.22	250.44
472.40	201.29
472.58	161.50
472.77	119.37
472.95	154.48
473.13	205.97
473.31	238.73
473.49	163.84
473.67	187.24
473.85	231.71
474.03	250.44
474.21	287.89
474.39	241.08
474.57	250.44
474.75	290.23
474.93	201.29
475.12	245.76
475.30	180.22
475.48	205.97
475.66	222.35
475.84	208.31
476.02	198.95
476.20	175.54
476.38	166.18
476.56	276.18
476.74	191.92
476.92	245.76
477.10	255.12
477.28	273.84
477.46	210.65
477.64	201.29
477.82	250.44
478.00	184.90
478.18	248.10
478.36	217.67
478.54	301.93
478.72	245.76
478.90	257.46
479.08	208.31
479.26	187.24
479.44	180.22
479.62	156.82
479.80	224.69
479.98	222.35
480.16	182.56
480.34	315.97
480.52	220.01
480.70	259.80
480.88	241.08
481.06	161.50
481.24	154.48
481.41	196.60
481.59	297.25
481.77	187.24
481.95	224.69
482.13	308.95
482.31	208.31
482.49	255.12
482.67	201.29
482.85	250.44
483.03	287.89
483.21	271.50
483.39	201.29
483.57	259.80
483.74	297.25
483.92	294.91
484.10	220.01
484.28	311.29
484.46	294.91
484.64	234.05
484.82	248.10
485.00	248.10
485.18	351.08
485.35	308.95
485.53	259.80
485.71	355.76
485.89	180.22
486.07	229.37
486.25	334.70
486.43	379.17
486.61	379.17
486.78	365.12
486.96	257.46
487.14	320.65
487.32	334.70
487.50	374.49
487.68	287.89
487.85	276.18
488.03	339.38
488.21	308.95
488.39	351.08
488.57	325.33
488.75	348.74
488.92	599.18
489.10	358.10
489.28	351.08
489.46	318.31
489.64	318.31
489.81	278.52
489.99	369.80
490.17	351.08
490.35	365.12
490.53	322.99
490.70	367.46
490.88	299.59
491.06	255.12
491.24	325.33
491.41	423.64
491.59	334.70
491.77	320.65
491.95	297.25
492.13	290.23
492.30	383.85
492.48	276.18
492.66	308.95
492.84	311.29
493.01	388.53
493.19	365.12
493.37	348.74
493.54	376.83
493.72	362.78
493.90	304.27
494.08	264.48
494.25	351.08
494.43	313.63
494.61	346.40
494.79	360.44
494.96	290.23
495.14	287.89
495.32	369.80
495.49	315.97
495.67	287.89
495.85	374.49
496.02	306.61
496.20	292.57
496.38	337.04
496.55	374.49
496.73	304.27
496.91	294.91
497.09	278.52
497.26	318.31
497.44	325.33
497.62	367.46
497.79	330.02
497.97	339.38
498.14	271.50
498.32	325.33
498.50	318.31
498.67	334.70
498.85	334.70
499.03	290.23
499.20	304.27
499.38	311.29
499.56	344.06
499.73	395.55
499.91	318.31
500.08	304.27
500.26	344.06
500.44	280.86
500.61	353.42
500.79	283.20
500.97	271.50
501.14	327.68
501.32	299.59
501.49	395.55
501.67	266.82
501.84	224.69
502.02	327.68
502.20	313.63
502.37	322.99
502.55	276.18
502.72	327.68
502.90	351.08
503.07	278.52
503.25	318.31
503.43	252.78
503.60	276.18
503.78	269.16
503.95	236.39
504.13	320.65
504.30	187.24
504.48	308.95
504.65	283.20
504.83	330.02
505.01	287.89
505.18	337.04
505.36	285.55
505.53	222.35
505.71	301.93
505.88	280.86
506.06	285.55
506.23	269.16
506.41	196.60
506.58	294.91
506.76	318.31
506.93	278.52
507.11	285.55
507.28	248.10
507.46	299.59
507.63	355.76
507.81	255.12
507.98	189.58
508.16	386.19
508.33	334.70
508.50	292.57
508.68	320.65
508.85	313.63
509.03	397.89
509.20	308.95
509.38	276.18
509.55	358.10
509.73	250.44
509.90	327.68
510.08	341.72
510.25	337.04
510.42	304.27
510.60	301.93
510.77	315.97
510.95	360.44
511.12	290.23
511.30	330.02
511.47	304.27
511.64	355.76
511.82	376.83
511.99	376.83
512.17	308.95
512.34	327.68
512.51	285.55
512.69	348.74
512.86	355.76
513.04	313.63
513.21	346.40
513.38	395.55
513.56	294.91
513.73	362.78
513.90	346.40
514.08	313.63
514.25	325.33
514.43	337.04
514.60	301.93
514.77	388.53
514.95	318.31
515.12	358.10
515.29	341.72
515.47	304.27
515.64	344.06
515.81	337.04
515.99	358.10
516.16	353.42
516.33	379.17
516.51	355.76
516.68	308.95
516.85	379.17
517.03	248.10
517.20	297.25
517.37	255.12
517.54	327.68
517.72	292.57
517.89	262.14
518.06	304.27
518.24	257.46
518.41	388.53
518.58	346.40
518.75	348.74
518.93	414.27
519.10	397.89
519.27	353.42
519.45	259.80
519.62	318.31
519.79	346.40
519.96	351.08
520.14	390.87
520.31	304.27
520.48	313.63
520.65	365.12
520.83	369.80
521.00	341.72
521.17	318.31
521.34	341.72
521.52	283.20
521.69	388.53
521.86	355.76
522.03	346.40
522.20	358.10
522.38	315.97
522.55	353.42
522.72	273.84
522.89	346.40
523.07	442.36
523.24	390.87
523.41	332.36
523.58	297.25
523.75	348.74
523.92	409.59
524.10	395.55
524.27	355.76
524.44	362.78
524.61	390.87
524.78	365.12
524.96	304.27
525.13	344.06
525.30	348.74
525.47	367.46
525.64	355.76
525.81	386.19
525.98	379.17
526.16	320.65
526.33	313.63
526.50	231.71
526.67	358.10
526.84	318.31
527.01	320.65
527.18	348.74
527.36	407.25
527.53	301.93
527.70	304.27
527.87	294.91
528.04	390.87
528.21	360.44
528.38	477.47
528.55	449.38
528.72	418.96
528.89	430.66
529.07	287.89
529.24	322.99
529.41	414.27
529.58	383.85
529.75	386.19
529.92	395.55
530.09	367.46
530.26	454.06
530.43	351.08
530.60	301.93
530.77	390.87
530.94	388.53
531.11	346.40
531.28	346.40
531.46	421.30
531.63	381.51
531.80	411.93
531.97	376.83
532.14	332.36
532.31	393.21
532.48	425.98
532.65	454.06
532.82	411.93
532.99	360.44
533.16	447.04
533.33	416.62
533.50	416.62
533.67	386.19
533.84	433.00
534.01	447.04
534.18	320.65
534.35	402.57
534.52	397.89
534.69	475.13
534.86	468.11
535.03	402.57
535.20	465.77
535.37	428.32
535.54	524.28
535.71	397.89
535.88	430.66
536.05	461.09
536.22	414.27
536.38	482.15
536.55	521.94
536.72	447.04
536.89	454.06
537.06	386.19
537.23	528.96
537.40	587.47
537.57	500.87
537.74	482.15
537.91	561.73
538.08	528.96
538.25	596.84
538.42	514.92
538.59	545.34
538.75	510.24
538.92	622.58
539.09	566.41
539.26	596.84
539.43	655.35
539.60	622.58
539.77	734.93
539.94	648.33
540.11	688.12
540.28	770.04
540.44	940.90
540.61	816.85
540.78	877.70
540.95	1048.56
541.12	1179.63
541.29	1235.80
541.46	1324.74
541.62	1322.40
541.79	1341.13
541.96	1378.58
542.13	1291.98
542.30	1322.40
542.47	1301.34
542.63	1329.42
542.80	1214.74
542.97	1308.36
543.14	1219.42
543.31	1235.80
543.48	1336.45
543.64	1256.87
543.81	1151.54
543.98	1270.91
544.15	1240.48
544.32	1184.31
544.48	1245.16
544.65	1198.35
544.82	1149.20
544.99	1111.75
545.16	1214.74
545.32	1179.63
545.49	1701.57
545.66	2443.52
545.83	3038.02
546.00	2787.58
546.16	1998.82
546.33	1479.22
546.50	1214.74
546.67	1039.20
546.83	809.83
547.00	842.59
547.17	795.78
547.34	847.27
547.50	760.67
547.67	795.78
547.84	741.95
548.00	753.65
548.17	692.80
548.34	744.29
548.51	704.50
548.67	802.80
548.84	678.76
549.01	657.69
549.18	709.18
549.34	711.52
549.51	592.16
549.68	692.80
549.84	622.58
550.01	636.63
550.18	718.54
550.34	741.95
550.51	592.16
550.68	676.41
550.84	678.76
551.01	559.39
551.18	643.65
551.34	547.69
551.51	486.83
551.68	561.73
551.84	528.96
552.01	531.30
552.18	561.73
552.34	594.50
552.51	533.64
552.68	425.98
552.84	447.04
553.01	496.19
553.18	540.66
553.34	451.72
553.51	456.40
553.67	468.11
553.84	496.19
554.01	437.68
554.17	484.49
554.34	400.23
554.51	461.09
554.67	423.64
554.84	425.98
555.00	381.51
555.17	376.83
555.33	374.49
555.50	423.64
555.67	383.85
555.83	447.04
556.00	388.53
556.16	507.90
556.33	311.29
556.50	304.27
556.66	442.36
556.83	404.91
556.99	353.42
557.16	425.98
557.32	344.06
557.49	388.53
557.65	337.04
557.82	332.36
557.98	372.15
558.15	397.89
558.32	397.89
558.48	313.63
558.65	308.95
558.81	297.25
558.98	322.99
559.14	351.08
559.31	355.76
559.47	367.46
559.64	320.65
559.80	311.29
559.97	304.27
560.13	351.08
560.30	358.10
560.46	320.65
560.63	360.44
560.79	367.46
560.96	421.30
561.12	337.04
561.29	416.62
561.45	390.87
561.61	390.87
561.78	435.34
561.94	315.97
562.11	297.25
562.27	397.89
562.44	365.12
562.60	348.74
562.77	325.33
562.93	402.57
563.10	418.96
563.26	341.72
563.42	414.27
563.59	374.49
563.75	337.04
563.92	407.25
564.08	334.70
564.24	397.89
564.41	458.74
564.57	358.10
564.74	325.33
564.90	362.78
565.07	332.36
565.23	362.78
565.39	379.17
565.56	390.87
565.72	280.86
565.88	360.44
566.05	341.72
566.21	341.72
566.38	334.70
566.54	315.97
566.70	334.70
566.87	301.93
567.03	320.65
567.19	306.61
567.36	379.17
567.52	374.49
567.68	334.70
567.85	440.02
568.01	348.74
568.17	337.04
568.34	360.44
568.50	287.89
568.66	278.52
568.83	397.89
568.99	337.04
569.15	369.80
569.32	285.55
569.48	402.57
569.64	290.23
569.81	362.78
569.97	418.96
570.13	318.31
570.30	376.83
570.46	358.10
570.62	332.36
570.78	257.46
570.95	315.97
571.11	337.04
571.27	381.51
571.43	266.82
571.60	341.72
571.76	362.78
571.92	404.91
572.09	355.76
572.25	346.40
572.41	334.70
572.57	372.15
572.74	402.57
572.90	407.25
573.06	414.27
573.22	348.74
573.38	440.02
573.55	397.89
573.71	435.34
573.87	327.68
574.03	365.12
574.20	414.27
574.36	346.40
574.52	330.02
574.68	346.40
574.84	327.68
575.01	346.40
575.17	360.44
575.33	395.55
575.49	353.42
575.65	372.15
575.82	374.49
575.98	351.08
576.14	334.70
576.30	395.55
576.46	566.41
576.62	793.44
576.79	849.61
576.95	765.36
577.11	507.90
577.27	528.96
577.43	496.19
577.59	374.49
577.75	423.64
577.92	383.85
578.08	353.42
578.24	353.42
578.40	425.98
578.56	575.77
578.72	837.91
578.88	863.66
579.04	725.57
579.21	655.35
579.37	517.26
579.53	512.58
579.69	486.83
579.85	505.56
580.01	547.69
580.17	587.47
580.33	458.74
580.49	514.92
580.65	517.26
580.82	456.40
580.98	433.00
581.14	440.02
581.30	489.17
581.46	454.06
581.62	535.98
581.78	484.49
581.94	512.58
582.10	472.79
582.26	557.05
582.42	521.94
582.58	582.79
582.74	510.24
582.90	526.62
583.06	554.71
583.22	629.60
583.38	620.24
583.54	557.05
583.70	648.33
583.86	566.41
584.02	528.96
584.18	711.52
584.34	552.37
584.50	606.20
584.66	580.45
584.82	571.09
584.98	496.19
585.14	475.13
585.30	521.94
585.46	657.69
585.62	440.02
585.78	578.11
585.94	496.19
586.10	540.66
586.26	582.79
586.42	603.86
586.58	608.54
586.74	643.65
586.90	725.57
587.06	699.82
587.22	741.95
587.38	660.03
587.54	669.39
587.70	629.60
587.86	594.50
588.02	535.98
588.18	568.75
588.34	526.62
588.49	365.12
588.65	397.89
588.81	477.47
588.97	414.27
589.13	451.72
589.29	360.44
589.45	449.38
589.61	458.74
589.77	519.60
589.93	397.89
590.08	425.98
590.24	386.19
590.40	414.27
590.56	519.60
590.72	454.06
590.88	402.57
591.04	407.25
591.20	461.09
591.35	465.77
591.51	500.87
591.67	500.87
591.83	528.96
591.99	512.58
592.15	524.28
592.31	486.83
592.46	465.77
592.62	634.29
592.78	603.86
592.94	559.39
593.10	571.09
593.26	575.77
593.41	580.45
593.57	580.45
593.73	486.83
593.89	505.56
594.05	376.83
594.20	360.44
594.36	397.89
594.52	397.89
594.68	407.25
594.84	397.89
594.99	479.81
595.15	397.89
595.31	421.30
595.47	388.53
595.62	433.00
595.78	362.78
595.94	360.44
596.10	414.27
596.25	428.32
596.41	365.12
596.57	423.64
596.73	402.57
596.88	365.12
597.04	397.89
597.20	416.62
597.36	409.59
597.51	393.21
597.67	397.89
597.83	461.09
597.99	461.09
598.14	435.34
598.30	486.83
598.46	444.70
598.61	484.49
598.77	400.23
598.93	510.24
599.09	507.90
599.24	505.56
599.40	512.58
599.56	524.28
599.71	468.11
599.87	416.62
600.03	454.06
600.18	428.32
600.34	397.89
600.50	428.32
600.65	423.64
600.81	493.85
600.97	381.51
601.12	362.78
601.28	433.00
601.44	428.32
601.59	397.89
601.75	430.66
601.91	397.89
602.06	402.57
602.22	475.13
602.37	475.13
602.53	411.93
602.69	425.98
602.84	299.59
603.00	407.25
603.16	362.78
603.31	421.30
603.47	400.23
603.62	397.89
603.78	351.08
603.94	367.46
604.09	395.55
604.25	397.89
604.40	404.91
604.56	379.17
604.71	395.55
604.87	337.04
605.03	458.74
605.18	409.59
605.34	353.42
605.49	393.21
605.65	379.17
605.80	379.17
605.96	463.43
606.12	433.00
606.27	407.25
606.43	376.83
606.58	390.87
606.74	339.38
606.89	393.21
607.05	533.64
607.20	538.32
607.36	528.96
607.51	454.06
607.67	477.47
607.82	514.92
607.98	498.53
608.13	547.69
608.29	454.06
608.44	491.51
608.60	613.22
608.75	606.20
608.91	695.14
609.06	674.07
609.22	648.33
609.37	681.10
609.53	748.97
609.68	898.77
609.84	880.04
609.99	964.30
610.15	1100.05
610.30	1273.25
610.46	1617.31
610.61	1937.96
610.76	2417.77
610.92	2780.56
611.07	3094.19
611.23	3358.67
611.38	3105.89
611.54	2708.00
611.69	2370.96
611.84	1982.43
612.00	1790.51
612.15	1500.28
612.31	1280.27
612.46	1153.88
612.62	1165.59
612.77	1146.86
612.92	1083.67
613.08	1048.56
613.23	1062.60
613.39	978.34
613.54	1055.58
613.69	889.40
613.85	910.47
614.00	992.39
614.15	997.07
614.31	924.51
614.46	889.40
614.62	945.58
614.77	826.21
614.92	805.14
615.08	777.06
615.23	739.61
615.38	823.87
615.54	702.16
615.69	653.01
615.84	688.12
616.00	585.13
616.15	564.07
616.30	468.11
616.46	404.91
616.61	535.98
616.76	564.07
616.92	566.41
617.07	484.49
617.22	475.13
617.37	458.74
617.53	486.83
617.68	552.37
617.83	428.32
617.99	468.11
618.14	456.40
618.29	524.28
618.45	416.62
618.60	386.19
618.75	409.59
618.90	402.57
619.06	395.55
619.21	505.56
619.36	449.38
619.51	397.89
619.67	358.10
619.82	486.83
619.97	423.64
620.12	465.77
620.28	430.66
620.43	482.15
620.58	535.98
620.73	547.69
620.89	472.79
621.04	505.56
621.19	414.27
621.34	400.23
621.49	482.15
621.65	503.22
621.80	397.89
621.95	374.49
622.10	430.66
622.25	425.98
622.41	479.81
622.56	465.77
622.71	468.11
622.86	512.58
623.01	482.15
623.16	477.47
623.32	430.66
623.47	411.93
623.62	475.13
623.77	489.17
623.92	514.92
624.07	360.44
624.23	444.70
624.38	531.30
624.53	458.74
624.68	486.83
624.83	514.92
624.98	447.04
625.13	425.98
625.29	411.93
625.44	428.32
625.59	416.62
625.74	435.34
625.89	416.62
626.04	397.89
626.19	423.64
626.34	418.96
626.49	458.74
626.65	454.06
626.80	402.57
626.95	390.87
627.10	416.62
627.25	393.21
627.40	402.57
627.55	369.80
627.70	386.19
627.85	407.25
628.00	308.95
628.15	337.04
628.30	400.23
628.45	365.12
628.60	297.25
628.76	308.95
628.91	435.34
629.06	351.08
629.21	407.25
629.36	341.72
629.51	374.49
629.66	451.72
629.81	433.00
629.96	442.36
630.11	578.11
630.26	543.00
630.41	533.64
630.56	540.66
630.71	568.75
630.86	521.94
631.01	468.11
631.16	535.98
631.31	578.11
631.46	482.15
631.61	411.93
631.76	428.32
631.91	386.19
632.06	369.80
632.21	414.27
632.36	337.04
632.51	322.99
632.66	304.27
632.81	294.91
632.96	231.71
633.10	301.93
633.25	308.95
633.40	393.21
633.55	360.44
633.70	250.44
633.85	325.33
634.00	297.25
634.15	243.42
634.30	320.65
634.45	236.39
634.60	248.10
634.75	220.01
634.90	318.31
635.05	304.27
635.19	313.63
635.34	236.39
635.49	353.42
635.64	290.23
635.79	271.50
635.94	299.59
636.09	257.46
636.24	369.80
636.39	344.06
636.53	304.27
636.68	266.82
636.83	292.57
636.98	306.61
637.13	320.65
637.28	304.27
637.43	341.72
637.57	276.18
637.72	294.91
637.87	320.65
638.02	255.12
638.17	283.20
638.32	262.14
638.46	308.95
638.61	374.49
638.76	280.86
638.91	257.46
639.06	220.01
639.20	287.89
639.35	266.82
639.50	339.38
639.65	308.95
639.80	271.50
639.94	332.36
640.09	322.99
640.24	262.14
640.39	266.82
640.54	292.57
640.68	322.99
640.83	229.37
640.98	224.69
641.13	271.50
641.27	210.65
641.42	212.99
641.57	276.18
641.72	297.25
641.86	325.33
642.01	238.73
642.16	257.46
642.31	273.84
642.45	301.93
642.60	318.31
642.75	259.80
642.90	299.59
643.04	180.22
643.19	264.48
643.34	311.29
643.48	285.55
643.63	177.88
643.78	262.14
643.93	292.57
644.07	266.82
644.22	248.10
644.37	299.59
644.51	297.25
644.66	301.93
644.81	334.70
644.95	313.63
645.10	264.48
645.25	278.52
645.39	379.17
645.54	248.10
645.69	315.97
645.83	299.59
645.98	250.44
646.13	189.58
646.27	250.44
646.42	243.42
646.57	243.42
646.71	220.01
646.86	255.12
647.00	283.20
647.15	236.39
647.30	234.05
647.44	290.23
647.59	180.22
647.74	231.71
647.88	203.63
648.03	283.20
648.17	285.55
648.32	266.82
648.47	191.92
648.61	245.76
648.76	278.52
648.90	241.08
649.05	285.55
649.20	215.33
649.34	299.59
649.49	334.70
649.63	194.26
649.78	262.14
649.92	341.72
650.07	325.33
650.21	308.95
650.36	301.93
650.51	341.72
650.65	308.95
650.80	304.27
650.94	215.33
651.09	315.97
651.23	280.86
651.38	241.08
651.52	231.71
651.67	196.60
651.81	276.18
651.96	304.27
652.10	306.61
652.25	278.52
652.39	292.57
652.54	278.52
652.68	332.36
652.83	346.40
652.97	262.14
653.12	327.68
653.26	315.97
653.41	257.46
653.55	334.70
653.70	161.50
653.84	252.78
653.99	229.37
654.13	259.80
654.27	259.80
654.42	269.16
654.56	248.10
654.71	238.73
654.85	245.76
655.00	201.29
655.14	227.03
655.29	163.84
655.43	250.44
655.57	238.73
655.72	250.44
655.86	173.20
656.01	255.12
656.15	198.95
656.30	180.22
656.44	194.26
656.58	224.69
656.73	220.01
656.87	273.84
657.01	257.46
657.16	255.12
657.30	299.59
657.45	308.95
657.59	266.82
657.73	208.31
657.88	257.46
658.02	278.52
658.16	269.16
658.31	231.71
658.45	276.18
658.60	189.58
658.74	229.37
658.88	259.80
659.03	259.80
659.17	231.71
659.31	266.82
659.46	168.52
659.60	243.42
659.74	201.29
659.89	250.44
660.03	222.35
660.17	273.84
660.32	212.99
660.46	271.50
660.60	180.22
660.74	241.08
660.89	259.80
661.03	241.08
661.17	210.65
661.32	224.69
661.46	308.95
661.60	220.01
661.74	306.61
661.89	266.82
662.03	231.71
662.17	245.76
662.31	220.01
662.46	273.84
662.60	372.15
662.74	250.44
662.88	269.16
663.03	271.50
663.17	220.01
663.31	271.50
663.45	236.39
663.60	313.63
663.74	271.50
663.88	264.48
664.02	205.97
664.17	187.24
664.31	212.99
664.45	231.71
664.59	227.03
664.73	217.67
664.88	266.82
665.02	271.50
665.16	266.82
665.30	266.82
665.44	259.80
665.59	241.08
665.73	294.91
665.87	220.01
666.01	252.78
666.15	255.12
666.29	285.55
666.44	198.95
666.58	234.05
666.72	212.99
666.86	257.46
667.00	341.72
667.14	280.86
667.28	257.46
667.43	245.76
667.57	262.14
667.71	227.03
667.85	262.14
667.99	306.61
668.13	175.54
668.27	252.78
668.41	187.24
668.56	252.78
668.70	252.78
668.84	163.84
668.98	196.60
669.12	184.90
669.26	201.29
669.40	353.42
669.54	196.60
669.68	234.05
669.82	156.82
669.96	292.57
670.10	208.31
670.25	257.46
670.39	322.99
670.53	241.08
670.67	250.44
670.81	203.63
670.95	208.31
671.09	285.55
671.23	334.70
671.37	315.97
671.51	234.05
671.65	313.63
671.79	215.33
671.93	264.48
672.07	262.14
672.21	276.18
672.35	135.75
672.49	112.35
672.63	224.69
672.77	231.71
672.91	205.97
673.05	212.99
673.19	255.12
673.33	215.33
673.47	273.84
673.61	212.99
673.75	173.20
673.89	222.35
674.03	252.78
674.17	182.56
674.31	212.99
674.45	245.76
674.59	334.70
674.73	269.16
674.87	236.39
675.01	220.01
675.15	196.60
675.29	234.05
675.43	170.86
675.56	245.76
675.70	201.29
675.84	236.39
675.98	255.12
676.12	149.79
676.26	238.73
676.40	180.22
676.54	231.71
676.68	241.08
676.82	292.57
676.96	142.77
677.10	259.80
677.23	208.31
677.37	208.31
677.51	154.48
677.65	215.33
677.79	189.58
677.93	273.84
678.07	170.86
678.21	170.86
678.34	255.12
678.48	147.45
678.62	224.69
678.76	161.50
678.90	238.73
679.04	231.71
679.18	205.97
679.31	203.63
679.45	189.58
679.59	163.84
679.73	264.48
679.87	154.48
680.00	215.33
680.14	210.65
680.28	163.84
680.42	224.69
680.56	205.97
680.70	203.63
680.83	236.39
680.97	201.29
681.11	177.88
681.25	224.69
681.39	301.93
681.52	163.84
681.66	191.92
681.80	187.24
681.94	229.37
682.07	201.29
682.21	210.65
682.35	191.92
682.49	245.76
682.62	180.22
682.76	198.95
682.90	177.88
683.04	166.18
683.17	208.31
683.31	177.88
683.45	187.24
683.59	238.73
683.72	212.99
683.86	210.65
684.00	205.97
684.13	259.80
684.27	217.67
684.41	220.01
684.55	175.54
684.68	250.44
684.82	119.37
684.96	177.88
685.09	236.39
685.23	215.33
685.37	163.84
685.50	236.39
685.64	227.03
685.78	191.92
685.91	210.65
686.05	313.63
686.19	208.31
686.32	201.29
686.46	187.24
686.60	159.16
686.73	187.24
686.87	147.45
687.01	154.48
687.14	128.73
687.28	173.20
687.42	191.92
687.55	117.03
687.69	222.35
687.82	196.60
687.96	224.69
688.10	145.11
688.23	215.33
688.37	262.14
688.50	180.22
688.64	177.88
688.78	133.41
688.91	170.86
689.05	124.05
689.18	93.62
689.32	142.77
689.46	91.28
689.59	191.92
689.73	191.92
689.86	133.41
690.00	201.29
690.13	114.69
690.27	105.32
690.41	180.22
690.54	229.37
690.68	168.52
690.81	161.50
690.95	252.78
691.08	149.79
691.22	196.60
691.35	175.54
691.49	77.24
691.62	187.24
691.76	149.79
691.89	149.79
692.03	112.35
692.16	121.71
692.30	189.58
692.43	140.43
692.57	161.50
692.70	149.79
692.84	168.52
692.97	152.13
693.11	191.92
693.24	166.18
693.38	149.79
693.51	168.52
693.65	159.16
693.78	147.45
693.92	154.48
694.05	149.79
694.19	131.07
694.32	189.58
694.45	93.62
694.59	161.50
694.72	173.20
694.86	135.75
694.99	154.48
695.13	205.97
695.26	149.79
695.39	180.22
695.53	152.13
695.66	147.45
695.80	212.99
695.93	74.90
696.07	203.63
696.20	126.39
696.33	133.41
696.47	170.86
696.60	131.07
696.73	154.48
696.87	177.88
697.00	203.63
697.14	161.50
697.27	93.62
697.40	194.26
697.54	133.41
697.67	114.69
697.80	159.16
697.94	198.95
698.07	210.65
698.21	112.35
698.34	191.92
698.47	187.24
698.61	77.24
698.74	224.69
698.87	128.73
699.01	126.39
699.14	147.45
699.27	149.79
699.40	248.10
699.54	159.16
699.67	170.86
699.80	147.45
699.94	105.32
700.07	168.52
700.20	86.60
700.34	189.58
700.47	84.26
700.60	138.09
700.73	241.08
700.87	177.88
701.00	161.50
701.13	131.07
701.26	196.60
701.40	147.45
701.53	145.11
701.66	131.07
701.79	170.86
701.93	198.95
702.06	175.54
702.19	135.75
702.32	250.44
702.46	88.94
702.59	145.11
702.72	98.30
702.85	198.95
702.99	149.79
703.12	177.88
703.25	149.79
703.38	177.88
703.51	184.90
703.65	128.73
703.78	159.16
703.91	138.09
704.04	208.31
704.17	147.45
704.31	102.98
704.44	131.07
704.57	133.41
704.70	156.82
704.83	126.39
704.96	201.29
705.10	196.60
705.23	142.77
>>>>>End Processed Spectral Data<<<<<
