SpectraSuite Data File
++++++++++++++++++++++++++++++++++++
Date: Fri Oct 04 11:42:19 GMT-05:00 2013
User: price-jones
Dark Spectrum Present: No
Reference Spectrum Present: No
Number of Sampled Component Spectra: 1
Spectrometers: USB2+H05261
Integration Time (usec): 100000 (USB2+H05261)
Spectra Averaged: 1 (USB2+H05261)
Boxcar Smoothing: 0 (USB2+H05261)
Correct for Electrical Dark: No (USB2+H05261)
Strobe/Lamp Enabled: No (USB2+H05261)
Correct for Detector Non-linearity: No (USB2+H05261)
Correct for Stray Light: No (USB2+H05261)
Number of Pixels in Processed Spectrum: 2048
>>>>>Begin Processed Spectral Data<<<<<
365.73	11.70
365.92	11.70
366.12	11.70
366.32	0.00
366.52	0.00
366.72	0.00
366.91	0.00
367.11	0.00
367.31	11.70
367.51	0.00
367.70	0.00
367.90	0.00
368.10	0.00
368.30	0.00
368.49	0.00
368.69	0.00
368.89	0.00
369.09	0.00
369.28	0.00
369.48	0.00
369.68	0.00
369.87	28.09
370.07	0.00
370.27	21.06
370.47	65.54
370.66	0.00
370.86	0.00
371.06	74.90
371.25	112.35
371.45	35.11
371.65	79.58
371.84	53.83
372.04	65.54
372.24	159.16
372.44	98.30
372.63	135.75
372.83	194.26
373.03	110.01
373.22	119.37
373.42	156.82
373.62	121.71
373.81	100.64
374.01	187.24
374.21	128.73
374.40	107.66
374.60	135.75
374.79	156.82
374.99	107.66
375.19	93.62
375.38	119.37
375.58	149.79
375.78	140.43
375.97	126.39
376.17	173.20
376.37	117.03
376.56	105.32
376.76	107.66
376.95	98.30
377.15	140.43
377.35	163.84
377.54	102.98
377.74	126.39
377.93	145.11
378.13	72.56
378.33	117.03
378.52	154.48
378.72	124.05
378.91	161.50
379.11	93.62
379.31	84.26
379.50	147.45
379.70	77.24
379.89	138.09
380.09	119.37
380.28	124.05
380.48	112.35
380.68	126.39
380.87	93.62
381.07	194.26
381.26	168.52
381.46	84.26
381.65	114.69
381.85	135.75
382.04	95.96
382.24	74.90
382.43	102.98
382.63	79.58
382.83	149.79
383.02	98.30
383.22	182.56
383.41	145.11
383.61	166.18
383.80	117.03
384.00	105.32
384.19	149.79
384.39	138.09
384.58	95.96
384.78	114.69
384.97	117.03
385.17	77.24
385.36	100.64
385.56	145.11
385.75	58.51
385.95	140.43
386.14	135.75
386.34	63.19
386.53	93.62
386.72	56.17
386.92	119.37
387.11	56.17
387.31	81.92
387.50	70.22
387.70	152.13
387.89	105.32
388.09	119.37
388.28	128.73
388.48	128.73
388.67	159.16
388.86	124.05
389.06	49.15
389.25	126.39
389.45	145.11
389.64	121.71
389.84	91.28
390.03	152.13
390.22	102.98
390.42	65.54
390.61	44.47
390.81	67.88
391.00	63.19
391.19	147.45
391.39	95.96
391.58	135.75
391.78	138.09
391.97	117.03
392.16	46.81
392.36	100.64
392.55	173.20
392.75	79.58
392.94	126.39
393.13	142.77
393.33	161.50
393.52	126.39
393.71	107.66
393.91	30.43
394.10	119.37
394.29	79.58
394.49	65.54
394.68	161.50
394.88	163.84
395.07	140.43
395.26	238.73
395.46	149.79
395.65	145.11
395.84	72.56
396.04	189.58
396.23	112.35
396.42	187.24
396.62	173.20
396.81	114.69
397.00	168.52
397.19	102.98
397.39	117.03
397.58	166.18
397.77	79.58
397.97	117.03
398.16	102.98
398.35	191.92
398.55	114.69
398.74	77.24
398.93	187.24
399.12	114.69
399.32	145.11
399.51	126.39
399.70	121.71
399.90	166.18
400.09	166.18
400.28	187.24
400.47	166.18
400.67	196.60
400.86	117.03
401.05	208.31
401.24	149.79
401.44	105.32
401.63	175.54
401.82	163.84
402.01	149.79
402.21	166.18
402.40	121.71
402.59	93.62
402.78	138.09
402.97	98.30
403.17	168.52
403.36	210.65
403.55	203.63
403.74	500.87
403.93	1406.66
404.13	2754.81
404.32	3023.97
404.51	2525.44
404.70	1577.52
404.89	631.94
405.09	255.12
405.28	191.92
405.47	154.48
405.66	112.35
405.85	217.67
406.05	102.98
406.24	135.75
406.43	145.11
406.62	184.90
406.81	208.31
407.00	313.63
407.20	421.30
407.39	559.39
407.58	470.45
407.77	418.96
407.96	264.48
408.15	170.86
408.34	215.33
408.54	182.56
408.73	234.05
408.92	170.86
409.11	149.79
409.30	133.41
409.49	145.11
409.68	138.09
409.87	114.69
410.07	163.84
410.26	184.90
410.45	170.86
410.64	145.11
410.83	166.18
411.02	133.41
411.21	220.01
411.40	159.16
411.59	107.66
411.78	126.39
411.98	222.35
412.17	119.37
412.36	131.07
412.55	95.96
412.74	156.82
412.93	196.60
413.12	166.18
413.31	156.82
413.50	262.14
413.69	180.22
413.88	163.84
414.07	124.05
414.26	173.20
414.45	187.24
414.64	133.41
414.83	236.39
415.02	198.95
415.22	126.39
415.41	177.88
415.60	133.41
415.79	152.13
415.98	215.33
416.17	196.60
416.36	119.37
416.55	140.43
416.74	145.11
416.93	159.16
417.12	203.63
417.31	133.41
417.50	133.41
417.69	255.12
417.88	227.03
418.07	131.07
418.26	212.99
418.45	177.88
418.64	243.42
418.83	217.67
419.02	257.46
419.21	189.58
419.39	180.22
419.58	124.05
419.77	248.10
419.96	191.92
420.15	208.31
420.34	203.63
420.53	224.69
420.72	147.45
420.91	170.86
421.10	212.99
421.29	161.50
421.48	220.01
421.67	257.46
421.86	173.20
422.05	145.11
422.24	276.18
422.43	241.08
422.61	105.32
422.80	191.92
422.99	175.54
423.18	58.51
423.37	229.37
423.56	215.33
423.75	215.33
423.94	191.92
424.13	138.09
424.32	166.18
424.50	241.08
424.69	191.92
424.88	222.35
425.07	177.88
425.26	156.82
425.45	194.26
425.64	229.37
425.83	236.39
426.01	152.13
426.20	222.35
426.39	248.10
426.58	175.54
426.77	201.29
426.96	182.56
427.15	224.69
427.33	245.76
427.52	241.08
427.71	273.84
427.90	301.93
428.09	163.84
428.28	327.68
428.46	238.73
428.65	170.86
428.84	259.80
429.03	262.14
429.22	191.92
429.40	224.69
429.59	245.76
429.78	299.59
429.97	299.59
430.16	177.88
430.34	201.29
430.53	271.50
430.72	315.97
430.91	229.37
431.10	264.48
431.28	255.12
431.47	285.55
431.66	315.97
431.85	308.95
432.03	266.82
432.22	330.02
432.41	287.89
432.60	250.44
432.79	243.42
432.97	257.46
433.16	306.61
433.35	376.83
433.54	365.12
433.72	379.17
433.91	369.80
434.10	524.28
434.28	554.71
434.47	603.86
434.66	601.52
434.85	676.41
435.03	2382.67
435.22	7852.50
435.41	14097.05
435.59	12538.25
435.78	8191.88
435.97	4032.74
436.16	1675.82
436.34	678.76
436.53	449.38
436.72	372.15
436.90	322.99
437.09	330.02
437.28	360.44
437.46	287.89
437.65	269.16
437.84	290.23
438.02	283.20
438.21	266.82
438.40	266.82
438.58	287.89
438.77	252.78
438.96	292.57
439.14	292.57
439.33	297.25
439.52	273.84
439.70	341.72
439.89	315.97
440.08	283.20
440.26	308.95
440.45	330.02
440.63	322.99
440.82	264.48
441.01	358.10
441.19	273.84
441.38	369.80
441.57	243.42
441.75	318.31
441.94	341.72
442.12	407.25
442.31	313.63
442.50	250.44
442.68	327.68
442.87	266.82
443.05	301.93
443.24	194.26
443.43	337.04
443.61	351.08
443.80	304.27
443.98	315.97
444.17	255.12
444.35	325.33
444.54	250.44
444.73	299.59
444.91	299.59
445.10	299.59
445.28	330.02
445.47	318.31
445.65	327.68
445.84	273.84
446.02	283.20
446.21	294.91
446.39	201.29
446.58	297.25
446.77	315.97
446.95	255.12
447.14	245.76
447.32	341.72
447.51	250.44
447.69	278.52
447.88	278.52
448.06	330.02
448.25	252.78
448.43	273.84
448.62	220.01
448.80	271.50
448.99	264.48
449.17	327.68
449.36	264.48
449.54	285.55
449.73	271.50
449.91	322.99
450.10	229.37
450.28	306.61
450.46	250.44
450.65	290.23
450.83	292.57
451.02	236.39
451.20	276.18
451.39	313.63
451.57	327.68
451.76	273.84
451.94	313.63
452.13	217.67
452.31	280.86
452.49	337.04
452.68	308.95
452.86	276.18
453.05	301.93
453.23	311.29
453.42	229.37
453.60	243.42
453.78	255.12
453.97	248.10
454.15	280.86
454.34	229.37
454.52	306.61
454.70	264.48
454.89	320.65
455.07	285.55
455.26	299.59
455.44	313.63
455.62	313.63
455.81	287.89
455.99	301.93
456.17	318.31
456.36	292.57
456.54	301.93
456.73	271.50
456.91	330.02
457.09	273.84
457.28	262.14
457.46	266.82
457.64	376.83
457.83	308.95
458.01	276.18
458.19	285.55
458.38	231.71
458.56	348.74
458.74	362.78
458.93	290.23
459.11	313.63
459.29	252.78
459.48	245.76
459.66	320.65
459.84	262.14
460.03	386.19
460.21	322.99
460.39	271.50
460.57	304.27
460.76	285.55
460.94	339.38
461.12	346.40
461.31	332.36
461.49	276.18
461.67	283.20
461.85	313.63
462.04	177.88
462.22	383.85
462.40	285.55
462.59	299.59
462.77	292.57
462.95	367.46
463.13	276.18
463.32	264.48
463.50	278.52
463.68	276.18
463.86	292.57
464.05	255.12
464.23	299.59
464.41	250.44
464.59	266.82
464.78	271.50
464.96	306.61
465.14	325.33
465.32	252.78
465.50	311.29
465.69	374.49
465.87	301.93
466.05	322.99
466.23	250.44
466.41	269.16
466.60	388.53
466.78	264.48
466.96	301.93
467.14	330.02
467.32	271.50
467.51	250.44
467.69	341.72
467.87	250.44
468.05	189.58
468.23	294.91
468.41	238.73
468.60	330.02
468.78	283.20
468.96	315.97
469.14	292.57
469.32	212.99
469.50	236.39
469.69	285.55
469.87	255.12
470.05	315.97
470.23	334.70
470.41	243.42
470.59	304.27
470.77	227.03
470.95	322.99
471.14	271.50
471.32	236.39
471.50	313.63
471.68	358.10
471.86	318.31
472.04	252.78
472.22	285.55
472.40	241.08
472.58	304.27
472.77	294.91
472.95	353.42
473.13	372.15
473.31	315.97
473.49	285.55
473.67	234.05
473.85	290.23
474.03	301.93
474.21	299.59
474.39	262.14
474.57	318.31
474.75	322.99
474.93	325.33
475.12	278.52
475.30	243.42
475.48	236.39
475.66	315.97
475.84	234.05
476.02	280.86
476.20	304.27
476.38	231.71
476.56	393.21
476.74	301.93
476.92	294.91
477.10	301.93
477.28	304.27
477.46	322.99
477.64	243.42
477.82	362.78
478.00	248.10
478.18	280.86
478.36	318.31
478.54	252.78
478.72	313.63
478.90	325.33
479.08	395.55
479.26	262.14
479.44	280.86
479.62	318.31
479.80	362.78
479.98	299.59
480.16	379.17
480.34	402.57
480.52	346.40
480.70	430.66
480.88	393.21
481.06	355.76
481.24	379.17
481.41	440.02
481.59	521.94
481.77	587.47
481.95	571.09
482.13	589.82
482.31	582.79
482.49	636.63
482.67	678.76
482.85	641.31
483.03	767.70
483.21	695.14
483.39	732.59
483.57	770.04
483.74	830.89
483.92	924.51
484.10	936.21
484.28	1053.24
484.46	1050.90
484.64	1060.26
484.82	1107.07
485.00	1158.57
485.18	1146.86
485.35	1282.61
485.53	1371.55
485.71	1359.85
485.89	1390.28
486.07	1460.49
486.25	1521.35
486.43	1526.03
486.61	1455.81
486.78	1409.00
486.96	1444.11
487.14	1481.56
487.32	1446.45
487.50	1483.90
487.68	1439.43
487.85	1490.92
488.03	1462.83
488.21	1451.13
488.39	1409.00
488.57	1394.96
488.75	1371.55
488.92	1556.46
489.10	1224.10
489.28	1301.34
489.46	1214.74
489.64	1198.35
489.81	1207.72
489.99	1165.59
490.17	1128.14
490.35	1193.67
490.53	1097.71
490.70	1088.35
490.88	1170.27
491.06	1167.93
491.24	1221.76
491.41	1261.55
491.59	1203.04
491.77	1095.37
491.95	1114.10
492.13	1104.73
492.30	1083.67
492.48	1069.62
492.66	1069.62
492.84	994.73
493.01	992.39
493.19	945.58
493.37	987.71
493.54	980.68
493.72	987.71
493.90	936.21
494.08	957.28
494.25	959.62
494.43	971.32
494.61	908.13
494.79	917.49
494.96	760.67
495.14	898.77
495.32	884.72
495.49	828.55
495.67	884.72
495.85	866.00
496.02	755.99
496.20	788.76
496.38	833.23
496.55	786.42
496.73	772.38
496.91	716.20
497.09	849.61
497.26	737.27
497.44	676.41
497.62	727.91
497.79	734.93
497.97	685.78
498.14	685.78
498.32	697.48
498.50	704.50
498.67	627.26
498.85	592.16
499.03	629.60
499.20	629.60
499.38	669.39
499.56	676.41
499.73	601.52
499.91	589.82
500.08	566.41
500.26	587.47
500.44	540.66
500.61	428.32
500.79	491.51
500.97	489.17
501.14	507.90
501.32	500.87
501.49	498.53
501.67	535.98
501.84	437.68
502.02	465.77
502.20	484.49
502.37	531.30
502.55	444.70
502.72	458.74
502.90	428.32
503.07	395.55
503.25	482.15
503.43	388.53
503.60	379.17
503.78	346.40
503.95	383.85
504.13	280.86
504.30	421.30
504.48	416.62
504.65	369.80
504.83	362.78
505.01	374.49
505.18	360.44
505.36	341.72
505.53	358.10
505.71	322.99
505.88	306.61
506.06	330.02
506.23	339.38
506.41	327.68
506.58	369.80
506.76	299.59
506.93	367.46
507.11	339.38
507.28	360.44
507.46	238.73
507.63	372.15
507.81	365.12
507.98	290.23
508.16	297.25
508.33	306.61
508.50	416.62
508.68	365.12
508.85	339.38
509.03	351.08
509.20	451.72
509.38	339.38
509.55	362.78
509.73	379.17
509.90	388.53
510.08	243.42
510.25	376.83
510.42	325.33
510.60	341.72
510.77	327.68
510.95	409.59
511.12	358.10
511.30	315.97
511.47	337.04
511.64	344.06
511.82	278.52
511.99	315.97
512.17	236.39
512.34	222.35
512.51	311.29
512.69	271.50
512.86	372.15
513.04	313.63
513.21	280.86
513.38	318.31
513.56	332.36
513.73	337.04
513.90	255.12
514.08	266.82
514.25	257.46
514.43	334.70
514.60	234.05
514.77	271.50
514.95	269.16
515.12	301.93
515.29	299.59
515.47	252.78
515.64	252.78
515.81	276.18
515.99	248.10
516.16	278.52
516.33	337.04
516.51	248.10
516.68	334.70
516.85	311.29
517.03	198.95
517.20	348.74
517.37	222.35
517.54	339.38
517.72	325.33
517.89	245.76
518.06	285.55
518.24	252.78
518.41	332.36
518.58	292.57
518.75	259.80
518.93	257.46
519.10	311.29
519.27	287.89
519.45	393.21
519.62	271.50
519.79	285.55
519.96	198.95
520.14	243.42
520.31	255.12
520.48	264.48
520.65	330.02
520.83	290.23
521.00	311.29
521.17	276.18
521.34	297.25
521.52	322.99
521.69	369.80
521.86	297.25
522.03	322.99
522.20	351.08
522.38	259.80
522.55	271.50
522.72	285.55
522.89	304.27
523.07	334.70
523.24	330.02
523.41	266.82
523.58	325.33
523.75	297.25
523.92	280.86
524.10	313.63
524.27	255.12
524.44	318.31
524.61	304.27
524.78	238.73
524.96	322.99
525.13	386.19
525.30	330.02
525.47	311.29
525.64	299.59
525.81	334.70
525.98	330.02
526.16	306.61
526.33	243.42
526.50	252.78
526.67	292.57
526.84	313.63
527.01	262.14
527.18	315.97
527.36	341.72
527.53	423.64
527.70	358.10
527.87	325.33
528.04	355.76
528.21	330.02
528.38	344.06
528.55	308.95
528.72	435.34
528.89	376.83
529.07	369.80
529.24	425.98
529.41	393.21
529.58	306.61
529.75	381.51
529.92	346.40
530.09	388.53
530.26	337.04
530.43	393.21
530.60	374.49
530.77	292.57
530.94	381.51
531.11	376.83
531.28	386.19
531.46	383.85
531.63	500.87
531.80	444.70
531.97	379.17
532.14	486.83
532.31	594.50
532.48	603.86
532.65	606.20
532.82	732.59
532.99	882.38
533.16	901.11
533.33	1027.50
533.50	830.89
533.67	699.82
533.84	702.16
534.01	624.92
534.18	631.94
534.35	587.47
534.52	627.26
534.69	667.05
534.86	610.88
535.03	657.69
535.20	660.03
535.37	706.84
535.54	873.02
535.71	788.76
535.88	903.45
536.05	837.91
536.22	959.62
536.38	950.26
536.55	1008.77
536.72	1111.75
536.89	1259.21
537.06	1455.81
537.23	1561.14
537.40	1589.22
537.57	1764.76
537.74	1891.15
537.91	1790.51
538.08	1870.09
538.25	1942.64
538.42	2012.86
538.59	1996.48
538.75	2099.46
538.92	2326.49
539.09	2385.01
539.26	2569.91
539.43	2813.32
539.60	3370.37
539.77	3791.67
539.94	4091.26
540.11	4486.81
540.28	4781.71
540.44	5448.77
540.61	5816.23
540.78	6906.92
540.95	8257.41
541.12	9561.09
541.29	10417.72
541.46	10977.11
541.62	10806.25
541.79	10403.68
541.96	9589.17
542.13	9064.89
542.30	8388.48
542.47	8135.70
542.63	7552.91
542.80	7382.05
542.97	7417.16
543.14	7279.07
543.31	7435.88
543.48	7260.34
543.64	7407.80
543.81	7482.69
543.98	7545.89
544.15	7482.69
544.32	7339.92
544.48	7468.65
544.65	7396.09
544.82	7578.65
544.99	7442.90
545.16	7590.36
545.32	7925.05
545.49	16189.49
545.66	26607.21
545.83	29179.46
546.00	23906.23
546.16	16444.60
546.33	12379.09
546.50	9100.00
546.67	7566.95
546.83	6759.47
547.00	6555.84
547.17	6324.13
547.34	5692.18
547.50	5577.50
547.67	5427.70
547.84	5179.61
548.00	5074.28
548.17	4940.87
548.34	4587.45
548.51	4550.00
548.67	4332.33
548.84	4067.85
549.01	3819.75
549.18	3784.65
549.34	3627.83
549.51	3524.85
549.68	3574.00
549.84	3337.60
550.01	3115.25
550.18	3030.99
550.34	2719.70
550.51	2722.04
550.68	2607.36
550.84	2562.89
551.01	2377.98
551.18	2270.32
551.34	2183.72
551.51	2146.27
551.68	1881.79
551.84	1923.92
552.01	1743.70
552.18	1856.04
552.34	1607.95
552.51	1645.40
552.68	1624.33
552.84	1467.52
553.01	1530.71
553.18	1507.30
553.34	1486.24
553.51	1331.76
553.67	1338.79
553.84	1315.38
554.01	1137.50
554.17	1163.25
554.34	1048.56
554.51	959.62
554.67	1027.50
554.84	1041.54
555.00	961.96
555.17	868.34
555.33	858.98
555.50	842.59
555.67	791.10
555.83	739.61
556.00	697.48
556.16	896.43
556.33	664.71
556.50	737.27
556.66	610.88
556.83	599.18
556.99	643.65
557.16	613.22
557.32	613.22
557.49	589.82
557.65	538.32
557.82	573.43
557.98	573.43
558.15	578.11
558.32	559.39
558.48	538.32
558.65	517.26
558.81	526.62
558.98	526.62
559.14	491.51
559.31	440.02
559.47	514.92
559.64	465.77
559.80	538.32
559.97	409.59
560.13	411.93
560.30	425.98
560.46	503.22
560.63	390.87
560.79	484.49
560.96	514.92
561.12	428.32
561.29	423.64
561.45	423.64
561.61	423.64
561.78	507.90
561.94	486.83
562.11	465.77
562.27	526.62
562.44	486.83
562.60	442.36
562.77	465.77
562.93	524.28
563.10	500.87
563.26	470.45
563.42	433.00
563.59	454.06
563.75	472.79
563.92	470.45
564.08	400.23
564.24	433.00
564.41	456.40
564.57	402.57
564.74	418.96
564.90	470.45
565.07	458.74
565.23	435.34
565.39	407.25
565.56	456.40
565.72	381.51
565.88	372.15
566.05	407.25
566.21	358.10
566.38	355.76
566.54	456.40
566.70	348.74
566.87	435.34
567.03	367.46
567.19	376.83
567.36	397.89
567.52	400.23
567.68	369.80
567.85	493.85
568.01	346.40
568.17	383.85
568.34	418.96
568.50	395.55
568.66	444.70
568.83	409.59
568.99	360.44
569.15	362.78
569.32	397.89
569.48	374.49
569.64	308.95
569.81	344.06
569.97	442.36
570.13	388.53
570.30	348.74
570.46	315.97
570.62	287.89
570.78	409.59
570.95	337.04
571.11	355.76
571.27	404.91
571.43	332.36
571.60	372.15
571.76	355.76
571.92	327.68
572.09	348.74
572.25	294.91
572.41	327.68
572.57	334.70
572.74	388.53
572.90	320.65
573.06	404.91
573.22	367.46
573.38	306.61
573.55	339.38
573.71	344.06
573.87	341.72
574.03	381.51
574.20	353.42
574.36	346.40
574.52	404.91
574.68	376.83
574.84	360.44
575.01	395.55
575.17	376.83
575.33	351.08
575.49	470.45
575.65	498.53
575.82	566.41
575.98	561.73
576.14	582.79
576.30	1366.87
576.46	3651.24
576.62	4837.89
576.79	4917.47
576.95	3548.25
577.11	2331.17
577.27	1614.97
577.43	1149.20
577.59	870.68
577.75	730.25
577.92	741.95
578.08	613.22
578.24	704.50
578.40	1313.04
578.56	3363.35
578.72	4437.66
578.88	4601.49
579.04	3412.50
579.21	2349.90
579.37	1842.00
579.53	1577.52
579.69	1696.89
579.85	1870.09
580.01	2001.16
580.17	1783.49
580.33	1645.40
580.49	1394.96
580.65	1259.21
580.82	1167.93
580.98	1114.10
581.14	1313.04
581.30	1303.68
581.46	1350.49
581.62	1544.75
581.78	1497.94
581.94	1682.85
582.10	1666.46
582.26	1806.89
582.42	1877.11
582.58	1849.02
582.74	2052.65
582.90	1930.94
583.06	2054.99
583.22	1935.62
583.38	1956.69
583.54	1884.13
583.70	1930.94
583.86	1832.64
584.02	1870.09
584.18	1895.83
584.34	1858.39
584.50	1839.66
584.66	1771.79
584.82	1764.76
584.98	1788.17
585.14	1727.32
585.30	1652.42
585.46	1732.00
585.62	1710.93
585.78	1638.38
585.94	1799.87
586.10	1774.13
586.26	1877.11
586.42	1968.39
586.58	2548.84
586.74	3000.57
586.90	3576.34
587.06	3742.52
587.22	3527.19
587.38	3133.98
587.54	2796.94
587.70	2413.09
587.86	2066.69
588.02	1795.19
588.18	1563.48
588.34	1409.00
588.49	1268.57
588.65	1273.25
588.81	1270.91
588.97	1181.97
589.13	1158.57
589.29	1149.20
589.45	1071.97
589.61	1139.84
589.77	1088.35
589.93	1191.33
590.08	1163.25
590.24	1210.06
590.40	1207.72
590.56	1268.57
590.72	1291.98
590.88	1371.55
591.04	1364.53
591.20	1418.36
591.35	1610.29
591.51	1584.54
591.67	1509.65
591.83	1760.08
591.99	1771.79
592.15	1973.07
592.31	2162.66
592.46	2317.13
592.62	2424.80
592.78	2621.40
592.94	2710.34
593.10	2670.55
593.26	2373.30
593.41	2260.96
593.57	2111.16
593.73	1863.07
593.89	1593.90
594.05	1502.62
594.20	1394.96
594.36	1294.32
594.52	1153.88
594.68	1071.97
594.84	1116.44
594.99	1053.24
595.15	1067.28
595.31	999.41
595.47	1128.14
595.62	1022.81
595.78	1004.09
595.94	1046.22
596.10	1020.47
596.25	1081.33
596.41	1025.15
596.57	1022.81
596.73	943.24
596.88	1036.86
597.04	1074.31
597.20	1060.26
597.36	1095.37
597.51	1008.77
597.67	1167.93
597.83	1151.54
597.99	1275.59
598.14	1366.87
598.30	1462.83
598.46	1390.28
598.61	1418.36
598.77	1547.09
598.93	1561.14
599.09	1636.03
599.24	1724.97
599.40	1722.63
599.56	1668.80
599.71	1504.96
599.87	1409.00
600.03	1390.28
600.18	1254.53
600.34	1207.72
600.50	1076.65
600.65	1083.67
600.81	994.73
600.97	945.58
601.12	994.73
601.28	910.47
601.44	889.40
601.59	861.32
601.75	816.85
601.91	779.40
602.06	765.36
602.22	849.61
602.37	744.29
602.53	746.63
602.69	716.20
602.84	690.46
603.00	725.57
603.16	809.83
603.31	805.14
603.47	842.59
603.62	676.41
603.78	828.55
603.94	837.91
604.09	870.68
604.25	858.98
604.40	861.32
604.56	823.87
604.71	755.99
604.87	905.79
605.03	795.78
605.18	875.36
605.34	889.40
605.49	866.00
605.65	931.53
605.80	919.83
605.96	938.55
606.12	1093.03
606.27	1041.54
606.43	1043.88
606.58	1188.99
606.74	1146.86
606.89	1186.65
607.05	1362.19
607.20	1299.00
607.36	1383.26
607.51	1465.18
607.67	1593.90
607.82	1685.19
607.98	1792.85
608.13	1905.20
608.29	2003.50
608.44	2207.13
608.60	2551.18
608.75	2658.85
608.91	2672.89
609.06	3033.33
609.22	3314.20
609.37	3611.45
609.53	4109.98
609.68	4627.24
609.84	5277.91
609.99	6387.32
610.15	7426.52
610.30	9088.30
610.46	11405.43
610.61	15122.20
610.76	18787.48
610.92	22328.71
611.07	24573.28
611.23	24556.90
611.38	22963.00
611.54	19754.12
611.69	17364.43
611.84	14773.46
612.00	12039.72
612.15	10064.30
612.31	9083.62
612.46	8028.04
612.62	7613.76
612.77	7342.26
612.92	6829.68
613.08	6345.19
613.23	6153.27
613.39	5785.80
613.54	5757.72
613.69	5755.38
613.85	5563.45
614.00	5729.63
614.15	5605.58
614.31	5390.25
614.46	5387.91
614.62	5100.03
614.77	4828.53
614.92	4631.92
615.08	4341.69
615.23	3927.42
615.38	3662.94
615.54	3290.79
615.69	3148.02
615.84	2906.95
616.00	2602.68
616.15	2335.85
616.30	2272.66
616.46	2125.21
616.61	1947.33
616.76	2040.95
616.92	1844.34
617.07	1701.57
617.22	1654.76
617.37	1584.54
617.53	1666.46
617.68	1577.52
617.83	1465.18
617.99	1528.37
618.14	1469.86
618.29	1437.09
618.45	1406.66
618.60	1247.51
618.75	1238.14
618.90	1331.76
619.06	1172.61
619.21	1268.57
619.36	1345.81
619.51	1273.25
619.67	1240.48
619.82	1315.38
619.97	1364.53
620.12	1273.25
620.28	1345.81
620.43	1401.98
620.58	1387.94
620.73	1376.24
620.89	1357.51
621.04	1350.49
621.19	1397.30
621.34	1392.62
621.49	1287.29
621.65	1282.61
621.80	1308.36
621.95	1266.23
622.10	1256.87
622.25	1270.91
622.41	1303.68
622.56	1231.12
622.71	1451.13
622.86	1558.80
623.01	1455.81
623.16	1483.90
623.32	1373.89
623.47	1432.41
623.62	1490.92
623.77	1437.09
623.92	1483.90
624.07	1521.35
624.23	1462.83
624.38	1460.49
624.53	1476.88
624.68	1500.28
624.83	1554.12
624.98	1490.92
625.13	1474.54
625.29	1434.75
625.44	1497.94
625.59	1521.35
625.74	1521.35
625.89	1549.43
626.04	1500.28
626.19	1519.01
626.34	1526.03
626.49	1465.18
626.65	1453.47
626.80	1465.18
626.95	1507.30
627.10	1394.96
627.25	1366.87
627.40	1233.46
627.55	1378.58
627.70	1308.36
627.85	1355.17
628.00	1352.83
628.15	1409.00
628.30	1296.66
628.45	1409.00
628.60	1303.68
628.76	1336.45
628.91	1320.06
629.06	1348.15
629.21	1313.04
629.36	1423.05
629.51	1493.26
629.66	1579.86
629.81	1678.16
629.96	1764.76
630.11	1914.56
630.26	2043.29
630.41	2289.04
630.56	2452.88
630.71	2708.00
630.86	2766.51
631.01	2586.29
631.16	2403.73
631.31	2172.02
631.46	1849.02
631.61	1689.87
631.76	1362.19
631.91	1193.67
632.06	1090.69
632.21	936.21
632.36	805.14
632.51	748.97
632.66	706.84
632.81	636.63
632.96	617.90
633.10	631.94
633.25	657.69
633.40	638.97
633.55	552.37
633.70	498.53
633.85	521.94
634.00	535.98
634.15	479.81
634.30	416.62
634.45	526.62
634.60	489.17
634.75	451.72
634.90	407.25
635.05	510.24
635.19	449.38
635.34	472.79
635.49	421.30
635.64	442.36
635.79	341.72
635.94	407.25
636.09	430.66
636.24	423.64
636.39	404.91
636.53	475.13
636.68	402.57
636.83	383.85
636.98	456.40
637.13	362.78
637.28	390.87
637.43	383.85
637.57	414.27
637.72	367.46
637.87	411.93
638.02	374.49
638.17	325.33
638.32	320.65
638.46	362.78
638.61	390.87
638.76	337.04
638.91	430.66
639.06	390.87
639.20	355.76
639.35	379.17
639.50	404.91
639.65	327.68
639.80	330.02
639.94	425.98
640.09	451.72
640.24	322.99
640.39	301.93
640.54	383.85
640.68	236.39
640.83	353.42
640.98	318.31
641.13	311.29
641.27	294.91
641.42	351.08
641.57	379.17
641.72	374.49
641.86	372.15
642.01	400.23
642.16	423.64
642.31	355.76
642.45	402.57
642.60	325.33
642.75	409.59
642.90	372.15
643.04	273.84
643.19	301.93
643.34	367.46
643.48	383.85
643.63	311.29
643.78	381.51
643.93	337.04
644.07	397.89
644.22	344.06
644.37	348.74
644.51	433.00
644.66	320.65
644.81	353.42
644.95	322.99
645.10	337.04
645.25	327.68
645.39	348.74
645.54	313.63
645.69	346.40
645.83	320.65
645.98	397.89
646.13	393.21
646.27	287.89
646.42	311.29
646.57	290.23
646.71	374.49
646.86	322.99
647.00	348.74
647.15	327.68
647.30	238.73
647.44	304.27
647.59	243.42
647.74	264.48
647.88	355.76
648.03	243.42
648.17	327.68
648.32	346.40
648.47	381.51
648.61	292.57
648.76	320.65
648.90	351.08
649.05	383.85
649.20	379.17
649.34	433.00
649.49	468.11
649.63	528.96
649.78	617.90
649.92	594.50
650.07	713.86
650.21	763.01
650.36	896.43
650.51	816.85
650.65	837.91
650.80	688.12
650.94	575.77
651.09	617.90
651.23	489.17
651.38	463.43
651.52	456.40
651.67	440.02
651.81	425.98
651.96	503.22
652.10	397.89
652.25	355.76
652.39	430.66
652.54	491.51
652.68	535.98
652.83	404.91
652.97	407.25
653.12	433.00
653.26	435.34
653.41	414.27
653.55	409.59
653.70	402.57
653.84	327.68
653.99	355.76
654.13	334.70
654.27	341.72
654.42	369.80
654.56	308.95
654.71	308.95
654.85	292.57
655.00	271.50
655.14	339.38
655.29	250.44
655.43	264.48
655.57	344.06
655.72	301.93
655.86	327.68
656.01	395.55
656.15	304.27
656.30	278.52
656.44	245.76
656.58	327.68
656.73	259.80
656.87	259.80
657.01	318.31
657.16	330.02
657.30	360.44
657.45	386.19
657.59	348.74
657.73	339.38
657.88	327.68
658.02	404.91
658.16	344.06
658.31	428.32
658.45	330.02
658.60	255.12
658.74	189.58
658.88	280.86
659.03	215.33
659.17	313.63
659.31	259.80
659.46	208.31
659.60	294.91
659.74	262.14
659.89	341.72
660.03	257.46
660.17	257.46
660.32	276.18
660.46	229.37
660.60	283.20
660.74	229.37
660.89	184.90
661.03	255.12
661.17	283.20
661.32	208.31
661.46	362.78
661.60	369.80
661.74	430.66
661.89	454.06
662.03	550.03
662.17	587.47
662.31	538.32
662.46	526.62
662.60	503.22
662.74	477.47
662.88	489.17
663.03	444.70
663.17	348.74
663.31	414.27
663.45	423.64
663.60	404.91
663.74	322.99
663.88	271.50
664.02	306.61
664.17	301.93
664.31	248.10
664.45	360.44
664.59	308.95
664.73	255.12
664.88	241.08
665.02	231.71
665.16	236.39
665.30	339.38
665.44	306.61
665.59	266.82
665.73	308.95
665.87	243.42
666.01	266.82
666.15	337.04
666.29	301.93
666.44	311.29
666.58	358.10
666.72	280.86
666.86	276.18
667.00	257.46
667.14	257.46
667.28	196.60
667.43	208.31
667.57	299.59
667.71	301.93
667.85	301.93
667.99	227.03
668.13	250.44
668.27	236.39
668.41	292.57
668.56	196.60
668.70	264.48
668.84	243.42
668.98	234.05
669.12	241.08
669.26	283.20
669.40	332.36
669.54	231.71
669.68	245.76
669.82	278.52
669.96	236.39
670.10	220.01
670.25	245.76
670.39	262.14
670.53	210.65
670.67	163.84
670.81	224.69
670.95	271.50
671.09	271.50
671.23	278.52
671.37	311.29
671.51	262.14
671.65	231.71
671.79	208.31
671.93	201.29
672.07	308.95
672.21	278.52
672.35	238.73
672.49	273.84
672.63	299.59
672.77	220.01
672.91	297.25
673.05	243.42
673.19	175.54
673.33	159.16
673.47	234.05
673.61	217.67
673.75	243.42
673.89	278.52
674.03	250.44
674.17	276.18
674.31	128.73
674.45	203.63
674.59	198.95
674.73	245.76
674.87	215.33
675.01	299.59
675.15	210.65
675.29	245.76
675.43	248.10
675.56	266.82
675.70	231.71
675.84	283.20
675.98	262.14
676.12	327.68
676.26	110.01
676.40	166.18
676.54	217.67
676.68	198.95
676.82	210.65
676.96	210.65
677.10	166.18
677.23	215.33
677.37	191.92
677.51	198.95
677.65	271.50
677.79	182.56
677.93	184.90
678.07	227.03
678.21	241.08
678.34	163.84
678.48	168.52
678.62	117.03
678.76	210.65
678.90	238.73
679.04	210.65
679.18	252.78
679.31	208.31
679.45	131.07
679.59	215.33
679.73	276.18
679.87	252.78
680.00	231.71
680.14	215.33
680.28	168.52
680.42	238.73
680.56	224.69
680.70	355.76
680.83	227.03
680.97	273.84
681.11	224.69
681.25	208.31
681.39	227.03
681.52	194.26
681.66	220.01
681.80	252.78
681.94	173.20
682.07	208.31
682.21	229.37
682.35	245.76
682.49	229.37
682.62	222.35
682.76	196.60
682.90	154.48
683.04	210.65
683.17	238.73
683.31	210.65
683.45	271.50
683.59	227.03
683.72	168.52
683.86	175.54
684.00	154.48
684.13	170.86
684.27	161.50
684.41	166.18
684.55	184.90
684.68	205.97
684.82	229.37
684.96	177.88
685.09	205.97
685.23	222.35
685.37	191.92
685.50	252.78
685.64	297.25
685.78	177.88
685.91	250.44
686.05	234.05
686.19	201.29
686.32	156.82
686.46	241.08
686.60	241.08
686.73	346.40
686.87	374.49
687.01	334.70
687.14	234.05
687.28	299.59
687.42	320.65
687.55	313.63
687.69	369.80
687.82	264.48
687.96	311.29
688.10	304.27
688.23	301.93
688.37	301.93
688.50	278.52
688.64	325.33
688.78	259.80
688.91	250.44
689.05	152.13
689.18	217.67
689.32	117.03
689.46	276.18
689.59	227.03
689.73	205.97
689.86	163.84
690.00	170.86
690.13	140.43
690.27	184.90
690.41	278.52
690.54	280.86
690.68	196.60
690.81	238.73
690.95	184.90
691.08	145.11
691.22	107.66
691.35	124.05
691.49	107.66
691.62	154.48
691.76	154.48
691.89	177.88
692.03	93.62
692.16	121.71
692.30	138.09
692.43	166.18
692.57	147.45
692.70	154.48
692.84	161.50
692.97	196.60
693.11	175.54
693.24	330.02
693.38	311.29
693.51	271.50
693.65	320.65
693.78	306.61
693.92	332.36
694.05	217.67
694.19	250.44
694.32	203.63
694.45	191.92
694.59	140.43
694.72	147.45
694.86	203.63
694.99	121.71
695.13	154.48
695.26	175.54
695.39	163.84
695.53	222.35
695.66	161.50
695.80	177.88
695.93	102.98
696.07	182.56
696.20	194.26
696.33	142.77
696.47	107.66
696.60	166.18
696.73	180.22
696.87	191.92
697.00	196.60
697.14	149.79
697.27	161.50
697.40	217.67
697.54	110.01
697.67	161.50
697.80	102.98
697.94	175.54
698.07	177.88
698.21	166.18
698.34	220.01
698.47	149.79
698.61	187.24
698.74	102.98
698.87	187.24
699.01	173.20
699.14	156.82
699.27	196.60
699.40	259.80
699.54	117.03
699.67	187.24
699.80	147.45
699.94	131.07
700.07	177.88
700.20	154.48
700.34	49.15
700.47	77.24
700.60	187.24
700.73	152.13
700.87	177.88
701.00	145.11
701.13	114.69
701.26	149.79
701.40	100.64
701.53	138.09
701.66	140.43
701.79	227.03
701.93	133.41
702.06	163.84
702.19	166.18
702.32	234.05
702.46	201.29
702.59	163.84
702.72	149.79
702.85	175.54
702.99	166.18
703.12	243.42
703.25	184.90
703.38	159.16
703.51	198.95
703.65	217.67
703.78	198.95
703.91	212.99
704.04	145.11
704.17	220.01
704.31	156.82
704.44	140.43
704.57	180.22
704.70	126.39
704.83	72.56
704.96	175.54
705.10	140.43
705.23	208.31
>>>>>End Processed Spectral Data<<<<<
