SpectraSuite Data File
++++++++++++++++++++++++++++++++++++
Date: Fri Oct 04 11:41:47 GMT-05:00 2013
User: price-jones
Dark Spectrum Present: No
Reference Spectrum Present: No
Number of Sampled Component Spectra: 1
Spectrometers: USB2+H05261
Integration Time (usec): 100000 (USB2+H05261)
Spectra Averaged: 1 (USB2+H05261)
Boxcar Smoothing: 0 (USB2+H05261)
Correct for Electrical Dark: No (USB2+H05261)
Strobe/Lamp Enabled: No (USB2+H05261)
Correct for Detector Non-linearity: No (USB2+H05261)
Correct for Stray Light: No (USB2+H05261)
Number of Pixels in Processed Spectrum: 2048
>>>>>Begin Processed Spectral Data<<<<<
365.73	49.15
365.92	49.15
366.12	49.15
366.32	0.00
366.52	0.00
366.72	28.09
366.91	0.00
367.11	0.00
367.31	0.00
367.51	0.00
367.70	0.00
367.90	0.00
368.10	0.00
368.30	0.00
368.49	0.00
368.69	0.00
368.89	0.00
369.09	0.00
369.28	0.00
369.48	18.72
369.68	7.02
369.87	46.81
370.07	4.68
370.27	63.19
370.47	0.00
370.66	63.19
370.86	25.75
371.06	84.26
371.25	112.35
371.45	63.19
371.65	72.56
371.84	88.94
372.04	86.60
372.24	81.92
372.44	65.54
372.63	60.85
372.83	114.69
373.03	107.66
373.22	124.05
373.42	156.82
373.62	121.71
373.81	133.41
374.01	166.18
374.21	156.82
374.40	88.94
374.60	131.07
374.79	49.15
374.99	86.60
375.19	147.45
375.38	102.98
375.58	163.84
375.78	128.73
375.97	105.32
376.17	191.92
376.37	138.09
376.56	142.77
376.76	102.98
376.95	131.07
377.15	74.90
377.35	95.96
377.54	163.84
377.74	91.28
377.93	32.77
378.13	191.92
378.33	88.94
378.52	154.48
378.72	112.35
378.91	173.20
379.11	170.86
379.31	119.37
379.50	126.39
379.70	121.71
379.89	182.56
380.09	152.13
380.28	7.02
380.48	114.69
380.68	112.35
380.87	44.47
381.07	110.01
381.26	145.11
381.46	114.69
381.65	142.77
381.85	110.01
382.04	102.98
382.24	121.71
382.43	203.63
382.63	32.77
382.83	88.94
383.02	105.32
383.22	140.43
383.41	93.62
383.61	117.03
383.80	110.01
384.00	79.58
384.19	70.22
384.39	84.26
384.58	159.16
384.78	72.56
384.97	126.39
385.17	135.75
385.36	79.58
385.56	110.01
385.75	70.22
385.95	147.45
386.14	67.88
386.34	107.66
386.53	128.73
386.72	154.48
386.92	138.09
387.11	142.77
387.31	88.94
387.50	105.32
387.70	170.86
387.89	124.05
388.09	91.28
388.28	110.01
388.48	77.24
388.67	114.69
388.86	74.90
389.06	67.88
389.25	74.90
389.45	117.03
389.64	88.94
389.84	234.05
390.03	135.75
390.22	119.37
390.42	138.09
390.61	46.81
390.81	102.98
391.00	133.41
391.19	121.71
391.39	117.03
391.58	140.43
391.78	84.26
391.97	138.09
392.16	196.60
392.36	88.94
392.55	161.50
392.75	60.85
392.94	145.11
393.13	100.64
393.33	39.79
393.52	121.71
393.71	191.92
393.91	205.97
394.10	166.18
394.29	166.18
394.49	133.41
394.68	124.05
394.88	140.43
395.07	149.79
395.26	140.43
395.46	105.32
395.65	154.48
395.84	154.48
396.04	147.45
396.23	205.97
396.42	95.96
396.62	112.35
396.81	86.60
397.00	119.37
397.19	182.56
397.39	126.39
397.58	203.63
397.77	182.56
397.97	117.03
398.16	191.92
398.35	156.82
398.55	131.07
398.74	126.39
398.93	105.32
399.12	124.05
399.32	142.77
399.51	170.86
399.70	152.13
399.90	67.88
400.09	189.58
400.28	156.82
400.47	147.45
400.67	147.45
400.86	149.79
401.05	236.39
401.24	184.90
401.44	187.24
401.63	124.05
401.82	142.77
402.01	60.85
402.21	177.88
402.40	180.22
402.59	128.73
402.78	91.28
402.97	234.05
403.17	208.31
403.36	163.84
403.55	306.61
403.74	519.60
403.93	1790.51
404.13	4060.83
404.32	5160.88
404.51	4360.42
404.70	2469.27
404.89	957.28
405.09	355.76
405.28	222.35
405.47	135.75
405.66	236.39
405.85	180.22
406.05	131.07
406.24	77.24
406.43	238.73
406.62	220.01
406.81	210.65
407.00	320.65
407.20	517.26
407.39	730.25
407.58	683.44
407.77	554.71
407.96	341.72
408.15	187.24
408.34	159.16
408.54	168.52
408.73	189.58
408.92	152.13
409.11	203.63
409.30	110.01
409.49	133.41
409.68	196.60
409.87	121.71
410.07	140.43
410.26	124.05
410.45	194.26
410.64	189.58
410.83	138.09
411.02	135.75
411.21	86.60
411.40	154.48
411.59	205.97
411.78	114.69
411.98	266.82
412.17	156.82
412.36	194.26
412.55	166.18
412.74	142.77
412.93	212.99
413.12	126.39
413.31	201.29
413.50	184.90
413.69	170.86
413.88	224.69
414.07	161.50
414.26	210.65
414.45	140.43
414.64	241.08
414.83	262.14
415.02	259.80
415.22	205.97
415.41	257.46
415.60	264.48
415.79	95.96
415.98	231.71
416.17	271.50
416.36	180.22
416.55	250.44
416.74	269.16
416.93	259.80
417.12	245.76
417.31	227.03
417.50	224.69
417.69	135.75
417.88	170.86
418.07	140.43
418.26	187.24
418.45	231.71
418.64	276.18
418.83	234.05
419.02	292.57
419.21	154.48
419.39	196.60
419.58	217.67
419.77	205.97
419.96	315.97
420.15	287.89
420.34	229.37
420.53	280.86
420.72	236.39
420.91	269.16
421.10	222.35
421.29	175.54
421.48	163.84
421.67	285.55
421.86	229.37
422.05	243.42
422.24	227.03
422.43	290.23
422.61	173.20
422.80	224.69
422.99	217.67
423.18	189.58
423.37	245.76
423.56	276.18
423.75	318.31
423.94	147.45
424.13	205.97
424.32	238.73
424.50	313.63
424.69	163.84
424.88	325.33
425.07	290.23
425.26	280.86
425.45	231.71
425.64	283.20
425.83	248.10
426.01	365.12
426.20	301.93
426.39	229.37
426.58	215.33
426.77	299.59
426.96	318.31
427.15	304.27
427.33	271.50
427.52	292.57
427.71	308.95
427.90	257.46
428.09	259.80
428.28	266.82
428.46	264.48
428.65	276.18
428.84	290.23
429.03	369.80
429.22	257.46
429.40	332.36
429.59	327.68
429.78	283.20
429.97	257.46
430.16	266.82
430.34	308.95
430.53	252.78
430.72	273.84
430.91	346.40
431.10	306.61
431.28	311.29
431.47	381.51
431.66	273.84
431.85	306.61
432.03	355.76
432.22	374.49
432.41	313.63
432.60	360.44
432.79	255.12
432.97	418.96
433.16	468.11
433.35	456.40
433.54	543.00
433.72	496.19
433.91	463.43
434.10	561.73
434.28	671.73
434.47	704.50
434.66	777.06
434.85	1001.75
435.03	2937.37
435.22	11236.91
435.41	23009.81
435.59	22398.93
435.78	14169.60
435.97	7173.74
436.16	2757.15
436.34	1036.86
436.53	610.88
436.72	566.41
436.90	451.72
437.09	479.81
437.28	418.96
437.46	353.42
437.65	449.38
437.84	449.38
438.02	468.11
438.21	416.62
438.40	388.53
438.58	437.68
438.77	344.06
438.96	397.89
439.14	367.46
439.33	423.64
439.52	360.44
439.70	444.70
439.89	400.23
440.08	442.36
440.26	381.51
440.45	400.23
440.63	365.12
440.82	409.59
441.01	358.10
441.19	416.62
441.38	353.42
441.57	285.55
441.75	428.32
441.94	362.78
442.12	334.70
442.31	337.04
442.50	381.51
442.68	454.06
442.87	376.83
443.05	393.21
443.24	397.89
443.43	383.85
443.61	402.57
443.80	386.19
443.98	414.27
444.17	339.38
444.35	409.59
444.54	344.06
444.73	346.40
444.91	409.59
445.10	313.63
445.28	388.53
445.47	344.06
445.65	355.76
445.84	327.68
446.02	318.31
446.21	376.83
446.39	416.62
446.58	414.27
446.77	383.85
446.95	337.04
447.14	416.62
447.32	418.96
447.51	365.12
447.69	320.65
447.88	388.53
448.06	320.65
448.25	308.95
448.43	341.72
448.62	341.72
448.80	362.78
448.99	444.70
449.17	341.72
449.36	362.78
449.54	358.10
449.73	290.23
449.91	437.68
450.10	334.70
450.28	428.32
450.46	440.02
450.65	376.83
450.83	407.25
451.02	353.42
451.20	372.15
451.39	388.53
451.57	390.87
451.76	341.72
451.94	339.38
452.13	397.89
452.31	341.72
452.49	388.53
452.68	407.25
452.86	397.89
453.05	428.32
453.23	292.57
453.42	337.04
453.60	346.40
453.78	414.27
453.97	337.04
454.15	311.29
454.34	322.99
454.52	367.46
454.70	423.64
454.89	465.77
455.07	334.70
455.26	374.49
455.44	306.61
455.62	318.31
455.81	367.46
455.99	390.87
456.17	344.06
456.36	351.08
456.54	362.78
456.73	472.79
456.91	362.78
457.09	402.57
457.28	376.83
457.46	294.91
457.64	351.08
457.83	418.96
458.01	341.72
458.19	369.80
458.38	339.38
458.56	351.08
458.74	271.50
458.93	341.72
459.11	348.74
459.29	292.57
459.48	341.72
459.66	468.11
459.84	397.89
460.03	376.83
460.21	388.53
460.39	390.87
460.57	388.53
460.76	437.68
460.94	330.02
461.12	353.42
461.31	348.74
461.49	367.46
461.67	369.80
461.85	346.40
462.04	362.78
462.22	840.25
462.40	376.83
462.59	339.38
462.77	299.59
462.95	374.49
463.13	409.59
463.32	435.34
463.50	325.33
463.68	411.93
463.86	322.99
464.05	425.98
464.23	397.89
464.41	397.89
464.59	346.40
464.78	372.15
464.96	341.72
465.14	294.91
465.32	337.04
465.50	346.40
465.69	276.18
465.87	297.25
466.05	273.84
466.23	322.99
466.41	315.97
466.60	315.97
466.78	444.70
466.96	353.42
467.14	386.19
467.32	376.83
467.51	404.91
467.69	358.10
467.87	337.04
468.05	365.12
468.23	374.49
468.41	402.57
468.60	334.70
468.78	367.46
468.96	348.74
469.14	339.38
469.32	248.10
469.50	311.29
469.69	390.87
469.87	315.97
470.05	292.57
470.23	327.68
470.41	290.23
470.59	299.59
470.77	367.46
470.95	250.44
471.14	315.97
471.32	299.59
471.50	425.98
471.68	313.63
471.86	383.85
472.04	299.59
472.22	294.91
472.40	299.59
472.58	332.36
472.77	407.25
472.95	327.68
473.13	442.36
473.31	374.49
473.49	320.65
473.67	299.59
473.85	449.38
474.03	393.21
474.21	301.93
474.39	325.33
474.57	292.57
474.75	294.91
474.93	355.76
475.12	325.33
475.30	353.42
475.48	334.70
475.66	297.25
475.84	407.25
476.02	369.80
476.20	381.51
476.38	334.70
476.56	435.34
476.74	315.97
476.92	341.72
477.10	292.57
477.28	461.09
477.46	313.63
477.64	449.38
477.82	278.52
478.00	372.15
478.18	444.70
478.36	367.46
478.54	327.68
478.72	337.04
478.90	407.25
479.08	428.32
479.26	416.62
479.44	472.79
479.62	491.51
479.80	411.93
479.98	458.74
480.16	475.13
480.34	449.38
480.52	557.05
480.70	606.20
480.88	521.94
481.06	519.60
481.24	627.26
481.41	655.35
481.59	627.26
481.77	592.16
481.95	671.73
482.13	770.04
482.31	699.82
482.49	751.31
482.67	884.72
482.85	894.08
483.03	1018.13
483.21	1060.26
483.39	1088.35
483.57	1191.33
483.74	1308.36
483.92	1254.53
484.10	1409.00
484.28	1430.07
484.46	1462.83
484.64	1668.80
484.82	1685.19
485.00	1797.53
485.18	1966.05
485.35	1921.58
485.53	2097.12
485.71	2183.72
485.89	2080.74
486.07	2221.17
486.25	2328.83
486.43	2204.78
486.61	2235.21
486.78	2296.07
486.96	2326.49
487.14	2172.02
487.32	2284.36
487.50	2251.60
487.68	2256.28
487.85	2251.60
488.03	2157.97
488.21	2216.49
488.39	2188.40
488.57	2169.68
488.75	2008.18
488.92	2165.00
489.10	1912.22
489.28	1940.30
489.46	1858.39
489.64	1710.93
489.81	1818.60
489.99	1825.62
490.17	1694.55
490.35	1818.60
490.53	1659.44
490.70	1643.06
490.88	1717.95
491.06	1839.66
491.24	1907.54
491.41	1961.37
491.59	1830.30
491.77	1710.93
491.95	1645.40
492.13	1596.25
492.30	1589.22
492.48	1544.75
492.66	1528.37
492.84	1509.65
493.01	1537.73
493.19	1430.07
493.37	1369.21
493.54	1504.96
493.72	1439.43
493.90	1364.53
494.08	1324.74
494.25	1371.55
494.43	1378.58
494.61	1331.76
494.79	1397.30
494.96	1282.61
495.14	1235.80
495.32	1343.47
495.49	1315.38
495.67	1261.55
495.85	1287.29
496.02	1053.24
496.20	1198.35
496.38	1200.69
496.55	1116.44
496.73	1116.44
496.91	1139.84
497.09	1046.22
497.26	1046.22
497.44	1071.97
497.62	999.41
497.79	1015.79
497.97	1015.79
498.14	908.13
498.32	896.43
498.50	1001.75
498.67	863.66
498.85	889.40
499.03	866.00
499.20	840.25
499.38	887.06
499.56	847.27
499.73	786.42
499.91	901.11
500.08	875.36
500.26	828.55
500.44	727.91
500.61	774.72
500.79	777.06
500.97	699.82
501.14	631.94
501.32	669.39
501.49	638.97
501.67	631.94
501.84	648.33
502.02	554.71
502.20	636.63
502.37	578.11
502.55	533.64
502.72	578.11
502.90	589.82
503.07	564.07
503.25	524.28
503.43	491.51
503.60	503.22
503.78	524.28
503.95	510.24
504.13	514.92
504.30	517.26
504.48	519.60
504.65	435.34
504.83	521.94
505.01	470.45
505.18	484.49
505.36	423.64
505.53	463.43
505.71	468.11
505.88	496.19
506.06	393.21
506.23	365.12
506.41	458.74
506.58	500.87
506.76	393.21
506.93	418.96
507.11	437.68
507.28	386.19
507.46	430.66
507.63	477.47
507.81	409.59
507.98	327.68
508.16	287.89
508.33	442.36
508.50	397.89
508.68	411.93
508.85	386.19
509.03	484.49
509.20	409.59
509.38	425.98
509.55	418.96
509.73	423.64
509.90	421.30
510.08	409.59
510.25	397.89
510.42	369.80
510.60	351.08
510.77	320.65
510.95	386.19
511.12	337.04
511.30	402.57
511.47	470.45
511.64	381.51
511.82	334.70
511.99	337.04
512.17	379.17
512.34	351.08
512.51	423.64
512.69	351.08
512.86	430.66
513.04	348.74
513.21	400.23
513.38	355.76
513.56	348.74
513.73	393.21
513.90	362.78
514.08	280.86
514.25	301.93
514.43	353.42
514.60	269.16
514.77	358.10
514.95	318.31
515.12	330.02
515.29	386.19
515.47	341.72
515.64	297.25
515.81	379.17
515.99	393.21
516.16	369.80
516.33	358.10
516.51	346.40
516.68	367.46
516.85	358.10
517.03	236.39
517.20	318.31
517.37	362.78
517.54	332.36
517.72	348.74
517.89	308.95
518.06	245.76
518.24	353.42
518.41	367.46
518.58	421.30
518.75	320.65
518.93	351.08
519.10	259.80
519.27	283.20
519.45	322.99
519.62	355.76
519.79	287.89
519.96	346.40
520.14	299.59
520.31	339.38
520.48	325.33
520.65	386.19
520.83	374.49
521.00	337.04
521.17	318.31
521.34	280.86
521.52	376.83
521.69	365.12
521.86	290.23
522.03	325.33
522.20	351.08
522.38	315.97
522.55	238.73
522.72	278.52
522.89	383.85
523.07	440.02
523.24	362.78
523.41	318.31
523.58	308.95
523.75	393.21
523.92	306.61
524.10	353.42
524.27	414.27
524.44	229.37
524.61	376.83
524.78	355.76
524.96	369.80
525.13	332.36
525.30	358.10
525.47	411.93
525.64	376.83
525.81	334.70
525.98	348.74
526.16	348.74
526.33	379.17
526.50	273.84
526.67	383.85
526.84	374.49
527.01	320.65
527.18	381.51
527.36	383.85
527.53	337.04
527.70	402.57
527.87	358.10
528.04	428.32
528.21	437.68
528.38	465.77
528.55	411.93
528.72	421.30
528.89	433.00
529.07	402.57
529.24	454.06
529.41	414.27
529.58	369.80
529.75	442.36
529.92	547.69
530.09	521.94
530.26	468.11
530.43	433.00
530.60	493.85
530.77	449.38
530.94	472.79
531.11	383.85
531.28	461.09
531.46	468.11
531.63	486.83
531.80	524.28
531.97	580.45
532.14	648.33
532.31	816.85
532.48	830.89
532.65	940.90
532.82	983.02
532.99	1277.93
533.16	1397.30
533.33	1416.02
533.50	1315.38
533.67	1170.27
533.84	990.05
534.01	915.15
534.18	880.04
534.35	821.53
534.52	882.38
534.69	933.87
534.86	898.77
535.03	847.27
535.20	978.34
535.37	1015.79
535.54	1055.58
535.71	1114.10
535.88	1158.57
536.05	1270.91
536.22	1334.11
536.38	1376.24
536.55	1497.94
536.72	1799.87
536.89	1923.92
537.06	2080.74
537.23	2356.92
537.40	2509.05
537.57	2663.53
537.74	2855.45
537.91	3038.02
538.08	3000.57
538.25	3087.17
538.42	3063.76
538.59	3281.43
538.75	3262.71
538.92	3571.66
539.09	3878.27
539.26	4128.70
539.43	4713.84
539.60	5317.70
539.77	5991.77
539.94	6693.93
540.11	7421.84
540.28	8060.80
540.44	8683.39
540.61	9982.38
540.78	11279.04
540.95	13137.43
541.12	15709.68
541.29	17891.06
541.46	18710.24
541.62	18342.78
541.79	17619.55
541.96	16535.88
542.13	15007.52
542.30	14026.83
542.47	13418.29
542.63	12669.32
542.80	12458.67
542.97	12222.28
543.14	12131.00
543.31	12063.12
543.48	12285.47
543.64	12533.57
543.81	12414.20
543.98	12325.26
544.15	12641.23
544.32	12575.70
544.48	12758.26
544.65	12624.85
544.82	12255.04
544.99	12248.02
545.16	12671.66
545.32	13385.52
545.49	24013.90
545.66	42895.00
545.83	49387.64
546.00	41083.42
546.16	28126.22
546.33	20664.59
546.50	15571.58
546.67	12587.40
546.83	11403.09
547.00	10789.87
547.17	10134.52
547.34	9612.58
547.50	9383.21
547.67	8905.74
547.84	8493.80
548.00	8194.22
548.17	8173.15
548.34	7740.15
548.51	7588.02
548.67	7178.42
548.84	6761.81
549.01	6473.92
549.18	6108.80
549.34	5959.00
549.51	5720.27
549.68	5610.26
549.84	5313.02
550.01	5090.67
550.18	4830.87
550.34	4865.97
550.51	4299.56
550.68	4086.58
550.84	4046.79
551.01	3775.28
551.18	3503.78
551.34	3623.15
551.51	3218.24
551.68	3180.79
551.84	3042.70
552.01	2972.48
552.18	2909.29
552.34	2726.72
552.51	2661.19
552.68	2478.63
552.84	2436.50
553.01	2354.58
553.18	2352.24
553.34	2195.42
553.51	2172.02
553.67	2073.71
553.84	1961.37
554.01	1975.41
554.17	1720.29
554.34	1584.54
554.51	1621.99
554.67	1502.62
554.84	1458.15
555.00	1315.38
555.17	1331.76
555.33	1245.16
555.50	1193.67
555.67	1139.84
555.83	1160.91
556.00	1090.69
556.16	1170.27
556.33	954.94
556.50	1043.88
556.66	915.15
556.83	894.08
556.99	851.96
557.16	847.27
557.32	882.38
557.49	716.20
557.65	877.70
557.82	805.14
557.98	812.17
558.15	777.06
558.32	746.63
558.48	683.44
558.65	746.63
558.81	725.57
558.98	645.99
559.14	674.07
559.31	739.61
559.47	669.39
559.64	683.44
559.80	660.03
559.97	624.92
560.13	592.16
560.30	615.56
560.46	638.97
560.63	594.50
560.79	545.34
560.96	641.31
561.12	678.76
561.29	641.31
561.45	561.73
561.61	631.94
561.78	669.39
561.94	587.47
562.11	580.45
562.27	613.22
562.44	585.13
562.60	552.37
562.77	613.22
562.93	653.01
563.10	505.56
563.26	596.84
563.42	587.47
563.59	512.58
563.75	573.43
563.92	505.56
564.08	554.71
564.24	648.33
564.41	608.54
564.57	454.06
564.74	486.83
564.90	533.64
565.07	566.41
565.23	486.83
565.39	484.49
565.56	517.26
565.72	472.79
565.88	475.13
566.05	440.02
566.21	428.32
566.38	491.51
566.54	475.13
566.70	447.04
566.87	498.53
567.03	423.64
567.19	526.62
567.36	440.02
567.52	444.70
567.68	503.22
567.85	557.05
568.01	388.53
568.17	449.38
568.34	477.47
568.50	463.43
568.66	603.86
568.83	552.37
568.99	451.72
569.15	559.39
569.32	528.96
569.48	416.62
569.64	397.89
569.81	458.74
569.97	411.93
570.13	463.43
570.30	348.74
570.46	351.08
570.62	287.89
570.78	442.36
570.95	383.85
571.11	444.70
571.27	383.85
571.43	386.19
571.60	365.12
571.76	379.17
571.92	388.53
572.09	416.62
572.25	404.91
572.41	468.11
572.57	381.51
572.74	411.93
572.90	353.42
573.06	416.62
573.22	402.57
573.38	428.32
573.55	409.59
573.71	437.68
573.87	400.23
574.03	440.02
574.20	465.77
574.36	456.40
574.52	463.43
574.68	463.43
574.84	528.96
575.01	540.66
575.17	461.09
575.33	561.73
575.49	564.07
575.65	561.73
575.82	650.67
575.98	791.10
576.14	828.55
576.30	1692.21
576.46	5170.24
576.62	8292.52
576.79	8402.52
576.95	6113.48
577.11	3964.87
577.27	2944.39
577.43	1942.64
577.59	1359.85
577.75	1132.82
577.92	1067.28
578.08	1018.13
578.24	1006.43
578.40	1827.96
578.56	4980.66
578.72	7791.64
578.88	8107.62
579.04	6080.71
579.21	4079.55
579.37	3028.65
579.53	2504.37
579.69	2487.99
579.85	2949.08
580.01	3309.52
580.17	3073.12
580.33	2754.81
580.49	2340.54
580.65	2134.57
580.82	1935.62
580.98	2008.18
581.14	1956.69
581.30	2064.35
581.46	2275.00
581.62	2401.39
581.78	2520.76
581.94	2689.28
582.10	2689.28
582.26	2932.69
582.42	3016.95
582.58	3187.81
582.74	3133.98
582.90	3220.58
583.06	3218.24
583.22	3300.16
583.38	3365.69
583.54	3201.85
583.70	3148.02
583.86	3213.56
584.02	3087.17
584.18	3148.02
584.34	2998.23
584.50	2932.69
584.66	2939.71
584.82	2986.52
584.98	2935.03
585.14	2780.56
585.30	2733.75
585.46	2729.06
585.62	2766.51
585.78	2729.06
585.94	2658.85
586.10	2773.53
586.26	2970.14
586.42	3356.33
586.58	4014.02
586.74	4833.21
586.90	5682.82
587.06	6223.48
587.22	5884.11
587.38	5226.42
587.54	4519.57
587.70	3997.64
587.86	3506.12
588.02	3000.57
588.18	2597.99
588.34	2387.35
588.49	2197.76
588.65	2052.65
588.81	1980.09
588.97	1919.24
589.13	1907.54
589.29	1849.02
589.45	1865.41
589.61	1834.98
589.77	1830.30
589.93	1867.75
590.08	1909.88
590.24	1947.33
590.40	2090.10
590.56	2031.58
590.72	2165.00
590.88	2216.49
591.04	2125.21
591.20	2277.34
591.35	2394.37
591.51	2469.27
591.67	2506.71
591.83	2710.34
591.99	3007.59
592.15	3190.15
592.31	3559.95
592.46	3864.22
592.62	4037.42
592.78	4437.66
592.94	4472.76
593.10	4484.47
593.26	3999.98
593.41	3861.88
593.57	3412.50
593.73	3066.10
593.89	2832.05
594.05	2478.63
594.20	2204.78
594.36	2108.82
594.52	1912.22
594.68	1806.89
594.84	1757.74
594.99	1792.85
595.15	1757.74
595.31	1682.85
595.47	1647.74
595.62	1643.06
595.78	1687.53
595.94	1617.31
596.10	1633.69
596.25	1755.40
596.41	1685.19
596.57	1680.50
596.73	1739.02
596.88	1689.87
597.04	1561.14
597.20	1717.95
597.36	1619.65
597.51	1687.53
597.67	1760.08
597.83	1832.64
597.99	1935.62
598.14	2106.48
598.30	2216.49
598.46	2368.62
598.61	2310.11
598.77	2572.25
598.93	2583.95
599.09	2651.83
599.24	2696.30
599.40	2670.55
599.56	2644.81
599.71	2485.65
599.87	2392.03
600.03	2354.58
600.18	1998.82
600.34	1849.02
600.50	1886.47
600.65	1715.61
600.81	1666.46
600.97	1558.80
601.12	1540.07
601.28	1547.09
601.44	1418.36
601.59	1369.21
601.75	1313.04
601.91	1277.93
602.06	1224.10
602.22	1259.21
602.37	1109.41
602.53	1158.57
602.69	1144.52
602.84	1093.03
603.00	1132.82
603.16	1179.63
603.31	1249.85
603.47	1165.59
603.62	1191.33
603.78	1231.12
603.94	1233.46
604.09	1277.93
604.25	1336.45
604.40	1270.91
604.56	1306.02
604.71	1256.87
604.87	1390.28
605.03	1357.51
605.18	1401.98
605.34	1392.62
605.49	1352.83
605.65	1486.24
605.80	1446.45
605.96	1542.41
606.12	1617.31
606.27	1626.67
606.43	1722.63
606.58	1849.02
606.74	1996.48
606.89	2050.31
607.05	2097.12
607.20	2071.37
607.36	2296.07
607.51	2450.54
607.67	2558.21
607.82	2761.83
607.98	3002.91
608.13	3026.31
608.29	3225.26
608.44	3658.26
608.60	3723.79
608.75	4259.78
608.91	4610.86
609.06	4985.34
609.22	5757.72
609.37	6307.74
609.53	7080.12
609.68	7758.88
609.84	9085.96
609.99	10487.94
610.15	12526.55
610.30	15150.29
610.46	19482.62
610.61	25202.89
610.76	32580.26
610.92	39466.11
611.07	43332.68
611.23	43985.69
611.38	41640.47
611.54	36451.50
611.69	31328.07
611.84	25893.35
612.00	21788.05
612.15	17991.70
612.31	15840.75
612.46	14450.47
612.62	13331.69
612.77	12463.35
612.92	11606.72
613.08	11119.89
613.23	10773.49
613.39	10310.06
613.54	9769.40
613.69	9771.74
613.85	9802.16
614.00	9692.16
614.15	9446.40
614.31	9179.58
614.46	9034.47
614.62	8765.31
614.77	8430.61
614.92	7861.86
615.08	7138.63
615.23	6700.95
615.38	6253.91
615.54	5523.66
615.69	5032.15
615.84	4716.18
616.00	4329.99
616.15	4109.98
616.30	3845.50
616.46	3712.09
616.61	3461.65
616.76	3267.39
616.92	3131.64
617.07	3028.65
617.22	2850.77
617.37	2710.34
617.53	2733.75
617.68	2497.35
617.83	2452.88
617.99	2387.35
618.14	2392.03
618.29	2202.44
618.45	2066.69
618.60	2148.61
618.75	2157.97
618.90	2118.18
619.06	2043.29
619.21	2003.50
619.36	2099.46
619.51	2010.52
619.67	2076.06
619.82	2165.00
619.97	2090.10
620.12	2087.76
620.28	2242.23
620.43	2181.38
620.58	2172.02
620.73	2263.30
620.89	2237.55
621.04	2122.87
621.19	2340.54
621.34	2122.87
621.49	2059.67
621.65	2087.76
621.80	2113.50
621.95	2209.47
622.10	2150.95
622.25	2125.21
622.41	2209.47
622.56	2108.82
622.71	2310.11
622.86	2277.34
623.01	2303.09
623.16	2359.26
623.32	2387.35
623.47	2375.64
623.62	2445.86
623.77	2366.28
623.92	2340.54
624.07	2298.41
624.23	2406.07
624.38	2260.96
624.53	2296.07
624.68	2380.32
624.83	2602.68
624.98	2441.18
625.13	2443.52
625.29	2506.71
625.44	2473.95
625.59	2502.03
625.74	2466.92
625.89	2506.71
626.04	2457.56
626.19	2576.93
626.34	2464.58
626.49	2443.52
626.65	2590.97
626.80	2401.39
626.95	2415.43
627.10	2321.81
627.25	2291.38
627.40	2284.36
627.55	2148.61
627.70	2181.38
627.85	2183.72
628.00	2141.59
628.15	2129.89
628.30	2150.95
628.45	2265.64
628.60	2047.97
628.76	2160.31
628.91	2300.75
629.06	2249.25
629.21	2160.31
629.36	2263.30
629.51	2272.66
629.66	2551.18
629.81	2710.34
629.96	2867.16
630.11	3206.53
630.26	3588.04
630.41	4037.42
630.56	4437.66
630.71	4629.58
630.86	4638.94
631.01	4557.02
631.16	4091.26
631.31	3583.36
631.46	3274.41
631.61	2642.46
631.76	2370.96
631.91	2043.29
632.06	1853.70
632.21	1476.88
632.36	1261.55
632.51	1228.78
632.66	1050.90
632.81	1039.20
632.96	943.24
633.10	978.34
633.25	947.92
633.40	851.96
633.55	905.79
633.70	821.53
633.85	758.33
634.00	748.97
634.15	748.97
634.30	725.57
634.45	793.44
634.60	645.99
634.75	606.20
634.90	798.12
635.05	713.86
635.19	622.58
635.34	641.31
635.49	589.82
635.64	617.90
635.79	596.84
635.94	755.99
636.09	648.33
636.24	582.79
636.39	545.34
636.53	610.88
636.68	568.75
636.83	575.77
636.98	559.39
637.13	564.07
637.28	580.45
637.43	587.47
637.57	617.90
637.72	580.45
637.87	596.84
638.02	512.58
638.17	552.37
638.32	533.64
638.46	617.90
638.61	566.41
638.76	491.51
638.91	524.28
639.06	503.22
639.20	423.64
639.35	510.24
639.50	442.36
639.65	500.87
639.80	521.94
639.94	547.69
640.09	496.19
640.24	554.71
640.39	540.66
640.54	468.11
640.68	470.45
640.83	409.59
640.98	486.83
641.13	493.85
641.27	444.70
641.42	428.32
641.57	475.13
641.72	472.79
641.86	411.93
642.01	526.62
642.16	444.70
642.31	454.06
642.45	519.60
642.60	433.00
642.75	484.49
642.90	571.09
643.04	428.32
643.19	465.77
643.34	479.81
643.48	456.40
643.63	538.32
643.78	475.13
643.93	489.17
644.07	477.47
644.22	489.17
644.37	507.90
644.51	489.17
644.66	468.11
644.81	507.90
644.95	535.98
645.10	447.04
645.25	407.25
645.39	435.34
645.54	552.37
645.69	465.77
645.83	456.40
645.98	571.09
646.13	407.25
646.27	421.30
646.42	386.19
646.57	428.32
646.71	421.30
646.86	470.45
647.00	444.70
647.15	435.34
647.30	409.59
647.44	435.34
647.59	456.40
647.74	456.40
647.88	444.70
648.03	510.24
648.17	379.17
648.32	365.12
648.47	505.56
648.61	465.77
648.76	550.03
648.90	472.79
649.05	573.43
649.20	540.66
649.34	575.77
649.49	510.24
649.63	657.69
649.78	922.17
649.92	1027.50
650.07	1203.04
650.21	1263.89
650.36	1376.24
650.51	1268.57
650.65	1350.49
650.80	1188.99
650.94	1053.24
651.09	961.96
651.23	847.27
651.38	772.38
651.52	667.05
651.67	641.31
651.81	603.86
651.96	599.18
652.10	620.24
652.25	601.52
652.39	545.34
652.54	657.69
652.68	655.35
652.83	638.97
652.97	751.31
653.12	730.25
653.26	683.44
653.41	711.52
653.55	631.94
653.70	587.47
653.84	519.60
653.99	507.90
654.13	528.96
654.27	447.04
654.42	451.72
654.56	425.98
654.71	449.38
654.85	418.96
655.00	442.36
655.14	498.53
655.29	381.51
655.43	510.24
655.57	484.49
655.72	393.21
655.86	503.22
656.01	463.43
656.15	397.89
656.30	521.94
656.44	365.12
656.58	414.27
656.73	451.72
656.87	376.83
657.01	498.53
657.16	535.98
657.30	477.47
657.45	505.56
657.59	535.98
657.73	489.17
657.88	557.05
658.02	538.32
658.16	423.64
658.31	451.72
658.45	428.32
658.60	369.80
658.74	482.15
658.88	332.36
659.03	372.15
659.17	355.76
659.31	369.80
659.46	285.55
659.60	355.76
659.74	393.21
659.89	386.19
660.03	330.02
660.17	379.17
660.32	383.85
660.46	308.95
660.60	407.25
660.74	334.70
660.89	353.42
661.03	367.46
661.17	306.61
661.32	393.21
661.46	374.49
661.60	568.75
661.74	594.50
661.89	641.31
662.03	802.80
662.17	819.19
662.31	697.48
662.46	805.14
662.60	781.74
662.74	660.03
662.88	585.13
663.03	613.22
663.17	496.19
663.31	571.09
663.45	519.60
663.60	414.27
663.74	458.74
663.88	346.40
664.02	437.68
664.17	353.42
664.31	276.18
664.45	388.53
664.59	318.31
664.73	320.65
664.88	369.80
665.02	311.29
665.16	379.17
665.30	362.78
665.44	301.93
665.59	301.93
665.73	285.55
665.87	318.31
666.01	383.85
666.15	294.91
666.29	311.29
666.44	334.70
666.58	411.93
666.72	353.42
666.86	388.53
667.00	388.53
667.14	278.52
667.28	367.46
667.43	290.23
667.57	243.42
667.71	393.21
667.85	306.61
667.99	327.68
668.13	287.89
668.27	386.19
668.41	388.53
668.56	276.18
668.70	299.59
668.84	241.08
668.98	250.44
669.12	308.95
669.26	332.36
669.40	397.89
669.54	358.10
669.68	404.91
669.82	358.10
669.96	327.68
670.10	238.73
670.25	322.99
670.39	372.15
670.53	320.65
670.67	330.02
670.81	327.68
670.95	299.59
671.09	252.78
671.23	264.48
671.37	341.72
671.51	320.65
671.65	327.68
671.79	304.27
671.93	297.25
672.07	311.29
672.21	332.36
672.35	327.68
672.49	215.33
672.63	292.57
672.77	285.55
672.91	262.14
673.05	280.86
673.19	318.31
673.33	313.63
673.47	322.99
673.61	355.76
673.75	299.59
673.89	285.55
674.03	269.16
674.17	304.27
674.31	304.27
674.45	215.33
674.59	255.12
674.73	330.02
674.87	273.84
675.01	271.50
675.15	264.48
675.29	276.18
675.43	248.10
675.56	301.93
675.70	278.52
675.84	248.10
675.98	271.50
676.12	198.95
676.26	208.31
676.40	128.73
676.54	259.80
676.68	210.65
676.82	243.42
676.96	245.76
677.10	313.63
677.23	250.44
677.37	238.73
677.51	337.04
677.65	362.78
677.79	250.44
677.93	301.93
678.07	224.69
678.21	168.52
678.34	271.50
678.48	191.92
678.62	220.01
678.76	222.35
678.90	245.76
679.04	222.35
679.18	252.78
679.31	262.14
679.45	257.46
679.59	166.18
679.73	304.27
679.87	250.44
680.00	322.99
680.14	299.59
680.28	390.87
680.42	299.59
680.56	325.33
680.70	203.63
680.83	407.25
680.97	283.20
681.11	266.82
681.25	248.10
681.39	236.39
681.52	229.37
681.66	262.14
681.80	320.65
681.94	217.67
682.07	278.52
682.21	273.84
682.35	184.90
682.49	255.12
682.62	227.03
682.76	313.63
682.90	208.31
683.04	168.52
683.17	243.42
683.31	294.91
683.45	175.54
683.59	299.59
683.72	297.25
683.86	238.73
684.00	262.14
684.13	264.48
684.27	252.78
684.41	262.14
684.55	231.71
684.68	159.16
684.82	257.46
684.96	250.44
685.09	196.60
685.23	271.50
685.37	245.76
685.50	215.33
685.64	224.69
685.78	198.95
685.91	315.97
686.05	297.25
686.19	252.78
686.32	325.33
686.46	351.08
686.60	322.99
686.73	416.62
686.87	369.80
687.01	400.23
687.14	388.53
687.28	451.72
687.42	437.68
687.55	458.74
687.69	561.73
687.82	416.62
687.96	404.91
688.10	416.62
688.23	451.72
688.37	461.09
688.50	332.36
688.64	407.25
688.78	294.91
688.91	259.80
689.05	278.52
689.18	208.31
689.32	147.45
689.46	191.92
689.59	285.55
689.73	229.37
689.86	241.08
690.00	191.92
690.13	222.35
690.27	290.23
690.41	290.23
690.54	276.18
690.68	280.86
690.81	259.80
690.95	224.69
691.08	269.16
691.22	198.95
691.35	177.88
691.49	201.29
691.62	152.13
691.76	220.01
691.89	191.92
692.03	102.98
692.16	231.71
692.30	187.24
692.43	147.45
692.57	156.82
692.70	145.11
692.84	280.86
692.97	217.67
693.11	241.08
693.24	252.78
693.38	425.98
693.51	404.91
693.65	416.62
693.78	393.21
693.92	421.30
694.05	360.44
694.19	332.36
694.32	283.20
694.45	294.91
694.59	168.52
694.72	182.56
694.86	238.73
694.99	227.03
695.13	170.86
695.26	194.26
695.39	177.88
695.53	161.50
695.66	126.39
695.80	180.22
695.93	135.75
696.07	152.13
696.20	168.52
696.33	166.18
696.47	203.63
696.60	203.63
696.73	201.29
696.87	95.96
697.00	173.20
697.14	152.13
697.27	156.82
697.40	156.82
697.54	124.05
697.67	142.77
697.80	189.58
697.94	208.31
698.07	191.92
698.21	142.77
698.34	229.37
698.47	168.52
698.61	161.50
698.74	180.22
698.87	163.84
699.01	149.79
699.14	91.28
699.27	217.67
699.40	196.60
699.54	124.05
699.67	91.28
699.80	205.97
699.94	124.05
700.07	135.75
700.20	126.39
700.34	145.11
700.47	98.30
700.60	145.11
700.73	112.35
700.87	177.88
701.00	133.41
701.13	161.50
701.26	147.45
701.40	147.45
701.53	149.79
701.66	236.39
701.79	177.88
701.93	227.03
702.06	152.13
702.19	175.54
702.32	205.97
702.46	182.56
702.59	95.96
702.72	217.67
702.85	135.75
702.99	198.95
703.12	147.45
703.25	217.67
703.38	166.18
703.51	212.99
703.65	187.24
703.78	175.54
703.91	229.37
704.04	184.90
704.17	208.31
704.31	177.88
704.44	203.63
704.57	271.50
704.70	280.86
704.83	189.58
704.96	205.97
705.10	187.24
705.23	320.65
>>>>>End Processed Spectral Data<<<<<
