SpectraSuite Data File
++++++++++++++++++++++++++++++++++++
Date: Fri Oct 04 11:42:25 GMT-05:00 2013
User: price-jones
Dark Spectrum Present: No
Reference Spectrum Present: No
Number of Sampled Component Spectra: 1
Spectrometers: USB2+H05261
Integration Time (usec): 100000 (USB2+H05261)
Spectra Averaged: 1 (USB2+H05261)
Boxcar Smoothing: 0 (USB2+H05261)
Correct for Electrical Dark: No (USB2+H05261)
Strobe/Lamp Enabled: No (USB2+H05261)
Correct for Detector Non-linearity: No (USB2+H05261)
Correct for Stray Light: No (USB2+H05261)
Number of Pixels in Processed Spectrum: 2048
>>>>>Begin Processed Spectral Data<<<<<
365.73	18.72
365.92	18.72
366.12	18.72
366.32	0.00
366.52	0.00
366.72	0.00
366.91	0.00
367.11	0.00
367.31	0.00
367.51	0.00
367.70	0.00
367.90	0.00
368.10	0.00
368.30	0.00
368.49	0.00
368.69	0.00
368.89	0.00
369.09	0.00
369.28	0.00
369.48	0.00
369.68	0.00
369.87	2.34
370.07	42.13
370.27	56.17
370.47	0.00
370.66	44.47
370.86	39.79
371.06	39.79
371.25	98.30
371.45	32.77
371.65	77.24
371.84	84.26
372.04	32.77
372.24	77.24
372.44	105.32
372.63	74.90
372.83	117.03
373.03	81.92
373.22	128.73
373.42	145.11
373.62	100.64
373.81	142.77
374.01	63.19
374.21	79.58
374.40	119.37
374.60	77.24
374.79	142.77
374.99	128.73
375.19	138.09
375.38	102.98
375.58	95.96
375.78	159.16
375.97	133.41
376.17	196.60
376.37	140.43
376.56	133.41
376.76	154.48
376.95	60.85
377.15	147.45
377.35	163.84
377.54	79.58
377.74	70.22
377.93	56.17
378.13	152.13
378.33	95.96
378.52	18.72
378.72	117.03
378.91	93.62
379.11	117.03
379.31	46.81
379.50	142.77
379.70	124.05
379.89	18.72
380.09	56.17
380.28	39.79
380.48	159.16
380.68	102.98
380.87	138.09
381.07	166.18
381.26	152.13
381.46	175.54
381.65	93.62
381.85	147.45
382.04	119.37
382.24	112.35
382.43	53.83
382.63	93.62
382.83	117.03
383.02	124.05
383.22	79.58
383.41	126.39
383.61	60.85
383.80	72.56
384.00	117.03
384.19	81.92
384.39	142.77
384.58	98.30
384.78	121.71
384.97	121.71
385.17	114.69
385.36	95.96
385.56	105.32
385.75	18.72
385.95	74.90
386.14	140.43
386.34	119.37
386.53	74.90
386.72	110.01
386.92	142.77
387.11	170.86
387.31	117.03
387.50	60.85
387.70	112.35
387.89	161.50
388.09	124.05
388.28	156.82
388.48	142.77
388.67	152.13
388.86	95.96
389.06	191.92
389.25	138.09
389.45	114.69
389.64	98.30
389.84	182.56
390.03	135.75
390.22	187.24
390.42	133.41
390.61	102.98
390.81	114.69
391.00	81.92
391.19	138.09
391.39	72.56
391.58	128.73
391.78	114.69
391.97	140.43
392.16	42.13
392.36	100.64
392.55	166.18
392.75	180.22
392.94	142.77
393.13	79.58
393.33	152.13
393.52	184.90
393.71	112.35
393.91	112.35
394.10	77.24
394.29	119.37
394.49	102.98
394.68	128.73
394.88	187.24
395.07	173.20
395.26	74.90
395.46	173.20
395.65	133.41
395.84	142.77
396.04	175.54
396.23	205.97
396.42	168.52
396.62	110.01
396.81	74.90
397.00	142.77
397.19	198.95
397.39	63.19
397.58	112.35
397.77	37.45
397.97	124.05
398.16	131.07
398.35	145.11
398.55	112.35
398.74	159.16
398.93	180.22
399.12	77.24
399.32	131.07
399.51	121.71
399.70	135.75
399.90	161.50
400.09	126.39
400.28	163.84
400.47	79.58
400.67	77.24
400.86	175.54
401.05	152.13
401.24	142.77
401.44	149.79
401.63	145.11
401.82	135.75
402.01	84.26
402.21	128.73
402.40	102.98
402.59	126.39
402.78	88.94
402.97	88.94
403.17	131.07
403.36	147.45
403.55	124.05
403.74	273.84
403.93	685.78
404.13	1277.93
404.32	1640.72
404.51	1446.45
404.70	854.30
404.89	393.21
405.09	191.92
405.28	163.84
405.47	119.37
405.66	98.30
405.85	161.50
406.05	102.98
406.24	180.22
406.43	98.30
406.62	102.98
406.81	184.90
407.00	231.71
407.20	334.70
407.39	365.12
407.58	346.40
407.77	234.05
407.96	238.73
408.15	142.77
408.34	121.71
408.54	117.03
408.73	208.31
408.92	112.35
409.11	124.05
409.30	217.67
409.49	145.11
409.68	86.60
409.87	126.39
410.07	131.07
410.26	154.48
410.45	88.94
410.64	110.01
410.83	182.56
411.02	105.32
411.21	142.77
411.40	112.35
411.59	166.18
411.78	145.11
411.98	105.32
412.17	166.18
412.36	191.92
412.55	105.32
412.74	203.63
412.93	184.90
413.12	184.90
413.31	224.69
413.50	168.52
413.69	210.65
413.88	231.71
414.07	67.88
414.26	149.79
414.45	154.48
414.64	145.11
414.83	201.29
415.02	163.84
415.22	208.31
415.41	205.97
415.60	187.24
415.79	156.82
415.98	138.09
416.17	170.86
416.36	180.22
416.55	67.88
416.74	138.09
416.93	187.24
417.12	156.82
417.31	140.43
417.50	124.05
417.69	180.22
417.88	163.84
418.07	117.03
418.26	138.09
418.45	159.16
418.64	187.24
418.83	159.16
419.02	128.73
419.21	175.54
419.39	119.37
419.58	147.45
419.77	159.16
419.96	88.94
420.15	182.56
420.34	163.84
420.53	95.96
420.72	194.26
420.91	161.50
421.10	212.99
421.29	187.24
421.48	166.18
421.67	189.58
421.86	149.79
422.05	173.20
422.24	205.97
422.43	203.63
422.61	149.79
422.80	180.22
422.99	163.84
423.18	102.98
423.37	229.37
423.56	198.95
423.75	308.95
423.94	168.52
424.13	222.35
424.32	175.54
424.50	255.12
424.69	180.22
424.88	269.16
425.07	72.56
425.26	124.05
425.45	142.77
425.64	236.39
425.83	264.48
426.01	173.20
426.20	241.08
426.39	159.16
426.58	168.52
426.77	180.22
426.96	168.52
427.15	201.29
427.33	119.37
427.52	140.43
427.71	215.33
427.90	173.20
428.09	88.94
428.28	177.88
428.46	163.84
428.65	243.42
428.84	182.56
429.03	255.12
429.22	224.69
429.40	198.95
429.59	152.13
429.78	236.39
429.97	208.31
430.16	201.29
430.34	177.88
430.53	166.18
430.72	229.37
430.91	184.90
431.10	175.54
431.28	145.11
431.47	283.20
431.66	241.08
431.85	124.05
432.03	138.09
432.22	257.46
432.41	205.97
432.60	248.10
432.79	217.67
432.97	285.55
433.16	220.01
433.35	205.97
433.54	318.31
433.72	273.84
433.91	257.46
434.10	273.84
434.28	299.59
434.47	374.49
434.66	341.72
434.85	404.91
435.03	1097.71
435.22	3471.01
435.41	6251.57
435.59	6186.04
435.78	4170.83
435.97	2083.08
436.16	933.87
436.34	428.32
436.53	334.70
436.72	222.35
436.90	229.37
437.09	227.03
437.28	220.01
437.46	177.88
437.65	278.52
437.84	191.92
438.02	173.20
438.21	217.67
438.40	210.65
438.58	131.07
438.77	220.01
438.96	220.01
439.14	229.37
439.33	264.48
439.52	187.24
439.70	208.31
439.89	229.37
440.08	217.67
440.26	198.95
440.45	264.48
440.63	203.63
440.82	252.78
441.01	217.67
441.19	201.29
441.38	210.65
441.57	227.03
441.75	322.99
441.94	252.78
442.12	220.01
442.31	217.67
442.50	234.05
442.68	264.48
442.87	285.55
443.05	259.80
443.24	301.93
443.43	220.01
443.61	287.89
443.80	217.67
443.98	210.65
444.17	276.18
444.35	280.86
444.54	156.82
444.73	184.90
444.91	322.99
445.10	180.22
445.28	201.29
445.47	208.31
445.65	184.90
445.84	222.35
446.02	220.01
446.21	187.24
446.39	212.99
446.58	273.84
446.77	184.90
446.95	154.48
447.14	308.95
447.32	259.80
447.51	194.26
447.69	205.97
447.88	245.76
448.06	234.05
448.25	234.05
448.43	248.10
448.62	304.27
448.80	210.65
448.99	255.12
449.17	215.33
449.36	177.88
449.54	243.42
449.73	166.18
449.91	264.48
450.10	203.63
450.28	262.14
450.46	273.84
450.65	241.08
450.83	189.58
451.02	290.23
451.20	154.48
451.39	217.67
451.57	180.22
451.76	227.03
451.94	194.26
452.13	215.33
452.31	234.05
452.49	208.31
452.68	212.99
452.86	227.03
453.05	236.39
453.23	229.37
453.42	220.01
453.60	238.73
453.78	257.46
453.97	259.80
454.15	138.09
454.34	248.10
454.52	266.82
454.70	264.48
454.89	217.67
455.07	177.88
455.26	215.33
455.44	210.65
455.62	182.56
455.81	210.65
455.99	234.05
456.17	255.12
456.36	175.54
456.54	222.35
456.73	236.39
456.91	168.52
457.09	217.67
457.28	287.89
457.46	259.80
457.64	212.99
457.83	210.65
458.01	224.69
458.19	194.26
458.38	238.73
458.56	252.78
458.74	217.67
458.93	262.14
459.11	205.97
459.29	243.42
459.48	236.39
459.66	198.95
459.84	245.76
460.03	327.68
460.21	187.24
460.39	201.29
460.57	198.95
460.76	278.52
460.94	236.39
461.12	266.82
461.31	241.08
461.49	248.10
461.67	180.22
461.85	238.73
462.04	248.10
462.22	341.72
462.40	227.03
462.59	285.55
462.77	224.69
462.95	217.67
463.13	173.20
463.32	259.80
463.50	205.97
463.68	250.44
463.86	187.24
464.05	222.35
464.23	234.05
464.41	243.42
464.59	271.50
464.78	154.48
464.96	241.08
465.14	280.86
465.32	212.99
465.50	198.95
465.69	234.05
465.87	163.84
466.05	220.01
466.23	135.75
466.41	255.12
466.60	220.01
466.78	248.10
466.96	346.40
467.14	259.80
467.32	304.27
467.51	248.10
467.69	236.39
467.87	264.48
468.05	203.63
468.23	238.73
468.41	234.05
468.60	273.84
468.78	224.69
468.96	292.57
469.14	229.37
469.32	156.82
469.50	189.58
469.69	243.42
469.87	255.12
470.05	145.11
470.23	287.89
470.41	203.63
470.59	238.73
470.77	234.05
470.95	217.67
471.14	215.33
471.32	156.82
471.50	205.97
471.68	124.05
471.86	168.52
472.04	208.31
472.22	220.01
472.40	182.56
472.58	180.22
472.77	215.33
472.95	238.73
473.13	248.10
473.31	290.23
473.49	248.10
473.67	273.84
473.85	222.35
474.03	257.46
474.21	220.01
474.39	250.44
474.57	264.48
474.75	264.48
474.93	163.84
475.12	170.86
475.30	194.26
475.48	273.84
475.66	145.11
475.84	135.75
476.02	170.86
476.20	259.80
476.38	248.10
476.56	222.35
476.74	205.97
476.92	227.03
477.10	222.35
477.28	376.83
477.46	248.10
477.64	184.90
477.82	252.78
478.00	236.39
478.18	203.63
478.36	245.76
478.54	234.05
478.72	238.73
478.90	229.37
479.08	276.18
479.26	238.73
479.44	248.10
479.62	215.33
479.80	322.99
479.98	285.55
480.16	278.52
480.34	243.42
480.52	245.76
480.70	170.86
480.88	301.93
481.06	252.78
481.24	271.50
481.41	278.52
481.59	322.99
481.77	283.20
481.95	306.61
482.13	365.12
482.31	404.91
482.49	299.59
482.67	360.44
482.85	484.49
483.03	526.62
483.21	451.72
483.39	442.36
483.57	472.79
483.74	610.88
483.92	552.37
484.10	524.28
484.28	533.64
484.46	662.37
484.64	620.24
484.82	657.69
485.00	716.20
485.18	763.01
485.35	784.08
485.53	800.46
485.71	922.17
485.89	821.53
486.07	821.53
486.25	887.06
486.43	917.49
486.61	936.21
486.78	805.14
486.96	814.51
487.14	954.94
487.32	966.64
487.50	873.02
487.68	938.55
487.85	936.21
488.03	861.32
488.21	887.06
488.39	957.28
488.57	889.40
488.75	840.25
488.92	1165.59
489.10	952.60
489.28	851.96
489.46	903.45
489.64	826.21
489.81	903.45
489.99	880.04
490.17	770.04
490.35	889.40
490.53	868.34
490.70	882.38
490.88	816.85
491.06	863.66
491.24	870.68
491.41	882.38
491.59	868.34
491.77	744.29
491.95	833.23
492.13	706.84
492.30	772.38
492.48	760.67
492.66	784.08
492.84	716.20
493.01	744.29
493.19	620.24
493.37	739.61
493.54	669.39
493.72	805.14
493.90	678.76
494.08	622.58
494.25	702.16
494.43	617.90
494.61	667.05
494.79	510.24
494.96	554.71
495.14	620.24
495.32	643.65
495.49	697.48
495.67	692.80
495.85	547.69
496.02	589.82
496.20	674.07
496.38	550.03
496.55	643.65
496.73	592.16
496.91	624.92
497.09	564.07
497.26	617.90
497.44	575.77
497.62	517.26
497.79	540.66
497.97	477.47
498.14	557.05
498.32	400.23
498.50	538.32
498.67	486.83
498.85	475.13
499.03	510.24
499.20	463.43
499.38	528.96
499.56	449.38
499.73	397.89
499.91	400.23
500.08	346.40
500.26	416.62
500.44	414.27
500.61	360.44
500.79	423.64
500.97	411.93
501.14	362.78
501.32	402.57
501.49	353.42
501.67	390.87
501.84	313.63
502.02	243.42
502.20	334.70
502.37	259.80
502.55	255.12
502.72	257.46
502.90	306.61
503.07	344.06
503.25	355.76
503.43	280.86
503.60	196.60
503.78	315.97
503.95	290.23
504.13	325.33
504.30	245.76
504.48	330.02
504.65	327.68
504.83	351.08
505.01	224.69
505.18	318.31
505.36	238.73
505.53	220.01
505.71	271.50
505.88	311.29
506.06	182.56
506.23	304.27
506.41	243.42
506.58	334.70
506.76	278.52
506.93	299.59
507.11	301.93
507.28	285.55
507.46	229.37
507.63	248.10
507.81	208.31
507.98	243.42
508.16	234.05
508.33	346.40
508.50	243.42
508.68	175.54
508.85	238.73
509.03	304.27
509.20	203.63
509.38	262.14
509.55	280.86
509.73	175.54
509.90	271.50
510.08	231.71
510.25	285.55
510.42	231.71
510.60	304.27
510.77	243.42
510.95	341.72
511.12	231.71
511.30	224.69
511.47	227.03
511.64	259.80
511.82	287.89
511.99	280.86
512.17	292.57
512.34	313.63
512.51	196.60
512.69	362.78
512.86	278.52
513.04	257.46
513.21	243.42
513.38	358.10
513.56	264.48
513.73	273.84
513.90	266.82
514.08	217.67
514.25	311.29
514.43	215.33
514.60	196.60
514.77	266.82
514.95	262.14
515.12	283.20
515.29	264.48
515.47	222.35
515.64	339.38
515.81	175.54
515.99	245.76
516.16	161.50
516.33	278.52
516.51	212.99
516.68	205.97
516.85	325.33
517.03	285.55
517.20	299.59
517.37	301.93
517.54	231.71
517.72	292.57
517.89	266.82
518.06	217.67
518.24	252.78
518.41	283.20
518.58	346.40
518.75	271.50
518.93	278.52
519.10	259.80
519.27	252.78
519.45	269.16
519.62	220.01
519.79	217.67
519.96	220.01
520.14	266.82
520.31	273.84
520.48	292.57
520.65	273.84
520.83	292.57
521.00	266.82
521.17	285.55
521.34	227.03
521.52	227.03
521.69	255.12
521.86	224.69
522.03	227.03
522.20	269.16
522.38	299.59
522.55	241.08
522.72	220.01
522.89	322.99
523.07	257.46
523.24	248.10
523.41	189.58
523.58	283.20
523.75	273.84
523.92	252.78
524.10	280.86
524.27	304.27
524.44	280.86
524.61	283.20
524.78	257.46
524.96	255.12
525.13	245.76
525.30	255.12
525.47	241.08
525.64	292.57
525.81	322.99
525.98	231.71
526.16	287.89
526.33	210.65
526.50	248.10
526.67	205.97
526.84	227.03
527.01	252.78
527.18	266.82
527.36	220.01
527.53	245.76
527.70	243.42
527.87	250.44
528.04	306.61
528.21	250.44
528.38	334.70
528.55	257.46
528.72	259.80
528.89	297.25
529.07	266.82
529.24	306.61
529.41	283.20
529.58	278.52
529.75	285.55
529.92	262.14
530.09	280.86
530.26	273.84
530.43	264.48
530.60	255.12
530.77	217.67
530.94	355.76
531.11	348.74
531.28	283.20
531.46	280.86
531.63	301.93
531.80	337.04
531.97	339.38
532.14	297.25
532.31	376.83
532.48	435.34
532.65	374.49
532.82	442.36
532.99	505.56
533.16	543.00
533.33	461.09
533.50	505.56
533.67	470.45
533.84	355.76
534.01	428.32
534.18	355.76
534.35	437.68
534.52	395.55
534.69	468.11
534.86	388.53
535.03	409.59
535.20	449.38
535.37	521.94
535.54	472.79
535.71	528.96
535.88	496.19
536.05	479.81
536.22	477.47
536.38	477.47
536.55	599.18
536.72	582.79
536.89	552.37
537.06	674.07
537.23	723.23
537.40	716.20
537.57	823.87
537.74	835.57
537.91	863.66
538.08	940.90
538.25	978.34
538.42	1095.37
538.59	1146.86
538.75	1200.69
538.92	1214.74
539.09	1198.35
539.26	1376.24
539.43	1406.66
539.60	1647.74
539.77	1692.21
539.94	1755.40
540.11	1921.58
540.28	2129.89
540.44	2186.06
540.61	2321.81
540.78	2672.89
540.95	2974.82
541.12	3634.85
541.29	4002.32
541.46	4514.89
541.62	4779.37
541.79	5200.67
541.96	5790.49
542.13	5790.49
542.30	5804.53
542.47	5778.78
542.63	5633.67
542.80	5640.69
542.97	5727.29
543.14	5825.59
543.31	5771.76
543.48	5741.33
543.64	5818.57
543.81	5654.73
543.98	5518.98
544.15	5502.60
544.32	5284.93
544.48	5085.98
544.65	4968.96
544.82	4748.95
544.99	4533.62
545.16	4512.55
545.32	4624.90
545.49	7452.27
545.66	12308.88
545.83	13895.76
546.00	11400.75
546.16	7742.49
546.33	5465.15
546.50	4084.23
546.67	3030.99
546.83	2661.19
547.00	2551.18
547.17	2326.49
547.34	2216.49
547.50	2157.97
547.67	2125.21
547.84	1919.24
548.00	1987.11
548.17	2083.08
548.34	2064.35
548.51	2190.74
548.67	2179.04
548.84	2076.06
549.01	2148.61
549.18	2188.40
549.34	2001.16
549.51	1980.09
549.68	1757.74
549.84	1755.40
550.01	1666.46
550.18	1755.40
550.34	1540.07
550.51	1481.56
550.68	1401.98
550.84	1437.09
551.01	1359.85
551.18	1366.87
551.34	1320.06
551.51	1308.36
551.68	1303.68
551.84	1343.47
552.01	1352.83
552.18	1282.61
552.34	1217.08
552.51	1254.53
552.68	1128.14
552.84	1179.63
553.01	1076.65
553.18	1032.18
553.34	978.34
553.51	894.08
553.67	887.06
553.84	786.42
554.01	763.01
554.17	725.57
554.34	653.01
554.51	606.20
554.67	650.67
554.84	606.20
555.00	507.90
555.17	538.32
555.33	449.38
555.50	540.66
555.67	472.79
555.83	510.24
556.00	362.78
556.16	564.07
556.33	425.98
556.50	400.23
556.66	465.77
556.83	433.00
556.99	358.10
557.16	376.83
557.32	355.76
557.49	250.44
557.65	362.78
557.82	383.85
557.98	369.80
558.15	374.49
558.32	390.87
558.48	304.27
558.65	411.93
558.81	372.15
558.98	337.04
559.14	423.64
559.31	411.93
559.47	407.25
559.64	348.74
559.80	362.78
559.97	210.65
560.13	294.91
560.30	255.12
560.46	320.65
560.63	262.14
560.79	266.82
560.96	334.70
561.12	278.52
561.29	374.49
561.45	318.31
561.61	257.46
561.78	388.53
561.94	374.49
562.11	231.71
562.27	257.46
562.44	276.18
562.60	304.27
562.77	315.97
562.93	327.68
563.10	332.36
563.26	313.63
563.42	311.29
563.59	311.29
563.75	285.55
563.92	320.65
564.08	322.99
564.24	283.20
564.41	372.15
564.57	337.04
564.74	205.97
564.90	362.78
565.07	320.65
565.23	276.18
565.39	217.67
565.56	276.18
565.72	205.97
565.88	236.39
566.05	325.33
566.21	325.33
566.38	348.74
566.54	315.97
566.70	229.37
566.87	280.86
567.03	259.80
567.19	252.78
567.36	287.89
567.52	222.35
567.68	330.02
567.85	294.91
568.01	191.92
568.17	330.02
568.34	236.39
568.50	308.95
568.66	322.99
568.83	383.85
568.99	287.89
569.15	280.86
569.32	243.42
569.48	259.80
569.64	194.26
569.81	255.12
569.97	191.92
570.13	252.78
570.30	301.93
570.46	311.29
570.62	248.10
570.78	271.50
570.95	243.42
571.11	283.20
571.27	287.89
571.43	285.55
571.60	280.86
571.76	374.49
571.92	306.61
572.09	250.44
572.25	330.02
572.41	325.33
572.57	299.59
572.74	367.46
572.90	292.57
573.06	334.70
573.22	182.56
573.38	266.82
573.55	351.08
573.71	341.72
573.87	297.25
574.03	264.48
574.20	358.10
574.36	411.93
574.52	266.82
574.68	334.70
574.84	294.91
575.01	287.89
575.17	276.18
575.33	227.03
575.49	273.84
575.65	402.57
575.82	372.15
575.98	500.87
576.14	456.40
576.30	664.71
576.46	1603.27
576.62	2317.13
576.79	2443.52
576.95	1785.83
577.11	1224.10
577.27	828.55
577.43	758.33
577.59	449.38
577.75	435.34
577.92	433.00
578.08	491.51
578.24	418.96
578.40	674.07
578.56	1570.50
578.72	2225.85
578.88	2340.54
579.04	1813.92
579.21	1359.85
579.37	1135.16
579.53	973.66
579.69	1036.86
579.85	1217.08
580.01	1219.42
580.17	1289.64
580.33	1118.78
580.49	1004.09
580.65	922.17
580.82	940.90
580.98	847.27
581.14	856.64
581.30	896.43
581.46	849.61
581.62	966.64
581.78	891.74
581.94	1048.56
582.10	1006.43
582.26	1200.69
582.42	1137.50
582.58	1121.12
582.74	1198.35
582.90	1275.59
583.06	1219.42
583.22	1313.04
583.38	1378.58
583.54	1334.11
583.70	1355.17
583.86	1315.38
584.02	1224.10
584.18	1352.83
584.34	1277.93
584.50	1249.85
584.66	1135.16
584.82	1111.75
584.98	1067.28
585.14	1041.54
585.30	1067.28
585.46	959.62
585.62	1041.54
585.78	1004.09
585.94	978.34
586.10	961.96
586.26	1172.61
586.42	1259.21
586.58	1490.92
586.74	1661.78
586.90	1837.32
587.06	2054.99
587.22	2033.93
587.38	1959.03
587.54	1760.08
587.70	1591.56
587.86	1444.11
588.02	1345.81
588.18	1139.84
588.34	1158.57
588.49	1078.99
588.65	968.98
588.81	910.47
588.97	889.40
589.13	823.87
589.29	945.58
589.45	887.06
589.61	938.55
589.77	924.51
589.93	854.30
590.08	856.64
590.24	882.38
590.40	858.98
590.56	861.32
590.72	784.08
590.88	791.10
591.04	812.17
591.20	896.43
591.35	863.66
591.51	786.42
591.67	861.32
591.83	828.55
591.99	1022.81
592.15	1053.24
592.31	1074.31
592.46	1071.97
592.62	1200.69
592.78	1329.42
592.94	1277.93
593.10	1224.10
593.26	1266.23
593.41	1135.16
593.57	968.98
593.73	858.98
593.89	805.14
594.05	657.69
594.20	641.31
594.36	678.76
594.52	634.29
594.68	582.79
594.84	573.43
594.99	653.01
595.15	547.69
595.31	648.33
595.47	608.54
595.62	596.84
595.78	486.83
595.94	521.94
596.10	524.28
596.25	608.54
596.41	613.22
596.57	547.69
596.73	554.71
596.88	465.77
597.04	543.00
597.20	482.15
597.36	585.13
597.51	540.66
597.67	571.09
597.83	564.07
597.99	699.82
598.14	617.90
598.30	671.73
598.46	767.70
598.61	732.59
598.77	793.44
598.93	828.55
599.09	856.64
599.24	833.23
599.40	858.98
599.56	851.96
599.71	746.63
599.87	837.91
600.03	763.01
600.18	638.97
600.34	692.80
600.50	674.07
600.65	610.88
600.81	524.28
600.97	454.06
601.12	449.38
601.28	510.24
601.44	517.26
601.59	470.45
601.75	416.62
601.91	388.53
602.06	425.98
602.22	526.62
602.37	442.36
602.53	374.49
602.69	374.49
602.84	425.98
603.00	365.12
603.16	388.53
603.31	430.66
603.47	365.12
603.62	435.34
603.78	435.34
603.94	498.53
604.09	470.45
604.25	528.96
604.40	489.17
604.56	402.57
604.71	458.74
604.87	524.28
605.03	479.81
605.18	512.58
605.34	528.96
605.49	486.83
605.65	493.85
605.80	423.64
605.96	482.15
606.12	507.90
606.27	589.82
606.43	587.47
606.58	535.98
606.74	585.13
606.89	645.99
607.05	660.03
607.20	601.52
607.36	688.12
607.51	739.61
607.67	737.27
607.82	734.93
607.98	917.49
608.13	877.70
608.29	926.85
608.44	1022.81
608.60	1116.44
608.75	1114.10
608.91	1369.21
609.06	1399.64
609.22	1514.33
609.37	1638.38
609.53	1771.79
609.68	1926.26
609.84	2284.36
609.99	2663.53
610.15	3316.54
610.30	4030.40
610.46	5050.88
610.61	6654.14
610.76	8425.93
610.92	10246.87
611.07	11358.62
611.23	11482.67
611.38	10759.44
611.54	9041.49
611.69	7887.61
611.84	6642.44
612.00	5544.73
612.15	4561.70
612.31	4117.00
612.46	3510.80
612.62	3445.27
612.77	3379.73
612.92	3269.73
613.08	2984.18
613.23	2736.09
613.39	2630.76
613.54	2562.89
613.69	2619.06
613.85	2565.23
614.00	2686.94
614.15	2661.19
614.31	2562.89
614.46	2541.82
614.62	2413.09
614.77	2387.35
614.92	2193.08
615.08	2003.50
615.23	1849.02
615.38	1715.61
615.54	1570.50
615.69	1540.07
615.84	1394.96
616.00	1196.01
616.15	1184.31
616.30	1200.69
616.46	1196.01
616.61	1095.37
616.76	999.41
616.92	983.02
617.07	1027.50
617.22	1069.62
617.37	894.08
617.53	891.74
617.68	877.70
617.83	849.61
617.99	840.25
618.14	856.64
618.29	866.00
618.45	835.57
618.60	915.15
618.75	840.25
618.90	809.83
619.06	936.21
619.21	985.37
619.36	999.41
619.51	924.51
619.67	917.49
619.82	922.17
619.97	980.68
620.12	985.37
620.28	1055.58
620.43	1074.31
620.58	943.24
620.73	1029.84
620.89	973.66
621.04	973.66
621.19	997.07
621.34	931.53
621.49	898.77
621.65	943.24
621.80	924.51
621.95	849.61
622.10	875.36
622.25	882.38
622.41	908.13
622.56	788.76
622.71	849.61
622.86	842.59
623.01	791.10
623.16	755.99
623.32	746.63
623.47	765.36
623.62	793.44
623.77	849.61
623.92	807.48
624.07	795.78
624.23	753.65
624.38	709.18
624.53	809.83
624.68	763.01
624.83	840.25
624.98	744.29
625.13	784.08
625.29	723.23
625.44	702.16
625.59	709.18
625.74	676.41
625.89	755.99
626.04	636.63
626.19	716.20
626.34	627.26
626.49	641.31
626.65	629.60
626.80	683.44
626.95	692.80
627.10	641.31
627.25	723.23
627.40	599.18
627.55	664.71
627.70	669.39
627.85	683.44
628.00	641.31
628.15	599.18
628.30	645.99
628.45	645.99
628.60	643.65
628.76	669.39
628.91	662.37
629.06	629.60
629.21	685.78
629.36	676.41
629.51	617.90
629.66	767.70
629.81	748.97
629.96	847.27
630.11	961.96
630.26	1011.11
630.41	1198.35
630.56	1226.44
630.71	1378.58
630.86	1336.45
631.01	1249.85
631.16	1268.57
631.31	1071.97
631.46	938.55
631.61	823.87
631.76	669.39
631.91	592.16
632.06	557.05
632.21	543.00
632.36	433.00
632.51	334.70
632.66	379.17
632.81	311.29
632.96	430.66
633.10	318.31
633.25	348.74
633.40	315.97
633.55	299.59
633.70	269.16
633.85	306.61
634.00	402.57
634.15	308.95
634.30	367.46
634.45	306.61
634.60	271.50
634.75	287.89
634.90	306.61
635.05	241.08
635.19	283.20
635.34	285.55
635.49	325.33
635.64	224.69
635.79	292.57
635.94	320.65
636.09	351.08
636.24	271.50
636.39	299.59
636.53	229.37
636.68	241.08
636.83	276.18
636.98	294.91
637.13	271.50
637.28	271.50
637.43	353.42
637.57	276.18
637.72	248.10
637.87	294.91
638.02	255.12
638.17	273.84
638.32	327.68
638.46	222.35
638.61	262.14
638.76	241.08
638.91	292.57
639.06	189.58
639.20	231.71
639.35	280.86
639.50	180.22
639.65	297.25
639.80	227.03
639.94	245.76
640.09	297.25
640.24	259.80
640.39	191.92
640.54	234.05
640.68	198.95
640.83	355.76
640.98	212.99
641.13	287.89
641.27	166.18
641.42	259.80
641.57	337.04
641.72	252.78
641.86	234.05
642.01	212.99
642.16	285.55
642.31	266.82
642.45	292.57
642.60	283.20
642.75	290.23
642.90	259.80
643.04	229.37
643.19	215.33
643.34	238.73
643.48	285.55
643.63	227.03
643.78	257.46
643.93	313.63
644.07	236.39
644.22	229.37
644.37	152.13
644.51	301.93
644.66	299.59
644.81	224.69
644.95	238.73
645.10	198.95
645.25	255.12
645.39	299.59
645.54	280.86
645.69	287.89
645.83	175.54
645.98	372.15
646.13	241.08
646.27	227.03
646.42	217.67
646.57	217.67
646.71	224.69
646.86	222.35
647.00	292.57
647.15	287.89
647.30	201.29
647.44	264.48
647.59	177.88
647.74	255.12
647.88	243.42
648.03	191.92
648.17	222.35
648.32	163.84
648.47	283.20
648.61	252.78
648.76	205.97
648.90	189.58
649.05	243.42
649.20	255.12
649.34	315.97
649.49	248.10
649.63	264.48
649.78	341.72
649.92	402.57
650.07	358.10
650.21	393.21
650.36	510.24
650.51	482.15
650.65	463.43
650.80	355.76
650.94	297.25
651.09	374.49
651.23	367.46
651.38	236.39
651.52	322.99
651.67	241.08
651.81	292.57
651.96	290.23
652.10	292.57
652.25	224.69
652.39	243.42
652.54	255.12
652.68	358.10
652.83	325.33
652.97	278.52
653.12	304.27
653.26	311.29
653.41	266.82
653.55	266.82
653.70	215.33
653.84	175.54
653.99	278.52
654.13	203.63
654.27	248.10
654.42	196.60
654.56	248.10
654.71	322.99
654.85	189.58
655.00	227.03
655.14	203.63
655.29	257.46
655.43	299.59
655.57	222.35
655.72	191.92
655.86	175.54
656.01	262.14
656.15	180.22
656.30	220.01
656.44	196.60
656.58	140.43
656.73	161.50
656.87	131.07
657.01	194.26
657.16	264.48
657.30	259.80
657.45	269.16
657.59	278.52
657.73	292.57
657.88	212.99
658.02	283.20
658.16	220.01
658.31	147.45
658.45	212.99
658.60	210.65
658.74	217.67
658.88	236.39
659.03	201.29
659.17	187.24
659.31	205.97
659.46	126.39
659.60	156.82
659.74	131.07
659.89	245.76
660.03	173.20
660.17	205.97
660.32	182.56
660.46	217.67
660.60	220.01
660.74	215.33
660.89	229.37
661.03	252.78
661.17	175.54
661.32	222.35
661.46	196.60
661.60	238.73
661.74	250.44
661.89	355.76
662.03	330.02
662.17	337.04
662.31	369.80
662.46	353.42
662.60	337.04
662.74	290.23
662.88	273.84
663.03	191.92
663.17	215.33
663.31	243.42
663.45	180.22
663.60	271.50
663.74	205.97
663.88	180.22
664.02	208.31
664.17	198.95
664.31	182.56
664.45	264.48
664.59	194.26
664.73	205.97
664.88	266.82
665.02	177.88
665.16	180.22
665.30	170.86
665.44	117.03
665.59	173.20
665.73	194.26
665.87	196.60
666.01	269.16
666.15	248.10
666.29	184.90
666.44	149.79
666.58	231.71
666.72	250.44
666.86	283.20
667.00	217.67
667.14	180.22
667.28	220.01
667.43	215.33
667.57	238.73
667.71	294.91
667.85	264.48
667.99	149.79
668.13	173.20
668.27	196.60
668.41	227.03
668.56	217.67
668.70	276.18
668.84	257.46
668.98	184.90
669.12	194.26
669.26	168.52
669.40	255.12
669.54	224.69
669.68	259.80
669.82	173.20
669.96	252.78
670.10	257.46
670.25	205.97
670.39	180.22
670.53	224.69
670.67	208.31
670.81	222.35
670.95	217.67
671.09	182.56
671.23	255.12
671.37	189.58
671.51	262.14
671.65	229.37
671.79	177.88
671.93	191.92
672.07	290.23
672.21	145.11
672.35	229.37
672.49	271.50
672.63	229.37
672.77	114.69
672.91	135.75
673.05	255.12
673.19	187.24
673.33	191.92
673.47	266.82
673.61	177.88
673.75	236.39
673.89	173.20
674.03	212.99
674.17	135.75
674.31	215.33
674.45	255.12
674.59	208.31
674.73	163.84
674.87	161.50
675.01	173.20
675.15	177.88
675.29	208.31
675.43	149.79
675.56	220.01
675.70	196.60
675.84	119.37
675.98	205.97
676.12	147.45
676.26	145.11
676.40	121.71
676.54	131.07
676.68	191.92
676.82	184.90
676.96	189.58
677.10	220.01
677.23	177.88
677.37	114.69
677.51	217.67
677.65	262.14
677.79	243.42
677.93	133.41
678.07	154.48
678.21	114.69
678.34	131.07
678.48	177.88
678.62	196.60
678.76	175.54
678.90	229.37
679.04	198.95
679.18	149.79
679.31	166.18
679.45	154.48
679.59	140.43
679.73	147.45
679.87	182.56
680.00	215.33
680.14	217.67
680.28	145.11
680.42	198.95
680.56	182.56
680.70	138.09
680.83	203.63
680.97	217.67
681.11	215.33
681.25	217.67
681.39	135.75
681.52	189.58
681.66	145.11
681.80	196.60
681.94	159.16
682.07	196.60
682.21	145.11
682.35	131.07
682.49	117.03
682.62	212.99
682.76	117.03
682.90	194.26
683.04	131.07
683.17	163.84
683.31	145.11
683.45	163.84
683.59	224.69
683.72	245.76
683.86	159.16
684.00	210.65
684.13	229.37
684.27	173.20
684.41	229.37
684.55	205.97
684.68	182.56
684.82	142.77
684.96	231.71
685.09	220.01
685.23	182.56
685.37	191.92
685.50	152.13
685.64	170.86
685.78	170.86
685.91	138.09
686.05	182.56
686.19	201.29
686.32	205.97
686.46	187.24
686.60	175.54
686.73	175.54
686.87	191.92
687.01	175.54
687.14	212.99
687.28	210.65
687.42	220.01
687.55	175.54
687.69	248.10
687.82	173.20
687.96	255.12
688.10	318.31
688.23	187.24
688.37	234.05
688.50	189.58
688.64	173.20
688.78	131.07
688.91	229.37
689.05	154.48
689.18	198.95
689.32	217.67
689.46	170.86
689.59	135.75
689.73	117.03
689.86	51.49
690.00	163.84
690.13	203.63
690.27	133.41
690.41	142.77
690.54	145.11
690.68	177.88
690.81	142.77
690.95	74.90
691.08	105.32
691.22	159.16
691.35	107.66
691.49	159.16
691.62	84.26
691.76	65.54
691.89	170.86
692.03	56.17
692.16	114.69
692.30	182.56
692.43	138.09
692.57	131.07
692.70	163.84
692.84	133.41
692.97	191.92
693.11	177.88
693.24	222.35
693.38	166.18
693.51	112.35
693.65	189.58
693.78	133.41
693.92	133.41
694.05	229.37
694.19	161.50
694.32	187.24
694.45	93.62
694.59	105.32
694.72	145.11
694.86	112.35
694.99	170.86
695.13	70.22
695.26	156.82
695.39	142.77
695.53	194.26
695.66	93.62
695.80	184.90
695.93	145.11
696.07	154.48
696.20	112.35
696.33	110.01
696.47	168.52
696.60	217.67
696.73	142.77
696.87	86.60
697.00	140.43
697.14	161.50
697.27	126.39
697.40	259.80
697.54	126.39
697.67	149.79
697.80	81.92
697.94	140.43
698.07	114.69
698.21	23.41
698.34	156.82
698.47	112.35
698.61	105.32
698.74	121.71
698.87	135.75
699.01	156.82
699.14	98.30
699.27	131.07
699.40	184.90
699.54	95.96
699.67	65.54
699.80	88.94
699.94	86.60
700.07	98.30
700.20	110.01
700.34	88.94
700.47	63.19
700.60	102.98
700.73	93.62
700.87	117.03
701.00	105.32
701.13	152.13
701.26	191.92
701.40	112.35
701.53	88.94
701.66	187.24
701.79	142.77
701.93	79.58
702.06	175.54
702.19	102.98
702.32	114.69
702.46	56.17
702.59	44.47
702.72	102.98
702.85	105.32
702.99	128.73
703.12	173.20
703.25	46.81
703.38	140.43
703.51	124.05
703.65	110.01
703.78	161.50
703.91	161.50
704.04	168.52
704.17	147.45
704.31	124.05
704.44	58.51
704.57	149.79
704.70	112.35
704.83	152.13
704.96	131.07
705.10	154.48
705.23	110.01
>>>>>End Processed Spectral Data<<<<<
