SpectraSuite Data File
++++++++++++++++++++++++++++++++++++
Date: Fri Oct 04 11:41:51 GMT-05:00 2013
User: price-jones
Dark Spectrum Present: No
Reference Spectrum Present: No
Number of Sampled Component Spectra: 1
Spectrometers: USB2+H05261
Integration Time (usec): 100000 (USB2+H05261)
Spectra Averaged: 1 (USB2+H05261)
Boxcar Smoothing: 0 (USB2+H05261)
Correct for Electrical Dark: No (USB2+H05261)
Strobe/Lamp Enabled: No (USB2+H05261)
Correct for Detector Non-linearity: No (USB2+H05261)
Correct for Stray Light: No (USB2+H05261)
Number of Pixels in Processed Spectrum: 2048
>>>>>Begin Processed Spectral Data<<<<<
365.73	28.09
365.92	28.09
366.12	28.09
366.32	0.00
366.52	0.00
366.72	0.00
366.91	0.00
367.11	0.00
367.31	0.00
367.51	0.00
367.70	0.00
367.90	0.00
368.10	0.00
368.30	0.00
368.49	0.00
368.69	0.00
368.89	0.00
369.09	0.00
369.28	0.00
369.48	0.00
369.68	0.00
369.87	0.00
370.07	28.09
370.27	53.83
370.47	23.41
370.66	18.72
370.86	88.94
371.06	102.98
371.25	124.05
371.45	56.17
371.65	30.43
371.84	124.05
372.04	91.28
372.24	79.58
372.44	133.41
372.63	77.24
372.83	170.86
373.03	42.13
373.22	131.07
373.42	121.71
373.62	121.71
373.81	163.84
374.01	131.07
374.21	102.98
374.40	65.54
374.60	105.32
374.79	128.73
374.99	32.77
375.19	63.19
375.38	126.39
375.58	128.73
375.78	131.07
375.97	124.05
376.17	203.63
376.37	147.45
376.56	196.60
376.76	131.07
376.95	175.54
377.15	84.26
377.35	112.35
377.54	81.92
377.74	93.62
377.93	100.64
378.13	161.50
378.33	117.03
378.52	117.03
378.72	168.52
378.91	203.63
379.11	149.79
379.31	154.48
379.50	177.88
379.70	173.20
379.89	177.88
380.09	121.71
380.28	95.96
380.48	107.66
380.68	98.30
380.87	91.28
381.07	88.94
381.26	208.31
381.46	121.71
381.65	203.63
381.85	93.62
382.04	126.39
382.24	142.77
382.43	32.77
382.63	140.43
382.83	84.26
383.02	140.43
383.22	170.86
383.41	0.00
383.61	131.07
383.80	145.11
384.00	201.29
384.19	81.92
384.39	105.32
384.58	37.45
384.78	77.24
384.97	147.45
385.17	107.66
385.36	131.07
385.56	238.73
385.75	107.66
385.95	135.75
386.14	135.75
386.34	18.72
386.53	117.03
386.72	142.77
386.92	133.41
387.11	119.37
387.31	152.13
387.50	102.98
387.70	126.39
387.89	98.30
388.09	79.58
388.28	135.75
388.48	53.83
388.67	107.66
388.86	112.35
389.06	121.71
389.25	77.24
389.45	105.32
389.64	128.73
389.84	63.19
390.03	117.03
390.22	133.41
390.42	166.18
390.61	224.69
390.81	117.03
391.00	126.39
391.19	203.63
391.39	112.35
391.58	95.96
391.78	135.75
391.97	135.75
392.16	86.60
392.36	163.84
392.55	114.69
392.75	91.28
392.94	119.37
393.13	138.09
393.33	140.43
393.52	65.54
393.71	177.88
393.91	154.48
394.10	93.62
394.29	126.39
394.49	39.79
394.68	117.03
394.88	117.03
395.07	156.82
395.26	168.52
395.46	119.37
395.65	133.41
395.84	117.03
396.04	248.10
396.23	177.88
396.42	222.35
396.62	166.18
396.81	180.22
397.00	180.22
397.19	170.86
397.39	112.35
397.58	168.52
397.77	203.63
397.97	154.48
398.16	168.52
398.35	110.01
398.55	131.07
398.74	124.05
398.93	187.24
399.12	182.56
399.32	163.84
399.51	191.92
399.70	182.56
399.90	198.95
400.09	177.88
400.28	173.20
400.47	140.43
400.67	184.90
400.86	159.16
401.05	245.76
401.24	220.01
401.44	198.95
401.63	187.24
401.82	187.24
402.01	170.86
402.21	170.86
402.40	173.20
402.59	149.79
402.78	194.26
402.97	187.24
403.17	191.92
403.36	330.02
403.55	388.53
403.74	678.76
403.93	2232.87
404.13	5783.46
404.32	9114.05
404.51	8901.06
404.70	5619.63
404.89	2118.18
405.09	727.91
405.28	315.97
405.47	269.16
405.66	222.35
405.85	262.14
406.05	201.29
406.24	252.78
406.43	126.39
406.62	243.42
406.81	283.20
407.00	418.96
407.20	667.05
407.39	1137.50
407.58	1313.04
407.77	1043.88
407.96	571.09
408.15	306.61
408.34	212.99
408.54	266.82
408.73	177.88
408.92	182.56
409.11	173.20
409.30	189.58
409.49	138.09
409.68	215.33
409.87	250.44
410.07	217.67
410.26	234.05
410.45	255.12
410.64	208.31
410.83	241.08
411.02	227.03
411.21	203.63
411.40	208.31
411.59	208.31
411.78	252.78
411.98	252.78
412.17	210.65
412.36	159.16
412.55	170.86
412.74	294.91
412.93	344.06
413.12	196.60
413.31	262.14
413.50	271.50
413.69	170.86
413.88	255.12
414.07	194.26
414.26	285.55
414.45	212.99
414.64	264.48
414.83	238.73
415.02	262.14
415.22	311.29
415.41	346.40
415.60	259.80
415.79	283.20
415.98	243.42
416.17	276.18
416.36	245.76
416.55	262.14
416.74	245.76
416.93	341.72
417.12	294.91
417.31	353.42
417.50	215.33
417.69	325.33
417.88	330.02
418.07	238.73
418.26	248.10
418.45	308.95
418.64	360.44
418.83	266.82
419.02	287.89
419.21	271.50
419.39	376.83
419.58	297.25
419.77	290.23
419.96	339.38
420.15	334.70
420.34	311.29
420.53	271.50
420.72	283.20
420.91	381.51
421.10	379.17
421.29	365.12
421.48	358.10
421.67	409.59
421.86	308.95
422.05	372.15
422.24	372.15
422.43	313.63
422.61	297.25
422.80	280.86
422.99	245.76
423.18	348.74
423.37	308.95
423.56	353.42
423.75	386.19
423.94	250.44
424.13	278.52
424.32	358.10
424.50	386.19
424.69	367.46
424.88	285.55
425.07	339.38
425.26	362.78
425.45	355.76
425.64	320.65
425.83	404.91
426.01	400.23
426.20	337.04
426.39	411.93
426.58	348.74
426.77	304.27
426.96	437.68
427.15	383.85
427.33	320.65
427.52	390.87
427.71	367.46
427.90	435.34
428.09	339.38
428.28	449.38
428.46	414.27
428.65	444.70
428.84	470.45
429.03	397.89
429.22	433.00
429.40	409.59
429.59	388.53
429.78	418.96
429.97	393.21
430.16	414.27
430.34	456.40
430.53	451.72
430.72	404.91
430.91	430.66
431.10	423.64
431.28	470.45
431.47	484.49
431.66	519.60
431.85	468.11
432.03	510.24
432.22	461.09
432.41	521.94
432.60	582.79
432.79	528.96
432.97	498.53
433.16	507.90
433.35	552.37
433.54	739.61
433.72	905.79
433.91	781.74
434.10	863.66
434.28	1100.05
434.47	1240.48
434.66	1404.32
434.85	1607.95
435.03	3747.20
435.22	13935.55
435.41	35442.73
435.59	46454.95
435.78	31585.53
435.97	14815.59
436.16	5472.17
436.34	1865.41
436.53	1043.88
436.72	863.66
436.90	678.76
437.09	709.18
437.28	636.63
437.46	571.09
437.65	648.33
437.84	678.76
438.02	524.28
438.21	550.03
438.40	573.43
438.58	594.50
438.77	557.05
438.96	613.22
439.14	641.31
439.33	601.52
439.52	538.32
439.70	624.92
439.89	596.84
440.08	559.39
440.26	610.88
440.45	664.71
440.63	465.77
440.82	552.37
441.01	505.56
441.19	510.24
441.38	507.90
441.57	578.11
441.75	650.67
441.94	568.75
442.12	596.84
442.31	564.07
442.50	505.56
442.68	519.60
442.87	510.24
443.05	461.09
443.24	552.37
443.43	517.26
443.61	578.11
443.80	575.77
443.98	561.73
444.17	545.34
444.35	582.79
444.54	545.34
444.73	505.56
444.91	545.34
445.10	489.17
445.28	559.39
445.47	575.77
445.65	582.79
445.84	479.81
446.02	566.41
446.21	582.79
446.39	557.05
446.58	517.26
446.77	468.11
446.95	517.26
447.14	491.51
447.32	573.43
447.51	489.17
447.69	601.52
447.88	559.39
448.06	557.05
448.25	582.79
448.43	580.45
448.62	571.09
448.80	580.45
448.99	526.62
449.17	514.92
449.36	498.53
449.54	648.33
449.73	491.51
449.91	472.79
450.10	535.98
450.28	535.98
450.46	550.03
450.65	573.43
450.83	545.34
451.02	528.96
451.20	627.26
451.39	489.17
451.57	484.49
451.76	540.66
451.94	594.50
452.13	477.47
452.31	582.79
452.49	582.79
452.68	503.22
452.86	547.69
453.05	538.32
453.23	486.83
453.42	599.18
453.60	461.09
453.78	479.81
453.97	550.03
454.15	505.56
454.34	433.00
454.52	528.96
454.70	566.41
454.89	552.37
455.07	552.37
455.26	526.62
455.44	559.39
455.62	512.58
455.81	482.15
455.99	528.96
456.17	528.96
456.36	526.62
456.54	489.17
456.73	461.09
456.91	545.34
457.09	505.56
457.28	526.62
457.46	517.26
457.64	603.86
457.83	538.32
458.01	475.13
458.19	599.18
458.38	465.77
458.56	571.09
458.74	491.51
458.93	514.92
459.11	571.09
459.29	505.56
459.48	517.26
459.66	587.47
459.84	599.18
460.03	645.99
460.21	533.64
460.39	550.03
460.57	575.77
460.76	552.37
460.94	528.96
461.12	594.50
461.31	528.96
461.49	561.73
461.67	477.47
461.85	503.22
462.04	528.96
462.22	1041.54
462.40	528.96
462.59	566.41
462.77	503.22
462.95	517.26
463.13	505.56
463.32	510.24
463.50	557.05
463.68	505.56
463.86	472.79
464.05	505.56
464.23	589.82
464.41	561.73
464.59	477.47
464.78	547.69
464.96	594.50
465.14	512.58
465.32	514.92
465.50	533.64
465.69	531.30
465.87	489.17
466.05	475.13
466.23	484.49
466.41	559.39
466.60	641.31
466.78	547.69
466.96	512.58
467.14	589.82
467.32	585.13
467.51	552.37
467.69	507.90
467.87	500.87
468.05	475.13
468.23	521.94
468.41	540.66
468.60	540.66
468.78	493.85
468.96	512.58
469.14	566.41
469.32	498.53
469.50	477.47
469.69	444.70
469.87	447.04
470.05	414.27
470.23	430.66
470.41	496.19
470.59	484.49
470.77	538.32
470.95	561.73
471.14	531.30
471.32	503.22
471.50	437.68
471.68	461.09
471.86	416.62
472.04	538.32
472.22	545.34
472.40	449.38
472.58	400.23
472.77	482.15
472.95	421.30
473.13	531.30
473.31	454.06
473.49	451.72
473.67	451.72
473.85	470.45
474.03	533.64
474.21	559.39
474.39	535.98
474.57	585.13
474.75	500.87
474.93	395.55
475.12	468.11
475.30	449.38
475.48	454.06
475.66	421.30
475.84	472.79
476.02	561.73
476.20	568.75
476.38	472.79
476.56	507.90
476.74	416.62
476.92	477.47
477.10	512.58
477.28	573.43
477.46	451.72
477.64	566.41
477.82	538.32
478.00	582.79
478.18	484.49
478.36	517.26
478.54	610.88
478.72	617.90
478.90	688.12
479.08	695.14
479.26	627.26
479.44	622.58
479.62	660.03
479.80	674.07
479.98	716.20
480.16	786.42
480.34	753.65
480.52	681.10
480.70	814.51
480.88	835.57
481.06	861.32
481.24	912.81
481.41	919.83
481.59	1111.75
481.77	1086.01
481.95	1060.26
482.13	1294.32
482.31	1217.08
482.49	1306.02
482.67	1441.77
482.85	1596.25
483.03	1696.89
483.21	1736.68
483.39	1797.53
483.57	2005.84
483.74	2272.66
483.92	2195.42
484.10	2305.43
484.28	2644.81
484.46	2651.83
484.64	2740.77
484.82	2857.79
485.00	3028.65
485.18	3150.36
485.35	3391.44
485.53	3574.00
485.71	3747.20
485.89	3974.23
486.07	3974.23
486.25	4084.23
486.43	4105.30
486.61	3918.06
486.78	4039.76
486.96	4046.79
487.14	4147.43
487.32	4032.74
487.50	3922.74
487.68	4070.19
487.85	3929.76
488.03	4016.36
488.21	3824.44
488.39	3688.68
488.57	3721.45
488.75	3623.15
488.92	3744.86
489.10	3468.67
489.28	3290.79
489.46	3375.05
489.64	3286.11
489.81	3155.04
489.99	3138.66
490.17	3028.65
490.35	3098.87
490.53	3012.27
490.70	2967.80
490.88	3103.55
491.06	3171.43
491.24	3485.06
491.41	3538.89
491.59	3314.20
491.77	2977.16
491.95	3005.25
492.13	2829.71
492.30	2801.62
492.48	2686.94
492.66	2750.13
492.84	2710.34
493.01	2668.21
493.19	2572.25
493.37	2644.81
493.54	2581.61
493.72	2480.97
493.90	2511.39
494.08	2445.86
494.25	2452.88
494.43	2356.92
494.61	2368.62
494.79	2361.60
494.96	2249.25
495.14	2186.06
495.32	2167.34
495.49	2134.57
495.67	2125.21
495.85	2129.89
496.02	1956.69
496.20	1886.47
496.38	1959.03
496.55	1860.73
496.73	1959.03
496.91	1926.26
497.09	1856.04
497.26	1827.96
497.44	1774.13
497.62	1713.27
497.79	1804.55
497.97	1724.97
498.14	1699.23
498.32	1561.14
498.50	1624.33
498.67	1514.33
498.85	1603.27
499.03	1439.43
499.20	1397.30
499.38	1317.72
499.56	1352.83
499.73	1481.56
499.91	1364.53
500.08	1315.38
500.26	1221.76
500.44	1200.69
500.61	1125.80
500.79	1191.33
500.97	1102.39
501.14	1034.52
501.32	1027.50
501.49	1039.20
501.67	1001.75
501.84	1004.09
502.02	926.85
502.20	945.58
502.37	924.51
502.55	898.77
502.72	868.34
502.90	816.85
503.07	779.40
503.25	763.01
503.43	819.19
503.60	791.10
503.78	678.76
503.95	723.23
504.13	770.04
504.30	802.80
504.48	725.57
504.65	737.27
504.83	669.39
505.01	755.99
505.18	653.01
505.36	568.75
505.53	655.35
505.71	667.05
505.88	631.94
506.06	545.34
506.23	603.86
506.41	575.77
506.58	610.88
506.76	557.05
506.93	631.94
507.11	528.96
507.28	615.56
507.46	603.86
507.63	535.98
507.81	566.41
507.98	533.64
508.16	564.07
508.33	493.85
508.50	589.82
508.68	589.82
508.85	685.78
509.03	650.67
509.20	566.41
509.38	627.26
509.55	596.84
509.73	528.96
509.90	503.22
510.08	526.62
510.25	582.79
510.42	486.83
510.60	526.62
510.77	615.56
510.95	503.22
511.12	428.32
511.30	512.58
511.47	489.17
511.64	477.47
511.82	547.69
511.99	510.24
512.17	521.94
512.34	533.64
512.51	468.11
512.69	465.77
512.86	444.70
513.04	458.74
513.21	437.68
513.38	456.40
513.56	451.72
513.73	440.02
513.90	404.91
514.08	468.11
514.25	421.30
514.43	442.36
514.60	348.74
514.77	484.49
514.95	416.62
515.12	418.96
515.29	418.96
515.47	428.32
515.64	404.91
515.81	386.19
515.99	526.62
516.16	510.24
516.33	437.68
516.51	418.96
516.68	409.59
516.85	500.87
517.03	404.91
517.20	486.83
517.37	388.53
517.54	454.06
517.72	376.83
517.89	346.40
518.06	421.30
518.24	430.66
518.41	425.98
518.58	416.62
518.75	379.17
518.93	353.42
519.10	397.89
519.27	414.27
519.45	404.91
519.62	421.30
519.79	468.11
519.96	348.74
520.14	423.64
520.31	425.98
520.48	285.55
520.65	344.06
520.83	404.91
521.00	449.38
521.17	433.00
521.34	393.21
521.52	423.64
521.69	440.02
521.86	395.55
522.03	376.83
522.20	421.30
522.38	404.91
522.55	444.70
522.72	404.91
522.89	407.25
523.07	484.49
523.24	463.43
523.41	372.15
523.58	402.57
523.75	437.68
523.92	400.23
524.10	402.57
524.27	379.17
524.44	421.30
524.61	472.79
524.78	395.55
524.96	425.98
525.13	414.27
525.30	482.15
525.47	414.27
525.64	414.27
525.81	517.26
525.98	463.43
526.16	484.49
526.33	493.85
526.50	418.96
526.67	397.89
526.84	428.32
527.01	486.83
527.18	496.19
527.36	599.18
527.53	589.82
527.70	627.26
527.87	533.64
528.04	559.39
528.21	521.94
528.38	493.85
528.55	641.31
528.72	662.37
528.89	608.54
529.07	552.37
529.24	517.26
529.41	620.24
529.58	538.32
529.75	543.00
529.92	608.54
530.09	580.45
530.26	648.33
530.43	615.56
530.60	603.86
530.77	650.67
530.94	587.47
531.11	645.99
531.28	650.67
531.46	781.74
531.63	737.27
531.80	858.98
531.97	873.02
532.14	1020.47
532.31	1050.90
532.48	1380.92
532.65	1638.38
532.82	1671.14
532.99	2045.63
533.16	2246.91
533.33	2518.42
533.50	2352.24
533.67	2001.16
533.84	1750.72
534.01	1467.52
534.18	1336.45
534.35	1338.79
534.52	1399.64
534.69	1490.92
534.86	1453.47
535.03	1434.75
535.20	1537.73
535.37	1612.63
535.54	1706.25
535.71	1846.68
535.88	2155.63
536.05	2015.20
536.22	2127.55
536.38	2518.42
536.55	2623.74
536.72	2920.99
536.89	3316.54
537.06	3545.91
537.23	4042.11
537.40	4449.36
537.57	4774.69
537.74	4856.61
537.91	5320.04
538.08	5315.36
538.25	5303.65
538.42	5579.84
538.59	5570.48
538.75	6001.13
538.92	6246.89
539.09	6633.08
539.26	7749.51
539.43	8461.04
539.60	9589.17
539.77	11082.44
539.94	12453.99
540.11	13528.30
540.28	14689.20
540.44	16196.51
540.61	17942.55
540.78	20262.02
540.95	24362.64
541.12	29380.74
541.29	33930.75
541.46	35845.30
541.62	35248.47
541.79	34199.91
541.96	31711.92
542.13	29549.26
542.30	27667.47
542.47	25675.68
542.63	24135.60
542.80	22682.13
542.97	23042.57
543.14	22696.17
543.31	22986.40
543.48	22838.95
543.64	23178.33
543.81	23536.43
543.98	23592.60
544.15	23714.31
544.32	23782.18
544.48	23939.00
544.65	23344.50
544.82	23328.12
544.99	23304.71
545.16	24018.58
545.32	24999.26
545.49	36851.73
545.66	58803.62
545.83	65535.00
546.00	65535.00
546.16	54623.42
546.33	41645.15
546.50	31431.05
546.67	24690.31
546.83	21823.16
547.00	20706.72
547.17	19908.60
547.34	18717.26
547.50	18239.79
547.67	17296.56
547.84	16690.36
548.00	15882.88
548.17	15496.69
548.34	14904.53
548.51	14368.55
548.67	13724.90
548.84	12828.48
549.01	12451.65
549.18	11555.22
549.34	11400.75
549.51	10888.17
549.68	10391.98
549.84	10115.80
550.01	9734.29
550.18	9376.19
550.34	8819.14
550.51	8257.41
550.68	7826.75
550.84	7428.86
551.01	7290.77
551.18	6787.55
551.34	6413.07
551.51	6090.07
551.68	5830.27
551.84	5692.18
552.01	5303.65
552.18	5191.31
552.34	4938.53
552.51	4718.52
552.68	4645.96
552.84	4507.87
553.01	4299.56
553.18	4194.24
553.34	4044.45
553.51	3946.14
553.67	3794.01
553.84	3655.92
554.01	3410.16
554.17	3192.49
554.34	2846.09
554.51	2696.30
554.67	2663.53
554.84	2513.74
555.00	2303.09
555.17	2256.28
555.33	2190.74
555.50	2078.40
555.67	1919.24
555.83	1930.94
556.00	1902.86
556.16	1844.34
556.33	1743.70
556.50	1621.99
556.66	1467.52
556.83	1406.66
556.99	1425.39
557.16	1444.11
557.32	1315.38
557.49	1334.11
557.65	1301.34
557.82	1345.81
557.98	1217.08
558.15	1135.16
558.32	1217.08
558.48	1102.39
558.65	1123.46
558.81	1078.99
558.98	1114.10
559.14	1090.69
559.31	999.41
559.47	873.02
559.64	1050.90
559.80	971.32
559.97	952.60
560.13	938.55
560.30	964.30
560.46	987.71
560.63	1020.47
560.79	976.00
560.96	880.04
561.12	924.51
561.29	966.64
561.45	1022.81
561.61	938.55
561.78	968.98
561.94	950.26
562.11	919.83
562.27	851.96
562.44	882.38
562.60	821.53
562.77	915.15
562.93	1011.11
563.10	858.98
563.26	849.61
563.42	884.72
563.59	851.96
563.75	786.42
563.92	798.12
564.08	713.86
564.24	725.57
564.41	821.53
564.57	802.80
564.74	779.40
564.90	835.57
565.07	786.42
565.23	709.18
565.39	660.03
565.56	760.67
565.72	727.91
565.88	753.65
566.05	734.93
566.21	727.91
566.38	643.65
566.54	732.59
566.70	751.31
566.87	725.57
567.03	765.36
567.19	793.44
567.36	758.33
567.52	688.12
567.68	725.57
567.85	716.20
568.01	753.65
568.17	727.91
568.34	713.86
568.50	765.36
568.66	821.53
568.83	849.61
568.99	690.46
569.15	683.44
569.32	709.18
569.48	683.44
569.64	599.18
569.81	634.29
569.97	503.22
570.13	582.79
570.30	568.75
570.46	540.66
570.62	631.94
570.78	578.11
570.95	547.69
571.11	561.73
571.27	629.60
571.43	578.11
571.60	660.03
571.76	503.22
571.92	425.98
572.09	486.83
572.25	615.56
572.41	554.71
572.57	482.15
572.74	578.11
572.90	519.60
573.06	601.52
573.22	603.86
573.38	683.44
573.55	615.56
573.71	699.82
573.87	606.20
574.03	552.37
574.20	559.39
574.36	704.50
574.52	699.82
574.68	587.47
574.84	821.53
575.01	697.48
575.17	812.17
575.33	812.17
575.49	950.26
575.65	943.24
575.82	1025.15
575.98	1086.01
576.14	1336.45
576.30	2314.79
576.46	6932.67
576.62	14455.15
576.79	18923.23
576.95	13195.94
577.11	8245.71
577.27	5561.11
577.43	3695.71
577.59	2410.75
577.75	1853.70
577.92	1668.80
578.08	1661.78
578.24	1626.67
578.40	2450.54
578.56	6363.92
578.72	13121.04
578.88	17212.30
579.04	12212.92
579.21	7840.79
579.37	5696.86
579.53	4472.76
579.69	4070.19
579.85	4973.64
580.01	6069.01
580.17	6167.31
580.33	5050.88
580.49	4395.53
580.65	3896.99
580.82	3517.83
580.98	3370.37
581.14	3419.52
581.30	3641.87
581.46	3873.59
581.62	4138.07
581.78	4500.85
581.94	4795.76
582.10	4983.00
582.26	5345.78
582.42	5502.60
582.58	5736.65
582.74	5809.21
582.90	5837.30
583.06	5944.96
583.22	5865.38
583.38	5980.07
583.54	5991.77
583.70	5771.76
583.86	5607.92
584.02	5710.91
584.18	5666.44
584.34	5589.20
584.50	5533.03
584.66	5348.12
584.82	5198.33
584.98	5350.46
585.14	5097.69
585.30	5158.54
585.46	5001.72
585.62	4985.34
585.78	4954.91
585.94	4751.29
586.10	5121.09
586.26	5308.34
586.42	5746.02
586.58	7194.81
586.74	8723.18
586.90	10492.62
587.06	11854.81
587.22	11744.81
587.38	10700.93
587.54	9062.55
587.70	7735.47
587.86	6637.76
588.02	5486.22
588.18	4854.27
588.34	4341.69
588.49	3950.82
588.65	3770.60
588.81	3599.74
588.97	3548.25
589.13	3251.00
589.29	3262.71
589.45	3236.96
589.61	3241.64
589.77	3173.77
589.93	3276.75
590.08	3311.86
590.24	3372.71
590.40	3646.55
590.56	3740.18
590.72	3735.50
590.88	3721.45
591.04	4133.39
591.20	4004.66
591.35	4332.33
591.51	4395.53
591.67	4568.73
591.83	4884.70
591.99	5430.04
592.15	5755.38
592.31	6434.13
592.46	6801.60
592.62	7517.80
592.78	8205.92
592.94	8554.66
593.10	8271.45
593.26	8009.31
593.41	7279.07
593.57	6717.34
593.73	5914.53
593.89	5233.44
594.05	4660.01
594.20	4215.30
594.36	3791.67
594.52	3433.57
594.68	3283.77
594.84	3059.08
594.99	3131.64
595.15	3007.59
595.31	2944.39
595.47	2981.84
595.62	2946.73
595.78	2902.26
595.94	3012.27
596.10	2977.16
596.25	2904.60
596.41	2925.67
596.57	2885.88
596.73	2881.20
596.88	2942.05
597.04	2946.73
597.20	2853.11
597.36	3035.67
597.51	3089.51
597.67	3243.98
597.83	3311.86
597.99	3583.36
598.14	3831.46
598.30	3941.46
598.46	4112.32
598.61	4381.48
598.77	4631.92
598.93	4690.43
599.09	4908.10
599.24	5034.49
599.40	4973.64
599.56	4793.42
599.71	4709.16
599.87	4318.29
600.03	4210.62
600.18	3852.52
600.34	3644.21
600.50	3335.26
600.65	3030.99
600.81	3040.36
600.97	2750.13
601.12	2640.12
601.28	2602.68
601.44	2448.20
601.59	2321.81
601.75	2193.08
601.91	2256.28
602.06	2094.78
602.22	2080.74
602.37	2069.03
602.53	1961.37
602.69	1844.34
602.84	1858.39
603.00	1820.94
603.16	1874.77
603.31	1996.48
603.47	2026.90
603.62	2125.21
603.78	2174.36
603.94	2267.98
604.09	2211.81
604.25	2204.78
604.40	2204.78
604.56	2267.98
604.71	2155.63
604.87	2237.55
605.03	2354.58
605.18	2396.71
605.34	2380.32
605.49	2431.82
605.65	2595.65
605.80	2583.95
605.96	2677.57
606.12	2801.62
606.27	2949.08
606.43	3047.38
606.58	3218.24
606.74	3325.90
606.89	3571.66
607.05	3726.13
607.20	3836.14
607.36	4079.55
607.51	4414.25
607.67	4582.77
607.82	4760.65
607.98	5327.06
608.13	5579.84
608.29	6012.84
608.44	6612.01
608.60	7098.84
608.75	7908.67
608.91	8610.83
609.06	9521.30
609.22	10516.03
609.37	11417.13
609.53	13027.42
609.68	14743.03
609.84	16800.37
609.99	19737.74
610.15	23267.27
610.30	28290.06
610.46	36329.80
610.61	44949.99
610.76	54658.53
610.92	60170.49
611.07	63582.99
611.23	64872.63
611.38	63905.99
611.54	60807.12
611.69	56662.03
611.84	51047.08
612.00	43555.03
612.15	36563.85
612.31	31819.58
612.46	28311.12
612.62	26342.73
612.77	24624.78
612.92	23508.34
613.08	22061.89
613.23	21018.01
613.39	20046.69
613.54	19428.79
613.69	19311.76
613.85	19000.47
614.00	18970.04
614.15	18579.17
614.31	18134.47
614.46	17977.65
614.62	17366.78
614.77	16517.16
614.92	15506.05
615.08	14420.04
615.23	13085.94
615.38	12299.52
615.54	11110.52
615.69	10272.61
615.84	9233.41
616.00	8538.27
616.15	8205.92
616.30	7503.76
616.46	7054.37
616.61	6628.40
616.76	6303.06
616.92	6052.63
617.07	5790.49
617.22	5224.08
617.37	4903.42
617.53	4884.70
617.68	4620.22
617.83	4451.70
617.99	4332.33
618.14	4191.90
618.29	4170.83
618.45	3936.78
618.60	3812.73
618.75	3915.72
618.90	3709.75
619.06	3730.81
619.21	3662.94
619.36	3758.90
619.51	3686.34
619.67	3620.81
619.82	3691.02
619.97	3836.14
620.12	4018.70
620.28	3887.63
620.43	4114.66
620.58	3971.89
620.73	4098.28
620.89	4166.15
621.04	4039.76
621.19	4198.92
621.34	4173.18
621.49	3985.93
621.65	4007.00
621.80	3904.01
621.95	3946.14
622.10	4100.62
622.25	3913.38
622.41	4035.08
622.56	3967.21
622.71	4124.02
622.86	4379.14
623.01	4344.03
623.16	4404.89
623.32	4514.89
623.47	4468.08
623.62	4407.23
623.77	4353.40
623.92	4423.61
624.07	4390.84
624.23	4477.44
624.38	4423.61
624.53	4531.28
624.68	4627.24
624.83	4514.89
624.98	4538.30
625.13	4456.38
625.29	4643.62
625.44	4489.15
625.59	4585.11
625.74	4477.44
625.89	4608.51
626.04	4585.11
626.19	4683.41
626.34	4624.90
626.49	4868.31
626.65	4545.32
626.80	4526.60
626.95	4451.70
627.10	4245.73
627.25	4400.21
627.40	4194.24
627.55	4063.17
627.70	4079.55
627.85	4163.81
628.00	4016.36
628.15	3929.76
628.30	3873.59
628.45	4004.66
628.60	3920.40
628.76	4095.94
628.91	4147.43
629.06	4184.88
629.21	4105.30
629.36	4341.69
629.51	4381.48
629.66	4580.43
629.81	4908.10
629.96	5242.80
630.11	5755.38
630.26	6476.26
630.41	7318.86
630.56	8013.99
630.71	8540.61
630.86	8999.36
631.01	8865.95
631.16	8166.13
631.31	7342.26
631.46	6279.66
631.61	5263.86
631.76	4454.04
631.91	3662.94
632.06	3251.00
632.21	2665.87
632.36	2495.01
632.51	2179.04
632.66	2064.35
632.81	1858.39
632.96	1659.44
633.10	1614.97
633.25	1465.18
633.40	1497.94
633.55	1516.67
633.70	1390.28
633.85	1240.48
634.00	1116.44
634.15	1338.79
634.30	1306.02
634.45	1163.25
634.60	1214.74
634.75	1139.84
634.90	1144.52
635.05	1177.29
635.19	1081.33
635.34	1135.16
635.49	1149.20
635.64	1191.33
635.79	1050.90
635.94	1032.18
636.09	1060.26
636.24	983.02
636.39	994.73
636.53	1050.90
636.68	997.07
636.83	894.08
636.98	912.81
637.13	882.38
637.28	884.72
637.43	945.58
637.57	945.58
637.72	866.00
637.87	809.83
638.02	819.19
638.17	774.72
638.32	826.21
638.46	774.72
638.61	901.11
638.76	805.14
638.91	777.06
639.06	741.95
639.20	835.57
639.35	760.67
639.50	765.36
639.65	898.77
639.80	781.74
639.94	755.99
640.09	812.17
640.24	840.25
640.39	807.48
640.54	777.06
640.68	690.46
640.83	704.50
640.98	697.48
641.13	772.38
641.27	765.36
641.42	688.12
641.57	781.74
641.72	718.54
641.86	732.59
642.01	786.42
642.16	793.44
642.31	772.38
642.45	774.72
642.60	821.53
642.75	767.70
642.90	833.23
643.04	706.84
643.19	697.48
643.34	755.99
643.48	795.78
643.63	739.61
643.78	784.08
643.93	816.85
644.07	807.48
644.22	774.72
644.37	732.59
644.51	798.12
644.66	770.04
644.81	777.06
644.95	685.78
645.10	695.14
645.25	713.86
645.39	802.80
645.54	786.42
645.69	753.65
645.83	690.46
645.98	744.29
646.13	671.73
646.27	704.50
646.42	547.69
646.57	636.63
646.71	610.88
646.86	660.03
647.00	704.50
647.15	695.14
647.30	706.84
647.44	650.67
647.59	713.86
647.74	685.78
647.88	664.71
648.03	678.76
648.17	851.96
648.32	739.61
648.47	802.80
648.61	744.29
648.76	709.18
648.90	704.50
649.05	809.83
649.20	868.34
649.34	976.00
649.49	1053.24
649.63	1203.04
649.78	1413.68
649.92	1689.87
650.07	2017.54
650.21	2169.68
650.36	2410.75
650.51	2452.88
650.65	2452.88
650.80	2157.97
650.94	1886.47
651.09	1621.99
651.23	1561.14
651.38	1345.81
651.52	1214.74
651.67	1081.33
651.81	1055.58
651.96	926.85
652.10	884.72
652.25	889.40
652.39	968.98
652.54	1123.46
652.68	1097.71
652.83	1086.01
652.97	1179.63
653.12	1144.52
653.26	1245.16
653.41	1050.90
653.55	1004.09
653.70	990.05
653.84	833.23
653.99	786.42
654.13	784.08
654.27	870.68
654.42	809.83
654.56	866.00
654.71	800.46
654.85	788.76
655.00	660.03
655.14	695.14
655.29	685.78
655.43	746.63
655.57	676.41
655.72	681.10
655.86	716.20
656.01	697.48
656.15	627.26
656.30	718.54
656.44	695.14
656.58	669.39
656.73	725.57
656.87	716.20
657.01	685.78
657.16	819.19
657.30	748.97
657.45	847.27
657.59	851.96
657.73	851.96
657.88	854.30
658.02	849.61
658.16	746.63
658.31	713.86
658.45	716.20
658.60	657.69
658.74	559.39
658.88	568.75
659.03	564.07
659.17	575.77
659.31	521.94
659.46	538.32
659.60	580.45
659.74	557.05
659.89	456.40
660.03	526.62
660.17	557.05
660.32	615.56
660.46	526.62
660.60	547.69
660.74	517.26
660.89	524.28
661.03	566.41
661.17	613.22
661.32	599.18
661.46	690.46
661.60	763.01
661.74	971.32
661.89	1177.29
662.03	1310.70
662.17	1502.62
662.31	1493.26
662.46	1507.30
662.60	1430.07
662.74	1186.65
662.88	1174.95
663.03	980.68
663.17	940.90
663.31	847.27
663.45	854.30
663.60	734.93
663.74	725.57
663.88	685.78
664.02	643.65
664.17	557.05
664.31	557.05
664.45	484.49
664.59	484.49
664.73	580.45
664.88	543.00
665.02	493.85
665.16	475.13
665.30	498.53
665.44	496.19
665.59	498.53
665.73	414.27
665.87	496.19
666.01	451.72
666.15	475.13
666.29	430.66
666.44	603.86
666.58	568.75
666.72	524.28
666.86	535.98
667.00	561.73
667.14	517.26
667.28	561.73
667.43	531.30
667.57	510.24
667.71	533.64
667.85	533.64
667.99	498.53
668.13	524.28
668.27	550.03
668.41	496.19
668.56	498.53
668.70	496.19
668.84	463.43
668.98	498.53
669.12	454.06
669.26	437.68
669.40	519.60
669.54	451.72
669.68	451.72
669.82	376.83
669.96	374.49
670.10	433.00
670.25	451.72
670.39	454.06
670.53	468.11
670.67	442.36
670.81	372.15
670.95	454.06
671.09	449.38
671.23	442.36
671.37	463.43
671.51	592.16
671.65	451.72
671.79	489.17
671.93	383.85
672.07	486.83
672.21	472.79
672.35	341.72
672.49	325.33
672.63	360.44
672.77	526.62
672.91	444.70
673.05	421.30
673.19	409.59
673.33	425.98
673.47	454.06
673.61	372.15
673.75	421.30
673.89	374.49
674.03	435.34
674.17	397.89
674.31	404.91
674.45	362.78
674.59	393.21
674.73	411.93
674.87	379.17
675.01	376.83
675.15	355.76
675.29	346.40
675.43	435.34
675.56	458.74
675.70	447.04
675.84	320.65
675.98	339.38
676.12	383.85
676.26	358.10
676.40	304.27
676.54	339.38
676.68	252.78
676.82	379.17
676.96	308.95
677.10	393.21
677.23	362.78
677.37	299.59
677.51	358.10
677.65	341.72
677.79	390.87
677.93	283.20
678.07	362.78
678.21	374.49
678.34	358.10
678.48	369.80
678.62	383.85
678.76	341.72
678.90	344.06
679.04	348.74
679.18	322.99
679.31	313.63
679.45	346.40
679.59	332.36
679.73	367.46
679.87	379.17
680.00	369.80
680.14	409.59
680.28	381.51
680.42	411.93
680.56	444.70
680.70	461.09
680.83	418.96
680.97	402.57
681.11	454.06
681.25	465.77
681.39	346.40
681.52	390.87
681.66	372.15
681.80	360.44
681.94	372.15
682.07	414.27
682.21	311.29
682.35	297.25
682.49	388.53
682.62	421.30
682.76	315.97
682.90	337.04
683.04	372.15
683.17	308.95
683.31	322.99
683.45	367.46
683.59	365.12
683.72	315.97
683.86	308.95
684.00	376.83
684.13	400.23
684.27	395.55
684.41	360.44
684.55	355.76
684.68	327.68
684.82	276.18
684.96	353.42
685.09	301.93
685.23	344.06
685.37	292.57
685.50	353.42
685.64	355.76
685.78	400.23
685.91	433.00
686.05	372.15
686.19	418.96
686.32	395.55
686.46	451.72
686.60	533.64
686.73	543.00
686.87	566.41
687.01	650.67
687.14	664.71
687.28	734.93
687.42	760.67
687.55	877.70
687.69	891.74
687.82	732.59
687.96	840.25
688.10	739.61
688.23	741.95
688.37	826.21
688.50	638.97
688.64	538.32
688.78	571.09
688.91	447.04
689.05	538.32
689.18	411.93
689.32	451.72
689.46	461.09
689.59	383.85
689.73	285.55
689.86	252.78
690.00	231.71
690.13	318.31
690.27	283.20
690.41	369.80
690.54	435.34
690.68	512.58
690.81	358.10
690.95	308.95
691.08	238.73
691.22	196.60
691.35	290.23
691.49	236.39
691.62	264.48
691.76	234.05
691.89	241.08
692.03	224.69
692.16	222.35
692.30	238.73
692.43	205.97
692.57	231.71
692.70	255.12
692.84	285.55
692.97	273.84
693.11	376.83
693.24	512.58
693.38	554.71
693.51	653.01
693.65	685.78
693.78	674.07
693.92	624.92
694.05	582.79
694.19	550.03
694.32	454.06
694.45	372.15
694.59	351.08
694.72	311.29
694.86	278.52
694.99	318.31
695.13	196.60
695.26	227.03
695.39	166.18
695.53	318.31
695.66	191.92
695.80	56.17
695.93	173.20
696.07	201.29
696.20	198.95
696.33	266.82
696.47	250.44
696.60	283.20
696.73	280.86
696.87	262.14
697.00	238.73
697.14	266.82
697.27	156.82
697.40	187.24
697.54	163.84
697.67	250.44
697.80	95.96
697.94	140.43
698.07	187.24
698.21	81.92
698.34	173.20
698.47	147.45
698.61	189.58
698.74	198.95
698.87	217.67
699.01	154.48
699.14	168.52
699.27	222.35
699.40	383.85
699.54	180.22
699.67	128.73
699.80	126.39
699.94	184.90
700.07	168.52
700.20	189.58
700.34	135.75
700.47	208.31
700.60	145.11
700.73	128.73
700.87	124.05
701.00	205.97
701.13	198.95
701.26	208.31
701.40	187.24
701.53	156.82
701.66	208.31
701.79	278.52
701.93	187.24
702.06	241.08
702.19	177.88
702.32	287.89
702.46	184.90
702.59	177.88
702.72	215.33
702.85	306.61
702.99	191.92
703.12	224.69
703.25	191.92
703.38	210.65
703.51	252.78
703.65	269.16
703.78	271.50
703.91	308.95
704.04	294.91
704.17	332.36
704.31	301.93
704.44	287.89
704.57	273.84
704.70	290.23
704.83	346.40
704.96	348.74
705.10	362.78
705.23	334.70
>>>>>End Processed Spectral Data<<<<<
