SpectraSuite Data File
++++++++++++++++++++++++++++++++++++
Date: Fri Oct 04 11:42:05 GMT-05:00 2013
User: price-jones
Dark Spectrum Present: No
Reference Spectrum Present: No
Number of Sampled Component Spectra: 1
Spectrometers: USB2+H05261
Integration Time (usec): 100000 (USB2+H05261)
Spectra Averaged: 1 (USB2+H05261)
Boxcar Smoothing: 0 (USB2+H05261)
Correct for Electrical Dark: No (USB2+H05261)
Strobe/Lamp Enabled: No (USB2+H05261)
Correct for Detector Non-linearity: No (USB2+H05261)
Correct for Stray Light: No (USB2+H05261)
Number of Pixels in Processed Spectrum: 2048
>>>>>Begin Processed Spectral Data<<<<<
365.73	28.09
365.92	28.09
366.12	28.09
366.32	0.00
366.52	0.00
366.72	0.00
366.91	0.00
367.11	0.00
367.31	0.00
367.51	0.00
367.70	0.00
367.90	0.00
368.10	14.04
368.30	0.00
368.49	0.00
368.69	0.00
368.89	0.00
369.09	0.00
369.28	0.00
369.48	0.00
369.68	0.00
369.87	0.00
370.07	0.00
370.27	114.69
370.47	14.04
370.66	56.17
370.86	37.45
371.06	58.51
371.25	117.03
371.45	35.11
371.65	84.26
371.84	112.35
372.04	77.24
372.24	28.09
372.44	74.90
372.63	35.11
372.83	105.32
373.03	79.58
373.22	86.60
373.42	72.56
373.62	70.22
373.81	159.16
374.01	149.79
374.21	119.37
374.40	152.13
374.60	105.32
374.79	198.95
374.99	140.43
375.19	112.35
375.38	124.05
375.58	138.09
375.78	112.35
375.97	168.52
376.17	152.13
376.37	86.60
376.56	203.63
376.76	114.69
376.95	32.77
377.15	121.71
377.35	128.73
377.54	177.88
377.74	147.45
377.93	121.71
378.13	138.09
378.33	119.37
378.52	163.84
378.72	168.52
378.91	161.50
379.11	128.73
379.31	154.48
379.50	114.69
379.70	135.75
379.89	145.11
380.09	91.28
380.28	110.01
380.48	117.03
380.68	175.54
380.87	102.98
381.07	110.01
381.26	154.48
381.46	138.09
381.65	114.69
381.85	30.43
382.04	117.03
382.24	140.43
382.43	117.03
382.63	110.01
382.83	184.90
383.02	77.24
383.22	163.84
383.41	107.66
383.61	88.94
383.80	74.90
384.00	159.16
384.19	60.85
384.39	124.05
384.58	170.86
384.78	81.92
384.97	138.09
385.17	114.69
385.36	91.28
385.56	95.96
385.75	93.62
385.95	142.77
386.14	161.50
386.34	133.41
386.53	49.15
386.72	128.73
386.92	149.79
387.11	147.45
387.31	93.62
387.50	182.56
387.70	114.69
387.89	140.43
388.09	121.71
388.28	119.37
388.48	152.13
388.67	156.82
388.86	133.41
389.06	105.32
389.25	131.07
389.45	107.66
389.64	117.03
389.84	177.88
390.03	112.35
390.22	161.50
390.42	133.41
390.61	119.37
390.81	131.07
391.00	124.05
391.19	163.84
391.39	84.26
391.58	138.09
391.78	74.90
391.97	156.82
392.16	173.20
392.36	60.85
392.55	177.88
392.75	74.90
392.94	105.32
393.13	65.54
393.33	81.92
393.52	107.66
393.71	133.41
393.91	72.56
394.10	135.75
394.29	51.49
394.49	112.35
394.68	102.98
394.88	95.96
395.07	135.75
395.26	93.62
395.46	135.75
395.65	156.82
395.84	154.48
396.04	241.08
396.23	72.56
396.42	126.39
396.62	84.26
396.81	70.22
397.00	138.09
397.19	170.86
397.39	180.22
397.58	203.63
397.77	65.54
397.97	166.18
398.16	168.52
398.35	110.01
398.55	93.62
398.74	145.11
398.93	182.56
399.12	138.09
399.32	65.54
399.51	58.51
399.70	91.28
399.90	147.45
400.09	119.37
400.28	112.35
400.47	95.96
400.67	198.95
400.86	156.82
401.05	93.62
401.24	79.58
401.44	170.86
401.63	138.09
401.82	126.39
402.01	79.58
402.21	107.66
402.40	208.31
402.59	121.71
402.78	191.92
402.97	110.01
403.17	168.52
403.36	184.90
403.55	224.69
403.74	526.62
403.93	1334.11
404.13	2752.47
404.32	3185.47
404.51	2539.48
404.70	1519.01
404.89	634.29
405.09	271.50
405.28	234.05
405.47	147.45
405.66	138.09
405.85	128.73
406.05	138.09
406.24	70.22
406.43	117.03
406.62	196.60
406.81	212.99
407.00	208.31
407.20	449.38
407.39	507.90
407.58	528.96
407.77	362.78
407.96	241.08
408.15	173.20
408.34	191.92
408.54	105.32
408.73	88.94
408.92	95.96
409.11	166.18
409.30	117.03
409.49	131.07
409.68	229.37
409.87	180.22
410.07	198.95
410.26	81.92
410.45	182.56
410.64	142.77
410.83	152.13
411.02	189.58
411.21	191.92
411.40	175.54
411.59	107.66
411.78	152.13
411.98	107.66
412.17	98.30
412.36	149.79
412.55	149.79
412.74	138.09
412.93	222.35
413.12	145.11
413.31	180.22
413.50	201.29
413.69	217.67
413.88	224.69
414.07	215.33
414.26	154.48
414.45	170.86
414.64	100.64
414.83	173.20
415.02	191.92
415.22	215.33
415.41	217.67
415.60	161.50
415.79	117.03
415.98	196.60
416.17	215.33
416.36	205.97
416.55	205.97
416.74	173.20
416.93	187.24
417.12	173.20
417.31	182.56
417.50	234.05
417.69	229.37
417.88	191.92
418.07	170.86
418.26	161.50
418.45	201.29
418.64	222.35
418.83	198.95
419.02	154.48
419.21	243.42
419.39	191.92
419.58	154.48
419.77	215.33
419.96	187.24
420.15	241.08
420.34	189.58
420.53	205.97
420.72	205.97
420.91	201.29
421.10	170.86
421.29	208.31
421.48	276.18
421.67	276.18
421.86	187.24
422.05	189.58
422.24	203.63
422.43	189.58
422.61	203.63
422.80	250.44
422.99	168.52
423.18	177.88
423.37	264.48
423.56	182.56
423.75	203.63
423.94	191.92
424.13	259.80
424.32	241.08
424.50	238.73
424.69	194.26
424.88	245.76
425.07	170.86
425.26	163.84
425.45	222.35
425.64	299.59
425.83	196.60
426.01	222.35
426.20	145.11
426.39	241.08
426.58	194.26
426.77	287.89
426.96	292.57
427.15	182.56
427.33	187.24
427.52	198.95
427.71	334.70
427.90	187.24
428.09	220.01
428.28	201.29
428.46	205.97
428.65	234.05
428.84	243.42
429.03	273.84
429.22	208.31
429.40	245.76
429.59	182.56
429.78	241.08
429.97	191.92
430.16	257.46
430.34	184.90
430.53	191.92
430.72	304.27
430.91	248.10
431.10	208.31
431.28	259.80
431.47	215.33
431.66	290.23
431.85	222.35
432.03	257.46
432.22	285.55
432.41	262.14
432.60	346.40
432.79	269.16
432.97	299.59
433.16	318.31
433.35	325.33
433.54	318.31
433.72	353.42
433.91	299.59
434.10	442.36
434.28	454.06
434.47	486.83
434.66	585.13
434.85	779.40
435.03	2270.32
435.22	7756.54
435.41	14195.35
435.59	12212.92
435.78	7983.57
435.97	4035.08
436.16	1596.25
436.34	617.90
436.53	447.04
436.72	379.17
436.90	360.44
437.09	330.02
437.28	308.95
437.46	362.78
437.65	217.67
437.84	266.82
438.02	330.02
438.21	287.89
438.40	236.39
438.58	198.95
438.77	292.57
438.96	313.63
439.14	334.70
439.33	273.84
439.52	262.14
439.70	241.08
439.89	353.42
440.08	229.37
440.26	285.55
440.45	278.52
440.63	245.76
440.82	273.84
441.01	290.23
441.19	266.82
441.38	255.12
441.57	262.14
441.75	311.29
441.94	283.20
442.12	304.27
442.31	358.10
442.50	243.42
442.68	301.93
442.87	231.71
443.05	308.95
443.24	332.36
443.43	297.25
443.61	367.46
443.80	273.84
443.98	224.69
444.17	290.23
444.35	327.68
444.54	308.95
444.73	259.80
444.91	285.55
445.10	257.46
445.28	271.50
445.47	257.46
445.65	313.63
445.84	273.84
446.02	278.52
446.21	241.08
446.39	271.50
446.58	259.80
446.77	245.76
446.95	210.65
447.14	308.95
447.32	348.74
447.51	318.31
447.69	322.99
447.88	241.08
448.06	330.02
448.25	290.23
448.43	285.55
448.62	245.76
448.80	330.02
448.99	315.97
449.17	290.23
449.36	224.69
449.54	330.02
449.73	266.82
449.91	304.27
450.10	313.63
450.28	376.83
450.46	257.46
450.65	269.16
450.83	269.16
451.02	318.31
451.20	313.63
451.39	297.25
451.57	276.18
451.76	255.12
451.94	252.78
452.13	290.23
452.31	266.82
452.49	292.57
452.68	339.38
452.86	348.74
453.05	390.87
453.23	252.78
453.42	222.35
453.60	210.65
453.78	327.68
453.97	205.97
454.15	255.12
454.34	301.93
454.52	322.99
454.70	311.29
454.89	217.67
455.07	273.84
455.26	285.55
455.44	273.84
455.62	241.08
455.81	262.14
455.99	327.68
456.17	290.23
456.36	355.76
456.54	264.48
456.73	299.59
456.91	252.78
457.09	367.46
457.28	313.63
457.46	308.95
457.64	269.16
457.83	304.27
458.01	234.05
458.19	287.89
458.38	294.91
458.56	266.82
458.74	224.69
458.93	191.92
459.11	294.91
459.29	304.27
459.48	271.50
459.66	311.29
459.84	269.16
460.03	390.87
460.21	292.57
460.39	266.82
460.57	315.97
460.76	306.61
460.94	285.55
461.12	365.12
461.31	313.63
461.49	266.82
461.67	297.25
461.85	346.40
462.04	283.20
462.22	678.76
462.40	341.72
462.59	351.08
462.77	337.04
462.95	278.52
463.13	341.72
463.32	351.08
463.50	245.76
463.68	266.82
463.86	262.14
464.05	229.37
464.23	367.46
464.41	229.37
464.59	269.16
464.78	231.71
464.96	212.99
465.14	299.59
465.32	292.57
465.50	229.37
465.69	191.92
465.87	236.39
466.05	346.40
466.23	325.33
466.41	334.70
466.60	285.55
466.78	271.50
466.96	369.80
467.14	313.63
467.32	276.18
467.51	320.65
467.69	304.27
467.87	311.29
468.05	299.59
468.23	278.52
468.41	278.52
468.60	292.57
468.78	238.73
468.96	402.57
469.14	229.37
469.32	227.03
469.50	262.14
469.69	187.24
469.87	283.20
470.05	248.10
470.23	311.29
470.41	346.40
470.59	255.12
470.77	224.69
470.95	290.23
471.14	217.67
471.32	278.52
471.50	304.27
471.68	196.60
471.86	301.93
472.04	250.44
472.22	311.29
472.40	280.86
472.58	238.73
472.77	266.82
472.95	318.31
473.13	301.93
473.31	308.95
473.49	273.84
473.67	285.55
473.85	301.93
474.03	266.82
474.21	180.22
474.39	306.61
474.57	255.12
474.75	255.12
474.93	292.57
475.12	236.39
475.30	304.27
475.48	283.20
475.66	280.86
475.84	304.27
476.02	264.48
476.20	248.10
476.38	297.25
476.56	341.72
476.74	313.63
476.92	327.68
477.10	294.91
477.28	292.57
477.46	248.10
477.64	276.18
477.82	231.71
478.00	259.80
478.18	276.18
478.36	224.69
478.54	290.23
478.72	278.52
478.90	369.80
479.08	393.21
479.26	351.08
479.44	423.64
479.62	346.40
479.80	330.02
479.98	374.49
480.16	416.62
480.34	414.27
480.52	348.74
480.70	374.49
480.88	388.53
481.06	397.89
481.24	388.53
481.41	470.45
481.59	531.30
481.77	472.79
481.95	531.30
482.13	557.05
482.31	547.69
482.49	550.03
482.67	660.03
482.85	636.63
483.03	631.94
483.21	587.47
483.39	690.46
483.57	725.57
483.74	793.44
483.92	767.70
484.10	903.45
484.28	898.77
484.46	1006.43
484.64	999.41
484.82	1053.24
485.00	964.30
485.18	1167.93
485.35	1172.61
485.53	1179.63
485.71	1341.13
485.89	1352.83
486.07	1277.93
486.25	1338.79
486.43	1324.74
486.61	1366.87
486.78	1345.81
486.96	1401.98
487.14	1322.40
487.32	1399.64
487.50	1423.05
487.68	1390.28
487.85	1249.85
488.03	1397.30
488.21	1434.75
488.39	1273.25
488.57	1277.93
488.75	1174.95
488.92	1514.33
489.10	1111.75
489.28	1114.10
489.46	1025.15
489.64	1118.78
489.81	1090.69
489.99	1146.86
490.17	1055.58
490.35	1160.91
490.53	1118.78
490.70	1109.41
490.88	1050.90
491.06	1196.01
491.24	1263.89
491.41	1233.46
491.59	1097.71
491.77	985.37
491.95	1041.54
492.13	884.72
492.30	997.07
492.48	1015.79
492.66	952.60
492.84	863.66
493.01	952.60
493.19	929.19
493.37	915.15
493.54	910.47
493.72	957.28
493.90	800.46
494.08	802.80
494.25	873.02
494.43	788.76
494.61	830.89
494.79	779.40
494.96	898.77
495.14	915.15
495.32	819.19
495.49	777.06
495.67	805.14
495.85	727.91
496.02	681.10
496.20	786.42
496.38	807.48
496.55	699.82
496.73	763.01
496.91	664.71
497.09	744.29
497.26	772.38
497.44	585.13
497.62	692.80
497.79	699.82
497.97	585.13
498.14	720.88
498.32	713.86
498.50	641.31
498.67	660.03
498.85	559.39
499.03	629.60
499.20	585.13
499.38	552.37
499.56	531.30
499.73	521.94
499.91	533.64
500.08	566.41
500.26	482.15
500.44	526.62
500.61	465.77
500.79	526.62
500.97	442.36
501.14	461.09
501.32	447.04
501.49	559.39
501.67	465.77
501.84	465.77
502.02	390.87
502.20	433.00
502.37	440.02
502.55	362.78
502.72	393.21
502.90	388.53
503.07	461.09
503.25	379.17
503.43	369.80
503.60	409.59
503.78	423.64
503.95	372.15
504.13	376.83
504.30	351.08
504.48	433.00
504.65	362.78
504.83	369.80
505.01	381.51
505.18	376.83
505.36	360.44
505.53	315.97
505.71	318.31
505.88	304.27
506.06	339.38
506.23	294.91
506.41	339.38
506.58	386.19
506.76	301.93
506.93	315.97
507.11	315.97
507.28	255.12
507.46	334.70
507.63	262.14
507.81	365.12
507.98	297.25
508.16	287.89
508.33	365.12
508.50	301.93
508.68	318.31
508.85	325.33
509.03	365.12
509.20	400.23
509.38	304.27
509.55	346.40
509.73	248.10
509.90	341.72
510.08	315.97
510.25	355.76
510.42	327.68
510.60	348.74
510.77	320.65
510.95	337.04
511.12	271.50
511.30	250.44
511.47	297.25
511.64	308.95
511.82	231.71
511.99	383.85
512.17	325.33
512.34	313.63
512.51	301.93
512.69	313.63
512.86	381.51
513.04	243.42
513.21	259.80
513.38	280.86
513.56	287.89
513.73	238.73
513.90	259.80
514.08	248.10
514.25	292.57
514.43	212.99
514.60	304.27
514.77	327.68
514.95	308.95
515.12	287.89
515.29	322.99
515.47	259.80
515.64	315.97
515.81	332.36
515.99	332.36
516.16	280.86
516.33	369.80
516.51	304.27
516.68	353.42
516.85	252.78
517.03	220.01
517.20	308.95
517.37	325.33
517.54	348.74
517.72	238.73
517.89	259.80
518.06	255.12
518.24	341.72
518.41	255.12
518.58	369.80
518.75	292.57
518.93	243.42
519.10	304.27
519.27	325.33
519.45	304.27
519.62	301.93
519.79	322.99
519.96	297.25
520.14	224.69
520.31	299.59
520.48	208.31
520.65	250.44
520.83	210.65
521.00	269.16
521.17	259.80
521.34	341.72
521.52	241.08
521.69	301.93
521.86	353.42
522.03	269.16
522.20	315.97
522.38	248.10
522.55	248.10
522.72	210.65
522.89	351.08
523.07	353.42
523.24	313.63
523.41	304.27
523.58	280.86
523.75	280.86
523.92	294.91
524.10	313.63
524.27	222.35
524.44	294.91
524.61	318.31
524.78	297.25
524.96	327.68
525.13	273.84
525.30	337.04
525.47	327.68
525.64	339.38
525.81	266.82
525.98	344.06
526.16	308.95
526.33	313.63
526.50	292.57
526.67	229.37
526.84	231.71
527.01	280.86
527.18	355.76
527.36	383.85
527.53	393.21
527.70	315.97
527.87	271.50
528.04	369.80
528.21	266.82
528.38	332.36
528.55	376.83
528.72	388.53
528.89	369.80
529.07	379.17
529.24	322.99
529.41	337.04
529.58	346.40
529.75	388.53
529.92	299.59
530.09	344.06
530.26	355.76
530.43	360.44
530.60	353.42
530.77	332.36
530.94	346.40
531.11	372.15
531.28	337.04
531.46	386.19
531.63	421.30
531.80	395.55
531.97	395.55
532.14	430.66
532.31	496.19
532.48	528.96
532.65	564.07
532.82	631.94
532.99	777.06
533.16	823.87
533.33	866.00
533.50	851.96
533.67	727.91
533.84	648.33
534.01	615.56
534.18	566.41
534.35	550.03
534.52	594.50
534.69	671.73
534.86	589.82
535.03	613.22
535.20	641.31
535.37	603.86
535.54	751.31
535.71	692.80
535.88	760.67
536.05	826.21
536.22	814.51
536.38	894.08
536.55	943.24
536.72	1174.95
536.89	1146.86
537.06	1249.85
537.23	1455.81
537.40	1383.26
537.57	1537.73
537.74	1706.25
537.91	1734.34
538.08	1701.57
538.25	1792.85
538.42	1909.88
538.59	1729.66
538.75	1827.96
538.92	2010.52
539.09	2228.19
539.26	2317.13
539.43	2747.79
539.60	3059.08
539.77	3185.47
539.94	3730.81
540.11	3955.51
540.28	4400.21
540.44	4945.55
540.61	5156.20
540.78	6057.31
540.95	7218.21
541.12	8388.48
541.29	9301.29
541.46	9668.75
541.62	9563.43
541.79	8959.57
541.96	8292.52
542.13	7901.65
542.30	7260.34
542.47	6920.96
542.63	6572.22
542.80	6513.71
542.97	6457.54
543.14	6436.47
543.31	6553.50
543.48	6408.39
543.64	6583.93
543.81	6612.01
543.98	6675.21
544.15	6773.51
544.32	6843.73
544.48	6719.68
544.65	6513.71
544.82	6572.22
544.99	6745.42
545.16	6647.12
545.32	7166.72
545.49	14429.40
545.66	23882.83
545.83	25762.28
546.00	20669.27
546.16	14193.01
546.33	10417.72
546.50	8283.16
546.67	6602.65
546.83	5767.08
547.00	5547.07
547.17	5352.81
547.34	5029.81
547.50	4983.00
547.67	4875.34
547.84	4559.36
548.00	4416.59
548.17	4404.89
548.34	4114.66
548.51	4107.64
548.67	3775.28
548.84	3618.47
549.01	3494.42
549.18	3468.67
549.34	3318.88
549.51	3059.08
549.68	2939.71
549.84	2888.22
550.01	2789.92
550.18	2708.00
550.34	2567.57
550.51	2466.92
550.68	2406.07
550.84	2188.40
551.01	2122.87
551.18	2005.84
551.34	1842.00
551.51	1839.66
551.68	1881.79
551.84	1785.83
552.01	1680.50
552.18	1507.30
552.34	1600.93
552.51	1490.92
552.68	1479.22
552.84	1357.51
553.01	1434.75
553.18	1301.34
553.34	1317.72
553.51	1280.27
553.67	1224.10
553.84	1210.06
554.01	1067.28
554.17	1055.58
554.34	990.05
554.51	1008.77
554.67	978.34
554.84	786.42
555.00	725.57
555.17	753.65
555.33	718.54
555.50	814.51
555.67	718.54
555.83	681.10
556.00	725.57
556.16	858.98
556.33	622.58
556.50	608.54
556.66	528.96
556.83	592.16
556.99	599.18
557.16	601.52
557.32	594.50
557.49	510.24
557.65	627.26
557.82	538.32
557.98	514.92
558.15	477.47
558.32	475.13
558.48	486.83
558.65	449.38
558.81	433.00
558.98	437.68
559.14	489.17
559.31	433.00
559.47	407.25
559.64	362.78
559.80	433.00
559.97	472.79
560.13	479.81
560.30	435.34
560.46	404.91
560.63	449.38
560.79	475.13
560.96	489.17
561.12	442.36
561.29	435.34
561.45	397.89
561.61	351.08
561.78	531.30
561.94	414.27
562.11	428.32
562.27	423.64
562.44	433.00
562.60	456.40
562.77	379.17
562.93	358.10
563.10	435.34
563.26	393.21
563.42	430.66
563.59	325.33
563.75	330.02
563.92	402.57
564.08	379.17
564.24	381.51
564.41	456.40
564.57	372.15
564.74	290.23
564.90	416.62
565.07	407.25
565.23	435.34
565.39	418.96
565.56	404.91
565.72	358.10
565.88	376.83
566.05	339.38
566.21	360.44
566.38	428.32
566.54	400.23
566.70	360.44
566.87	315.97
567.03	379.17
567.19	376.83
567.36	353.42
567.52	308.95
567.68	322.99
567.85	351.08
568.01	315.97
568.17	393.21
568.34	334.70
568.50	489.17
568.66	388.53
568.83	463.43
568.99	367.46
569.15	425.98
569.32	374.49
569.48	301.93
569.64	362.78
569.81	344.06
569.97	311.29
570.13	355.76
570.30	301.93
570.46	327.68
570.62	334.70
570.78	402.57
570.95	276.18
571.11	414.27
571.27	393.21
571.43	285.55
571.60	365.12
571.76	344.06
571.92	322.99
572.09	369.80
572.25	386.19
572.41	379.17
572.57	290.23
572.74	404.91
572.90	360.44
573.06	407.25
573.22	304.27
573.38	400.23
573.55	353.42
573.71	372.15
573.87	355.76
574.03	297.25
574.20	276.18
574.36	344.06
574.52	374.49
574.68	454.06
574.84	449.38
575.01	330.02
575.17	381.51
575.33	423.64
575.49	430.66
575.65	489.17
575.82	444.70
575.98	524.28
576.14	496.19
576.30	1226.44
576.46	3192.49
576.62	4126.36
576.79	4149.77
576.95	2998.23
577.11	2047.97
577.27	1507.30
577.43	1116.44
577.59	833.23
577.75	648.33
577.92	622.58
578.08	557.05
578.24	615.56
578.40	1146.86
578.56	3089.51
578.72	3899.33
578.88	3913.38
579.04	2787.58
579.21	2064.35
579.37	1561.14
579.53	1437.09
579.69	1397.30
579.85	1668.80
580.01	1809.23
580.17	1820.94
580.33	1453.47
580.49	1364.53
580.65	1219.42
580.82	1193.67
580.98	1057.92
581.14	1100.05
581.30	1226.44
581.46	1214.74
581.62	1247.51
581.78	1462.83
581.94	1568.16
582.10	1537.73
582.26	1633.69
582.42	1572.84
582.58	1633.69
582.74	1638.38
582.90	1830.30
583.06	1687.53
583.22	1858.39
583.38	1799.87
583.54	1762.42
583.70	1760.08
583.86	1699.23
584.02	1643.06
584.18	1715.61
584.34	1645.40
584.50	1727.32
584.66	1682.85
584.82	1624.33
584.98	1640.72
585.14	1563.48
585.30	1586.88
585.46	1437.09
585.62	1385.60
585.78	1448.79
585.94	1453.47
586.10	1535.39
586.26	1544.75
586.42	1832.64
586.58	2125.21
586.74	2576.93
586.90	2946.73
587.06	3232.28
587.22	3021.63
587.38	2703.32
587.54	2431.82
587.70	2120.53
587.86	1834.98
588.02	1540.07
588.18	1411.34
588.34	1268.57
588.49	1107.07
588.65	1062.60
588.81	1069.62
588.97	1048.56
589.13	1006.43
589.29	1111.75
589.45	952.60
589.61	1071.97
589.77	1135.16
589.93	1074.31
590.08	1008.77
590.24	1132.82
590.40	1135.16
590.56	1088.35
590.72	1114.10
590.88	1249.85
591.04	1193.67
591.20	1240.48
591.35	1380.92
591.51	1355.17
591.67	1366.87
591.83	1530.71
591.99	1657.10
592.15	1708.59
592.31	1991.80
592.46	2106.48
592.62	2118.18
592.78	2235.21
592.94	2312.45
593.10	2286.70
593.26	2122.87
593.41	1961.37
593.57	1736.68
593.73	1558.80
593.89	1399.64
594.05	1249.85
594.20	1196.01
594.36	1076.65
594.52	1076.65
594.68	980.68
594.84	985.37
594.99	971.32
595.15	844.93
595.31	971.32
595.47	976.00
595.62	924.51
595.78	947.92
595.94	894.08
596.10	889.40
596.25	891.74
596.41	870.68
596.57	997.07
596.73	985.37
596.88	945.58
597.04	926.85
597.20	894.08
597.36	971.32
597.51	1001.75
597.67	931.53
597.83	950.26
597.99	1081.33
598.14	1158.57
598.30	1247.51
598.46	1233.46
598.61	1359.85
598.77	1310.70
598.93	1385.60
599.09	1350.49
599.24	1472.20
599.40	1392.62
599.56	1352.83
599.71	1299.00
599.87	1238.14
600.03	1210.06
600.18	1123.46
600.34	1053.24
600.50	973.66
600.65	1008.77
600.81	957.28
600.97	912.81
601.12	807.48
601.28	819.19
601.44	793.44
601.59	807.48
601.75	772.38
601.91	739.61
602.06	706.84
602.22	802.80
602.37	608.54
602.53	667.05
602.69	636.63
602.84	615.56
603.00	704.50
603.16	725.57
603.31	685.78
603.47	631.94
603.62	734.93
603.78	575.77
603.94	676.41
604.09	763.01
604.25	786.42
604.40	774.72
604.56	704.50
604.71	774.72
604.87	713.86
605.03	823.87
605.18	788.76
605.34	748.97
605.49	833.23
605.65	807.48
605.80	828.55
605.96	931.53
606.12	898.77
606.27	966.64
606.43	924.51
606.58	971.32
606.74	947.92
606.89	1097.71
607.05	1132.82
607.20	1149.20
607.36	1172.61
607.51	1217.08
607.67	1453.47
607.82	1451.13
607.98	1605.61
608.13	1661.78
608.29	1776.47
608.44	1968.39
608.60	2024.56
608.75	2223.51
608.91	2466.92
609.06	2548.84
609.22	2906.95
609.37	3279.09
609.53	3510.80
609.68	3985.93
609.84	4500.85
609.99	5217.05
610.15	6253.91
610.30	7543.55
610.46	9973.02
610.61	12884.65
610.76	16156.72
610.92	19276.65
611.07	20779.28
611.23	20943.11
611.38	19456.87
611.54	17238.05
611.69	14342.80
611.84	11992.90
612.00	9984.73
612.15	8549.98
612.31	7548.23
612.46	6925.65
612.62	6232.85
612.77	5928.58
612.92	5734.31
613.08	5338.76
613.23	5217.05
613.39	5195.99
613.54	4795.76
613.69	4950.23
613.85	4990.02
614.00	4720.86
614.15	4744.27
614.31	4606.17
614.46	4566.39
614.62	4421.27
614.77	4205.94
614.92	3831.46
615.08	3686.34
615.23	3358.67
615.38	3143.34
615.54	2949.08
615.69	2628.42
615.84	2469.27
616.00	2260.96
616.15	2083.08
616.30	2101.80
616.46	1895.83
616.61	1799.87
616.76	1710.93
616.92	1636.03
617.07	1626.67
617.22	1418.36
617.37	1371.55
617.53	1352.83
617.68	1336.45
617.83	1369.21
617.99	1299.00
618.14	1273.25
618.29	1268.57
618.45	1146.86
618.60	1067.28
618.75	1139.84
618.90	1121.12
619.06	1252.19
619.21	1132.82
619.36	1121.12
619.51	1050.90
619.67	1088.35
619.82	1172.61
619.97	1177.29
620.12	1123.46
620.28	1219.42
620.43	1135.16
620.58	1174.95
620.73	1249.85
620.89	1306.02
621.04	1221.76
621.19	1107.07
621.34	1186.65
621.49	1144.52
621.65	1212.40
621.80	1125.80
621.95	1100.05
622.10	1111.75
622.25	1151.54
622.41	1163.25
622.56	1156.22
622.71	1249.85
622.86	1254.53
623.01	1160.91
623.16	1261.55
623.32	1163.25
623.47	1217.08
623.62	1380.92
623.77	1207.72
623.92	1193.67
624.07	1249.85
624.23	1214.74
624.38	1214.74
624.53	1320.06
624.68	1256.87
624.83	1355.17
624.98	1284.95
625.13	1238.14
625.29	1280.27
625.44	1235.80
625.59	1128.14
625.74	1296.66
625.89	1310.70
626.04	1277.93
626.19	1174.95
626.34	1242.82
626.49	1387.94
626.65	1212.40
626.80	1228.78
626.95	1238.14
627.10	1289.64
627.25	1261.55
627.40	1193.67
627.55	1179.63
627.70	1139.84
627.85	1107.07
628.00	1151.54
628.15	1081.33
628.30	1074.31
628.45	1109.41
628.60	1064.94
628.76	1153.88
628.91	1200.69
629.06	1165.59
629.21	1184.31
629.36	1226.44
629.51	1259.21
629.66	1296.66
629.81	1301.34
629.96	1441.77
630.11	1687.53
630.26	1746.04
630.41	2019.88
630.56	2076.06
630.71	2267.98
630.86	2326.49
631.01	2237.55
631.16	2200.10
631.31	1877.11
631.46	1666.46
631.61	1434.75
631.76	1165.59
631.91	1020.47
632.06	887.06
632.21	812.17
632.36	746.63
632.51	671.73
632.66	603.86
632.81	496.19
632.96	601.52
633.10	535.98
633.25	561.73
633.40	500.87
633.55	465.77
633.70	498.53
633.85	468.11
634.00	461.09
634.15	451.72
634.30	425.98
634.45	442.36
634.60	507.90
634.75	393.21
634.90	437.68
635.05	379.17
635.19	451.72
635.34	337.04
635.49	404.91
635.64	472.79
635.79	390.87
635.94	407.25
636.09	383.85
636.24	416.62
636.39	425.98
636.53	418.96
636.68	358.10
636.83	374.49
636.98	390.87
637.13	330.02
637.28	337.04
637.43	334.70
637.57	383.85
637.72	437.68
637.87	360.44
638.02	250.44
638.17	315.97
638.32	355.76
638.46	341.72
638.61	351.08
638.76	292.57
638.91	362.78
639.06	299.59
639.20	437.68
639.35	308.95
639.50	271.50
639.65	330.02
639.80	315.97
639.94	332.36
640.09	372.15
640.24	299.59
640.39	381.51
640.54	297.25
640.68	276.18
640.83	330.02
640.98	330.02
641.13	327.68
641.27	255.12
641.42	297.25
641.57	287.89
641.72	332.36
641.86	297.25
642.01	341.72
642.16	374.49
642.31	299.59
642.45	344.06
642.60	271.50
642.75	273.84
642.90	348.74
643.04	278.52
643.19	271.50
643.34	278.52
643.48	245.76
643.63	344.06
643.78	383.85
643.93	390.87
644.07	297.25
644.22	372.15
644.37	259.80
644.51	322.99
644.66	348.74
644.81	276.18
644.95	358.10
645.10	374.49
645.25	266.82
645.39	250.44
645.54	283.20
645.69	334.70
645.83	252.78
645.98	360.44
646.13	276.18
646.27	292.57
646.42	315.97
646.57	320.65
646.71	238.73
646.86	245.76
647.00	290.23
647.15	339.38
647.30	229.37
647.44	292.57
647.59	262.14
647.74	315.97
647.88	393.21
648.03	241.08
648.17	327.68
648.32	285.55
648.47	252.78
648.61	241.08
648.76	388.53
648.90	341.72
649.05	318.31
649.20	337.04
649.34	372.15
649.49	313.63
649.63	437.68
649.78	456.40
649.92	580.45
650.07	676.41
650.21	688.12
650.36	739.61
650.51	706.84
650.65	748.97
650.80	603.86
650.94	557.05
651.09	505.56
651.23	554.71
651.38	472.79
651.52	402.57
651.67	425.98
651.81	369.80
651.96	383.85
652.10	327.68
652.25	430.66
652.39	365.12
652.54	325.33
652.68	395.55
652.83	484.49
652.97	327.68
653.12	507.90
653.26	402.57
653.41	393.21
653.55	369.80
653.70	381.51
653.84	304.27
653.99	334.70
654.13	271.50
654.27	325.33
654.42	325.33
654.56	339.38
654.71	355.76
654.85	234.05
655.00	266.82
655.14	355.76
655.29	266.82
655.43	372.15
655.57	337.04
655.72	262.14
655.86	285.55
656.01	313.63
656.15	332.36
656.30	311.29
656.44	266.82
656.58	278.52
656.73	294.91
656.87	271.50
657.01	203.63
657.16	327.68
657.30	351.08
657.45	360.44
657.59	299.59
657.73	269.16
657.88	313.63
658.02	383.85
658.16	290.23
658.31	231.71
658.45	330.02
658.60	318.31
658.74	250.44
658.88	280.86
659.03	353.42
659.17	255.12
659.31	236.39
659.46	250.44
659.60	325.33
659.74	201.29
659.89	234.05
660.03	231.71
660.17	294.91
660.32	227.03
660.46	271.50
660.60	259.80
660.74	198.95
660.89	238.73
661.03	217.67
661.17	315.97
661.32	248.10
661.46	283.20
661.60	358.10
661.74	383.85
661.89	374.49
662.03	500.87
662.17	449.38
662.31	477.47
662.46	379.17
662.60	472.79
662.74	339.38
662.88	388.53
663.03	332.36
663.17	411.93
663.31	367.46
663.45	332.36
663.60	358.10
663.74	224.69
663.88	313.63
664.02	278.52
664.17	294.91
664.31	208.31
664.45	217.67
664.59	248.10
664.73	196.60
664.88	271.50
665.02	217.67
665.16	273.84
665.30	287.89
665.44	264.48
665.59	301.93
665.73	180.22
665.87	292.57
666.01	257.46
666.15	248.10
666.29	180.22
666.44	287.89
666.58	276.18
666.72	269.16
666.86	154.48
667.00	234.05
667.14	313.63
667.28	287.89
667.43	145.11
667.57	203.63
667.71	287.89
667.85	287.89
667.99	259.80
668.13	287.89
668.27	308.95
668.41	304.27
668.56	229.37
668.70	255.12
668.84	191.92
668.98	269.16
669.12	234.05
669.26	170.86
669.40	248.10
669.54	297.25
669.68	236.39
669.82	184.90
669.96	248.10
670.10	290.23
670.25	198.95
670.39	243.42
670.53	229.37
670.67	236.39
670.81	182.56
670.95	222.35
671.09	318.31
671.23	252.78
671.37	245.76
671.51	257.46
671.65	184.90
671.79	248.10
671.93	252.78
672.07	346.40
672.21	224.69
672.35	173.20
672.49	224.69
672.63	297.25
672.77	243.42
672.91	271.50
673.05	229.37
673.19	257.46
673.33	208.31
673.47	285.55
673.61	198.95
673.75	170.86
673.89	149.79
674.03	290.23
674.17	163.84
674.31	140.43
674.45	212.99
674.59	255.12
674.73	170.86
674.87	191.92
675.01	287.89
675.15	184.90
675.29	252.78
675.43	259.80
675.56	234.05
675.70	266.82
675.84	222.35
675.98	189.58
676.12	173.20
676.26	191.92
676.40	184.90
676.54	245.76
676.68	189.58
676.82	276.18
676.96	142.77
677.10	145.11
677.23	238.73
677.37	245.76
677.51	187.24
677.65	234.05
677.79	217.67
677.93	175.54
678.07	215.33
678.21	184.90
678.34	236.39
678.48	149.79
678.62	154.48
678.76	182.56
678.90	257.46
679.04	138.09
679.18	119.37
679.31	140.43
679.45	175.54
679.59	212.99
679.73	287.89
679.87	215.33
680.00	276.18
680.14	159.16
680.28	222.35
680.42	227.03
680.56	154.48
680.70	276.18
680.83	220.01
680.97	222.35
681.11	131.07
681.25	257.46
681.39	224.69
681.52	201.29
681.66	245.76
681.80	250.44
681.94	236.39
682.07	149.79
682.21	173.20
682.35	110.01
682.49	124.05
682.62	215.33
682.76	184.90
682.90	161.50
683.04	203.63
683.17	201.29
683.31	208.31
683.45	128.73
683.59	170.86
683.72	210.65
683.86	166.18
684.00	159.16
684.13	229.37
684.27	257.46
684.41	189.58
684.55	208.31
684.68	215.33
684.82	198.95
684.96	112.35
685.09	145.11
685.23	227.03
685.37	208.31
685.50	245.76
685.64	212.99
685.78	187.24
685.91	138.09
686.05	224.69
686.19	180.22
686.32	262.14
686.46	203.63
686.60	252.78
686.73	271.50
686.87	245.76
687.01	208.31
687.14	290.23
687.28	245.76
687.42	348.74
687.55	325.33
687.69	306.61
687.82	390.87
687.96	339.38
688.10	339.38
688.23	294.91
688.37	287.89
688.50	264.48
688.64	248.10
688.78	220.01
688.91	224.69
689.05	189.58
689.18	189.58
689.32	222.35
689.46	198.95
689.59	170.86
689.73	234.05
689.86	145.11
690.00	210.65
690.13	147.45
690.27	126.39
690.41	217.67
690.54	191.92
690.68	243.42
690.81	170.86
690.95	215.33
691.08	182.56
691.22	229.37
691.35	121.71
691.49	147.45
691.62	149.79
691.76	119.37
691.89	126.39
692.03	173.20
692.16	147.45
692.30	180.22
692.43	205.97
692.57	149.79
692.70	220.01
692.84	170.86
692.97	177.88
693.11	196.60
693.24	210.65
693.38	182.56
693.51	231.71
693.65	245.76
693.78	322.99
693.92	203.63
694.05	229.37
694.19	67.88
694.32	163.84
694.45	241.08
694.59	128.73
694.72	187.24
694.86	133.41
694.99	201.29
695.13	170.86
695.26	105.32
695.39	133.41
695.53	147.45
695.66	194.26
695.80	180.22
695.93	117.03
696.07	161.50
696.20	126.39
696.33	81.92
696.47	60.85
696.60	198.95
696.73	117.03
696.87	156.82
697.00	168.52
697.14	133.41
697.27	177.88
697.40	161.50
697.54	121.71
697.67	142.77
697.80	161.50
697.94	140.43
698.07	210.65
698.21	177.88
698.34	234.05
698.47	161.50
698.61	163.84
698.74	128.73
698.87	161.50
699.01	119.37
699.14	126.39
699.27	112.35
699.40	231.71
699.54	119.37
699.67	88.94
699.80	112.35
699.94	133.41
700.07	119.37
700.20	191.92
700.34	124.05
700.47	124.05
700.60	119.37
700.73	84.26
700.87	187.24
701.00	156.82
701.13	79.58
701.26	229.37
701.40	138.09
701.53	119.37
701.66	140.43
701.79	131.07
701.93	145.11
702.06	79.58
702.19	105.32
702.32	149.79
702.46	191.92
702.59	98.30
702.72	121.71
702.85	100.64
702.99	110.01
703.12	91.28
703.25	180.22
703.38	100.64
703.51	133.41
703.65	205.97
703.78	182.56
703.91	102.98
704.04	201.29
704.17	173.20
704.31	86.60
704.44	205.97
704.57	117.03
704.70	175.54
704.83	189.58
704.96	222.35
705.10	187.24
705.23	161.50
>>>>>End Processed Spectral Data<<<<<
