SpectraSuite Data File
++++++++++++++++++++++++++++++++++++
Date: Fri Oct 04 11:42:19 GMT-05:00 2013
User: price-jones
Dark Spectrum Present: No
Reference Spectrum Present: No
Number of Sampled Component Spectra: 1
Spectrometers: USB2+H05261
Integration Time (usec): 100000 (USB2+H05261)
Spectra Averaged: 1 (USB2+H05261)
Boxcar Smoothing: 0 (USB2+H05261)
Correct for Electrical Dark: No (USB2+H05261)
Strobe/Lamp Enabled: No (USB2+H05261)
Correct for Detector Non-linearity: No (USB2+H05261)
Correct for Stray Light: No (USB2+H05261)
Number of Pixels in Processed Spectrum: 2048
>>>>>Begin Processed Spectral Data<<<<<
365.73	65.54
365.92	65.54
366.12	65.54
366.32	16.38
366.52	0.00
366.72	9.36
366.91	0.00
367.11	0.00
367.31	0.00
367.51	0.00
367.70	0.00
367.90	0.00
368.10	0.00
368.30	0.00
368.49	0.00
368.69	0.00
368.89	0.00
369.09	0.00
369.28	56.17
369.48	4.68
369.68	0.00
369.87	0.00
370.07	0.00
370.27	53.83
370.47	42.13
370.66	131.07
370.86	121.71
371.06	18.72
371.25	93.62
371.45	119.37
371.65	72.56
371.84	46.81
372.04	95.96
372.24	56.17
372.44	91.28
372.63	79.58
372.83	138.09
373.03	140.43
373.22	37.45
373.42	105.32
373.62	88.94
373.81	187.24
374.01	175.54
374.21	107.66
374.40	124.05
374.60	88.94
374.79	117.03
374.99	124.05
375.19	95.96
375.38	98.30
375.58	53.83
375.78	112.35
375.97	72.56
376.17	187.24
376.37	121.71
376.56	119.37
376.76	112.35
376.95	114.69
377.15	114.69
377.35	110.01
377.54	88.94
377.74	79.58
377.93	98.30
378.13	149.79
378.33	159.16
378.52	100.64
378.72	159.16
378.91	135.75
379.11	46.81
379.31	65.54
379.50	91.28
379.70	126.39
379.89	168.52
380.09	100.64
380.28	138.09
380.48	70.22
380.68	46.81
380.87	93.62
381.07	110.01
381.26	140.43
381.46	51.49
381.65	124.05
381.85	187.24
382.04	138.09
382.24	168.52
382.43	81.92
382.63	65.54
382.83	100.64
383.02	175.54
383.22	187.24
383.41	149.79
383.61	191.92
383.80	138.09
384.00	81.92
384.19	95.96
384.39	114.69
384.58	84.26
384.78	93.62
384.97	124.05
385.17	88.94
385.36	198.95
385.56	72.56
385.75	131.07
385.95	74.90
386.14	177.88
386.34	102.98
386.53	163.84
386.72	81.92
386.92	208.31
387.11	147.45
387.31	156.82
387.50	91.28
387.70	67.88
387.89	46.81
388.09	81.92
388.28	70.22
388.48	77.24
388.67	154.48
388.86	135.75
389.06	84.26
389.25	154.48
389.45	91.28
389.64	173.20
389.84	224.69
390.03	138.09
390.22	147.45
390.42	100.64
390.61	131.07
390.81	180.22
391.00	180.22
391.19	198.95
391.39	112.35
391.58	114.69
391.78	177.88
391.97	98.30
392.16	163.84
392.36	124.05
392.55	145.11
392.75	79.58
392.94	149.79
393.13	187.24
393.33	51.49
393.52	70.22
393.71	131.07
393.91	205.97
394.10	105.32
394.29	117.03
394.49	95.96
394.68	2.34
394.88	121.71
395.07	229.37
395.26	227.03
395.46	74.90
395.65	110.01
395.84	81.92
396.04	170.86
396.23	77.24
396.42	159.16
396.62	203.63
396.81	133.41
397.00	142.77
397.19	112.35
397.39	81.92
397.58	191.92
397.77	110.01
397.97	114.69
398.16	98.30
398.35	177.88
398.55	63.19
398.74	98.30
398.93	140.43
399.12	110.01
399.32	175.54
399.51	180.22
399.70	145.11
399.90	91.28
400.09	154.48
400.28	159.16
400.47	70.22
400.67	100.64
400.86	131.07
401.05	121.71
401.24	201.29
401.44	215.33
401.63	269.16
401.82	154.48
402.01	124.05
402.21	184.90
402.40	142.77
402.59	156.82
402.78	131.07
402.97	93.62
403.17	168.52
403.36	121.71
403.55	245.76
403.74	463.43
403.93	1593.90
404.13	3129.30
404.32	3691.02
404.51	3012.27
404.70	1762.42
404.89	746.63
405.09	315.97
405.28	220.01
405.47	105.32
405.66	152.13
405.85	187.24
406.05	189.58
406.24	187.24
406.43	142.77
406.62	159.16
406.81	297.25
407.00	327.68
407.20	435.34
407.39	540.66
407.58	573.43
407.77	437.68
407.96	271.50
408.15	243.42
408.34	217.67
408.54	175.54
408.73	191.92
408.92	147.45
409.11	187.24
409.30	191.92
409.49	107.66
409.68	182.56
409.87	135.75
410.07	142.77
410.26	210.65
410.45	138.09
410.64	128.73
410.83	86.60
411.02	163.84
411.21	180.22
411.40	238.73
411.59	173.20
411.78	65.54
411.98	201.29
412.17	91.28
412.36	102.98
412.55	154.48
412.74	177.88
412.93	217.67
413.12	140.43
413.31	198.95
413.50	147.45
413.69	177.88
413.88	182.56
414.07	170.86
414.26	173.20
414.45	208.31
414.64	241.08
414.83	257.46
415.02	203.63
415.22	198.95
415.41	250.44
415.60	238.73
415.79	201.29
415.98	161.50
416.17	175.54
416.36	161.50
416.55	159.16
416.74	145.11
416.93	163.84
417.12	236.39
417.31	154.48
417.50	248.10
417.69	215.33
417.88	145.11
418.07	224.69
418.26	173.20
418.45	159.16
418.64	248.10
418.83	306.61
419.02	159.16
419.21	166.18
419.39	234.05
419.58	191.92
419.77	285.55
419.96	259.80
420.15	227.03
420.34	149.79
420.53	205.97
420.72	201.29
420.91	231.71
421.10	161.50
421.29	159.16
421.48	222.35
421.67	294.91
421.86	201.29
422.05	234.05
422.24	201.29
422.43	358.10
422.61	138.09
422.80	245.76
422.99	205.97
423.18	259.80
423.37	229.37
423.56	367.46
423.75	280.86
423.94	248.10
424.13	257.46
424.32	166.18
424.50	280.86
424.69	252.78
424.88	276.18
425.07	159.16
425.26	210.65
425.45	234.05
425.64	184.90
425.83	243.42
426.01	306.61
426.20	294.91
426.39	156.82
426.58	250.44
426.77	184.90
426.96	280.86
427.15	222.35
427.33	255.12
427.52	175.54
427.71	257.46
427.90	276.18
428.09	222.35
428.28	283.20
428.46	201.29
428.65	255.12
428.84	276.18
429.03	276.18
429.22	245.76
429.40	229.37
429.59	238.73
429.78	311.29
429.97	210.65
430.16	250.44
430.34	292.57
430.53	217.67
430.72	234.05
430.91	294.91
431.10	262.14
431.28	344.06
431.47	318.31
431.66	241.08
431.85	273.84
432.03	280.86
432.22	280.86
432.41	215.33
432.60	294.91
432.79	252.78
432.97	341.72
433.16	365.12
433.35	297.25
433.54	332.36
433.72	383.85
433.91	433.00
434.10	559.39
434.28	592.16
434.47	596.84
434.66	683.44
434.85	816.85
435.03	2574.59
435.22	8851.91
435.41	16833.13
435.59	15194.76
435.78	9837.27
435.97	4873.00
436.16	1891.15
436.34	791.10
436.53	531.30
436.72	437.68
436.90	379.17
437.09	374.49
437.28	348.74
437.46	308.95
437.65	322.99
437.84	301.93
438.02	297.25
438.21	376.83
438.40	315.97
438.58	351.08
438.77	330.02
438.96	306.61
439.14	348.74
439.33	393.21
439.52	322.99
439.70	269.16
439.89	304.27
440.08	421.30
440.26	337.04
440.45	315.97
440.63	306.61
440.82	257.46
441.01	393.21
441.19	322.99
441.38	339.38
441.57	330.02
441.75	315.97
441.94	421.30
442.12	292.57
442.31	189.58
442.50	285.55
442.68	311.29
442.87	327.68
443.05	283.20
443.24	311.29
443.43	306.61
443.61	369.80
443.80	341.72
443.98	292.57
444.17	313.63
444.35	393.21
444.54	332.36
444.73	320.65
444.91	425.98
445.10	280.86
445.28	248.10
445.47	203.63
445.65	283.20
445.84	334.70
446.02	285.55
446.21	252.78
446.39	355.76
446.58	353.42
446.77	322.99
446.95	379.17
447.14	294.91
447.32	362.78
447.51	330.02
447.69	374.49
447.88	376.83
448.06	381.51
448.25	264.48
448.43	273.84
448.62	241.08
448.80	390.87
448.99	257.46
449.17	348.74
449.36	318.31
449.54	290.23
449.73	313.63
449.91	362.78
450.10	388.53
450.28	428.32
450.46	334.70
450.65	341.72
450.83	315.97
451.02	351.08
451.20	351.08
451.39	285.55
451.57	339.38
451.76	367.46
451.94	372.15
452.13	273.84
452.31	315.97
452.49	360.44
452.68	339.38
452.86	353.42
453.05	301.93
453.23	250.44
453.42	236.39
453.60	280.86
453.78	304.27
453.97	362.78
454.15	259.80
454.34	266.82
454.52	341.72
454.70	320.65
454.89	297.25
455.07	292.57
455.26	315.97
455.44	341.72
455.62	285.55
455.81	299.59
455.99	330.02
456.17	299.59
456.36	264.48
456.54	325.33
456.73	344.06
456.91	276.18
457.09	341.72
457.28	386.19
457.46	294.91
457.64	423.64
457.83	252.78
458.01	332.36
458.19	360.44
458.38	271.50
458.56	322.99
458.74	280.86
458.93	299.59
459.11	358.10
459.29	327.68
459.48	367.46
459.66	369.80
459.84	339.38
460.03	442.36
460.21	369.80
460.39	269.16
460.57	360.44
460.76	327.68
460.94	262.14
461.12	227.03
461.31	355.76
461.49	262.14
461.67	234.05
461.85	383.85
462.04	351.08
462.22	472.79
462.40	290.23
462.59	344.06
462.77	334.70
462.95	355.76
463.13	229.37
463.32	285.55
463.50	367.46
463.68	318.31
463.86	306.61
464.05	322.99
464.23	341.72
464.41	266.82
464.59	339.38
464.78	353.42
464.96	374.49
465.14	341.72
465.32	292.57
465.50	290.23
465.69	327.68
465.87	269.16
466.05	299.59
466.23	248.10
466.41	320.65
466.60	383.85
466.78	318.31
466.96	290.23
467.14	285.55
467.32	322.99
467.51	374.49
467.69	379.17
467.87	369.80
468.05	203.63
468.23	266.82
468.41	245.76
468.60	271.50
468.78	231.71
468.96	280.86
469.14	374.49
469.32	315.97
469.50	346.40
469.69	355.76
469.87	252.78
470.05	306.61
470.23	203.63
470.41	255.12
470.59	297.25
470.77	287.89
470.95	276.18
471.14	215.33
471.32	264.48
471.50	353.42
471.68	269.16
471.86	269.16
472.04	337.04
472.22	327.68
472.40	294.91
472.58	308.95
472.77	285.55
472.95	287.89
473.13	334.70
473.31	318.31
473.49	304.27
473.67	369.80
473.85	334.70
474.03	367.46
474.21	348.74
474.39	400.23
474.57	372.15
474.75	301.93
474.93	318.31
475.12	294.91
475.30	341.72
475.48	313.63
475.66	252.78
475.84	297.25
476.02	276.18
476.20	269.16
476.38	339.38
476.56	299.59
476.74	273.84
476.92	255.12
477.10	227.03
477.28	320.65
477.46	241.08
477.64	290.23
477.82	379.17
478.00	304.27
478.18	283.20
478.36	334.70
478.54	334.70
478.72	353.42
478.90	337.04
479.08	421.30
479.26	306.61
479.44	444.70
479.62	418.96
479.80	330.02
479.98	418.96
480.16	376.83
480.34	444.70
480.52	353.42
480.70	454.06
480.88	433.00
481.06	503.22
481.24	463.43
481.41	493.85
481.59	528.96
481.77	669.39
481.95	643.65
482.13	655.35
482.31	580.45
482.49	641.31
482.67	723.23
482.85	866.00
483.03	842.59
483.21	819.19
483.39	861.32
483.57	980.68
483.74	990.05
483.92	1041.54
484.10	1025.15
484.28	1060.26
484.46	1198.35
484.64	1163.25
484.82	1310.70
485.00	1352.83
485.18	1493.26
485.35	1516.67
485.53	1556.46
485.71	1603.27
485.89	1631.35
486.07	1636.03
486.25	1727.32
486.43	1703.91
486.61	1858.39
486.78	1701.57
486.96	1687.53
487.14	1729.66
487.32	1743.70
487.50	1710.93
487.68	1732.00
487.85	1586.88
488.03	1638.38
488.21	1708.59
488.39	1607.95
488.57	1488.58
488.75	1500.28
488.92	1806.89
489.10	1530.71
489.28	1486.24
489.46	1404.32
489.64	1275.59
489.81	1404.32
489.99	1418.36
490.17	1296.66
490.35	1423.05
490.53	1224.10
490.70	1345.81
490.88	1329.42
491.06	1394.96
491.24	1535.39
491.41	1420.71
491.59	1362.19
491.77	1341.13
491.95	1252.19
492.13	1226.44
492.30	1249.85
492.48	1233.46
492.66	1160.91
492.84	1137.50
493.01	1086.01
493.19	1064.94
493.37	1139.84
493.54	1146.86
493.72	1128.14
493.90	1109.41
494.08	1050.90
494.25	987.71
494.43	1062.60
494.61	1036.86
494.79	1029.84
494.96	1004.09
495.14	1036.86
495.32	1071.97
495.49	964.30
495.67	997.07
495.85	1004.09
496.02	910.47
496.20	973.66
496.38	926.85
496.55	882.38
496.73	952.60
496.91	758.33
497.09	826.21
497.26	926.85
497.44	805.14
497.62	858.98
497.79	779.40
497.97	770.04
498.14	767.70
498.32	889.40
498.50	814.51
498.67	746.63
498.85	765.36
499.03	716.20
499.20	697.48
499.38	636.63
499.56	748.97
499.73	798.12
499.91	643.65
500.08	746.63
500.26	634.29
500.44	641.31
500.61	615.56
500.79	704.50
500.97	631.94
501.14	636.63
501.32	559.39
501.49	610.88
501.67	545.34
501.84	535.98
502.02	543.00
502.20	528.96
502.37	533.64
502.55	512.58
502.72	540.66
502.90	442.36
503.07	547.69
503.25	531.30
503.43	517.26
503.60	564.07
503.78	423.64
503.95	470.45
504.13	421.30
504.30	451.72
504.48	414.27
504.65	482.15
504.83	430.66
505.01	507.90
505.18	400.23
505.36	402.57
505.53	283.20
505.71	376.83
505.88	472.79
506.06	369.80
506.23	294.91
506.41	388.53
506.58	339.38
506.76	365.12
506.93	311.29
507.11	372.15
507.28	379.17
507.46	376.83
507.63	437.68
507.81	402.57
507.98	393.21
508.16	322.99
508.33	320.65
508.50	330.02
508.68	449.38
508.85	430.66
509.03	355.76
509.20	425.98
509.38	393.21
509.55	393.21
509.73	416.62
509.90	376.83
510.08	325.33
510.25	379.17
510.42	337.04
510.60	290.23
510.77	425.98
510.95	339.38
511.12	339.38
511.30	395.55
511.47	397.89
511.64	346.40
511.82	311.29
511.99	266.82
512.17	292.57
512.34	299.59
512.51	344.06
512.69	362.78
512.86	397.89
513.04	325.33
513.21	308.95
513.38	276.18
513.56	273.84
513.73	388.53
513.90	301.93
514.08	332.36
514.25	313.63
514.43	327.68
514.60	269.16
514.77	315.97
514.95	325.33
515.12	346.40
515.29	299.59
515.47	355.76
515.64	369.80
515.81	252.78
515.99	376.83
516.16	313.63
516.33	355.76
516.51	280.86
516.68	257.46
516.85	341.72
517.03	318.31
517.20	264.48
517.37	313.63
517.54	278.52
517.72	322.99
517.89	285.55
518.06	229.37
518.24	327.68
518.41	402.57
518.58	348.74
518.75	311.29
518.93	362.78
519.10	330.02
519.27	299.59
519.45	301.93
519.62	337.04
519.79	351.08
519.96	330.02
520.14	315.97
520.31	294.91
520.48	360.44
520.65	311.29
520.83	386.19
521.00	276.18
521.17	297.25
521.34	227.03
521.52	262.14
521.69	332.36
521.86	318.31
522.03	390.87
522.20	271.50
522.38	290.23
522.55	320.65
522.72	315.97
522.89	264.48
523.07	337.04
523.24	283.20
523.41	330.02
523.58	386.19
523.75	360.44
523.92	341.72
524.10	325.33
524.27	360.44
524.44	374.49
524.61	351.08
524.78	297.25
524.96	325.33
525.13	388.53
525.30	290.23
525.47	395.55
525.64	451.72
525.81	414.27
525.98	301.93
526.16	269.16
526.33	294.91
526.50	325.33
526.67	332.36
526.84	332.36
527.01	339.38
527.18	306.61
527.36	386.19
527.53	348.74
527.70	395.55
527.87	337.04
528.04	397.89
528.21	330.02
528.38	346.40
528.55	425.98
528.72	514.92
528.89	414.27
529.07	358.10
529.24	477.47
529.41	456.40
529.58	346.40
529.75	407.25
529.92	442.36
530.09	360.44
530.26	418.96
530.43	447.04
530.60	433.00
530.77	395.55
530.94	505.56
531.11	486.83
531.28	367.46
531.46	411.93
531.63	435.34
531.80	449.38
531.97	510.24
532.14	578.11
532.31	645.99
532.48	737.27
532.65	760.67
532.82	877.70
532.99	994.73
533.16	1055.58
533.33	1001.75
533.50	1027.50
533.67	800.46
533.84	772.38
534.01	720.88
534.18	697.48
534.35	657.69
534.52	676.41
534.69	688.12
534.86	868.34
535.03	727.91
535.20	760.67
535.37	842.59
535.54	835.57
535.71	905.79
535.88	980.68
536.05	1027.50
536.22	1041.54
536.38	1130.48
536.55	1306.02
536.72	1242.82
536.89	1380.92
537.06	1593.90
537.23	1703.91
537.40	1895.83
537.57	2010.52
537.74	2040.95
537.91	2202.44
538.08	2176.70
538.25	2300.75
538.42	2204.78
538.59	2345.22
538.75	2417.77
538.92	2464.58
539.09	2740.77
539.26	3061.42
539.43	3375.05
539.60	3843.16
539.77	4484.47
539.94	4634.26
540.11	5207.69
540.28	5767.08
540.44	6267.95
540.61	7007.56
540.78	8116.98
540.95	9954.30
541.12	11424.15
541.29	12739.54
541.46	13146.79
541.62	12980.61
541.79	12351.01
541.96	11398.41
542.13	10600.29
542.30	9816.21
542.47	9523.64
542.63	9048.51
542.80	8947.87
542.97	8826.16
543.14	8837.86
543.31	8519.55
543.48	8786.37
543.64	8908.08
543.81	8947.87
543.98	9076.60
544.15	8823.82
544.32	9039.15
544.48	9041.49
544.65	8968.93
544.82	8929.14
544.99	8758.28
545.16	9160.86
545.32	9750.67
545.49	18640.03
545.66	31693.19
545.83	35035.48
546.00	29256.70
546.16	20107.54
546.33	15126.88
546.50	11384.37
546.67	9158.52
546.83	7957.82
547.00	7644.19
547.17	7187.79
547.34	6787.55
547.50	6567.54
547.67	6448.18
547.84	6303.06
548.00	6118.16
548.17	5762.40
548.34	5668.78
548.51	5453.45
548.67	5064.92
548.84	4975.98
549.01	4704.48
549.18	4657.67
549.34	4299.56
549.51	4142.75
549.68	4079.55
549.84	3948.48
550.01	3684.00
550.18	3510.80
550.34	3405.48
550.51	3262.71
550.68	3155.04
550.84	2892.90
551.01	2745.45
551.18	2761.83
551.34	2431.82
551.51	2499.69
551.68	2328.83
551.84	2216.49
552.01	2090.10
552.18	2069.03
552.34	2122.87
552.51	1879.45
552.68	1872.43
552.84	1802.21
553.01	1699.23
553.18	1778.81
553.34	1734.34
553.51	1650.08
553.67	1547.09
553.84	1554.12
554.01	1355.17
554.17	1315.38
554.34	1256.87
554.51	1214.74
554.67	1163.25
554.84	1135.16
555.00	1011.11
555.17	997.07
555.33	1006.43
555.50	938.55
555.67	931.53
555.83	875.36
556.00	777.06
556.16	896.43
556.33	849.61
556.50	758.33
556.66	770.04
556.83	702.16
556.99	664.71
557.16	662.37
557.32	692.80
557.49	641.31
557.65	636.63
557.82	638.97
557.98	596.84
558.15	545.34
558.32	615.56
558.48	575.77
558.65	496.19
558.81	636.63
558.98	599.18
559.14	564.07
559.31	540.66
559.47	566.41
559.64	498.53
559.80	531.30
559.97	533.64
560.13	547.69
560.30	430.66
560.46	409.59
560.63	559.39
560.79	498.53
560.96	587.47
561.12	564.07
561.29	493.85
561.45	444.70
561.61	510.24
561.78	620.24
561.94	498.53
562.11	526.62
562.27	505.56
562.44	500.87
562.60	447.04
562.77	526.62
562.93	496.19
563.10	493.85
563.26	386.19
563.42	543.00
563.59	491.51
563.75	470.45
563.92	486.83
564.08	482.15
564.24	477.47
564.41	477.47
564.57	386.19
564.74	472.79
564.90	447.04
565.07	428.32
565.23	456.40
565.39	489.17
565.56	454.06
565.72	425.98
565.88	409.59
566.05	404.91
566.21	456.40
566.38	425.98
566.54	517.26
566.70	393.21
566.87	449.38
567.03	421.30
567.19	505.56
567.36	447.04
567.52	393.21
567.68	475.13
567.85	491.51
568.01	407.25
568.17	330.02
568.34	409.59
568.50	477.47
568.66	433.00
568.83	503.22
568.99	437.68
569.15	414.27
569.32	365.12
569.48	390.87
569.64	304.27
569.81	337.04
569.97	315.97
570.13	376.83
570.30	379.17
570.46	334.70
570.62	306.61
570.78	346.40
570.95	341.72
571.11	421.30
571.27	257.46
571.43	299.59
571.60	360.44
571.76	311.29
571.92	325.33
572.09	388.53
572.25	416.62
572.41	367.46
572.57	301.93
572.74	341.72
572.90	353.42
573.06	425.98
573.22	320.65
573.38	404.91
573.55	369.80
573.71	404.91
573.87	379.17
574.03	327.68
574.20	435.34
574.36	484.49
574.52	425.98
574.68	486.83
574.84	477.47
575.01	425.98
575.17	379.17
575.33	374.49
575.49	472.79
575.65	545.34
575.82	489.17
575.98	662.37
576.14	554.71
576.30	1327.08
576.46	4161.47
576.62	5844.32
576.79	5959.00
576.95	4229.35
577.11	2759.49
577.27	1956.69
577.43	1366.87
577.59	1020.47
577.75	926.85
577.92	784.08
578.08	751.31
578.24	748.97
578.40	1423.05
578.56	3796.35
578.72	5502.60
578.88	5577.50
579.04	4007.00
579.21	2895.24
579.37	2165.00
579.53	1741.36
579.69	1727.32
579.85	2160.31
580.01	2527.78
580.17	2239.89
580.33	1947.33
580.49	1614.97
580.65	1626.67
580.82	1437.09
580.98	1423.05
581.14	1430.07
581.30	1540.07
581.46	1565.82
581.62	1762.42
581.78	1703.91
581.94	1973.07
582.10	2160.31
582.26	2153.29
582.42	2155.63
582.58	2277.34
582.74	2253.94
582.90	2321.81
583.06	2338.20
583.22	2286.70
583.38	2324.15
583.54	2410.75
583.70	2333.51
583.86	2237.55
584.02	2228.19
584.18	2307.77
584.34	2143.93
584.50	2179.04
584.66	2150.95
584.82	2104.14
584.98	2148.61
585.14	2108.82
585.30	1984.77
585.46	1989.46
585.62	1832.64
585.78	1944.99
585.94	1914.56
586.10	2031.58
586.26	2087.76
586.42	2361.60
586.58	2878.86
586.74	3419.52
586.90	4063.17
587.06	4521.92
587.22	4105.30
587.38	3754.22
587.54	3220.58
587.70	2925.67
587.86	2389.69
588.02	2125.21
588.18	1947.33
588.34	1652.42
588.49	1551.78
588.65	1362.19
588.81	1423.05
588.97	1308.36
589.13	1263.89
589.29	1240.48
589.45	1306.02
589.61	1329.42
589.77	1425.39
589.93	1315.38
590.08	1409.00
590.24	1322.40
590.40	1406.66
590.56	1490.92
590.72	1465.18
590.88	1596.25
591.04	1575.18
591.20	1617.31
591.35	1741.36
591.51	1846.68
591.67	1849.02
591.83	2010.52
591.99	2179.04
592.15	2363.94
592.31	2448.20
592.46	2679.91
592.62	2810.98
592.78	3070.78
592.94	3126.96
593.10	3169.09
593.26	2925.67
593.41	2647.15
593.57	2333.51
593.73	2246.91
593.89	1989.46
594.05	1706.25
594.20	1528.37
594.36	1467.52
594.52	1380.92
594.68	1268.57
594.84	1263.89
594.99	1296.66
595.15	1259.21
595.31	1261.55
595.47	1224.10
595.62	1224.10
595.78	1299.00
595.94	1331.76
596.10	1254.53
596.25	1193.67
596.41	1210.06
596.57	1137.50
596.73	1188.99
596.88	1207.72
597.04	1207.72
597.20	1088.35
597.36	1242.82
597.51	1186.65
597.67	1338.79
597.83	1439.43
597.99	1455.81
598.14	1514.33
598.30	1678.16
598.46	1701.57
598.61	1717.95
598.77	1781.15
598.93	1912.22
599.09	1905.20
599.24	1919.24
599.40	1877.11
599.56	1954.35
599.71	1776.47
599.87	1696.89
600.03	1607.95
600.18	1462.83
600.34	1413.68
600.50	1401.98
600.65	1277.93
600.81	1203.04
600.97	1086.01
601.12	1055.58
601.28	1046.22
601.44	905.79
601.59	938.55
601.75	924.51
601.91	931.53
602.06	870.68
602.22	976.00
602.37	880.04
602.53	751.31
602.69	840.25
602.84	915.15
603.00	884.72
603.16	798.12
603.31	922.17
603.47	917.49
603.62	847.27
603.78	901.11
603.94	961.96
604.09	961.96
604.25	978.34
604.40	987.71
604.56	971.32
604.71	1039.20
604.87	971.32
605.03	978.34
605.18	1083.67
605.34	1048.56
605.49	1086.01
605.65	1097.71
605.80	1041.54
605.96	1158.57
606.12	1266.23
606.27	1268.57
606.43	1275.59
606.58	1235.80
606.74	1284.95
606.89	1418.36
607.05	1523.69
607.20	1558.80
607.36	1563.48
607.51	1764.76
607.67	1820.94
607.82	2019.88
607.98	2057.33
608.13	2216.49
608.29	2392.03
608.44	2658.85
608.60	2705.66
608.75	3089.51
608.91	3405.48
609.06	3609.11
609.22	3920.40
609.37	4222.33
609.53	4823.84
609.68	5568.13
609.84	6265.61
609.99	7566.95
610.15	8718.50
610.30	10782.85
610.46	13502.55
610.61	17633.60
610.76	22291.26
610.92	26953.61
611.07	29998.65
611.23	30326.32
611.38	27924.93
611.54	24737.12
611.69	20879.92
611.84	17521.25
612.00	14672.82
612.15	12351.01
612.31	10841.36
612.46	9509.60
612.62	8901.06
612.77	8521.89
612.92	8329.97
613.08	7852.50
613.23	7424.18
613.39	6986.50
613.54	6768.83
613.69	6785.21
613.85	6684.57
614.00	6712.66
614.15	6558.18
614.31	6518.39
614.46	6328.81
614.62	6181.35
614.77	5991.77
614.92	5544.73
615.08	5104.71
615.23	4791.08
615.38	4365.10
615.54	4009.34
615.69	3674.64
615.84	3454.63
616.00	3236.96
616.15	2885.88
616.30	2698.64
616.46	2525.44
616.61	2359.26
616.76	2300.75
616.92	2169.68
617.07	2101.80
617.22	1994.14
617.37	1842.00
617.53	1874.77
617.68	1746.04
617.83	1746.04
617.99	1710.93
618.14	1724.97
618.29	1708.59
618.45	1661.78
618.60	1519.01
618.75	1523.69
618.90	1425.39
619.06	1488.58
619.21	1474.54
619.36	1542.41
619.51	1439.43
619.67	1453.47
619.82	1481.56
619.97	1584.54
620.12	1603.27
620.28	1476.88
620.43	1682.85
620.58	1668.80
620.73	1678.16
620.89	1636.03
621.04	1650.08
621.19	1607.95
621.34	1528.37
621.49	1596.25
621.65	1579.86
621.80	1523.69
621.95	1509.65
622.10	1497.94
622.25	1519.01
622.41	1568.16
622.56	1680.50
622.71	1666.46
622.86	1636.03
623.01	1636.03
623.16	1856.04
623.32	1743.70
623.47	1682.85
623.62	1699.23
623.77	1764.76
623.92	1762.42
624.07	1710.93
624.23	1769.44
624.38	1640.72
624.53	1710.93
624.68	1715.61
624.83	1778.81
624.98	1724.97
625.13	1680.50
625.29	1790.51
625.44	1713.27
625.59	1776.47
625.74	1710.93
625.89	1851.36
626.04	1729.66
626.19	1753.06
626.34	1760.08
626.49	1774.13
626.65	1666.46
626.80	1671.14
626.95	1729.66
627.10	1542.41
627.25	1582.20
627.40	1617.31
627.55	1657.10
627.70	1504.96
627.85	1668.80
628.00	1579.86
628.15	1563.48
628.30	1544.75
628.45	1565.82
628.60	1544.75
628.76	1537.73
628.91	1547.09
629.06	1476.88
629.21	1558.80
629.36	1633.69
629.51	1643.06
629.66	1811.57
629.81	1837.32
629.96	2064.35
630.11	2207.13
630.26	2539.48
630.41	2827.37
630.56	3150.36
630.71	3169.09
630.86	3248.66
631.01	3234.62
631.16	2923.33
631.31	2670.55
631.46	2319.47
631.61	1963.71
631.76	1645.40
631.91	1399.64
632.06	1181.97
632.21	1062.60
632.36	973.66
632.51	809.83
632.66	788.76
632.81	727.91
632.96	751.31
633.10	699.82
633.25	716.20
633.40	617.90
633.55	571.09
633.70	606.20
633.85	545.34
634.00	519.60
634.15	622.58
634.30	585.13
634.45	610.88
634.60	535.98
634.75	538.32
634.90	521.94
635.05	589.82
635.19	528.96
635.34	486.83
635.49	500.87
635.64	461.09
635.79	360.44
635.94	500.87
636.09	538.32
636.24	521.94
636.39	435.34
636.53	479.81
636.68	475.13
636.83	388.53
636.98	433.00
637.13	411.93
637.28	456.40
637.43	454.06
637.57	543.00
637.72	435.34
637.87	496.19
638.02	376.83
638.17	449.38
638.32	423.64
638.46	369.80
638.61	496.19
638.76	390.87
638.91	397.89
639.06	351.08
639.20	468.11
639.35	351.08
639.50	362.78
639.65	404.91
639.80	376.83
639.94	367.46
640.09	430.66
640.24	428.32
640.39	372.15
640.54	430.66
640.68	376.83
640.83	482.15
640.98	402.57
641.13	332.36
641.27	440.02
641.42	372.15
641.57	409.59
641.72	423.64
641.86	348.74
642.01	388.53
642.16	414.27
642.31	367.46
642.45	404.91
642.60	433.00
642.75	397.89
642.90	402.57
643.04	353.42
643.19	404.91
643.34	341.72
643.48	477.47
643.63	379.17
643.78	358.10
643.93	463.43
644.07	351.08
644.22	294.91
644.37	362.78
644.51	416.62
644.66	397.89
644.81	379.17
644.95	433.00
645.10	425.98
645.25	442.36
645.39	425.98
645.54	327.68
645.69	440.02
645.83	351.08
645.98	435.34
646.13	367.46
646.27	351.08
646.42	404.91
646.57	400.23
646.71	367.46
646.86	369.80
647.00	339.38
647.15	414.27
647.30	330.02
647.44	297.25
647.59	383.85
647.74	353.42
647.88	365.12
648.03	318.31
648.17	386.19
648.32	358.10
648.47	379.17
648.61	346.40
648.76	369.80
648.90	458.74
649.05	388.53
649.20	505.56
649.34	437.68
649.49	451.72
649.63	514.92
649.78	697.48
649.92	631.94
650.07	947.92
650.21	954.94
650.36	1046.22
650.51	877.70
650.65	917.49
650.80	784.08
650.94	695.14
651.09	645.99
651.23	685.78
651.38	503.22
651.52	564.07
651.67	519.60
651.81	498.53
651.96	449.38
652.10	425.98
652.25	353.42
652.39	430.66
652.54	505.56
652.68	461.09
652.83	578.11
652.97	468.11
653.12	531.30
653.26	559.39
653.41	564.07
653.55	433.00
653.70	428.32
653.84	414.27
653.99	381.51
654.13	313.63
654.27	374.49
654.42	425.98
654.56	454.06
654.71	341.72
654.85	344.06
655.00	353.42
655.14	311.29
655.29	402.57
655.43	381.51
655.57	315.97
655.72	308.95
655.86	395.55
656.01	390.87
656.15	264.48
656.30	362.78
656.44	358.10
656.58	269.16
656.73	325.33
656.87	330.02
657.01	447.04
657.16	376.83
657.30	397.89
657.45	484.49
657.59	421.30
657.73	341.72
657.88	390.87
658.02	454.06
658.16	416.62
658.31	409.59
658.45	344.06
658.60	311.29
658.74	287.89
658.88	313.63
659.03	304.27
659.17	301.93
659.31	238.73
659.46	304.27
659.60	311.29
659.74	264.48
659.89	320.65
660.03	283.20
660.17	411.93
660.32	294.91
660.46	301.93
660.60	257.46
660.74	220.01
660.89	248.10
661.03	344.06
661.17	259.80
661.32	287.89
661.46	374.49
661.60	430.66
661.74	414.27
661.89	589.82
662.03	575.77
662.17	601.52
662.31	634.29
662.46	603.86
662.60	540.66
662.74	519.60
662.88	496.19
663.03	395.55
663.17	400.23
663.31	414.27
663.45	325.33
663.60	358.10
663.74	276.18
663.88	283.20
664.02	381.51
664.17	297.25
664.31	322.99
664.45	304.27
664.59	271.50
664.73	290.23
664.88	369.80
665.02	271.50
665.16	325.33
665.30	313.63
665.44	315.97
665.59	322.99
665.73	255.12
665.87	280.86
666.01	297.25
666.15	262.14
666.29	152.13
666.44	351.08
666.58	360.44
666.72	269.16
666.86	236.39
667.00	278.52
667.14	273.84
667.28	318.31
667.43	353.42
667.57	250.44
667.71	381.51
667.85	290.23
667.99	311.29
668.13	215.33
668.27	248.10
668.41	304.27
668.56	320.65
668.70	334.70
668.84	315.97
668.98	264.48
669.12	215.33
669.26	278.52
669.40	308.95
669.54	311.29
669.68	215.33
669.82	306.61
669.96	294.91
670.10	297.25
670.25	294.91
670.39	287.89
670.53	234.05
670.67	355.76
670.81	205.97
670.95	276.18
671.09	313.63
671.23	311.29
671.37	280.86
671.51	259.80
671.65	280.86
671.79	259.80
671.93	220.01
672.07	243.42
672.21	334.70
672.35	220.01
672.49	259.80
672.63	308.95
672.77	217.67
672.91	243.42
673.05	245.76
673.19	245.76
673.33	210.65
673.47	339.38
673.61	191.92
673.75	142.77
673.89	194.26
674.03	273.84
674.17	231.71
674.31	182.56
674.45	290.23
674.59	294.91
674.73	248.10
674.87	280.86
675.01	280.86
675.15	222.35
675.29	250.44
675.43	245.76
675.56	238.73
675.70	308.95
675.84	245.76
675.98	241.08
676.12	224.69
676.26	222.35
676.40	236.39
676.54	322.99
676.68	184.90
676.82	245.76
676.96	191.92
677.10	187.24
677.23	243.42
677.37	212.99
677.51	163.84
677.65	273.84
677.79	196.60
677.93	292.57
678.07	210.65
678.21	196.60
678.34	184.90
678.48	220.01
678.62	360.44
678.76	252.78
678.90	175.54
679.04	189.58
679.18	234.05
679.31	241.08
679.45	184.90
679.59	325.33
679.73	271.50
679.87	184.90
680.00	217.67
680.14	198.95
680.28	255.12
680.42	180.22
680.56	234.05
680.70	138.09
680.83	290.23
680.97	273.84
681.11	229.37
681.25	173.20
681.39	222.35
681.52	262.14
681.66	248.10
681.80	262.14
681.94	147.45
682.07	198.95
682.21	201.29
682.35	262.14
682.49	208.31
682.62	250.44
682.76	128.73
682.90	234.05
683.04	255.12
683.17	159.16
683.31	234.05
683.45	124.05
683.59	196.60
683.72	224.69
683.86	175.54
684.00	210.65
684.13	271.50
684.27	224.69
684.41	121.71
684.55	248.10
684.68	227.03
684.82	156.82
684.96	217.67
685.09	236.39
685.23	224.69
685.37	196.60
685.50	248.10
685.64	210.65
685.78	257.46
685.91	210.65
686.05	292.57
686.19	201.29
686.32	250.44
686.46	283.20
686.60	292.57
686.73	327.68
686.87	348.74
687.01	259.80
687.14	285.55
687.28	325.33
687.42	341.72
687.55	400.23
687.69	404.91
687.82	311.29
687.96	334.70
688.10	351.08
688.23	369.80
688.37	353.42
688.50	276.18
688.64	292.57
688.78	283.20
688.91	227.03
689.05	273.84
689.18	196.60
689.32	224.69
689.46	212.99
689.59	252.78
689.73	227.03
689.86	112.35
690.00	170.86
690.13	191.92
690.27	163.84
690.41	203.63
690.54	299.59
690.68	203.63
690.81	290.23
690.95	187.24
691.08	159.16
691.22	208.31
691.35	203.63
691.49	124.05
691.62	189.58
691.76	161.50
691.89	107.66
692.03	163.84
692.16	159.16
692.30	177.88
692.43	191.92
692.57	194.26
692.70	210.65
692.84	184.90
692.97	166.18
693.11	189.58
693.24	269.16
693.38	215.33
693.51	222.35
693.65	355.76
693.78	208.31
693.92	304.27
694.05	322.99
694.19	266.82
694.32	255.12
694.45	189.58
694.59	175.54
694.72	159.16
694.86	121.71
694.99	245.76
695.13	126.39
695.26	170.86
695.39	203.63
695.53	227.03
695.66	205.97
695.80	100.64
695.93	135.75
696.07	154.48
696.20	128.73
696.33	149.79
696.47	163.84
696.60	107.66
696.73	142.77
696.87	124.05
697.00	215.33
697.14	77.24
697.27	156.82
697.40	217.67
697.54	182.56
697.67	184.90
697.80	166.18
697.94	77.24
698.07	170.86
698.21	154.48
698.34	241.08
698.47	145.11
698.61	147.45
698.74	79.58
698.87	177.88
699.01	88.94
699.14	93.62
699.27	196.60
699.40	234.05
699.54	145.11
699.67	110.01
699.80	149.79
699.94	117.03
700.07	100.64
700.20	93.62
700.34	112.35
700.47	102.98
700.60	156.82
700.73	168.52
700.87	182.56
701.00	114.69
701.13	152.13
701.26	189.58
701.40	72.56
701.53	177.88
701.66	117.03
701.79	177.88
701.93	161.50
702.06	133.41
702.19	203.63
702.32	175.54
702.46	131.07
702.59	163.84
702.72	212.99
702.85	88.94
702.99	128.73
703.12	159.16
703.25	147.45
703.38	170.86
703.51	182.56
703.65	159.16
703.78	128.73
703.91	156.82
704.04	198.95
704.17	187.24
704.31	196.60
704.44	184.90
704.57	170.86
704.70	229.37
704.83	234.05
704.96	222.35
705.10	168.52
705.23	189.58
>>>>>End Processed Spectral Data<<<<<
