SpectraSuite Data File
++++++++++++++++++++++++++++++++++++
Date: Fri Oct 04 11:41:53 GMT-05:00 2013
User: price-jones
Dark Spectrum Present: No
Reference Spectrum Present: No
Number of Sampled Component Spectra: 1
Spectrometers: USB2+H05261
Integration Time (usec): 100000 (USB2+H05261)
Spectra Averaged: 1 (USB2+H05261)
Boxcar Smoothing: 0 (USB2+H05261)
Correct for Electrical Dark: No (USB2+H05261)
Strobe/Lamp Enabled: No (USB2+H05261)
Correct for Detector Non-linearity: No (USB2+H05261)
Correct for Stray Light: No (USB2+H05261)
Number of Pixels in Processed Spectrum: 2048
>>>>>Begin Processed Spectral Data<<<<<
365.73	91.28
365.92	91.28
366.12	91.28
366.32	0.00
366.52	4.68
366.72	0.00
366.91	0.00
367.11	0.00
367.31	0.00
367.51	0.00
367.70	0.00
367.90	9.36
368.10	0.00
368.30	0.00
368.49	0.00
368.69	0.00
368.89	0.00
369.09	0.00
369.28	0.00
369.48	0.00
369.68	0.00
369.87	0.00
370.07	0.00
370.27	0.00
370.47	16.38
370.66	0.00
370.86	65.54
371.06	7.02
371.25	138.09
371.45	53.83
371.65	88.94
371.84	42.13
372.04	95.96
372.24	0.00
372.44	86.60
372.63	105.32
372.83	110.01
373.03	124.05
373.22	88.94
373.42	131.07
373.62	84.26
373.81	74.90
374.01	102.98
374.21	117.03
374.40	98.30
374.60	145.11
374.79	112.35
374.99	175.54
375.19	93.62
375.38	166.18
375.58	86.60
375.78	142.77
375.97	84.26
376.17	215.33
376.37	112.35
376.56	91.28
376.76	79.58
376.95	100.64
377.15	133.41
377.35	187.24
377.54	224.69
377.74	107.66
377.93	70.22
378.13	110.01
378.33	159.16
378.52	121.71
378.72	121.71
378.91	138.09
379.11	114.69
379.31	131.07
379.50	72.56
379.70	121.71
379.89	124.05
380.09	140.43
380.28	46.81
380.48	53.83
380.68	95.96
380.87	110.01
381.07	102.98
381.26	110.01
381.46	145.11
381.65	117.03
381.85	128.73
382.04	145.11
382.24	163.84
382.43	102.98
382.63	28.09
382.83	84.26
383.02	51.49
383.22	126.39
383.41	189.58
383.61	46.81
383.80	95.96
384.00	105.32
384.19	56.17
384.39	119.37
384.58	131.07
384.78	119.37
384.97	58.51
385.17	149.79
385.36	117.03
385.56	138.09
385.75	100.64
385.95	67.88
386.14	166.18
386.34	161.50
386.53	107.66
386.72	170.86
386.92	205.97
387.11	154.48
387.31	159.16
387.50	112.35
387.70	184.90
387.89	91.28
388.09	77.24
388.28	81.92
388.48	124.05
388.67	112.35
388.86	74.90
389.06	72.56
389.25	100.64
389.45	95.96
389.64	95.96
389.84	182.56
390.03	60.85
390.22	79.58
390.42	163.84
390.61	79.58
390.81	79.58
391.00	100.64
391.19	121.71
391.39	208.31
391.58	156.82
391.78	95.96
391.97	93.62
392.16	84.26
392.36	147.45
392.55	119.37
392.75	184.90
392.94	93.62
393.13	81.92
393.33	0.00
393.52	117.03
393.71	161.50
393.91	135.75
394.10	128.73
394.29	173.20
394.49	163.84
394.68	95.96
394.88	91.28
395.07	107.66
395.26	93.62
395.46	91.28
395.65	107.66
395.84	107.66
396.04	79.58
396.23	138.09
396.42	102.98
396.62	147.45
396.81	126.39
397.00	86.60
397.19	175.54
397.39	121.71
397.58	161.50
397.77	177.88
397.97	173.20
398.16	159.16
398.35	138.09
398.55	84.26
398.74	173.20
398.93	184.90
399.12	46.81
399.32	133.41
399.51	70.22
399.70	159.16
399.90	100.64
400.09	95.96
400.28	187.24
400.47	145.11
400.67	98.30
400.86	135.75
401.05	142.77
401.24	170.86
401.44	163.84
401.63	196.60
401.82	170.86
402.01	184.90
402.21	74.90
402.40	147.45
402.59	100.64
402.78	182.56
402.97	180.22
403.17	180.22
403.36	138.09
403.55	152.13
403.74	416.62
403.93	1179.63
404.13	2232.87
404.32	2385.01
404.51	1905.20
404.70	1118.78
404.89	468.11
405.09	257.46
405.28	142.77
405.47	159.16
405.66	173.20
405.85	149.79
406.05	156.82
406.24	124.05
406.43	215.33
406.62	119.37
406.81	220.01
407.00	245.76
407.20	386.19
407.39	430.66
407.58	472.79
407.77	250.44
407.96	238.73
408.15	180.22
408.34	166.18
408.54	147.45
408.73	142.77
408.92	161.50
409.11	156.82
409.30	229.37
409.49	156.82
409.68	110.01
409.87	128.73
410.07	49.15
410.26	173.20
410.45	102.98
410.64	166.18
410.83	196.60
411.02	149.79
411.21	229.37
411.40	161.50
411.59	128.73
411.78	105.32
411.98	112.35
412.17	128.73
412.36	215.33
412.55	154.48
412.74	173.20
412.93	187.24
413.12	126.39
413.31	203.63
413.50	166.18
413.69	173.20
413.88	152.13
414.07	128.73
414.26	154.48
414.45	163.84
414.64	163.84
414.83	154.48
415.02	124.05
415.22	161.50
415.41	198.95
415.60	154.48
415.79	231.71
415.98	234.05
416.17	161.50
416.36	149.79
416.55	173.20
416.74	159.16
416.93	224.69
417.12	156.82
417.31	138.09
417.50	154.48
417.69	222.35
417.88	191.92
418.07	222.35
418.26	114.69
418.45	170.86
418.64	208.31
418.83	217.67
419.02	163.84
419.21	182.56
419.39	145.11
419.58	168.52
419.77	154.48
419.96	215.33
420.15	212.99
420.34	215.33
420.53	201.29
420.72	196.60
420.91	175.54
421.10	170.86
421.29	266.82
421.48	222.35
421.67	184.90
421.86	159.16
422.05	215.33
422.24	201.29
422.43	187.24
422.61	257.46
422.80	147.45
422.99	234.05
423.18	170.86
423.37	205.97
423.56	262.14
423.75	217.67
423.94	168.52
424.13	205.97
424.32	154.48
424.50	182.56
424.69	224.69
424.88	299.59
425.07	154.48
425.26	224.69
425.45	210.65
425.64	152.13
425.83	189.58
426.01	304.27
426.20	156.82
426.39	131.07
426.58	215.33
426.77	271.50
426.96	241.08
427.15	217.67
427.33	271.50
427.52	231.71
427.71	142.77
427.90	203.63
428.09	194.26
428.28	259.80
428.46	194.26
428.65	236.39
428.84	243.42
429.03	278.52
429.22	152.13
429.40	187.24
429.59	224.69
429.78	273.84
429.97	189.58
430.16	177.88
430.34	243.42
430.53	168.52
430.72	271.50
430.91	262.14
431.10	182.56
431.28	257.46
431.47	198.95
431.66	205.97
431.85	224.69
432.03	248.10
432.22	294.91
432.41	276.18
432.60	332.36
432.79	255.12
432.97	255.12
433.16	301.93
433.35	355.76
433.54	292.57
433.72	355.76
433.91	332.36
434.10	325.33
434.28	421.30
434.47	430.66
434.66	472.79
434.85	634.29
435.03	2026.90
435.22	6630.74
435.41	10988.82
435.59	9521.30
435.78	6328.81
435.97	3141.00
436.16	1310.70
436.34	552.37
436.53	372.15
436.72	346.40
436.90	332.36
437.09	273.84
437.28	297.25
437.46	351.08
437.65	322.99
437.84	313.63
438.02	208.31
438.21	327.68
438.40	294.91
438.58	234.05
438.77	318.31
438.96	287.89
439.14	297.25
439.33	351.08
439.52	299.59
439.70	259.80
439.89	243.42
440.08	280.86
440.26	241.08
440.45	262.14
440.63	280.86
440.82	257.46
441.01	255.12
441.19	234.05
441.38	285.55
441.57	301.93
441.75	266.82
441.94	283.20
442.12	313.63
442.31	301.93
442.50	259.80
442.68	212.99
442.87	220.01
443.05	245.76
443.24	320.65
443.43	259.80
443.61	250.44
443.80	290.23
443.98	250.44
444.17	311.29
444.35	318.31
444.54	290.23
444.73	245.76
444.91	259.80
445.10	248.10
445.28	283.20
445.47	210.65
445.65	266.82
445.84	229.37
446.02	304.27
446.21	234.05
446.39	224.69
446.58	255.12
446.77	259.80
446.95	264.48
447.14	264.48
447.32	205.97
447.51	196.60
447.69	212.99
447.88	241.08
448.06	358.10
448.25	238.73
448.43	236.39
448.62	222.35
448.80	388.53
448.99	245.76
449.17	227.03
449.36	250.44
449.54	262.14
449.73	266.82
449.91	330.02
450.10	269.16
450.28	369.80
450.46	344.06
450.65	306.61
450.83	301.93
451.02	285.55
451.20	248.10
451.39	269.16
451.57	236.39
451.76	203.63
451.94	252.78
452.13	285.55
452.31	327.68
452.49	299.59
452.68	245.76
452.86	301.93
453.05	290.23
453.23	304.27
453.42	257.46
453.60	243.42
453.78	276.18
453.97	205.97
454.15	276.18
454.34	203.63
454.52	231.71
454.70	334.70
454.89	313.63
455.07	184.90
455.26	313.63
455.44	269.16
455.62	262.14
455.81	210.65
455.99	255.12
456.17	292.57
456.36	245.76
456.54	243.42
456.73	215.33
456.91	210.65
457.09	266.82
457.28	325.33
457.46	369.80
457.64	383.85
457.83	259.80
458.01	189.58
458.19	259.80
458.38	217.67
458.56	313.63
458.74	252.78
458.93	238.73
459.11	325.33
459.29	264.48
459.48	269.16
459.66	278.52
459.84	283.20
460.03	299.59
460.21	273.84
460.39	234.05
460.57	325.33
460.76	212.99
460.94	229.37
461.12	306.61
461.31	264.48
461.49	257.46
461.67	273.84
461.85	311.29
462.04	215.33
462.22	685.78
462.40	259.80
462.59	175.54
462.77	257.46
462.95	257.46
463.13	252.78
463.32	290.23
463.50	212.99
463.68	252.78
463.86	252.78
464.05	208.31
464.23	224.69
464.41	257.46
464.59	264.48
464.78	285.55
464.96	287.89
465.14	250.44
465.32	259.80
465.50	292.57
465.69	243.42
465.87	168.52
466.05	252.78
466.23	273.84
466.41	278.52
466.60	311.29
466.78	238.73
466.96	248.10
467.14	337.04
467.32	315.97
467.51	297.25
467.69	395.55
467.87	278.52
468.05	285.55
468.23	339.38
468.41	301.93
468.60	250.44
468.78	217.67
468.96	266.82
469.14	215.33
469.32	212.99
469.50	182.56
469.69	276.18
469.87	231.71
470.05	238.73
470.23	182.56
470.41	299.59
470.59	236.39
470.77	212.99
470.95	241.08
471.14	290.23
471.32	220.01
471.50	308.95
471.68	351.08
471.86	241.08
472.04	222.35
472.22	194.26
472.40	266.82
472.58	255.12
472.77	241.08
472.95	273.84
473.13	337.04
473.31	306.61
473.49	205.97
473.67	231.71
473.85	304.27
474.03	257.46
474.21	306.61
474.39	348.74
474.57	290.23
474.75	283.20
474.93	248.10
475.12	257.46
475.30	278.52
475.48	283.20
475.66	236.39
475.84	236.39
476.02	283.20
476.20	339.38
476.38	238.73
476.56	252.78
476.74	252.78
476.92	257.46
477.10	285.55
477.28	322.99
477.46	287.89
477.64	315.97
477.82	276.18
478.00	269.16
478.18	334.70
478.36	308.95
478.54	266.82
478.72	266.82
478.90	301.93
479.08	320.65
479.26	301.93
479.44	308.95
479.62	285.55
479.80	327.68
479.98	358.10
480.16	322.99
480.34	341.72
480.52	276.18
480.70	435.34
480.88	360.44
481.06	348.74
481.24	423.64
481.41	416.62
481.59	353.42
481.77	390.87
481.95	472.79
482.13	489.17
482.31	479.81
482.49	409.59
482.67	580.45
482.85	550.03
483.03	617.90
483.21	685.78
483.39	603.86
483.57	615.56
483.74	772.38
483.92	793.44
484.10	734.93
484.28	816.85
484.46	912.81
484.64	854.30
484.82	992.39
485.00	945.58
485.18	1095.37
485.35	1078.99
485.53	1071.97
485.71	1015.79
485.89	1123.46
486.07	1184.31
486.25	1266.23
486.43	1196.01
486.61	1163.25
486.78	1205.38
486.96	1188.99
487.14	1221.76
487.32	1263.89
487.50	1153.88
487.68	1118.78
487.85	1130.48
488.03	1203.04
488.21	1224.10
488.39	1156.22
488.57	1095.37
488.75	1107.07
488.92	1263.89
489.10	1001.75
489.28	992.39
489.46	978.34
489.64	950.26
489.81	973.66
489.99	947.92
490.17	891.74
490.35	994.73
490.53	945.58
490.70	922.17
490.88	936.21
491.06	1011.11
491.24	1062.60
491.41	980.68
491.59	959.62
491.77	959.62
491.95	835.57
492.13	891.74
492.30	880.04
492.48	777.06
492.66	840.25
492.84	819.19
493.01	840.25
493.19	844.93
493.37	837.91
493.54	784.08
493.72	791.10
493.90	758.33
494.08	802.80
494.25	807.48
494.43	720.88
494.61	704.50
494.79	734.93
494.96	765.36
495.14	763.01
495.32	697.48
495.49	603.86
495.67	674.07
495.85	660.03
496.02	688.12
496.20	667.05
496.38	711.52
496.55	685.78
496.73	755.99
496.91	617.90
497.09	620.24
497.26	622.58
497.44	592.16
497.62	601.52
497.79	622.58
497.97	575.77
498.14	521.94
498.32	521.94
498.50	540.66
498.67	526.62
498.85	507.90
499.03	517.26
499.20	524.28
499.38	435.34
499.56	451.72
499.73	521.94
499.91	463.43
500.08	545.34
500.26	486.83
500.44	334.70
500.61	482.15
500.79	482.15
500.97	451.72
501.14	517.26
501.32	444.70
501.49	421.30
501.67	327.68
501.84	341.72
502.02	320.65
502.20	379.17
502.37	383.85
502.55	386.19
502.72	388.53
502.90	346.40
503.07	367.46
503.25	353.42
503.43	341.72
503.60	348.74
503.78	372.15
503.95	332.36
504.13	404.91
504.30	341.72
504.48	355.76
504.65	397.89
504.83	348.74
505.01	376.83
505.18	330.02
505.36	334.70
505.53	290.23
505.71	358.10
505.88	360.44
506.06	299.59
506.23	372.15
506.41	395.55
506.58	245.76
506.76	320.65
506.93	290.23
507.11	367.46
507.28	262.14
507.46	212.99
507.63	304.27
507.81	358.10
507.98	353.42
508.16	315.97
508.33	301.93
508.50	297.25
508.68	327.68
508.85	344.06
509.03	325.33
509.20	358.10
509.38	320.65
509.55	386.19
509.73	315.97
509.90	386.19
510.08	409.59
510.25	362.78
510.42	322.99
510.60	299.59
510.77	327.68
510.95	395.55
511.12	227.03
511.30	332.36
511.47	292.57
511.64	351.08
511.82	304.27
511.99	313.63
512.17	294.91
512.34	320.65
512.51	301.93
512.69	301.93
512.86	334.70
513.04	283.20
513.21	341.72
513.38	248.10
513.56	252.78
513.73	287.89
513.90	257.46
514.08	283.20
514.25	285.55
514.43	259.80
514.60	231.71
514.77	245.76
514.95	271.50
515.12	276.18
515.29	311.29
515.47	285.55
515.64	297.25
515.81	344.06
515.99	386.19
516.16	334.70
516.33	259.80
516.51	203.63
516.68	276.18
516.85	285.55
517.03	287.89
517.20	308.95
517.37	299.59
517.54	266.82
517.72	184.90
517.89	287.89
518.06	304.27
518.24	283.20
518.41	201.29
518.58	252.78
518.75	262.14
518.93	259.80
519.10	297.25
519.27	222.35
519.45	301.93
519.62	287.89
519.79	294.91
519.96	250.44
520.14	318.31
520.31	351.08
520.48	283.20
520.65	292.57
520.83	241.08
521.00	327.68
521.17	362.78
521.34	257.46
521.52	308.95
521.69	301.93
521.86	301.93
522.03	290.23
522.20	355.76
522.38	308.95
522.55	301.93
522.72	255.12
522.89	236.39
523.07	308.95
523.24	276.18
523.41	217.67
523.58	330.02
523.75	217.67
523.92	203.63
524.10	255.12
524.27	299.59
524.44	280.86
524.61	252.78
524.78	337.04
524.96	276.18
525.13	339.38
525.30	365.12
525.47	283.20
525.64	404.91
525.81	320.65
525.98	285.55
526.16	227.03
526.33	299.59
526.50	301.93
526.67	271.50
526.84	238.73
527.01	301.93
527.18	322.99
527.36	283.20
527.53	339.38
527.70	341.72
527.87	271.50
528.04	327.68
528.21	330.02
528.38	372.15
528.55	362.78
528.72	395.55
528.89	369.80
529.07	334.70
529.24	367.46
529.41	374.49
529.58	292.57
529.75	318.31
529.92	327.68
530.09	367.46
530.26	388.53
530.43	353.42
530.60	379.17
530.77	351.08
530.94	369.80
531.11	395.55
531.28	301.93
531.46	351.08
531.63	367.46
531.80	402.57
531.97	376.83
532.14	355.76
532.31	528.96
532.48	533.64
532.65	669.39
532.82	667.05
532.99	660.03
533.16	765.36
533.33	795.78
533.50	727.91
533.67	671.73
533.84	662.37
534.01	458.74
534.18	500.87
534.35	559.39
534.52	482.15
534.69	524.28
534.86	575.77
535.03	582.79
535.20	624.92
535.37	599.18
535.54	638.97
535.71	669.39
535.88	784.08
536.05	674.07
536.22	702.16
536.38	798.12
536.55	819.19
536.72	866.00
536.89	957.28
537.06	1071.97
537.23	1224.10
537.40	1418.36
537.57	1277.93
537.74	1575.18
537.91	1504.96
538.08	1476.88
538.25	1591.56
538.42	1547.09
538.59	1678.16
538.75	1640.72
538.92	1748.38
539.09	1982.43
539.26	2094.78
539.43	2324.15
539.60	2621.40
539.77	2782.90
539.94	3218.24
540.11	3534.21
540.28	3730.81
540.44	4198.92
540.61	4603.83
540.78	5322.38
540.95	6590.95
541.12	7480.35
541.29	8280.82
541.46	8351.03
541.62	8446.99
541.79	8138.04
541.96	7686.32
542.13	6920.96
542.30	6485.62
542.47	6214.12
542.63	5874.74
542.80	5774.10
542.97	5834.96
543.14	5652.39
543.31	5610.26
543.48	5568.13
543.64	5767.08
543.81	5886.45
543.98	5837.30
544.15	5884.11
544.32	5767.08
544.48	5905.17
544.65	5694.52
544.82	5895.81
544.99	5870.06
545.16	5933.26
545.32	6399.02
545.49	13043.81
545.66	20152.01
545.83	22162.53
546.00	17605.51
546.16	12472.71
546.33	9207.67
546.50	6939.69
546.67	5680.48
546.83	5186.63
547.00	4917.47
547.17	4681.07
547.34	4557.02
547.50	4341.69
547.67	4304.25
547.84	4037.42
548.00	3833.80
548.17	3758.90
548.34	3524.85
548.51	3529.53
548.67	3382.07
548.84	3213.56
549.01	3094.19
549.18	2993.55
549.34	2937.37
549.51	2782.90
549.68	2719.70
549.84	2583.95
550.01	2485.65
550.18	2413.09
550.34	2312.45
550.51	2200.10
550.68	2150.95
550.84	1919.24
551.01	1748.38
551.18	1748.38
551.34	1666.46
551.51	1664.12
551.68	1678.16
551.84	1565.82
552.01	1540.07
552.18	1490.92
552.34	1355.17
552.51	1418.36
552.68	1315.38
552.84	1219.42
553.01	1196.01
553.18	1228.78
553.34	1156.22
553.51	1167.93
553.67	1078.99
553.84	1128.14
554.01	1011.11
554.17	983.02
554.34	943.24
554.51	835.57
554.67	908.13
554.84	826.21
555.00	774.72
555.17	678.76
555.33	683.44
555.50	657.69
555.67	648.33
555.83	580.45
556.00	690.46
556.16	739.61
556.33	643.65
556.50	517.26
556.66	580.45
556.83	582.79
556.99	512.58
557.16	571.09
557.32	484.49
557.49	524.28
557.65	498.53
557.82	503.22
557.98	491.51
558.15	404.91
558.32	482.15
558.48	367.46
558.65	472.79
558.81	493.85
558.98	411.93
559.14	400.23
559.31	444.70
559.47	395.55
559.64	411.93
559.80	463.43
559.97	437.68
560.13	407.25
560.30	318.31
560.46	468.11
560.63	430.66
560.79	428.32
560.96	376.83
561.12	449.38
561.29	381.51
561.45	390.87
561.61	390.87
561.78	510.24
561.94	379.17
562.11	404.91
562.27	430.66
562.44	353.42
562.60	451.72
562.77	358.10
562.93	428.32
563.10	386.19
563.26	311.29
563.42	372.15
563.59	353.42
563.75	390.87
563.92	369.80
564.08	348.74
564.24	395.55
564.41	454.06
564.57	428.32
564.74	372.15
564.90	388.53
565.07	402.57
565.23	369.80
565.39	355.76
565.56	407.25
565.72	250.44
565.88	376.83
566.05	365.12
566.21	360.44
566.38	407.25
566.54	379.17
566.70	351.08
566.87	250.44
567.03	383.85
567.19	372.15
567.36	290.23
567.52	304.27
567.68	358.10
567.85	383.85
568.01	456.40
568.17	341.72
568.34	339.38
568.50	376.83
568.66	362.78
568.83	435.34
568.99	320.65
569.15	369.80
569.32	358.10
569.48	367.46
569.64	332.36
569.81	248.10
569.97	304.27
570.13	308.95
570.30	332.36
570.46	308.95
570.62	327.68
570.78	327.68
570.95	308.95
571.11	376.83
571.27	376.83
571.43	320.65
571.60	285.55
571.76	292.57
571.92	287.89
572.09	318.31
572.25	416.62
572.41	292.57
572.57	372.15
572.74	294.91
572.90	348.74
573.06	351.08
573.22	416.62
573.38	369.80
573.55	238.73
573.71	360.44
573.87	358.10
574.03	306.61
574.20	362.78
574.36	369.80
574.52	315.97
574.68	341.72
574.84	376.83
575.01	344.06
575.17	313.63
575.33	299.59
575.49	463.43
575.65	447.04
575.82	447.04
575.98	484.49
576.14	463.43
576.30	1114.10
576.46	3026.31
576.62	3969.55
576.79	3714.43
576.95	2722.04
577.11	1830.30
577.27	1341.13
577.43	910.47
577.59	741.95
577.75	615.56
577.92	533.64
578.08	568.75
578.24	552.37
578.40	1156.22
578.56	2740.77
578.72	3471.01
578.88	3468.67
579.04	2576.93
579.21	1886.47
579.37	1458.15
579.53	1212.40
579.69	1338.79
579.85	1507.30
580.01	1624.33
580.17	1481.56
580.33	1334.11
580.49	1142.18
580.65	1057.92
580.82	919.83
580.98	894.08
581.14	985.37
581.30	1123.46
581.46	1132.82
581.62	1153.88
581.78	1198.35
581.94	1289.64
582.10	1369.21
582.26	1507.30
582.42	1476.88
582.58	1533.05
582.74	1610.29
582.90	1584.54
583.06	1551.78
583.22	1549.43
583.38	1579.86
583.54	1596.25
583.70	1563.48
583.86	1544.75
584.02	1509.65
584.18	1589.22
584.34	1490.92
584.50	1446.45
584.66	1469.86
584.82	1387.94
584.98	1413.68
585.14	1444.11
585.30	1441.77
585.46	1289.64
585.62	1203.04
585.78	1430.07
585.94	1350.49
586.10	1423.05
586.26	1474.54
586.42	1696.89
586.58	2064.35
586.74	2436.50
586.90	2700.98
587.06	2899.92
587.22	2743.11
587.38	2506.71
587.54	2111.16
587.70	1832.64
587.86	1652.42
588.02	1392.62
588.18	1327.08
588.34	1188.99
588.49	1050.90
588.65	966.64
588.81	1022.81
588.97	964.30
589.13	945.58
589.29	922.17
589.45	952.60
589.61	929.19
589.77	830.89
589.93	933.87
590.08	980.68
590.24	908.13
590.40	971.32
590.56	1032.18
590.72	1043.88
590.88	1086.01
591.04	1078.99
591.20	1095.37
591.35	1238.14
591.51	1238.14
591.67	1252.19
591.83	1355.17
591.99	1437.09
592.15	1521.35
592.31	1666.46
592.46	1764.76
592.62	1994.14
592.78	2080.74
592.94	2134.57
593.10	1982.43
593.26	2001.16
593.41	1802.21
593.57	1661.78
593.73	1458.15
593.89	1287.29
594.05	1198.35
594.20	1095.37
594.36	1048.56
594.52	978.34
594.68	940.90
594.84	905.79
594.99	880.04
595.15	870.68
595.31	837.91
595.47	880.04
595.62	837.91
595.78	823.87
595.94	861.32
596.10	837.91
596.25	835.57
596.41	821.53
596.57	812.17
596.73	795.78
596.88	847.27
597.04	924.51
597.20	870.68
597.36	903.45
597.51	943.24
597.67	875.36
597.83	931.53
597.99	1039.20
598.14	1116.44
598.30	1055.58
598.46	1123.46
598.61	1149.20
598.77	1266.23
598.93	1315.38
599.09	1324.74
599.24	1397.30
599.40	1268.57
599.56	1299.00
599.71	1263.89
599.87	1137.50
600.03	1116.44
600.18	1069.62
600.34	912.81
600.50	875.36
600.65	868.34
600.81	823.87
600.97	779.40
601.12	781.74
601.28	755.99
601.44	830.89
601.59	727.91
601.75	683.44
601.91	695.14
602.06	709.18
602.22	603.86
602.37	641.31
602.53	575.77
602.69	636.63
602.84	594.50
603.00	653.01
603.16	660.03
603.31	615.56
603.47	655.35
603.62	564.07
603.78	613.22
603.94	716.20
604.09	669.39
604.25	641.31
604.40	709.18
604.56	713.86
604.71	688.12
604.87	681.10
605.03	653.01
605.18	807.48
605.34	770.04
605.49	734.93
605.65	781.74
605.80	753.65
605.96	720.88
606.12	863.66
606.27	880.04
606.43	926.85
606.58	901.11
606.74	894.08
606.89	950.26
607.05	1022.81
607.20	1032.18
607.36	1086.01
607.51	1203.04
607.67	1226.44
607.82	1418.36
607.98	1404.32
608.13	1472.20
608.29	1579.86
608.44	1727.32
608.60	1858.39
608.75	2064.35
608.91	2141.59
609.06	2413.09
609.22	2534.80
609.37	2764.17
609.53	3211.22
609.68	3695.71
609.84	4154.45
609.99	4774.69
610.15	5685.16
610.30	6850.75
610.46	9083.62
610.61	11620.76
610.76	14347.48
610.92	17245.07
611.07	18759.39
611.23	18654.07
611.38	17703.81
611.54	15672.23
611.69	13221.69
611.84	11070.73
612.00	9252.14
612.15	7812.71
612.31	6984.16
612.46	6225.82
612.62	5797.51
612.77	5385.57
612.92	5219.39
613.08	4858.95
613.23	4695.11
613.39	4383.82
613.54	4301.90
613.69	4416.59
613.85	4168.49
614.00	4360.42
614.15	4273.82
614.31	4091.26
614.46	3985.93
614.62	3791.67
614.77	3735.50
614.92	3545.91
615.08	3183.13
615.23	3070.78
615.38	2722.04
615.54	2607.36
615.69	2410.75
615.84	2260.96
616.00	2071.37
616.15	1926.26
616.30	1743.70
616.46	1746.04
616.61	1636.03
616.76	1476.88
616.92	1411.34
617.07	1392.62
617.22	1338.79
617.37	1296.66
617.53	1221.76
617.68	1170.27
617.83	1245.16
617.99	1186.65
618.14	1151.54
618.29	1181.97
618.45	1064.94
618.60	1095.37
618.75	1069.62
618.90	1020.47
619.06	980.68
619.21	1057.92
619.36	1001.75
619.51	1055.58
619.67	1043.88
619.82	1050.90
619.97	1090.69
620.12	1109.41
620.28	1078.99
620.43	1086.01
620.58	1076.65
620.73	1167.93
620.89	1135.16
621.04	1064.94
621.19	1142.18
621.34	1039.20
621.49	1071.97
621.65	1041.54
621.80	1057.92
621.95	1095.37
622.10	987.71
622.25	1071.97
622.41	1043.88
622.56	1184.31
622.71	1188.99
622.86	1203.04
623.01	1097.71
623.16	1132.82
623.32	1181.97
623.47	1100.05
623.62	1060.26
623.77	1266.23
623.92	1153.88
624.07	1109.41
624.23	1083.67
624.38	1088.35
624.53	1149.20
624.68	1095.37
624.83	1219.42
624.98	1142.18
625.13	1146.86
625.29	1137.50
625.44	1228.78
625.59	1261.55
625.74	1090.69
625.89	1156.22
626.04	1111.75
626.19	1228.78
626.34	1128.14
626.49	1130.48
626.65	1144.52
626.80	1158.57
626.95	1125.80
627.10	1043.88
627.25	1076.65
627.40	1074.31
627.55	1088.35
627.70	1034.52
627.85	1135.16
628.00	1090.69
628.15	980.68
628.30	1146.86
628.45	1095.37
628.60	1036.86
628.76	1104.73
628.91	1081.33
629.06	1057.92
629.21	1011.11
629.36	1144.52
629.51	1093.03
629.66	1188.99
629.81	1261.55
629.96	1467.52
630.11	1591.56
630.26	1636.03
630.41	1832.64
630.56	2066.69
630.71	2127.55
630.86	2113.50
631.01	2134.57
631.16	1952.01
631.31	1746.04
631.46	1425.39
631.61	1273.25
631.76	1097.71
631.91	980.68
632.06	840.25
632.21	788.76
632.36	711.52
632.51	660.03
632.66	601.52
632.81	599.18
632.96	580.45
633.10	517.26
633.25	568.75
633.40	477.47
633.55	435.34
633.70	472.79
633.85	472.79
634.00	379.17
634.15	433.00
634.30	381.51
634.45	430.66
634.60	365.12
634.75	400.23
634.90	379.17
635.05	397.89
635.19	423.64
635.34	400.23
635.49	351.08
635.64	355.76
635.79	428.32
635.94	374.49
636.09	393.21
636.24	360.44
636.39	402.57
636.53	313.63
636.68	402.57
636.83	365.12
636.98	320.65
637.13	238.73
637.28	428.32
637.43	355.76
637.57	285.55
637.72	322.99
637.87	318.31
638.02	264.48
638.17	362.78
638.32	362.78
638.46	428.32
638.61	306.61
638.76	269.16
638.91	299.59
639.06	376.83
639.20	304.27
639.35	339.38
639.50	306.61
639.65	430.66
639.80	299.59
639.94	320.65
640.09	402.57
640.24	388.53
640.39	252.78
640.54	248.10
640.68	367.46
640.83	252.78
640.98	332.36
641.13	290.23
641.27	327.68
641.42	297.25
641.57	315.97
641.72	334.70
641.86	395.55
642.01	353.42
642.16	299.59
642.31	348.74
642.45	322.99
642.60	330.02
642.75	299.59
642.90	257.46
643.04	264.48
643.19	339.38
643.34	320.65
643.48	327.68
643.63	334.70
643.78	308.95
643.93	332.36
644.07	285.55
644.22	337.04
644.37	337.04
644.51	322.99
644.66	315.97
644.81	297.25
644.95	330.02
645.10	334.70
645.25	248.10
645.39	287.89
645.54	278.52
645.69	339.38
645.83	292.57
645.98	341.72
646.13	290.23
646.27	339.38
646.42	318.31
646.57	287.89
646.71	212.99
646.86	241.08
647.00	355.76
647.15	337.04
647.30	311.29
647.44	243.42
647.59	201.29
647.74	297.25
647.88	344.06
648.03	308.95
648.17	294.91
648.32	236.39
648.47	330.02
648.61	285.55
648.76	294.91
648.90	285.55
649.05	360.44
649.20	353.42
649.34	306.61
649.49	339.38
649.63	383.85
649.78	454.06
649.92	554.71
650.07	674.07
650.21	641.31
650.36	664.71
650.51	617.90
650.65	662.37
650.80	603.86
650.94	498.53
651.09	461.09
651.23	411.93
651.38	409.59
651.52	334.70
651.67	386.19
651.81	414.27
651.96	351.08
652.10	414.27
652.25	355.76
652.39	348.74
652.54	355.76
652.68	379.17
652.83	437.68
652.97	390.87
653.12	414.27
653.26	372.15
653.41	388.53
653.55	308.95
653.70	266.82
653.84	383.85
653.99	238.73
654.13	266.82
654.27	266.82
654.42	255.12
654.56	276.18
654.71	278.52
654.85	388.53
655.00	264.48
655.14	285.55
655.29	156.82
655.43	227.03
655.57	177.88
655.72	208.31
655.86	220.01
656.01	280.86
656.15	313.63
656.30	334.70
656.44	212.99
656.58	294.91
656.73	257.46
656.87	276.18
657.01	238.73
657.16	346.40
657.30	203.63
657.45	346.40
657.59	360.44
657.73	346.40
657.88	355.76
658.02	411.93
658.16	301.93
658.31	262.14
658.45	341.72
658.60	332.36
658.74	182.56
658.88	236.39
659.03	222.35
659.17	287.89
659.31	238.73
659.46	248.10
659.60	299.59
659.74	201.29
659.89	187.24
660.03	201.29
660.17	341.72
660.32	238.73
660.46	266.82
660.60	212.99
660.74	229.37
660.89	306.61
661.03	250.44
661.17	231.71
661.32	210.65
661.46	339.38
661.60	290.23
661.74	283.20
661.89	414.27
662.03	486.83
662.17	486.83
662.31	430.66
662.46	411.93
662.60	400.23
662.74	402.57
662.88	393.21
663.03	330.02
663.17	339.38
663.31	280.86
663.45	325.33
663.60	311.29
663.74	252.78
663.88	215.33
664.02	243.42
664.17	264.48
664.31	259.80
664.45	278.52
664.59	362.78
664.73	222.35
664.88	224.69
665.02	236.39
665.16	252.78
665.30	229.37
665.44	234.05
665.59	365.12
665.73	285.55
665.87	236.39
666.01	292.57
666.15	212.99
666.29	182.56
666.44	299.59
666.58	231.71
666.72	212.99
666.86	243.42
667.00	327.68
667.14	255.12
667.28	276.18
667.43	187.24
667.57	241.08
667.71	198.95
667.85	180.22
667.99	229.37
668.13	227.03
668.27	245.76
668.41	194.26
668.56	234.05
668.70	215.33
668.84	222.35
668.98	166.18
669.12	205.97
669.26	189.58
669.40	299.59
669.54	234.05
669.68	250.44
669.82	163.84
669.96	210.65
670.10	145.11
670.25	203.63
670.39	248.10
670.53	175.54
670.67	196.60
670.81	198.95
670.95	212.99
671.09	135.75
671.23	315.97
671.37	236.39
671.51	212.99
671.65	241.08
671.79	248.10
671.93	187.24
672.07	369.80
672.21	201.29
672.35	222.35
672.49	222.35
672.63	198.95
672.77	163.84
672.91	245.76
673.05	212.99
673.19	156.82
673.33	184.90
673.47	283.20
673.61	194.26
673.75	135.75
673.89	220.01
674.03	159.16
674.17	142.77
674.31	173.20
674.45	220.01
674.59	166.18
674.73	177.88
674.87	189.58
675.01	278.52
675.15	210.65
675.29	154.48
675.43	222.35
675.56	276.18
675.70	248.10
675.84	187.24
675.98	231.71
676.12	180.22
676.26	198.95
676.40	152.13
676.54	180.22
676.68	217.67
676.82	198.95
676.96	208.31
677.10	234.05
677.23	224.69
677.37	215.33
677.51	149.79
677.65	245.76
677.79	196.60
677.93	184.90
678.07	142.77
678.21	266.82
678.34	262.14
678.48	145.11
678.62	234.05
678.76	175.54
678.90	231.71
679.04	243.42
679.18	133.41
679.31	212.99
679.45	208.31
679.59	243.42
679.73	124.05
679.87	154.48
680.00	180.22
680.14	257.46
680.28	184.90
680.42	182.56
680.56	175.54
680.70	259.80
680.83	241.08
680.97	215.33
681.11	210.65
681.25	145.11
681.39	222.35
681.52	201.29
681.66	194.26
681.80	269.16
681.94	215.33
682.07	196.60
682.21	248.10
682.35	201.29
682.49	173.20
682.62	152.13
682.76	156.82
682.90	208.31
683.04	152.13
683.17	210.65
683.31	152.13
683.45	203.63
683.59	238.73
683.72	163.84
683.86	126.39
684.00	191.92
684.13	229.37
684.27	170.86
684.41	184.90
684.55	175.54
684.68	257.46
684.82	128.73
684.96	180.22
685.09	163.84
685.23	154.48
685.37	110.01
685.50	269.16
685.64	234.05
685.78	236.39
685.91	187.24
686.05	196.60
686.19	227.03
686.32	201.29
686.46	208.31
686.60	138.09
686.73	252.78
686.87	231.71
687.01	234.05
687.14	264.48
687.28	264.48
687.42	369.80
687.55	273.84
687.69	313.63
687.82	278.52
687.96	280.86
688.10	306.61
688.23	262.14
688.37	292.57
688.50	217.67
688.64	311.29
688.78	126.39
688.91	194.26
689.05	229.37
689.18	191.92
689.32	196.60
689.46	117.03
689.59	163.84
689.73	198.95
689.86	105.32
690.00	191.92
690.13	135.75
690.27	140.43
690.41	154.48
690.54	156.82
690.68	156.82
690.81	159.16
690.95	156.82
691.08	110.01
691.22	175.54
691.35	156.82
691.49	166.18
691.62	135.75
691.76	138.09
691.89	154.48
692.03	131.07
692.16	142.77
692.30	98.30
692.43	138.09
692.57	191.92
692.70	142.77
692.84	56.17
692.97	91.28
693.11	131.07
693.24	208.31
693.38	210.65
693.51	278.52
693.65	262.14
693.78	212.99
693.92	262.14
694.05	191.92
694.19	212.99
694.32	198.95
694.45	234.05
694.59	196.60
694.72	191.92
694.86	154.48
694.99	203.63
695.13	175.54
695.26	163.84
695.39	168.52
695.53	201.29
695.66	140.43
695.80	175.54
695.93	133.41
696.07	135.75
696.20	170.86
696.33	163.84
696.47	154.48
696.60	147.45
696.73	163.84
696.87	187.24
697.00	189.58
697.14	133.41
697.27	175.54
697.40	236.39
697.54	187.24
697.67	117.03
697.80	124.05
697.94	124.05
698.07	124.05
698.21	112.35
698.34	145.11
698.47	119.37
698.61	149.79
698.74	166.18
698.87	175.54
699.01	149.79
699.14	142.77
699.27	168.52
699.40	238.73
699.54	236.39
699.67	91.28
699.80	86.60
699.94	173.20
700.07	168.52
700.20	98.30
700.34	98.30
700.47	227.03
700.60	131.07
700.73	175.54
700.87	212.99
701.00	196.60
701.13	84.26
701.26	149.79
701.40	184.90
701.53	252.78
701.66	74.90
701.79	147.45
701.93	124.05
702.06	224.69
702.19	121.71
702.32	196.60
702.46	191.92
702.59	105.32
702.72	128.73
702.85	196.60
702.99	203.63
703.12	140.43
703.25	184.90
703.38	145.11
703.51	208.31
703.65	117.03
703.78	168.52
703.91	156.82
704.04	184.90
704.17	175.54
704.31	149.79
704.44	168.52
704.57	170.86
704.70	220.01
704.83	154.48
704.96	191.92
705.10	156.82
705.23	159.16
>>>>>End Processed Spectral Data<<<<<
