SpectraSuite Data File
++++++++++++++++++++++++++++++++++++
Date: Fri Oct 04 11:42:07 GMT-05:00 2013
User: price-jones
Dark Spectrum Present: No
Reference Spectrum Present: No
Number of Sampled Component Spectra: 1
Spectrometers: USB2+H05261
Integration Time (usec): 100000 (USB2+H05261)
Spectra Averaged: 1 (USB2+H05261)
Boxcar Smoothing: 0 (USB2+H05261)
Correct for Electrical Dark: No (USB2+H05261)
Strobe/Lamp Enabled: No (USB2+H05261)
Correct for Detector Non-linearity: No (USB2+H05261)
Correct for Stray Light: No (USB2+H05261)
Number of Pixels in Processed Spectrum: 2048
>>>>>Begin Processed Spectral Data<<<<<
365.73	0.00
365.92	0.00
366.12	0.00
366.32	0.00
366.52	0.00
366.72	0.00
366.91	0.00
367.11	0.00
367.31	0.00
367.51	0.00
367.70	0.00
367.90	0.00
368.10	0.00
368.30	0.00
368.49	0.00
368.69	0.00
368.89	0.00
369.09	0.00
369.28	0.00
369.48	0.00
369.68	11.70
369.87	0.00
370.07	0.00
370.27	28.09
370.47	4.68
370.66	4.68
370.86	28.09
371.06	65.54
371.25	86.60
371.45	105.32
371.65	79.58
371.84	14.04
372.04	74.90
372.24	154.48
372.44	91.28
372.63	107.66
372.83	159.16
373.03	60.85
373.22	65.54
373.42	124.05
373.62	84.26
373.81	65.54
374.01	128.73
374.21	147.45
374.40	124.05
374.60	147.45
374.79	112.35
374.99	163.84
375.19	135.75
375.38	191.92
375.58	65.54
375.78	119.37
375.97	77.24
376.17	135.75
376.37	102.98
376.56	187.24
376.76	126.39
376.95	37.45
377.15	161.50
377.35	102.98
377.54	126.39
377.74	95.96
377.93	72.56
378.13	42.13
378.33	110.01
378.52	166.18
378.72	159.16
378.91	149.79
379.11	58.51
379.31	58.51
379.50	21.06
379.70	131.07
379.89	159.16
380.09	154.48
380.28	58.51
380.48	110.01
380.68	63.19
380.87	28.09
381.07	147.45
381.26	208.31
381.46	114.69
381.65	131.07
381.85	131.07
382.04	138.09
382.24	112.35
382.43	100.64
382.63	107.66
382.83	18.72
383.02	72.56
383.22	98.30
383.41	126.39
383.61	88.94
383.80	81.92
384.00	79.58
384.19	95.96
384.39	117.03
384.58	149.79
384.78	173.20
384.97	135.75
385.17	70.22
385.36	58.51
385.56	32.77
385.75	49.15
385.95	100.64
386.14	119.37
386.34	124.05
386.53	133.41
386.72	84.26
386.92	138.09
387.11	124.05
387.31	128.73
387.50	138.09
387.70	119.37
387.89	168.52
388.09	191.92
388.28	126.39
388.48	77.24
388.67	173.20
388.86	121.71
389.06	93.62
389.25	161.50
389.45	93.62
389.64	46.81
389.84	107.66
390.03	91.28
390.22	93.62
390.42	110.01
390.61	133.41
390.81	79.58
391.00	102.98
391.19	145.11
391.39	98.30
391.58	140.43
391.78	168.52
391.97	86.60
392.16	135.75
392.36	196.60
392.55	189.58
392.75	70.22
392.94	65.54
393.13	149.79
393.33	161.50
393.52	140.43
393.71	170.86
393.91	163.84
394.10	49.15
394.29	56.17
394.49	145.11
394.68	161.50
394.88	131.07
395.07	126.39
395.26	86.60
395.46	163.84
395.65	119.37
395.84	138.09
396.04	138.09
396.23	117.03
396.42	110.01
396.62	145.11
396.81	140.43
397.00	131.07
397.19	154.48
397.39	170.86
397.58	177.88
397.77	77.24
397.97	138.09
398.16	128.73
398.35	147.45
398.55	91.28
398.74	107.66
398.93	191.92
399.12	121.71
399.32	117.03
399.51	77.24
399.70	63.19
399.90	88.94
400.09	149.79
400.28	161.50
400.47	84.26
400.67	159.16
400.86	149.79
401.05	105.32
401.24	128.73
401.44	74.90
401.63	107.66
401.82	166.18
402.01	128.73
402.21	128.73
402.40	49.15
402.59	105.32
402.78	147.45
402.97	117.03
403.17	124.05
403.36	145.11
403.55	119.37
403.74	180.22
403.93	124.05
404.13	262.14
404.32	210.65
404.51	194.26
404.70	196.60
404.89	105.32
405.09	112.35
405.28	58.51
405.47	74.90
405.66	142.77
405.85	189.58
406.05	133.41
406.24	81.92
406.43	121.71
406.62	149.79
406.81	163.84
407.00	175.54
407.20	138.09
407.39	180.22
407.58	182.56
407.77	126.39
407.96	140.43
408.15	212.99
408.34	147.45
408.54	98.30
408.73	105.32
408.92	159.16
409.11	210.65
409.30	203.63
409.49	93.62
409.68	126.39
409.87	42.13
410.07	187.24
410.26	133.41
410.45	77.24
410.64	156.82
410.83	138.09
411.02	180.22
411.21	133.41
411.40	173.20
411.59	163.84
411.78	135.75
411.98	131.07
412.17	194.26
412.36	177.88
412.55	93.62
412.74	93.62
412.93	191.92
413.12	124.05
413.31	201.29
413.50	154.48
413.69	156.82
413.88	133.41
414.07	133.41
414.26	117.03
414.45	91.28
414.64	117.03
414.83	114.69
415.02	173.20
415.22	189.58
415.41	210.65
415.60	0.00
415.79	201.29
415.98	177.88
416.17	140.43
416.36	98.30
416.55	154.48
416.74	133.41
416.93	110.01
417.12	117.03
417.31	128.73
417.50	220.01
417.69	187.24
417.88	173.20
418.07	163.84
418.26	117.03
418.45	117.03
418.64	182.56
418.83	177.88
419.02	126.39
419.21	224.69
419.39	112.35
419.58	95.96
419.77	131.07
419.96	110.01
420.15	212.99
420.34	163.84
420.53	79.58
420.72	135.75
420.91	117.03
421.10	119.37
421.29	156.82
421.48	145.11
421.67	210.65
421.86	152.13
422.05	110.01
422.24	161.50
422.43	119.37
422.61	131.07
422.80	77.24
422.99	124.05
423.18	196.60
423.37	217.67
423.56	156.82
423.75	93.62
423.94	74.90
424.13	145.11
424.32	126.39
424.50	98.30
424.69	140.43
424.88	138.09
425.07	56.17
425.26	95.96
425.45	238.73
425.64	72.56
425.83	140.43
426.01	201.29
426.20	138.09
426.39	102.98
426.58	152.13
426.77	117.03
426.96	201.29
427.15	126.39
427.33	84.26
427.52	152.13
427.71	114.69
427.90	131.07
428.09	112.35
428.28	119.37
428.46	191.92
428.65	131.07
428.84	234.05
429.03	229.37
429.22	107.66
429.40	37.45
429.59	51.49
429.78	210.65
429.97	224.69
430.16	187.24
430.34	142.77
430.53	119.37
430.72	98.30
430.91	147.45
431.10	168.52
431.28	147.45
431.47	196.60
431.66	152.13
431.85	128.73
432.03	168.52
432.22	173.20
432.41	156.82
432.60	234.05
432.79	138.09
432.97	182.56
433.16	189.58
433.35	86.60
433.54	147.45
433.72	184.90
433.91	196.60
434.10	159.16
434.28	147.45
434.47	124.05
434.66	182.56
434.85	168.52
435.03	306.61
435.22	470.45
435.41	601.52
435.59	692.80
435.78	566.41
435.97	252.78
436.16	170.86
436.34	220.01
436.53	187.24
436.72	175.54
436.90	145.11
437.09	175.54
437.28	110.01
437.46	65.54
437.65	182.56
437.84	149.79
438.02	140.43
438.21	166.18
438.40	173.20
438.58	170.86
438.77	271.50
438.96	142.77
439.14	128.73
439.33	161.50
439.52	177.88
439.70	182.56
439.89	114.69
440.08	163.84
440.26	159.16
440.45	112.35
440.63	124.05
440.82	159.16
441.01	140.43
441.19	184.90
441.38	140.43
441.57	119.37
441.75	159.16
441.94	222.35
442.12	201.29
442.31	163.84
442.50	124.05
442.68	161.50
442.87	124.05
443.05	145.11
443.24	208.31
443.43	189.58
443.61	205.97
443.80	224.69
443.98	227.03
444.17	191.92
444.35	149.79
444.54	168.52
444.73	102.98
444.91	215.33
445.10	128.73
445.28	173.20
445.47	173.20
445.65	124.05
445.84	163.84
446.02	166.18
446.21	131.07
446.39	198.95
446.58	133.41
446.77	133.41
446.95	105.32
447.14	128.73
447.32	227.03
447.51	126.39
447.69	196.60
447.88	191.92
448.06	245.76
448.25	203.63
448.43	159.16
448.62	138.09
448.80	180.22
448.99	117.03
449.17	70.22
449.36	154.48
449.54	203.63
449.73	168.52
449.91	133.41
450.10	184.90
450.28	212.99
450.46	278.52
450.65	259.80
450.83	142.77
451.02	198.95
451.20	163.84
451.39	205.97
451.57	161.50
451.76	149.79
451.94	100.64
452.13	177.88
452.31	220.01
452.49	194.26
452.68	156.82
452.86	159.16
453.05	187.24
453.23	168.52
453.42	149.79
453.60	189.58
453.78	173.20
453.97	128.73
454.15	156.82
454.34	152.13
454.52	154.48
454.70	191.92
454.89	133.41
455.07	163.84
455.26	154.48
455.44	217.67
455.62	173.20
455.81	142.77
455.99	173.20
456.17	159.16
456.36	135.75
456.54	77.24
456.73	205.97
456.91	138.09
457.09	72.56
457.28	191.92
457.46	187.24
457.64	201.29
457.83	182.56
458.01	149.79
458.19	119.37
458.38	163.84
458.56	159.16
458.74	208.31
458.93	276.18
459.11	117.03
459.29	215.33
459.48	133.41
459.66	220.01
459.84	238.73
460.03	259.80
460.21	205.97
460.39	191.92
460.57	241.08
460.76	184.90
460.94	252.78
461.12	166.18
461.31	177.88
461.49	142.77
461.67	175.54
461.85	161.50
462.04	212.99
462.22	660.03
462.40	241.08
462.59	241.08
462.77	187.24
462.95	166.18
463.13	119.37
463.32	220.01
463.50	117.03
463.68	135.75
463.86	229.37
464.05	184.90
464.23	196.60
464.41	231.71
464.59	156.82
464.78	222.35
464.96	194.26
465.14	203.63
465.32	194.26
465.50	170.86
465.69	196.60
465.87	180.22
466.05	205.97
466.23	142.77
466.41	229.37
466.60	177.88
466.78	91.28
466.96	177.88
467.14	166.18
467.32	121.71
467.51	145.11
467.69	149.79
467.87	187.24
468.05	210.65
468.23	105.32
468.41	203.63
468.60	187.24
468.78	170.86
468.96	220.01
469.14	187.24
469.32	196.60
469.50	140.43
469.69	191.92
469.87	170.86
470.05	177.88
470.23	161.50
470.41	159.16
470.59	234.05
470.77	161.50
470.95	177.88
471.14	220.01
471.32	142.77
471.50	208.31
471.68	173.20
471.86	140.43
472.04	102.98
472.22	140.43
472.40	133.41
472.58	149.79
472.77	138.09
472.95	184.90
473.13	196.60
473.31	215.33
473.49	191.92
473.67	154.48
473.85	248.10
474.03	283.20
474.21	156.82
474.39	222.35
474.57	224.69
474.75	156.82
474.93	229.37
475.12	86.60
475.30	159.16
475.48	133.41
475.66	248.10
475.84	161.50
476.02	170.86
476.20	241.08
476.38	166.18
476.56	220.01
476.74	145.11
476.92	145.11
477.10	262.14
477.28	180.22
477.46	170.86
477.64	208.31
477.82	252.78
478.00	173.20
478.18	163.84
478.36	196.60
478.54	198.95
478.72	201.29
478.90	124.05
479.08	180.22
479.26	191.92
479.44	203.63
479.62	198.95
479.80	236.39
479.98	154.48
480.16	177.88
480.34	245.76
480.52	194.26
480.70	212.99
480.88	229.37
481.06	175.54
481.24	133.41
481.41	210.65
481.59	208.31
481.77	177.88
481.95	266.82
482.13	248.10
482.31	212.99
482.49	224.69
482.67	220.01
482.85	212.99
483.03	250.44
483.21	257.46
483.39	222.35
483.57	292.57
483.74	294.91
483.92	236.39
484.10	269.16
484.28	170.86
484.46	238.73
484.64	259.80
484.82	266.82
485.00	334.70
485.18	231.71
485.35	262.14
485.53	203.63
485.71	231.71
485.89	236.39
486.07	264.48
486.25	320.65
486.43	273.84
486.61	257.46
486.78	266.82
486.96	294.91
487.14	276.18
487.32	320.65
487.50	294.91
487.68	304.27
487.85	276.18
488.03	304.27
488.21	276.18
488.39	222.35
488.57	280.86
488.75	252.78
488.92	510.24
489.10	238.73
489.28	339.38
489.46	248.10
489.64	304.27
489.81	311.29
489.99	262.14
490.17	234.05
490.35	264.48
490.53	262.14
490.70	294.91
490.88	243.42
491.06	264.48
491.24	306.61
491.41	360.44
491.59	355.76
491.77	222.35
491.95	238.73
492.13	262.14
492.30	266.82
492.48	299.59
492.66	238.73
492.84	220.01
493.01	245.76
493.19	252.78
493.37	301.93
493.54	334.70
493.72	280.86
493.90	241.08
494.08	311.29
494.25	215.33
494.43	299.59
494.61	285.55
494.79	257.46
494.96	231.71
495.14	266.82
495.32	292.57
495.49	287.89
495.67	266.82
495.85	276.18
496.02	285.55
496.20	245.76
496.38	276.18
496.55	257.46
496.73	304.27
496.91	215.33
497.09	297.25
497.26	196.60
497.44	280.86
497.62	245.76
497.79	292.57
497.97	358.10
498.14	322.99
498.32	236.39
498.50	341.72
498.67	332.36
498.85	252.78
499.03	220.01
499.20	297.25
499.38	266.82
499.56	236.39
499.73	259.80
499.91	376.83
500.08	322.99
500.26	250.44
500.44	241.08
500.61	294.91
500.79	234.05
500.97	203.63
501.14	285.55
501.32	278.52
501.49	269.16
501.67	252.78
501.84	229.37
502.02	243.42
502.20	273.84
502.37	243.42
502.55	255.12
502.72	306.61
502.90	264.48
503.07	241.08
503.25	227.03
503.43	248.10
503.60	234.05
503.78	330.02
503.95	236.39
504.13	285.55
504.30	234.05
504.48	241.08
504.65	271.50
504.83	346.40
505.01	238.73
505.18	255.12
505.36	306.61
505.53	311.29
505.71	301.93
505.88	287.89
506.06	339.38
506.23	212.99
506.41	234.05
506.58	198.95
506.76	283.20
506.93	259.80
507.11	238.73
507.28	177.88
507.46	259.80
507.63	294.91
507.81	229.37
507.98	224.69
508.16	227.03
508.33	259.80
508.50	348.74
508.68	243.42
508.85	280.86
509.03	262.14
509.20	245.76
509.38	283.20
509.55	283.20
509.73	280.86
509.90	252.78
510.08	332.36
510.25	285.55
510.42	308.95
510.60	301.93
510.77	337.04
510.95	294.91
511.12	276.18
511.30	325.33
511.47	269.16
511.64	252.78
511.82	229.37
511.99	269.16
512.17	318.31
512.34	255.12
512.51	163.84
512.69	229.37
512.86	304.27
513.04	229.37
513.21	238.73
513.38	278.52
513.56	273.84
513.73	243.42
513.90	243.42
514.08	276.18
514.25	337.04
514.43	250.44
514.60	241.08
514.77	273.84
514.95	290.23
515.12	217.67
515.29	264.48
515.47	292.57
515.64	238.73
515.81	311.29
515.99	301.93
516.16	283.20
516.33	311.29
516.51	203.63
516.68	257.46
516.85	205.97
517.03	182.56
517.20	205.97
517.37	229.37
517.54	278.52
517.72	266.82
517.89	184.90
518.06	266.82
518.24	308.95
518.41	320.65
518.58	348.74
518.75	245.76
518.93	313.63
519.10	241.08
519.27	250.44
519.45	194.26
519.62	234.05
519.79	287.89
519.96	273.84
520.14	264.48
520.31	315.97
520.48	294.91
520.65	271.50
520.83	210.65
521.00	315.97
521.17	273.84
521.34	334.70
521.52	212.99
521.69	262.14
521.86	332.36
522.03	299.59
522.20	337.04
522.38	264.48
522.55	203.63
522.72	224.69
522.89	297.25
523.07	355.76
523.24	290.23
523.41	259.80
523.58	278.52
523.75	250.44
523.92	341.72
524.10	269.16
524.27	271.50
524.44	318.31
524.61	271.50
524.78	315.97
524.96	327.68
525.13	301.93
525.30	301.93
525.47	315.97
525.64	276.18
525.81	271.50
525.98	264.48
526.16	332.36
526.33	283.20
526.50	236.39
526.67	252.78
526.84	259.80
527.01	313.63
527.18	308.95
527.36	231.71
527.53	245.76
527.70	330.02
527.87	234.05
528.04	337.04
528.21	266.82
528.38	255.12
528.55	327.68
528.72	393.21
528.89	308.95
529.07	278.52
529.24	358.10
529.41	262.14
529.58	255.12
529.75	250.44
529.92	262.14
530.09	294.91
530.26	311.29
530.43	341.72
530.60	290.23
530.77	311.29
530.94	313.63
531.11	311.29
531.28	318.31
531.46	245.76
531.63	292.57
531.80	308.95
531.97	290.23
532.14	266.82
532.31	297.25
532.48	236.39
532.65	365.12
532.82	341.72
532.99	372.15
533.16	383.85
533.33	360.44
533.50	362.78
533.67	353.42
533.84	304.27
534.01	341.72
534.18	301.93
534.35	348.74
534.52	318.31
534.69	339.38
534.86	278.52
535.03	334.70
535.20	332.36
535.37	372.15
535.54	325.33
535.71	339.38
535.88	402.57
536.05	388.53
536.22	358.10
536.38	388.53
536.55	351.08
536.72	362.78
536.89	362.78
537.06	383.85
537.23	463.43
537.40	337.04
537.57	390.87
537.74	411.93
537.91	454.06
538.08	365.12
538.25	374.49
538.42	325.33
538.59	430.66
538.75	372.15
538.92	451.72
539.09	437.68
539.26	482.15
539.43	531.30
539.60	472.79
539.77	500.87
539.94	559.39
540.11	505.56
540.28	587.47
540.44	653.01
540.61	699.82
540.78	636.63
540.95	709.18
541.12	807.48
541.29	912.81
541.46	910.47
541.62	947.92
541.79	931.53
541.96	1013.45
542.13	945.58
542.30	884.72
542.47	919.83
542.63	856.64
542.80	877.70
542.97	917.49
543.14	858.98
543.31	973.66
543.48	917.49
543.64	896.43
543.81	908.13
543.98	833.23
544.15	866.00
544.32	863.66
544.48	903.45
544.65	830.89
544.82	709.18
544.99	830.89
545.16	887.06
545.32	830.89
545.49	1308.36
545.66	1867.75
545.83	2150.95
546.00	1839.66
546.16	1336.45
546.33	1041.54
546.50	814.51
546.67	716.20
546.83	751.31
547.00	699.82
547.17	603.86
547.34	575.77
547.50	648.33
547.67	568.75
547.84	531.30
548.00	645.99
548.17	575.77
548.34	545.34
548.51	521.94
548.67	606.20
548.84	521.94
549.01	582.79
549.18	573.43
549.34	575.77
549.51	505.56
549.68	531.30
549.84	533.64
550.01	486.83
550.18	568.75
550.34	519.60
550.51	416.62
550.68	557.05
550.84	449.38
551.01	505.56
551.18	404.91
551.34	442.36
551.51	463.43
551.68	353.42
551.84	416.62
552.01	390.87
552.18	447.04
552.34	411.93
552.51	337.04
552.68	374.49
552.84	386.19
553.01	404.91
553.18	402.57
553.34	372.15
553.51	304.27
553.67	383.85
553.84	484.49
554.01	358.10
554.17	353.42
554.34	386.19
554.51	311.29
554.67	255.12
554.84	355.76
555.00	297.25
555.17	313.63
555.33	355.76
555.50	330.02
555.67	346.40
555.83	369.80
556.00	341.72
556.16	470.45
556.33	278.52
556.50	327.68
556.66	238.73
556.83	332.36
556.99	304.27
557.16	383.85
557.32	351.08
557.49	292.57
557.65	339.38
557.82	264.48
557.98	264.48
558.15	299.59
558.32	318.31
558.48	294.91
558.65	287.89
558.81	280.86
558.98	224.69
559.14	320.65
559.31	161.50
559.47	262.14
559.64	262.14
559.80	397.89
559.97	292.57
560.13	315.97
560.30	266.82
560.46	227.03
560.63	287.89
560.79	330.02
560.96	283.20
561.12	292.57
561.29	294.91
561.45	252.78
561.61	196.60
561.78	285.55
561.94	355.76
562.11	262.14
562.27	248.10
562.44	294.91
562.60	327.68
562.77	248.10
562.93	353.42
563.10	297.25
563.26	322.99
563.42	327.68
563.59	280.86
563.75	243.42
563.92	287.89
564.08	266.82
564.24	285.55
564.41	369.80
564.57	264.48
564.74	238.73
564.90	224.69
565.07	262.14
565.23	330.02
565.39	257.46
565.56	262.14
565.72	250.44
565.88	301.93
566.05	304.27
566.21	180.22
566.38	332.36
566.54	308.95
566.70	238.73
566.87	299.59
567.03	339.38
567.19	271.50
567.36	297.25
567.52	315.97
567.68	311.29
567.85	365.12
568.01	374.49
568.17	269.16
568.34	203.63
568.50	308.95
568.66	205.97
568.83	292.57
568.99	257.46
569.15	259.80
569.32	292.57
569.48	348.74
569.64	290.23
569.81	259.80
569.97	259.80
570.13	320.65
570.30	271.50
570.46	292.57
570.62	318.31
570.78	346.40
570.95	210.65
571.11	376.83
571.27	299.59
571.43	198.95
571.60	311.29
571.76	299.59
571.92	250.44
572.09	320.65
572.25	257.46
572.41	231.71
572.57	276.18
572.74	322.99
572.90	311.29
573.06	241.08
573.22	259.80
573.38	294.91
573.55	299.59
573.71	250.44
573.87	264.48
574.03	273.84
574.20	297.25
574.36	372.15
574.52	285.55
574.68	334.70
574.84	297.25
575.01	257.46
575.17	227.03
575.33	222.35
575.49	353.42
575.65	294.91
575.82	290.23
575.98	334.70
576.14	334.70
576.30	301.93
576.46	428.32
576.62	561.73
576.79	573.43
576.95	545.34
577.11	411.93
577.27	393.21
577.43	351.08
577.59	418.96
577.75	332.36
577.92	294.91
578.08	299.59
578.24	320.65
578.40	308.95
578.56	458.74
578.72	613.22
578.88	507.90
579.04	514.92
579.21	435.34
579.37	397.89
579.53	386.19
579.69	425.98
579.85	437.68
580.01	409.59
580.17	409.59
580.33	425.98
580.49	339.38
580.65	414.27
580.82	383.85
580.98	376.83
581.14	372.15
581.30	367.46
581.46	355.76
581.62	339.38
581.78	353.42
581.94	381.51
582.10	383.85
582.26	425.98
582.42	463.43
582.58	458.74
582.74	440.02
582.90	482.15
583.06	407.25
583.22	404.91
583.38	496.19
583.54	409.59
583.70	451.72
583.86	500.87
584.02	425.98
584.18	447.04
584.34	440.02
584.50	395.55
584.66	369.80
584.82	390.87
584.98	353.42
585.14	379.17
585.30	496.19
585.46	456.40
585.62	409.59
585.78	447.04
585.94	451.72
586.10	327.68
586.26	442.36
586.42	524.28
586.58	423.64
586.74	519.60
586.90	585.13
587.06	575.77
587.22	514.92
587.38	463.43
587.54	575.77
587.70	517.26
587.86	407.25
588.02	346.40
588.18	379.17
588.34	320.65
588.49	313.63
588.65	351.08
588.81	243.42
588.97	379.17
589.13	318.31
589.29	337.04
589.45	346.40
589.61	313.63
589.77	325.33
589.93	404.91
590.08	325.33
590.24	325.33
590.40	367.46
590.56	402.57
590.72	407.25
590.88	320.65
591.04	360.44
591.20	334.70
591.35	388.53
591.51	337.04
591.67	355.76
591.83	388.53
591.99	365.12
592.15	425.98
592.31	362.78
592.46	430.66
592.62	416.62
592.78	456.40
592.94	521.94
593.10	442.36
593.26	437.68
593.41	411.93
593.57	404.91
593.73	421.30
593.89	369.80
594.05	367.46
594.20	269.16
594.36	444.70
594.52	264.48
594.68	351.08
594.84	381.51
594.99	369.80
595.15	273.84
595.31	269.16
595.47	367.46
595.62	252.78
595.78	421.30
595.94	297.25
596.10	292.57
596.25	266.82
596.41	285.55
596.57	402.57
596.73	351.08
596.88	280.86
597.04	290.23
597.20	339.38
597.36	351.08
597.51	360.44
597.67	330.02
597.83	330.02
597.99	367.46
598.14	383.85
598.30	374.49
598.46	414.27
598.61	376.83
598.77	362.78
598.93	346.40
599.09	411.93
599.24	379.17
599.40	383.85
599.56	299.59
599.71	374.49
599.87	376.83
600.03	290.23
600.18	395.55
600.34	341.72
600.50	313.63
600.65	374.49
600.81	346.40
600.97	301.93
601.12	355.76
601.28	374.49
601.44	276.18
601.59	299.59
601.75	325.33
601.91	262.14
602.06	318.31
602.22	367.46
602.37	381.51
602.53	257.46
602.69	280.86
602.84	220.01
603.00	285.55
603.16	346.40
603.31	376.83
603.47	292.57
603.62	252.78
603.78	290.23
603.94	203.63
604.09	271.50
604.25	283.20
604.40	355.76
604.56	404.91
604.71	374.49
604.87	344.06
605.03	367.46
605.18	292.57
605.34	358.10
605.49	353.42
605.65	325.33
605.80	318.31
605.96	367.46
606.12	290.23
606.27	306.61
606.43	362.78
606.58	376.83
606.74	327.68
606.89	311.29
607.05	374.49
607.20	311.29
607.36	362.78
607.51	339.38
607.67	416.62
607.82	315.97
607.98	325.33
608.13	341.72
608.29	393.21
608.44	435.34
608.60	358.10
608.75	510.24
608.91	449.38
609.06	510.24
609.22	552.37
609.37	575.77
609.53	507.90
609.68	554.71
609.84	578.11
609.99	730.25
610.15	781.74
610.30	912.81
610.46	1165.59
610.61	1413.68
610.76	1694.55
610.92	2008.18
611.07	2078.40
611.23	2101.80
611.38	2010.52
611.54	1764.76
611.69	1570.50
611.84	1256.87
612.00	1210.06
612.15	1057.92
612.31	1018.13
612.46	898.77
612.62	842.59
612.77	791.10
612.92	767.70
613.08	805.14
613.23	772.38
613.39	704.50
613.54	688.12
613.69	603.86
613.85	531.30
614.00	664.71
614.15	674.07
614.31	575.77
614.46	695.14
614.62	627.26
614.77	650.67
614.92	573.43
615.08	641.31
615.23	547.69
615.38	631.94
615.54	540.66
615.69	559.39
615.84	435.34
616.00	397.89
616.15	435.34
616.30	454.06
616.46	376.83
616.61	372.15
616.76	393.21
616.92	456.40
617.07	332.36
617.22	374.49
617.37	379.17
617.53	379.17
617.68	381.51
617.83	318.31
617.99	318.31
618.14	346.40
618.29	280.86
618.45	341.72
618.60	318.31
618.75	262.14
618.90	355.76
619.06	306.61
619.21	346.40
619.36	374.49
619.51	348.74
619.67	308.95
619.82	327.68
619.97	346.40
620.12	458.74
620.28	362.78
620.43	348.74
620.58	369.80
620.73	425.98
620.89	344.06
621.04	433.00
621.19	386.19
621.34	383.85
621.49	297.25
621.65	402.57
621.80	355.76
621.95	315.97
622.10	341.72
622.25	337.04
622.41	348.74
622.56	346.40
622.71	311.29
622.86	369.80
623.01	299.59
623.16	365.12
623.32	449.38
623.47	327.68
623.62	330.02
623.77	369.80
623.92	355.76
624.07	304.27
624.23	337.04
624.38	362.78
624.53	292.57
624.68	369.80
624.83	383.85
624.98	344.06
625.13	337.04
625.29	301.93
625.44	273.84
625.59	306.61
625.74	353.42
625.89	386.19
626.04	334.70
626.19	327.68
626.34	248.10
626.49	337.04
626.65	304.27
626.80	341.72
626.95	367.46
627.10	390.87
627.25	341.72
627.40	304.27
627.55	318.31
627.70	301.93
627.85	308.95
628.00	301.93
628.15	320.65
628.30	283.20
628.45	280.86
628.60	346.40
628.76	381.51
628.91	297.25
629.06	367.46
629.21	322.99
629.36	341.72
629.51	327.68
629.66	430.66
629.81	355.76
629.96	355.76
630.11	313.63
630.26	341.72
630.41	386.19
630.56	489.17
630.71	440.02
630.86	463.43
631.01	428.32
631.16	430.66
631.31	308.95
631.46	376.83
631.61	351.08
631.76	327.68
631.91	332.36
632.06	229.37
632.21	243.42
632.36	262.14
632.51	290.23
632.66	330.02
632.81	259.80
632.96	266.82
633.10	264.48
633.25	234.05
633.40	285.55
633.55	220.01
633.70	191.92
633.85	285.55
634.00	248.10
634.15	241.08
634.30	294.91
634.45	297.25
634.60	278.52
634.75	163.84
634.90	231.71
635.05	318.31
635.19	283.20
635.34	238.73
635.49	241.08
635.64	231.71
635.79	264.48
635.94	245.76
636.09	294.91
636.24	224.69
636.39	210.65
636.53	264.48
636.68	224.69
636.83	248.10
636.98	337.04
637.13	210.65
637.28	271.50
637.43	245.76
637.57	248.10
637.72	299.59
637.87	231.71
638.02	306.61
638.17	238.73
638.32	238.73
638.46	287.89
638.61	374.49
638.76	255.12
638.91	194.26
639.06	208.31
639.20	297.25
639.35	264.48
639.50	194.26
639.65	255.12
639.80	168.52
639.94	236.39
640.09	262.14
640.24	234.05
640.39	271.50
640.54	243.42
640.68	177.88
640.83	271.50
640.98	276.18
641.13	245.76
641.27	262.14
641.42	294.91
641.57	264.48
641.72	241.08
641.86	231.71
642.01	290.23
642.16	276.18
642.31	220.01
642.45	269.16
642.60	330.02
642.75	145.11
642.90	271.50
643.04	196.60
643.19	220.01
643.34	243.42
643.48	245.76
643.63	245.76
643.78	224.69
643.93	243.42
644.07	224.69
644.22	210.65
644.37	290.23
644.51	241.08
644.66	297.25
644.81	241.08
644.95	252.78
645.10	208.31
645.25	229.37
645.39	243.42
645.54	217.67
645.69	271.50
645.83	212.99
645.98	271.50
646.13	196.60
646.27	229.37
646.42	208.31
646.57	191.92
646.71	198.95
646.86	142.77
647.00	182.56
647.15	227.03
647.30	189.58
647.44	212.99
647.59	191.92
647.74	149.79
647.88	248.10
648.03	184.90
648.17	182.56
648.32	210.65
648.47	201.29
648.61	217.67
648.76	145.11
648.90	194.26
649.05	159.16
649.20	177.88
649.34	201.29
649.49	266.82
649.63	248.10
649.78	231.71
649.92	234.05
650.07	257.46
650.21	224.69
650.36	252.78
650.51	255.12
650.65	287.89
650.80	198.95
650.94	205.97
651.09	297.25
651.23	184.90
651.38	273.84
651.52	210.65
651.67	142.77
651.81	266.82
651.96	220.01
652.10	344.06
652.25	187.24
652.39	250.44
652.54	161.50
652.68	217.67
652.83	177.88
652.97	222.35
653.12	276.18
653.26	177.88
653.41	315.97
653.55	215.33
653.70	166.18
653.84	210.65
653.99	159.16
654.13	220.01
654.27	161.50
654.42	224.69
654.56	241.08
654.71	217.67
654.85	152.13
655.00	196.60
655.14	227.03
655.29	201.29
655.43	229.37
655.57	208.31
655.72	177.88
655.86	241.08
656.01	212.99
656.15	222.35
656.30	201.29
656.44	229.37
656.58	198.95
656.73	145.11
656.87	182.56
657.01	131.07
657.16	241.08
657.30	222.35
657.45	208.31
657.59	163.84
657.73	210.65
657.88	159.16
658.02	198.95
658.16	205.97
658.31	222.35
658.45	191.92
658.60	175.54
658.74	189.58
658.88	262.14
659.03	163.84
659.17	191.92
659.31	208.31
659.46	205.97
659.60	187.24
659.74	166.18
659.89	259.80
660.03	154.48
660.17	196.60
660.32	245.76
660.46	229.37
660.60	227.03
660.74	236.39
660.89	241.08
661.03	215.33
661.17	191.92
661.32	212.99
661.46	163.84
661.60	170.86
661.74	203.63
661.89	283.20
662.03	379.17
662.17	217.67
662.31	205.97
662.46	238.73
662.60	252.78
662.74	222.35
662.88	294.91
663.03	280.86
663.17	191.92
663.31	198.95
663.45	149.79
663.60	227.03
663.74	224.69
663.88	224.69
664.02	180.22
664.17	201.29
664.31	149.79
664.45	215.33
664.59	161.50
664.73	215.33
664.88	203.63
665.02	184.90
665.16	224.69
665.30	222.35
665.44	236.39
665.59	234.05
665.73	217.67
665.87	173.20
666.01	131.07
666.15	140.43
666.29	147.45
666.44	198.95
666.58	269.16
666.72	191.92
666.86	182.56
667.00	262.14
667.14	194.26
667.28	208.31
667.43	229.37
667.57	241.08
667.71	283.20
667.85	166.18
667.99	297.25
668.13	220.01
668.27	229.37
668.41	276.18
668.56	201.29
668.70	250.44
668.84	180.22
668.98	170.86
669.12	182.56
669.26	198.95
669.40	292.57
669.54	234.05
669.68	156.82
669.82	229.37
669.96	217.67
670.10	156.82
670.25	170.86
670.39	205.97
670.53	163.84
670.67	208.31
670.81	196.60
670.95	187.24
671.09	119.37
671.23	173.20
671.37	187.24
671.51	234.05
671.65	255.12
671.79	149.79
671.93	203.63
672.07	266.82
672.21	234.05
672.35	156.82
672.49	217.67
672.63	224.69
672.77	208.31
672.91	182.56
673.05	205.97
673.19	149.79
673.33	238.73
673.47	259.80
673.61	182.56
673.75	126.39
673.89	166.18
674.03	198.95
674.17	196.60
674.31	107.66
674.45	170.86
674.59	243.42
674.73	210.65
674.87	194.26
675.01	245.76
675.15	156.82
675.29	208.31
675.43	217.67
675.56	283.20
675.70	173.20
675.84	252.78
675.98	196.60
676.12	201.29
676.26	222.35
676.40	191.92
676.54	205.97
676.68	114.69
676.82	166.18
676.96	138.09
677.10	149.79
677.23	140.43
677.37	124.05
677.51	163.84
677.65	166.18
677.79	142.77
677.93	168.52
678.07	145.11
678.21	168.52
678.34	170.86
678.48	142.77
678.62	180.22
678.76	142.77
678.90	170.86
679.04	175.54
679.18	194.26
679.31	110.01
679.45	210.65
679.59	248.10
679.73	131.07
679.87	166.18
680.00	159.16
680.14	145.11
680.28	184.90
680.42	135.75
680.56	236.39
680.70	147.45
680.83	210.65
680.97	138.09
681.11	154.48
681.25	217.67
681.39	210.65
681.52	203.63
681.66	163.84
681.80	159.16
681.94	205.97
682.07	220.01
682.21	238.73
682.35	124.05
682.49	149.79
682.62	166.18
682.76	187.24
682.90	138.09
683.04	121.71
683.17	168.52
683.31	105.32
683.45	166.18
683.59	145.11
683.72	173.20
683.86	175.54
684.00	163.84
684.13	191.92
684.27	159.16
684.41	184.90
684.55	166.18
684.68	133.41
684.82	168.52
684.96	140.43
685.09	156.82
685.23	121.71
685.37	110.01
685.50	156.82
685.64	222.35
685.78	138.09
685.91	161.50
686.05	180.22
686.19	208.31
686.32	166.18
686.46	74.90
686.60	126.39
686.73	201.29
686.87	135.75
687.01	114.69
687.14	72.56
687.28	149.79
687.42	166.18
687.55	182.56
687.69	145.11
687.82	215.33
687.96	215.33
688.10	156.82
688.23	152.13
688.37	243.42
688.50	168.52
688.64	156.82
688.78	168.52
688.91	142.77
689.05	114.69
689.18	138.09
689.32	161.50
689.46	98.30
689.59	107.66
689.73	201.29
689.86	102.98
690.00	168.52
690.13	182.56
690.27	187.24
690.41	166.18
690.54	238.73
690.68	189.58
690.81	245.76
690.95	198.95
691.08	140.43
691.22	142.77
691.35	149.79
691.49	142.77
691.62	145.11
691.76	117.03
691.89	131.07
692.03	138.09
692.16	149.79
692.30	159.16
692.43	114.69
692.57	112.35
692.70	112.35
692.84	88.94
692.97	140.43
693.11	102.98
693.24	166.18
693.38	112.35
693.51	170.86
693.65	163.84
693.78	110.01
693.92	170.86
694.05	65.54
694.19	98.30
694.32	135.75
694.45	88.94
694.59	117.03
694.72	138.09
694.86	201.29
694.99	159.16
695.13	168.52
695.26	142.77
695.39	182.56
695.53	201.29
695.66	84.26
695.80	102.98
695.93	154.48
696.07	180.22
696.20	149.79
696.33	117.03
696.47	65.54
696.60	133.41
696.73	119.37
696.87	145.11
697.00	177.88
697.14	149.79
697.27	121.71
697.40	245.76
697.54	135.75
697.67	152.13
697.80	138.09
697.94	140.43
698.07	121.71
698.21	149.79
698.34	184.90
698.47	72.56
698.61	72.56
698.74	124.05
698.87	175.54
699.01	255.12
699.14	114.69
699.27	131.07
699.40	241.08
699.54	128.73
699.67	74.90
699.80	138.09
699.94	180.22
700.07	133.41
700.20	138.09
700.34	112.35
700.47	74.90
700.60	65.54
700.73	93.62
700.87	140.43
701.00	180.22
701.13	135.75
701.26	98.30
701.40	177.88
701.53	95.96
701.66	117.03
701.79	126.39
701.93	102.98
702.06	189.58
702.19	138.09
702.32	159.16
702.46	128.73
702.59	152.13
702.72	135.75
702.85	124.05
702.99	124.05
703.12	147.45
703.25	114.69
703.38	133.41
703.51	81.92
703.65	159.16
703.78	86.60
703.91	154.48
704.04	152.13
704.17	133.41
704.31	135.75
704.44	110.01
704.57	119.37
704.70	119.37
704.83	210.65
704.96	184.90
705.10	222.35
705.23	156.82
>>>>>End Processed Spectral Data<<<<<
