SpectraSuite Data File
++++++++++++++++++++++++++++++++++++
Date: Fri Oct 04 11:42:05 GMT-05:00 2013
User: price-jones
Dark Spectrum Present: No
Reference Spectrum Present: No
Number of Sampled Component Spectra: 1
Spectrometers: USB2+H05261
Integration Time (usec): 100000 (USB2+H05261)
Spectra Averaged: 1 (USB2+H05261)
Boxcar Smoothing: 0 (USB2+H05261)
Correct for Electrical Dark: No (USB2+H05261)
Strobe/Lamp Enabled: No (USB2+H05261)
Correct for Detector Non-linearity: No (USB2+H05261)
Correct for Stray Light: No (USB2+H05261)
Number of Pixels in Processed Spectrum: 2048
>>>>>Begin Processed Spectral Data<<<<<
365.73	4.68
365.92	4.68
366.12	4.68
366.32	0.00
366.52	0.00
366.72	0.00
366.91	0.00
367.11	0.00
367.31	0.00
367.51	0.00
367.70	0.00
367.90	0.00
368.10	0.00
368.30	0.00
368.49	0.00
368.69	0.00
368.89	0.00
369.09	0.00
369.28	0.00
369.48	0.00
369.68	0.00
369.87	0.00
370.07	0.00
370.27	30.43
370.47	18.72
370.66	51.49
370.86	42.13
371.06	60.85
371.25	168.52
371.45	30.43
371.65	121.71
371.84	128.73
372.04	121.71
372.24	67.88
372.44	65.54
372.63	56.17
372.83	135.75
373.03	147.45
373.22	91.28
373.42	156.82
373.62	32.77
373.81	161.50
374.01	166.18
374.21	91.28
374.40	121.71
374.60	173.20
374.79	175.54
374.99	152.13
375.19	100.64
375.38	124.05
375.58	105.32
375.78	37.45
375.97	149.79
376.17	161.50
376.37	145.11
376.56	119.37
376.76	107.66
376.95	156.82
377.15	140.43
377.35	142.77
377.54	105.32
377.74	98.30
377.93	72.56
378.13	84.26
378.33	149.79
378.52	133.41
378.72	168.52
378.91	177.88
379.11	152.13
379.31	159.16
379.50	128.73
379.70	212.99
379.89	184.90
380.09	107.66
380.28	100.64
380.48	198.95
380.68	119.37
380.87	126.39
381.07	65.54
381.26	173.20
381.46	142.77
381.65	142.77
381.85	100.64
382.04	135.75
382.24	119.37
382.43	184.90
382.63	91.28
382.83	201.29
383.02	154.48
383.22	117.03
383.41	133.41
383.61	60.85
383.80	156.82
384.00	227.03
384.19	98.30
384.39	110.01
384.58	74.90
384.78	156.82
384.97	74.90
385.17	95.96
385.36	81.92
385.56	105.32
385.75	117.03
385.95	63.19
386.14	208.31
386.34	126.39
386.53	131.07
386.72	100.64
386.92	128.73
387.11	201.29
387.31	105.32
387.50	152.13
387.70	147.45
387.89	133.41
388.09	100.64
388.28	107.66
388.48	100.64
388.67	107.66
388.86	180.22
389.06	161.50
389.25	124.05
389.45	159.16
389.64	49.15
389.84	135.75
390.03	149.79
390.22	107.66
390.42	168.52
390.61	67.88
390.81	100.64
391.00	51.49
391.19	86.60
391.39	126.39
391.58	145.11
391.78	65.54
391.97	58.51
392.16	102.98
392.36	135.75
392.55	145.11
392.75	88.94
392.94	105.32
393.13	147.45
393.33	81.92
393.52	117.03
393.71	149.79
393.91	88.94
394.10	131.07
394.29	93.62
394.49	121.71
394.68	88.94
394.88	149.79
395.07	187.24
395.26	205.97
395.46	142.77
395.65	149.79
395.84	102.98
396.04	182.56
396.23	51.49
396.42	140.43
396.62	140.43
396.81	184.90
397.00	175.54
397.19	180.22
397.39	131.07
397.58	131.07
397.77	133.41
397.97	133.41
398.16	65.54
398.35	166.18
398.55	187.24
398.74	117.03
398.93	205.97
399.12	149.79
399.32	184.90
399.51	152.13
399.70	175.54
399.90	124.05
400.09	124.05
400.28	147.45
400.47	147.45
400.67	229.37
400.86	117.03
401.05	161.50
401.24	173.20
401.44	215.33
401.63	142.77
401.82	187.24
402.01	175.54
402.21	170.86
402.40	149.79
402.59	154.48
402.78	304.27
402.97	257.46
403.17	318.31
403.36	231.71
403.55	407.25
403.74	704.50
403.93	2179.04
404.13	5261.52
404.32	7953.14
404.51	7426.52
404.70	4741.93
404.89	1692.21
405.09	528.96
405.28	266.82
405.47	220.01
405.66	208.31
405.85	154.48
406.05	177.88
406.24	243.42
406.43	217.67
406.62	212.99
406.81	318.31
407.00	337.04
407.20	631.94
407.39	1064.94
407.58	1139.84
407.77	868.34
407.96	468.11
408.15	222.35
408.34	189.58
408.54	187.24
408.73	161.50
408.92	231.71
409.11	159.16
409.30	149.79
409.49	175.54
409.68	86.60
409.87	212.99
410.07	191.92
410.26	191.92
410.45	234.05
410.64	128.73
410.83	212.99
411.02	196.60
411.21	255.12
411.40	264.48
411.59	290.23
411.78	224.69
411.98	262.14
412.17	170.86
412.36	234.05
412.55	215.33
412.74	210.65
412.93	252.78
413.12	212.99
413.31	269.16
413.50	271.50
413.69	175.54
413.88	196.60
414.07	189.58
414.26	248.10
414.45	215.33
414.64	238.73
414.83	252.78
415.02	229.37
415.22	236.39
415.41	250.44
415.60	271.50
415.79	299.59
415.98	266.82
416.17	255.12
416.36	236.39
416.55	259.80
416.74	264.48
416.93	236.39
417.12	287.89
417.31	227.03
417.50	306.61
417.69	330.02
417.88	170.86
418.07	168.52
418.26	259.80
418.45	198.95
418.64	217.67
418.83	306.61
419.02	322.99
419.21	238.73
419.39	276.18
419.58	271.50
419.77	243.42
419.96	332.36
420.15	285.55
420.34	318.31
420.53	301.93
420.72	269.16
420.91	280.86
421.10	299.59
421.29	341.72
421.48	285.55
421.67	292.57
421.86	304.27
422.05	191.92
422.24	278.52
422.43	273.84
422.61	285.55
422.80	287.89
422.99	344.06
423.18	388.53
423.37	351.08
423.56	374.49
423.75	315.97
423.94	376.83
424.13	311.29
424.32	327.68
424.50	322.99
424.69	330.02
424.88	447.04
425.07	332.36
425.26	400.23
425.45	374.49
425.64	290.23
425.83	332.36
426.01	358.10
426.20	330.02
426.39	437.68
426.58	311.29
426.77	421.30
426.96	374.49
427.15	395.55
427.33	301.93
427.52	322.99
427.71	386.19
427.90	383.85
428.09	402.57
428.28	330.02
428.46	362.78
428.65	381.51
428.84	395.55
429.03	416.62
429.22	337.04
429.40	383.85
429.59	400.23
429.78	362.78
429.97	325.33
430.16	344.06
430.34	360.44
430.53	447.04
430.72	379.17
430.91	400.23
431.10	360.44
431.28	468.11
431.47	521.94
431.66	479.81
431.85	433.00
432.03	461.09
432.22	559.39
432.41	552.37
432.60	479.81
432.79	489.17
432.97	538.32
433.16	547.69
433.35	585.13
433.54	615.56
433.72	767.70
433.91	716.20
434.10	795.78
434.28	926.85
434.47	1076.65
434.66	1163.25
434.85	1420.71
435.03	3581.02
435.22	13319.99
435.41	32896.23
435.59	40430.41
435.78	26590.83
435.97	12875.29
436.16	4926.83
436.34	1771.79
436.53	919.83
436.72	718.54
436.90	716.20
437.09	585.13
437.28	627.26
437.46	578.11
437.65	662.37
437.84	655.35
438.02	535.98
438.21	547.69
438.40	507.90
438.58	437.68
438.77	519.60
438.96	573.43
439.14	514.92
439.33	561.73
439.52	475.13
439.70	545.34
439.89	559.39
440.08	496.19
440.26	547.69
440.45	587.47
440.63	554.71
440.82	524.28
441.01	486.83
441.19	599.18
441.38	554.71
441.57	528.96
441.75	554.71
441.94	550.03
442.12	528.96
442.31	472.79
442.50	552.37
442.68	484.49
442.87	505.56
443.05	493.85
443.24	503.22
443.43	533.64
443.61	486.83
443.80	479.81
443.98	461.09
444.17	425.98
444.35	580.45
444.54	468.11
444.73	496.19
444.91	461.09
445.10	463.43
445.28	447.04
445.47	435.34
445.65	498.53
445.84	416.62
446.02	512.58
446.21	521.94
446.39	552.37
446.58	528.96
446.77	449.38
446.95	458.74
447.14	416.62
447.32	538.32
447.51	491.51
447.69	521.94
447.88	535.98
448.06	442.36
448.25	418.96
448.43	440.02
448.62	468.11
448.80	444.70
448.99	524.28
449.17	475.13
449.36	482.15
449.54	442.36
449.73	521.94
449.91	540.66
450.10	479.81
450.28	496.19
450.46	571.09
450.65	517.26
450.83	461.09
451.02	449.38
451.20	533.64
451.39	594.50
451.57	486.83
451.76	437.68
451.94	505.56
452.13	610.88
452.31	526.62
452.49	496.19
452.68	477.47
452.86	486.83
453.05	582.79
453.23	505.56
453.42	386.19
453.60	409.59
453.78	440.02
453.97	477.47
454.15	507.90
454.34	463.43
454.52	433.00
454.70	512.58
454.89	566.41
455.07	500.87
455.26	458.74
455.44	491.51
455.62	440.02
455.81	500.87
455.99	547.69
456.17	463.43
456.36	517.26
456.54	472.79
456.73	386.19
456.91	484.49
457.09	528.96
457.28	514.92
457.46	486.83
457.64	543.00
457.83	526.62
458.01	444.70
458.19	472.79
458.38	531.30
458.56	484.49
458.74	444.70
458.93	444.70
459.11	468.11
459.29	433.00
459.48	573.43
459.66	461.09
459.84	433.00
460.03	564.07
460.21	512.58
460.39	491.51
460.57	449.38
460.76	461.09
460.94	470.45
461.12	587.47
461.31	489.17
461.49	486.83
461.67	444.70
461.85	491.51
462.04	374.49
462.22	971.32
462.40	514.92
462.59	463.43
462.77	514.92
462.95	365.12
463.13	418.96
463.32	440.02
463.50	449.38
463.68	505.56
463.86	449.38
464.05	571.09
464.23	477.47
464.41	449.38
464.59	479.81
464.78	552.37
464.96	400.23
465.14	479.81
465.32	465.77
465.50	517.26
465.69	486.83
465.87	447.04
466.05	489.17
466.23	386.19
466.41	440.02
466.60	500.87
466.78	599.18
466.96	517.26
467.14	470.45
467.32	463.43
467.51	517.26
467.69	472.79
467.87	493.85
468.05	418.96
468.23	491.51
468.41	440.02
468.60	503.22
468.78	449.38
468.96	430.66
469.14	430.66
469.32	358.10
469.50	423.64
469.69	386.19
469.87	362.78
470.05	393.21
470.23	360.44
470.41	414.27
470.59	402.57
470.77	463.43
470.95	383.85
471.14	440.02
471.32	414.27
471.50	538.32
471.68	510.24
471.86	468.11
472.04	397.89
472.22	449.38
472.40	458.74
472.58	395.55
472.77	414.27
472.95	442.36
473.13	505.56
473.31	545.34
473.49	510.24
473.67	496.19
473.85	489.17
474.03	477.47
474.21	414.27
474.39	550.03
474.57	538.32
474.75	493.85
474.93	397.89
475.12	383.85
475.30	447.04
475.48	550.03
475.66	407.25
475.84	465.77
476.02	468.11
476.20	463.43
476.38	449.38
476.56	486.83
476.74	470.45
476.92	482.15
477.10	486.83
477.28	442.36
477.46	479.81
477.64	554.71
477.82	486.83
478.00	493.85
478.18	538.32
478.36	582.79
478.54	528.96
478.72	543.00
478.90	533.64
479.08	531.30
479.26	641.31
479.44	629.60
479.62	573.43
479.80	631.94
479.98	613.22
480.16	634.29
480.34	793.44
480.52	681.10
480.70	678.76
480.88	741.95
481.06	786.42
481.24	826.21
481.41	826.21
481.59	840.25
481.77	976.00
481.95	915.15
482.13	1235.80
482.31	1097.71
482.49	1207.72
482.67	1329.42
482.85	1338.79
483.03	1472.20
483.21	1561.14
483.39	1715.61
483.57	1701.57
483.74	1851.36
483.92	2001.16
484.10	2052.65
484.28	2202.44
484.46	2328.83
484.64	2457.56
484.82	2560.55
485.00	2658.85
485.18	2818.00
485.35	2928.01
485.53	3208.87
485.71	3297.81
485.89	3386.76
486.07	3440.59
486.25	3679.32
486.43	3754.22
486.61	3611.45
486.78	3499.10
486.96	3555.27
487.14	3623.15
487.32	3611.45
487.50	3499.10
487.68	3543.57
487.85	3473.36
488.03	3412.50
488.21	3365.69
488.39	3307.18
488.57	3201.85
488.75	3131.64
488.92	3323.56
489.10	3084.83
489.28	3047.38
489.46	2895.24
489.64	2794.60
489.81	2796.94
489.99	2581.61
490.17	2782.90
490.35	2731.41
490.53	2719.70
490.70	2719.70
490.88	2747.79
491.06	2827.37
491.24	2991.20
491.41	3068.44
491.59	3054.40
491.77	2691.62
491.95	2649.49
492.13	2382.67
492.30	2427.14
492.48	2354.58
492.66	2487.99
492.84	2396.71
493.01	2361.60
493.19	2296.07
493.37	2366.28
493.54	2340.54
493.72	2174.36
493.90	2162.66
494.08	2132.23
494.25	2207.13
494.43	2104.14
494.61	2078.40
494.79	1970.73
494.96	1961.37
495.14	2019.88
495.32	1984.77
495.49	1905.20
495.67	1900.52
495.85	1849.02
496.02	1717.95
496.20	1832.64
496.38	1736.68
496.55	1739.02
496.73	1661.78
496.91	1589.22
497.09	1647.74
497.26	1748.38
497.44	1633.69
497.62	1572.84
497.79	1544.75
497.97	1486.24
498.14	1453.47
498.32	1493.26
498.50	1416.02
498.67	1390.28
498.85	1394.96
499.03	1282.61
499.20	1280.27
499.38	1184.31
499.56	1317.72
499.73	1217.08
499.91	1181.97
500.08	1203.04
500.26	1109.41
500.44	1093.03
500.61	1076.65
500.79	1104.73
500.97	957.28
501.14	870.68
501.32	919.83
501.49	938.55
501.67	908.13
501.84	929.19
502.02	901.11
502.20	901.11
502.37	929.19
502.55	798.12
502.72	772.38
502.90	814.51
503.07	660.03
503.25	760.67
503.43	678.76
503.60	753.65
503.78	650.67
503.95	631.94
504.13	624.92
504.30	688.12
504.48	725.57
504.65	734.93
504.83	685.78
505.01	608.54
505.18	622.58
505.36	610.88
505.53	613.22
505.71	676.41
505.88	608.54
506.06	580.45
506.23	566.41
506.41	496.19
506.58	554.71
506.76	610.88
506.93	486.83
507.11	578.11
507.28	425.98
507.46	437.68
507.63	550.03
507.81	440.02
507.98	557.05
508.16	493.85
508.33	468.11
508.50	510.24
508.68	514.92
508.85	587.47
509.03	601.52
509.20	531.30
509.38	606.20
509.55	498.53
509.73	543.00
509.90	451.72
510.08	489.17
510.25	484.49
510.42	486.83
510.60	496.19
510.77	503.22
510.95	491.51
511.12	407.25
511.30	482.15
511.47	561.73
511.64	510.24
511.82	451.72
511.99	411.93
512.17	437.68
512.34	404.91
512.51	423.64
512.69	463.43
512.86	475.13
513.04	425.98
513.21	437.68
513.38	393.21
513.56	454.06
513.73	355.76
513.90	386.19
514.08	425.98
514.25	479.81
514.43	400.23
514.60	374.49
514.77	428.32
514.95	395.55
515.12	390.87
515.29	360.44
515.47	365.12
515.64	425.98
515.81	393.21
515.99	433.00
516.16	461.09
516.33	407.25
516.51	416.62
516.68	463.43
516.85	404.91
517.03	449.38
517.20	355.76
517.37	428.32
517.54	421.30
517.72	393.21
517.89	351.08
518.06	360.44
518.24	461.09
518.41	444.70
518.58	475.13
518.75	414.27
518.93	369.80
519.10	351.08
519.27	339.38
519.45	423.64
519.62	369.80
519.79	390.87
519.96	362.78
520.14	477.47
520.31	376.83
520.48	376.83
520.65	369.80
520.83	400.23
521.00	388.53
521.17	311.29
521.34	374.49
521.52	433.00
521.69	318.31
521.86	414.27
522.03	409.59
522.20	376.83
522.38	348.74
522.55	416.62
522.72	376.83
522.89	386.19
523.07	454.06
523.24	332.36
523.41	344.06
523.58	411.93
523.75	388.53
523.92	388.53
524.10	365.12
524.27	416.62
524.44	454.06
524.61	362.78
524.78	372.15
524.96	433.00
525.13	428.32
525.30	414.27
525.47	465.77
525.64	437.68
525.81	489.17
525.98	461.09
526.16	454.06
526.33	430.66
526.50	407.25
526.67	409.59
526.84	390.87
527.01	470.45
527.18	608.54
527.36	557.05
527.53	540.66
527.70	475.13
527.87	519.60
528.04	552.37
528.21	468.11
528.38	470.45
528.55	442.36
528.72	503.22
528.89	479.81
529.07	498.53
529.24	489.17
529.41	610.88
529.58	489.17
529.75	461.09
529.92	561.73
530.09	575.77
530.26	543.00
530.43	526.62
530.60	589.82
530.77	615.56
530.94	641.31
531.11	573.43
531.28	624.92
531.46	601.52
531.63	657.69
531.80	786.42
531.97	737.27
532.14	882.38
532.31	1039.20
532.48	1174.95
532.65	1394.96
532.82	1535.39
532.99	1851.36
533.16	2083.08
533.33	2193.08
533.50	2001.16
533.67	1739.02
533.84	1483.90
534.01	1397.30
534.18	1296.66
534.35	1315.38
534.52	1245.16
534.69	1359.85
534.86	1338.79
535.03	1371.55
535.20	1465.18
535.37	1500.28
535.54	1600.93
535.71	1596.25
535.88	1778.81
536.05	1849.02
536.22	1923.92
536.38	2197.76
536.55	2380.32
536.72	2530.12
536.89	2832.05
537.06	3213.56
537.23	3543.57
537.40	3829.12
537.57	4292.54
537.74	4535.96
537.91	4482.13
538.08	4884.70
538.25	4884.70
538.42	4826.18
538.59	4999.38
538.75	4987.68
538.92	5284.93
539.09	5764.74
539.26	6464.56
539.43	7255.66
539.60	8341.67
539.77	9312.99
539.94	10516.03
540.11	11705.02
540.28	12919.76
540.44	14242.16
540.61	15662.86
540.78	17881.69
540.95	21291.85
541.12	25619.50
541.29	29509.47
541.46	30836.56
541.62	30246.74
541.79	29139.67
541.96	27435.76
542.13	25132.67
542.30	23627.71
542.47	22295.94
542.63	20936.09
542.80	20049.03
542.97	19882.85
543.14	19896.89
543.31	19847.74
543.48	20072.43
543.64	20252.66
543.81	20088.82
543.98	20512.46
544.15	20688.00
544.32	20549.90
544.48	20666.93
544.65	20456.28
544.82	20563.95
544.99	20418.83
545.16	20760.55
545.32	21675.70
545.49	33661.58
545.66	56025.40
545.83	64629.21
546.00	61556.09
546.16	49556.16
546.33	36439.80
546.50	27131.49
546.67	21142.06
546.83	18623.64
547.00	17949.57
547.17	17383.16
547.34	16243.32
547.50	15475.62
547.67	15204.12
547.84	14471.53
548.00	14143.86
548.17	13371.48
548.34	13083.59
548.51	12468.03
548.67	11943.75
548.84	11403.09
549.01	10516.03
549.18	10143.88
549.34	9785.78
549.51	9570.45
549.68	9294.27
549.84	8870.63
550.01	8571.04
550.18	8102.93
550.34	7597.38
550.51	7255.66
550.68	7075.44
550.84	6384.98
551.01	6335.83
551.18	5935.60
551.34	5556.43
551.51	5329.40
551.68	5071.94
551.84	4990.02
552.01	4692.77
552.18	4610.86
552.34	4468.08
552.51	4109.98
552.68	4023.38
552.84	3838.48
553.01	3735.50
553.18	3480.38
553.34	3339.94
553.51	3375.05
553.67	3295.47
553.84	3187.81
554.01	2967.80
554.17	2759.49
554.34	2630.76
554.51	2492.67
554.67	2359.26
554.84	2195.42
555.00	2132.23
555.17	1970.73
555.33	1970.73
555.50	1923.92
555.67	1755.40
555.83	1640.72
556.00	1568.16
556.16	1727.32
556.33	1516.67
556.50	1476.88
556.66	1432.41
556.83	1334.11
556.99	1341.13
557.16	1315.38
557.32	1352.83
557.49	1212.40
557.65	1125.80
557.82	1273.25
557.98	1125.80
558.15	947.92
558.32	1004.09
558.48	992.39
558.65	1025.15
558.81	1036.86
558.98	971.32
559.14	983.02
559.31	964.30
559.47	936.21
559.64	926.85
559.80	961.96
559.97	973.66
560.13	917.49
560.30	868.34
560.46	837.91
560.63	833.23
560.79	894.08
560.96	929.19
561.12	861.32
561.29	866.00
561.45	844.93
561.61	905.79
561.78	901.11
561.94	912.81
562.11	826.21
562.27	798.12
562.44	816.85
562.60	894.08
562.77	833.23
562.93	873.02
563.10	833.23
563.26	753.65
563.42	699.82
563.59	793.44
563.75	741.95
563.92	772.38
564.08	704.50
564.24	753.65
564.41	758.33
564.57	725.57
564.74	723.23
564.90	746.63
565.07	615.56
565.23	634.29
565.39	648.33
565.56	622.58
565.72	744.29
565.88	636.63
566.05	645.99
566.21	629.60
566.38	660.03
566.54	660.03
566.70	699.82
566.87	828.55
567.03	643.65
567.19	669.39
567.36	645.99
567.52	669.39
567.68	671.73
567.85	664.71
568.01	737.27
568.17	709.18
568.34	615.56
568.50	741.95
568.66	645.99
568.83	730.25
568.99	709.18
569.15	739.61
569.32	648.33
569.48	620.24
569.64	594.50
569.81	615.56
569.97	606.20
570.13	561.73
570.30	512.58
570.46	493.85
570.62	533.64
570.78	486.83
570.95	491.51
571.11	503.22
571.27	514.92
571.43	454.06
571.60	442.36
571.76	486.83
571.92	440.02
572.09	498.53
572.25	561.73
572.41	519.60
572.57	514.92
572.74	554.71
572.90	528.96
573.06	440.02
573.22	564.07
573.38	575.77
573.55	540.66
573.71	627.26
573.87	599.18
574.03	552.37
574.20	610.88
574.36	685.78
574.52	545.34
574.68	582.79
574.84	688.12
575.01	760.67
575.17	751.31
575.33	755.99
575.49	837.91
575.65	760.67
575.82	870.68
575.98	999.41
576.14	1153.88
576.30	2094.78
576.46	6310.08
576.62	12762.94
576.79	15672.23
576.95	11337.56
577.11	7063.74
577.27	4807.46
577.43	3241.64
577.59	2057.33
577.75	1675.82
577.92	1497.94
578.08	1493.26
578.24	1605.61
578.40	2354.58
578.56	6090.07
578.72	12063.12
578.88	13963.64
579.04	10382.62
579.21	6832.02
579.37	5062.58
579.53	3964.87
579.69	3616.13
579.85	4381.48
580.01	5266.21
580.17	5074.28
580.33	4461.06
580.49	3873.59
580.65	3449.95
580.82	2965.46
580.98	2967.80
581.14	2895.24
581.30	3234.62
581.46	3349.31
581.62	3639.53
581.78	3801.03
581.94	4212.96
582.10	4306.59
582.26	4648.30
582.42	4770.01
582.58	4854.27
582.74	5116.41
582.90	4947.89
583.06	5235.78
583.22	5200.67
583.38	5144.50
583.54	5151.52
583.70	4975.98
583.86	5078.96
584.02	4896.40
584.18	4908.10
584.34	4877.68
584.50	4784.06
584.66	4552.34
584.82	4599.15
584.98	4542.98
585.14	4524.26
585.30	4421.27
585.46	4276.16
585.62	4271.48
585.78	4334.67
585.94	4273.82
586.10	4320.63
586.26	4615.54
586.42	5130.45
586.58	6204.76
586.74	7487.37
586.90	9334.06
587.06	10132.18
587.22	10005.79
587.38	9146.81
587.54	7857.18
587.70	6553.50
587.86	5628.99
588.02	4828.53
588.18	4191.90
588.34	3878.27
588.49	3393.78
588.65	3269.73
588.81	3220.58
588.97	2972.48
589.13	2801.62
589.29	2904.60
589.45	2614.38
589.61	2899.92
589.77	2801.62
589.93	2902.26
590.08	3042.70
590.24	2937.37
590.40	3108.23
590.56	3211.22
590.72	3262.71
590.88	3379.73
591.04	3536.55
591.20	3602.08
591.35	3712.09
591.51	3927.42
591.67	3988.27
591.83	4397.87
591.99	4631.92
592.15	4961.94
592.31	5401.96
592.46	6015.18
592.62	6588.61
592.78	6960.75
592.94	7152.68
593.10	7112.89
593.26	6834.36
593.41	6202.42
593.57	5898.15
593.73	5076.62
593.89	4329.99
594.05	4016.36
594.20	3592.72
594.36	3300.16
594.52	3002.91
594.68	2850.77
594.84	2754.81
594.99	2745.45
595.15	2581.61
595.31	2679.91
595.47	2623.74
595.62	2466.92
595.78	2478.63
595.94	2539.48
596.10	2530.12
596.25	2665.87
596.41	2597.99
596.57	2427.14
596.73	2511.39
596.88	2551.18
597.04	2583.95
597.20	2612.04
597.36	2686.94
597.51	2654.17
597.67	2782.90
597.83	2818.00
597.99	3042.70
598.14	3241.64
598.30	3400.80
598.46	3620.81
598.61	3761.24
598.77	3836.14
598.93	4105.30
599.09	4428.29
599.24	4266.80
599.40	4344.03
599.56	4236.37
599.71	3985.93
599.87	3913.38
600.03	3578.68
600.18	3190.15
600.34	3108.23
600.50	2932.69
600.65	2672.89
600.81	2696.30
600.97	2487.99
601.12	2361.60
601.28	2244.57
601.44	2263.30
601.59	2047.97
601.75	1956.69
601.91	1870.09
602.06	1839.66
602.22	1781.15
602.37	1699.23
602.53	1729.66
602.69	1825.62
602.84	1603.27
603.00	1771.79
603.16	1760.08
603.31	1736.68
603.47	1811.57
603.62	1724.97
603.78	1895.83
603.94	1809.23
604.09	1891.15
604.25	1970.73
604.40	2097.12
604.56	1893.49
604.71	1984.77
604.87	2069.03
605.03	2080.74
605.18	2085.42
605.34	2167.34
605.49	2195.42
605.65	2188.40
605.80	2270.32
605.96	2363.94
606.12	2495.01
606.27	2661.19
606.43	2628.42
606.58	2836.73
606.74	2888.22
606.89	3049.72
607.05	3211.22
607.20	3440.59
607.36	3632.51
607.51	3695.71
607.67	3871.25
607.82	4269.14
607.98	4531.28
608.13	4812.14
608.29	5369.19
608.44	5837.30
608.60	6193.06
608.75	6839.05
608.91	7531.84
609.06	7962.50
609.22	8777.01
609.37	9870.04
609.53	11005.20
609.68	12409.52
609.84	14246.84
609.99	16573.33
610.15	19789.23
610.30	24503.07
610.46	31302.32
610.61	40236.15
610.76	49481.27
610.92	56135.41
611.07	59468.33
611.23	60580.09
611.38	59426.20
611.54	56537.98
611.69	51463.70
611.84	44708.91
612.00	37544.53
612.15	31562.12
612.31	27218.09
612.46	23789.20
612.62	22302.96
612.77	21156.10
612.92	19948.39
613.08	18817.91
613.23	17877.01
613.39	16746.53
613.54	16224.59
613.69	16046.71
613.85	15950.75
614.00	16156.72
614.15	16142.67
614.31	15438.17
614.46	15220.50
614.62	14834.32
614.77	14031.51
614.92	13153.81
615.08	12182.49
615.23	11279.04
615.38	10567.52
615.54	9394.91
615.69	8702.11
615.84	8035.06
616.00	7468.65
616.15	7012.24
616.30	6602.65
616.46	6001.13
616.61	5575.16
616.76	5420.68
616.92	5184.29
617.07	4877.68
617.22	4557.02
617.37	4430.63
617.53	4156.79
617.68	3936.78
617.83	4011.68
617.99	3726.13
618.14	3616.13
618.29	3583.36
618.45	3503.78
618.60	3325.90
618.75	3358.67
618.90	3426.54
619.06	3330.58
619.21	3370.37
619.36	3311.86
619.51	3225.26
619.67	3276.75
619.82	3243.98
619.97	3290.79
620.12	3346.97
620.28	3384.41
620.43	3398.46
620.58	3581.02
620.73	3522.51
620.89	3548.25
621.04	3665.28
621.19	3672.30
621.34	3489.74
621.49	3487.40
621.65	3410.16
621.80	3281.43
621.95	3365.69
622.10	3351.65
622.25	3281.43
622.41	3412.50
622.56	3403.14
622.71	3515.48
622.86	3548.25
623.01	3744.86
623.16	3768.26
623.32	3854.86
623.47	3812.73
623.62	3824.44
623.77	3768.26
623.92	3751.88
624.07	3723.79
624.23	3847.84
624.38	3653.58
624.53	3929.76
624.68	3747.20
624.83	3859.54
624.98	3925.08
625.13	4023.38
625.29	3899.33
625.44	3843.16
625.59	3918.06
625.74	3920.40
625.89	3922.74
626.04	4030.40
626.19	3854.86
626.34	3887.63
626.49	4021.04
626.65	3920.40
626.80	3672.30
626.95	3758.90
627.10	3852.52
627.25	3602.08
627.40	3641.87
627.55	3637.19
627.70	3562.30
627.85	3424.20
628.00	3337.60
628.15	3520.17
628.30	3414.84
628.45	3370.37
628.60	3412.50
628.76	3480.38
628.91	3466.33
629.06	3449.95
629.21	3583.36
629.36	3662.94
629.51	3819.75
629.66	3997.64
629.81	4236.37
629.96	4746.61
630.11	5074.28
630.26	5636.01
630.41	6061.99
630.56	6817.98
630.71	7204.17
630.86	7700.36
631.01	7503.76
631.16	6918.62
631.31	6270.30
631.46	5298.97
631.61	4489.15
631.76	3791.67
631.91	3030.99
632.06	2691.62
632.21	2373.30
632.36	2120.53
632.51	1769.44
632.66	1659.44
632.81	1626.67
632.96	1392.62
633.10	1427.73
633.25	1341.13
633.40	1371.55
633.55	1132.82
633.70	1188.99
633.85	1144.52
634.00	1069.62
634.15	1090.69
634.30	1011.11
634.45	966.64
634.60	971.32
634.75	933.87
634.90	1095.37
635.05	1022.81
635.19	912.81
635.34	947.92
635.49	1022.81
635.64	894.08
635.79	861.32
635.94	828.55
636.09	976.00
636.24	889.40
636.39	863.66
636.53	828.55
636.68	798.12
636.83	866.00
636.98	880.04
637.13	793.44
637.28	809.83
637.43	882.38
637.57	826.21
637.72	840.25
637.87	767.70
638.02	634.29
638.17	737.27
638.32	718.54
638.46	744.29
638.61	805.14
638.76	748.97
638.91	798.12
639.06	674.07
639.20	727.91
639.35	681.10
639.50	704.50
639.65	704.50
639.80	718.54
639.94	718.54
640.09	681.10
640.24	627.26
640.39	678.76
640.54	650.67
640.68	716.20
640.83	655.35
640.98	660.03
641.13	660.03
641.27	699.82
641.42	624.92
641.57	676.41
641.72	648.33
641.86	655.35
642.01	699.82
642.16	615.56
642.31	662.37
642.45	667.05
642.60	748.97
642.75	606.20
642.90	767.70
643.04	587.47
643.19	641.31
643.34	650.67
643.48	678.76
643.63	662.37
643.78	683.44
643.93	641.31
644.07	732.59
644.22	627.26
644.37	580.45
644.51	631.94
644.66	713.86
644.81	716.20
644.95	720.88
645.10	582.79
645.25	589.82
645.39	676.41
645.54	631.94
645.69	585.13
645.83	667.05
645.98	702.16
646.13	622.58
646.27	678.76
646.42	568.75
646.57	624.92
646.71	655.35
646.86	657.69
647.00	620.24
647.15	568.75
647.30	559.39
647.44	608.54
647.59	603.86
647.74	545.34
647.88	624.92
648.03	524.28
648.17	674.07
648.32	634.29
648.47	615.56
648.61	643.65
648.76	692.80
648.90	697.48
649.05	669.39
649.20	844.93
649.34	894.08
649.49	940.90
649.63	1015.79
649.78	1104.73
649.92	1483.90
650.07	1799.87
650.21	1825.62
650.36	2087.76
650.51	1961.37
650.65	1963.71
650.80	1776.47
650.94	1582.20
651.09	1418.36
651.23	1270.91
651.38	1214.74
651.52	1062.60
651.67	936.21
651.81	800.46
651.96	833.23
652.10	809.83
652.25	781.74
652.39	884.72
652.54	873.02
652.68	917.49
652.83	978.34
652.97	1069.62
653.12	1074.31
653.26	1060.26
653.41	1050.90
653.55	926.85
653.70	896.43
653.84	901.11
653.99	793.44
654.13	709.18
654.27	711.52
654.42	676.41
654.56	688.12
654.71	711.52
654.85	638.97
655.00	566.41
655.14	676.41
655.29	622.58
655.43	674.07
655.57	734.93
655.72	519.60
655.86	601.52
656.01	596.84
656.15	568.75
656.30	645.99
656.44	601.52
656.58	606.20
656.73	629.60
656.87	580.45
657.01	631.94
657.16	734.93
657.30	699.82
657.45	781.74
657.59	748.97
657.73	730.25
657.88	718.54
658.02	788.76
658.16	613.22
658.31	634.29
658.45	613.22
658.60	503.22
658.74	496.19
658.88	440.02
659.03	458.74
659.17	470.45
659.31	484.49
659.46	414.27
659.60	479.81
659.74	468.11
659.89	498.53
660.03	465.77
660.17	514.92
660.32	458.74
660.46	461.09
660.60	360.44
660.74	500.87
660.89	437.68
661.03	477.47
661.17	512.58
661.32	599.18
661.46	599.18
661.60	767.70
661.74	891.74
661.89	985.37
662.03	1158.57
662.17	1128.14
662.31	1231.12
662.46	1224.10
662.60	1207.72
662.74	1078.99
662.88	966.64
663.03	931.53
663.17	695.14
663.31	760.67
663.45	814.51
663.60	671.73
663.74	596.84
663.88	566.41
664.02	463.43
664.17	547.69
664.31	510.24
664.45	528.96
664.59	496.19
664.73	486.83
664.88	458.74
665.02	402.57
665.16	484.49
665.30	491.51
665.44	411.93
665.59	517.26
665.73	454.06
665.87	444.70
666.01	395.55
666.15	397.89
666.29	358.10
666.44	465.77
666.58	458.74
666.72	428.32
666.86	463.43
667.00	435.34
667.14	386.19
667.28	414.27
667.43	479.81
667.57	444.70
667.71	440.02
667.85	425.98
667.99	454.06
668.13	470.45
668.27	437.68
668.41	437.68
668.56	397.89
668.70	437.68
668.84	402.57
668.98	400.23
669.12	421.30
669.26	458.74
669.40	500.87
669.54	404.91
669.68	414.27
669.82	409.59
669.96	407.25
670.10	388.53
670.25	433.00
670.39	383.85
670.53	386.19
670.67	388.53
670.81	334.70
670.95	365.12
671.09	379.17
671.23	500.87
671.37	447.04
671.51	414.27
671.65	409.59
671.79	400.23
671.93	463.43
672.07	411.93
672.21	353.42
672.35	322.99
672.49	414.27
672.63	390.87
672.77	369.80
672.91	353.42
673.05	360.44
673.19	381.51
673.33	273.84
673.47	372.15
673.61	374.49
673.75	332.36
673.89	318.31
674.03	327.68
674.17	344.06
674.31	369.80
674.45	390.87
674.59	315.97
674.73	301.93
674.87	365.12
675.01	353.42
675.15	248.10
675.29	318.31
675.43	332.36
675.56	414.27
675.70	306.61
675.84	313.63
675.98	306.61
676.12	255.12
676.26	381.51
676.40	358.10
676.54	367.46
676.68	322.99
676.82	276.18
676.96	320.65
677.10	299.59
677.23	374.49
677.37	311.29
677.51	276.18
677.65	383.85
677.79	297.25
677.93	341.72
678.07	280.86
678.21	250.44
678.34	313.63
678.48	299.59
678.62	344.06
678.76	372.15
678.90	330.02
679.04	278.52
679.18	306.61
679.31	257.46
679.45	332.36
679.59	306.61
679.73	367.46
679.87	301.93
680.00	327.68
680.14	355.76
680.28	337.04
680.42	304.27
680.56	283.20
680.70	297.25
680.83	372.15
680.97	290.23
681.11	386.19
681.25	325.33
681.39	318.31
681.52	383.85
681.66	351.08
681.80	372.15
681.94	318.31
682.07	250.44
682.21	318.31
682.35	355.76
682.49	322.99
682.62	322.99
682.76	269.16
682.90	367.46
683.04	304.27
683.17	259.80
683.31	308.95
683.45	257.46
683.59	346.40
683.72	278.52
683.86	325.33
684.00	339.38
684.13	390.87
684.27	264.48
684.41	231.71
684.55	276.18
684.68	351.08
684.82	404.91
684.96	285.55
685.09	362.78
685.23	234.05
685.37	353.42
685.50	346.40
685.64	353.42
685.78	318.31
685.91	355.76
686.05	381.51
686.19	358.10
686.32	344.06
686.46	425.98
686.60	435.34
686.73	461.09
686.87	505.56
687.01	547.69
687.14	564.07
687.28	610.88
687.42	669.39
687.55	645.99
687.69	716.20
687.82	657.69
687.96	674.07
688.10	662.37
688.23	650.67
688.37	648.33
688.50	589.82
688.64	531.30
688.78	472.79
688.91	409.59
689.05	409.59
689.18	414.27
689.32	444.70
689.46	313.63
689.59	348.74
689.73	278.52
689.86	257.46
690.00	280.86
690.13	280.86
690.27	318.31
690.41	241.08
690.54	376.83
690.68	327.68
690.81	358.10
690.95	264.48
691.08	311.29
691.22	212.99
691.35	236.39
691.49	194.26
691.62	220.01
691.76	187.24
691.89	224.69
692.03	156.82
692.16	241.08
692.30	224.69
692.43	222.35
692.57	236.39
692.70	264.48
692.84	318.31
692.97	173.20
693.11	299.59
693.24	414.27
693.38	369.80
693.51	547.69
693.65	624.92
693.78	550.03
693.92	580.45
694.05	580.45
694.19	435.34
694.32	348.74
694.45	353.42
694.59	320.65
694.72	177.88
694.86	255.12
694.99	273.84
695.13	81.92
695.26	191.92
695.39	276.18
695.53	227.03
695.66	234.05
695.80	222.35
695.93	152.13
696.07	147.45
696.20	180.22
696.33	184.90
696.47	238.73
696.60	191.92
696.73	257.46
696.87	229.37
697.00	273.84
697.14	234.05
697.27	187.24
697.40	266.82
697.54	224.69
697.67	140.43
697.80	194.26
697.94	110.01
698.07	194.26
698.21	140.43
698.34	234.05
698.47	117.03
698.61	145.11
698.74	182.56
698.87	224.69
699.01	180.22
699.14	147.45
699.27	147.45
699.40	280.86
699.54	224.69
699.67	163.84
699.80	159.16
699.94	217.67
700.07	110.01
700.20	187.24
700.34	117.03
700.47	187.24
700.60	187.24
700.73	215.33
700.87	257.46
701.00	133.41
701.13	191.92
701.26	102.98
701.40	180.22
701.53	159.16
701.66	161.50
701.79	135.75
701.93	194.26
702.06	245.76
702.19	201.29
702.32	203.63
702.46	210.65
702.59	224.69
702.72	196.60
702.85	231.71
702.99	283.20
703.12	245.76
703.25	255.12
703.38	154.48
703.51	297.25
703.65	250.44
703.78	257.46
703.91	290.23
704.04	243.42
704.17	269.16
704.31	266.82
704.44	287.89
704.57	280.86
704.70	278.52
704.83	287.89
704.96	299.59
705.10	334.70
705.23	332.36
>>>>>End Processed Spectral Data<<<<<
