SpectraSuite Data File
++++++++++++++++++++++++++++++++++++
Date: Fri Oct 04 11:41:44 GMT-05:00 2013
User: price-jones
Dark Spectrum Present: No
Reference Spectrum Present: No
Number of Sampled Component Spectra: 1
Spectrometers: USB2+H05261
Integration Time (usec): 100000 (USB2+H05261)
Spectra Averaged: 1 (USB2+H05261)
Boxcar Smoothing: 0 (USB2+H05261)
Correct for Electrical Dark: No (USB2+H05261)
Strobe/Lamp Enabled: No (USB2+H05261)
Correct for Detector Non-linearity: No (USB2+H05261)
Correct for Stray Light: No (USB2+H05261)
Number of Pixels in Processed Spectrum: 2048
>>>>>Begin Processed Spectral Data<<<<<
365.73	35.11
365.92	35.11
366.12	35.11
366.32	0.00
366.52	0.00
366.72	0.00
366.91	0.00
367.11	0.00
367.31	0.00
367.51	0.00
367.70	0.00
367.90	0.00
368.10	0.00
368.30	0.00
368.49	0.00
368.69	0.00
368.89	0.00
369.09	0.00
369.28	0.00
369.48	0.00
369.68	0.00
369.87	16.38
370.07	0.00
370.27	35.11
370.47	14.04
370.66	0.00
370.86	88.94
371.06	56.17
371.25	112.35
371.45	114.69
371.65	81.92
371.84	74.90
372.04	53.83
372.24	16.38
372.44	88.94
372.63	42.13
372.83	121.71
373.03	95.96
373.22	177.88
373.42	142.77
373.62	145.11
373.81	175.54
374.01	142.77
374.21	88.94
374.40	154.48
374.60	110.01
374.79	70.22
374.99	114.69
375.19	154.48
375.38	142.77
375.58	121.71
375.78	168.52
375.97	91.28
376.17	182.56
376.37	124.05
376.56	131.07
376.76	124.05
376.95	124.05
377.15	205.97
377.35	88.94
377.54	124.05
377.74	191.92
377.93	161.50
378.13	133.41
378.33	163.84
378.52	88.94
378.72	105.32
378.91	133.41
379.11	105.32
379.31	77.24
379.50	131.07
379.70	124.05
379.89	140.43
380.09	145.11
380.28	140.43
380.48	149.79
380.68	126.39
380.87	77.24
381.07	175.54
381.26	156.82
381.46	138.09
381.65	65.54
381.85	84.26
382.04	117.03
382.24	173.20
382.43	142.77
382.63	154.48
382.83	79.58
383.02	149.79
383.22	35.11
383.41	117.03
383.61	142.77
383.80	42.13
384.00	145.11
384.19	95.96
384.39	60.85
384.58	98.30
384.78	105.32
384.97	131.07
385.17	173.20
385.36	93.62
385.56	147.45
385.75	91.28
385.95	114.69
386.14	262.14
386.34	102.98
386.53	121.71
386.72	142.77
386.92	142.77
387.11	121.71
387.31	126.39
387.50	70.22
387.70	102.98
387.89	152.13
388.09	81.92
388.28	77.24
388.48	84.26
388.67	105.32
388.86	175.54
389.06	100.64
389.25	187.24
389.45	53.83
389.64	145.11
389.84	191.92
390.03	102.98
390.22	79.58
390.42	126.39
390.61	154.48
390.81	145.11
391.00	180.22
391.19	177.88
391.39	98.30
391.58	142.77
391.78	102.98
391.97	63.19
392.16	124.05
392.36	177.88
392.55	156.82
392.75	107.66
392.94	112.35
393.13	107.66
393.33	159.16
393.52	126.39
393.71	112.35
393.91	154.48
394.10	107.66
394.29	140.43
394.49	124.05
394.68	102.98
394.88	170.86
395.07	65.54
395.26	161.50
395.46	72.56
395.65	93.62
395.84	119.37
396.04	220.01
396.23	88.94
396.42	58.51
396.62	91.28
396.81	121.71
397.00	112.35
397.19	119.37
397.39	114.69
397.58	245.76
397.77	128.73
397.97	117.03
398.16	177.88
398.35	224.69
398.55	79.58
398.74	117.03
398.93	191.92
399.12	149.79
399.32	84.26
399.51	191.92
399.70	138.09
399.90	177.88
400.09	124.05
400.28	170.86
400.47	124.05
400.67	149.79
400.86	238.73
401.05	173.20
401.24	173.20
401.44	138.09
401.63	133.41
401.82	142.77
402.01	161.50
402.21	182.56
402.40	163.84
402.59	241.08
402.78	201.29
402.97	217.67
403.17	203.63
403.36	297.25
403.55	416.62
403.74	760.67
403.93	2370.96
404.13	5624.31
404.32	9200.65
404.51	9977.70
404.70	6207.10
404.89	2167.34
405.09	753.65
405.28	313.63
405.47	283.20
405.66	250.44
405.85	255.12
406.05	166.18
406.24	161.50
406.43	222.35
406.62	196.60
406.81	301.93
407.00	294.91
407.20	695.14
407.39	1207.72
407.58	1472.20
407.77	1121.12
407.96	568.75
408.15	224.69
408.34	131.07
408.54	222.35
408.73	156.82
408.92	255.12
409.11	203.63
409.30	187.24
409.49	198.95
409.68	161.50
409.87	180.22
410.07	173.20
410.26	259.80
410.45	154.48
410.64	208.31
410.83	217.67
411.02	231.71
411.21	198.95
411.40	238.73
411.59	231.71
411.78	245.76
411.98	212.99
412.17	236.39
412.36	182.56
412.55	259.80
412.74	205.97
412.93	241.08
413.12	212.99
413.31	301.93
413.50	229.37
413.69	257.46
413.88	299.59
414.07	266.82
414.26	234.05
414.45	278.52
414.64	287.89
414.83	215.33
415.02	241.08
415.22	332.36
415.41	287.89
415.60	264.48
415.79	252.78
415.98	250.44
416.17	283.20
416.36	234.05
416.55	294.91
416.74	264.48
416.93	238.73
417.12	344.06
417.31	308.95
417.50	294.91
417.69	388.53
417.88	273.84
418.07	273.84
418.26	271.50
418.45	229.37
418.64	327.68
418.83	276.18
419.02	311.29
419.21	250.44
419.39	318.31
419.58	297.25
419.77	301.93
419.96	339.38
420.15	360.44
420.34	315.97
420.53	269.16
420.72	271.50
420.91	337.04
421.10	308.95
421.29	304.27
421.48	395.55
421.67	346.40
421.86	388.53
422.05	313.63
422.24	423.64
422.43	330.02
422.61	318.31
422.80	339.38
422.99	360.44
423.18	355.76
423.37	294.91
423.56	407.25
423.75	376.83
423.94	383.85
424.13	393.21
424.32	264.48
424.50	376.83
424.69	390.87
424.88	334.70
425.07	348.74
425.26	372.15
425.45	294.91
425.64	444.70
425.83	435.34
426.01	411.93
426.20	414.27
426.39	407.25
426.58	358.10
426.77	365.12
426.96	461.09
427.15	414.27
427.33	341.72
427.52	386.19
427.71	374.49
427.90	400.23
428.09	447.04
428.28	393.21
428.46	395.55
428.65	416.62
428.84	449.38
429.03	505.56
429.22	393.21
429.40	404.91
429.59	449.38
429.78	437.68
429.97	430.66
430.16	402.57
430.34	414.27
430.53	390.87
430.72	437.68
430.91	491.51
431.10	533.64
431.28	486.83
431.47	533.64
431.66	547.69
431.85	484.49
432.03	503.22
432.22	433.00
432.41	489.17
432.60	540.66
432.79	580.45
432.97	587.47
433.16	610.88
433.35	699.82
433.54	739.61
433.72	903.45
433.91	854.30
434.10	851.96
434.28	983.02
434.47	1254.53
434.66	1399.64
434.85	1617.31
435.03	3831.46
435.22	13891.08
435.41	35838.28
435.59	48734.63
435.78	34820.15
435.97	16477.37
436.16	6141.57
436.34	1959.03
436.53	1060.26
436.72	875.36
436.90	781.74
437.09	683.44
437.28	688.12
437.46	683.44
437.65	610.88
437.84	662.37
438.02	620.24
438.21	575.77
438.40	596.84
438.58	503.22
438.77	533.64
438.96	566.41
439.14	521.94
439.33	601.52
439.52	613.22
439.70	514.92
439.89	571.09
440.08	552.37
440.26	629.60
440.45	657.69
440.63	550.03
440.82	599.18
441.01	489.17
441.19	550.03
441.38	578.11
441.57	601.52
441.75	631.94
441.94	627.26
442.12	559.39
442.31	643.65
442.50	575.77
442.68	510.24
442.87	624.92
443.05	528.96
443.24	599.18
443.43	592.16
443.61	585.13
443.80	601.52
443.98	557.05
444.17	603.86
444.35	552.37
444.54	554.71
444.73	601.52
444.91	540.66
445.10	533.64
445.28	552.37
445.47	622.58
445.65	624.92
445.84	601.52
446.02	573.43
446.21	592.16
446.39	510.24
446.58	571.09
446.77	554.71
446.95	486.83
447.14	521.94
447.32	566.41
447.51	505.56
447.69	594.50
447.88	559.39
448.06	641.31
448.25	587.47
448.43	519.60
448.62	613.22
448.80	503.22
448.99	596.84
449.17	442.36
449.36	479.81
449.54	566.41
449.73	496.19
449.91	568.75
450.10	559.39
450.28	638.97
450.46	596.84
450.65	660.03
450.83	566.41
451.02	533.64
451.20	566.41
451.39	547.69
451.57	573.43
451.76	566.41
451.94	578.11
452.13	554.71
452.31	571.09
452.49	489.17
452.68	631.94
452.86	528.96
453.05	514.92
453.23	578.11
453.42	578.11
453.60	491.51
453.78	587.47
453.97	465.77
454.15	496.19
454.34	498.53
454.52	573.43
454.70	606.20
454.89	540.66
455.07	589.82
455.26	587.47
455.44	533.64
455.62	557.05
455.81	543.00
455.99	540.66
456.17	514.92
456.36	550.03
456.54	498.53
456.73	512.58
456.91	535.98
457.09	538.32
457.28	573.43
457.46	561.73
457.64	608.54
457.83	554.71
458.01	533.64
458.19	564.07
458.38	538.32
458.56	496.19
458.74	468.11
458.93	648.33
459.11	540.66
459.29	528.96
459.48	533.64
459.66	594.50
459.84	526.62
460.03	610.88
460.21	564.07
460.39	524.28
460.57	559.39
460.76	514.92
460.94	610.88
461.12	608.54
461.31	594.50
461.49	566.41
461.67	594.50
461.85	585.13
462.04	540.66
462.22	657.69
462.40	505.56
462.59	526.62
462.77	491.51
462.95	531.30
463.13	568.75
463.32	528.96
463.50	557.05
463.68	543.00
463.86	498.53
464.05	552.37
464.23	454.06
464.41	571.09
464.59	526.62
464.78	573.43
464.96	547.69
465.14	613.22
465.32	507.90
465.50	505.56
465.69	545.34
465.87	500.87
466.05	587.47
466.23	435.34
466.41	566.41
466.60	578.11
466.78	535.98
466.96	594.50
467.14	564.07
467.32	496.19
467.51	596.84
467.69	550.03
467.87	545.34
468.05	526.62
468.23	566.41
468.41	571.09
468.60	503.22
468.78	423.64
468.96	505.56
469.14	521.94
469.32	521.94
469.50	421.30
469.69	538.32
469.87	496.19
470.05	507.90
470.23	528.96
470.41	503.22
470.59	444.70
470.77	564.07
470.95	498.53
471.14	524.28
471.32	472.79
471.50	517.26
471.68	561.73
471.86	510.24
472.04	428.32
472.22	447.04
472.40	533.64
472.58	517.26
472.77	465.77
472.95	564.07
473.13	573.43
473.31	592.16
473.49	475.13
473.67	533.64
473.85	496.19
474.03	456.40
474.21	505.56
474.39	587.47
474.57	594.50
474.75	573.43
474.93	440.02
475.12	484.49
475.30	486.83
475.48	500.87
475.66	489.17
475.84	521.94
476.02	580.45
476.20	538.32
476.38	535.98
476.56	578.11
476.74	521.94
476.92	540.66
477.10	491.51
477.28	578.11
477.46	496.19
477.64	503.22
477.82	578.11
478.00	461.09
478.18	624.92
478.36	566.41
478.54	575.77
478.72	624.92
478.90	716.20
479.08	596.84
479.26	662.37
479.44	613.22
479.62	723.23
479.80	664.71
479.98	716.20
480.16	760.67
480.34	800.46
480.52	791.10
480.70	786.42
480.88	770.04
481.06	877.70
481.24	1001.75
481.41	1074.31
481.59	1062.60
481.77	1125.80
481.95	1170.27
482.13	1315.38
482.31	1345.81
482.49	1362.19
482.67	1497.94
482.85	1621.99
483.03	1783.49
483.21	1975.41
483.39	2064.35
483.57	2153.29
483.74	2174.36
483.92	2333.51
484.10	2352.24
484.28	2705.66
484.46	2803.96
484.64	2916.31
484.82	2979.50
485.00	3218.24
485.18	3372.71
485.35	3592.72
485.53	3815.07
485.71	3899.33
485.89	4084.23
486.07	4152.11
486.25	4276.16
486.43	4201.26
486.61	4273.82
486.78	4290.20
486.96	4236.37
487.14	4194.24
487.32	4241.05
487.50	4252.75
487.68	4126.36
487.85	3992.95
488.03	4133.39
488.21	4039.76
488.39	3995.29
488.57	3999.98
488.75	3831.46
488.92	4042.11
489.10	3564.64
489.28	3489.74
489.46	3332.92
489.64	3309.52
489.81	3501.44
489.99	3316.54
490.17	3173.77
490.35	3262.71
490.53	3213.56
490.70	3105.89
490.88	3194.83
491.06	3323.56
491.24	3503.78
491.41	3749.54
491.59	3342.28
491.77	3023.97
491.95	3089.51
492.13	2958.44
492.30	2759.49
492.48	2956.10
492.66	2862.48
492.84	2864.82
493.01	2902.26
493.19	2661.19
493.37	2794.60
493.54	2715.02
493.72	2684.59
493.90	2487.99
494.08	2612.04
494.25	2497.35
494.43	2572.25
494.61	2424.80
494.79	2417.77
494.96	2338.20
495.14	2335.85
495.32	2284.36
495.49	2157.97
495.67	2202.44
495.85	2235.21
496.02	2153.29
496.20	1977.75
496.38	2111.16
496.55	2069.03
496.73	2057.33
496.91	2017.54
497.09	2062.01
497.26	1940.30
497.44	1830.30
497.62	1842.00
497.79	1961.37
497.97	1734.34
498.14	1816.26
498.32	1694.55
498.50	1575.18
498.67	1584.54
498.85	1600.93
499.03	1584.54
499.20	1348.15
499.38	1409.00
499.56	1507.30
499.73	1537.73
499.91	1371.55
500.08	1394.96
500.26	1329.42
500.44	1242.82
500.61	1259.21
500.79	1158.57
500.97	1086.01
501.14	1116.44
501.32	1170.27
501.49	1048.56
501.67	1001.75
501.84	1137.50
502.02	997.07
502.20	964.30
502.37	964.30
502.55	851.96
502.72	882.38
502.90	826.21
503.07	887.06
503.25	901.11
503.43	786.42
503.60	758.33
503.78	765.36
503.95	844.93
504.13	730.25
504.30	725.57
504.48	819.19
504.65	816.85
504.83	737.27
505.01	667.05
505.18	695.14
505.36	713.86
505.53	547.69
505.71	704.50
505.88	690.46
506.06	669.39
506.23	599.18
506.41	578.11
506.58	641.31
506.76	664.71
506.93	538.32
507.11	582.79
507.28	538.32
507.46	538.32
507.63	589.82
507.81	514.92
507.98	543.00
508.16	554.71
508.33	547.69
508.50	561.73
508.68	615.56
508.85	608.54
509.03	716.20
509.20	650.67
509.38	580.45
509.55	599.18
509.73	543.00
509.90	475.13
510.08	505.56
510.25	533.64
510.42	587.47
510.60	528.96
510.77	557.05
510.95	571.09
511.12	540.66
511.30	491.51
511.47	524.28
511.64	550.03
511.82	538.32
511.99	557.05
512.17	545.34
512.34	533.64
512.51	479.81
512.69	521.94
512.86	547.69
513.04	461.09
513.21	528.96
513.38	531.30
513.56	479.81
513.73	477.47
513.90	512.58
514.08	514.92
514.25	430.66
514.43	470.45
514.60	503.22
514.77	498.53
514.95	468.11
515.12	362.78
515.29	491.51
515.47	463.43
515.64	524.28
515.81	507.90
515.99	468.11
516.16	514.92
516.33	458.74
516.51	491.51
516.68	512.58
516.85	470.45
517.03	486.83
517.20	374.49
517.37	407.25
517.54	386.19
517.72	456.40
517.89	379.17
518.06	337.04
518.24	456.40
518.41	496.19
518.58	573.43
518.75	395.55
518.93	393.21
519.10	447.04
519.27	421.30
519.45	367.46
519.62	381.51
519.79	421.30
519.96	470.45
520.14	461.09
520.31	411.93
520.48	318.31
520.65	388.53
520.83	372.15
521.00	423.64
521.17	416.62
521.34	418.96
521.52	393.21
521.69	355.76
521.86	386.19
522.03	409.59
522.20	456.40
522.38	397.89
522.55	437.68
522.72	383.85
522.89	456.40
523.07	428.32
523.24	468.11
523.41	402.57
523.58	379.17
523.75	411.93
523.92	435.34
524.10	374.49
524.27	404.91
524.44	372.15
524.61	388.53
524.78	411.93
524.96	484.49
525.13	475.13
525.30	470.45
525.47	472.79
525.64	489.17
525.81	465.77
525.98	479.81
526.16	376.83
526.33	447.04
526.50	397.89
526.67	442.36
526.84	416.62
527.01	491.51
527.18	528.96
527.36	545.34
527.53	575.77
527.70	706.84
527.87	477.47
528.04	599.18
528.21	425.98
528.38	526.62
528.55	573.43
528.72	533.64
528.89	568.75
529.07	514.92
529.24	535.98
529.41	641.31
529.58	507.90
529.75	641.31
529.92	617.90
530.09	531.30
530.26	557.05
530.43	657.69
530.60	641.31
530.77	709.18
530.94	657.69
531.11	678.76
531.28	678.76
531.46	697.48
531.63	784.08
531.80	741.95
531.97	805.14
532.14	922.17
532.31	1121.12
532.48	1324.74
532.65	1582.20
532.82	1724.97
532.99	2132.23
533.16	2513.74
533.33	2640.12
533.50	2389.69
533.67	2106.48
533.84	1788.17
534.01	1474.54
534.18	1390.28
534.35	1413.68
534.52	1387.94
534.69	1502.62
534.86	1650.08
535.03	1575.18
535.20	1645.40
535.37	1811.57
535.54	1764.76
535.71	1907.54
535.88	2066.69
536.05	2146.27
536.22	2387.35
536.38	2443.52
536.55	2675.23
536.72	3075.46
536.89	3426.54
537.06	3929.76
537.23	4196.58
537.40	4636.60
537.57	5029.81
537.74	5373.87
537.91	5570.48
538.08	5659.42
538.25	5783.46
538.42	5998.79
538.59	6073.69
538.75	6148.59
538.92	6504.35
539.09	6932.67
539.26	7953.14
539.43	8968.93
539.60	9977.70
539.77	11433.52
539.94	13006.36
540.11	14115.77
540.28	15690.95
540.44	17167.83
540.61	18892.80
540.78	21626.55
540.95	25659.29
541.12	31545.74
541.29	35688.49
541.46	38188.18
541.62	37773.91
541.79	36404.69
541.96	33647.54
542.13	31728.30
542.30	29244.99
542.47	27157.24
542.63	25635.89
542.80	24545.20
542.97	24383.70
543.14	24542.86
543.31	24489.03
543.48	24467.96
543.64	24900.96
543.81	24702.01
543.98	24917.34
544.15	24994.58
544.32	25596.10
544.48	25289.49
544.65	24947.77
544.82	24355.61
544.99	24772.23
545.16	25247.36
545.32	26214.00
545.49	37968.17
545.66	59281.09
545.83	65535.00
546.00	65535.00
546.16	58658.51
546.33	43576.09
546.50	33312.84
546.67	25860.58
546.83	23051.94
547.00	22305.31
547.17	20872.90
547.34	20011.58
547.50	19538.79
547.67	18689.18
547.84	17626.57
548.00	17188.89
548.17	16376.73
548.34	15477.96
548.51	15227.53
548.67	14806.23
548.84	13846.61
549.01	12968.91
549.18	12461.01
549.34	11749.49
549.51	11323.51
549.68	11077.76
549.84	10600.29
550.01	9989.41
550.18	9668.75
550.34	9303.63
550.51	8767.65
550.68	8554.66
550.84	7833.77
551.01	7517.80
551.18	6925.65
551.34	6672.87
551.51	6452.86
551.68	6307.74
551.84	5921.56
552.01	5640.69
552.18	5628.99
552.34	5327.06
552.51	5081.30
552.68	4873.00
552.84	4627.24
553.01	4479.79
553.18	4362.76
553.34	4168.49
553.51	4124.02
553.67	4119.34
553.84	3875.93
554.01	3597.40
554.17	3339.94
554.34	2984.18
554.51	2899.92
554.67	2806.30
554.84	2628.42
555.00	2445.86
555.17	2420.11
555.33	2190.74
555.50	2186.06
555.67	2052.65
555.83	2010.52
556.00	1860.73
556.16	1935.62
556.33	1895.83
556.50	1767.10
556.66	1671.14
556.83	1596.25
556.99	1554.12
557.16	1483.90
557.32	1383.26
557.49	1434.75
557.65	1432.41
557.82	1453.47
557.98	1322.40
558.15	1210.06
558.32	1203.04
558.48	1158.57
558.65	1181.97
558.81	1179.63
558.98	1064.94
559.14	1156.22
559.31	1132.82
559.47	1102.39
559.64	1128.14
559.80	1095.37
559.97	1050.90
560.13	936.21
560.30	950.26
560.46	1004.09
560.63	1008.77
560.79	983.02
560.96	1020.47
561.12	999.41
561.29	926.85
561.45	943.24
561.61	1004.09
561.78	1020.47
561.94	1027.50
562.11	973.66
562.27	950.26
562.44	908.13
562.60	910.47
562.77	896.43
562.93	968.98
563.10	915.15
563.26	933.87
563.42	898.77
563.59	858.98
563.75	866.00
563.92	847.27
564.08	713.86
564.24	844.93
564.41	793.44
564.57	716.20
564.74	760.67
564.90	847.27
565.07	772.38
565.23	660.03
565.39	667.05
565.56	751.31
565.72	772.38
565.88	734.93
566.05	795.78
566.21	758.33
566.38	706.84
566.54	809.83
566.70	732.59
566.87	786.42
567.03	770.04
567.19	823.87
567.36	772.38
567.52	800.46
567.68	837.91
567.85	814.51
568.01	830.89
568.17	753.65
568.34	851.96
568.50	835.57
568.66	826.21
568.83	798.12
568.99	741.95
569.15	734.93
569.32	667.05
569.48	727.91
569.64	634.29
569.81	627.26
569.97	655.35
570.13	648.33
570.30	648.33
570.46	500.87
570.62	543.00
570.78	566.41
570.95	550.03
571.11	596.84
571.27	554.71
571.43	552.37
571.60	507.90
571.76	526.62
571.92	479.81
572.09	575.77
572.25	547.69
572.41	535.98
572.57	573.43
572.74	580.45
572.90	531.30
573.06	631.94
573.22	606.20
573.38	671.73
573.55	566.41
573.71	599.18
573.87	594.50
574.03	564.07
574.20	620.24
574.36	631.94
574.52	648.33
574.68	751.31
574.84	739.61
575.01	774.72
575.17	784.08
575.33	861.32
575.49	943.24
575.65	1034.52
575.82	1167.93
575.98	1196.01
576.14	1291.98
576.30	2370.96
576.46	7103.53
576.62	14731.33
576.79	20243.29
576.95	14242.16
577.11	8793.39
577.27	6115.82
577.43	4058.49
577.59	2469.27
577.75	1998.82
577.92	1769.44
578.08	1743.70
578.24	1748.38
578.40	2722.04
578.56	6572.22
578.72	13614.90
578.88	19307.08
579.04	13411.27
579.21	8435.29
579.37	6057.31
579.53	4727.88
579.69	4203.60
579.85	5142.16
580.01	6520.73
580.17	6588.61
580.33	5729.63
580.49	4652.98
580.65	4074.87
580.82	3552.93
580.98	3585.70
581.14	3609.11
581.30	3749.54
581.46	4060.83
581.62	4407.23
581.78	4819.16
581.94	5193.65
582.10	5331.74
582.26	5757.72
582.42	5980.07
582.58	6164.97
582.74	6143.91
582.90	6298.38
583.06	6277.32
583.22	6319.45
583.38	6253.91
583.54	6237.53
583.70	6291.36
583.86	6071.35
584.02	6045.60
584.18	6031.56
584.34	5930.92
584.50	5795.17
584.66	5731.97
584.82	5638.35
584.98	5383.23
585.14	5357.49
585.30	5455.79
585.46	5261.52
585.62	5153.86
585.78	5156.20
585.94	5114.07
586.10	5184.29
586.26	5476.85
586.42	6286.68
586.58	7459.29
586.74	9137.45
586.90	11028.60
587.06	12507.82
587.22	12755.92
587.38	11510.75
587.54	9902.81
587.70	8250.39
587.86	6904.58
588.02	5926.24
588.18	5097.69
588.34	4718.52
588.49	4147.43
588.65	3878.27
588.81	3803.37
588.97	3819.75
589.13	3646.55
589.29	3564.64
589.45	3520.17
589.61	3337.60
589.77	3478.04
589.93	3400.80
590.08	3702.73
590.24	3751.88
590.40	3831.46
590.56	4023.38
590.72	4060.83
590.88	4140.41
591.04	4131.05
591.20	4311.27
591.35	4582.77
591.51	4667.03
591.67	4917.47
591.83	5383.23
591.99	5668.78
592.15	6237.53
592.31	6754.79
592.46	7480.35
592.62	8091.23
592.78	8524.23
592.94	8908.08
593.10	9013.40
593.26	8456.36
593.41	7864.20
593.57	6890.54
593.73	6370.94
593.89	5577.50
594.05	4922.15
594.20	4346.37
594.36	4016.36
594.52	3721.45
594.68	3424.20
594.84	3353.99
594.99	3337.60
595.15	3061.42
595.31	3162.06
595.47	3150.36
595.62	3000.57
595.78	3091.85
595.94	3220.58
596.10	3028.65
596.25	3208.87
596.41	3218.24
596.57	2998.23
596.73	3068.44
596.88	2986.52
597.04	3101.21
597.20	2895.24
597.36	3112.91
597.51	3295.47
597.67	3370.37
597.83	3529.53
597.99	3796.35
598.14	3899.33
598.30	4077.21
598.46	4320.63
598.61	4601.49
598.77	4774.69
598.93	5179.61
599.09	5238.12
599.24	5181.95
599.40	5231.10
599.56	5343.44
599.71	4917.47
599.87	4856.61
600.03	4435.32
600.18	4044.45
600.34	3873.59
600.50	3503.78
600.65	3351.65
600.81	3190.15
600.97	2986.52
601.12	2715.02
601.28	2644.81
601.44	2574.59
601.59	2455.22
601.75	2338.20
601.91	2300.75
602.06	2298.41
602.22	2160.31
602.37	1947.33
602.53	2113.50
602.69	2076.06
602.84	2005.84
603.00	1982.43
603.16	2054.99
603.31	2033.93
603.47	2289.04
603.62	2207.13
603.78	2303.09
603.94	2235.21
604.09	2139.25
604.25	2335.85
604.40	2380.32
604.56	2335.85
604.71	2333.51
604.87	2314.79
605.03	2492.67
605.18	2532.46
605.34	2579.27
605.49	2541.82
605.65	2752.47
605.80	2740.77
605.96	2869.50
606.12	2876.52
606.27	3129.30
606.43	3187.81
606.58	3466.33
606.74	3426.54
606.89	3721.45
607.05	3955.51
607.20	4065.51
607.36	4411.91
607.51	4711.50
607.67	4983.00
607.82	5074.28
607.98	5521.32
608.13	5980.07
608.29	6237.53
608.44	6876.49
608.60	7489.71
608.75	8353.37
608.91	9245.12
609.06	9919.19
609.22	11098.82
609.37	12058.44
609.53	14019.81
609.68	15475.62
609.84	17757.64
609.99	20676.29
610.15	24482.00
610.30	30419.94
610.46	37855.82
610.61	47665.01
610.76	56636.28
610.92	62347.19
611.07	65022.42
611.23	65535.00
611.38	65535.00
611.54	62688.91
611.69	58494.67
611.84	53275.27
612.00	46478.36
612.15	39061.20
612.31	34405.88
612.46	30235.04
612.62	27723.65
612.77	26125.06
612.92	24884.58
613.08	23232.16
613.23	22291.26
613.39	21682.72
613.54	20781.62
613.69	20669.27
613.85	20058.39
614.00	19686.25
614.15	19819.66
614.31	18998.13
614.46	19215.80
614.62	18228.09
614.77	17542.32
614.92	16194.17
615.08	15335.19
615.23	14391.95
615.38	13071.89
615.54	11925.03
615.69	10721.99
615.84	9902.81
616.00	9090.64
616.15	8498.49
616.30	8011.65
616.46	7398.43
616.61	6923.30
616.76	6782.87
616.92	6445.84
617.07	5816.23
617.22	5446.43
617.37	5308.34
617.53	5151.52
617.68	4833.21
617.83	4706.82
617.99	4456.38
618.14	4493.83
618.29	4430.63
618.45	4142.75
618.60	3985.93
618.75	4109.98
618.90	4021.04
619.06	3915.72
619.21	3927.42
619.36	4025.72
619.51	3906.35
619.67	3817.41
619.82	3892.31
619.97	4227.01
620.12	4168.49
620.28	4056.15
620.43	4159.13
620.58	4411.91
620.73	4496.17
620.89	4252.75
621.04	4440.00
621.19	4393.19
621.34	4285.52
621.49	4133.39
621.65	4241.05
621.80	4173.18
621.95	4098.28
622.10	4128.70
622.25	4161.47
622.41	4175.52
622.56	4416.59
622.71	4362.76
622.86	4746.61
623.01	4809.80
623.16	4943.21
623.32	4664.69
623.47	4760.65
623.62	4535.96
623.77	4622.56
623.92	4688.09
624.07	4681.07
624.23	4662.35
624.38	4636.60
624.53	4580.43
624.68	4849.59
624.83	4858.95
624.98	4854.27
625.13	4880.02
625.29	4990.02
625.44	4947.89
625.59	4968.96
625.74	4795.76
625.89	4821.50
626.04	4828.53
626.19	4723.20
626.34	4800.44
626.49	4854.27
626.65	4765.33
626.80	4774.69
626.95	4760.65
627.10	4660.01
627.25	4482.13
627.40	4505.53
627.55	4524.26
627.70	4318.29
627.85	4353.40
628.00	4184.88
628.15	4332.33
628.30	4344.03
628.45	4077.21
628.60	4168.49
628.76	4280.84
628.91	4170.83
629.06	4264.46
629.21	4374.46
629.36	4582.77
629.51	4531.28
629.66	5013.43
629.81	5158.54
629.96	5511.96
630.11	5959.00
630.26	6820.32
630.41	7480.35
630.56	8559.34
630.71	9235.75
630.86	9359.80
631.01	9359.80
631.16	8730.20
631.31	7843.14
631.46	6719.68
631.61	5701.54
631.76	4720.86
631.91	4042.11
632.06	3417.18
632.21	2958.44
632.36	2609.70
632.51	2282.02
632.66	2120.53
632.81	1954.35
632.96	1916.90
633.10	1743.70
633.25	1720.29
633.40	1561.14
633.55	1416.02
633.70	1444.11
633.85	1423.05
634.00	1317.72
634.15	1299.00
634.30	1291.98
634.45	1203.04
634.60	1174.95
634.75	1200.69
634.90	1186.65
635.05	1308.36
635.19	1231.12
635.34	1210.06
635.49	1245.16
635.64	1116.44
635.79	1109.41
635.94	992.39
636.09	1086.01
636.24	1013.45
636.39	1071.97
636.53	1022.81
636.68	1062.60
636.83	959.62
636.98	1121.12
637.13	954.94
637.28	992.39
637.43	1001.75
637.57	929.19
637.72	926.85
637.87	908.13
638.02	870.68
638.17	889.40
638.32	866.00
638.46	891.74
638.61	926.85
638.76	709.18
638.91	798.12
639.06	732.59
639.20	828.55
639.35	870.68
639.50	805.14
639.65	793.44
639.80	802.80
639.94	929.19
640.09	821.53
640.24	863.66
640.39	873.02
640.54	791.10
640.68	802.80
640.83	866.00
640.98	779.40
641.13	760.67
641.27	795.78
641.42	770.04
641.57	840.25
641.72	699.82
641.86	732.59
642.01	763.01
642.16	767.70
642.31	798.12
642.45	814.51
642.60	866.00
642.75	730.25
642.90	723.23
643.04	755.99
643.19	732.59
643.34	765.36
643.48	765.36
643.63	805.14
643.78	807.48
643.93	781.74
644.07	805.14
644.22	861.32
644.37	807.48
644.51	800.46
644.66	798.12
644.81	802.80
644.95	727.91
645.10	791.10
645.25	741.95
645.39	849.61
645.54	784.08
645.69	835.57
645.83	699.82
645.98	854.30
646.13	732.59
646.27	753.65
646.42	760.67
646.57	709.18
646.71	770.04
646.86	786.42
647.00	844.93
647.15	753.65
647.30	699.82
647.44	772.38
647.59	727.91
647.74	744.29
647.88	784.08
648.03	699.82
648.17	781.74
648.32	755.99
648.47	784.08
648.61	791.10
648.76	751.31
648.90	770.04
649.05	847.27
649.20	802.80
649.34	985.37
649.49	1060.26
649.63	1163.25
649.78	1500.28
649.92	1849.02
650.07	2143.93
650.21	2338.20
650.36	2602.68
650.51	2818.00
650.65	2562.89
650.80	2326.49
650.94	1923.92
651.09	1755.40
651.23	1544.75
651.38	1420.71
651.52	1289.64
651.67	1174.95
651.81	1034.52
651.96	1020.47
652.10	1050.90
652.25	1029.84
652.39	1029.84
652.54	1135.16
652.68	1118.78
652.83	1193.67
652.97	1254.53
653.12	1240.48
653.26	1275.59
653.41	1214.74
653.55	1193.67
653.70	1043.88
653.84	926.85
653.99	910.47
654.13	858.98
654.27	901.11
654.42	786.42
654.56	774.72
654.71	898.77
654.85	767.70
655.00	688.12
655.14	727.91
655.29	746.63
655.43	760.67
655.57	709.18
655.72	706.84
655.86	744.29
656.01	720.88
656.15	683.44
656.30	688.12
656.44	629.60
656.58	706.84
656.73	826.21
656.87	760.67
657.01	903.45
657.16	814.51
657.30	887.06
657.45	837.91
657.59	905.79
657.73	912.81
657.88	917.49
658.02	915.15
658.16	854.30
658.31	830.89
658.45	732.59
658.60	638.97
658.74	674.07
658.88	622.58
659.03	603.86
659.17	573.43
659.31	603.86
659.46	533.64
659.60	554.71
659.74	568.75
659.89	568.75
660.03	517.26
660.17	526.62
660.32	482.15
660.46	500.87
660.60	461.09
660.74	512.58
660.89	517.26
661.03	566.41
661.17	603.86
661.32	629.60
661.46	704.50
661.60	819.19
661.74	1034.52
661.89	1238.14
662.03	1324.74
662.17	1380.92
662.31	1654.76
662.46	1511.99
662.60	1458.15
662.74	1163.25
662.88	1193.67
663.03	964.30
663.17	915.15
663.31	952.60
663.45	880.04
663.60	807.48
663.74	784.08
663.88	800.46
664.02	662.37
664.17	653.01
664.31	528.96
664.45	573.43
664.59	491.51
664.73	594.50
664.88	482.15
665.02	531.30
665.16	507.90
665.30	512.58
665.44	512.58
665.59	489.17
665.73	566.41
665.87	531.30
666.01	566.41
666.15	491.51
666.29	461.09
666.44	571.09
666.58	601.52
666.72	547.69
666.86	486.83
667.00	571.09
667.14	491.51
667.28	596.84
667.43	566.41
667.57	475.13
667.71	547.69
667.85	505.56
667.99	545.34
668.13	517.26
668.27	489.17
668.41	418.96
668.56	510.24
668.70	503.22
668.84	482.15
668.98	519.60
669.12	482.15
669.26	535.98
669.40	510.24
669.54	435.34
669.68	505.56
669.82	376.83
669.96	500.87
670.10	493.85
670.25	489.17
670.39	486.83
670.53	491.51
670.67	470.45
670.81	493.85
670.95	496.19
671.09	407.25
671.23	414.27
671.37	479.81
671.51	505.56
671.65	507.90
671.79	425.98
671.93	400.23
672.07	472.79
672.21	435.34
672.35	451.72
672.49	390.87
672.63	514.92
672.77	475.13
672.91	358.10
673.05	372.15
673.19	395.55
673.33	458.74
673.47	498.53
673.61	388.53
673.75	454.06
673.89	348.74
674.03	390.87
674.17	386.19
674.31	430.66
674.45	383.85
674.59	400.23
674.73	383.85
674.87	414.27
675.01	444.70
675.15	451.72
675.29	454.06
675.43	381.51
675.56	477.47
675.70	388.53
675.84	381.51
675.98	388.53
676.12	353.42
676.26	409.59
676.40	315.97
676.54	308.95
676.68	379.17
676.82	442.36
676.96	292.57
677.10	327.68
677.23	381.51
677.37	381.51
677.51	407.25
677.65	365.12
677.79	367.46
677.93	318.31
678.07	404.91
678.21	358.10
678.34	330.02
678.48	330.02
678.62	388.53
678.76	301.93
678.90	311.29
679.04	337.04
679.18	404.91
679.31	383.85
679.45	358.10
679.59	313.63
679.73	330.02
679.87	337.04
680.00	390.87
680.14	433.00
680.28	463.43
680.42	388.53
680.56	411.93
680.70	379.17
680.83	360.44
680.97	386.19
681.11	416.62
681.25	344.06
681.39	430.66
681.52	390.87
681.66	430.66
681.80	365.12
681.94	353.42
682.07	404.91
682.21	374.49
682.35	271.50
682.49	393.21
682.62	482.15
682.76	341.72
682.90	383.85
683.04	379.17
683.17	400.23
683.31	334.70
683.45	311.29
683.59	369.80
683.72	367.46
683.86	362.78
684.00	313.63
684.13	376.83
684.27	395.55
684.41	421.30
684.55	311.29
684.68	369.80
684.82	334.70
684.96	318.31
685.09	344.06
685.23	362.78
685.37	360.44
685.50	418.96
685.64	454.06
685.78	465.77
685.91	386.19
686.05	416.62
686.19	451.72
686.32	498.53
686.46	465.77
686.60	589.82
686.73	622.58
686.87	578.11
687.01	732.59
687.14	751.31
687.28	723.23
687.42	805.14
687.55	882.38
687.69	912.81
687.82	887.06
687.96	840.25
688.10	856.64
688.23	905.79
688.37	828.55
688.50	718.54
688.64	660.03
688.78	664.71
688.91	521.94
689.05	510.24
689.18	430.66
689.32	379.17
689.46	372.15
689.59	414.27
689.73	355.76
689.86	301.93
690.00	369.80
690.13	285.55
690.27	266.82
690.41	435.34
690.54	440.02
690.68	369.80
690.81	411.93
690.95	315.97
691.08	330.02
691.22	332.36
691.35	255.12
691.49	304.27
691.62	269.16
691.76	227.03
691.89	217.67
692.03	173.20
692.16	234.05
692.30	276.18
692.43	283.20
692.57	280.86
692.70	283.20
692.84	346.40
692.97	327.68
693.11	402.57
693.24	503.22
693.38	552.37
693.51	674.07
693.65	713.86
693.78	664.71
693.92	688.12
694.05	575.77
694.19	512.58
694.32	470.45
694.45	353.42
694.59	440.02
694.72	334.70
694.86	245.76
694.99	236.39
695.13	220.01
695.26	194.26
695.39	177.88
695.53	212.99
695.66	231.71
695.80	201.29
695.93	217.67
696.07	271.50
696.20	222.35
696.33	266.82
696.47	264.48
696.60	360.44
696.73	304.27
696.87	224.69
697.00	243.42
697.14	217.67
697.27	196.60
697.40	245.76
697.54	173.20
697.67	208.31
697.80	210.65
697.94	100.64
698.07	210.65
698.21	196.60
698.34	220.01
698.47	121.71
698.61	145.11
698.74	112.35
698.87	196.60
699.01	220.01
699.14	145.11
699.27	177.88
699.40	278.52
699.54	241.08
699.67	210.65
699.80	250.44
699.94	196.60
700.07	203.63
700.20	156.82
700.34	191.92
700.47	126.39
700.60	119.37
700.73	170.86
700.87	203.63
701.00	194.26
701.13	257.46
701.26	229.37
701.40	180.22
701.53	145.11
701.66	119.37
701.79	196.60
701.93	175.54
702.06	222.35
702.19	175.54
702.32	224.69
702.46	320.65
702.59	156.82
702.72	177.88
702.85	245.76
702.99	245.76
703.12	290.23
703.25	217.67
703.38	224.69
703.51	294.91
703.65	231.71
703.78	234.05
703.91	332.36
704.04	360.44
704.17	376.83
704.31	315.97
704.44	259.80
704.57	395.55
704.70	327.68
704.83	421.30
704.96	346.40
705.10	311.29
705.23	388.53
>>>>>End Processed Spectral Data<<<<<
