SpectraSuite Data File
++++++++++++++++++++++++++++++++++++
Date: Fri Oct 04 11:42:05 GMT-05:00 2013
User: price-jones
Dark Spectrum Present: No
Reference Spectrum Present: No
Number of Sampled Component Spectra: 1
Spectrometers: USB2+H05261
Integration Time (usec): 100000 (USB2+H05261)
Spectra Averaged: 1 (USB2+H05261)
Boxcar Smoothing: 0 (USB2+H05261)
Correct for Electrical Dark: No (USB2+H05261)
Strobe/Lamp Enabled: No (USB2+H05261)
Correct for Detector Non-linearity: No (USB2+H05261)
Correct for Stray Light: No (USB2+H05261)
Number of Pixels in Processed Spectrum: 2048
>>>>>Begin Processed Spectral Data<<<<<
365.73	4.68
365.92	4.68
366.12	4.68
366.32	0.00
366.52	0.00
366.72	0.00
366.91	0.00
367.11	0.00
367.31	0.00
367.51	0.00
367.70	0.00
367.90	0.00
368.10	0.00
368.30	0.00
368.49	0.00
368.69	0.00
368.89	0.00
369.09	0.00
369.28	0.00
369.48	0.00
369.68	0.00
369.87	0.00
370.07	0.00
370.27	30.43
370.47	14.04
370.66	28.09
370.86	0.00
371.06	60.85
371.25	93.62
371.45	74.90
371.65	131.07
371.84	53.83
372.04	2.34
372.24	65.54
372.44	105.32
372.63	114.69
372.83	88.94
373.03	128.73
373.22	79.58
373.42	138.09
373.62	98.30
373.81	114.69
374.01	93.62
374.21	147.45
374.40	168.52
374.60	149.79
374.79	119.37
374.99	107.66
375.19	198.95
375.38	161.50
375.58	175.54
375.78	189.58
375.97	124.05
376.17	191.92
376.37	128.73
376.56	163.84
376.76	105.32
376.95	149.79
377.15	170.86
377.35	107.66
377.54	149.79
377.74	166.18
377.93	65.54
378.13	126.39
378.33	107.66
378.52	105.32
378.72	175.54
378.91	149.79
379.11	100.64
379.31	170.86
379.50	189.58
379.70	152.13
379.89	161.50
380.09	91.28
380.28	140.43
380.48	65.54
380.68	81.92
380.87	81.92
381.07	147.45
381.26	173.20
381.46	245.76
381.65	208.31
381.85	212.99
382.04	79.58
382.24	140.43
382.43	100.64
382.63	56.17
382.83	173.20
383.02	212.99
383.22	187.24
383.41	112.35
383.61	110.01
383.80	93.62
384.00	112.35
384.19	60.85
384.39	72.56
384.58	105.32
384.78	161.50
384.97	114.69
385.17	105.32
385.36	173.20
385.56	126.39
385.75	124.05
385.95	142.77
386.14	128.73
386.34	110.01
386.53	133.41
386.72	124.05
386.92	135.75
387.11	173.20
387.31	93.62
387.50	49.15
387.70	168.52
387.89	203.63
388.09	142.77
388.28	110.01
388.48	37.45
388.67	161.50
388.86	154.48
389.06	95.96
389.25	168.52
389.45	112.35
389.64	81.92
389.84	126.39
390.03	177.88
390.22	44.47
390.42	156.82
390.61	93.62
390.81	119.37
391.00	93.62
391.19	100.64
391.39	91.28
391.58	128.73
391.78	147.45
391.97	145.11
392.16	81.92
392.36	166.18
392.55	154.48
392.75	126.39
392.94	149.79
393.13	107.66
393.33	65.54
393.52	147.45
393.71	173.20
393.91	142.77
394.10	159.16
394.29	147.45
394.49	133.41
394.68	159.16
394.88	194.26
395.07	121.71
395.26	152.13
395.46	110.01
395.65	182.56
395.84	91.28
396.04	259.80
396.23	138.09
396.42	138.09
396.62	112.35
396.81	191.92
397.00	119.37
397.19	49.15
397.39	107.66
397.58	180.22
397.77	124.05
397.97	84.26
398.16	93.62
398.35	166.18
398.55	163.84
398.74	128.73
398.93	149.79
399.12	128.73
399.32	266.82
399.51	112.35
399.70	140.43
399.90	135.75
400.09	154.48
400.28	138.09
400.47	149.79
400.67	205.97
400.86	170.86
401.05	180.22
401.24	222.35
401.44	182.56
401.63	201.29
401.82	201.29
402.01	140.43
402.21	161.50
402.40	107.66
402.59	222.35
402.78	203.63
402.97	205.97
403.17	234.05
403.36	205.97
403.55	269.16
403.74	765.36
403.93	2282.02
404.13	5582.18
404.32	8882.33
404.51	8709.13
404.70	5568.13
404.89	1954.35
405.09	688.12
405.28	318.31
405.47	287.89
405.66	205.97
405.85	196.60
406.05	283.20
406.24	224.69
406.43	149.79
406.62	257.46
406.81	327.68
407.00	318.31
407.20	753.65
407.39	1165.59
407.58	1294.32
407.77	1093.03
407.96	578.11
408.15	217.67
408.34	210.65
408.54	196.60
408.73	182.56
408.92	175.54
409.11	210.65
409.30	166.18
409.49	205.97
409.68	189.58
409.87	187.24
410.07	175.54
410.26	229.37
410.45	217.67
410.64	224.69
410.83	215.33
411.02	215.33
411.21	203.63
411.40	299.59
411.59	245.76
411.78	166.18
411.98	238.73
412.17	175.54
412.36	217.67
412.55	290.23
412.74	266.82
412.93	243.42
413.12	208.31
413.31	229.37
413.50	245.76
413.69	250.44
413.88	271.50
414.07	278.52
414.26	294.91
414.45	313.63
414.64	194.26
414.83	266.82
415.02	297.25
415.22	311.29
415.41	313.63
415.60	344.06
415.79	227.03
415.98	325.33
416.17	304.27
416.36	292.57
416.55	220.01
416.74	299.59
416.93	276.18
417.12	304.27
417.31	182.56
417.50	271.50
417.69	306.61
417.88	266.82
418.07	191.92
418.26	245.76
418.45	224.69
418.64	346.40
418.83	339.38
419.02	315.97
419.21	290.23
419.39	409.59
419.58	290.23
419.77	299.59
419.96	332.36
420.15	290.23
420.34	241.08
420.53	304.27
420.72	252.78
420.91	292.57
421.10	367.46
421.29	381.51
421.48	271.50
421.67	376.83
421.86	294.91
422.05	283.20
422.24	276.18
422.43	355.76
422.61	416.62
422.80	229.37
422.99	330.02
423.18	325.33
423.37	376.83
423.56	360.44
423.75	318.31
423.94	393.21
424.13	355.76
424.32	381.51
424.50	374.49
424.69	435.34
424.88	325.33
425.07	404.91
425.26	304.27
425.45	367.46
425.64	402.57
425.83	393.21
426.01	423.64
426.20	400.23
426.39	404.91
426.58	325.33
426.77	390.87
426.96	388.53
427.15	339.38
427.33	381.51
427.52	322.99
427.71	433.00
427.90	383.85
428.09	425.98
428.28	416.62
428.46	447.04
428.65	407.25
428.84	451.72
429.03	327.68
429.22	418.96
429.40	320.65
429.59	383.85
429.78	456.40
429.97	428.32
430.16	386.19
430.34	479.81
430.53	503.22
430.72	486.83
430.91	383.85
431.10	465.77
431.28	491.51
431.47	428.32
431.66	477.47
431.85	447.04
432.03	552.37
432.22	582.79
432.41	559.39
432.60	524.28
432.79	535.98
432.97	578.11
433.16	613.22
433.35	653.01
433.54	653.01
433.72	833.23
433.91	767.70
434.10	903.45
434.28	894.08
434.47	1228.78
434.66	1444.11
434.85	1575.18
435.03	3721.45
435.22	13703.84
435.41	34653.97
435.59	45661.51
435.78	31051.89
435.97	14796.87
436.16	5481.53
436.34	1977.75
436.53	1057.92
436.72	866.00
436.90	777.06
437.09	681.10
437.28	653.01
437.46	582.79
437.65	641.31
437.84	585.13
438.02	489.17
438.21	613.22
438.40	582.79
438.58	599.18
438.77	564.07
438.96	676.41
439.14	554.71
439.33	575.77
439.52	559.39
439.70	538.32
439.89	587.47
440.08	573.43
440.26	573.43
440.45	559.39
440.63	585.13
440.82	535.98
441.01	561.73
441.19	489.17
441.38	587.47
441.57	554.71
441.75	524.28
441.94	634.29
442.12	543.00
442.31	524.28
442.50	496.19
442.68	552.37
442.87	603.86
443.05	503.22
443.24	531.30
443.43	638.97
443.61	580.45
443.80	500.87
443.98	578.11
444.17	514.92
444.35	566.41
444.54	575.77
444.73	559.39
444.91	603.86
445.10	564.07
445.28	547.69
445.47	533.64
445.65	552.37
445.84	507.90
446.02	547.69
446.21	521.94
446.39	564.07
446.58	580.45
446.77	479.81
446.95	610.88
447.14	554.71
447.32	510.24
447.51	500.87
447.69	578.11
447.88	482.15
448.06	568.75
448.25	496.19
448.43	440.02
448.62	475.13
448.80	575.77
448.99	517.26
449.17	517.26
449.36	519.60
449.54	442.36
449.73	514.92
449.91	575.77
450.10	540.66
450.28	557.05
450.46	573.43
450.65	554.71
450.83	627.26
451.02	493.85
451.20	587.47
451.39	517.26
451.57	594.50
451.76	545.34
451.94	512.58
452.13	496.19
452.31	540.66
452.49	594.50
452.68	564.07
452.86	500.87
453.05	521.94
453.23	472.79
453.42	475.13
453.60	575.77
453.78	547.69
453.97	507.90
454.15	479.81
454.34	505.56
454.52	561.73
454.70	594.50
454.89	442.36
455.07	428.32
455.26	554.71
455.44	554.71
455.62	489.17
455.81	571.09
455.99	521.94
456.17	587.47
456.36	500.87
456.54	519.60
456.73	465.77
456.91	561.73
457.09	510.24
457.28	587.47
457.46	592.16
457.64	589.82
457.83	510.24
458.01	456.40
458.19	510.24
458.38	528.96
458.56	554.71
458.74	568.75
458.93	468.11
459.11	482.15
459.29	498.53
459.48	437.68
459.66	535.98
459.84	540.66
460.03	557.05
460.21	615.56
460.39	512.58
460.57	507.90
460.76	491.51
460.94	526.62
461.12	631.94
461.31	528.96
461.49	554.71
461.67	531.30
461.85	599.18
462.04	543.00
462.22	999.41
462.40	538.32
462.59	594.50
462.77	456.40
462.95	491.51
463.13	512.58
463.32	514.92
463.50	543.00
463.68	479.81
463.86	444.70
464.05	559.39
464.23	528.96
464.41	543.00
464.59	543.00
464.78	507.90
464.96	517.26
465.14	507.90
465.32	470.45
465.50	559.39
465.69	500.87
465.87	444.70
466.05	484.49
466.23	550.03
466.41	526.62
466.60	535.98
466.78	575.77
466.96	528.96
467.14	615.56
467.32	564.07
467.51	531.30
467.69	433.00
467.87	543.00
468.05	493.85
468.23	524.28
468.41	599.18
468.60	486.83
468.78	475.13
468.96	465.77
469.14	524.28
469.32	491.51
469.50	458.74
469.69	383.85
469.87	514.92
470.05	425.98
470.23	505.56
470.41	489.17
470.59	402.57
470.77	528.96
470.95	503.22
471.14	575.77
471.32	461.09
471.50	507.90
471.68	484.49
471.86	500.87
472.04	507.90
472.22	514.92
472.40	425.98
472.58	552.37
472.77	521.94
472.95	566.41
473.13	465.77
473.31	519.60
473.49	528.96
473.67	510.24
473.85	524.28
474.03	449.38
474.21	519.60
474.39	472.79
474.57	540.66
474.75	404.91
474.93	535.98
475.12	519.60
475.30	425.98
475.48	517.26
475.66	491.51
475.84	531.30
476.02	512.58
476.20	575.77
476.38	519.60
476.56	524.28
476.74	470.45
476.92	491.51
477.10	507.90
477.28	578.11
477.46	519.60
477.64	620.24
477.82	535.98
478.00	528.96
478.18	573.43
478.36	594.50
478.54	603.86
478.72	564.07
478.90	709.18
479.08	573.43
479.26	554.71
479.44	681.10
479.62	627.26
479.80	629.60
479.98	669.39
480.16	660.03
480.34	741.95
480.52	727.91
480.70	814.51
480.88	772.38
481.06	858.98
481.24	976.00
481.41	985.37
481.59	966.64
481.77	1062.60
481.95	1086.01
482.13	1132.82
482.31	1275.59
482.49	1371.55
482.67	1397.30
482.85	1507.30
483.03	1675.82
483.21	1767.10
483.39	1816.26
483.57	2024.56
483.74	2092.44
483.92	2162.66
484.10	2427.14
484.28	2448.20
484.46	2588.63
484.64	2647.15
484.82	2836.73
485.00	3087.17
485.18	3129.30
485.35	3428.88
485.53	3473.36
485.71	3599.74
485.89	3859.54
486.07	3960.19
486.25	4004.66
486.43	3871.25
486.61	4025.72
486.78	4093.60
486.96	4067.85
487.14	3894.65
487.32	4011.68
487.50	3892.31
487.68	3969.55
487.85	3915.72
488.03	3892.31
488.21	3847.84
488.39	3651.24
488.57	3606.77
488.75	3557.61
488.92	3815.07
489.10	3414.84
489.28	3377.39
489.46	3248.66
489.64	3068.44
489.81	3054.40
489.99	3176.11
490.17	3014.61
490.35	3082.49
490.53	2951.42
490.70	2972.48
490.88	3075.46
491.06	3229.94
491.24	3346.97
491.41	3517.83
491.59	3241.64
491.77	3063.76
491.95	2963.12
492.13	2818.00
492.30	2818.00
492.48	2771.19
492.66	2686.94
492.84	2605.02
493.01	2630.76
493.19	2506.71
493.37	2588.63
493.54	2616.72
493.72	2401.39
493.90	2410.75
494.08	2310.11
494.25	2392.03
494.43	2354.58
494.61	2263.30
494.79	2174.36
494.96	2162.66
495.14	2101.80
495.32	2080.74
495.49	2069.03
495.67	2115.84
495.85	2083.08
496.02	2036.27
496.20	2033.93
496.38	1989.46
496.55	1961.37
496.73	1851.36
496.91	1827.96
497.09	1764.76
497.26	1858.39
497.44	1825.62
497.62	1703.91
497.79	1652.42
497.97	1750.72
498.14	1746.04
498.32	1582.20
498.50	1540.07
498.67	1519.01
498.85	1483.90
499.03	1397.30
499.20	1376.24
499.38	1413.68
499.56	1439.43
499.73	1423.05
499.91	1397.30
500.08	1320.06
500.26	1163.25
500.44	1226.44
500.61	1212.40
500.79	1139.84
500.97	1060.26
501.14	1102.39
501.32	1083.67
501.49	1053.24
501.67	947.92
501.84	1015.79
502.02	945.58
502.20	1008.77
502.37	915.15
502.55	887.06
502.72	856.64
502.90	924.51
503.07	795.78
503.25	814.51
503.43	795.78
503.60	758.33
503.78	744.29
503.95	711.52
504.13	744.29
504.30	716.20
504.48	748.97
504.65	725.57
504.83	657.69
505.01	636.63
505.18	737.27
505.36	699.82
505.53	655.35
505.71	650.67
505.88	624.92
506.06	550.03
506.23	641.31
506.41	613.22
506.58	575.77
506.76	557.05
506.93	454.06
507.11	575.77
507.28	514.92
507.46	531.30
507.63	578.11
507.81	533.64
507.98	531.30
508.16	545.34
508.33	449.38
508.50	608.54
508.68	521.94
508.85	624.92
509.03	550.03
509.20	692.80
509.38	566.41
509.55	622.58
509.73	580.45
509.90	559.39
510.08	486.83
510.25	512.58
510.42	561.73
510.60	496.19
510.77	505.56
510.95	603.86
511.12	531.30
511.30	526.62
511.47	524.28
511.64	550.03
511.82	428.32
511.99	489.17
512.17	470.45
512.34	423.64
512.51	447.04
512.69	538.32
512.86	517.26
513.04	456.40
513.21	486.83
513.38	449.38
513.56	493.85
513.73	425.98
513.90	468.11
514.08	437.68
514.25	475.13
514.43	507.90
514.60	449.38
514.77	479.81
514.95	470.45
515.12	411.93
515.29	376.83
515.47	365.12
515.64	458.74
515.81	409.59
515.99	447.04
516.16	435.34
516.33	510.24
516.51	430.66
516.68	477.47
516.85	433.00
517.03	409.59
517.20	447.04
517.37	451.72
517.54	416.62
517.72	409.59
517.89	372.15
518.06	362.78
518.24	411.93
518.41	461.09
518.58	484.49
518.75	358.10
518.93	409.59
519.10	463.43
519.27	463.43
519.45	425.98
519.62	381.51
519.79	444.70
519.96	395.55
520.14	437.68
520.31	503.22
520.48	330.02
520.65	440.02
520.83	416.62
521.00	400.23
521.17	374.49
521.34	365.12
521.52	341.72
521.69	369.80
521.86	369.80
522.03	339.38
522.20	428.32
522.38	388.53
522.55	468.11
522.72	367.46
522.89	465.77
523.07	449.38
523.24	435.34
523.41	379.17
523.58	435.34
523.75	444.70
523.92	365.12
524.10	397.89
524.27	376.83
524.44	425.98
524.61	444.70
524.78	395.55
524.96	418.96
525.13	374.49
525.30	437.68
525.47	416.62
525.64	433.00
525.81	414.27
525.98	418.96
526.16	447.04
526.33	503.22
526.50	444.70
526.67	442.36
526.84	456.40
527.01	458.74
527.18	524.28
527.36	573.43
527.53	575.77
527.70	552.37
527.87	484.49
528.04	594.50
528.21	451.72
528.38	386.19
528.55	517.26
528.72	505.56
528.89	601.52
529.07	566.41
529.24	489.17
529.41	547.69
529.58	531.30
529.75	648.33
529.92	610.88
530.09	596.84
530.26	617.90
530.43	601.52
530.60	613.22
530.77	685.78
530.94	641.31
531.11	662.37
531.28	720.88
531.46	671.73
531.63	678.76
531.80	734.93
531.97	786.42
532.14	912.81
532.31	1025.15
532.48	1308.36
532.65	1549.43
532.82	1715.61
532.99	2005.84
533.16	2338.20
533.33	2523.10
533.50	2382.67
533.67	1944.99
533.84	1619.65
534.01	1554.12
534.18	1486.24
534.35	1385.60
534.52	1355.17
534.69	1460.49
534.86	1467.52
535.03	1439.43
535.20	1600.93
535.37	1739.02
535.54	1839.66
535.71	1806.89
535.88	1930.94
536.05	2005.84
536.22	2277.34
536.38	2319.47
536.55	2661.19
536.72	2864.82
536.89	3194.83
537.06	3698.05
537.23	4086.58
537.40	4496.17
537.57	4882.36
537.74	4985.34
537.91	5228.76
538.08	5373.87
538.25	5469.83
538.42	5455.79
538.59	5526.00
538.75	5785.80
538.92	6230.51
539.09	6593.29
539.26	7494.40
539.43	8234.00
539.60	9565.77
539.77	10614.33
539.94	11545.86
540.11	13078.91
540.28	14672.82
540.44	15957.77
540.61	17612.53
540.78	19971.79
540.95	24030.28
541.12	28774.55
541.29	33261.35
541.46	35070.59
541.62	34387.15
541.79	33090.49
541.96	30866.98
542.13	28912.64
542.30	26705.51
542.47	25291.83
542.63	23541.11
542.80	22817.88
542.97	22373.18
543.14	22530.00
543.31	22513.61
543.48	22675.11
543.64	23016.83
543.81	22878.74
543.98	23213.43
544.15	23501.32
544.32	23821.97
544.48	23438.12
544.65	23138.54
544.82	23117.47
544.99	23002.78
545.16	23543.45
545.32	24435.19
545.49	37546.87
545.66	58864.47
545.83	65535.00
546.00	65535.00
546.16	54410.43
546.33	41521.10
546.50	31285.94
546.67	23981.13
546.83	21317.60
547.00	20297.13
547.17	19363.25
547.34	18593.22
547.50	17696.79
547.67	17069.53
547.84	16482.05
548.00	16027.99
548.17	15311.78
548.34	14546.43
548.51	13865.33
548.67	13678.09
548.84	12919.76
549.01	12224.62
549.18	11438.20
549.34	11241.59
549.51	10721.99
549.68	10417.72
549.84	9937.91
550.01	9488.53
550.18	9029.79
550.34	8496.14
550.51	8306.56
550.68	7824.41
550.84	7194.81
551.01	6993.52
551.18	6679.89
551.34	6279.66
551.51	6071.35
551.68	5827.93
551.84	5621.97
552.01	5228.76
552.18	5228.76
552.34	4975.98
552.51	4760.65
552.68	4341.69
552.84	4344.03
553.01	4332.33
553.18	4060.83
553.34	3934.44
553.51	3801.03
553.67	3613.79
553.84	3555.27
554.01	3363.35
554.17	3056.74
554.34	2911.63
554.51	2698.64
554.67	2502.03
554.84	2448.20
555.00	2370.96
555.17	2141.59
555.33	2047.97
555.50	2036.27
555.67	1912.22
555.83	1813.92
556.00	1668.80
556.16	1797.53
556.33	1572.84
556.50	1617.31
556.66	1558.80
556.83	1444.11
556.99	1446.45
557.16	1481.56
557.32	1355.17
557.49	1348.15
557.65	1366.87
557.82	1247.51
557.98	1179.63
558.15	1242.82
558.32	1153.88
558.48	1224.10
558.65	1102.39
558.81	1200.69
558.98	1029.84
559.14	1032.18
559.31	1086.01
559.47	917.49
559.64	961.96
559.80	1046.22
559.97	894.08
560.13	973.66
560.30	978.34
560.46	1013.45
560.63	945.58
560.79	978.34
560.96	851.96
561.12	896.43
561.29	940.90
561.45	894.08
561.61	887.06
561.78	1001.75
561.94	898.77
562.11	873.02
562.27	908.13
562.44	922.17
562.60	814.51
562.77	844.93
562.93	1043.88
563.10	858.98
563.26	915.15
563.42	915.15
563.59	894.08
563.75	863.66
563.92	812.17
564.08	821.53
564.24	767.70
564.41	898.77
564.57	763.01
564.74	720.88
564.90	800.46
565.07	683.44
565.23	844.93
565.39	744.29
565.56	702.16
565.72	709.18
565.88	678.76
566.05	697.48
566.21	713.86
566.38	713.86
566.54	772.38
566.70	676.41
566.87	732.59
567.03	746.63
567.19	779.40
567.36	802.80
567.52	690.46
567.68	720.88
567.85	765.36
568.01	641.31
568.17	819.19
568.34	727.91
568.50	784.08
568.66	720.88
568.83	774.72
568.99	709.18
569.15	802.80
569.32	702.16
569.48	653.01
569.64	592.16
569.81	676.41
569.97	585.13
570.13	662.37
570.30	554.71
570.46	517.26
570.62	608.54
570.78	533.64
570.95	482.15
571.11	592.16
571.27	543.00
571.43	437.68
571.60	512.58
571.76	552.37
571.92	533.64
572.09	601.52
572.25	559.39
572.41	596.84
572.57	599.18
572.74	608.54
572.90	568.75
573.06	573.43
573.22	557.05
573.38	645.99
573.55	545.34
573.71	657.69
573.87	627.26
574.03	613.22
574.20	589.82
574.36	660.03
574.52	671.73
574.68	725.57
574.84	657.69
575.01	760.67
575.17	842.59
575.33	802.80
575.49	842.59
575.65	898.77
575.82	1053.24
575.98	1128.14
576.14	1191.33
576.30	2228.19
576.46	6462.22
576.62	14455.15
576.79	18958.34
576.95	13118.70
577.11	8205.92
577.27	5612.60
577.43	3637.19
577.59	2370.96
577.75	1844.34
577.92	1671.14
578.08	1593.90
578.24	1729.66
578.40	2443.52
578.56	6380.30
578.72	13359.78
578.88	17444.01
579.04	12765.28
579.21	8100.59
579.37	5661.76
579.53	4486.81
579.69	4093.60
579.85	4947.89
580.01	5839.64
580.17	6033.90
580.33	5081.30
580.49	4334.67
580.65	3796.35
580.82	3503.78
580.98	3363.35
581.14	3463.99
581.30	3578.68
581.46	3815.07
581.62	4135.73
581.78	4386.16
581.94	4791.08
582.10	4945.55
582.26	5437.06
582.42	5504.94
582.58	5636.01
582.74	5643.03
582.90	5722.61
583.06	5856.02
583.22	5935.60
583.38	5919.21
583.54	5748.36
583.70	5996.45
583.86	5680.48
584.02	5715.59
584.18	5673.46
584.34	5305.99
584.50	5221.74
584.66	5341.10
584.82	5280.25
584.98	5289.61
585.14	5219.39
585.30	5029.81
585.46	4912.78
585.62	4940.87
585.78	4858.95
585.94	4784.06
586.10	4968.96
586.26	5188.97
586.42	5989.43
586.58	6707.98
586.74	8444.65
586.90	10186.01
587.06	11735.45
587.22	11541.18
587.38	10621.35
587.54	9006.38
587.70	7592.70
587.86	6483.28
588.02	5488.56
588.18	4851.93
588.34	4196.58
588.49	3896.99
588.65	3637.19
588.81	3487.40
588.97	3468.67
589.13	3346.97
589.29	3190.15
589.45	3339.94
589.61	3183.13
589.77	3260.37
589.93	3232.28
590.08	3358.67
590.24	3410.16
590.40	3672.30
590.56	3571.66
590.72	3634.85
590.88	3714.43
591.04	3967.21
591.20	3873.59
591.35	4198.92
591.51	4416.59
591.67	4601.49
591.83	4933.85
591.99	5259.18
592.15	5839.64
592.31	6338.17
592.46	6951.39
592.62	7459.29
592.78	8011.65
592.94	8332.31
593.10	8091.23
593.26	8051.44
593.41	7330.56
593.57	6672.87
593.73	5659.42
593.89	5200.67
594.05	4564.04
594.20	4011.68
594.36	3676.98
594.52	3321.22
594.68	3199.51
594.84	3012.27
594.99	3000.57
595.15	2974.82
595.31	2874.18
595.47	2813.32
595.62	2979.50
595.78	2881.20
595.94	2981.84
596.10	2899.92
596.25	2864.82
596.41	2843.75
596.57	2960.78
596.73	2862.48
596.88	2920.99
597.04	2747.79
597.20	2953.76
597.36	2956.10
597.51	3005.25
597.67	3080.14
597.83	3164.40
597.99	3405.48
598.14	3728.47
598.30	3922.74
598.46	4018.70
598.61	4332.33
598.77	4444.68
598.93	4734.90
599.09	4777.03
599.24	5029.81
599.40	4858.95
599.56	4805.12
599.71	4610.86
599.87	4428.29
600.03	4056.15
600.18	3861.88
600.34	3688.68
600.50	3410.16
600.65	3117.59
600.81	2967.80
600.97	2822.69
601.12	2647.15
601.28	2565.23
601.44	2520.76
601.59	2345.22
601.75	2157.97
601.91	2057.33
602.06	1989.46
602.22	2064.35
602.37	1966.05
602.53	1956.69
602.69	1930.94
602.84	1795.19
603.00	1898.17
603.16	1984.77
603.31	2026.90
603.47	1989.46
603.62	2029.24
603.78	2005.84
603.94	2134.57
604.09	2132.23
604.25	2209.47
604.40	2235.21
604.56	2260.96
604.71	2326.49
604.87	2193.08
605.03	2354.58
605.18	2307.77
605.34	2485.65
605.49	2413.09
605.65	2445.86
605.80	2525.44
605.96	2619.06
606.12	2848.43
606.27	2935.03
606.43	2949.08
606.58	3094.19
606.74	3318.88
606.89	3466.33
607.05	3723.79
607.20	3817.41
607.36	4056.15
607.51	4299.56
607.67	4662.35
607.82	4922.15
607.98	5130.45
608.13	5582.18
608.29	5905.17
608.44	6560.52
608.60	7206.51
608.75	7878.24
608.91	8671.68
609.06	9357.46
609.22	10490.28
609.37	11372.66
609.53	12898.69
609.68	14071.30
609.84	16416.52
609.99	19496.66
610.15	23248.54
610.30	28154.30
610.46	35374.86
610.61	45294.05
610.76	53860.41
610.92	59891.97
611.07	63580.65
611.23	64250.05
611.38	63168.72
611.54	60568.38
611.69	56130.73
611.84	50766.22
612.00	43316.29
612.15	36339.16
612.31	31087.00
612.46	27545.76
612.62	25713.13
612.77	24463.28
612.92	23075.34
613.08	21582.08
613.23	20301.81
613.39	19644.12
613.54	19007.49
613.69	18464.49
613.85	18780.46
614.00	18700.88
614.15	18581.51
614.31	18242.14
614.46	17727.22
614.62	17268.47
614.77	16343.96
614.92	15108.16
615.08	14127.47
615.23	13118.70
615.38	11824.39
615.54	11098.82
615.69	10094.73
615.84	9308.31
616.00	8528.91
616.15	7875.90
616.30	7485.03
616.46	6656.48
616.61	6595.63
616.76	6228.17
616.92	5863.04
617.07	5479.19
617.22	5153.86
617.37	5060.24
617.53	4858.95
617.68	4552.34
617.83	4299.56
617.99	4369.78
618.14	4189.56
618.29	4035.08
618.45	3892.31
618.60	3801.03
618.75	3707.41
618.90	3662.94
619.06	3941.46
619.21	3801.03
619.36	3796.35
619.51	3665.28
619.67	3637.19
619.82	3667.62
619.97	3852.52
620.12	3904.01
620.28	3920.40
620.43	3875.93
620.58	4058.49
620.73	4030.40
620.89	4016.36
621.04	4117.00
621.19	4063.17
621.34	3939.12
621.49	3908.69
621.65	3922.74
621.80	3882.95
621.95	3803.37
622.10	3859.54
622.25	3824.44
622.41	4030.40
622.56	3992.95
622.71	4245.73
622.86	4212.96
623.01	4327.65
623.16	4308.93
623.32	4374.46
623.47	4353.40
623.62	4175.52
623.77	4381.48
623.92	4437.66
624.07	4219.99
624.23	4234.03
624.38	4360.42
624.53	4393.19
624.68	4306.59
624.83	4358.08
624.98	4411.91
625.13	4505.53
625.29	4493.83
625.44	4580.43
625.59	4517.23
625.74	4564.04
625.89	4444.68
626.04	4383.82
626.19	4664.69
626.34	4601.49
626.49	4493.83
626.65	4418.93
626.80	4294.88
626.95	4402.55
627.10	4425.95
627.25	4222.33
627.40	4404.89
627.55	4292.54
627.70	4114.66
627.85	4187.22
628.00	4079.55
628.15	3948.48
628.30	4067.85
628.45	3988.27
628.60	3948.48
628.76	3955.51
628.91	4021.04
629.06	4018.70
629.21	4203.60
629.36	4259.78
629.51	4299.56
629.66	4727.88
629.81	4905.76
629.96	5238.12
630.11	5760.06
630.26	6345.19
630.41	7204.17
630.56	7733.13
630.71	8566.36
630.86	8861.27
631.01	8671.68
631.16	7997.61
631.31	7222.89
631.46	6221.14
631.61	5193.65
631.76	4184.88
631.91	3723.79
632.06	3162.06
632.21	2576.93
632.36	2382.67
632.51	2169.68
632.66	2029.24
632.81	1769.44
632.96	1703.91
633.10	1621.99
633.25	1610.29
633.40	1420.71
633.55	1392.62
633.70	1404.32
633.85	1352.83
634.00	1249.85
634.15	1252.19
634.30	1172.61
634.45	1151.54
634.60	1153.88
634.75	1118.78
634.90	1146.86
635.05	1137.50
635.19	1097.71
635.34	1139.84
635.49	1132.82
635.64	1046.22
635.79	1043.88
635.94	1083.67
636.09	1004.09
636.24	1006.43
636.39	971.32
636.53	1034.52
636.68	990.05
636.83	908.13
636.98	938.55
637.13	870.68
637.28	968.98
637.43	922.17
637.57	905.79
637.72	868.34
637.87	840.25
638.02	856.64
638.17	830.89
638.32	812.17
638.46	828.55
638.61	826.21
638.76	779.40
638.91	837.91
639.06	711.52
639.20	774.72
639.35	880.04
639.50	737.27
639.65	821.53
639.80	812.17
639.94	725.57
640.09	774.72
640.24	788.76
640.39	713.86
640.54	709.18
640.68	739.61
640.83	702.16
640.98	777.06
641.13	788.76
641.27	760.67
641.42	676.41
641.57	727.91
641.72	753.65
641.86	795.78
642.01	692.80
642.16	716.20
642.31	638.97
642.45	772.38
642.60	873.02
642.75	723.23
642.90	781.74
643.04	727.91
643.19	777.06
643.34	723.23
643.48	755.99
643.63	772.38
643.78	788.76
643.93	795.78
644.07	753.65
644.22	779.40
644.37	725.57
644.51	823.87
644.66	875.36
644.81	683.44
644.95	805.14
645.10	716.20
645.25	751.31
645.39	746.63
645.54	674.07
645.69	716.20
645.83	744.29
645.98	805.14
646.13	664.71
646.27	641.31
646.42	727.91
646.57	664.71
646.71	692.80
646.86	674.07
647.00	763.01
647.15	695.14
647.30	727.91
647.44	662.37
647.59	725.57
647.74	716.20
647.88	685.78
648.03	704.50
648.17	751.31
648.32	805.14
648.47	685.78
648.61	777.06
648.76	795.78
648.90	863.66
649.05	835.57
649.20	791.10
649.34	945.58
649.49	1015.79
649.63	1191.33
649.78	1376.24
649.92	1631.35
650.07	1944.99
650.21	2176.70
650.36	2373.30
650.51	2312.45
650.65	2328.83
650.80	2045.63
650.94	1827.96
651.09	1596.25
651.23	1406.66
651.38	1334.11
651.52	1299.00
651.67	1088.35
651.81	959.62
651.96	1006.43
652.10	957.28
652.25	922.17
652.39	938.55
652.54	1015.79
652.68	1165.59
652.83	1186.65
652.97	1252.19
653.12	1132.82
653.26	1135.16
653.41	1137.50
653.55	1139.84
653.70	903.45
653.84	945.58
653.99	802.80
654.13	840.25
654.27	809.83
654.42	772.38
654.56	720.88
654.71	713.86
654.85	653.01
655.00	685.78
655.14	695.14
655.29	678.76
655.43	727.91
655.57	645.99
655.72	662.37
655.86	699.82
656.01	557.05
656.15	660.03
656.30	720.88
656.44	585.13
656.58	655.35
656.73	688.12
656.87	601.52
657.01	692.80
657.16	671.73
657.30	706.84
657.45	781.74
657.59	844.93
657.73	863.66
657.88	758.33
658.02	901.11
658.16	716.20
658.31	702.16
658.45	688.12
658.60	636.63
658.74	620.24
658.88	599.18
659.03	524.28
659.17	524.28
659.31	538.32
659.46	461.09
659.60	552.37
659.74	465.77
659.89	547.69
660.03	571.09
660.17	561.73
660.32	477.47
660.46	582.79
660.60	554.71
660.74	596.84
660.89	528.96
661.03	566.41
661.17	545.34
661.32	638.97
661.46	709.18
661.60	777.06
661.74	952.60
661.89	1198.35
662.03	1191.33
662.17	1451.13
662.31	1427.73
662.46	1444.11
662.60	1397.30
662.74	1170.27
662.88	1170.27
663.03	898.77
663.17	835.57
663.31	802.80
663.45	744.29
663.60	805.14
663.74	704.50
663.88	638.97
664.02	617.90
664.17	648.33
664.31	592.16
664.45	557.05
664.59	585.13
664.73	531.30
664.88	580.45
665.02	428.32
665.16	468.11
665.30	535.98
665.44	442.36
665.59	451.72
665.73	397.89
665.87	437.68
666.01	550.03
666.15	470.45
666.29	496.19
666.44	521.94
666.58	472.79
666.72	437.68
666.86	435.34
667.00	472.79
667.14	531.30
667.28	554.71
667.43	489.17
667.57	519.60
667.71	477.47
667.85	472.79
667.99	510.24
668.13	554.71
668.27	507.90
668.41	449.38
668.56	479.81
668.70	538.32
668.84	435.34
668.98	461.09
669.12	360.44
669.26	482.15
669.40	566.41
669.54	477.47
669.68	423.64
669.82	397.89
669.96	491.51
670.10	416.62
670.25	517.26
670.39	374.49
670.53	381.51
670.67	475.13
670.81	451.72
670.95	440.02
671.09	500.87
671.23	451.72
671.37	442.36
671.51	428.32
671.65	423.64
671.79	449.38
671.93	397.89
672.07	451.72
672.21	381.51
672.35	388.53
672.49	423.64
672.63	503.22
672.77	430.66
672.91	393.21
673.05	489.17
673.19	393.21
673.33	311.29
673.47	397.89
673.61	397.89
673.75	369.80
673.89	355.76
674.03	411.93
674.17	365.12
674.31	367.46
674.45	386.19
674.59	355.76
674.73	362.78
674.87	400.23
675.01	348.74
675.15	386.19
675.29	372.15
675.43	351.08
675.56	390.87
675.70	381.51
675.84	341.72
675.98	400.23
676.12	325.33
676.26	287.89
676.40	341.72
676.54	414.27
676.68	348.74
676.82	334.70
676.96	278.52
677.10	306.61
677.23	330.02
677.37	334.70
677.51	304.27
677.65	433.00
677.79	334.70
677.93	308.95
678.07	315.97
678.21	374.49
678.34	294.91
678.48	402.57
678.62	404.91
678.76	301.93
678.90	360.44
679.04	322.99
679.18	416.62
679.31	327.68
679.45	367.46
679.59	376.83
679.73	341.72
679.87	250.44
680.00	421.30
680.14	397.89
680.28	397.89
680.42	418.96
680.56	388.53
680.70	304.27
680.83	332.36
680.97	374.49
681.11	390.87
681.25	386.19
681.39	353.42
681.52	402.57
681.66	390.87
681.80	458.74
681.94	327.68
682.07	372.15
682.21	379.17
682.35	320.65
682.49	297.25
682.62	433.00
682.76	337.04
682.90	346.40
683.04	423.64
683.17	353.42
683.31	318.31
683.45	306.61
683.59	339.38
683.72	344.06
683.86	339.38
684.00	341.72
684.13	346.40
684.27	327.68
684.41	393.21
684.55	339.38
684.68	301.93
684.82	304.27
684.96	217.67
685.09	332.36
685.23	264.48
685.37	308.95
685.50	334.70
685.64	440.02
685.78	330.02
685.91	409.59
686.05	433.00
686.19	486.83
686.32	451.72
686.46	470.45
686.60	514.92
686.73	543.00
686.87	582.79
687.01	587.47
687.14	702.16
687.28	678.76
687.42	732.59
687.55	697.48
687.69	952.60
687.82	753.65
687.96	765.36
688.10	826.21
688.23	840.25
688.37	751.31
688.50	674.07
688.64	645.99
688.78	629.60
688.91	554.71
689.05	456.40
689.18	395.55
689.32	395.55
689.46	325.33
689.59	393.21
689.73	346.40
689.86	290.23
690.00	292.57
690.13	264.48
690.27	294.91
690.41	372.15
690.54	379.17
690.68	320.65
690.81	353.42
690.95	372.15
691.08	318.31
691.22	198.95
691.35	194.26
691.49	241.08
691.62	243.42
691.76	194.26
691.89	217.67
692.03	238.73
692.16	114.69
692.30	259.80
692.43	201.29
692.57	208.31
692.70	250.44
692.84	285.55
692.97	280.86
693.11	369.80
693.24	433.00
693.38	493.85
693.51	561.73
693.65	641.31
693.78	645.99
693.92	683.44
694.05	585.13
694.19	559.39
694.32	430.66
694.45	379.17
694.59	285.55
694.72	299.59
694.86	322.99
694.99	311.29
695.13	203.63
695.26	269.16
695.39	243.42
695.53	229.37
695.66	269.16
695.80	259.80
695.93	229.37
696.07	227.03
696.20	203.63
696.33	194.26
696.47	301.93
696.60	245.76
696.73	196.60
696.87	252.78
697.00	205.97
697.14	126.39
697.27	133.41
697.40	229.37
697.54	159.16
697.67	212.99
697.80	205.97
697.94	182.56
698.07	210.65
698.21	135.75
698.34	88.94
698.47	161.50
698.61	173.20
698.74	170.86
698.87	180.22
699.01	212.99
699.14	177.88
699.27	273.84
699.40	292.57
699.54	210.65
699.67	191.92
699.80	152.13
699.94	187.24
700.07	180.22
700.20	191.92
700.34	243.42
700.47	210.65
700.60	161.50
700.73	142.77
700.87	152.13
701.00	266.82
701.13	182.56
701.26	252.78
701.40	220.01
701.53	173.20
701.66	154.48
701.79	194.26
701.93	166.18
702.06	241.08
702.19	201.29
702.32	140.43
702.46	177.88
702.59	187.24
702.72	170.86
702.85	184.90
702.99	231.71
703.12	222.35
703.25	245.76
703.38	325.33
703.51	325.33
703.65	252.78
703.78	257.46
703.91	297.25
704.04	159.16
704.17	304.27
704.31	290.23
704.44	264.48
704.57	285.55
704.70	334.70
704.83	313.63
704.96	308.95
705.10	273.84
705.23	367.46
>>>>>End Processed Spectral Data<<<<<
