SpectraSuite Data File
++++++++++++++++++++++++++++++++++++
Date: Fri Oct 04 11:41:41 GMT-05:00 2013
User: price-jones
Dark Spectrum Present: No
Reference Spectrum Present: No
Number of Sampled Component Spectra: 1
Spectrometers: USB2+H05261
Integration Time (usec): 100000 (USB2+H05261)
Spectra Averaged: 1 (USB2+H05261)
Boxcar Smoothing: 0 (USB2+H05261)
Correct for Electrical Dark: No (USB2+H05261)
Strobe/Lamp Enabled: No (USB2+H05261)
Correct for Detector Non-linearity: No (USB2+H05261)
Correct for Stray Light: No (USB2+H05261)
Number of Pixels in Processed Spectrum: 2048
>>>>>Begin Processed Spectral Data<<<<<
365.73	84.26
365.92	84.26
366.12	84.26
366.32	0.00
366.52	0.00
366.72	0.00
366.91	0.00
367.11	0.00
367.31	0.00
367.51	0.00
367.70	0.00
367.90	0.00
368.10	0.00
368.30	0.00
368.49	0.00
368.69	0.00
368.89	0.00
369.09	0.00
369.28	0.00
369.48	0.00
369.68	0.00
369.87	2.34
370.07	0.00
370.27	35.11
370.47	0.00
370.66	25.75
370.86	72.56
371.06	105.32
371.25	46.81
371.45	0.00
371.65	60.85
371.84	49.15
372.04	93.62
372.24	100.64
372.44	63.19
372.63	119.37
372.83	102.98
373.03	140.43
373.22	138.09
373.42	58.51
373.62	105.32
373.81	81.92
374.01	117.03
374.21	149.79
374.40	107.66
374.60	187.24
374.79	159.16
374.99	121.71
375.19	88.94
375.38	156.82
375.58	135.75
375.78	152.13
375.97	142.77
376.17	189.58
376.37	95.96
376.56	63.19
376.76	124.05
376.95	98.30
377.15	53.83
377.35	112.35
377.54	95.96
377.74	21.06
377.93	152.13
378.13	145.11
378.33	114.69
378.52	159.16
378.72	173.20
378.91	110.01
379.11	133.41
379.31	124.05
379.50	81.92
379.70	102.98
379.89	182.56
380.09	98.30
380.28	133.41
380.48	119.37
380.68	142.77
380.87	102.98
381.07	156.82
381.26	159.16
381.46	56.17
381.65	128.73
381.85	70.22
382.04	138.09
382.24	98.30
382.43	72.56
382.63	112.35
382.83	67.88
383.02	163.84
383.22	79.58
383.41	110.01
383.61	39.79
383.80	180.22
384.00	154.48
384.19	140.43
384.39	91.28
384.58	126.39
384.78	177.88
384.97	88.94
385.17	88.94
385.36	161.50
385.56	121.71
385.75	74.90
385.95	140.43
386.14	140.43
386.34	124.05
386.53	121.71
386.72	180.22
386.92	131.07
387.11	154.48
387.31	124.05
387.50	107.66
387.70	149.79
387.89	175.54
388.09	156.82
388.28	77.24
388.48	65.54
388.67	175.54
388.86	84.26
389.06	170.86
389.25	173.20
389.45	70.22
389.64	117.03
389.84	156.82
390.03	91.28
390.22	152.13
390.42	93.62
390.61	102.98
390.81	93.62
391.00	91.28
391.19	138.09
391.39	81.92
391.58	93.62
391.78	177.88
391.97	119.37
392.16	184.90
392.36	170.86
392.55	163.84
392.75	142.77
392.94	53.83
393.13	163.84
393.33	159.16
393.52	86.60
393.71	168.52
393.91	142.77
394.10	110.01
394.29	117.03
394.49	84.26
394.68	110.01
394.88	175.54
395.07	161.50
395.26	110.01
395.46	182.56
395.65	149.79
395.84	126.39
396.04	170.86
396.23	81.92
396.42	49.15
396.62	138.09
396.81	128.73
397.00	131.07
397.19	91.28
397.39	180.22
397.58	145.11
397.77	93.62
397.97	154.48
398.16	79.58
398.35	131.07
398.55	102.98
398.74	126.39
398.93	166.18
399.12	86.60
399.32	152.13
399.51	100.64
399.70	102.98
399.90	149.79
400.09	88.94
400.28	128.73
400.47	112.35
400.67	119.37
400.86	102.98
401.05	79.58
401.24	243.42
401.44	147.45
401.63	152.13
401.82	170.86
402.01	112.35
402.21	159.16
402.40	147.45
402.59	145.11
402.78	163.84
402.97	128.73
403.17	201.29
403.36	212.99
403.55	236.39
403.74	465.77
403.93	1413.68
404.13	2843.75
404.32	3597.40
404.51	2874.18
404.70	1647.74
404.89	610.88
405.09	325.33
405.28	222.35
405.47	152.13
405.66	114.69
405.85	161.50
406.05	182.56
406.24	86.60
406.43	170.86
406.62	198.95
406.81	196.60
407.00	234.05
407.20	517.26
407.39	552.37
407.58	444.70
407.77	383.85
407.96	222.35
408.15	234.05
408.34	255.12
408.54	201.29
408.73	191.92
408.92	154.48
409.11	180.22
409.30	159.16
409.49	220.01
409.68	205.97
409.87	177.88
410.07	189.58
410.26	154.48
410.45	168.52
410.64	161.50
410.83	161.50
411.02	135.75
411.21	107.66
411.40	168.52
411.59	170.86
411.78	170.86
411.98	168.52
412.17	187.24
412.36	205.97
412.55	161.50
412.74	196.60
412.93	152.13
413.12	210.65
413.31	187.24
413.50	201.29
413.69	229.37
413.88	182.56
414.07	173.20
414.26	194.26
414.45	177.88
414.64	161.50
414.83	191.92
415.02	212.99
415.22	173.20
415.41	201.29
415.60	196.60
415.79	220.01
415.98	250.44
416.17	180.22
416.36	187.24
416.55	245.76
416.74	255.12
416.93	259.80
417.12	220.01
417.31	156.82
417.50	245.76
417.69	259.80
417.88	201.29
418.07	147.45
418.26	175.54
418.45	198.95
418.64	196.60
418.83	163.84
419.02	168.52
419.21	184.90
419.39	280.86
419.58	175.54
419.77	255.12
419.96	205.97
420.15	140.43
420.34	175.54
420.53	222.35
420.72	182.56
420.91	182.56
421.10	220.01
421.29	138.09
421.48	140.43
421.67	212.99
421.86	229.37
422.05	217.67
422.24	196.60
422.43	273.84
422.61	161.50
422.80	271.50
422.99	180.22
423.18	241.08
423.37	252.78
423.56	182.56
423.75	175.54
423.94	208.31
424.13	269.16
424.32	196.60
424.50	264.48
424.69	205.97
424.88	294.91
425.07	250.44
425.26	229.37
425.45	292.57
425.64	255.12
425.83	215.33
426.01	269.16
426.20	259.80
426.39	252.78
426.58	248.10
426.77	173.20
426.96	255.12
427.15	262.14
427.33	269.16
427.52	243.42
427.71	201.29
427.90	262.14
428.09	245.76
428.28	217.67
428.46	156.82
428.65	243.42
428.84	252.78
429.03	243.42
429.22	278.52
429.40	212.99
429.59	196.60
429.78	262.14
429.97	208.31
430.16	205.97
430.34	229.37
430.53	264.48
430.72	201.29
430.91	252.78
431.10	250.44
431.28	255.12
431.47	339.38
431.66	262.14
431.85	194.26
432.03	217.67
432.22	390.87
432.41	383.85
432.60	362.78
432.79	262.14
432.97	294.91
433.16	271.50
433.35	299.59
433.54	397.89
433.72	397.89
433.91	327.68
434.10	416.62
434.28	465.77
434.47	594.50
434.66	641.31
434.85	798.12
435.03	2242.23
435.22	8404.86
435.41	15859.47
435.59	14991.13
435.78	9430.02
435.97	4671.71
436.16	1792.85
436.34	805.14
436.53	503.22
436.72	428.32
436.90	379.17
437.09	355.76
437.28	332.36
437.46	311.29
437.65	327.68
437.84	334.70
438.02	365.12
438.21	337.04
438.40	341.72
438.58	318.31
438.77	341.72
438.96	315.97
439.14	344.06
439.33	266.82
439.52	344.06
439.70	374.49
439.89	369.80
440.08	341.72
440.26	283.20
440.45	365.12
440.63	325.33
440.82	290.23
441.01	395.55
441.19	327.68
441.38	301.93
441.57	269.16
441.75	348.74
441.94	290.23
442.12	264.48
442.31	320.65
442.50	194.26
442.68	341.72
442.87	306.61
443.05	334.70
443.24	292.57
443.43	344.06
443.61	407.25
443.80	393.21
443.98	294.91
444.17	308.95
444.35	318.31
444.54	278.52
444.73	341.72
444.91	255.12
445.10	259.80
445.28	252.78
445.47	248.10
445.65	322.99
445.84	222.35
446.02	215.33
446.21	311.29
446.39	341.72
446.58	358.10
446.77	231.71
446.95	297.25
447.14	332.36
447.32	388.53
447.51	360.44
447.69	245.76
447.88	234.05
448.06	351.08
448.25	266.82
448.43	252.78
448.62	315.97
448.80	315.97
448.99	344.06
449.17	313.63
449.36	341.72
449.54	287.89
449.73	229.37
449.91	386.19
450.10	339.38
450.28	334.70
450.46	315.97
450.65	332.36
450.83	315.97
451.02	299.59
451.20	362.78
451.39	315.97
451.57	285.55
451.76	266.82
451.94	285.55
452.13	299.59
452.31	325.33
452.49	313.63
452.68	222.35
452.86	301.93
453.05	322.99
453.23	311.29
453.42	292.57
453.60	250.44
453.78	241.08
453.97	255.12
454.15	257.46
454.34	280.86
454.52	339.38
454.70	297.25
454.89	358.10
455.07	332.36
455.26	257.46
455.44	283.20
455.62	311.29
455.81	227.03
455.99	322.99
456.17	315.97
456.36	346.40
456.54	278.52
456.73	264.48
456.91	339.38
457.09	308.95
457.28	217.67
457.46	224.69
457.64	330.02
457.83	318.31
458.01	318.31
458.19	280.86
458.38	285.55
458.56	292.57
458.74	332.36
458.93	285.55
459.11	273.84
459.29	264.48
459.48	264.48
459.66	330.02
459.84	250.44
460.03	351.08
460.21	327.68
460.39	308.95
460.57	325.33
460.76	320.65
460.94	262.14
461.12	304.27
461.31	315.97
461.49	259.80
461.67	287.89
461.85	271.50
462.04	325.33
462.22	409.59
462.40	241.08
462.59	243.42
462.77	311.29
462.95	299.59
463.13	271.50
463.32	344.06
463.50	266.82
463.68	301.93
463.86	304.27
464.05	273.84
464.23	346.40
464.41	299.59
464.59	287.89
464.78	224.69
464.96	355.76
465.14	248.10
465.32	299.59
465.50	400.23
465.69	348.74
465.87	320.65
466.05	273.84
466.23	231.71
466.41	238.73
466.60	381.51
466.78	238.73
466.96	285.55
467.14	243.42
467.32	414.27
467.51	318.31
467.69	252.78
467.87	297.25
468.05	241.08
468.23	344.06
468.41	292.57
468.60	290.23
468.78	355.76
468.96	227.03
469.14	311.29
469.32	252.78
469.50	250.44
469.69	315.97
469.87	360.44
470.05	278.52
470.23	290.23
470.41	285.55
470.59	215.33
470.77	248.10
470.95	215.33
471.14	294.91
471.32	262.14
471.50	334.70
471.68	294.91
471.86	276.18
472.04	301.93
472.22	360.44
472.40	252.78
472.58	259.80
472.77	252.78
472.95	306.61
473.13	348.74
473.31	325.33
473.49	271.50
473.67	238.73
473.85	362.78
474.03	285.55
474.21	330.02
474.39	259.80
474.57	318.31
474.75	285.55
474.93	306.61
475.12	311.29
475.30	315.97
475.48	280.86
475.66	351.08
475.84	220.01
476.02	301.93
476.20	362.78
476.38	294.91
476.56	332.36
476.74	285.55
476.92	238.73
477.10	327.68
477.28	395.55
477.46	290.23
477.64	250.44
477.82	287.89
478.00	285.55
478.18	351.08
478.36	351.08
478.54	365.12
478.72	304.27
478.90	308.95
479.08	306.61
479.26	428.32
479.44	297.25
479.62	273.84
479.80	341.72
479.98	421.30
480.16	344.06
480.34	379.17
480.52	351.08
480.70	416.62
480.88	390.87
481.06	393.21
481.24	407.25
481.41	507.90
481.59	587.47
481.77	486.83
481.95	503.22
482.13	645.99
482.31	550.03
482.49	662.37
482.67	695.14
482.85	699.82
483.03	777.06
483.21	699.82
483.39	807.48
483.57	807.48
483.74	854.30
483.92	947.92
484.10	866.00
484.28	1032.18
484.46	1172.61
484.64	1163.25
484.82	1186.65
485.00	1294.32
485.18	1301.34
485.35	1418.36
485.53	1327.08
485.71	1502.62
485.89	1488.58
486.07	1401.98
486.25	1654.76
486.43	1617.31
486.61	1610.29
486.78	1596.25
486.96	1584.54
487.14	1687.53
487.32	1549.43
487.50	1584.54
487.68	1600.93
487.85	1530.71
488.03	1533.05
488.21	1488.58
488.39	1483.90
488.57	1420.71
488.75	1385.60
488.92	1598.59
489.10	1320.06
489.28	1352.83
489.46	1261.55
489.64	1284.95
489.81	1280.27
489.99	1217.08
490.17	1299.00
490.35	1357.51
490.53	1184.31
490.70	1167.93
490.88	1217.08
491.06	1270.91
491.24	1324.74
491.41	1371.55
491.59	1277.93
491.77	1268.57
491.95	1151.54
492.13	1132.82
492.30	1095.37
492.48	1160.91
492.66	1114.10
492.84	1050.90
493.01	983.02
493.19	1062.60
493.37	1109.41
493.54	1034.52
493.72	999.41
493.90	973.66
494.08	866.00
494.25	1055.58
494.43	1020.47
494.61	924.51
494.79	997.07
494.96	1029.84
495.14	959.62
495.32	894.08
495.49	901.11
495.67	873.02
495.85	861.32
496.02	917.49
496.20	908.13
496.38	840.25
496.55	861.32
496.73	882.38
496.91	842.59
497.09	777.06
497.26	821.53
497.44	786.42
497.62	807.48
497.79	711.52
497.97	662.37
498.14	737.27
498.32	711.52
498.50	653.01
498.67	697.48
498.85	561.73
499.03	582.79
499.20	704.50
499.38	557.05
499.56	601.52
499.73	610.88
499.91	566.41
500.08	505.56
500.26	514.92
500.44	517.26
500.61	568.75
500.79	496.19
500.97	503.22
501.14	524.28
501.32	514.92
501.49	559.39
501.67	540.66
501.84	477.47
502.02	498.53
502.20	564.07
502.37	477.47
502.55	430.66
502.72	404.91
502.90	454.06
503.07	397.89
503.25	489.17
503.43	423.64
503.60	418.96
503.78	411.93
503.95	397.89
504.13	397.89
504.30	468.11
504.48	379.17
504.65	369.80
504.83	442.36
505.01	440.02
505.18	339.38
505.36	486.83
505.53	416.62
505.71	390.87
505.88	376.83
506.06	334.70
506.23	360.44
506.41	395.55
506.58	334.70
506.76	351.08
506.93	325.33
507.11	393.21
507.28	334.70
507.46	348.74
507.63	369.80
507.81	308.95
507.98	348.74
508.16	360.44
508.33	470.45
508.50	430.66
508.68	367.46
508.85	435.34
509.03	388.53
509.20	252.78
509.38	358.10
509.55	339.38
509.73	353.42
509.90	362.78
510.08	320.65
510.25	325.33
510.42	280.86
510.60	325.33
510.77	388.53
510.95	407.25
511.12	414.27
511.30	287.89
511.47	264.48
511.64	358.10
511.82	278.52
511.99	330.02
512.17	266.82
512.34	337.04
512.51	325.33
512.69	292.57
512.86	273.84
513.04	287.89
513.21	308.95
513.38	304.27
513.56	337.04
513.73	315.97
513.90	276.18
514.08	229.37
514.25	266.82
514.43	271.50
514.60	362.78
514.77	341.72
514.95	255.12
515.12	383.85
515.29	292.57
515.47	306.61
515.64	332.36
515.81	299.59
515.99	360.44
516.16	304.27
516.33	292.57
516.51	341.72
516.68	290.23
516.85	304.27
517.03	292.57
517.20	283.20
517.37	243.42
517.54	315.97
517.72	322.99
517.89	292.57
518.06	308.95
518.24	285.55
518.41	276.18
518.58	327.68
518.75	318.31
518.93	278.52
519.10	348.74
519.27	341.72
519.45	280.86
519.62	308.95
519.79	299.59
519.96	257.46
520.14	290.23
520.31	351.08
520.48	276.18
520.65	234.05
520.83	280.86
521.00	320.65
521.17	292.57
521.34	220.01
521.52	332.36
521.69	299.59
521.86	271.50
522.03	332.36
522.20	348.74
522.38	334.70
522.55	355.76
522.72	210.65
522.89	351.08
523.07	400.23
523.24	304.27
523.41	255.12
523.58	334.70
523.75	339.38
523.92	327.68
524.10	313.63
524.27	358.10
524.44	313.63
524.61	280.86
524.78	393.21
524.96	292.57
525.13	381.51
525.30	365.12
525.47	346.40
525.64	285.55
525.81	287.89
525.98	365.12
526.16	292.57
526.33	236.39
526.50	248.10
526.67	201.29
526.84	264.48
527.01	325.33
527.18	264.48
527.36	315.97
527.53	287.89
527.70	290.23
527.87	276.18
528.04	355.76
528.21	292.57
528.38	411.93
528.55	327.68
528.72	311.29
528.89	407.25
529.07	264.48
529.24	330.02
529.41	369.80
529.58	365.12
529.75	374.49
529.92	414.27
530.09	397.89
530.26	344.06
530.43	346.40
530.60	334.70
530.77	348.74
530.94	440.02
531.11	456.40
531.28	496.19
531.46	383.85
531.63	400.23
531.80	484.49
531.97	463.43
532.14	533.64
532.31	636.63
532.48	620.24
532.65	692.80
532.82	720.88
532.99	887.06
533.16	959.62
533.33	940.90
533.50	919.83
533.67	767.70
533.84	739.61
534.01	664.71
534.18	655.35
534.35	587.47
534.52	596.84
534.69	732.59
534.86	550.03
535.03	624.92
535.20	753.65
535.37	685.78
535.54	849.61
535.71	842.59
535.88	903.45
536.05	922.17
536.22	980.68
536.38	1022.81
536.55	1067.28
536.72	1181.97
536.89	1254.53
537.06	1364.53
537.23	1582.20
537.40	1708.59
537.57	1806.89
537.74	1975.41
537.91	1977.75
538.08	2033.93
538.25	1977.75
538.42	2066.69
538.59	2200.10
538.75	2169.68
538.92	2314.79
539.09	2565.23
539.26	2761.83
539.43	3052.06
539.60	3468.67
539.77	3957.85
539.94	4362.76
540.11	4957.25
540.28	5132.79
540.44	5715.59
540.61	6249.23
540.78	7258.00
540.95	8659.98
541.12	10279.63
541.29	11389.05
541.46	11733.11
541.62	11480.33
541.79	11059.03
541.96	10279.63
542.13	9554.07
542.30	9060.21
542.47	8341.67
542.63	7967.18
542.80	7838.45
542.97	7831.43
543.14	7648.87
543.31	7901.65
543.48	7812.71
543.64	8009.31
543.81	8255.07
543.98	7911.01
544.15	8159.11
544.32	8222.30
544.48	8194.22
544.65	7866.54
544.82	7854.84
544.99	7819.73
545.16	8105.28
545.32	8500.83
545.49	16460.99
545.66	28730.08
545.83	31974.06
546.00	25511.84
546.16	17645.30
546.33	13193.60
546.50	9975.36
546.67	8180.17
546.83	7155.02
547.00	6857.77
547.17	6527.75
547.34	6174.33
547.50	6019.86
547.67	5795.17
547.84	5420.68
548.00	5343.44
548.17	5315.36
548.34	5029.81
548.51	4875.34
548.67	4573.41
548.84	4514.89
549.01	4056.15
549.18	4018.70
549.34	3913.38
549.51	3779.97
549.68	3515.48
549.84	3396.12
550.01	3325.90
550.18	3218.24
550.34	3211.22
550.51	2920.99
550.68	2876.52
550.84	2670.55
551.01	2595.65
551.18	2403.73
551.34	2331.17
551.51	2136.91
551.68	2179.04
551.84	2111.16
552.01	1933.28
552.18	1865.41
552.34	1755.40
552.51	1797.53
552.68	1792.85
552.84	1605.61
553.01	1586.88
553.18	1633.69
553.34	1406.66
553.51	1537.73
553.67	1399.64
553.84	1401.98
554.01	1247.51
554.17	1060.26
554.34	1064.94
554.51	1100.05
554.67	1130.48
554.84	1050.90
555.00	966.64
555.17	917.49
555.33	887.06
555.50	819.19
555.67	847.27
555.83	863.66
556.00	725.57
556.16	898.77
556.33	699.82
556.50	765.36
556.66	678.76
556.83	660.03
556.99	692.80
557.16	692.80
557.32	634.29
557.49	547.69
557.65	540.66
557.82	538.32
557.98	657.69
558.15	571.09
558.32	575.77
558.48	568.75
558.65	540.66
558.81	514.92
558.98	470.45
559.14	517.26
559.31	559.39
559.47	493.85
559.64	482.15
559.80	582.79
559.97	475.13
560.13	484.49
560.30	449.38
560.46	379.17
560.63	482.15
560.79	505.56
560.96	458.74
561.12	479.81
561.29	519.60
561.45	468.11
561.61	505.56
561.78	594.50
561.94	517.26
562.11	531.30
562.27	505.56
562.44	458.74
562.60	477.47
562.77	491.51
562.93	444.70
563.10	407.25
563.26	390.87
563.42	435.34
563.59	475.13
563.75	456.40
563.92	461.09
564.08	472.79
564.24	510.24
564.41	475.13
564.57	402.57
564.74	330.02
564.90	491.51
565.07	482.15
565.23	418.96
565.39	454.06
565.56	449.38
565.72	400.23
565.88	407.25
566.05	407.25
566.21	369.80
566.38	493.85
566.54	330.02
566.70	430.66
566.87	430.66
567.03	449.38
567.19	341.72
567.36	404.91
567.52	379.17
567.68	423.64
567.85	428.32
568.01	320.65
568.17	327.68
568.34	381.51
568.50	465.77
568.66	369.80
568.83	447.04
568.99	388.53
569.15	411.93
569.32	367.46
569.48	383.85
569.64	327.68
569.81	407.25
569.97	344.06
570.13	327.68
570.30	381.51
570.46	311.29
570.62	306.61
570.78	311.29
570.95	374.49
571.11	397.89
571.27	397.89
571.43	290.23
571.60	341.72
571.76	351.08
571.92	395.55
572.09	297.25
572.25	362.78
572.41	341.72
572.57	250.44
572.74	428.32
572.90	411.93
573.06	397.89
573.22	355.76
573.38	379.17
573.55	442.36
573.71	416.62
573.87	369.80
574.03	376.83
574.20	374.49
574.36	397.89
574.52	285.55
574.68	433.00
574.84	475.13
575.01	393.21
575.17	418.96
575.33	451.72
575.49	477.47
575.65	425.98
575.82	571.09
575.98	638.97
576.14	568.75
576.30	1289.64
576.46	3768.26
576.62	5160.88
576.79	5146.84
576.95	3651.24
577.11	2492.67
577.27	1753.06
577.43	1249.85
577.59	875.36
577.75	713.86
577.92	739.61
578.08	653.01
578.24	718.54
578.40	1350.49
578.56	3531.87
578.72	4807.46
578.88	4844.91
579.04	3403.14
579.21	2399.05
579.37	1998.82
579.53	1617.31
579.69	1645.40
579.85	1909.88
580.01	2090.10
580.17	2031.58
580.33	1729.66
580.49	1561.14
580.65	1441.77
580.82	1350.49
580.98	1334.11
581.14	1228.78
581.30	1416.02
581.46	1488.58
581.62	1514.33
581.78	1734.34
581.94	1760.08
582.10	1907.54
582.26	1858.39
582.42	1973.07
582.58	2059.67
582.74	2026.90
582.90	2040.95
583.06	2101.80
583.22	2029.24
583.38	2057.33
583.54	2015.20
583.70	2129.89
583.86	2005.84
584.02	1966.05
584.18	2076.06
584.34	1898.17
584.50	1879.45
584.66	1839.66
584.82	1900.52
584.98	1839.66
585.14	1804.55
585.30	1746.04
585.46	1722.63
585.62	1755.40
585.78	1680.50
585.94	1689.87
586.10	1811.57
586.26	1970.73
586.42	2148.61
586.58	2647.15
586.74	3187.81
586.90	3700.39
587.06	3908.69
587.22	3733.15
587.38	3419.52
587.54	2981.84
587.70	2476.29
587.86	2235.21
588.02	1842.00
588.18	1703.91
588.34	1511.99
588.49	1371.55
588.65	1352.83
588.81	1280.27
588.97	1261.55
589.13	1240.48
589.29	1224.10
589.45	1310.70
589.61	1313.04
589.77	1188.99
589.93	1172.61
590.08	1181.97
590.24	1240.48
590.40	1331.76
590.56	1359.85
590.72	1364.53
590.88	1345.81
591.04	1404.32
591.20	1556.46
591.35	1549.43
591.51	1694.55
591.67	1708.59
591.83	1884.13
591.99	1923.92
592.15	2111.16
592.31	2200.10
592.46	2387.35
592.62	2689.28
592.78	2700.98
592.94	2787.58
593.10	2766.51
593.26	2537.14
593.41	2380.32
593.57	2090.10
593.73	1959.03
593.89	1762.42
594.05	1612.63
594.20	1380.92
594.36	1334.11
594.52	1310.70
594.68	1179.63
594.84	1144.52
594.99	1142.18
595.15	1097.71
595.31	1020.47
595.47	1142.18
595.62	1013.45
595.78	1111.75
595.94	1081.33
596.10	1057.92
596.25	1020.47
596.41	1097.71
596.57	1078.99
596.73	1135.16
596.88	1135.16
597.04	1078.99
597.20	1048.56
597.36	1057.92
597.51	1036.86
597.67	1163.25
597.83	1245.16
597.99	1315.38
598.14	1364.53
598.30	1413.68
598.46	1434.75
598.61	1605.61
598.77	1626.67
598.93	1699.23
599.09	1792.85
599.24	1729.66
599.40	1708.59
599.56	1621.99
599.71	1603.27
599.87	1460.49
600.03	1413.68
600.18	1418.36
600.34	1284.95
600.50	1205.38
600.65	1083.67
600.81	1207.72
600.97	1025.15
601.12	1027.50
601.28	1053.24
601.44	849.61
601.59	889.40
601.75	835.57
601.91	821.53
602.06	833.23
602.22	870.68
602.37	819.19
602.53	718.54
602.69	786.42
602.84	784.08
603.00	844.93
603.16	786.42
603.31	807.48
603.47	826.21
603.62	732.59
603.78	706.84
603.94	866.00
604.09	828.55
604.25	873.02
604.40	919.83
604.56	882.38
604.71	931.53
604.87	919.83
605.03	919.83
605.18	868.34
605.34	945.58
605.49	976.00
605.65	936.21
605.80	980.68
605.96	1046.22
606.12	1083.67
606.27	1107.07
606.43	1081.33
606.58	1128.14
606.74	1233.46
606.89	1254.53
607.05	1289.64
607.20	1338.79
607.36	1455.81
607.51	1509.65
607.67	1619.65
607.82	1717.95
607.98	1776.47
608.13	1954.35
608.29	2008.18
608.44	2368.62
608.60	2506.71
608.75	2605.02
608.91	2853.11
609.06	3208.87
609.22	3499.10
609.37	3761.24
609.53	4140.41
609.68	4697.46
609.84	5481.53
609.99	6438.81
610.15	7447.58
610.30	9432.36
610.46	12112.27
610.61	15611.37
610.76	19508.37
610.92	23765.80
611.07	26398.90
611.23	26476.14
611.38	24982.88
611.54	21715.49
611.69	18267.88
611.84	15077.73
612.00	12486.76
612.15	10766.46
612.31	9399.59
612.46	8524.23
612.62	7908.67
612.77	7494.40
612.92	6960.75
613.08	6682.23
613.23	6328.81
613.39	6071.35
613.54	5996.45
613.69	5699.20
613.85	5783.46
614.00	5710.91
614.15	5659.42
614.31	5579.84
614.46	5582.18
614.62	5287.27
614.77	5032.15
614.92	4748.95
615.08	4519.57
615.23	4046.79
615.38	3927.42
615.54	3487.40
615.69	3246.32
615.84	2895.24
616.00	2717.36
616.15	2569.91
616.30	2410.75
616.46	2284.36
616.61	2120.53
616.76	2129.89
616.92	1937.96
617.07	1830.30
617.22	1724.97
617.37	1724.97
617.53	1657.10
617.68	1661.78
617.83	1441.77
617.99	1514.33
618.14	1500.28
618.29	1350.49
618.45	1383.26
618.60	1380.92
618.75	1387.94
618.90	1380.92
619.06	1380.92
619.21	1343.47
619.36	1390.28
619.51	1376.24
619.67	1226.44
619.82	1315.38
619.97	1341.13
620.12	1453.47
620.28	1427.73
620.43	1362.19
620.58	1383.26
620.73	1441.77
620.89	1430.07
621.04	1474.54
621.19	1451.13
621.34	1390.28
621.49	1334.11
621.65	1310.70
621.80	1418.36
621.95	1303.68
622.10	1392.62
622.25	1362.19
622.41	1345.81
622.56	1343.47
622.71	1418.36
622.86	1460.49
623.01	1446.45
623.16	1558.80
623.32	1516.67
623.47	1439.43
623.62	1612.63
623.77	1582.20
623.92	1418.36
624.07	1483.90
624.23	1523.69
624.38	1432.41
624.53	1416.02
624.68	1462.83
624.83	1467.52
624.98	1600.93
625.13	1486.24
625.29	1600.93
625.44	1551.78
625.59	1561.14
625.74	1596.25
625.89	1565.82
626.04	1507.30
626.19	1572.84
626.34	1516.67
626.49	1451.13
626.65	1519.01
626.80	1514.33
626.95	1425.39
627.10	1481.56
627.25	1535.39
627.40	1359.85
627.55	1451.13
627.70	1441.77
627.85	1376.24
628.00	1366.87
628.15	1287.29
628.30	1397.30
628.45	1266.23
628.60	1254.53
628.76	1364.53
628.91	1355.17
629.06	1327.08
629.21	1409.00
629.36	1474.54
629.51	1451.13
629.66	1638.38
629.81	1689.87
629.96	1802.21
630.11	2001.16
630.26	2216.49
630.41	2410.75
630.56	2511.39
630.71	2654.17
630.86	2715.02
631.01	2825.03
631.16	2450.54
631.31	2321.81
631.46	1980.09
631.61	1781.15
631.76	1455.81
631.91	1181.97
632.06	1034.52
632.21	924.51
632.36	903.45
632.51	772.38
632.66	657.69
632.81	615.56
632.96	613.22
633.10	585.13
633.25	596.84
633.40	517.26
633.55	547.69
633.70	578.11
633.85	543.00
634.00	521.94
634.15	486.83
634.30	468.11
634.45	489.17
634.60	510.24
634.75	465.77
634.90	514.92
635.05	493.85
635.19	416.62
635.34	451.72
635.49	538.32
635.64	388.53
635.79	470.45
635.94	505.56
636.09	437.68
636.24	461.09
636.39	325.33
636.53	369.80
636.68	327.68
636.83	388.53
636.98	421.30
637.13	362.78
637.28	395.55
637.43	409.59
637.57	418.96
637.72	418.96
637.87	470.45
638.02	332.36
638.17	367.46
638.32	360.44
638.46	381.51
638.61	376.83
638.76	372.15
638.91	362.78
639.06	315.97
639.20	397.89
639.35	318.31
639.50	271.50
639.65	397.89
639.80	365.12
639.94	353.42
640.09	376.83
640.24	390.87
640.39	388.53
640.54	423.64
640.68	292.57
640.83	411.93
640.98	339.38
641.13	365.12
641.27	339.38
641.42	376.83
641.57	341.72
641.72	313.63
641.86	304.27
642.01	348.74
642.16	339.38
642.31	306.61
642.45	397.89
642.60	351.08
642.75	320.65
642.90	369.80
643.04	322.99
643.19	348.74
643.34	369.80
643.48	332.36
643.63	376.83
643.78	428.32
643.93	400.23
644.07	458.74
644.22	369.80
644.37	353.42
644.51	344.06
644.66	271.50
644.81	367.46
644.95	454.06
645.10	273.84
645.25	402.57
645.39	355.76
645.54	407.25
645.69	376.83
645.83	344.06
645.98	414.27
646.13	386.19
646.27	325.33
646.42	320.65
646.57	318.31
646.71	332.36
646.86	367.46
647.00	313.63
647.15	292.57
647.30	372.15
647.44	341.72
647.59	297.25
647.74	248.10
647.88	280.86
648.03	234.05
648.17	365.12
648.32	365.12
648.47	348.74
648.61	344.06
648.76	334.70
648.90	423.64
649.05	362.78
649.20	353.42
649.34	425.98
649.49	379.17
649.63	503.22
649.78	627.26
649.92	671.73
650.07	809.83
650.21	767.70
650.36	823.87
650.51	823.87
650.65	732.59
650.80	685.78
650.94	641.31
651.09	564.07
651.23	512.58
651.38	545.34
651.52	512.58
651.67	440.02
651.81	360.44
651.96	430.66
652.10	383.85
652.25	313.63
652.39	372.15
652.54	519.60
652.68	449.38
652.83	528.96
652.97	517.26
653.12	521.94
653.26	444.70
653.41	449.38
653.55	425.98
653.70	475.13
653.84	318.31
653.99	379.17
654.13	367.46
654.27	372.15
654.42	376.83
654.56	344.06
654.71	365.12
654.85	358.10
655.00	351.08
655.14	339.38
655.29	341.72
655.43	327.68
655.57	259.80
655.72	287.89
655.86	285.55
656.01	285.55
656.15	271.50
656.30	367.46
656.44	327.68
656.58	344.06
656.73	341.72
656.87	278.52
657.01	325.33
657.16	351.08
657.30	374.49
657.45	372.15
657.59	381.51
657.73	313.63
657.88	362.78
658.02	390.87
658.16	355.76
658.31	423.64
658.45	351.08
658.60	292.57
658.74	311.29
658.88	238.73
659.03	217.67
659.17	236.39
659.31	203.63
659.46	297.25
659.60	390.87
659.74	308.95
659.89	217.67
660.03	280.86
660.17	294.91
660.32	276.18
660.46	259.80
660.60	276.18
660.74	238.73
660.89	269.16
661.03	234.05
661.17	255.12
661.32	294.91
661.46	322.99
661.60	421.30
661.74	414.27
661.89	489.17
662.03	533.64
662.17	594.50
662.31	596.84
662.46	613.22
662.60	594.50
662.74	418.96
662.88	451.72
663.03	496.19
663.17	379.17
663.31	276.18
663.45	313.63
663.60	327.68
663.74	386.19
663.88	308.95
664.02	234.05
664.17	292.57
664.31	175.54
664.45	255.12
664.59	243.42
664.73	299.59
664.88	292.57
665.02	271.50
665.16	208.31
665.30	358.10
665.44	252.78
665.59	313.63
665.73	250.44
665.87	334.70
666.01	212.99
666.15	191.92
666.29	339.38
666.44	269.16
666.58	301.93
666.72	334.70
666.86	245.76
667.00	203.63
667.14	269.16
667.28	266.82
667.43	222.35
667.57	215.33
667.71	283.20
667.85	301.93
667.99	313.63
668.13	299.59
668.27	262.14
668.41	252.78
668.56	299.59
668.70	299.59
668.84	177.88
668.98	212.99
669.12	273.84
669.26	229.37
669.40	320.65
669.54	290.23
669.68	360.44
669.82	208.31
669.96	212.99
670.10	259.80
670.25	308.95
670.39	175.54
670.53	234.05
670.67	271.50
670.81	187.24
670.95	191.92
671.09	280.86
671.23	325.33
671.37	238.73
671.51	236.39
671.65	222.35
671.79	266.82
671.93	290.23
672.07	285.55
672.21	255.12
672.35	245.76
672.49	318.31
672.63	322.99
672.77	285.55
672.91	248.10
673.05	231.71
673.19	203.63
673.33	266.82
673.47	292.57
673.61	217.67
673.75	269.16
673.89	248.10
674.03	229.37
674.17	269.16
674.31	187.24
674.45	304.27
674.59	241.08
674.73	208.31
674.87	217.67
675.01	327.68
675.15	245.76
675.29	259.80
675.43	234.05
675.56	290.23
675.70	229.37
675.84	205.97
675.98	128.73
676.12	205.97
676.26	182.56
676.40	248.10
676.54	217.67
676.68	182.56
676.82	229.37
676.96	238.73
677.10	201.29
677.23	234.05
677.37	149.79
677.51	205.97
677.65	273.84
677.79	231.71
677.93	241.08
678.07	117.03
678.21	222.35
678.34	152.13
678.48	180.22
678.62	231.71
678.76	159.16
678.90	248.10
679.04	231.71
679.18	163.84
679.31	208.31
679.45	180.22
679.59	173.20
679.73	180.22
679.87	194.26
680.00	276.18
680.14	182.56
680.28	220.01
680.42	257.46
680.56	236.39
680.70	236.39
680.83	227.03
680.97	149.79
681.11	266.82
681.25	215.33
681.39	243.42
681.52	227.03
681.66	198.95
681.80	257.46
681.94	187.24
682.07	166.18
682.21	222.35
682.35	175.54
682.49	184.90
682.62	245.76
682.76	161.50
682.90	189.58
683.04	243.42
683.17	191.92
683.31	234.05
683.45	117.03
683.59	229.37
683.72	168.52
683.86	173.20
684.00	161.50
684.13	224.69
684.27	222.35
684.41	238.73
684.55	250.44
684.68	201.29
684.82	187.24
684.96	234.05
685.09	278.52
685.23	201.29
685.37	170.86
685.50	215.33
685.64	203.63
685.78	182.56
685.91	222.35
686.05	182.56
686.19	196.60
686.32	269.16
686.46	198.95
686.60	208.31
686.73	311.29
686.87	264.48
687.01	327.68
687.14	304.27
687.28	283.20
687.42	362.78
687.55	341.72
687.69	362.78
687.82	234.05
687.96	353.42
688.10	341.72
688.23	355.76
688.37	358.10
688.50	227.03
688.64	341.72
688.78	189.58
688.91	276.18
689.05	205.97
689.18	255.12
689.32	212.99
689.46	252.78
689.59	220.01
689.73	194.26
689.86	149.79
690.00	177.88
690.13	170.86
690.27	149.79
690.41	191.92
690.54	210.65
690.68	210.65
690.81	184.90
690.95	126.39
691.08	175.54
691.22	149.79
691.35	166.18
691.49	98.30
691.62	208.31
691.76	173.20
691.89	152.13
692.03	124.05
692.16	140.43
692.30	201.29
692.43	156.82
692.57	156.82
692.70	156.82
692.84	238.73
692.97	142.77
693.11	147.45
693.24	182.56
693.38	205.97
693.51	262.14
693.65	280.86
693.78	245.76
693.92	257.46
694.05	292.57
694.19	163.84
694.32	201.29
694.45	222.35
694.59	135.75
694.72	236.39
694.86	173.20
694.99	184.90
695.13	252.78
695.26	107.66
695.39	145.11
695.53	159.16
695.66	95.96
695.80	168.52
695.93	95.96
696.07	88.94
696.20	168.52
696.33	220.01
696.47	88.94
696.60	203.63
696.73	166.18
696.87	147.45
697.00	198.95
697.14	196.60
697.27	131.07
697.40	234.05
697.54	156.82
697.67	182.56
697.80	131.07
697.94	98.30
698.07	161.50
698.21	121.71
698.34	198.95
698.47	189.58
698.61	133.41
698.74	182.56
698.87	135.75
699.01	152.13
699.14	161.50
699.27	205.97
699.40	187.24
699.54	194.26
699.67	159.16
699.80	110.01
699.94	142.77
700.07	124.05
700.20	142.77
700.34	159.16
700.47	154.48
700.60	51.49
700.73	175.54
700.87	147.45
701.00	156.82
701.13	168.52
701.26	198.95
701.40	156.82
701.53	124.05
701.66	145.11
701.79	95.96
701.93	133.41
702.06	203.63
702.19	163.84
702.32	112.35
702.46	88.94
702.59	135.75
702.72	135.75
702.85	205.97
702.99	154.48
703.12	161.50
703.25	138.09
703.38	166.18
703.51	168.52
703.65	105.32
703.78	196.60
703.91	198.95
704.04	229.37
704.17	166.18
704.31	224.69
704.44	131.07
704.57	191.92
704.70	198.95
704.83	135.75
704.96	142.77
705.10	173.20
705.23	182.56
>>>>>End Processed Spectral Data<<<<<
