SpectraSuite Data File
++++++++++++++++++++++++++++++++++++
Date: Fri Oct 04 11:42:29 GMT-05:00 2013
User: price-jones
Dark Spectrum Present: No
Reference Spectrum Present: No
Number of Sampled Component Spectra: 1
Spectrometers: USB2+H05261
Integration Time (usec): 100000 (USB2+H05261)
Spectra Averaged: 1 (USB2+H05261)
Boxcar Smoothing: 0 (USB2+H05261)
Correct for Electrical Dark: No (USB2+H05261)
Strobe/Lamp Enabled: No (USB2+H05261)
Correct for Detector Non-linearity: No (USB2+H05261)
Correct for Stray Light: No (USB2+H05261)
Number of Pixels in Processed Spectrum: 2048
>>>>>Begin Processed Spectral Data<<<<<
365.73	53.83
365.92	53.83
366.12	53.83
366.32	0.00
366.52	0.00
366.72	28.09
366.91	0.00
367.11	0.00
367.31	0.00
367.51	0.00
367.70	0.00
367.90	0.00
368.10	0.00
368.30	0.00
368.49	0.00
368.69	0.00
368.89	0.00
369.09	0.00
369.28	0.00
369.48	0.00
369.68	0.00
369.87	0.00
370.07	25.75
370.27	0.00
370.47	0.00
370.66	105.32
370.86	16.38
371.06	39.79
371.25	102.98
371.45	84.26
371.65	131.07
371.84	37.45
372.04	51.49
372.24	53.83
372.44	98.30
372.63	84.26
372.83	145.11
373.03	147.45
373.22	58.51
373.42	46.81
373.62	180.22
373.81	100.64
374.01	140.43
374.21	119.37
374.40	114.69
374.60	147.45
374.79	81.92
374.99	142.77
375.19	86.60
375.38	152.13
375.58	140.43
375.78	154.48
375.97	107.66
376.17	191.92
376.37	152.13
376.56	77.24
376.76	107.66
376.95	95.96
377.15	128.73
377.35	142.77
377.54	51.49
377.74	140.43
377.93	112.35
378.13	156.82
378.33	49.15
378.52	91.28
378.72	166.18
378.91	142.77
379.11	93.62
379.31	88.94
379.50	91.28
379.70	88.94
379.89	156.82
380.09	119.37
380.28	88.94
380.48	95.96
380.68	147.45
380.87	77.24
381.07	145.11
381.26	175.54
381.46	79.58
381.65	182.56
381.85	205.97
382.04	74.90
382.24	77.24
382.43	133.41
382.63	93.62
382.83	84.26
383.02	149.79
383.22	65.54
383.41	79.58
383.61	117.03
383.80	114.69
384.00	102.98
384.19	84.26
384.39	117.03
384.58	107.66
384.78	142.77
384.97	74.90
385.17	91.28
385.36	98.30
385.56	149.79
385.75	74.90
385.95	135.75
386.14	91.28
386.34	107.66
386.53	166.18
386.72	91.28
386.92	81.92
387.11	145.11
387.31	100.64
387.50	121.71
387.70	208.31
387.89	58.51
388.09	49.15
388.28	154.48
388.48	152.13
388.67	147.45
388.86	135.75
389.06	63.19
389.25	86.60
389.45	140.43
389.64	102.98
389.84	184.90
390.03	147.45
390.22	173.20
390.42	124.05
390.61	63.19
390.81	37.45
391.00	124.05
391.19	140.43
391.39	65.54
391.58	88.94
391.78	159.16
391.97	210.65
392.16	46.81
392.36	107.66
392.55	208.31
392.75	152.13
392.94	100.64
393.13	65.54
393.33	58.51
393.52	84.26
393.71	91.28
393.91	110.01
394.10	140.43
394.29	159.16
394.49	56.17
394.68	177.88
394.88	138.09
395.07	168.52
395.26	152.13
395.46	140.43
395.65	117.03
395.84	110.01
396.04	187.24
396.23	93.62
396.42	180.22
396.62	142.77
396.81	140.43
397.00	91.28
397.19	203.63
397.39	128.73
397.58	140.43
397.77	147.45
397.97	105.32
398.16	133.41
398.35	147.45
398.55	126.39
398.74	86.60
398.93	140.43
399.12	128.73
399.32	161.50
399.51	124.05
399.70	152.13
399.90	79.58
400.09	88.94
400.28	124.05
400.47	163.84
400.67	81.92
400.86	91.28
401.05	177.88
401.24	131.07
401.44	191.92
401.63	140.43
401.82	184.90
402.01	60.85
402.21	147.45
402.40	147.45
402.59	250.44
402.78	154.48
402.97	121.71
403.17	154.48
403.36	229.37
403.55	205.97
403.74	411.93
403.93	1118.78
404.13	2380.32
404.32	2518.42
404.51	2003.50
404.70	1245.16
404.89	454.06
405.09	248.10
405.28	182.56
405.47	131.07
405.66	163.84
405.85	175.54
406.05	84.26
406.24	149.79
406.43	191.92
406.62	234.05
406.81	224.69
407.00	231.71
407.20	425.98
407.39	468.11
407.58	451.72
407.77	292.57
407.96	255.12
408.15	210.65
408.34	191.92
408.54	182.56
408.73	156.82
408.92	121.71
409.11	175.54
409.30	196.60
409.49	177.88
409.68	173.20
409.87	156.82
410.07	131.07
410.26	110.01
410.45	191.92
410.64	149.79
410.83	156.82
411.02	102.98
411.21	191.92
411.40	210.65
411.59	163.84
411.78	170.86
411.98	133.41
412.17	154.48
412.36	217.67
412.55	95.96
412.74	131.07
412.93	180.22
413.12	126.39
413.31	273.84
413.50	175.54
413.69	203.63
413.88	257.46
414.07	131.07
414.26	161.50
414.45	170.86
414.64	86.60
414.83	229.37
415.02	215.33
415.22	189.58
415.41	152.13
415.60	159.16
415.79	135.75
415.98	187.24
416.17	212.99
416.36	222.35
416.55	149.79
416.74	163.84
416.93	166.18
417.12	170.86
417.31	170.86
417.50	102.98
417.69	234.05
417.88	203.63
418.07	117.03
418.26	147.45
418.45	110.01
418.64	280.86
418.83	210.65
419.02	194.26
419.21	168.52
419.39	182.56
419.58	224.69
419.77	161.50
419.96	227.03
420.15	187.24
420.34	208.31
420.53	170.86
420.72	198.95
420.91	107.66
421.10	184.90
421.29	252.78
421.48	234.05
421.67	236.39
421.86	168.52
422.05	257.46
422.24	187.24
422.43	194.26
422.61	227.03
422.80	187.24
422.99	184.90
423.18	208.31
423.37	222.35
423.56	182.56
423.75	159.16
423.94	119.37
424.13	159.16
424.32	191.92
424.50	201.29
424.69	182.56
424.88	255.12
425.07	194.26
425.26	175.54
425.45	220.01
425.64	177.88
425.83	255.12
426.01	145.11
426.20	229.37
426.39	212.99
426.58	236.39
426.77	224.69
426.96	248.10
427.15	227.03
427.33	180.22
427.52	250.44
427.71	215.33
427.90	248.10
428.09	159.16
428.28	173.20
428.46	262.14
428.65	184.90
428.84	241.08
429.03	203.63
429.22	217.67
429.40	271.50
429.59	166.18
429.78	262.14
429.97	180.22
430.16	114.69
430.34	187.24
430.53	194.26
430.72	271.50
430.91	196.60
431.10	194.26
431.28	250.44
431.47	243.42
431.66	231.71
431.85	217.67
432.03	292.57
432.22	292.57
432.41	173.20
432.60	304.27
432.79	301.93
432.97	257.46
433.16	285.55
433.35	294.91
433.54	297.25
433.72	311.29
433.91	332.36
434.10	299.59
434.28	517.26
434.47	477.47
434.66	510.24
434.85	660.03
435.03	2090.10
435.22	7129.27
435.41	11864.18
435.59	10729.02
435.78	6843.73
435.97	3316.54
436.16	1399.64
436.34	559.39
436.53	386.19
436.72	393.21
436.90	313.63
437.09	365.12
437.28	322.99
437.46	313.63
437.65	285.55
437.84	301.93
438.02	273.84
438.21	170.86
438.40	297.25
438.58	271.50
438.77	201.29
438.96	257.46
439.14	271.50
439.33	273.84
439.52	217.67
439.70	292.57
439.89	264.48
440.08	273.84
440.26	285.55
440.45	287.89
440.63	318.31
440.82	301.93
441.01	304.27
441.19	315.97
441.38	227.03
441.57	224.69
441.75	315.97
441.94	285.55
442.12	278.52
442.31	269.16
442.50	271.50
442.68	271.50
442.87	250.44
443.05	294.91
443.24	180.22
443.43	351.08
443.61	264.48
443.80	248.10
443.98	285.55
444.17	278.52
444.35	348.74
444.54	304.27
444.73	283.20
444.91	308.95
445.10	264.48
445.28	299.59
445.47	271.50
445.65	208.31
445.84	280.86
446.02	283.20
446.21	271.50
446.39	259.80
446.58	322.99
446.77	311.29
446.95	229.37
447.14	280.86
447.32	334.70
447.51	259.80
447.69	325.33
447.88	229.37
448.06	278.52
448.25	330.02
448.43	224.69
448.62	210.65
448.80	238.73
448.99	287.89
449.17	332.36
449.36	238.73
449.54	315.97
449.73	208.31
449.91	325.33
450.10	222.35
450.28	273.84
450.46	372.15
450.65	308.95
450.83	243.42
451.02	182.56
451.20	257.46
451.39	313.63
451.57	236.39
451.76	243.42
451.94	248.10
452.13	325.33
452.31	306.61
452.49	259.80
452.68	304.27
452.86	245.76
453.05	315.97
453.23	280.86
453.42	306.61
453.60	215.33
453.78	299.59
453.97	198.95
454.15	264.48
454.34	266.82
454.52	220.01
454.70	257.46
454.89	308.95
455.07	299.59
455.26	231.71
455.44	308.95
455.62	273.84
455.81	304.27
455.99	327.68
456.17	234.05
456.36	365.12
456.54	198.95
456.73	315.97
456.91	215.33
457.09	306.61
457.28	294.91
457.46	318.31
457.64	315.97
457.83	250.44
458.01	264.48
458.19	299.59
458.38	252.78
458.56	308.95
458.74	264.48
458.93	280.86
459.11	304.27
459.29	238.73
459.48	250.44
459.66	283.20
459.84	273.84
460.03	395.55
460.21	322.99
460.39	229.37
460.57	325.33
460.76	337.04
460.94	257.46
461.12	299.59
461.31	280.86
461.49	283.20
461.67	227.03
461.85	269.16
462.04	320.65
462.22	409.59
462.40	227.03
462.59	259.80
462.77	297.25
462.95	255.12
463.13	224.69
463.32	264.48
463.50	299.59
463.68	264.48
463.86	236.39
464.05	264.48
464.23	269.16
464.41	337.04
464.59	304.27
464.78	332.36
464.96	215.33
465.14	234.05
465.32	250.44
465.50	299.59
465.69	276.18
465.87	264.48
466.05	241.08
466.23	241.08
466.41	320.65
466.60	337.04
466.78	306.61
466.96	245.76
467.14	330.02
467.32	215.33
467.51	283.20
467.69	276.18
467.87	334.70
468.05	278.52
468.23	234.05
468.41	269.16
468.60	278.52
468.78	196.60
468.96	287.89
469.14	273.84
469.32	262.14
469.50	287.89
469.69	259.80
469.87	191.92
470.05	243.42
470.23	257.46
470.41	147.45
470.59	306.61
470.77	259.80
470.95	266.82
471.14	278.52
471.32	234.05
471.50	346.40
471.68	241.08
471.86	285.55
472.04	198.95
472.22	222.35
472.40	304.27
472.58	271.50
472.77	285.55
472.95	210.65
473.13	276.18
473.31	301.93
473.49	248.10
473.67	180.22
473.85	301.93
474.03	334.70
474.21	306.61
474.39	259.80
474.57	280.86
474.75	257.46
474.93	320.65
475.12	236.39
475.30	278.52
475.48	311.29
475.66	283.20
475.84	330.02
476.02	238.73
476.20	283.20
476.38	283.20
476.56	367.46
476.74	301.93
476.92	257.46
477.10	332.36
477.28	257.46
477.46	156.82
477.64	248.10
477.82	264.48
478.00	241.08
478.18	278.52
478.36	308.95
478.54	262.14
478.72	238.73
478.90	278.52
479.08	346.40
479.26	304.27
479.44	287.89
479.62	334.70
479.80	341.72
479.98	327.68
480.16	315.97
480.34	369.80
480.52	367.46
480.70	299.59
480.88	322.99
481.06	360.44
481.24	425.98
481.41	386.19
481.59	493.85
481.77	475.13
481.95	437.68
482.13	519.60
482.31	425.98
482.49	507.90
482.67	573.43
482.85	603.86
483.03	573.43
483.21	692.80
483.39	678.76
483.57	713.86
483.74	908.13
483.92	751.31
484.10	744.29
484.28	844.93
484.46	840.25
484.64	950.26
484.82	908.13
485.00	924.51
485.18	1062.60
485.35	1191.33
485.53	1179.63
485.71	1167.93
485.89	1163.25
486.07	1174.95
486.25	1270.91
486.43	1306.02
486.61	1224.10
486.78	1331.76
486.96	1231.12
487.14	1303.68
487.32	1299.00
487.50	1247.51
487.68	1301.34
487.85	1219.42
488.03	1128.14
488.21	1214.74
488.39	1242.82
488.57	1146.86
488.75	1060.26
488.92	1261.55
489.10	1158.57
489.28	1123.46
489.46	1034.52
489.64	1130.48
489.81	997.07
489.99	1027.50
490.17	959.62
490.35	1029.84
490.53	1022.81
490.70	1027.50
490.88	1006.43
491.06	1078.99
491.24	1170.27
491.41	1139.84
491.59	985.37
491.77	966.64
491.95	980.68
492.13	889.40
492.30	968.98
492.48	896.43
492.66	917.49
492.84	896.43
493.01	889.40
493.19	772.38
493.37	875.36
493.54	854.30
493.72	856.64
493.90	828.55
494.08	786.42
494.25	875.36
494.43	880.04
494.61	856.64
494.79	727.91
494.96	765.36
495.14	725.57
495.32	746.63
495.49	699.82
495.67	683.44
495.85	697.48
496.02	697.48
496.20	695.14
496.38	648.33
496.55	699.82
496.73	739.61
496.91	599.18
497.09	692.80
497.26	617.90
497.44	664.71
497.62	660.03
497.79	676.41
497.97	599.18
498.14	748.97
498.32	653.01
498.50	594.50
498.67	540.66
498.85	571.09
499.03	592.16
499.20	582.79
499.38	519.60
499.56	561.73
499.73	564.07
499.91	554.71
500.08	547.69
500.26	545.34
500.44	528.96
500.61	451.72
500.79	404.91
500.97	500.87
501.14	503.22
501.32	472.79
501.49	430.66
501.67	437.68
501.84	402.57
502.02	351.08
502.20	433.00
502.37	402.57
502.55	428.32
502.72	435.34
502.90	409.59
503.07	386.19
503.25	365.12
503.43	304.27
503.60	344.06
503.78	411.93
503.95	325.33
504.13	322.99
504.30	355.76
504.48	360.44
504.65	353.42
504.83	376.83
505.01	313.63
505.18	332.36
505.36	381.51
505.53	369.80
505.71	318.31
505.88	383.85
506.06	360.44
506.23	337.04
506.41	330.02
506.58	287.89
506.76	278.52
506.93	355.76
507.11	362.78
507.28	322.99
507.46	318.31
507.63	376.83
507.81	304.27
507.98	322.99
508.16	311.29
508.33	320.65
508.50	320.65
508.68	383.85
508.85	283.20
509.03	325.33
509.20	360.44
509.38	341.72
509.55	360.44
509.73	390.87
509.90	355.76
510.08	341.72
510.25	327.68
510.42	339.38
510.60	334.70
510.77	351.08
510.95	362.78
511.12	348.74
511.30	306.61
511.47	276.18
511.64	322.99
511.82	369.80
511.99	297.25
512.17	353.42
512.34	259.80
512.51	224.69
512.69	184.90
512.86	315.97
513.04	358.10
513.21	334.70
513.38	308.95
513.56	304.27
513.73	339.38
513.90	234.05
514.08	227.03
514.25	376.83
514.43	266.82
514.60	248.10
514.77	297.25
514.95	320.65
515.12	229.37
515.29	280.86
515.47	332.36
515.64	262.14
515.81	273.84
515.99	330.02
516.16	388.53
516.33	397.89
516.51	243.42
516.68	276.18
516.85	294.91
517.03	304.27
517.20	252.78
517.37	292.57
517.54	283.20
517.72	248.10
517.89	276.18
518.06	245.76
518.24	351.08
518.41	299.59
518.58	320.65
518.75	262.14
518.93	276.18
519.10	318.31
519.27	264.48
519.45	294.91
519.62	269.16
519.79	276.18
519.96	271.50
520.14	292.57
520.31	248.10
520.48	287.89
520.65	252.78
520.83	280.86
521.00	283.20
521.17	252.78
521.34	264.48
521.52	290.23
521.69	306.61
521.86	304.27
522.03	280.86
522.20	374.49
522.38	198.95
522.55	210.65
522.72	250.44
522.89	273.84
523.07	330.02
523.24	308.95
523.41	299.59
523.58	308.95
523.75	322.99
523.92	280.86
524.10	330.02
524.27	287.89
524.44	287.89
524.61	313.63
524.78	243.42
524.96	264.48
525.13	243.42
525.30	383.85
525.47	297.25
525.64	330.02
525.81	421.30
525.98	341.72
526.16	299.59
526.33	273.84
526.50	294.91
526.67	264.48
526.84	271.50
527.01	332.36
527.18	292.57
527.36	348.74
527.53	353.42
527.70	308.95
527.87	344.06
528.04	428.32
528.21	334.70
528.38	367.46
528.55	301.93
528.72	365.12
528.89	351.08
529.07	255.12
529.24	264.48
529.41	264.48
529.58	407.25
529.75	322.99
529.92	294.91
530.09	304.27
530.26	334.70
530.43	386.19
530.60	418.96
530.77	379.17
530.94	372.15
531.11	341.72
531.28	355.76
531.46	369.80
531.63	465.77
531.80	400.23
531.97	402.57
532.14	475.13
532.31	444.70
532.48	559.39
532.65	657.69
532.82	676.41
532.99	765.36
533.16	854.30
533.33	821.53
533.50	777.06
533.67	704.50
533.84	636.63
534.01	587.47
534.18	561.73
534.35	550.03
534.52	631.94
534.69	660.03
534.86	608.54
535.03	638.97
535.20	664.71
535.37	678.76
535.54	706.84
535.71	725.57
535.88	816.85
536.05	812.17
536.22	786.42
536.38	954.94
536.55	835.57
536.72	1046.22
536.89	1046.22
537.06	1193.67
537.23	1263.89
537.40	1399.64
537.57	1387.94
537.74	1563.48
537.91	1727.32
538.08	1708.59
538.25	1593.90
538.42	1638.38
538.59	1727.32
538.75	1860.73
538.92	1849.02
539.09	2017.54
539.26	2340.54
539.43	2576.93
539.60	2799.28
539.77	3208.87
539.94	3599.74
540.11	3847.84
540.28	4306.59
540.44	4542.98
540.61	5118.75
540.78	5893.47
540.95	7089.48
541.12	8016.33
541.29	8865.95
541.46	9287.25
541.62	8954.89
541.79	8819.14
541.96	8191.88
542.13	7522.48
542.30	7110.55
542.47	6719.68
542.63	6356.90
542.80	6384.98
542.97	6204.76
543.14	6169.65
543.31	6132.20
543.48	6272.64
543.64	6274.98
543.81	6375.62
543.98	6399.02
544.15	6429.45
544.32	6403.71
544.48	6211.78
544.65	6331.15
544.82	6324.13
544.99	6476.26
545.16	6366.26
545.32	6939.69
545.49	14148.54
545.66	22640.00
545.83	24978.20
546.00	19953.07
546.16	14080.66
546.33	10541.77
546.50	7857.18
546.67	6354.55
546.83	5666.44
547.00	5287.27
547.17	5214.71
547.34	5055.56
547.50	4840.23
547.67	4491.49
547.84	4416.59
548.00	4404.89
548.17	4198.92
548.34	3943.80
548.51	3892.31
548.67	3726.13
548.84	3456.97
549.01	3321.22
549.18	3150.36
549.34	3091.85
549.51	3049.72
549.68	2949.08
549.84	2775.88
550.01	2600.34
550.18	2534.80
550.34	2485.65
550.51	2431.82
550.68	2244.57
550.84	2129.89
551.01	2069.03
551.18	1966.05
551.34	1858.39
551.51	1832.64
551.68	1746.04
551.84	1741.36
552.01	1598.59
552.18	1614.97
552.34	1526.03
552.51	1495.60
552.68	1324.74
552.84	1291.98
553.01	1303.68
553.18	1252.19
553.34	1179.63
553.51	1139.84
553.67	1205.38
553.84	1149.20
554.01	1046.22
554.17	1006.43
554.34	917.49
554.51	894.08
554.67	910.47
554.84	798.12
555.00	802.80
555.17	777.06
555.33	770.04
555.50	730.25
555.67	678.76
555.83	655.35
556.00	655.35
556.16	919.83
556.33	601.52
556.50	610.88
556.66	517.26
556.83	606.20
556.99	603.86
557.16	608.54
557.32	571.09
557.49	519.60
557.65	545.34
557.82	503.22
557.98	498.53
558.15	517.26
558.32	496.19
558.48	498.53
558.65	524.28
558.81	550.03
558.98	430.66
559.14	505.56
559.31	437.68
559.47	423.64
559.64	430.66
559.80	484.49
559.97	376.83
560.13	423.64
560.30	423.64
560.46	407.25
560.63	397.89
560.79	449.38
560.96	418.96
561.12	470.45
561.29	514.92
561.45	400.23
561.61	414.27
561.78	454.06
561.94	451.72
562.11	416.62
562.27	463.43
562.44	409.59
562.60	400.23
562.77	407.25
562.93	491.51
563.10	442.36
563.26	475.13
563.42	430.66
563.59	395.55
563.75	458.74
563.92	395.55
564.08	414.27
564.24	402.57
564.41	409.59
564.57	290.23
564.74	217.67
564.90	430.66
565.07	379.17
565.23	397.89
565.39	388.53
565.56	339.38
565.72	379.17
565.88	327.68
566.05	344.06
566.21	341.72
566.38	315.97
566.54	348.74
566.70	344.06
566.87	315.97
567.03	383.85
567.19	374.49
567.36	433.00
567.52	379.17
567.68	386.19
567.85	372.15
568.01	393.21
568.17	325.33
568.34	325.33
568.50	400.23
568.66	362.78
568.83	454.06
568.99	411.93
569.15	285.55
569.32	318.31
569.48	393.21
569.64	322.99
569.81	332.36
569.97	308.95
570.13	285.55
570.30	266.82
570.46	215.33
570.62	341.72
570.78	285.55
570.95	337.04
571.11	292.57
571.27	311.29
571.43	243.42
571.60	301.93
571.76	311.29
571.92	306.61
572.09	376.83
572.25	390.87
572.41	411.93
572.57	290.23
572.74	353.42
572.90	358.10
573.06	369.80
573.22	318.31
573.38	404.91
573.55	334.70
573.71	365.12
573.87	390.87
574.03	341.72
574.20	414.27
574.36	383.85
574.52	315.97
574.68	299.59
574.84	381.51
575.01	414.27
575.17	409.59
575.33	425.98
575.49	409.59
575.65	458.74
575.82	472.79
575.98	479.81
576.14	610.88
576.30	1179.63
576.46	3089.51
576.62	4266.80
576.79	4182.54
576.95	3112.91
577.11	2314.79
577.27	1495.60
577.43	999.41
577.59	809.83
577.75	683.44
577.92	575.77
578.08	547.69
578.24	617.90
578.40	1240.48
578.56	2946.73
578.72	3864.22
578.88	3969.55
579.04	2995.89
579.21	2160.31
579.37	1626.67
579.53	1287.29
579.69	1327.08
579.85	1643.06
580.01	1795.19
580.17	1572.84
580.33	1474.54
580.49	1291.98
580.65	1247.51
580.82	1048.56
580.98	1114.10
581.14	1151.54
581.30	1156.22
581.46	1268.57
581.62	1242.82
581.78	1432.41
581.94	1493.26
582.10	1577.52
582.26	1568.16
582.42	1699.23
582.58	1715.61
582.74	1666.46
582.90	1645.40
583.06	1792.85
583.22	1715.61
583.38	1753.06
583.54	1605.61
583.70	1708.59
583.86	1610.29
584.02	1715.61
584.18	1657.10
584.34	1509.65
584.50	1582.20
584.66	1638.38
584.82	1533.05
584.98	1542.41
585.14	1451.13
585.30	1497.94
585.46	1549.43
585.62	1441.77
585.78	1404.32
585.94	1509.65
586.10	1535.39
586.26	1528.37
586.42	1905.20
586.58	2296.07
586.74	2614.38
586.90	2986.52
587.06	3122.27
587.22	3075.46
587.38	2722.04
587.54	2340.54
587.70	2134.57
587.86	1715.61
588.02	1507.30
588.18	1390.28
588.34	1256.87
588.49	1149.20
588.65	1109.41
588.81	1083.67
588.97	1001.75
589.13	1057.92
589.29	980.68
589.45	1046.22
589.61	978.34
589.77	1050.90
589.93	1011.11
590.08	1064.94
590.24	1179.63
590.40	976.00
590.56	1137.50
590.72	1228.78
590.88	1156.22
591.04	1289.64
591.20	1186.65
591.35	1299.00
591.51	1329.42
591.67	1514.33
591.83	1465.18
591.99	1558.80
592.15	1746.04
592.31	1856.04
592.46	1921.58
592.62	2090.10
592.78	2195.42
592.94	2277.34
593.10	2209.47
593.26	2139.25
593.41	2010.52
593.57	1755.40
593.73	1481.56
593.89	1401.98
594.05	1284.95
594.20	1212.40
594.36	1132.82
594.52	1001.75
594.68	971.32
594.84	990.05
594.99	999.41
595.15	851.96
595.31	884.72
595.47	936.21
595.62	882.38
595.78	940.90
595.94	1015.79
596.10	912.81
596.25	912.81
596.41	959.62
596.57	891.74
596.73	847.27
596.88	840.25
597.04	863.66
597.20	842.59
597.36	929.19
597.51	915.15
597.67	887.06
597.83	1071.97
597.99	1034.52
598.14	1107.07
598.30	1198.35
598.46	1249.85
598.61	1296.66
598.77	1399.64
598.93	1322.40
599.09	1409.00
599.24	1575.18
599.40	1495.60
599.56	1411.34
599.71	1359.85
599.87	1263.89
600.03	1203.04
600.18	1205.38
600.34	1116.44
600.50	1011.11
600.65	844.93
600.81	866.00
600.97	889.40
601.12	823.87
601.28	842.59
601.44	826.21
601.59	720.88
601.75	777.06
601.91	622.58
602.06	669.39
602.22	753.65
602.37	671.73
602.53	641.31
602.69	681.10
602.84	713.86
603.00	704.50
603.16	706.84
603.31	741.95
603.47	596.84
603.62	699.82
603.78	650.67
603.94	741.95
604.09	748.97
604.25	692.80
604.40	704.50
604.56	767.70
604.71	734.93
604.87	751.31
605.03	753.65
605.18	807.48
605.34	882.38
605.49	791.10
605.65	779.40
605.80	854.30
605.96	833.23
606.12	947.92
606.27	980.68
606.43	954.94
606.58	1046.22
606.74	1006.43
606.89	1135.16
607.05	1071.97
607.20	1263.89
607.36	1219.42
607.51	1226.44
607.67	1273.25
607.82	1427.73
607.98	1526.03
608.13	1673.48
608.29	1785.83
608.44	1912.22
608.60	2050.31
608.75	2321.81
608.91	2370.96
609.06	2729.06
609.22	2949.08
609.37	3208.87
609.53	3557.61
609.68	3899.33
609.84	4603.83
609.99	5418.34
610.15	6326.47
610.30	8053.78
610.46	10061.96
610.61	12624.85
610.76	15885.22
610.92	19271.97
611.07	20833.11
611.23	20980.56
611.38	19323.46
611.54	17308.26
611.69	14492.60
611.84	12341.64
612.00	10277.29
612.15	8863.61
612.31	7714.41
612.46	6920.96
612.62	6504.35
612.77	6171.99
612.92	5724.95
613.08	5355.15
613.23	5212.37
613.39	5074.28
613.54	4901.08
613.69	4695.11
613.85	4798.10
614.00	4919.81
614.15	4786.40
614.31	4645.96
614.46	4465.74
614.62	4372.12
614.77	4283.18
614.92	3765.92
615.08	3590.38
615.23	3361.01
615.38	3108.23
615.54	2850.77
615.69	2656.51
615.84	2502.03
616.00	2282.02
616.15	2066.69
616.30	1959.03
616.46	1783.49
616.61	1703.91
616.76	1732.00
616.92	1626.67
617.07	1584.54
617.22	1448.79
617.37	1434.75
617.53	1437.09
617.68	1287.29
617.83	1165.59
617.99	1252.19
618.14	1219.42
618.29	1245.16
618.45	1158.57
618.60	1118.78
618.75	1121.12
618.90	1078.99
619.06	1144.52
619.21	1104.73
619.36	1181.97
619.51	1102.39
619.67	1137.50
619.82	1076.65
619.97	1270.91
620.12	1160.91
620.28	1174.95
620.43	1125.80
620.58	1210.06
620.73	1193.67
620.89	1165.59
621.04	1219.42
621.19	1212.40
621.34	1196.01
621.49	1097.71
621.65	1137.50
621.80	1130.48
621.95	1097.71
622.10	1219.42
622.25	1221.76
622.41	1097.71
622.56	1174.95
622.71	1313.04
622.86	1256.87
623.01	1341.13
623.16	1341.13
623.32	1191.33
623.47	1231.12
623.62	1256.87
623.77	1270.91
623.92	1177.29
624.07	1203.04
624.23	1322.40
624.38	1313.04
624.53	1224.10
624.68	1296.66
624.83	1263.89
624.98	1273.25
625.13	1306.02
625.29	1303.68
625.44	1336.45
625.59	1310.70
625.74	1282.61
625.89	1282.61
626.04	1310.70
626.19	1362.19
626.34	1289.64
626.49	1303.68
626.65	1210.06
626.80	1266.23
626.95	1270.91
627.10	1224.10
627.25	1219.42
627.40	1221.76
627.55	1212.40
627.70	1104.73
627.85	1205.38
628.00	1151.54
628.15	1149.20
628.30	1114.10
628.45	1167.93
628.60	1177.29
628.76	1156.22
628.91	1107.07
629.06	1163.25
629.21	1149.20
629.36	1125.80
629.51	1284.95
629.66	1352.83
629.81	1420.71
629.96	1626.67
630.11	1701.57
630.26	1916.90
630.41	2113.50
630.56	2101.80
630.71	2335.85
630.86	2377.98
631.01	2253.94
631.16	2010.52
631.31	1842.00
631.46	1547.09
631.61	1481.56
631.76	1165.59
631.91	1050.90
632.06	896.43
632.21	847.27
632.36	774.72
632.51	636.63
632.66	578.11
632.81	496.19
632.96	580.45
633.10	500.87
633.25	484.49
633.40	430.66
633.55	512.58
633.70	458.74
633.85	435.34
634.00	362.78
634.15	433.00
634.30	491.51
634.45	425.98
634.60	500.87
634.75	381.51
634.90	456.40
635.05	482.15
635.19	442.36
635.34	388.53
635.49	409.59
635.64	423.64
635.79	400.23
635.94	322.99
636.09	381.51
636.24	411.93
636.39	428.32
636.53	440.02
636.68	330.02
636.83	411.93
636.98	360.44
637.13	322.99
637.28	351.08
637.43	400.23
637.57	369.80
637.72	358.10
637.87	447.04
638.02	353.42
638.17	320.65
638.32	327.68
638.46	325.33
638.61	355.76
638.76	360.44
638.91	306.61
639.06	365.12
639.20	379.17
639.35	332.36
639.50	355.76
639.65	388.53
639.80	337.04
639.94	360.44
640.09	365.12
640.24	461.09
640.39	294.91
640.54	234.05
640.68	322.99
640.83	348.74
640.98	308.95
641.13	327.68
641.27	264.48
641.42	339.38
641.57	355.76
641.72	383.85
641.86	280.86
642.01	362.78
642.16	301.93
642.31	304.27
642.45	327.68
642.60	397.89
642.75	325.33
642.90	381.51
643.04	379.17
643.19	315.97
643.34	351.08
643.48	365.12
643.63	362.78
643.78	395.55
643.93	344.06
644.07	255.12
644.22	355.76
644.37	287.89
644.51	311.29
644.66	287.89
644.81	304.27
644.95	365.12
645.10	318.31
645.25	259.80
645.39	367.46
645.54	299.59
645.69	348.74
645.83	351.08
645.98	411.93
646.13	315.97
646.27	276.18
646.42	234.05
646.57	259.80
646.71	337.04
646.86	320.65
647.00	348.74
647.15	351.08
647.30	273.84
647.44	264.48
647.59	271.50
647.74	229.37
647.88	306.61
648.03	287.89
648.17	330.02
648.32	348.74
648.47	273.84
648.61	318.31
648.76	285.55
648.90	280.86
649.05	322.99
649.20	414.27
649.34	327.68
649.49	395.55
649.63	465.77
649.78	383.85
649.92	557.05
650.07	706.84
650.21	718.54
650.36	826.21
650.51	746.63
650.65	739.61
650.80	636.63
650.94	547.69
651.09	517.26
651.23	454.06
651.38	390.87
651.52	425.98
651.67	458.74
651.81	388.53
651.96	407.25
652.10	428.32
652.25	374.49
652.39	440.02
652.54	397.89
652.68	425.98
652.83	393.21
652.97	440.02
653.12	376.83
653.26	433.00
653.41	362.78
653.55	393.21
653.70	367.46
653.84	362.78
653.99	388.53
654.13	257.46
654.27	341.72
654.42	287.89
654.56	372.15
654.71	341.72
654.85	229.37
655.00	252.78
655.14	313.63
655.29	257.46
655.43	292.57
655.57	315.97
655.72	330.02
655.86	337.04
656.01	259.80
656.15	290.23
656.30	292.57
656.44	304.27
656.58	341.72
656.73	299.59
656.87	311.29
657.01	308.95
657.16	369.80
657.30	374.49
657.45	332.36
657.59	351.08
657.73	325.33
657.88	301.93
658.02	360.44
658.16	297.25
658.31	285.55
658.45	308.95
658.60	243.42
658.74	241.08
658.88	222.35
659.03	215.33
659.17	280.86
659.31	297.25
659.46	212.99
659.60	287.89
659.74	257.46
659.89	339.38
660.03	220.01
660.17	318.31
660.32	224.69
660.46	252.78
660.60	257.46
660.74	229.37
660.89	245.76
661.03	238.73
661.17	229.37
661.32	252.78
661.46	355.76
661.60	280.86
661.74	498.53
661.89	458.74
662.03	543.00
662.17	407.25
662.31	550.03
662.46	528.96
662.60	500.87
662.74	348.74
662.88	348.74
663.03	322.99
663.17	278.52
663.31	308.95
663.45	351.08
663.60	315.97
663.74	332.36
663.88	299.59
664.02	285.55
664.17	163.84
664.31	135.75
664.45	304.27
664.59	198.95
664.73	271.50
664.88	276.18
665.02	257.46
665.16	215.33
665.30	285.55
665.44	238.73
665.59	236.39
665.73	259.80
665.87	210.65
666.01	269.16
666.15	259.80
666.29	280.86
666.44	301.93
666.58	278.52
666.72	217.67
666.86	266.82
667.00	292.57
667.14	266.82
667.28	315.97
667.43	259.80
667.57	243.42
667.71	299.59
667.85	229.37
667.99	234.05
668.13	196.60
668.27	276.18
668.41	248.10
668.56	208.31
668.70	285.55
668.84	266.82
668.98	264.48
669.12	138.09
669.26	266.82
669.40	224.69
669.54	205.97
669.68	234.05
669.82	208.31
669.96	269.16
670.10	159.16
670.25	245.76
670.39	255.12
670.53	212.99
670.67	238.73
670.81	187.24
670.95	196.60
671.09	238.73
671.23	337.04
671.37	257.46
671.51	248.10
671.65	273.84
671.79	222.35
671.93	304.27
672.07	325.33
672.21	318.31
672.35	271.50
672.49	236.39
672.63	208.31
672.77	187.24
672.91	227.03
673.05	255.12
673.19	215.33
673.33	220.01
673.47	201.29
673.61	266.82
673.75	198.95
673.89	166.18
674.03	170.86
674.17	161.50
674.31	198.95
674.45	198.95
674.59	163.84
674.73	217.67
674.87	231.71
675.01	175.54
675.15	210.65
675.29	227.03
675.43	222.35
675.56	273.84
675.70	236.39
675.84	201.29
675.98	245.76
676.12	166.18
676.26	191.92
676.40	166.18
676.54	173.20
676.68	135.75
676.82	301.93
676.96	163.84
677.10	191.92
677.23	205.97
677.37	215.33
677.51	210.65
677.65	271.50
677.79	187.24
677.93	210.65
678.07	236.39
678.21	117.03
678.34	222.35
678.48	182.56
678.62	227.03
678.76	156.82
678.90	201.29
679.04	269.16
679.18	222.35
679.31	229.37
679.45	166.18
679.59	184.90
679.73	241.08
679.87	241.08
680.00	201.29
680.14	266.82
680.28	140.43
680.42	250.44
680.56	243.42
680.70	208.31
680.83	166.18
680.97	259.80
681.11	159.16
681.25	215.33
681.39	250.44
681.52	208.31
681.66	222.35
681.80	173.20
681.94	259.80
682.07	276.18
682.21	184.90
682.35	149.79
682.49	145.11
682.62	222.35
682.76	194.26
682.90	166.18
683.04	203.63
683.17	182.56
683.31	203.63
683.45	255.12
683.59	184.90
683.72	203.63
683.86	201.29
684.00	135.75
684.13	201.29
684.27	222.35
684.41	241.08
684.55	149.79
684.68	180.22
684.82	154.48
684.96	208.31
685.09	217.67
685.23	191.92
685.37	152.13
685.50	243.42
685.64	215.33
685.78	131.07
685.91	285.55
686.05	264.48
686.19	222.35
686.32	257.46
686.46	196.60
686.60	182.56
686.73	248.10
686.87	241.08
687.01	313.63
687.14	283.20
687.28	285.55
687.42	315.97
687.55	315.97
687.69	278.52
687.82	402.57
687.96	339.38
688.10	348.74
688.23	318.31
688.37	290.23
688.50	304.27
688.64	248.10
688.78	173.20
688.91	241.08
689.05	142.77
689.18	124.05
689.32	194.26
689.46	191.92
689.59	198.95
689.73	212.99
689.86	156.82
690.00	196.60
690.13	102.98
690.27	142.77
690.41	236.39
690.54	203.63
690.68	102.98
690.81	177.88
690.95	194.26
691.08	170.86
691.22	114.69
691.35	201.29
691.49	147.45
691.62	63.19
691.76	86.60
691.89	147.45
692.03	154.48
692.16	142.77
692.30	215.33
692.43	196.60
692.57	84.26
692.70	175.54
692.84	177.88
692.97	135.75
693.11	212.99
693.24	262.14
693.38	182.56
693.51	252.78
693.65	255.12
693.78	252.78
693.92	334.70
694.05	241.08
694.19	173.20
694.32	210.65
694.45	224.69
694.59	175.54
694.72	114.69
694.86	156.82
694.99	117.03
695.13	182.56
695.26	170.86
695.39	154.48
695.53	208.31
695.66	95.96
695.80	74.90
695.93	163.84
696.07	145.11
696.20	124.05
696.33	140.43
696.47	215.33
696.60	138.09
696.73	177.88
696.87	126.39
697.00	262.14
697.14	163.84
697.27	84.26
697.40	170.86
697.54	147.45
697.67	173.20
697.80	222.35
697.94	107.66
698.07	95.96
698.21	110.01
698.34	140.43
698.47	126.39
698.61	88.94
698.74	152.13
698.87	145.11
699.01	121.71
699.14	93.62
699.27	191.92
699.40	156.82
699.54	117.03
699.67	98.30
699.80	119.37
699.94	138.09
700.07	107.66
700.20	182.56
700.34	203.63
700.47	163.84
700.60	124.05
700.73	138.09
700.87	201.29
701.00	140.43
701.13	77.24
701.26	238.73
701.40	201.29
701.53	124.05
701.66	133.41
701.79	98.30
701.93	147.45
702.06	145.11
702.19	161.50
702.32	224.69
702.46	135.75
702.59	149.79
702.72	159.16
702.85	159.16
702.99	135.75
703.12	133.41
703.25	135.75
703.38	215.33
703.51	170.86
703.65	152.13
703.78	182.56
703.91	81.92
704.04	220.01
704.17	121.71
704.31	161.50
704.44	138.09
704.57	170.86
704.70	191.92
704.83	212.99
704.96	133.41
705.10	205.97
705.23	283.20
>>>>>End Processed Spectral Data<<<<<
