SpectraSuite Data File
++++++++++++++++++++++++++++++++++++
Date: Fri Oct 04 11:41:57 GMT-05:00 2013
User: price-jones
Dark Spectrum Present: No
Reference Spectrum Present: No
Number of Sampled Component Spectra: 1
Spectrometers: USB2+H05261
Integration Time (usec): 100000 (USB2+H05261)
Spectra Averaged: 1 (USB2+H05261)
Boxcar Smoothing: 0 (USB2+H05261)
Correct for Electrical Dark: No (USB2+H05261)
Strobe/Lamp Enabled: No (USB2+H05261)
Correct for Detector Non-linearity: No (USB2+H05261)
Correct for Stray Light: No (USB2+H05261)
Number of Pixels in Processed Spectrum: 2048
>>>>>Begin Processed Spectral Data<<<<<
365.73	51.49
365.92	51.49
366.12	51.49
366.32	0.00
366.52	0.00
366.72	0.00
366.91	0.00
367.11	0.00
367.31	0.00
367.51	0.00
367.70	0.00
367.90	0.00
368.10	0.00
368.30	0.00
368.49	0.00
368.69	0.00
368.89	0.00
369.09	0.00
369.28	0.00
369.48	0.00
369.68	30.43
369.87	18.72
370.07	35.11
370.27	11.70
370.47	0.00
370.66	37.45
370.86	0.00
371.06	91.28
371.25	21.06
371.45	14.04
371.65	128.73
371.84	128.73
372.04	44.47
372.24	110.01
372.44	60.85
372.63	98.30
372.83	91.28
373.03	74.90
373.22	91.28
373.42	121.71
373.62	124.05
373.81	124.05
374.01	152.13
374.21	154.48
374.40	142.77
374.60	173.20
374.79	142.77
374.99	107.66
375.19	156.82
375.38	60.85
375.58	133.41
375.78	86.60
375.97	182.56
376.17	168.52
376.37	93.62
376.56	138.09
376.76	39.79
376.95	128.73
377.15	93.62
377.35	100.64
377.54	154.48
377.74	77.24
377.93	56.17
378.13	142.77
378.33	135.75
378.52	95.96
378.72	105.32
378.91	93.62
379.11	70.22
379.31	91.28
379.50	121.71
379.70	138.09
379.89	112.35
380.09	133.41
380.28	65.54
380.48	112.35
380.68	23.41
380.87	117.03
381.07	63.19
381.26	152.13
381.46	95.96
381.65	86.60
381.85	77.24
382.04	105.32
382.24	93.62
382.43	145.11
382.63	105.32
382.83	159.16
383.02	128.73
383.22	105.32
383.41	11.70
383.61	110.01
383.80	81.92
384.00	60.85
384.19	105.32
384.39	119.37
384.58	133.41
384.78	119.37
384.97	102.98
385.17	124.05
385.36	49.15
385.56	163.84
385.75	119.37
385.95	46.81
386.14	114.69
386.34	121.71
386.53	124.05
386.72	98.30
386.92	145.11
387.11	168.52
387.31	191.92
387.50	28.09
387.70	67.88
387.89	84.26
388.09	173.20
388.28	191.92
388.48	124.05
388.67	93.62
388.86	14.04
389.06	51.49
389.25	65.54
389.45	93.62
389.64	201.29
389.84	131.07
390.03	119.37
390.22	98.30
390.42	170.86
390.61	117.03
390.81	112.35
391.00	107.66
391.19	119.37
391.39	128.73
391.58	93.62
391.78	91.28
391.97	114.69
392.16	107.66
392.36	105.32
392.55	81.92
392.75	65.54
392.94	63.19
393.13	107.66
393.33	112.35
393.52	107.66
393.71	149.79
393.91	105.32
394.10	131.07
394.29	145.11
394.49	95.96
394.68	140.43
394.88	142.77
395.07	142.77
395.26	95.96
395.46	110.01
395.65	93.62
395.84	105.32
396.04	191.92
396.23	86.60
396.42	135.75
396.62	117.03
396.81	86.60
397.00	105.32
397.19	56.17
397.39	81.92
397.58	126.39
397.77	152.13
397.97	102.98
398.16	184.90
398.35	180.22
398.55	77.24
398.74	149.79
398.93	112.35
399.12	140.43
399.32	161.50
399.51	98.30
399.70	63.19
399.90	154.48
400.09	105.32
400.28	95.96
400.47	81.92
400.67	128.73
400.86	112.35
401.05	142.77
401.24	133.41
401.44	110.01
401.63	168.52
401.82	53.83
402.01	149.79
402.21	135.75
402.40	140.43
402.59	105.32
402.78	152.13
402.97	81.92
403.17	42.13
403.36	184.90
403.55	138.09
403.74	184.90
403.93	376.83
404.13	830.89
404.32	755.99
404.51	688.12
404.70	550.03
404.89	187.24
405.09	168.52
405.28	212.99
405.47	44.47
405.66	138.09
405.85	142.77
406.05	105.32
406.24	117.03
406.43	114.69
406.62	86.60
406.81	224.69
407.00	184.90
407.20	205.97
407.39	170.86
407.58	128.73
407.77	231.71
407.96	161.50
408.15	140.43
408.34	56.17
408.54	138.09
408.73	168.52
408.92	159.16
409.11	72.56
409.30	126.39
409.49	102.98
409.68	142.77
409.87	147.45
410.07	110.01
410.26	131.07
410.45	170.86
410.64	107.66
410.83	152.13
411.02	145.11
411.21	147.45
411.40	72.56
411.59	117.03
411.78	194.26
411.98	147.45
412.17	70.22
412.36	114.69
412.55	112.35
412.74	154.48
412.93	205.97
413.12	105.32
413.31	191.92
413.50	135.75
413.69	138.09
413.88	168.52
414.07	128.73
414.26	177.88
414.45	140.43
414.64	124.05
414.83	145.11
415.02	124.05
415.22	154.48
415.41	156.82
415.60	135.75
415.79	152.13
415.98	100.64
416.17	194.26
416.36	163.84
416.55	107.66
416.74	175.54
416.93	156.82
417.12	194.26
417.31	124.05
417.50	180.22
417.69	187.24
417.88	142.77
418.07	131.07
418.26	117.03
418.45	124.05
418.64	147.45
418.83	112.35
419.02	177.88
419.21	175.54
419.39	107.66
419.58	91.28
419.77	161.50
419.96	194.26
420.15	161.50
420.34	145.11
420.53	102.98
420.72	177.88
420.91	159.16
421.10	203.63
421.29	168.52
421.48	124.05
421.67	166.18
421.86	140.43
422.05	133.41
422.24	149.79
422.43	205.97
422.61	114.69
422.80	203.63
422.99	196.60
423.18	166.18
423.37	154.48
423.56	182.56
423.75	163.84
423.94	84.26
424.13	119.37
424.32	145.11
424.50	175.54
424.69	121.71
424.88	147.45
425.07	88.94
425.26	163.84
425.45	145.11
425.64	128.73
425.83	138.09
426.01	145.11
426.20	147.45
426.39	173.20
426.58	110.01
426.77	138.09
426.96	212.99
427.15	154.48
427.33	124.05
427.52	156.82
427.71	133.41
427.90	194.26
428.09	154.48
428.28	65.54
428.46	145.11
428.65	149.79
428.84	203.63
429.03	163.84
429.22	152.13
429.40	102.98
429.59	35.11
429.78	257.46
429.97	166.18
430.16	86.60
430.34	131.07
430.53	133.41
430.72	170.86
430.91	203.63
431.10	138.09
431.28	86.60
431.47	84.26
431.66	229.37
431.85	98.30
432.03	142.77
432.22	257.46
432.41	191.92
432.60	201.29
432.79	149.79
432.97	184.90
433.16	140.43
433.35	152.13
433.54	220.01
433.72	238.73
433.91	191.92
434.10	297.25
434.28	297.25
434.47	241.08
434.66	273.84
434.85	264.48
435.03	758.33
435.22	2328.83
435.41	3342.28
435.59	3201.85
435.78	2029.24
435.97	1109.41
436.16	552.37
436.34	189.58
436.53	252.78
436.72	229.37
436.90	224.69
437.09	198.95
437.28	177.88
437.46	187.24
437.65	189.58
437.84	212.99
438.02	215.33
438.21	201.29
438.40	177.88
438.58	184.90
438.77	182.56
438.96	163.84
439.14	145.11
439.33	208.31
439.52	149.79
439.70	149.79
439.89	224.69
440.08	180.22
440.26	189.58
440.45	252.78
440.63	156.82
440.82	177.88
441.01	121.71
441.19	170.86
441.38	124.05
441.57	191.92
441.75	280.86
441.94	170.86
442.12	243.42
442.31	180.22
442.50	180.22
442.68	180.22
442.87	135.75
443.05	196.60
443.24	166.18
443.43	189.58
443.61	191.92
443.80	210.65
443.98	290.23
444.17	208.31
444.35	149.79
444.54	177.88
444.73	88.94
444.91	203.63
445.10	175.54
445.28	152.13
445.47	166.18
445.65	205.97
445.84	191.92
446.02	238.73
446.21	210.65
446.39	208.31
446.58	161.50
446.77	142.77
446.95	184.90
447.14	205.97
447.32	229.37
447.51	198.95
447.69	201.29
447.88	88.94
448.06	266.82
448.25	205.97
448.43	224.69
448.62	117.03
448.80	191.92
448.99	203.63
449.17	145.11
449.36	205.97
449.54	287.89
449.73	102.98
449.91	182.56
450.10	154.48
450.28	241.08
450.46	250.44
450.65	142.77
450.83	180.22
451.02	210.65
451.20	248.10
451.39	252.78
451.57	107.66
451.76	175.54
451.94	177.88
452.13	255.12
452.31	203.63
452.49	231.71
452.68	159.16
452.86	124.05
453.05	161.50
453.23	220.01
453.42	140.43
453.60	180.22
453.78	231.71
453.97	198.95
454.15	189.58
454.34	170.86
454.52	159.16
454.70	264.48
454.89	142.77
455.07	110.01
455.26	227.03
455.44	241.08
455.62	208.31
455.81	252.78
455.99	166.18
456.17	152.13
456.36	161.50
456.54	215.33
456.73	173.20
456.91	170.86
457.09	224.69
457.28	215.33
457.46	168.52
457.64	212.99
457.83	173.20
458.01	205.97
458.19	126.39
458.38	194.26
458.56	243.42
458.74	220.01
458.93	196.60
459.11	182.56
459.29	280.86
459.48	194.26
459.66	210.65
459.84	245.76
460.03	220.01
460.21	266.82
460.39	243.42
460.57	166.18
460.76	266.82
460.94	227.03
461.12	234.05
461.31	252.78
461.49	224.69
461.67	215.33
461.85	140.43
462.04	189.58
462.22	716.20
462.40	222.35
462.59	154.48
462.77	110.01
462.95	166.18
463.13	184.90
463.32	278.52
463.50	201.29
463.68	170.86
463.86	110.01
464.05	201.29
464.23	257.46
464.41	149.79
464.59	140.43
464.78	166.18
464.96	105.32
465.14	189.58
465.32	191.92
465.50	236.39
465.69	133.41
465.87	131.07
466.05	210.65
466.23	140.43
466.41	170.86
466.60	215.33
466.78	173.20
466.96	161.50
467.14	184.90
467.32	184.90
467.51	252.78
467.69	220.01
467.87	236.39
468.05	229.37
468.23	257.46
468.41	212.99
468.60	159.16
468.78	191.92
468.96	222.35
469.14	161.50
469.32	170.86
469.50	161.50
469.69	285.55
469.87	252.78
470.05	168.52
470.23	212.99
470.41	203.63
470.59	175.54
470.77	191.92
470.95	227.03
471.14	243.42
471.32	142.77
471.50	248.10
471.68	210.65
471.86	142.77
472.04	163.84
472.22	222.35
472.40	222.35
472.58	182.56
472.77	227.03
472.95	198.95
473.13	184.90
473.31	189.58
473.49	245.76
473.67	180.22
473.85	266.82
474.03	266.82
474.21	241.08
474.39	205.97
474.57	205.97
474.75	177.88
474.93	236.39
475.12	220.01
475.30	229.37
475.48	140.43
475.66	241.08
475.84	182.56
476.02	163.84
476.20	236.39
476.38	257.46
476.56	210.65
476.74	180.22
476.92	210.65
477.10	227.03
477.28	234.05
477.46	208.31
477.64	201.29
477.82	217.67
478.00	212.99
478.18	241.08
478.36	175.54
478.54	252.78
478.72	180.22
478.90	220.01
479.08	311.29
479.26	243.42
479.44	220.01
479.62	182.56
479.80	196.60
479.98	252.78
480.16	248.10
480.34	255.12
480.52	189.58
480.70	243.42
480.88	210.65
481.06	217.67
481.24	250.44
481.41	156.82
481.59	278.52
481.77	332.36
481.95	229.37
482.13	241.08
482.31	341.72
482.49	245.76
482.67	379.17
482.85	346.40
483.03	325.33
483.21	400.23
483.39	407.25
483.57	344.06
483.74	409.59
483.92	318.31
484.10	348.74
484.28	355.76
484.46	428.32
484.64	332.36
484.82	507.90
485.00	383.85
485.18	411.93
485.35	414.27
485.53	440.02
485.71	533.64
485.89	564.07
486.07	468.11
486.25	519.60
486.43	552.37
486.61	510.24
486.78	505.56
486.96	578.11
487.14	468.11
487.32	528.96
487.50	629.60
487.68	496.19
487.85	486.83
488.03	484.49
488.21	575.77
488.39	589.82
488.57	500.87
488.75	454.06
488.92	727.91
489.10	514.92
489.28	526.62
489.46	430.66
489.64	447.04
489.81	409.59
489.99	456.40
490.17	421.30
490.35	528.96
490.53	437.68
490.70	435.34
490.88	533.64
491.06	493.85
491.24	496.19
491.41	461.09
491.59	489.17
491.77	379.17
491.95	447.04
492.13	374.49
492.30	430.66
492.48	433.00
492.66	418.96
492.84	311.29
493.01	498.53
493.19	383.85
493.37	390.87
493.54	444.70
493.72	381.51
493.90	475.13
494.08	440.02
494.25	477.47
494.43	390.87
494.61	365.12
494.79	306.61
494.96	416.62
495.14	421.30
495.32	339.38
495.49	444.70
495.67	383.85
495.85	400.23
496.02	451.72
496.20	344.06
496.38	344.06
496.55	397.89
496.73	388.53
496.91	369.80
497.09	360.44
497.26	365.12
497.44	386.19
497.62	320.65
497.79	341.72
497.97	344.06
498.14	362.78
498.32	334.70
498.50	327.68
498.67	351.08
498.85	322.99
499.03	280.86
499.20	334.70
499.38	381.51
499.56	440.02
499.73	386.19
499.91	292.57
500.08	287.89
500.26	369.80
500.44	365.12
500.61	348.74
500.79	222.35
500.97	341.72
501.14	212.99
501.32	292.57
501.49	330.02
501.67	250.44
501.84	262.14
502.02	238.73
502.20	278.52
502.37	259.80
502.55	245.76
502.72	278.52
502.90	241.08
503.07	236.39
503.25	294.91
503.43	271.50
503.60	290.23
503.78	245.76
503.95	264.48
504.13	191.92
504.30	210.65
504.48	266.82
504.65	271.50
504.83	217.67
505.01	308.95
505.18	271.50
505.36	252.78
505.53	208.31
505.71	224.69
505.88	313.63
506.06	292.57
506.23	241.08
506.41	285.55
506.58	313.63
506.76	236.39
506.93	276.18
507.11	283.20
507.28	215.33
507.46	250.44
507.63	290.23
507.81	264.48
507.98	337.04
508.16	372.15
508.33	250.44
508.50	299.59
508.68	212.99
508.85	255.12
509.03	217.67
509.20	257.46
509.38	337.04
509.55	325.33
509.73	201.29
509.90	250.44
510.08	238.73
510.25	283.20
510.42	292.57
510.60	231.71
510.77	290.23
510.95	287.89
511.12	264.48
511.30	257.46
511.47	283.20
511.64	250.44
511.82	262.14
511.99	250.44
512.17	327.68
512.34	266.82
512.51	280.86
512.69	280.86
512.86	306.61
513.04	311.29
513.21	325.33
513.38	215.33
513.56	283.20
513.73	297.25
513.90	273.84
514.08	215.33
514.25	273.84
514.43	222.35
514.60	241.08
514.77	292.57
514.95	234.05
515.12	189.58
515.29	276.18
515.47	227.03
515.64	266.82
515.81	301.93
515.99	330.02
516.16	234.05
516.33	262.14
516.51	252.78
516.68	220.01
516.85	241.08
517.03	276.18
517.20	264.48
517.37	191.92
517.54	299.59
517.72	220.01
517.89	231.71
518.06	149.79
518.24	208.31
518.41	241.08
518.58	215.33
518.75	175.54
518.93	212.99
519.10	262.14
519.27	257.46
519.45	283.20
519.62	252.78
519.79	280.86
519.96	285.55
520.14	283.20
520.31	353.42
520.48	292.57
520.65	234.05
520.83	290.23
521.00	318.31
521.17	262.14
521.34	301.93
521.52	224.69
521.69	311.29
521.86	203.63
522.03	276.18
522.20	308.95
522.38	250.44
522.55	290.23
522.72	266.82
522.89	257.46
523.07	287.89
523.24	255.12
523.41	252.78
523.58	187.24
523.75	262.14
523.92	257.46
524.10	290.23
524.27	236.39
524.44	301.93
524.61	346.40
524.78	222.35
524.96	290.23
525.13	301.93
525.30	215.33
525.47	294.91
525.64	280.86
525.81	341.72
525.98	262.14
526.16	215.33
526.33	273.84
526.50	166.18
526.67	194.26
526.84	250.44
527.01	248.10
527.18	297.25
527.36	224.69
527.53	318.31
527.70	318.31
527.87	294.91
528.04	337.04
528.21	191.92
528.38	287.89
528.55	285.55
528.72	299.59
528.89	344.06
529.07	313.63
529.24	287.89
529.41	308.95
529.58	201.29
529.75	294.91
529.92	292.57
530.09	379.17
530.26	271.50
530.43	334.70
530.60	276.18
530.77	175.54
530.94	287.89
531.11	264.48
531.28	271.50
531.46	280.86
531.63	299.59
531.80	337.04
531.97	259.80
532.14	362.78
532.31	280.86
532.48	332.36
532.65	294.91
532.82	376.83
532.99	372.15
533.16	390.87
533.33	386.19
533.50	425.98
533.67	367.46
533.84	351.08
534.01	341.72
534.18	362.78
534.35	362.78
534.52	294.91
534.69	341.72
534.86	330.02
535.03	353.42
535.20	318.31
535.37	315.97
535.54	348.74
535.71	334.70
535.88	470.45
536.05	337.04
536.22	472.79
536.38	461.09
536.55	425.98
536.72	465.77
536.89	505.56
537.06	519.60
537.23	554.71
537.40	554.71
537.57	617.90
537.74	660.03
537.91	671.73
538.08	643.65
538.25	685.78
538.42	748.97
538.59	641.31
538.75	716.20
538.92	795.78
539.09	767.70
539.26	767.70
539.43	964.30
539.60	1039.20
539.77	1167.93
539.94	1191.33
540.11	1280.27
540.28	1483.90
540.44	1486.24
540.61	1689.87
540.78	1888.81
540.95	2097.12
541.12	2537.14
541.29	2766.51
541.46	2883.54
541.62	2864.82
541.79	2775.88
541.96	2597.99
542.13	2504.37
542.30	2340.54
542.47	2321.81
542.63	2284.36
542.80	2106.48
542.97	2169.68
543.14	2200.10
543.31	2090.10
543.48	2181.38
543.64	2242.23
543.81	2059.67
543.98	2120.53
544.15	2118.18
544.32	2202.44
544.48	2160.31
544.65	2073.71
544.82	2165.00
544.99	2146.27
545.16	2169.68
545.32	2317.13
545.49	4603.83
545.66	6497.33
545.83	7112.89
546.00	6033.90
546.16	4180.20
546.33	3155.04
546.50	2462.24
546.67	2059.67
546.83	1736.68
547.00	1795.19
547.17	1724.97
547.34	1638.38
547.50	1521.35
547.67	1413.68
547.84	1390.28
548.00	1486.24
548.17	1329.42
548.34	1350.49
548.51	1439.43
548.67	1296.66
548.84	1210.06
549.01	1203.04
549.18	1217.08
549.34	1081.33
549.51	983.02
549.68	990.05
549.84	1036.86
550.01	997.07
550.18	1069.62
550.34	908.13
550.51	896.43
550.68	919.83
550.84	830.89
551.01	800.46
551.18	786.42
551.34	781.74
551.51	692.80
551.68	730.25
551.84	718.54
552.01	699.82
552.18	620.24
552.34	683.44
552.51	638.97
552.68	617.90
552.84	519.60
553.01	587.47
553.18	601.52
553.34	543.00
553.51	517.26
553.67	573.43
553.84	624.92
554.01	524.28
554.17	475.13
554.34	337.04
554.51	479.81
554.67	465.77
554.84	470.45
555.00	463.43
555.17	435.34
555.33	381.51
555.50	353.42
555.67	489.17
555.83	348.74
556.00	320.65
556.16	496.19
556.33	393.21
556.50	456.40
556.66	297.25
556.83	348.74
556.99	283.20
557.16	292.57
557.32	241.08
557.49	285.55
557.65	276.18
557.82	353.42
557.98	292.57
558.15	390.87
558.32	353.42
558.48	348.74
558.65	358.10
558.81	360.44
558.98	252.78
559.14	358.10
559.31	285.55
559.47	304.27
559.64	227.03
559.80	374.49
559.97	311.29
560.13	318.31
560.30	262.14
560.46	362.78
560.63	313.63
560.79	330.02
560.96	285.55
561.12	229.37
561.29	376.83
561.45	301.93
561.61	362.78
561.78	381.51
561.94	283.20
562.11	360.44
562.27	306.61
562.44	318.31
562.60	294.91
562.77	308.95
562.93	273.84
563.10	299.59
563.26	353.42
563.42	245.76
563.59	327.68
563.75	311.29
563.92	322.99
564.08	325.33
564.24	276.18
564.41	369.80
564.57	262.14
564.74	285.55
564.90	262.14
565.07	294.91
565.23	229.37
565.39	285.55
565.56	299.59
565.72	287.89
565.88	292.57
566.05	297.25
566.21	276.18
566.38	241.08
566.54	266.82
566.70	299.59
566.87	271.50
567.03	248.10
567.19	301.93
567.36	299.59
567.52	250.44
567.68	308.95
567.85	278.52
568.01	255.12
568.17	304.27
568.34	299.59
568.50	341.72
568.66	271.50
568.83	372.15
568.99	273.84
569.15	297.25
569.32	271.50
569.48	292.57
569.64	234.05
569.81	255.12
569.97	311.29
570.13	325.33
570.30	292.57
570.46	243.42
570.62	243.42
570.78	191.92
570.95	227.03
571.11	273.84
571.27	285.55
571.43	290.23
571.60	245.76
571.76	262.14
571.92	252.78
572.09	245.76
572.25	264.48
572.41	273.84
572.57	241.08
572.74	294.91
572.90	301.93
573.06	227.03
573.22	290.23
573.38	290.23
573.55	290.23
573.71	250.44
573.87	308.95
574.03	227.03
574.20	299.59
574.36	245.76
574.52	299.59
574.68	234.05
574.84	259.80
575.01	304.27
575.17	304.27
575.33	332.36
575.49	278.52
575.65	264.48
575.82	273.84
575.98	259.80
576.14	322.99
576.30	645.99
576.46	980.68
576.62	1275.59
576.79	1397.30
576.95	1090.69
577.11	685.78
577.27	540.66
577.43	564.07
577.59	425.98
577.75	372.15
577.92	372.15
578.08	409.59
578.24	348.74
578.40	552.37
578.56	1032.18
578.72	1317.72
578.88	1308.36
579.04	1029.84
579.21	767.70
579.37	587.47
579.53	531.30
579.69	645.99
579.85	641.31
580.01	692.80
580.17	580.45
580.33	599.18
580.49	528.96
580.65	489.17
580.82	524.28
580.98	433.00
581.14	423.64
581.30	535.98
581.46	568.75
581.62	657.69
581.78	594.50
581.94	592.16
582.10	594.50
582.26	718.54
582.42	713.86
582.58	737.27
582.74	664.71
582.90	704.50
583.06	741.95
583.22	809.83
583.38	692.80
583.54	594.50
583.70	662.37
583.86	713.86
584.02	674.07
584.18	713.86
584.34	667.05
584.50	709.18
584.66	617.90
584.82	599.18
584.98	613.22
585.14	622.58
585.30	669.39
585.46	669.39
585.62	554.71
585.78	589.82
585.94	606.20
586.10	606.20
586.26	582.79
586.42	784.08
586.58	842.59
586.74	908.13
586.90	1090.69
587.06	1088.35
587.22	1067.28
587.38	952.60
587.54	889.40
587.70	884.72
587.86	746.63
588.02	634.29
588.18	573.43
588.34	524.28
588.49	472.79
588.65	454.06
588.81	461.09
588.97	442.36
589.13	423.64
589.29	468.11
589.45	493.85
589.61	519.60
589.77	489.17
589.93	428.32
590.08	505.56
590.24	468.11
590.40	447.04
590.56	491.51
590.72	468.11
590.88	500.87
591.04	486.83
591.20	552.37
591.35	613.22
591.51	512.58
591.67	615.56
591.83	575.77
591.99	606.20
592.15	711.52
592.31	706.84
592.46	737.27
592.62	908.13
592.78	805.14
592.94	798.12
593.10	819.19
593.26	844.93
593.41	760.67
593.57	685.78
593.73	580.45
593.89	564.07
594.05	496.19
594.20	465.77
594.36	496.19
594.52	414.27
594.68	402.57
594.84	442.36
594.99	451.72
595.15	330.02
595.31	372.15
595.47	507.90
595.62	393.21
595.78	447.04
595.94	470.45
596.10	484.49
596.25	437.68
596.41	437.68
596.57	425.98
596.73	348.74
596.88	393.21
597.04	477.47
597.20	402.57
597.36	395.55
597.51	458.74
597.67	475.13
597.83	482.15
597.99	578.11
598.14	519.60
598.30	566.41
598.46	386.19
598.61	552.37
598.77	512.58
598.93	550.03
599.09	526.62
599.24	627.26
599.40	622.58
599.56	500.87
599.71	580.45
599.87	477.47
600.03	465.77
600.18	409.59
600.34	505.56
600.50	444.70
600.65	418.96
600.81	514.92
600.97	425.98
601.12	421.30
601.28	435.34
601.44	418.96
601.59	271.50
601.75	437.68
601.91	355.76
602.06	344.06
602.22	388.53
602.37	337.04
602.53	376.83
602.69	313.63
602.84	304.27
603.00	365.12
603.16	358.10
603.31	327.68
603.47	325.33
603.62	339.38
603.78	411.93
603.94	360.44
604.09	372.15
604.25	393.21
604.40	386.19
604.56	339.38
604.71	304.27
604.87	360.44
605.03	346.40
605.18	376.83
605.34	433.00
605.49	374.49
605.65	388.53
605.80	339.38
605.96	416.62
606.12	388.53
606.27	423.64
606.43	475.13
606.58	388.53
606.74	503.22
606.89	435.34
607.05	493.85
607.20	571.09
607.36	531.30
607.51	465.77
607.67	561.73
607.82	624.92
607.98	594.50
608.13	720.88
608.29	629.60
608.44	779.40
608.60	765.36
608.75	840.25
608.91	933.87
609.06	940.90
609.22	992.39
609.37	1093.03
609.53	1221.76
609.68	1336.45
609.84	1502.62
609.99	1673.48
610.15	2010.52
610.30	2450.54
610.46	3073.12
610.61	3819.75
610.76	4877.68
610.92	5832.62
611.07	6223.48
611.23	6394.34
611.38	5860.70
611.54	5074.28
611.69	4351.06
611.84	3492.08
612.00	3059.08
612.15	2647.15
612.31	2387.35
612.46	2118.18
612.62	2017.54
612.77	2010.52
612.92	1961.37
613.08	1886.47
613.23	1781.15
613.39	1561.14
613.54	1633.69
613.69	1629.01
613.85	1514.33
614.00	1673.48
614.15	1607.95
614.31	1486.24
614.46	1467.52
614.62	1387.94
614.77	1409.00
614.92	1310.70
615.08	1256.87
615.23	1174.95
615.38	1008.77
615.54	936.21
615.69	840.25
615.84	856.64
616.00	842.59
616.15	795.78
616.30	758.33
616.46	718.54
616.61	737.27
616.76	620.24
616.92	674.07
617.07	531.30
617.22	538.32
617.37	524.28
617.53	559.39
617.68	510.24
617.83	559.39
617.99	531.30
618.14	472.79
618.29	528.96
618.45	557.05
618.60	479.81
618.75	362.78
618.90	383.85
619.06	437.68
619.21	510.24
619.36	411.93
619.51	575.77
619.67	545.34
619.82	465.77
619.97	479.81
620.12	489.17
620.28	505.56
620.43	510.24
620.58	550.03
620.73	500.87
620.89	550.03
621.04	486.83
621.19	468.11
621.34	498.53
621.49	477.47
621.65	538.32
621.80	472.79
621.95	524.28
622.10	510.24
622.25	547.69
622.41	540.66
622.56	528.96
622.71	484.49
622.86	500.87
623.01	526.62
623.16	571.09
623.32	512.58
623.47	503.22
623.62	533.64
623.77	512.58
623.92	493.85
624.07	484.49
624.23	451.72
624.38	470.45
624.53	540.66
624.68	550.03
624.83	470.45
624.98	528.96
625.13	463.43
625.29	482.15
625.44	433.00
625.59	498.53
625.74	461.09
625.89	496.19
626.04	477.47
626.19	538.32
626.34	512.58
626.49	507.90
626.65	547.69
626.80	470.45
626.95	599.18
627.10	500.87
627.25	543.00
627.40	425.98
627.55	451.72
627.70	416.62
627.85	482.15
628.00	447.04
628.15	507.90
628.30	414.27
628.45	521.94
628.60	479.81
628.76	433.00
628.91	437.68
629.06	500.87
629.21	442.36
629.36	552.37
629.51	461.09
629.66	571.09
629.81	447.04
629.96	545.34
630.11	608.54
630.26	638.97
630.41	755.99
630.56	802.80
630.71	760.67
630.86	844.93
631.01	835.57
631.16	800.46
631.31	826.21
631.46	681.10
631.61	601.52
631.76	440.02
631.91	421.30
632.06	400.23
632.21	344.06
632.36	341.72
632.51	243.42
632.66	224.69
632.81	234.05
632.96	285.55
633.10	348.74
633.25	341.72
633.40	248.10
633.55	311.29
633.70	259.80
633.85	292.57
634.00	264.48
634.15	138.09
634.30	262.14
634.45	276.18
634.60	271.50
634.75	243.42
634.90	203.63
635.05	308.95
635.19	276.18
635.34	330.02
635.49	287.89
635.64	203.63
635.79	229.37
635.94	299.59
636.09	255.12
636.24	259.80
636.39	196.60
636.53	266.82
636.68	241.08
636.83	224.69
636.98	266.82
637.13	266.82
637.28	198.95
637.43	271.50
637.57	220.01
637.72	259.80
637.87	227.03
638.02	133.41
638.17	135.75
638.32	301.93
638.46	217.67
638.61	271.50
638.76	187.24
638.91	227.03
639.06	191.92
639.20	259.80
639.35	322.99
639.50	241.08
639.65	325.33
639.80	196.60
639.94	285.55
640.09	205.97
640.24	238.73
640.39	170.86
640.54	327.68
640.68	217.67
640.83	243.42
640.98	159.16
641.13	194.26
641.27	236.39
641.42	208.31
641.57	208.31
641.72	266.82
641.86	227.03
642.01	210.65
642.16	271.50
642.31	250.44
642.45	280.86
642.60	259.80
642.75	224.69
642.90	280.86
643.04	250.44
643.19	259.80
643.34	168.52
643.48	271.50
643.63	201.29
643.78	273.84
643.93	238.73
644.07	201.29
644.22	259.80
644.37	163.84
644.51	250.44
644.66	229.37
644.81	229.37
644.95	231.71
645.10	203.63
645.25	252.78
645.39	166.18
645.54	208.31
645.69	301.93
645.83	208.31
645.98	280.86
646.13	166.18
646.27	299.59
646.42	191.92
646.57	184.90
646.71	187.24
646.86	236.39
647.00	245.76
647.15	231.71
647.30	194.26
647.44	266.82
647.59	215.33
647.74	217.67
647.88	215.33
648.03	196.60
648.17	224.69
648.32	191.92
648.47	220.01
648.61	238.73
648.76	222.35
648.90	147.45
649.05	231.71
649.20	208.31
649.34	245.76
649.49	224.69
649.63	297.25
649.78	264.48
649.92	341.72
650.07	351.08
650.21	346.40
650.36	400.23
650.51	315.97
650.65	383.85
650.80	301.93
650.94	257.46
651.09	320.65
651.23	215.33
651.38	196.60
651.52	241.08
651.67	229.37
651.81	231.71
651.96	283.20
652.10	227.03
652.25	191.92
652.39	152.13
652.54	308.95
652.68	220.01
652.83	252.78
652.97	299.59
653.12	259.80
653.26	201.29
653.41	231.71
653.55	224.69
653.70	269.16
653.84	243.42
653.99	215.33
654.13	177.88
654.27	189.58
654.42	215.33
654.56	208.31
654.71	210.65
654.85	180.22
655.00	177.88
655.14	217.67
655.29	140.43
655.43	191.92
655.57	145.11
655.72	201.29
655.86	149.79
656.01	189.58
656.15	208.31
656.30	187.24
656.44	205.97
656.58	208.31
656.73	241.08
656.87	184.90
657.01	184.90
657.16	245.76
657.30	245.76
657.45	269.16
657.59	198.95
657.73	161.50
657.88	229.37
658.02	280.86
658.16	236.39
658.31	198.95
658.45	234.05
658.60	210.65
658.74	222.35
658.88	112.35
659.03	147.45
659.17	156.82
659.31	196.60
659.46	198.95
659.60	208.31
659.74	220.01
659.89	203.63
660.03	189.58
660.17	283.20
660.32	215.33
660.46	161.50
660.60	138.09
660.74	224.69
660.89	194.26
661.03	159.16
661.17	227.03
661.32	236.39
661.46	198.95
661.60	224.69
661.74	264.48
661.89	315.97
662.03	156.82
662.17	278.52
662.31	248.10
662.46	332.36
662.60	224.69
662.74	276.18
662.88	222.35
663.03	203.63
663.17	182.56
663.31	215.33
663.45	210.65
663.60	194.26
663.74	210.65
663.88	182.56
664.02	212.99
664.17	224.69
664.31	173.20
664.45	234.05
664.59	243.42
664.73	175.54
664.88	198.95
665.02	133.41
665.16	133.41
665.30	257.46
665.44	224.69
665.59	196.60
665.73	180.22
665.87	205.97
666.01	149.79
666.15	131.07
666.29	194.26
666.44	217.67
666.58	203.63
666.72	196.60
666.86	229.37
667.00	266.82
667.14	189.58
667.28	203.63
667.43	173.20
667.57	187.24
667.71	238.73
667.85	220.01
667.99	166.18
668.13	147.45
668.27	161.50
668.41	243.42
668.56	208.31
668.70	208.31
668.84	173.20
668.98	241.08
669.12	142.77
669.26	217.67
669.40	271.50
669.54	163.84
669.68	205.97
669.82	180.22
669.96	98.30
670.10	126.39
670.25	128.73
670.39	222.35
670.53	231.71
670.67	175.54
670.81	152.13
670.95	201.29
671.09	135.75
671.23	156.82
671.37	140.43
671.51	194.26
671.65	243.42
671.79	198.95
671.93	184.90
672.07	161.50
672.21	175.54
672.35	203.63
672.49	142.77
672.63	128.73
672.77	236.39
672.91	187.24
673.05	187.24
673.19	198.95
673.33	117.03
673.47	292.57
673.61	135.75
673.75	124.05
673.89	168.52
674.03	212.99
674.17	161.50
674.31	168.52
674.45	203.63
674.59	161.50
674.73	110.01
674.87	128.73
675.01	161.50
675.15	147.45
675.29	126.39
675.43	166.18
675.56	252.78
675.70	285.55
675.84	177.88
675.98	149.79
676.12	189.58
676.26	173.20
676.40	152.13
676.54	131.07
676.68	128.73
676.82	212.99
676.96	147.45
677.10	212.99
677.23	91.28
677.37	175.54
677.51	128.73
677.65	208.31
677.79	238.73
677.93	114.69
678.07	194.26
678.21	154.48
678.34	114.69
678.48	126.39
678.62	147.45
678.76	180.22
678.90	205.97
679.04	220.01
679.18	180.22
679.31	194.26
679.45	217.67
679.59	177.88
679.73	222.35
679.87	173.20
680.00	187.24
680.14	170.86
680.28	177.88
680.42	98.30
680.56	154.48
680.70	140.43
680.83	149.79
680.97	194.26
681.11	180.22
681.25	212.99
681.39	133.41
681.52	271.50
681.66	189.58
681.80	138.09
681.94	163.84
682.07	198.95
682.21	105.32
682.35	177.88
682.49	135.75
682.62	142.77
682.76	121.71
682.90	161.50
683.04	177.88
683.17	133.41
683.31	107.66
683.45	98.30
683.59	191.92
683.72	147.45
683.86	149.79
684.00	91.28
684.13	198.95
684.27	198.95
684.41	184.90
684.55	149.79
684.68	180.22
684.82	149.79
684.96	149.79
685.09	140.43
685.23	168.52
685.37	131.07
685.50	205.97
685.64	212.99
685.78	278.52
685.91	175.54
686.05	194.26
686.19	147.45
686.32	175.54
686.46	180.22
686.60	135.75
686.73	180.22
686.87	182.56
687.01	81.92
687.14	170.86
687.28	194.26
687.42	124.05
687.55	163.84
687.69	203.63
687.82	168.52
687.96	208.31
688.10	234.05
688.23	131.07
688.37	191.92
688.50	140.43
688.64	147.45
688.78	49.15
688.91	189.58
689.05	194.26
689.18	117.03
689.32	74.90
689.46	154.48
689.59	217.67
689.73	175.54
689.86	133.41
690.00	163.84
690.13	95.96
690.27	124.05
690.41	145.11
690.54	173.20
690.68	149.79
690.81	114.69
690.95	170.86
691.08	173.20
691.22	95.96
691.35	133.41
691.49	154.48
691.62	191.92
691.76	126.39
691.89	121.71
692.03	95.96
692.16	95.96
692.30	131.07
692.43	152.13
692.57	121.71
692.70	107.66
692.84	177.88
692.97	86.60
693.11	215.33
693.24	175.54
693.38	119.37
693.51	114.69
693.65	182.56
693.78	184.90
693.92	154.48
694.05	175.54
694.19	121.71
694.32	161.50
694.45	196.60
694.59	131.07
694.72	184.90
694.86	126.39
694.99	110.01
695.13	124.05
695.26	124.05
695.39	154.48
695.53	170.86
695.66	114.69
695.80	196.60
695.93	133.41
696.07	142.77
696.20	112.35
696.33	163.84
696.47	196.60
696.60	114.69
696.73	77.24
696.87	163.84
697.00	182.56
697.14	138.09
697.27	114.69
697.40	212.99
697.54	152.13
697.67	142.77
697.80	163.84
697.94	117.03
698.07	189.58
698.21	93.62
698.34	72.56
698.47	77.24
698.61	107.66
698.74	84.26
698.87	149.79
699.01	131.07
699.14	145.11
699.27	161.50
699.40	180.22
699.54	121.71
699.67	159.16
699.80	117.03
699.94	93.62
700.07	159.16
700.20	93.62
700.34	117.03
700.47	88.94
700.60	77.24
700.73	121.71
700.87	145.11
701.00	161.50
701.13	84.26
701.26	187.24
701.40	91.28
701.53	131.07
701.66	154.48
701.79	145.11
701.93	102.98
702.06	121.71
702.19	126.39
702.32	217.67
702.46	156.82
702.59	112.35
702.72	156.82
702.85	152.13
702.99	131.07
703.12	142.77
703.25	131.07
703.38	51.49
703.51	84.26
703.65	121.71
703.78	131.07
703.91	138.09
704.04	187.24
704.17	131.07
704.31	149.79
704.44	142.77
704.57	131.07
704.70	170.86
704.83	135.75
704.96	98.30
705.10	124.05
705.23	124.05
>>>>>End Processed Spectral Data<<<<<
