SpectraSuite Data File
++++++++++++++++++++++++++++++++++++
Date: Fri Oct 04 11:42:12 GMT-05:00 2013
User: price-jones
Dark Spectrum Present: No
Reference Spectrum Present: No
Number of Sampled Component Spectra: 1
Spectrometers: USB2+H05261
Integration Time (usec): 100000 (USB2+H05261)
Spectra Averaged: 1 (USB2+H05261)
Boxcar Smoothing: 0 (USB2+H05261)
Correct for Electrical Dark: No (USB2+H05261)
Strobe/Lamp Enabled: No (USB2+H05261)
Correct for Detector Non-linearity: No (USB2+H05261)
Correct for Stray Light: No (USB2+H05261)
Number of Pixels in Processed Spectrum: 2048
>>>>>Begin Processed Spectral Data<<<<<
365.73	77.24
365.92	77.24
366.12	77.24
366.32	0.00
366.52	0.00
366.72	0.00
366.91	0.00
367.11	0.00
367.31	0.00
367.51	0.00
367.70	0.00
367.90	0.00
368.10	0.00
368.30	0.00
368.49	0.00
368.69	0.00
368.89	0.00
369.09	0.00
369.28	0.00
369.48	0.00
369.68	0.00
369.87	7.02
370.07	0.00
370.27	44.47
370.47	58.51
370.66	67.88
370.86	81.92
371.06	112.35
371.25	65.54
371.45	37.45
371.65	39.79
371.84	58.51
372.04	51.49
372.24	98.30
372.44	72.56
372.63	126.39
372.83	112.35
373.03	124.05
373.22	88.94
373.42	74.90
373.62	126.39
373.81	107.66
374.01	119.37
374.21	105.32
374.40	147.45
374.60	166.18
374.79	86.60
374.99	170.86
375.19	128.73
375.38	131.07
375.58	159.16
375.78	156.82
375.97	128.73
376.17	184.90
376.37	110.01
376.56	58.51
376.76	72.56
376.95	112.35
377.15	126.39
377.35	114.69
377.54	170.86
377.74	107.66
377.93	60.85
378.13	117.03
378.33	161.50
378.52	72.56
378.72	142.77
378.91	131.07
379.11	131.07
379.31	131.07
379.50	105.32
379.70	140.43
379.89	88.94
380.09	93.62
380.28	105.32
380.48	88.94
380.68	161.50
380.87	173.20
381.07	128.73
381.26	208.31
381.46	98.30
381.65	154.48
381.85	140.43
382.04	58.51
382.24	149.79
382.43	74.90
382.63	100.64
382.83	110.01
383.02	159.16
383.22	126.39
383.41	110.01
383.61	138.09
383.80	121.71
384.00	135.75
384.19	93.62
384.39	98.30
384.58	149.79
384.78	170.86
384.97	2.34
385.17	161.50
385.36	124.05
385.56	107.66
385.75	121.71
385.95	107.66
386.14	98.30
386.34	88.94
386.53	112.35
386.72	107.66
386.92	63.19
387.11	135.75
387.31	119.37
387.50	98.30
387.70	124.05
387.89	91.28
388.09	121.71
388.28	133.41
388.48	70.22
388.67	135.75
388.86	110.01
389.06	88.94
389.25	86.60
389.45	117.03
389.64	91.28
389.84	147.45
390.03	119.37
390.22	154.48
390.42	154.48
390.61	49.15
390.81	98.30
391.00	102.98
391.19	142.77
391.39	145.11
391.58	100.64
391.78	135.75
391.97	149.79
392.16	149.79
392.36	187.24
392.55	187.24
392.75	159.16
392.94	102.98
393.13	126.39
393.33	133.41
393.52	121.71
393.71	173.20
393.91	114.69
394.10	107.66
394.29	102.98
394.49	79.58
394.68	128.73
394.88	142.77
395.07	166.18
395.26	126.39
395.46	93.62
395.65	138.09
395.84	168.52
396.04	210.65
396.23	128.73
396.42	156.82
396.62	168.52
396.81	149.79
397.00	79.58
397.19	133.41
397.39	107.66
397.58	121.71
397.77	98.30
397.97	163.84
398.16	163.84
398.35	145.11
398.55	142.77
398.74	110.01
398.93	187.24
399.12	86.60
399.32	63.19
399.51	128.73
399.70	194.26
399.90	93.62
400.09	149.79
400.28	215.33
400.47	114.69
400.67	212.99
400.86	119.37
401.05	182.56
401.24	189.58
401.44	177.88
401.63	191.92
401.82	124.05
402.01	138.09
402.21	133.41
402.40	177.88
402.59	173.20
402.78	227.03
402.97	177.88
403.17	222.35
403.36	285.55
403.55	362.78
403.74	671.73
403.93	1956.69
404.13	4779.37
404.32	7124.59
404.51	6267.95
404.70	3950.82
404.89	1481.56
405.09	519.60
405.28	297.25
405.47	259.80
405.66	198.95
405.85	229.37
406.05	208.31
406.24	175.54
406.43	215.33
406.62	166.18
406.81	255.12
407.00	297.25
407.20	667.05
407.39	1025.15
407.58	1018.13
407.77	713.86
407.96	442.36
408.15	264.48
408.34	241.08
408.54	187.24
408.73	208.31
408.92	227.03
409.11	220.01
409.30	170.86
409.49	138.09
409.68	191.92
409.87	100.64
410.07	180.22
410.26	250.44
410.45	117.03
410.64	229.37
410.83	196.60
411.02	191.92
411.21	191.92
411.40	250.44
411.59	180.22
411.78	142.77
411.98	184.90
412.17	205.97
412.36	177.88
412.55	236.39
412.74	168.52
412.93	236.39
413.12	189.58
413.31	238.73
413.50	245.76
413.69	278.52
413.88	191.92
414.07	212.99
414.26	156.82
414.45	107.66
414.64	241.08
414.83	264.48
415.02	273.84
415.22	203.63
415.41	266.82
415.60	187.24
415.79	170.86
415.98	304.27
416.17	280.86
416.36	252.78
416.55	227.03
416.74	203.63
416.93	301.93
417.12	304.27
417.31	210.65
417.50	241.08
417.69	245.76
417.88	290.23
418.07	241.08
418.26	231.71
418.45	187.24
418.64	278.52
418.83	227.03
419.02	299.59
419.21	215.33
419.39	208.31
419.58	220.01
419.77	196.60
419.96	238.73
420.15	273.84
420.34	304.27
420.53	255.12
420.72	283.20
420.91	353.42
421.10	271.50
421.29	231.71
421.48	259.80
421.67	299.59
421.86	294.91
422.05	313.63
422.24	278.52
422.43	311.29
422.61	292.57
422.80	276.18
422.99	283.20
423.18	229.37
423.37	360.44
423.56	322.99
423.75	362.78
423.94	245.76
424.13	287.89
424.32	269.16
424.50	234.05
424.69	285.55
424.88	362.78
425.07	353.42
425.26	266.82
425.45	360.44
425.64	318.31
425.83	332.36
426.01	367.46
426.20	355.76
426.39	304.27
426.58	341.72
426.77	311.29
426.96	325.33
427.15	327.68
427.33	287.89
427.52	325.33
427.71	252.78
427.90	372.15
428.09	344.06
428.28	273.84
428.46	395.55
428.65	318.31
428.84	362.78
429.03	400.23
429.22	395.55
429.40	325.33
429.59	313.63
429.78	463.43
429.97	311.29
430.16	276.18
430.34	332.36
430.53	374.49
430.72	322.99
430.91	418.96
431.10	367.46
431.28	327.68
431.47	397.89
431.66	372.15
431.85	346.40
432.03	414.27
432.22	444.70
432.41	407.25
432.60	437.68
432.79	362.78
432.97	425.98
433.16	472.79
433.35	479.81
433.54	681.10
433.72	650.67
433.91	655.35
434.10	660.03
434.28	957.28
434.47	1027.50
434.66	1078.99
434.85	1329.42
435.03	3110.57
435.22	11791.62
435.41	28755.82
435.59	33188.80
435.78	21867.63
435.97	10525.39
436.16	4159.13
436.34	1507.30
436.53	816.85
436.72	685.78
436.90	657.69
437.09	627.26
437.28	528.96
437.46	458.74
437.65	507.90
437.84	538.32
438.02	442.36
438.21	463.43
438.40	430.66
438.58	430.66
438.77	472.79
438.96	454.06
439.14	407.25
439.33	479.81
439.52	395.55
439.70	449.38
439.89	475.13
440.08	435.34
440.26	421.30
440.45	454.06
440.63	505.56
440.82	491.51
441.01	383.85
441.19	407.25
441.38	489.17
441.57	440.02
441.75	498.53
441.94	458.74
442.12	425.98
442.31	437.68
442.50	423.64
442.68	418.96
442.87	475.13
443.05	437.68
443.24	458.74
443.43	465.77
443.61	496.19
443.80	365.12
443.98	421.30
444.17	400.23
444.35	526.62
444.54	435.34
444.73	390.87
444.91	479.81
445.10	484.49
445.28	407.25
445.47	517.26
445.65	451.72
445.84	318.31
446.02	416.62
446.21	400.23
446.39	435.34
446.58	512.58
446.77	500.87
446.95	470.45
447.14	479.81
447.32	486.83
447.51	416.62
447.69	482.15
447.88	437.68
448.06	442.36
448.25	521.94
448.43	444.70
448.62	447.04
448.80	393.21
448.99	454.06
449.17	468.11
449.36	428.32
449.54	496.19
449.73	376.83
449.91	435.34
450.10	503.22
450.28	503.22
450.46	461.09
450.65	475.13
450.83	444.70
451.02	440.02
451.20	475.13
451.39	496.19
451.57	482.15
451.76	440.02
451.94	416.62
452.13	437.68
452.31	472.79
452.49	451.72
452.68	484.49
452.86	535.98
453.05	451.72
453.23	465.77
453.42	430.66
453.60	418.96
453.78	454.06
453.97	409.59
454.15	325.33
454.34	423.64
454.52	435.34
454.70	437.68
454.89	454.06
455.07	440.02
455.26	449.38
455.44	451.72
455.62	433.00
455.81	468.11
455.99	447.04
456.17	416.62
456.36	449.38
456.54	388.53
456.73	379.17
456.91	425.98
457.09	479.81
457.28	425.98
457.46	472.79
457.64	458.74
457.83	395.55
458.01	397.89
458.19	416.62
458.38	395.55
458.56	475.13
458.74	379.17
458.93	447.04
459.11	458.74
459.29	397.89
459.48	470.45
459.66	388.53
459.84	437.68
460.03	498.53
460.21	472.79
460.39	400.23
460.57	505.56
460.76	409.59
460.94	409.59
461.12	433.00
461.31	489.17
461.49	423.64
461.67	458.74
461.85	388.53
462.04	367.46
462.22	624.92
462.40	510.24
462.59	433.00
462.77	360.44
462.95	409.59
463.13	451.72
463.32	407.25
463.50	435.34
463.68	425.98
463.86	484.49
464.05	418.96
464.23	440.02
464.41	491.51
464.59	428.32
464.78	425.98
464.96	411.93
465.14	425.98
465.32	393.21
465.50	496.19
465.69	404.91
465.87	407.25
466.05	369.80
466.23	447.04
466.41	500.87
466.60	484.49
466.78	468.11
466.96	524.28
467.14	472.79
467.32	430.66
467.51	447.04
467.69	395.55
467.87	388.53
468.05	423.64
468.23	430.66
468.41	435.34
468.60	393.21
468.78	386.19
468.96	444.70
469.14	376.83
469.32	411.93
469.50	320.65
469.69	390.87
469.87	442.36
470.05	381.51
470.23	421.30
470.41	430.66
470.59	379.17
470.77	489.17
470.95	379.17
471.14	430.66
471.32	475.13
471.50	433.00
471.68	423.64
471.86	428.32
472.04	421.30
472.22	433.00
472.40	360.44
472.58	416.62
472.77	411.93
472.95	425.98
473.13	454.06
473.31	470.45
473.49	423.64
473.67	374.49
473.85	456.40
474.03	465.77
474.21	409.59
474.39	491.51
474.57	374.49
474.75	365.12
474.93	344.06
475.12	388.53
475.30	444.70
475.48	435.34
475.66	425.98
475.84	456.40
476.02	372.15
476.20	339.38
476.38	463.43
476.56	472.79
476.74	435.34
476.92	437.68
477.10	437.68
477.28	458.74
477.46	479.81
477.64	393.21
477.82	454.06
478.00	477.47
478.18	458.74
478.36	463.43
478.54	416.62
478.72	416.62
478.90	524.28
479.08	505.56
479.26	538.32
479.44	503.22
479.62	465.77
479.80	592.16
479.98	531.30
480.16	573.43
480.34	631.94
480.52	624.92
480.70	615.56
480.88	716.20
481.06	711.52
481.24	763.01
481.41	777.06
481.59	809.83
481.77	861.32
481.95	863.66
482.13	880.04
482.31	1046.22
482.49	1069.62
482.67	1193.67
482.85	1226.44
483.03	1273.25
483.21	1376.24
483.39	1462.83
483.57	1607.95
483.74	1685.19
483.92	1750.72
484.10	1729.66
484.28	1867.75
484.46	2073.71
484.64	2125.21
484.82	2186.06
485.00	2284.36
485.18	2516.08
485.35	2712.68
485.53	2818.00
485.71	2855.45
485.89	2862.48
486.07	2930.35
486.25	3105.89
486.43	3094.19
486.61	3220.58
486.78	3300.16
486.96	3136.32
487.14	3077.80
487.32	3059.08
487.50	2939.71
487.68	3056.74
487.85	3014.61
488.03	2993.55
488.21	2942.05
488.39	2923.33
488.57	2796.94
488.75	2710.34
488.92	2958.44
489.10	2626.08
489.28	2619.06
489.46	2576.93
489.64	2438.84
489.81	2466.92
489.99	2471.61
490.17	2502.03
490.35	2417.77
490.53	2345.22
490.70	2431.82
490.88	2410.75
491.06	2370.96
491.24	2546.50
491.41	2621.40
491.59	2569.91
491.77	2342.88
491.95	2293.72
492.13	2157.97
492.30	2176.70
492.48	2052.65
492.66	2115.84
492.84	2092.44
493.01	2134.57
493.19	1832.64
493.37	2029.24
493.54	2029.24
493.72	1952.01
493.90	1823.28
494.08	1846.68
494.25	1799.87
494.43	1813.92
494.61	1764.76
494.79	1860.73
494.96	1760.08
495.14	1692.21
495.32	1760.08
495.49	1575.18
495.67	1682.85
495.85	1659.44
496.02	1497.94
496.20	1598.59
496.38	1558.80
496.55	1591.56
496.73	1621.99
496.91	1434.75
497.09	1544.75
497.26	1451.13
497.44	1409.00
497.62	1338.79
497.79	1369.21
497.97	1399.64
498.14	1294.32
498.32	1313.04
498.50	1280.27
498.67	1191.33
498.85	1156.22
499.03	1118.78
499.20	1116.44
499.38	1107.07
499.56	1107.07
499.73	1156.22
499.91	1067.28
500.08	1114.10
500.26	961.96
500.44	936.21
500.61	976.00
500.79	959.62
500.97	896.43
501.14	933.87
501.32	770.04
501.49	863.66
501.67	758.33
501.84	802.80
502.02	716.20
502.20	711.52
502.37	720.88
502.55	755.99
502.72	737.27
502.90	676.41
503.07	582.79
503.25	727.91
503.43	638.97
503.60	629.60
503.78	575.77
503.95	585.13
504.13	521.94
504.30	568.75
504.48	648.33
504.65	615.56
504.83	547.69
505.01	645.99
505.18	589.82
505.36	594.50
505.53	533.64
505.71	505.56
505.88	519.60
506.06	496.19
506.23	512.58
506.41	418.96
506.58	512.58
506.76	564.07
506.93	468.11
507.11	550.03
507.28	449.38
507.46	461.09
507.63	526.62
507.81	500.87
507.98	458.74
508.16	465.77
508.33	463.43
508.50	484.49
508.68	531.30
508.85	521.94
509.03	496.19
509.20	521.94
509.38	554.71
509.55	451.72
509.73	479.81
509.90	507.90
510.08	496.19
510.25	437.68
510.42	451.72
510.60	397.89
510.77	456.40
510.95	416.62
511.12	423.64
511.30	559.39
511.47	421.30
511.64	465.77
511.82	447.04
511.99	411.93
512.17	402.57
512.34	404.91
512.51	390.87
512.69	430.66
512.86	430.66
513.04	447.04
513.21	477.47
513.38	440.02
513.56	475.13
513.73	367.46
513.90	386.19
514.08	444.70
514.25	425.98
514.43	355.76
514.60	425.98
514.77	379.17
514.95	416.62
515.12	381.51
515.29	376.83
515.47	372.15
515.64	358.10
515.81	416.62
515.99	435.34
516.16	461.09
516.33	423.64
516.51	454.06
516.68	346.40
516.85	365.12
517.03	341.72
517.20	353.42
517.37	388.53
517.54	468.11
517.72	325.33
517.89	379.17
518.06	313.63
518.24	400.23
518.41	383.85
518.58	379.17
518.75	358.10
518.93	435.34
519.10	397.89
519.27	390.87
519.45	416.62
519.62	339.38
519.79	409.59
519.96	365.12
520.14	388.53
520.31	369.80
520.48	327.68
520.65	418.96
520.83	383.85
521.00	365.12
521.17	313.63
521.34	341.72
521.52	290.23
521.69	423.64
521.86	315.97
522.03	397.89
522.20	355.76
522.38	297.25
522.55	440.02
522.72	341.72
522.89	376.83
523.07	454.06
523.24	390.87
523.41	374.49
523.58	339.38
523.75	217.67
523.92	318.31
524.10	351.08
524.27	390.87
524.44	397.89
524.61	449.38
524.78	308.95
524.96	360.44
525.13	409.59
525.30	425.98
525.47	421.30
525.64	388.53
525.81	409.59
525.98	437.68
526.16	390.87
526.33	404.91
526.50	362.78
526.67	418.96
526.84	383.85
527.01	390.87
527.18	526.62
527.36	468.11
527.53	433.00
527.70	444.70
527.87	479.81
528.04	491.51
528.21	423.64
528.38	442.36
528.55	498.53
528.72	425.98
528.89	514.92
529.07	484.49
529.24	409.59
529.41	484.49
529.58	423.64
529.75	423.64
529.92	505.56
530.09	535.98
530.26	557.05
530.43	526.62
530.60	477.47
530.77	571.09
530.94	519.60
531.11	547.69
531.28	575.77
531.46	573.43
531.63	580.45
531.80	596.84
531.97	676.41
532.14	781.74
532.31	922.17
532.48	1158.57
532.65	1249.85
532.82	1313.04
532.99	1638.38
533.16	1776.47
533.33	1863.07
533.50	1694.55
533.67	1493.26
533.84	1387.94
534.01	1254.53
534.18	1069.62
534.35	1107.07
534.52	1048.56
534.69	1174.95
534.86	1135.16
535.03	1181.97
535.20	1231.12
535.37	1289.64
535.54	1366.87
535.71	1390.28
535.88	1633.69
536.05	1586.88
536.22	1746.04
536.38	1874.77
536.55	2193.08
536.72	2286.70
536.89	2445.86
537.06	2899.92
537.23	3080.14
537.40	3473.36
537.57	3880.61
537.74	3861.88
537.91	3950.82
538.08	4124.02
538.25	4198.92
538.42	4154.45
538.59	4285.52
538.75	4432.97
538.92	4751.29
539.09	5151.52
539.26	5668.78
539.43	6415.41
539.60	7180.76
539.77	8112.30
539.94	9050.85
540.11	10160.27
540.28	11103.50
540.44	12058.44
540.61	13441.70
540.78	15211.14
540.95	18579.17
541.12	21916.78
541.29	24992.24
541.46	26082.93
541.62	26057.18
541.79	24964.15
541.96	23213.43
542.13	21642.93
542.30	20063.07
542.47	18951.32
542.63	18038.51
542.80	17486.14
542.97	17055.48
543.14	16989.95
543.31	17074.21
543.48	17118.68
543.64	17256.77
543.81	17472.10
543.98	17532.95
544.15	17804.46
544.32	17893.40
544.48	17642.96
544.65	17666.36
544.82	17160.81
544.99	17376.14
545.16	17893.40
545.32	18649.39
545.49	29706.08
545.66	52275.87
545.83	61160.54
546.00	56931.19
546.16	42110.92
546.33	31042.53
546.50	23323.44
546.67	17996.38
546.83	15887.56
547.00	15489.67
547.17	14387.27
547.34	14054.92
547.50	13373.82
547.67	12690.38
547.84	12329.94
548.00	12140.36
548.17	11494.37
548.34	11002.86
548.51	10588.58
548.67	10076.01
548.84	9783.44
549.01	9132.77
549.18	8779.35
549.34	8554.66
549.51	8189.53
549.68	7906.33
549.84	7461.63
550.01	7272.04
550.18	6942.03
550.34	6504.35
550.51	6359.24
550.68	5959.00
550.84	5586.86
551.01	5481.53
551.18	4992.36
551.34	4734.90
551.51	4589.79
551.68	4358.08
551.84	4276.16
552.01	4095.94
552.18	4109.98
552.34	3904.01
552.51	3618.47
552.68	3538.89
552.84	3339.94
553.01	3274.41
553.18	3176.11
553.34	2981.84
553.51	2906.95
553.67	2789.92
553.84	2902.26
554.01	2567.57
554.17	2502.03
554.34	2382.67
554.51	2085.42
554.67	2176.70
554.84	2029.24
555.00	1764.76
555.17	1788.17
555.33	1666.46
555.50	1631.35
555.67	1619.65
555.83	1427.73
556.00	1390.28
556.16	1537.73
556.33	1348.15
556.50	1277.93
556.66	1224.10
556.83	1142.18
556.99	1130.48
557.16	1081.33
557.32	1053.24
557.49	1015.79
557.65	1015.79
557.82	1032.18
557.98	966.64
558.15	1004.09
558.32	990.05
558.48	973.66
558.65	847.27
558.81	985.37
558.98	828.55
559.14	847.27
559.31	866.00
559.47	840.25
559.64	772.38
559.80	856.64
559.97	807.48
560.13	875.36
560.30	802.80
560.46	734.93
560.63	821.53
560.79	814.51
560.96	781.74
561.12	779.40
561.29	777.06
561.45	863.66
561.61	821.53
561.78	842.59
561.94	802.80
562.11	816.85
562.27	741.95
562.44	706.84
562.60	723.23
562.77	739.61
562.93	788.76
563.10	697.48
563.26	730.25
563.42	751.31
563.59	709.18
563.75	709.18
563.92	704.50
564.08	793.44
564.24	643.65
564.41	748.97
564.57	575.77
564.74	669.39
564.90	610.88
565.07	645.99
565.23	641.31
565.39	587.47
565.56	655.35
565.72	620.24
565.88	594.50
566.05	580.45
566.21	596.84
566.38	620.24
566.54	589.82
566.70	550.03
566.87	636.63
567.03	615.56
567.19	610.88
567.36	622.58
567.52	587.47
567.68	662.37
567.85	636.63
568.01	578.11
568.17	699.82
568.34	622.58
568.50	671.73
568.66	685.78
568.83	734.93
568.99	543.00
569.15	706.84
569.32	514.92
569.48	533.64
569.64	528.96
569.81	550.03
569.97	512.58
570.13	433.00
570.30	503.22
570.46	482.15
570.62	475.13
570.78	348.74
570.95	411.93
571.11	540.66
571.27	561.73
571.43	486.83
571.60	440.02
571.76	493.85
571.92	491.51
572.09	425.98
572.25	468.11
572.41	505.56
572.57	468.11
572.74	465.77
572.90	449.38
573.06	557.05
573.22	526.62
573.38	526.62
573.55	510.24
573.71	535.98
573.87	575.77
574.03	550.03
574.20	587.47
574.36	566.41
574.52	559.39
574.68	538.32
574.84	603.86
575.01	599.18
575.17	643.65
575.33	681.10
575.49	788.76
575.65	788.76
575.82	807.48
575.98	940.90
576.14	983.02
576.30	1912.22
576.46	5823.25
576.62	11215.85
576.79	13596.17
576.95	9551.73
577.11	6171.99
577.27	4491.49
577.43	2848.43
577.59	1984.77
577.75	1497.94
577.92	1320.06
578.08	1282.61
578.24	1343.47
578.40	2047.97
578.56	5392.59
578.72	10136.86
578.88	11719.06
579.04	8699.77
579.21	5823.25
579.37	4362.76
579.53	3403.14
579.69	3176.11
579.85	3896.99
580.01	4657.67
580.17	4372.12
580.33	3894.65
580.49	3314.20
580.65	2871.84
580.82	2738.43
580.98	2579.27
581.14	2562.89
581.30	2658.85
581.46	3059.08
581.62	3227.60
581.78	3391.44
581.94	3702.73
582.10	3915.72
582.26	3854.86
582.42	4135.73
582.58	4191.90
582.74	4358.08
582.90	4358.08
583.06	4437.66
583.22	4301.90
583.38	4498.51
583.54	4456.38
583.70	4454.04
583.86	4388.50
584.02	4222.33
584.18	4475.10
584.34	4145.09
584.50	4145.09
584.66	4011.68
584.82	4035.08
584.98	3843.16
585.14	3859.54
585.30	3901.67
585.46	3648.90
585.62	3602.08
585.78	3660.60
585.94	3676.98
586.10	3817.41
586.26	4161.47
586.42	4437.66
586.58	5406.64
586.74	6509.03
586.90	7969.52
587.06	8587.43
587.22	8486.78
587.38	7620.78
587.54	6572.22
587.70	5771.76
587.86	4657.67
588.02	4245.73
588.18	3763.58
588.34	3337.60
588.49	3033.33
588.65	2754.81
588.81	2745.45
588.97	2691.62
589.13	2478.63
589.29	2513.74
589.45	2574.59
589.61	2324.15
589.77	2537.14
589.93	2506.71
590.08	2602.68
590.24	2619.06
590.40	2787.58
590.56	2761.83
590.72	2923.33
590.88	3023.97
591.04	3073.12
591.20	3087.17
591.35	3274.41
591.51	3375.05
591.67	3566.98
591.83	3777.62
591.99	4140.41
592.15	4376.80
592.31	4671.71
592.46	5188.97
592.62	5731.97
592.78	6143.91
592.94	6319.45
593.10	6153.27
593.26	5776.44
593.41	5418.34
593.57	4912.78
593.73	4329.99
593.89	3843.16
594.05	3405.48
594.20	3152.70
594.36	2764.17
594.52	2698.64
594.68	2541.82
594.84	2530.12
594.99	2296.07
595.15	2305.43
595.31	2237.55
595.47	2249.25
595.62	2260.96
595.78	2289.04
595.94	2211.81
596.10	2319.47
596.25	2207.13
596.41	2272.66
596.57	2251.60
596.73	2179.04
596.88	2253.94
597.04	2139.25
597.20	2317.13
597.36	2331.17
597.51	2246.91
597.67	2441.18
597.83	2527.78
597.99	2588.63
598.14	2729.06
598.30	2965.46
598.46	2942.05
598.61	3288.45
598.77	3365.69
598.93	3508.46
599.09	3630.17
599.24	3751.88
599.40	3812.73
599.56	3721.45
599.71	3372.71
599.87	3267.39
600.03	3035.67
600.18	3000.57
600.34	2654.17
600.50	2609.70
600.65	2279.68
600.81	2251.60
600.97	2115.84
601.12	2066.69
601.28	2001.16
601.44	1928.60
601.59	1774.13
601.75	1678.16
601.91	1624.33
602.06	1544.75
602.22	1675.82
602.37	1479.22
602.53	1509.65
602.69	1483.90
602.84	1495.60
603.00	1380.92
603.16	1458.15
603.31	1568.16
603.47	1575.18
603.62	1593.90
603.78	1486.24
603.94	1699.23
604.09	1849.02
604.25	1732.00
604.40	1682.85
604.56	1769.44
604.71	1703.91
604.87	1701.57
605.03	1856.04
605.18	1895.83
605.34	1933.28
605.49	1832.64
605.65	1954.35
605.80	2054.99
605.96	2111.16
606.12	2134.57
606.27	2256.28
606.43	2345.22
606.58	2413.09
606.74	2525.44
606.89	2672.89
607.05	2803.96
607.20	2876.52
607.36	3066.10
607.51	3225.26
607.67	3384.41
607.82	3684.00
607.98	3967.21
608.13	4128.70
608.29	4617.88
608.44	4952.57
608.60	5313.02
608.75	5856.02
608.91	6473.92
609.06	6888.20
609.22	7653.55
609.37	8479.76
609.53	9757.69
609.68	10832.00
609.84	12451.65
609.99	14757.08
610.15	17444.01
610.30	21266.11
610.46	26735.94
610.61	34845.90
610.76	44299.32
610.92	51861.59
611.07	55334.95
611.23	56306.27
611.38	55487.08
611.54	51978.62
611.69	45497.67
611.84	38663.31
612.00	31842.99
612.15	26822.54
612.31	23693.24
612.46	20650.55
612.62	19400.70
612.77	18342.78
612.92	17205.28
613.08	16255.02
613.23	15520.09
613.39	14698.56
613.54	14307.69
613.69	14195.35
613.85	13965.98
614.00	13752.99
614.15	13607.87
614.31	13584.47
614.46	13357.44
614.62	12594.42
614.77	12128.66
614.92	11262.66
615.08	10490.28
615.23	9708.54
615.38	8982.98
615.54	7887.61
615.69	7581.00
615.84	6857.77
616.00	6438.81
616.15	6155.61
616.30	5570.48
616.46	5032.15
616.61	4966.62
616.76	4578.09
616.92	4411.91
617.07	4142.75
617.22	3791.67
617.37	3705.07
617.53	3672.30
617.68	3503.78
617.83	3335.26
617.99	3358.67
618.14	3253.34
618.29	3150.36
618.45	3112.91
618.60	2974.82
618.75	2935.03
618.90	2932.69
619.06	2860.13
619.21	2885.88
619.36	2867.16
619.51	2822.69
619.67	2846.09
619.82	2885.88
619.97	2874.18
620.12	2932.69
620.28	2902.26
620.43	3176.11
620.58	3059.08
620.73	3133.98
620.89	3229.94
621.04	3164.40
621.19	3236.96
621.34	3236.96
621.49	3103.55
621.65	2841.41
621.80	2888.22
621.95	2930.35
622.10	2995.89
622.25	2967.80
622.41	3103.55
622.56	3169.09
622.71	3197.17
622.86	3232.28
623.01	3321.22
623.16	3297.81
623.32	3297.81
623.47	3330.58
623.62	3248.66
623.77	3337.60
623.92	3269.73
624.07	3269.73
624.23	3332.92
624.38	3236.96
624.53	3293.13
624.68	3318.88
624.83	3396.12
624.98	3543.57
625.13	3435.91
625.29	3438.25
625.44	3501.44
625.59	3496.76
625.74	3424.20
625.89	3435.91
626.04	3389.10
626.19	3468.67
626.34	3597.40
626.49	3499.10
626.65	3398.46
626.80	3456.97
626.95	3276.75
627.10	3302.50
627.25	3225.26
627.40	3187.81
627.55	3110.57
627.70	3159.72
627.85	2991.20
628.00	3159.72
628.15	3070.78
628.30	2986.52
628.45	3047.38
628.60	3094.19
628.76	3124.62
628.91	3075.46
629.06	3096.53
629.21	3115.25
629.36	3255.69
629.51	3164.40
629.66	3323.56
629.81	3733.15
629.96	3953.16
630.11	4423.61
630.26	4835.55
630.41	5547.07
630.56	5827.93
630.71	6417.75
630.86	6600.31
631.01	6497.33
631.16	5966.03
631.31	5427.70
631.46	4699.80
631.61	3906.35
631.76	3251.00
631.91	2888.22
632.06	2396.71
632.21	2181.38
632.36	1790.51
632.51	1668.80
632.66	1490.92
632.81	1416.02
632.96	1249.85
633.10	1266.23
633.25	1263.89
633.40	1153.88
633.55	1118.78
633.70	1097.71
633.85	1027.50
634.00	987.71
634.15	961.96
634.30	912.81
634.45	875.36
634.60	851.96
634.75	884.72
634.90	887.06
635.05	877.70
635.19	898.77
635.34	786.42
635.49	877.70
635.64	800.46
635.79	823.87
635.94	795.78
636.09	835.57
636.24	755.99
636.39	734.93
636.53	739.61
636.68	711.52
636.83	746.63
636.98	793.44
637.13	730.25
637.28	725.57
637.43	755.99
637.57	681.10
637.72	716.20
637.87	718.54
638.02	699.82
638.17	725.57
638.32	615.56
638.46	702.16
638.61	744.29
638.76	641.31
638.91	624.92
639.06	613.22
639.20	685.78
639.35	660.03
639.50	599.18
639.65	603.86
639.80	629.60
639.94	620.24
640.09	624.92
640.24	596.84
640.39	613.22
640.54	573.43
640.68	585.13
640.83	582.79
640.98	601.52
641.13	610.88
641.27	594.50
641.42	582.79
641.57	622.58
641.72	561.73
641.86	578.11
642.01	667.05
642.16	566.41
642.31	559.39
642.45	648.33
642.60	566.41
642.75	535.98
642.90	606.20
643.04	496.19
643.19	608.54
643.34	535.98
643.48	606.20
643.63	594.50
643.78	634.29
643.93	631.94
644.07	564.07
644.22	615.56
644.37	561.73
644.51	608.54
644.66	653.01
644.81	655.35
644.95	629.60
645.10	613.22
645.25	575.77
645.39	514.92
645.54	543.00
645.69	599.18
645.83	557.05
645.98	671.73
646.13	557.05
646.27	594.50
646.42	496.19
646.57	624.92
646.71	512.58
646.86	545.34
647.00	580.45
647.15	582.79
647.30	587.47
647.44	617.90
647.59	547.69
647.74	528.96
647.88	629.60
648.03	573.43
648.17	622.58
648.32	533.64
648.47	552.37
648.61	585.13
648.76	622.58
648.90	631.94
649.05	648.33
649.20	706.84
649.34	723.23
649.49	816.85
649.63	943.24
649.78	1128.14
649.92	1207.72
650.07	1535.39
650.21	1720.29
650.36	1881.79
650.51	1849.02
650.65	1722.63
650.80	1521.35
650.94	1427.73
651.09	1224.10
651.23	1181.97
651.38	1046.22
651.52	929.19
651.67	896.43
651.81	812.17
651.96	772.38
652.10	774.72
652.25	704.50
652.39	720.88
652.54	793.44
652.68	854.30
652.83	973.66
652.97	950.26
653.12	947.92
653.26	905.79
653.41	854.30
653.55	861.32
653.70	760.67
653.84	678.76
653.99	638.97
654.13	690.46
654.27	667.05
654.42	589.82
654.56	622.58
654.71	554.71
654.85	648.33
655.00	603.86
655.14	629.60
655.29	608.54
655.43	524.28
655.57	550.03
655.72	582.79
655.86	482.15
656.01	512.58
656.15	550.03
656.30	503.22
656.44	510.24
656.58	552.37
656.73	550.03
656.87	503.22
657.01	585.13
657.16	660.03
657.30	636.63
657.45	648.33
657.59	653.01
657.73	669.39
657.88	678.76
658.02	692.80
658.16	589.82
658.31	566.41
658.45	573.43
658.60	498.53
658.74	519.60
658.88	461.09
659.03	503.22
659.17	433.00
659.31	425.98
659.46	409.59
659.60	444.70
659.74	442.36
659.89	447.04
660.03	500.87
660.17	442.36
660.32	358.10
660.46	437.68
660.60	437.68
660.74	418.96
660.89	477.47
661.03	400.23
661.17	524.28
661.32	526.62
661.46	587.47
661.60	636.63
661.74	767.70
661.89	863.66
662.03	1020.47
662.17	1093.03
662.31	1142.18
662.46	1174.95
662.60	983.02
662.74	858.98
662.88	844.93
663.03	753.65
663.17	697.48
663.31	683.44
663.45	585.13
663.60	650.67
663.74	580.45
663.88	571.09
664.02	629.60
664.17	437.68
664.31	428.32
664.45	393.21
664.59	425.98
664.73	440.02
664.88	425.98
665.02	411.93
665.16	388.53
665.30	425.98
665.44	374.49
665.59	421.30
665.73	313.63
665.87	348.74
666.01	428.32
666.15	383.85
666.29	388.53
666.44	402.57
666.58	353.42
666.72	393.21
666.86	418.96
667.00	409.59
667.14	454.06
667.28	397.89
667.43	393.21
667.57	416.62
667.71	395.55
667.85	472.79
667.99	414.27
668.13	437.68
668.27	311.29
668.41	315.97
668.56	430.66
668.70	339.38
668.84	327.68
668.98	374.49
669.12	376.83
669.26	358.10
669.40	425.98
669.54	383.85
669.68	383.85
669.82	411.93
669.96	360.44
670.10	379.17
670.25	341.72
670.39	379.17
670.53	369.80
670.67	311.29
670.81	407.25
670.95	360.44
671.09	365.12
671.23	411.93
671.37	404.91
671.51	402.57
671.65	421.30
671.79	383.85
671.93	397.89
672.07	444.70
672.21	425.98
672.35	365.12
672.49	407.25
672.63	386.19
672.77	369.80
672.91	395.55
673.05	299.59
673.19	306.61
673.33	360.44
673.47	381.51
673.61	245.76
673.75	320.65
673.89	283.20
674.03	337.04
674.17	369.80
674.31	339.38
674.45	318.31
674.59	332.36
674.73	322.99
674.87	292.57
675.01	362.78
675.15	322.99
675.29	435.34
675.43	362.78
675.56	304.27
675.70	353.42
675.84	273.84
675.98	292.57
676.12	276.18
676.26	390.87
676.40	322.99
676.54	327.68
676.68	290.23
676.82	262.14
676.96	271.50
677.10	299.59
677.23	283.20
677.37	355.76
677.51	330.02
677.65	351.08
677.79	231.71
677.93	313.63
678.07	278.52
678.21	285.55
678.34	241.08
678.48	285.55
678.62	308.95
678.76	243.42
678.90	315.97
679.04	299.59
679.18	318.31
679.31	362.78
679.45	290.23
679.59	379.17
679.73	313.63
679.87	308.95
680.00	365.12
680.14	346.40
680.28	271.50
680.42	360.44
680.56	351.08
680.70	365.12
680.83	315.97
680.97	294.91
681.11	376.83
681.25	311.29
681.39	360.44
681.52	231.71
681.66	334.70
681.80	311.29
681.94	339.38
682.07	372.15
682.21	294.91
682.35	294.91
682.49	212.99
682.62	250.44
682.76	271.50
682.90	278.52
683.04	231.71
683.17	332.36
683.31	299.59
683.45	259.80
683.59	337.04
683.72	360.44
683.86	208.31
684.00	227.03
684.13	294.91
684.27	322.99
684.41	278.52
684.55	229.37
684.68	294.91
684.82	182.56
684.96	313.63
685.09	299.59
685.23	266.82
685.37	383.85
685.50	299.59
685.64	311.29
685.78	278.52
685.91	322.99
686.05	311.29
686.19	318.31
686.32	358.10
686.46	374.49
686.60	454.06
686.73	498.53
686.87	489.17
687.01	535.98
687.14	468.11
687.28	550.03
687.42	535.98
687.55	606.20
687.69	695.14
687.82	704.50
687.96	580.45
688.10	629.60
688.23	578.11
688.37	561.73
688.50	510.24
688.64	491.51
688.78	442.36
688.91	435.34
689.05	330.02
689.18	344.06
689.32	257.46
689.46	257.46
689.59	332.36
689.73	383.85
689.86	252.78
690.00	250.44
690.13	259.80
690.27	259.80
690.41	269.16
690.54	383.85
690.68	313.63
690.81	287.89
690.95	241.08
691.08	231.71
691.22	238.73
691.35	227.03
691.49	273.84
691.62	189.58
691.76	149.79
691.89	177.88
692.03	203.63
692.16	203.63
692.30	152.13
692.43	224.69
692.57	173.20
692.70	280.86
692.84	250.44
692.97	311.29
693.11	325.33
693.24	381.51
693.38	409.59
693.51	475.13
693.65	552.37
693.78	545.34
693.92	543.00
694.05	440.02
694.19	351.08
694.32	351.08
694.45	318.31
694.59	257.46
694.72	231.71
694.86	236.39
694.99	250.44
695.13	201.29
695.26	229.37
695.39	191.92
695.53	313.63
695.66	222.35
695.80	175.54
695.93	220.01
696.07	201.29
696.20	201.29
696.33	194.26
696.47	177.88
696.60	196.60
696.73	217.67
696.87	201.29
697.00	271.50
697.14	262.14
697.27	238.73
697.40	238.73
697.54	215.33
697.67	121.71
697.80	173.20
697.94	175.54
698.07	222.35
698.21	245.76
698.34	187.24
698.47	152.13
698.61	180.22
698.74	194.26
698.87	154.48
699.01	208.31
699.14	119.37
699.27	177.88
699.40	257.46
699.54	152.13
699.67	152.13
699.80	117.03
699.94	119.37
700.07	180.22
700.20	74.90
700.34	131.07
700.47	74.90
700.60	147.45
700.73	65.54
700.87	128.73
701.00	180.22
701.13	152.13
701.26	147.45
701.40	98.30
701.53	201.29
701.66	119.37
701.79	187.24
701.93	175.54
702.06	191.92
702.19	163.84
702.32	191.92
702.46	166.18
702.59	133.41
702.72	156.82
702.85	159.16
702.99	128.73
703.12	173.20
703.25	177.88
703.38	145.11
703.51	280.86
703.65	203.63
703.78	161.50
703.91	252.78
704.04	351.08
704.17	257.46
704.31	311.29
704.44	280.86
704.57	177.88
704.70	234.05
704.83	297.25
704.96	241.08
705.10	266.82
705.23	287.89
>>>>>End Processed Spectral Data<<<<<
