SpectraSuite Data File
++++++++++++++++++++++++++++++++++++
Date: Fri Oct 04 11:41:58 GMT-05:00 2013
User: price-jones
Dark Spectrum Present: No
Reference Spectrum Present: No
Number of Sampled Component Spectra: 1
Spectrometers: USB2+H05261
Integration Time (usec): 100000 (USB2+H05261)
Spectra Averaged: 1 (USB2+H05261)
Boxcar Smoothing: 0 (USB2+H05261)
Correct for Electrical Dark: No (USB2+H05261)
Strobe/Lamp Enabled: No (USB2+H05261)
Correct for Detector Non-linearity: No (USB2+H05261)
Correct for Stray Light: No (USB2+H05261)
Number of Pixels in Processed Spectrum: 2048
>>>>>Begin Processed Spectral Data<<<<<
365.73	14.04
365.92	14.04
366.12	14.04
366.32	0.00
366.52	0.00
366.72	0.00
366.91	0.00
367.11	0.00
367.31	0.00
367.51	0.00
367.70	0.00
367.90	0.00
368.10	0.00
368.30	0.00
368.49	0.00
368.69	0.00
368.89	0.00
369.09	0.00
369.28	0.00
369.48	0.00
369.68	0.00
369.87	0.00
370.07	0.00
370.27	63.19
370.47	35.11
370.66	107.66
370.86	88.94
371.06	56.17
371.25	91.28
371.45	95.96
371.65	79.58
371.84	100.64
372.04	46.81
372.24	112.35
372.44	91.28
372.63	124.05
372.83	189.58
373.03	84.26
373.22	74.90
373.42	173.20
373.62	163.84
373.81	121.71
374.01	91.28
374.21	189.58
374.40	107.66
374.60	147.45
374.79	191.92
374.99	234.05
375.19	117.03
375.38	84.26
375.58	105.32
375.78	187.24
375.97	135.75
376.17	154.48
376.37	95.96
376.56	147.45
376.76	74.90
376.95	135.75
377.15	117.03
377.35	161.50
377.54	182.56
377.74	173.20
377.93	182.56
378.13	131.07
378.33	110.01
378.52	114.69
378.72	102.98
378.91	135.75
379.11	154.48
379.31	163.84
379.50	180.22
379.70	163.84
379.89	124.05
380.09	86.60
380.28	98.30
380.48	140.43
380.68	107.66
380.87	140.43
381.07	145.11
381.26	161.50
381.46	217.67
381.65	140.43
381.85	145.11
382.04	39.79
382.24	175.54
382.43	58.51
382.63	102.98
382.83	84.26
383.02	110.01
383.22	126.39
383.41	126.39
383.61	161.50
383.80	128.73
384.00	175.54
384.19	79.58
384.39	126.39
384.58	86.60
384.78	124.05
384.97	98.30
385.17	168.52
385.36	126.39
385.56	102.98
385.75	112.35
385.95	84.26
386.14	154.48
386.34	77.24
386.53	156.82
386.72	114.69
386.92	124.05
387.11	135.75
387.31	142.77
387.50	124.05
387.70	86.60
387.89	128.73
388.09	98.30
388.28	156.82
388.48	166.18
388.67	140.43
388.86	145.11
389.06	131.07
389.25	138.09
389.45	138.09
389.64	110.01
389.84	133.41
390.03	229.37
390.22	105.32
390.42	112.35
390.61	138.09
390.81	177.88
391.00	112.35
391.19	147.45
391.39	72.56
391.58	210.65
391.78	84.26
391.97	81.92
392.16	60.85
392.36	112.35
392.55	140.43
392.75	35.11
392.94	112.35
393.13	112.35
393.33	112.35
393.52	91.28
393.71	133.41
393.91	191.92
394.10	152.13
394.29	114.69
394.49	126.39
394.68	126.39
394.88	145.11
395.07	117.03
395.26	119.37
395.46	128.73
395.65	196.60
395.84	154.48
396.04	189.58
396.23	180.22
396.42	128.73
396.62	147.45
396.81	84.26
397.00	110.01
397.19	86.60
397.39	154.48
397.58	135.75
397.77	100.64
397.97	168.52
398.16	173.20
398.35	182.56
398.55	102.98
398.74	65.54
398.93	159.16
399.12	187.24
399.32	187.24
399.51	149.79
399.70	154.48
399.90	170.86
400.09	142.77
400.28	147.45
400.47	142.77
400.67	198.95
400.86	163.84
401.05	133.41
401.24	166.18
401.44	135.75
401.63	191.92
401.82	147.45
402.01	191.92
402.21	224.69
402.40	182.56
402.59	187.24
402.78	234.05
402.97	189.58
403.17	203.63
403.36	243.42
403.55	367.46
403.74	615.56
403.93	2176.70
404.13	5305.99
404.32	7541.21
404.51	6619.04
404.70	3920.40
404.89	1617.31
405.09	491.51
405.28	294.91
405.47	220.01
405.66	201.29
405.85	198.95
406.05	177.88
406.24	177.88
406.43	128.73
406.62	182.56
406.81	304.27
407.00	337.04
407.20	676.41
407.39	924.51
407.58	1022.81
407.77	713.86
407.96	519.60
408.15	196.60
408.34	259.80
408.54	196.60
408.73	184.90
408.92	198.95
409.11	217.67
409.30	234.05
409.49	201.29
409.68	163.84
409.87	142.77
410.07	222.35
410.26	187.24
410.45	236.39
410.64	166.18
410.83	301.93
411.02	203.63
411.21	161.50
411.40	189.58
411.59	252.78
411.78	243.42
411.98	173.20
412.17	203.63
412.36	262.14
412.55	250.44
412.74	273.84
412.93	269.16
413.12	220.01
413.31	217.67
413.50	266.82
413.69	187.24
413.88	224.69
414.07	220.01
414.26	180.22
414.45	182.56
414.64	306.61
414.83	283.20
415.02	212.99
415.22	210.65
415.41	177.88
415.60	187.24
415.79	198.95
415.98	234.05
416.17	294.91
416.36	271.50
416.55	245.76
416.74	320.65
416.93	327.68
417.12	159.16
417.31	245.76
417.50	224.69
417.69	241.08
417.88	231.71
418.07	184.90
418.26	278.52
418.45	266.82
418.64	280.86
418.83	248.10
419.02	304.27
419.21	229.37
419.39	271.50
419.58	229.37
419.77	266.82
419.96	308.95
420.15	262.14
420.34	208.31
420.53	315.97
420.72	297.25
420.91	313.63
421.10	205.97
421.29	278.52
421.48	294.91
421.67	259.80
421.86	348.74
422.05	304.27
422.24	283.20
422.43	290.23
422.61	306.61
422.80	269.16
422.99	299.59
423.18	290.23
423.37	285.55
423.56	266.82
423.75	262.14
423.94	358.10
424.13	337.04
424.32	330.02
424.50	311.29
424.69	269.16
424.88	351.08
425.07	273.84
425.26	327.68
425.45	248.10
425.64	318.31
425.83	379.17
426.01	320.65
426.20	273.84
426.39	283.20
426.58	294.91
426.77	294.91
426.96	383.85
427.15	308.95
427.33	306.61
427.52	325.33
427.71	304.27
427.90	308.95
428.09	318.31
428.28	339.38
428.46	290.23
428.65	379.17
428.84	365.12
429.03	332.36
429.22	341.72
429.40	292.57
429.59	362.78
429.78	379.17
429.97	369.80
430.16	372.15
430.34	259.80
430.53	334.70
430.72	348.74
430.91	346.40
431.10	372.15
431.28	362.78
431.47	456.40
431.66	400.23
431.85	400.23
432.03	386.19
432.22	456.40
432.41	475.13
432.60	463.43
432.79	477.47
432.97	475.13
433.16	496.19
433.35	510.24
433.54	653.01
433.72	650.67
433.91	664.71
434.10	688.12
434.28	826.21
434.47	943.24
434.66	1078.99
434.85	1320.06
435.03	3417.18
435.22	12812.09
435.41	30110.99
435.59	34871.64
435.78	22658.73
435.97	11349.26
436.16	4344.03
436.34	1528.37
436.53	919.83
436.72	765.36
436.90	608.54
437.09	627.26
437.28	491.51
437.46	535.98
437.65	475.13
437.84	566.41
438.02	524.28
438.21	512.58
438.40	458.74
438.58	514.92
438.77	491.51
438.96	498.53
439.14	437.68
439.33	404.91
439.52	493.85
439.70	444.70
439.89	397.89
440.08	472.79
440.26	491.51
440.45	477.47
440.63	437.68
440.82	531.30
441.01	493.85
441.19	461.09
441.38	470.45
441.57	510.24
441.75	463.43
441.94	477.47
442.12	468.11
442.31	477.47
442.50	484.49
442.68	440.02
442.87	475.13
443.05	531.30
443.24	409.59
443.43	531.30
443.61	514.92
443.80	524.28
443.98	381.51
444.17	383.85
444.35	547.69
444.54	578.11
444.73	454.06
444.91	519.60
445.10	486.83
445.28	484.49
445.47	454.06
445.65	496.19
445.84	477.47
446.02	409.59
446.21	400.23
446.39	447.04
446.58	477.47
446.77	458.74
446.95	456.40
447.14	440.02
447.32	472.79
447.51	451.72
447.69	388.53
447.88	519.60
448.06	500.87
448.25	444.70
448.43	491.51
448.62	428.32
448.80	430.66
448.99	472.79
449.17	390.87
449.36	468.11
449.54	440.02
449.73	425.98
449.91	477.47
450.10	482.15
450.28	550.03
450.46	531.30
450.65	470.45
450.83	524.28
451.02	409.59
451.20	475.13
451.39	458.74
451.57	437.68
451.76	442.36
451.94	442.36
452.13	472.79
452.31	496.19
452.49	442.36
452.68	414.27
452.86	470.45
453.05	568.75
453.23	472.79
453.42	475.13
453.60	489.17
453.78	470.45
453.97	409.59
454.15	418.96
454.34	442.36
454.52	447.04
454.70	437.68
454.89	386.19
455.07	433.00
455.26	400.23
455.44	456.40
455.62	421.30
455.81	376.83
455.99	468.11
456.17	489.17
456.36	372.15
456.54	418.96
456.73	465.77
456.91	512.58
457.09	435.34
457.28	468.11
457.46	440.02
457.64	482.15
457.83	428.32
458.01	437.68
458.19	528.96
458.38	458.74
458.56	437.68
458.74	430.66
458.93	433.00
459.11	479.81
459.29	355.76
459.48	528.96
459.66	463.43
459.84	465.77
460.03	627.26
460.21	503.22
460.39	430.66
460.57	526.62
460.76	423.64
460.94	447.04
461.12	454.06
461.31	458.74
461.49	423.64
461.67	397.89
461.85	479.81
462.04	451.72
462.22	910.47
462.40	458.74
462.59	477.47
462.77	468.11
462.95	486.83
463.13	468.11
463.32	528.96
463.50	442.36
463.68	468.11
463.86	407.25
464.05	395.55
464.23	367.46
464.41	524.28
464.59	477.47
464.78	493.85
464.96	465.77
465.14	456.40
465.32	416.62
465.50	489.17
465.69	433.00
465.87	362.78
466.05	416.62
466.23	376.83
466.41	430.66
466.60	388.53
466.78	482.15
466.96	505.56
467.14	512.58
467.32	463.43
467.51	428.32
467.69	458.74
467.87	505.56
468.05	458.74
468.23	503.22
468.41	449.38
468.60	416.62
468.78	428.32
468.96	423.64
469.14	433.00
469.32	374.49
469.50	360.44
469.69	496.19
469.87	318.31
470.05	414.27
470.23	496.19
470.41	475.13
470.59	475.13
470.77	463.43
470.95	393.21
471.14	472.79
471.32	463.43
471.50	526.62
471.68	414.27
471.86	440.02
472.04	500.87
472.22	404.91
472.40	362.78
472.58	409.59
472.77	400.23
472.95	472.79
473.13	451.72
473.31	423.64
473.49	423.64
473.67	379.17
473.85	416.62
474.03	444.70
474.21	458.74
474.39	486.83
474.57	458.74
474.75	292.57
474.93	418.96
475.12	409.59
475.30	404.91
475.48	454.06
475.66	444.70
475.84	435.34
476.02	428.32
476.20	521.94
476.38	428.32
476.56	475.13
476.74	496.19
476.92	341.72
477.10	402.57
477.28	489.17
477.46	486.83
477.64	433.00
477.82	521.94
478.00	535.98
478.18	498.53
478.36	472.79
478.54	421.30
478.72	463.43
478.90	510.24
479.08	596.84
479.26	594.50
479.44	545.34
479.62	620.24
479.80	489.17
479.98	550.03
480.16	669.39
480.34	650.67
480.52	678.76
480.70	645.99
480.88	727.91
481.06	681.10
481.24	755.99
481.41	954.94
481.59	866.00
481.77	947.92
481.95	943.24
482.13	954.94
482.31	1027.50
482.49	1086.01
482.67	1186.65
482.85	1217.08
483.03	1287.29
483.21	1488.58
483.39	1523.69
483.57	1488.58
483.74	1650.08
483.92	1771.79
484.10	1802.21
484.28	1966.05
484.46	2214.15
484.64	2005.84
484.82	2340.54
485.00	2478.63
485.18	2588.63
485.35	2829.71
485.53	2792.26
485.71	3009.93
485.89	3005.25
486.07	3033.33
486.25	3239.30
486.43	3248.66
486.61	3253.34
486.78	3201.85
486.96	3227.60
487.14	3358.67
487.32	3119.93
487.50	3138.66
487.68	3197.17
487.85	3087.17
488.03	3171.43
488.21	3129.30
488.39	2939.71
488.57	3052.06
488.75	2902.26
488.92	3035.67
489.10	2771.19
489.28	2885.88
489.46	2621.40
489.64	2586.29
489.81	2675.23
489.99	2455.22
490.17	2443.52
490.35	2597.99
490.53	2495.01
490.70	2466.92
490.88	2415.43
491.06	2656.51
491.24	2782.90
491.41	2803.96
491.59	2595.65
491.77	2387.35
491.95	2267.98
492.13	2312.45
492.30	2232.87
492.48	2207.13
492.66	2043.29
492.84	2097.12
493.01	2134.57
493.19	2087.76
493.37	2143.93
493.54	2043.29
493.72	2059.67
493.90	1961.37
494.08	1933.28
494.25	1928.60
494.43	1940.30
494.61	1823.28
494.79	1893.49
494.96	1830.30
495.14	1799.87
495.32	1638.38
495.49	1703.91
495.67	1748.38
495.85	1673.48
496.02	1610.29
496.20	1612.63
496.38	1607.95
496.55	1568.16
496.73	1614.97
496.91	1460.49
497.09	1460.49
497.26	1514.33
497.44	1460.49
497.62	1446.45
497.79	1404.32
497.97	1380.92
498.14	1355.17
498.32	1352.83
498.50	1362.19
498.67	1282.61
498.85	1306.02
499.03	1355.17
499.20	1233.46
499.38	1114.10
499.56	1132.82
499.73	1165.59
499.91	1221.76
500.08	1165.59
500.26	952.60
500.44	992.39
500.61	1053.24
500.79	929.19
500.97	819.19
501.14	1011.11
501.32	954.94
501.49	842.59
501.67	851.96
501.84	821.53
502.02	643.65
502.20	798.12
502.37	727.91
502.55	795.78
502.72	758.33
502.90	763.01
503.07	699.82
503.25	718.54
503.43	627.26
503.60	617.90
503.78	662.37
503.95	601.52
504.13	683.44
504.30	568.75
504.48	695.14
504.65	645.99
504.83	662.37
505.01	571.09
505.18	622.58
505.36	622.58
505.53	521.94
505.71	547.69
505.88	608.54
506.06	484.49
506.23	444.70
506.41	475.13
506.58	550.03
506.76	538.32
506.93	550.03
507.11	465.77
507.28	393.21
507.46	470.45
507.63	470.45
507.81	444.70
507.98	486.83
508.16	538.32
508.33	512.58
508.50	479.81
508.68	526.62
508.85	510.24
509.03	512.58
509.20	479.81
509.38	517.26
509.55	503.22
509.73	538.32
509.90	423.64
510.08	454.06
510.25	491.51
510.42	400.23
510.60	447.04
510.77	449.38
510.95	421.30
511.12	402.57
511.30	517.26
511.47	456.40
511.64	510.24
511.82	418.96
511.99	510.24
512.17	430.66
512.34	493.85
512.51	435.34
512.69	482.15
512.86	531.30
513.04	372.15
513.21	454.06
513.38	379.17
513.56	360.44
513.73	344.06
513.90	360.44
514.08	369.80
514.25	381.51
514.43	414.27
514.60	397.89
514.77	360.44
514.95	418.96
515.12	388.53
515.29	397.89
515.47	381.51
515.64	425.98
515.81	388.53
515.99	489.17
516.16	337.04
516.33	430.66
516.51	397.89
516.68	376.83
516.85	386.19
517.03	372.15
517.20	447.04
517.37	440.02
517.54	358.10
517.72	393.21
517.89	355.76
518.06	330.02
518.24	358.10
518.41	348.74
518.58	421.30
518.75	388.53
518.93	379.17
519.10	425.98
519.27	430.66
519.45	397.89
519.62	416.62
519.79	402.57
519.96	458.74
520.14	339.38
520.31	362.78
520.48	386.19
520.65	395.55
520.83	351.08
521.00	358.10
521.17	337.04
521.34	409.59
521.52	327.68
521.69	297.25
521.86	341.72
522.03	433.00
522.20	297.25
522.38	299.59
522.55	411.93
522.72	327.68
522.89	404.91
523.07	503.22
523.24	381.51
523.41	411.93
523.58	402.57
523.75	395.55
523.92	369.80
524.10	379.17
524.27	416.62
524.44	407.25
524.61	362.78
524.78	393.21
524.96	383.85
525.13	367.46
525.30	454.06
525.47	449.38
525.64	428.32
525.81	512.58
525.98	458.74
526.16	472.79
526.33	346.40
526.50	381.51
526.67	421.30
526.84	454.06
527.01	397.89
527.18	433.00
527.36	435.34
527.53	514.92
527.70	538.32
527.87	475.13
528.04	479.81
528.21	376.83
528.38	461.09
528.55	521.94
528.72	437.68
528.89	470.45
529.07	517.26
529.24	510.24
529.41	489.17
529.58	500.87
529.75	552.37
529.92	526.62
530.09	543.00
530.26	444.70
530.43	557.05
530.60	561.73
530.77	489.17
530.94	564.07
531.11	627.26
531.28	613.22
531.46	550.03
531.63	676.41
531.80	695.14
531.97	697.48
532.14	877.70
532.31	999.41
532.48	1107.07
532.65	1263.89
532.82	1322.40
532.99	1666.46
533.16	1853.70
533.33	2045.63
533.50	1891.15
533.67	1497.94
533.84	1385.60
534.01	1291.98
534.18	1268.57
534.35	1064.94
534.52	1144.52
534.69	1306.02
534.86	1270.91
535.03	1301.34
535.20	1214.74
535.37	1320.06
535.54	1441.77
535.71	1593.90
535.88	1638.38
536.05	1767.10
536.22	1909.88
536.38	2024.56
536.55	2188.40
536.72	2466.92
536.89	2670.55
537.06	3042.70
537.23	3309.52
537.40	3625.49
537.57	3805.71
537.74	4088.92
537.91	4390.84
538.08	4365.10
538.25	4432.97
538.42	4521.92
538.59	4627.24
538.75	4758.31
538.92	4968.96
539.09	5479.19
539.26	5905.17
539.43	6958.41
539.60	7798.66
539.77	8652.96
539.94	9795.14
540.11	10923.28
540.28	11964.82
540.44	12854.22
540.61	14022.15
540.78	16372.05
540.95	19566.88
541.12	23583.24
541.29	27171.28
541.46	28334.53
541.62	27887.48
541.79	26848.29
541.96	24725.42
542.13	23035.55
542.30	21188.87
542.47	20077.12
542.63	18930.25
542.80	18581.51
542.97	18497.25
543.14	18256.18
543.31	18153.20
543.48	18258.52
543.64	18597.90
543.81	18515.98
543.98	18333.42
544.15	18635.35
544.32	19044.94
544.48	19084.73
544.65	18829.61
544.82	18654.07
544.99	18515.98
545.16	18792.16
545.32	20074.77
545.49	31178.28
545.66	54829.39
545.83	62574.22
546.00	58665.53
546.16	44711.25
546.33	33195.82
546.50	24868.19
546.67	19201.76
546.83	17055.48
547.00	16444.60
547.17	15604.35
547.34	14820.27
547.50	13839.59
547.67	13614.90
547.84	13048.49
548.00	12664.64
548.17	12351.01
548.34	11705.02
548.51	11494.37
548.67	10593.26
548.84	10352.19
549.01	9596.20
549.18	9460.45
549.34	9074.26
549.51	8601.47
549.68	8269.11
549.84	8060.80
550.01	7604.40
550.18	7440.56
550.34	6965.43
550.51	6553.50
550.68	6272.64
550.84	5902.83
551.01	5621.97
551.18	5399.62
551.34	5146.84
551.51	5001.72
551.68	4837.89
551.84	4435.32
552.01	4334.67
552.18	4119.34
552.34	3967.21
552.51	3798.69
552.68	3845.50
552.84	3574.00
553.01	3438.25
553.18	3335.26
553.34	3155.04
553.51	3007.59
553.67	3110.57
553.84	2977.16
554.01	2649.49
554.17	2633.10
554.34	2399.05
554.51	2471.61
554.67	2223.51
554.84	2174.36
555.00	1933.28
555.17	1865.41
555.33	1809.23
555.50	1643.06
555.67	1675.82
555.83	1589.22
556.00	1467.52
556.16	1610.29
556.33	1399.64
556.50	1345.81
556.66	1294.32
556.83	1226.44
556.99	1280.27
557.16	1231.12
557.32	1123.46
557.49	1060.26
557.65	1090.69
557.82	1095.37
557.98	992.39
558.15	994.73
558.32	997.07
558.48	905.79
558.65	926.85
558.81	983.02
558.98	924.51
559.14	896.43
559.31	842.59
559.47	938.55
559.64	933.87
559.80	896.43
559.97	835.57
560.13	919.83
560.30	826.21
560.46	793.44
560.63	812.17
560.79	791.10
560.96	809.83
561.12	826.21
561.29	830.89
561.45	692.80
561.61	856.64
561.78	875.36
561.94	793.44
562.11	744.29
562.27	730.25
562.44	791.10
562.60	763.01
562.77	819.19
562.93	891.74
563.10	795.78
563.26	798.12
563.42	706.84
563.59	690.46
563.75	685.78
563.92	720.88
564.08	688.12
564.24	718.54
564.41	730.25
564.57	603.86
564.74	702.16
564.90	685.78
565.07	631.94
565.23	624.92
565.39	690.46
565.56	613.22
565.72	645.99
565.88	638.97
566.05	561.73
566.21	685.78
566.38	667.05
566.54	568.75
566.70	606.20
566.87	615.56
567.03	770.04
567.19	692.80
567.36	688.12
567.52	669.39
567.68	683.44
567.85	631.94
568.01	645.99
568.17	603.86
568.34	667.05
568.50	629.60
568.66	692.80
568.83	734.93
568.99	561.73
569.15	606.20
569.32	690.46
569.48	620.24
569.64	594.50
569.81	552.37
569.97	491.51
570.13	557.05
570.30	416.62
570.46	468.11
570.62	437.68
570.78	442.36
570.95	442.36
571.11	578.11
571.27	444.70
571.43	500.87
571.60	472.79
571.76	510.24
571.92	491.51
572.09	444.70
572.25	493.85
572.41	430.66
572.57	545.34
572.74	594.50
572.90	505.56
573.06	561.73
573.22	543.00
573.38	505.56
573.55	557.05
573.71	636.63
573.87	561.73
574.03	571.09
574.20	547.69
574.36	585.13
574.52	554.71
574.68	528.96
574.84	615.56
575.01	620.24
575.17	692.80
575.33	695.14
575.49	746.63
575.65	753.65
575.82	931.53
575.98	961.96
576.14	987.71
576.30	2134.57
576.46	6382.64
576.62	12074.82
576.79	13673.41
576.95	9778.76
577.11	6476.26
577.27	4648.30
577.43	3089.51
577.59	1940.30
577.75	1537.73
577.92	1387.94
578.08	1303.68
578.24	1369.21
578.40	2256.28
578.56	6300.72
578.72	10820.30
578.88	12393.14
579.04	9277.88
579.21	6214.12
579.37	4725.54
579.53	3515.48
579.69	3452.29
579.85	4187.22
580.01	4905.76
580.17	4713.84
580.33	4114.66
580.49	3531.87
580.65	3155.04
580.82	2937.37
580.98	2810.98
581.14	2754.81
581.30	3045.04
581.46	3129.30
581.62	3328.24
581.78	3712.09
581.94	3875.93
582.10	4245.73
582.26	4566.39
582.42	4521.92
582.58	4629.58
582.74	4802.78
582.90	4781.71
583.06	4861.29
583.22	4826.18
583.38	4835.55
583.54	4512.55
583.70	4748.95
583.86	4798.10
584.02	4440.00
584.18	4465.74
584.34	4280.84
584.50	4454.04
584.66	4414.25
584.82	4322.97
584.98	4259.78
585.14	3985.93
585.30	4046.79
585.46	4056.15
585.62	3985.93
585.78	3911.04
585.94	3833.80
586.10	4065.51
586.26	4402.55
586.42	4755.97
586.58	5617.29
586.74	7140.97
586.90	8519.55
587.06	9511.94
587.22	9327.03
587.38	8636.58
587.54	7204.17
587.70	6057.31
587.86	5158.54
588.02	4346.37
588.18	3985.93
588.34	3520.17
588.49	3185.47
588.65	3063.76
588.81	2827.37
588.97	2864.82
589.13	2635.44
589.29	2600.34
589.45	2750.13
589.61	2661.19
589.77	2670.55
589.93	2745.45
590.08	2747.79
590.24	2827.37
590.40	3009.93
590.56	2876.52
590.72	3077.80
590.88	3056.74
591.04	3204.19
591.20	3253.34
591.35	3571.66
591.51	3562.30
591.67	3796.35
591.83	4194.24
591.99	4273.82
592.15	4748.95
592.31	5132.79
592.46	5605.58
592.62	6069.01
592.78	6469.24
592.94	6724.36
593.10	6604.99
593.26	6534.78
593.41	5818.57
593.57	5261.52
593.73	4781.71
593.89	4072.53
594.05	3583.36
594.20	3412.50
594.36	3194.83
594.52	2766.51
594.68	2672.89
594.84	2548.84
594.99	2623.74
595.15	2431.82
595.31	2377.98
595.47	2382.67
595.62	2356.92
595.78	2345.22
595.94	2253.94
596.10	2485.65
596.25	2340.54
596.41	2305.43
596.57	2277.34
596.73	2356.92
596.88	2249.25
597.04	2438.84
597.20	2342.88
597.36	2441.18
597.51	2525.44
597.67	2537.14
597.83	2759.49
597.99	2878.86
598.14	3084.83
598.30	3314.20
598.46	3424.20
598.61	3693.37
598.77	3712.09
598.93	3906.35
599.09	3922.74
599.24	4049.13
599.40	3801.03
599.56	3911.04
599.71	3817.41
599.87	3403.14
600.03	3159.72
600.18	3054.40
600.34	2843.75
600.50	2860.13
600.65	2516.08
600.81	2452.88
600.97	2340.54
601.12	2153.29
601.28	2083.08
601.44	2001.16
601.59	1940.30
601.75	1750.72
601.91	1858.39
602.06	1659.44
602.22	1710.93
602.37	1624.33
602.53	1521.35
602.69	1626.67
602.84	1535.39
603.00	1610.29
603.16	1568.16
603.31	1666.46
603.47	1624.33
603.62	1647.74
603.78	1739.02
603.94	1757.74
604.09	1710.93
604.25	1788.17
604.40	1851.36
604.56	1874.77
604.71	1886.47
604.87	1811.57
605.03	1933.28
605.18	1888.81
605.34	2073.71
605.49	2080.74
605.65	2153.29
605.80	2232.87
605.96	2221.17
606.12	2356.92
606.27	2347.56
606.43	2396.71
606.58	2574.59
606.74	2813.32
606.89	2768.85
607.05	2935.03
607.20	3033.33
607.36	3344.63
607.51	3524.85
607.67	3639.53
607.82	3854.86
607.98	4397.87
608.13	4645.96
608.29	4791.08
608.44	5205.35
608.60	5790.49
608.75	6415.41
608.91	6857.77
609.06	7609.08
609.22	8423.59
609.37	9308.31
609.53	10310.06
609.68	11620.76
609.84	13565.74
609.99	15536.48
610.15	18253.84
610.30	22972.36
610.46	28980.51
610.61	37771.57
610.76	47147.75
610.92	54040.63
611.07	57616.97
611.23	58124.86
611.38	57258.87
611.54	53757.42
611.69	48699.53
611.84	41205.13
612.00	34089.90
612.15	28772.21
612.31	25530.56
612.46	22504.25
612.62	20840.13
612.77	19536.45
612.92	18209.37
613.08	17420.61
613.23	16425.88
613.39	15754.15
613.54	15391.36
613.69	15080.07
613.85	14913.89
614.00	14675.16
614.15	14665.80
614.31	14710.27
614.46	14129.81
614.62	13483.83
614.77	12910.40
614.92	12383.77
615.08	11220.53
615.23	10478.58
615.38	9687.48
615.54	8861.27
615.69	8074.85
615.84	7360.98
616.00	6801.60
616.15	6317.11
616.30	5968.37
616.46	5621.97
616.61	5327.06
616.76	5057.90
616.92	4627.24
617.07	4650.64
617.22	4285.52
617.37	3962.53
617.53	3990.61
617.68	3648.90
617.83	3625.49
617.99	3487.40
618.14	3433.57
618.29	3337.60
618.45	3197.17
618.60	3248.66
618.75	3082.49
618.90	3152.70
619.06	3094.19
619.21	3108.23
619.36	2984.18
619.51	3059.08
619.67	3068.44
619.82	3000.57
619.97	3103.55
620.12	3185.47
620.28	3211.22
620.43	3220.58
620.58	3365.69
620.73	3311.86
620.89	3323.56
621.04	3330.58
621.19	3258.03
621.34	3183.13
621.49	3222.92
621.65	3185.47
621.80	3229.94
621.95	3141.00
622.10	3159.72
622.25	3183.13
622.41	3269.73
622.56	3267.39
622.71	3307.18
622.86	3480.38
623.01	3370.37
623.16	3559.95
623.32	3466.33
623.47	3653.58
623.62	3524.85
623.77	3480.38
623.92	3688.68
624.07	3534.21
624.23	3557.61
624.38	3576.34
624.53	3660.60
624.68	3609.11
624.83	3639.53
624.98	3754.22
625.13	3440.59
625.29	3639.53
625.44	3648.90
625.59	3669.96
625.74	3719.11
625.89	3721.45
626.04	3782.31
626.19	3625.49
626.34	3756.56
626.49	3606.77
626.65	3581.02
626.80	3527.19
626.95	3531.87
627.10	3473.36
627.25	3461.65
627.40	3449.95
627.55	3463.99
627.70	3379.73
627.85	3187.81
628.00	3215.90
628.15	3215.90
628.30	3185.47
628.45	3297.81
628.60	3192.49
628.76	3173.77
628.91	3321.22
629.06	3251.00
629.21	3365.69
629.36	3471.01
629.51	3513.14
629.66	3758.90
629.81	3801.03
629.96	4372.12
630.11	4746.61
630.26	5256.84
630.41	5825.59
630.56	6392.00
630.71	6906.92
630.86	7220.55
631.01	7054.37
631.16	6270.30
631.31	5696.86
631.46	4819.16
631.61	4332.33
631.76	3597.40
631.91	2993.55
632.06	2576.93
632.21	2235.21
632.36	1980.09
632.51	1748.38
632.66	1521.35
632.81	1537.73
632.96	1497.94
633.10	1331.76
633.25	1238.14
633.40	1277.93
633.55	1221.76
633.70	1149.20
633.85	1064.94
634.00	1039.20
634.15	1034.52
634.30	1057.92
634.45	1001.75
634.60	961.96
634.75	964.30
634.90	887.06
635.05	966.64
635.19	931.53
635.34	947.92
635.49	917.49
635.64	903.45
635.79	891.74
635.94	840.25
636.09	926.85
636.24	774.72
636.39	816.85
636.53	741.95
636.68	767.70
636.83	788.76
636.98	809.83
637.13	730.25
637.28	854.30
637.43	746.63
637.57	716.20
637.72	784.08
637.87	730.25
638.02	606.20
638.17	732.59
638.32	727.91
638.46	655.35
638.61	716.20
638.76	692.80
638.91	683.44
639.06	648.33
639.20	681.10
639.35	695.14
639.50	709.18
639.65	692.80
639.80	638.97
639.94	662.37
640.09	716.20
640.24	678.76
640.39	629.60
640.54	634.29
640.68	613.22
640.83	643.65
640.98	589.82
641.13	594.50
641.27	730.25
641.42	650.67
641.57	648.33
641.72	653.01
641.86	601.52
642.01	692.80
642.16	580.45
642.31	601.52
642.45	660.03
642.60	660.03
642.75	589.82
642.90	669.39
643.04	662.37
643.19	610.88
643.34	645.99
643.48	685.78
643.63	688.12
643.78	592.16
643.93	671.73
644.07	667.05
644.22	662.37
644.37	622.58
644.51	596.84
644.66	641.31
644.81	599.18
644.95	627.26
645.10	723.23
645.25	503.22
645.39	589.82
645.54	629.60
645.69	650.67
645.83	573.43
645.98	631.94
646.13	526.62
646.27	657.69
646.42	601.52
646.57	582.79
646.71	638.97
646.86	552.37
647.00	564.07
647.15	638.97
647.30	620.24
647.44	498.53
647.59	493.85
647.74	498.53
647.88	547.69
648.03	596.84
648.17	650.67
648.32	580.45
648.47	683.44
648.61	725.57
648.76	608.54
648.90	634.29
649.05	760.67
649.20	770.04
649.34	760.67
649.49	823.87
649.63	1018.13
649.78	1158.57
649.92	1427.73
650.07	1682.85
650.21	1806.89
650.36	1895.83
650.51	1919.24
650.65	1783.49
650.80	1661.78
650.94	1502.62
651.09	1287.29
651.23	1294.32
651.38	1123.46
651.52	973.66
651.67	959.62
651.81	793.44
651.96	781.74
652.10	781.74
652.25	781.74
652.39	739.61
652.54	884.72
652.68	873.02
652.83	980.68
652.97	999.41
653.12	983.02
653.26	926.85
653.41	919.83
653.55	880.04
653.70	814.51
653.84	828.55
653.99	734.93
654.13	763.01
654.27	615.56
654.42	645.99
654.56	596.84
654.71	603.86
654.85	674.07
655.00	596.84
655.14	580.45
655.29	578.11
655.43	554.71
655.57	557.05
655.72	524.28
655.86	557.05
656.01	557.05
656.15	475.13
656.30	491.51
656.44	592.16
656.58	601.52
656.73	603.86
656.87	564.07
657.01	540.66
657.16	603.86
657.30	578.11
657.45	765.36
657.59	660.03
657.73	748.97
657.88	723.23
658.02	741.95
658.16	641.31
658.31	552.37
658.45	543.00
658.60	535.98
658.74	526.62
658.88	416.62
659.03	435.34
659.17	444.70
659.31	409.59
659.46	360.44
659.60	461.09
659.74	479.81
659.89	486.83
660.03	414.27
660.17	416.62
660.32	433.00
660.46	435.34
660.60	407.25
660.74	491.51
660.89	461.09
661.03	507.90
661.17	500.87
661.32	573.43
661.46	596.84
661.60	683.44
661.74	835.57
661.89	959.62
662.03	1046.22
662.17	1174.95
662.31	1221.76
662.46	1188.99
662.60	1132.82
662.74	987.71
662.88	924.51
663.03	896.43
663.17	758.33
663.31	685.78
663.45	720.88
663.60	634.29
663.74	596.84
663.88	524.28
664.02	472.79
664.17	512.58
664.31	451.72
664.45	491.51
664.59	491.51
664.73	463.43
664.88	491.51
665.02	447.04
665.16	416.62
665.30	437.68
665.44	318.31
665.59	498.53
665.73	440.02
665.87	402.57
666.01	332.36
666.15	421.30
666.29	409.59
666.44	475.13
666.58	489.17
666.72	299.59
666.86	440.02
667.00	407.25
667.14	360.44
667.28	395.55
667.43	372.15
667.57	435.34
667.71	493.85
667.85	461.09
667.99	442.36
668.13	379.17
668.27	498.53
668.41	388.53
668.56	470.45
668.70	423.64
668.84	454.06
668.98	397.89
669.12	360.44
669.26	360.44
669.40	433.00
669.54	360.44
669.68	374.49
669.82	365.12
669.96	428.32
670.10	479.81
670.25	449.38
670.39	409.59
670.53	411.93
670.67	376.83
670.81	390.87
670.95	369.80
671.09	348.74
671.23	440.02
671.37	428.32
671.51	411.93
671.65	374.49
671.79	409.59
671.93	372.15
672.07	437.68
672.21	362.78
672.35	463.43
672.49	299.59
672.63	414.27
672.77	393.21
672.91	386.19
673.05	367.46
673.19	402.57
673.33	285.55
673.47	383.85
673.61	283.20
673.75	351.08
673.89	320.65
674.03	337.04
674.17	388.53
674.31	280.86
674.45	325.33
674.59	367.46
674.73	374.49
674.87	330.02
675.01	393.21
675.15	337.04
675.29	315.97
675.43	337.04
675.56	330.02
675.70	315.97
675.84	276.18
675.98	334.70
676.12	306.61
676.26	301.93
676.40	292.57
676.54	320.65
676.68	229.37
676.82	351.08
676.96	273.84
677.10	344.06
677.23	283.20
677.37	243.42
677.51	334.70
677.65	334.70
677.79	273.84
677.93	327.68
678.07	278.52
678.21	280.86
678.34	315.97
678.48	304.27
678.62	308.95
678.76	320.65
678.90	376.83
679.04	306.61
679.18	301.93
679.31	313.63
679.45	325.33
679.59	348.74
679.73	311.29
679.87	358.10
680.00	280.86
680.14	285.55
680.28	318.31
680.42	330.02
680.56	409.59
680.70	400.23
680.83	308.95
680.97	346.40
681.11	423.64
681.25	339.38
681.39	297.25
681.52	395.55
681.66	411.93
681.80	367.46
681.94	276.18
682.07	358.10
682.21	344.06
682.35	311.29
682.49	287.89
682.62	283.20
682.76	376.83
682.90	372.15
683.04	304.27
683.17	283.20
683.31	264.48
683.45	299.59
683.59	299.59
683.72	318.31
683.86	325.33
684.00	259.80
684.13	276.18
684.27	365.12
684.41	262.14
684.55	297.25
684.68	304.27
684.82	259.80
684.96	292.57
685.09	292.57
685.23	290.23
685.37	313.63
685.50	299.59
685.64	299.59
685.78	330.02
685.91	271.50
686.05	372.15
686.19	425.98
686.32	393.21
686.46	374.49
686.60	404.91
686.73	507.90
686.87	592.16
687.01	458.74
687.14	531.30
687.28	610.88
687.42	594.50
687.55	657.69
687.69	650.67
687.82	664.71
687.96	624.92
688.10	653.01
688.23	585.13
688.37	557.05
688.50	517.26
688.64	458.74
688.78	362.78
688.91	456.40
689.05	358.10
689.18	318.31
689.32	273.84
689.46	292.57
689.59	351.08
689.73	344.06
689.86	231.71
690.00	304.27
690.13	215.33
690.27	273.84
690.41	325.33
690.54	337.04
690.68	351.08
690.81	273.84
690.95	294.91
691.08	276.18
691.22	124.05
691.35	215.33
691.49	243.42
691.62	283.20
691.76	220.01
691.89	114.69
692.03	170.86
692.16	212.99
692.30	259.80
692.43	252.78
692.57	152.13
692.70	203.63
692.84	238.73
692.97	250.44
693.11	311.29
693.24	341.72
693.38	493.85
693.51	547.69
693.65	648.33
693.78	601.52
693.92	479.81
694.05	479.81
694.19	315.97
694.32	402.57
694.45	308.95
694.59	234.05
694.72	266.82
694.86	168.52
694.99	205.97
695.13	250.44
695.26	278.52
695.39	224.69
695.53	250.44
695.66	201.29
695.80	156.82
695.93	156.82
696.07	220.01
696.20	208.31
696.33	126.39
696.47	220.01
696.60	198.95
696.73	278.52
696.87	170.86
697.00	229.37
697.14	147.45
697.27	241.08
697.40	262.14
697.54	187.24
697.67	168.52
697.80	191.92
697.94	102.98
698.07	175.54
698.21	133.41
698.34	187.24
698.47	107.66
698.61	102.98
698.74	133.41
698.87	170.86
699.01	138.09
699.14	198.95
699.27	128.73
699.40	241.08
699.54	95.96
699.67	170.86
699.80	222.35
699.94	154.48
700.07	154.48
700.20	203.63
700.34	175.54
700.47	222.35
700.60	220.01
700.73	128.73
700.87	241.08
701.00	161.50
701.13	156.82
701.26	173.20
701.40	182.56
701.53	194.26
701.66	133.41
701.79	210.65
701.93	161.50
702.06	198.95
702.19	163.84
702.32	184.90
702.46	163.84
702.59	201.29
702.72	173.20
702.85	198.95
702.99	196.60
703.12	287.89
703.25	191.92
703.38	191.92
703.51	248.10
703.65	166.18
703.78	234.05
703.91	292.57
704.04	313.63
704.17	203.63
704.31	168.52
704.44	271.50
704.57	175.54
704.70	255.12
704.83	315.97
704.96	304.27
705.10	273.84
705.23	332.36
>>>>>End Processed Spectral Data<<<<<
