SpectraSuite Data File
++++++++++++++++++++++++++++++++++++
Date: Fri Oct 04 11:41:58 GMT-05:00 2013
User: price-jones
Dark Spectrum Present: No
Reference Spectrum Present: No
Number of Sampled Component Spectra: 1
Spectrometers: USB2+H05261
Integration Time (usec): 100000 (USB2+H05261)
Spectra Averaged: 1 (USB2+H05261)
Boxcar Smoothing: 0 (USB2+H05261)
Correct for Electrical Dark: No (USB2+H05261)
Strobe/Lamp Enabled: No (USB2+H05261)
Correct for Detector Non-linearity: No (USB2+H05261)
Correct for Stray Light: No (USB2+H05261)
Number of Pixels in Processed Spectrum: 2048
>>>>>Begin Processed Spectral Data<<<<<
365.73	0.00
365.92	0.00
366.12	0.00
366.32	0.00
366.52	0.00
366.72	0.00
366.91	0.00
367.11	7.02
367.31	0.00
367.51	63.19
367.70	0.00
367.90	0.00
368.10	0.00
368.30	0.00
368.49	0.00
368.69	0.00
368.89	0.00
369.09	0.00
369.28	0.00
369.48	0.00
369.68	0.00
369.87	0.00
370.07	0.00
370.27	35.11
370.47	7.02
370.66	0.00
370.86	107.66
371.06	56.17
371.25	102.98
371.45	70.22
371.65	58.51
371.84	107.66
372.04	58.51
372.24	102.98
372.44	98.30
372.63	102.98
372.83	128.73
373.03	135.75
373.22	102.98
373.42	145.11
373.62	102.98
373.81	110.01
374.01	173.20
374.21	135.75
374.40	159.16
374.60	205.97
374.79	126.39
374.99	112.35
375.19	95.96
375.38	131.07
375.58	100.64
375.78	135.75
375.97	72.56
376.17	156.82
376.37	142.77
376.56	161.50
376.76	102.98
376.95	149.79
377.15	152.13
377.35	135.75
377.54	126.39
377.74	147.45
377.93	72.56
378.13	142.77
378.33	189.58
378.52	135.75
378.72	161.50
378.91	135.75
379.11	95.96
379.31	107.66
379.50	60.85
379.70	133.41
379.89	161.50
380.09	142.77
380.28	77.24
380.48	201.29
380.68	156.82
380.87	121.71
381.07	102.98
381.26	138.09
381.46	196.60
381.65	166.18
381.85	81.92
382.04	124.05
382.24	74.90
382.43	161.50
382.63	105.32
382.83	105.32
383.02	128.73
383.22	124.05
383.41	112.35
383.61	93.62
383.80	81.92
384.00	128.73
384.19	114.69
384.39	131.07
384.58	102.98
384.78	149.79
384.97	140.43
385.17	84.26
385.36	105.32
385.56	149.79
385.75	121.71
385.95	140.43
386.14	159.16
386.34	51.49
386.53	86.60
386.72	102.98
386.92	222.35
387.11	86.60
387.31	84.26
387.50	65.54
387.70	70.22
387.89	112.35
388.09	166.18
388.28	102.98
388.48	105.32
388.67	147.45
388.86	100.64
389.06	126.39
389.25	58.51
389.45	243.42
389.64	154.48
389.84	135.75
390.03	152.13
390.22	95.96
390.42	149.79
390.61	173.20
390.81	110.01
391.00	117.03
391.19	163.84
391.39	65.54
391.58	161.50
391.78	154.48
391.97	152.13
392.16	119.37
392.36	121.71
392.55	145.11
392.75	100.64
392.94	154.48
393.13	88.94
393.33	81.92
393.52	105.32
393.71	191.92
393.91	159.16
394.10	98.30
394.29	117.03
394.49	23.41
394.68	152.13
394.88	147.45
395.07	154.48
395.26	86.60
395.46	135.75
395.65	131.07
395.84	142.77
396.04	156.82
396.23	121.71
396.42	74.90
396.62	72.56
396.81	208.31
397.00	117.03
397.19	170.86
397.39	39.79
397.58	208.31
397.77	173.20
397.97	102.98
398.16	145.11
398.35	140.43
398.55	60.85
398.74	91.28
398.93	84.26
399.12	187.24
399.32	105.32
399.51	170.86
399.70	145.11
399.90	161.50
400.09	105.32
400.28	170.86
400.47	114.69
400.67	114.69
400.86	184.90
401.05	126.39
401.24	114.69
401.44	180.22
401.63	166.18
401.82	189.58
402.01	159.16
402.21	126.39
402.40	131.07
402.59	145.11
402.78	124.05
402.97	133.41
403.17	182.56
403.36	229.37
403.55	280.86
403.74	592.16
403.93	1696.89
404.13	3564.64
404.32	4362.76
404.51	3592.72
404.70	2218.83
404.89	840.25
405.09	372.15
405.28	203.63
405.47	110.01
405.66	147.45
405.85	224.69
406.05	140.43
406.24	156.82
406.43	135.75
406.62	194.26
406.81	224.69
407.00	320.65
407.20	568.75
407.39	650.67
407.58	674.07
407.77	498.53
407.96	276.18
408.15	196.60
408.34	168.52
408.54	201.29
408.73	203.63
408.92	159.16
409.11	208.31
409.30	222.35
409.49	67.88
409.68	159.16
409.87	241.08
410.07	126.39
410.26	180.22
410.45	100.64
410.64	91.28
410.83	152.13
411.02	159.16
411.21	182.56
411.40	238.73
411.59	133.41
411.78	159.16
411.98	224.69
412.17	112.35
412.36	201.29
412.55	182.56
412.74	187.24
412.93	234.05
413.12	107.66
413.31	187.24
413.50	180.22
413.69	259.80
413.88	210.65
414.07	220.01
414.26	198.95
414.45	175.54
414.64	201.29
414.83	222.35
415.02	163.84
415.22	205.97
415.41	262.14
415.60	250.44
415.79	184.90
415.98	243.42
416.17	208.31
416.36	191.92
416.55	152.13
416.74	231.71
416.93	227.03
417.12	220.01
417.31	189.58
417.50	156.82
417.69	255.12
417.88	163.84
418.07	194.26
418.26	184.90
418.45	156.82
418.64	161.50
418.83	215.33
419.02	212.99
419.21	205.97
419.39	285.55
419.58	210.65
419.77	248.10
419.96	173.20
420.15	227.03
420.34	278.52
420.53	212.99
420.72	173.20
420.91	229.37
421.10	238.73
421.29	330.02
421.48	220.01
421.67	297.25
421.86	243.42
422.05	259.80
422.24	203.63
422.43	318.31
422.61	276.18
422.80	201.29
422.99	177.88
423.18	278.52
423.37	170.86
423.56	194.26
423.75	238.73
423.94	241.08
424.13	248.10
424.32	273.84
424.50	196.60
424.69	271.50
424.88	222.35
425.07	259.80
425.26	301.93
425.45	287.89
425.64	271.50
425.83	248.10
426.01	308.95
426.20	269.16
426.39	252.78
426.58	210.65
426.77	184.90
426.96	304.27
427.15	217.67
427.33	271.50
427.52	229.37
427.71	273.84
427.90	236.39
428.09	198.95
428.28	224.69
428.46	255.12
428.65	245.76
428.84	194.26
429.03	243.42
429.22	245.76
429.40	266.82
429.59	196.60
429.78	304.27
429.97	285.55
430.16	236.39
430.34	325.33
430.53	287.89
430.72	292.57
430.91	294.91
431.10	271.50
431.28	318.31
431.47	250.44
431.66	304.27
431.85	215.33
432.03	315.97
432.22	367.46
432.41	358.10
432.60	397.89
432.79	355.76
432.97	339.38
433.16	383.85
433.35	425.98
433.54	433.00
433.72	491.51
433.91	449.38
434.10	468.11
434.28	653.01
434.47	610.88
434.66	765.36
434.85	985.37
435.03	2642.46
435.22	9984.73
435.41	19133.88
435.59	18050.21
435.78	11466.28
435.97	5689.84
436.16	2186.06
436.34	947.92
436.53	603.86
436.72	500.87
436.90	475.13
437.09	402.57
437.28	315.97
437.46	341.72
437.65	430.66
437.84	341.72
438.02	400.23
438.21	353.42
438.40	322.99
438.58	365.12
438.77	344.06
438.96	367.46
439.14	360.44
439.33	334.70
439.52	280.86
439.70	299.59
439.89	423.64
440.08	390.87
440.26	297.25
440.45	433.00
440.63	306.61
440.82	311.29
441.01	297.25
441.19	273.84
441.38	306.61
441.57	351.08
441.75	381.51
441.94	360.44
442.12	341.72
442.31	339.38
442.50	379.17
442.68	339.38
442.87	369.80
443.05	325.33
443.24	322.99
443.43	351.08
443.61	418.96
443.80	395.55
443.98	301.93
444.17	297.25
444.35	320.65
444.54	297.25
444.73	334.70
444.91	301.93
445.10	348.74
445.28	414.27
445.47	395.55
445.65	257.46
445.84	418.96
446.02	360.44
446.21	276.18
446.39	252.78
446.58	313.63
446.77	341.72
446.95	355.76
447.14	283.20
447.32	367.46
447.51	379.17
447.69	376.83
447.88	418.96
448.06	390.87
448.25	411.93
448.43	337.04
448.62	337.04
448.80	372.15
448.99	344.06
449.17	308.95
449.36	348.74
449.54	383.85
449.73	337.04
449.91	400.23
450.10	346.40
450.28	404.91
450.46	421.30
450.65	330.02
450.83	325.33
451.02	379.17
451.20	355.76
451.39	327.68
451.57	339.38
451.76	376.83
451.94	358.10
452.13	402.57
452.31	318.31
452.49	360.44
452.68	386.19
452.86	348.74
453.05	346.40
453.23	318.31
453.42	290.23
453.60	376.83
453.78	341.72
453.97	280.86
454.15	369.80
454.34	217.67
454.52	308.95
454.70	458.74
454.89	397.89
455.07	372.15
455.26	304.27
455.44	315.97
455.62	358.10
455.81	304.27
455.99	397.89
456.17	351.08
456.36	322.99
456.54	327.68
456.73	304.27
456.91	353.42
457.09	330.02
457.28	285.55
457.46	346.40
457.64	290.23
457.83	311.29
458.01	365.12
458.19	369.80
458.38	318.31
458.56	259.80
458.74	351.08
458.93	334.70
459.11	367.46
459.29	276.18
459.48	339.38
459.66	313.63
459.84	346.40
460.03	433.00
460.21	386.19
460.39	313.63
460.57	337.04
460.76	409.59
460.94	315.97
461.12	325.33
461.31	320.65
461.49	332.36
461.67	337.04
461.85	332.36
462.04	262.14
462.22	760.67
462.40	353.42
462.59	447.04
462.77	243.42
462.95	344.06
463.13	285.55
463.32	269.16
463.50	367.46
463.68	304.27
463.86	358.10
464.05	393.21
464.23	341.72
464.41	362.78
464.59	304.27
464.78	278.52
464.96	339.38
465.14	374.49
465.32	318.31
465.50	374.49
465.69	287.89
465.87	320.65
466.05	299.59
466.23	273.84
466.41	379.17
466.60	360.44
466.78	297.25
466.96	379.17
467.14	320.65
467.32	440.02
467.51	390.87
467.69	400.23
467.87	458.74
468.05	341.72
468.23	327.68
468.41	299.59
468.60	339.38
468.78	348.74
468.96	355.76
469.14	344.06
469.32	313.63
469.50	294.91
469.69	362.78
469.87	299.59
470.05	299.59
470.23	355.76
470.41	294.91
470.59	248.10
470.77	287.89
470.95	299.59
471.14	409.59
471.32	315.97
471.50	369.80
471.68	245.76
471.86	318.31
472.04	290.23
472.22	294.91
472.40	304.27
472.58	294.91
472.77	325.33
472.95	353.42
473.13	337.04
473.31	362.78
473.49	334.70
473.67	297.25
473.85	400.23
474.03	325.33
474.21	367.46
474.39	313.63
474.57	315.97
474.75	416.62
474.93	334.70
475.12	386.19
475.30	353.42
475.48	339.38
475.66	292.57
475.84	313.63
476.02	306.61
476.20	367.46
476.38	351.08
476.56	379.17
476.74	304.27
476.92	299.59
477.10	348.74
477.28	341.72
477.46	339.38
477.64	435.34
477.82	351.08
478.00	315.97
478.18	344.06
478.36	337.04
478.54	355.76
478.72	411.93
478.90	360.44
479.08	383.85
479.26	367.46
479.44	430.66
479.62	421.30
479.80	325.33
479.98	416.62
480.16	475.13
480.34	524.28
480.52	470.45
480.70	411.93
480.88	568.75
481.06	557.05
481.24	465.77
481.41	636.63
481.59	601.52
481.77	606.20
481.95	638.97
482.13	723.23
482.31	624.92
482.49	681.10
482.67	704.50
482.85	840.25
483.03	985.37
483.21	952.60
483.39	936.21
483.57	1018.13
483.74	1156.22
483.92	1149.20
484.10	1111.75
484.28	1249.85
484.46	1322.40
484.64	1315.38
484.82	1329.42
485.00	1467.52
485.18	1551.78
485.35	1675.82
485.53	1732.00
485.71	1802.21
485.89	1902.86
486.07	1867.75
486.25	2022.22
486.43	2012.86
486.61	2092.44
486.78	2045.63
486.96	1842.00
487.14	1966.05
487.32	1952.01
487.50	1818.60
487.68	1933.28
487.85	1867.75
488.03	1944.99
488.21	1788.17
488.39	1776.47
488.57	1732.00
488.75	1652.42
488.92	1888.81
489.10	1640.72
489.28	1680.50
489.46	1638.38
489.64	1521.35
489.81	1561.14
489.99	1577.52
490.17	1575.18
490.35	1593.90
490.53	1458.15
490.70	1504.96
490.88	1509.65
491.06	1657.10
491.24	1713.27
491.41	1640.72
491.59	1591.56
491.77	1434.75
491.95	1493.26
492.13	1472.20
492.30	1373.89
492.48	1324.74
492.66	1427.73
492.84	1313.04
493.01	1275.59
493.19	1299.00
493.37	1341.13
493.54	1268.57
493.72	1282.61
493.90	1369.21
494.08	1233.46
494.25	1231.12
494.43	1275.59
494.61	1151.54
494.79	1137.50
494.96	1132.82
495.14	1174.95
495.32	1062.60
495.49	1057.92
495.67	1160.91
495.85	1111.75
496.02	1013.45
496.20	1083.67
496.38	997.07
496.55	1048.56
496.73	1081.33
496.91	966.64
497.09	898.77
497.26	933.87
497.44	898.77
497.62	926.85
497.79	959.62
497.97	943.24
498.14	901.11
498.32	842.59
498.50	812.17
498.67	849.61
498.85	788.76
499.03	699.82
499.20	833.23
499.38	842.59
499.56	751.31
499.73	814.51
499.91	770.04
500.08	828.55
500.26	578.11
500.44	711.52
500.61	669.39
500.79	566.41
500.97	599.18
501.14	631.94
501.32	610.88
501.49	655.35
501.67	599.18
501.84	650.67
502.02	606.20
502.20	587.47
502.37	564.07
502.55	550.03
502.72	580.45
502.90	512.58
503.07	498.53
503.25	524.28
503.43	465.77
503.60	517.26
503.78	505.56
503.95	498.53
504.13	447.04
504.30	543.00
504.48	437.68
504.65	498.53
504.83	496.19
505.01	479.81
505.18	465.77
505.36	362.78
505.53	465.77
505.71	376.83
505.88	465.77
506.06	421.30
506.23	437.68
506.41	386.19
506.58	428.32
506.76	397.89
506.93	322.99
507.11	423.64
507.28	402.57
507.46	346.40
507.63	362.78
507.81	341.72
507.98	388.53
508.16	393.21
508.33	423.64
508.50	339.38
508.68	322.99
508.85	339.38
509.03	421.30
509.20	367.46
509.38	456.40
509.55	456.40
509.73	418.96
509.90	468.11
510.08	358.10
510.25	414.27
510.42	365.12
510.60	311.29
510.77	409.59
510.95	402.57
511.12	346.40
511.30	379.17
511.47	388.53
511.64	402.57
511.82	428.32
511.99	404.91
512.17	362.78
512.34	418.96
512.51	313.63
512.69	376.83
512.86	397.89
513.04	311.29
513.21	325.33
513.38	346.40
513.56	369.80
513.73	313.63
513.90	306.61
514.08	332.36
514.25	376.83
514.43	416.62
514.60	322.99
514.77	325.33
514.95	339.38
515.12	297.25
515.29	262.14
515.47	311.29
515.64	290.23
515.81	353.42
515.99	393.21
516.16	330.02
516.33	386.19
516.51	320.65
516.68	369.80
516.85	374.49
517.03	294.91
517.20	320.65
517.37	330.02
517.54	315.97
517.72	250.44
517.89	252.78
518.06	259.80
518.24	390.87
518.41	325.33
518.58	344.06
518.75	308.95
518.93	369.80
519.10	344.06
519.27	337.04
519.45	304.27
519.62	400.23
519.79	369.80
519.96	318.31
520.14	327.68
520.31	337.04
520.48	322.99
520.65	266.82
520.83	301.93
521.00	271.50
521.17	318.31
521.34	287.89
521.52	362.78
521.69	381.51
521.86	248.10
522.03	276.18
522.20	313.63
522.38	367.46
522.55	355.76
522.72	264.48
522.89	379.17
523.07	390.87
523.24	250.44
523.41	308.95
523.58	337.04
523.75	325.33
523.92	320.65
524.10	374.49
524.27	325.33
524.44	322.99
524.61	367.46
524.78	299.59
524.96	294.91
525.13	313.63
525.30	318.31
525.47	397.89
525.64	362.78
525.81	320.65
525.98	332.36
526.16	411.93
526.33	280.86
526.50	325.33
526.67	409.59
526.84	346.40
527.01	348.74
527.18	447.04
527.36	372.15
527.53	449.38
527.70	409.59
527.87	400.23
528.04	428.32
528.21	437.68
528.38	425.98
528.55	365.12
528.72	456.40
528.89	423.64
529.07	449.38
529.24	341.72
529.41	395.55
529.58	346.40
529.75	510.24
529.92	428.32
530.09	458.74
530.26	360.44
530.43	451.72
530.60	418.96
530.77	402.57
530.94	428.32
531.11	540.66
531.28	430.66
531.46	456.40
531.63	479.81
531.80	540.66
531.97	566.41
532.14	578.11
532.31	716.20
532.48	816.85
532.65	842.59
532.82	887.06
532.99	1116.44
533.16	1268.57
533.33	1282.61
533.50	1184.31
533.67	997.07
533.84	889.40
534.01	847.27
534.18	725.57
534.35	866.00
534.52	866.00
534.69	858.98
534.86	908.13
535.03	805.14
535.20	725.57
535.37	938.55
535.54	898.77
535.71	926.85
535.88	1043.88
536.05	1158.57
536.22	1160.91
536.38	1247.51
536.55	1359.85
536.72	1479.22
536.89	1600.93
537.06	2045.63
537.23	2045.63
537.40	2150.95
537.57	2410.75
537.74	2630.76
537.91	2579.27
538.08	2551.18
538.25	2649.49
538.42	2780.56
538.59	2715.02
538.75	2904.60
538.92	3115.25
539.09	3353.99
539.26	3698.05
539.43	4121.68
539.60	4608.51
539.77	5165.56
539.94	5715.59
540.11	6452.86
540.28	6815.64
540.44	7590.36
540.61	8250.39
540.78	9453.42
540.95	11304.79
541.12	13827.88
541.29	15166.67
541.46	15805.64
541.62	15815.00
541.79	14782.82
541.96	13909.80
542.13	12987.63
542.30	12077.16
542.47	11550.54
542.63	10874.13
542.80	10796.89
542.97	10410.70
543.14	10169.63
543.31	10427.09
543.48	10511.35
543.64	10654.12
543.81	10693.91
543.98	10942.00
544.15	10710.29
544.32	10757.10
544.48	10780.51
544.65	10675.18
544.82	10710.29
544.99	10471.56
545.16	11073.07
545.32	11639.48
545.49	21675.70
545.66	38466.70
545.83	43826.53
546.00	35260.17
546.16	23941.34
546.33	17638.28
546.50	13355.10
546.67	10801.57
546.83	9472.15
547.00	9221.71
547.17	8627.21
547.34	8367.42
547.50	8189.53
547.67	7932.08
547.84	7494.40
548.00	7183.10
548.17	6822.66
548.34	6668.19
548.51	6382.64
548.67	6045.60
548.84	5959.00
549.01	5659.42
549.18	5380.89
549.34	5095.35
549.51	5121.09
549.68	4828.53
549.84	4613.20
550.01	4397.87
550.18	4259.78
550.34	4091.26
550.51	3894.65
550.68	3719.11
550.84	3566.98
551.01	3384.41
551.18	3112.91
551.34	3063.76
551.51	3014.61
551.68	2794.60
551.84	2637.78
552.01	2513.74
552.18	2466.92
552.34	2317.13
552.51	2420.11
552.68	2218.83
552.84	2094.78
553.01	2104.14
553.18	2024.56
553.34	1966.05
553.51	1914.56
553.67	1874.77
553.84	1809.23
554.01	1682.85
554.17	1572.84
554.34	1526.03
554.51	1467.52
554.67	1296.66
554.84	1306.02
555.00	1144.52
555.17	1170.27
555.33	1177.29
555.50	1071.97
555.67	1083.67
555.83	938.55
556.00	915.15
556.16	1060.26
556.33	870.68
556.50	908.13
556.66	779.40
556.83	840.25
556.99	772.38
557.16	763.01
557.32	809.83
557.49	767.70
557.65	793.44
557.82	723.23
557.98	699.82
558.15	681.10
558.32	657.69
558.48	690.46
558.65	692.80
558.81	657.69
558.98	599.18
559.14	601.52
559.31	596.84
559.47	615.56
559.64	613.22
559.80	575.77
559.97	592.16
560.13	545.34
560.30	500.87
560.46	538.32
560.63	538.32
560.79	631.94
560.96	540.66
561.12	543.00
561.29	606.20
561.45	528.96
561.61	568.75
561.78	615.56
561.94	538.32
562.11	559.39
562.27	543.00
562.44	578.11
562.60	538.32
562.77	547.69
562.93	599.18
563.10	557.05
563.26	482.15
563.42	524.28
563.59	493.85
563.75	528.96
563.92	580.45
564.08	519.60
564.24	489.17
564.41	547.69
564.57	425.98
564.74	435.34
564.90	496.19
565.07	514.92
565.23	505.56
565.39	451.72
565.56	503.22
565.72	404.91
565.88	477.47
566.05	444.70
566.21	517.26
566.38	456.40
566.54	479.81
566.70	463.43
566.87	414.27
567.03	355.76
567.19	580.45
567.36	491.51
567.52	479.81
567.68	514.92
567.85	493.85
568.01	425.98
568.17	500.87
568.34	456.40
568.50	477.47
568.66	463.43
568.83	608.54
568.99	451.72
569.15	444.70
569.32	341.72
569.48	393.21
569.64	449.38
569.81	440.02
569.97	416.62
570.13	418.96
570.30	400.23
570.46	337.04
570.62	330.02
570.78	320.65
570.95	390.87
571.11	416.62
571.27	423.64
571.43	351.08
571.60	414.27
571.76	327.68
571.92	435.34
572.09	353.42
572.25	330.02
572.41	421.30
572.57	433.00
572.74	402.57
572.90	367.46
573.06	489.17
573.22	505.56
573.38	351.08
573.55	395.55
573.71	444.70
573.87	435.34
574.03	404.91
574.20	451.72
574.36	507.90
574.52	411.93
574.68	491.51
574.84	454.06
575.01	484.49
575.17	503.22
575.33	517.26
575.49	566.41
575.65	620.24
575.82	657.69
575.98	711.52
576.14	781.74
576.30	1472.20
576.46	4807.46
576.62	7375.03
576.79	7054.37
576.95	5132.79
577.11	3543.57
577.27	2427.14
577.43	1755.40
577.59	1210.06
577.75	983.02
577.92	919.83
578.08	844.93
578.24	968.98
578.40	1715.61
578.56	4407.23
578.72	6661.16
578.88	7124.59
579.04	5018.11
579.21	3419.52
579.37	2733.75
579.53	2076.06
579.69	2228.19
579.85	2616.72
580.01	2892.90
580.17	2651.83
580.33	2275.00
580.49	2211.81
580.65	1827.96
580.82	1755.40
580.98	1750.72
581.14	1867.75
581.30	1774.13
581.46	1863.07
581.62	2069.03
581.78	2314.79
581.94	2413.09
582.10	2511.39
582.26	2588.63
582.42	2682.25
582.58	2717.36
582.74	2719.70
582.90	2829.71
583.06	2796.94
583.22	2853.11
583.38	2729.06
583.54	2654.17
583.70	2822.69
583.86	2848.43
584.02	2686.94
584.18	2637.78
584.34	2600.34
584.50	2656.51
584.66	2605.02
584.82	2537.14
584.98	2558.21
585.14	2523.10
585.30	2396.71
585.46	2363.94
585.62	2375.64
585.78	2408.41
585.94	2363.94
586.10	2525.44
586.26	2492.67
586.42	2920.99
586.58	3508.46
586.74	4208.28
586.90	4931.51
587.06	5371.53
587.22	5331.74
587.38	4542.98
587.54	3983.59
587.70	3529.53
587.86	2981.84
588.02	2487.99
588.18	2373.30
588.34	2050.31
588.49	1895.83
588.65	1734.34
588.81	1769.44
588.97	1666.46
589.13	1605.61
589.29	1568.16
589.45	1598.59
589.61	1565.82
589.77	1596.25
589.93	1638.38
590.08	1739.02
590.24	1732.00
590.40	1767.10
590.56	1750.72
590.72	1844.34
590.88	1912.22
591.04	1879.45
591.20	2033.93
591.35	2090.10
591.51	2202.44
591.67	2307.77
591.83	2394.37
591.99	2523.10
592.15	2759.49
592.31	3070.78
592.46	3253.34
592.62	3466.33
592.78	3866.56
592.94	3908.69
593.10	3775.28
593.26	3583.36
593.41	3353.99
593.57	2993.55
593.73	2729.06
593.89	2422.45
594.05	2167.34
594.20	1949.67
594.36	1846.68
594.52	1664.12
594.68	1636.03
594.84	1530.71
594.99	1549.43
595.15	1439.43
595.31	1526.03
595.47	1420.71
595.62	1490.92
595.78	1392.62
595.94	1418.36
596.10	1486.24
596.25	1401.98
596.41	1397.30
596.57	1640.72
596.73	1430.07
596.88	1409.00
597.04	1418.36
597.20	1430.07
597.36	1497.94
597.51	1467.52
597.67	1558.80
597.83	1575.18
597.99	1708.59
598.14	1760.08
598.30	1975.41
598.46	2019.88
598.61	2120.53
598.77	2186.06
598.93	2237.55
599.09	2352.24
599.24	2363.94
599.40	2354.58
599.56	2225.85
599.71	2134.57
599.87	2078.40
600.03	1919.24
600.18	1832.64
600.34	1776.47
600.50	1713.27
600.65	1565.82
600.81	1514.33
600.97	1303.68
601.12	1350.49
601.28	1313.04
601.44	1203.04
601.59	1172.61
601.75	1153.88
601.91	1029.84
602.06	1008.77
602.22	1097.71
602.37	997.07
602.53	1043.88
602.69	976.00
602.84	1025.15
603.00	1074.31
603.16	968.98
603.31	1029.84
603.47	1114.10
603.62	1139.84
603.78	1062.60
603.94	1165.59
604.09	1090.69
604.25	1020.47
604.40	1165.59
604.56	1144.52
604.71	1116.44
604.87	1090.69
605.03	1174.95
605.18	1174.95
605.34	1163.25
605.49	1158.57
605.65	1233.46
605.80	1291.98
605.96	1486.24
606.12	1462.83
606.27	1355.17
606.43	1572.84
606.58	1575.18
606.74	1600.93
606.89	1706.25
607.05	1741.36
607.20	1823.28
607.36	2054.99
607.51	2113.50
607.67	2136.91
607.82	2380.32
607.98	2523.10
608.13	2637.78
608.29	3023.97
608.44	3049.72
608.60	3456.97
608.75	3782.31
608.91	4018.70
609.06	4444.68
609.22	4718.52
609.37	5355.15
609.53	6228.17
609.68	6843.73
609.84	7644.19
609.99	9048.51
610.15	10934.98
610.30	13518.93
610.46	17301.24
610.61	22038.48
610.76	28376.66
610.92	34370.77
611.07	37102.17
611.23	37949.45
611.38	35592.53
611.54	31290.62
611.69	26780.41
611.84	22010.40
612.00	18375.55
612.15	15749.46
612.31	13547.02
612.46	12339.30
612.62	11473.31
612.77	11023.92
612.92	10312.40
613.08	9369.16
613.23	9202.99
613.39	8638.92
613.54	8257.41
613.69	8393.16
613.85	8475.08
614.00	8187.19
614.15	8138.04
614.31	8009.31
614.46	7705.04
614.62	7569.29
614.77	7330.56
614.92	6803.94
615.08	6511.37
615.23	5959.00
615.38	5413.66
615.54	4912.78
615.69	4507.87
615.84	4042.11
616.00	3999.98
616.15	3604.42
616.30	3344.63
616.46	3311.86
616.61	3068.44
616.76	2939.71
616.92	2764.17
617.07	2670.55
617.22	2438.84
617.37	2424.80
617.53	2277.34
617.68	2113.50
617.83	2125.21
617.99	2073.71
618.14	2094.78
618.29	2015.20
618.45	1937.96
618.60	1891.15
618.75	1724.97
618.90	1811.57
619.06	1849.02
619.21	1858.39
619.36	1809.23
619.51	1760.08
619.67	1830.30
619.82	1797.53
619.97	1895.83
620.12	1895.83
620.28	1912.22
620.43	1973.07
620.58	2026.90
620.73	1933.28
620.89	2062.01
621.04	2036.27
621.19	2040.95
621.34	1886.47
621.49	1870.09
621.65	1959.03
621.80	1863.07
621.95	1799.87
622.10	1966.05
622.25	1860.73
622.41	1961.37
622.56	1928.60
622.71	2057.33
622.86	2047.97
623.01	2129.89
623.16	2094.78
623.32	2026.90
623.47	2106.48
623.62	2057.33
623.77	2111.16
623.92	2062.01
624.07	2073.71
624.23	2008.18
624.38	2155.63
624.53	2155.63
624.68	2012.86
624.83	2106.48
624.98	2146.27
625.13	2134.57
625.29	2113.50
625.44	2169.68
625.59	2115.84
625.74	2179.04
625.89	2193.08
626.04	2176.70
626.19	2172.02
626.34	2012.86
626.49	2125.21
626.65	2106.48
626.80	2122.87
626.95	2101.80
627.10	2036.27
627.25	1949.67
627.40	1952.01
627.55	1942.64
627.70	1886.47
627.85	2010.52
628.00	1895.83
628.15	1881.79
628.30	1774.13
628.45	1839.66
628.60	1994.14
628.76	1907.54
628.91	2005.84
629.06	1771.79
629.21	1884.13
629.36	2092.44
629.51	2003.50
629.66	2120.53
629.81	2258.62
629.96	2506.71
630.11	2906.95
630.26	3206.53
630.41	3325.90
630.56	3653.58
630.71	3943.80
630.86	4053.81
631.01	3894.65
631.16	3552.93
631.31	3199.51
631.46	2738.43
631.61	2466.92
631.76	2043.29
631.91	1710.93
632.06	1418.36
632.21	1277.93
632.36	1320.06
632.51	950.26
632.66	976.00
632.81	858.98
632.96	755.99
633.10	821.53
633.25	753.65
633.40	716.20
633.55	734.93
633.70	770.04
633.85	744.29
634.00	662.37
634.15	624.92
634.30	667.05
634.45	718.54
634.60	667.05
634.75	568.75
634.90	608.54
635.05	662.37
635.19	676.41
635.34	585.13
635.49	641.31
635.64	543.00
635.79	573.43
635.94	531.30
636.09	564.07
636.24	528.96
636.39	531.30
636.53	538.32
636.68	496.19
636.83	512.58
636.98	538.32
637.13	486.83
637.28	575.77
637.43	592.16
637.57	463.43
637.72	472.79
637.87	517.26
638.02	507.90
638.17	465.77
638.32	461.09
638.46	507.90
638.61	578.11
638.76	407.25
638.91	409.59
639.06	409.59
639.20	524.28
639.35	454.06
639.50	383.85
639.65	423.64
639.80	379.17
639.94	465.77
640.09	449.38
640.24	430.66
640.39	456.40
640.54	507.90
640.68	468.11
640.83	470.45
640.98	421.30
641.13	482.15
641.27	486.83
641.42	470.45
641.57	557.05
641.72	428.32
641.86	404.91
642.01	425.98
642.16	414.27
642.31	477.47
642.45	528.96
642.60	465.77
642.75	433.00
642.90	409.59
643.04	379.17
643.19	470.45
643.34	367.46
643.48	442.36
643.63	435.34
643.78	465.77
643.93	451.72
644.07	484.49
644.22	449.38
644.37	433.00
644.51	437.68
644.66	475.13
644.81	472.79
644.95	433.00
645.10	442.36
645.25	360.44
645.39	496.19
645.54	528.96
645.69	470.45
645.83	461.09
645.98	524.28
646.13	388.53
646.27	463.43
646.42	491.51
646.57	367.46
646.71	400.23
646.86	355.76
647.00	421.30
647.15	442.36
647.30	365.12
647.44	444.70
647.59	346.40
647.74	383.85
647.88	465.77
648.03	325.33
648.17	486.83
648.32	376.83
648.47	425.98
648.61	454.06
648.76	386.19
648.90	449.38
649.05	526.62
649.20	491.51
649.34	578.11
649.49	575.77
649.63	664.71
649.78	732.59
649.92	952.60
650.07	1032.18
650.21	1170.27
650.36	1177.29
650.51	1130.48
650.65	1107.07
650.80	1027.50
650.94	866.00
651.09	851.96
651.23	781.74
651.38	629.60
651.52	634.29
651.67	636.63
651.81	568.75
651.96	594.50
652.10	493.85
652.25	559.39
652.39	594.50
652.54	585.13
652.68	617.90
652.83	662.37
652.97	648.33
653.12	559.39
653.26	608.54
653.41	631.94
653.55	552.37
653.70	543.00
653.84	524.28
653.99	491.51
654.13	428.32
654.27	428.32
654.42	449.38
654.56	365.12
654.71	423.64
654.85	423.64
655.00	468.11
655.14	400.23
655.29	395.55
655.43	365.12
655.57	351.08
655.72	374.49
655.86	430.66
656.01	397.89
656.15	339.38
656.30	402.57
656.44	411.93
656.58	327.68
656.73	332.36
656.87	358.10
657.01	444.70
657.16	491.51
657.30	519.60
657.45	468.11
657.59	519.60
657.73	451.72
657.88	451.72
658.02	512.58
658.16	428.32
658.31	411.93
658.45	390.87
658.60	308.95
658.74	365.12
658.88	365.12
659.03	355.76
659.17	344.06
659.31	339.38
659.46	348.74
659.60	255.12
659.74	344.06
659.89	348.74
660.03	348.74
660.17	400.23
660.32	292.57
660.46	332.36
660.60	264.48
660.74	313.63
660.89	400.23
661.03	325.33
661.17	437.68
661.32	383.85
661.46	416.62
661.60	421.30
661.74	580.45
661.89	683.44
662.03	669.39
662.17	723.23
662.31	695.14
662.46	746.63
662.60	737.27
662.74	699.82
662.88	603.86
663.03	444.70
663.17	533.64
663.31	524.28
663.45	337.04
663.60	428.32
663.74	397.89
663.88	374.49
664.02	362.78
664.17	313.63
664.31	348.74
664.45	339.38
664.59	330.02
664.73	379.17
664.88	402.57
665.02	355.76
665.16	306.61
665.30	414.27
665.44	327.68
665.59	358.10
665.73	351.08
665.87	292.57
666.01	351.08
666.15	252.78
666.29	360.44
666.44	381.51
666.58	388.53
666.72	262.14
666.86	332.36
667.00	325.33
667.14	297.25
667.28	362.78
667.43	346.40
667.57	304.27
667.71	292.57
667.85	269.16
667.99	311.29
668.13	337.04
668.27	257.46
668.41	320.65
668.56	325.33
668.70	311.29
668.84	278.52
668.98	259.80
669.12	276.18
669.26	285.55
669.40	372.15
669.54	290.23
669.68	334.70
669.82	315.97
669.96	273.84
670.10	266.82
670.25	301.93
670.39	280.86
670.53	294.91
670.67	348.74
670.81	283.20
670.95	297.25
671.09	301.93
671.23	313.63
671.37	388.53
671.51	252.78
671.65	297.25
671.79	304.27
671.93	241.08
672.07	322.99
672.21	278.52
672.35	294.91
672.49	257.46
672.63	238.73
672.77	273.84
672.91	264.48
673.05	262.14
673.19	327.68
673.33	278.52
673.47	353.42
673.61	210.65
673.75	311.29
673.89	231.71
674.03	322.99
674.17	325.33
674.31	308.95
674.45	407.25
674.59	304.27
674.73	231.71
674.87	273.84
675.01	273.84
675.15	250.44
675.29	292.57
675.43	208.31
675.56	304.27
675.70	294.91
675.84	278.52
675.98	283.20
676.12	255.12
676.26	161.50
676.40	236.39
676.54	250.44
676.68	322.99
676.82	348.74
676.96	241.08
677.10	215.33
677.23	222.35
677.37	166.18
677.51	269.16
677.65	283.20
677.79	278.52
677.93	198.95
678.07	210.65
678.21	217.67
678.34	212.99
678.48	304.27
678.62	285.55
678.76	271.50
678.90	241.08
679.04	194.26
679.18	236.39
679.31	142.77
679.45	241.08
679.59	208.31
679.73	201.29
679.87	255.12
680.00	215.33
680.14	287.89
680.28	325.33
680.42	341.72
680.56	278.52
680.70	147.45
680.83	271.50
680.97	266.82
681.11	290.23
681.25	266.82
681.39	362.78
681.52	313.63
681.66	306.61
681.80	201.29
681.94	266.82
682.07	248.10
682.21	264.48
682.35	231.71
682.49	266.82
682.62	212.99
682.76	184.90
682.90	220.01
683.04	278.52
683.17	273.84
683.31	229.37
683.45	212.99
683.59	304.27
683.72	290.23
683.86	189.58
684.00	208.31
684.13	257.46
684.27	198.95
684.41	238.73
684.55	285.55
684.68	262.14
684.82	255.12
684.96	243.42
685.09	212.99
685.23	180.22
685.37	173.20
685.50	332.36
685.64	367.46
685.78	194.26
685.91	250.44
686.05	224.69
686.19	224.69
686.32	220.01
686.46	292.57
686.60	301.93
686.73	358.10
686.87	400.23
687.01	322.99
687.14	304.27
687.28	444.70
687.42	433.00
687.55	421.30
687.69	500.87
687.82	418.96
687.96	442.36
688.10	437.68
688.23	404.91
688.37	461.09
688.50	337.04
688.64	395.55
688.78	301.93
688.91	229.37
689.05	255.12
689.18	208.31
689.32	250.44
689.46	149.79
689.59	285.55
689.73	290.23
689.86	166.18
690.00	212.99
690.13	198.95
690.27	191.92
690.41	285.55
690.54	262.14
690.68	264.48
690.81	238.73
690.95	224.69
691.08	168.52
691.22	255.12
691.35	227.03
691.49	210.65
691.62	175.54
691.76	135.75
691.89	203.63
692.03	180.22
692.16	163.84
692.30	152.13
692.43	236.39
692.57	156.82
692.70	159.16
692.84	210.65
692.97	208.31
693.11	236.39
693.24	280.86
693.38	397.89
693.51	264.48
693.65	351.08
693.78	341.72
693.92	311.29
694.05	365.12
694.19	290.23
694.32	191.92
694.45	208.31
694.59	203.63
694.72	149.79
694.86	184.90
694.99	215.33
695.13	159.16
695.26	285.55
695.39	238.73
695.53	189.58
695.66	196.60
695.80	131.07
695.93	100.64
696.07	184.90
696.20	177.88
696.33	149.79
696.47	168.52
696.60	159.16
696.73	264.48
696.87	201.29
697.00	212.99
697.14	159.16
697.27	121.71
697.40	159.16
697.54	121.71
697.67	121.71
697.80	196.60
697.94	170.86
698.07	217.67
698.21	175.54
698.34	168.52
698.47	140.43
698.61	110.01
698.74	117.03
698.87	217.67
699.01	194.26
699.14	152.13
699.27	135.75
699.40	269.16
699.54	159.16
699.67	91.28
699.80	119.37
699.94	149.79
700.07	189.58
700.20	114.69
700.34	112.35
700.47	107.66
700.60	222.35
700.73	140.43
700.87	180.22
701.00	67.88
701.13	187.24
701.26	210.65
701.40	212.99
701.53	196.60
701.66	187.24
701.79	140.43
701.93	222.35
702.06	170.86
702.19	149.79
702.32	297.25
702.46	105.32
702.59	168.52
702.72	175.54
702.85	133.41
702.99	110.01
703.12	175.54
703.25	187.24
703.38	234.05
703.51	184.90
703.65	191.92
703.78	238.73
703.91	149.79
704.04	222.35
704.17	154.48
704.31	220.01
704.44	191.92
704.57	262.14
704.70	184.90
704.83	203.63
704.96	243.42
705.10	224.69
705.23	271.50
>>>>>End Processed Spectral Data<<<<<
