SpectraSuite Data File
++++++++++++++++++++++++++++++++++++
Date: Fri Oct 04 11:42:21 GMT-05:00 2013
User: price-jones
Dark Spectrum Present: No
Reference Spectrum Present: No
Number of Sampled Component Spectra: 1
Spectrometers: USB2+H05261
Integration Time (usec): 100000 (USB2+H05261)
Spectra Averaged: 1 (USB2+H05261)
Boxcar Smoothing: 0 (USB2+H05261)
Correct for Electrical Dark: No (USB2+H05261)
Strobe/Lamp Enabled: No (USB2+H05261)
Correct for Detector Non-linearity: No (USB2+H05261)
Correct for Stray Light: No (USB2+H05261)
Number of Pixels in Processed Spectrum: 2048
>>>>>Begin Processed Spectral Data<<<<<
365.73	72.56
365.92	72.56
366.12	72.56
366.32	0.00
366.52	0.00
366.72	0.00
366.91	0.00
367.11	0.00
367.31	0.00
367.51	0.00
367.70	0.00
367.90	0.00
368.10	0.00
368.30	0.00
368.49	0.00
368.69	0.00
368.89	2.34
369.09	0.00
369.28	4.68
369.48	0.00
369.68	0.00
369.87	11.70
370.07	0.00
370.27	14.04
370.47	14.04
370.66	28.09
370.86	70.22
371.06	74.90
371.25	0.00
371.45	0.00
371.65	53.83
371.84	81.92
372.04	81.92
372.24	105.32
372.44	128.73
372.63	95.96
372.83	105.32
373.03	77.24
373.22	84.26
373.42	84.26
373.62	95.96
373.81	110.01
374.01	159.16
374.21	107.66
374.40	65.54
374.60	93.62
374.79	117.03
374.99	119.37
375.19	135.75
375.38	100.64
375.58	117.03
375.78	161.50
375.97	95.96
376.17	182.56
376.37	112.35
376.56	95.96
376.76	107.66
376.95	110.01
377.15	210.65
377.35	194.26
377.54	128.73
377.74	124.05
377.93	128.73
378.13	117.03
378.33	84.26
378.52	70.22
378.72	177.88
378.91	72.56
379.11	88.94
379.31	84.26
379.50	114.69
379.70	112.35
379.89	81.92
380.09	95.96
380.28	77.24
380.48	51.49
380.68	112.35
380.87	110.01
381.07	79.58
381.26	107.66
381.46	135.75
381.65	77.24
381.85	42.13
382.04	79.58
382.24	93.62
382.43	117.03
382.63	126.39
382.83	210.65
383.02	142.77
383.22	105.32
383.41	42.13
383.61	107.66
383.80	156.82
384.00	112.35
384.19	114.69
384.39	84.26
384.58	58.51
384.78	79.58
384.97	135.75
385.17	182.56
385.36	79.58
385.56	67.88
385.75	77.24
385.95	117.03
386.14	65.54
386.34	191.92
386.53	152.13
386.72	110.01
386.92	124.05
387.11	91.28
387.31	117.03
387.50	93.62
387.70	51.49
387.89	161.50
388.09	60.85
388.28	168.52
388.48	131.07
388.67	117.03
388.86	117.03
389.06	149.79
389.25	184.90
389.45	100.64
389.64	102.98
389.84	63.19
390.03	147.45
390.22	72.56
390.42	161.50
390.61	112.35
390.81	60.85
391.00	42.13
391.19	198.95
391.39	56.17
391.58	135.75
391.78	58.51
391.97	159.16
392.16	74.90
392.36	107.66
392.55	124.05
392.75	147.45
392.94	119.37
393.13	166.18
393.33	88.94
393.52	95.96
393.71	177.88
393.91	126.39
394.10	112.35
394.29	156.82
394.49	72.56
394.68	91.28
394.88	112.35
395.07	140.43
395.26	98.30
395.46	86.60
395.65	133.41
395.84	60.85
396.04	128.73
396.23	114.69
396.42	100.64
396.62	163.84
396.81	121.71
397.00	147.45
397.19	149.79
397.39	65.54
397.58	145.11
397.77	117.03
397.97	133.41
398.16	88.94
398.35	140.43
398.55	154.48
398.74	145.11
398.93	161.50
399.12	95.96
399.32	135.75
399.51	135.75
399.70	67.88
399.90	112.35
400.09	81.92
400.28	93.62
400.47	81.92
400.67	117.03
400.86	112.35
401.05	88.94
401.24	168.52
401.44	156.82
401.63	187.24
401.82	126.39
402.01	51.49
402.21	135.75
402.40	98.30
402.59	140.43
402.78	88.94
402.97	102.98
403.17	124.05
403.36	128.73
403.55	102.98
403.74	154.48
403.93	217.67
404.13	229.37
404.32	259.80
404.51	257.46
404.70	266.82
404.89	131.07
405.09	149.79
405.28	184.90
405.47	131.07
405.66	126.39
405.85	138.09
406.05	93.62
406.24	105.32
406.43	149.79
406.62	133.41
406.81	114.69
407.00	121.71
407.20	133.41
407.39	110.01
407.58	159.16
407.77	140.43
407.96	114.69
408.15	180.22
408.34	168.52
408.54	84.26
408.73	128.73
408.92	110.01
409.11	177.88
409.30	112.35
409.49	25.75
409.68	105.32
409.87	107.66
410.07	70.22
410.26	159.16
410.45	88.94
410.64	131.07
410.83	102.98
411.02	98.30
411.21	121.71
411.40	126.39
411.59	110.01
411.78	128.73
411.98	95.96
412.17	126.39
412.36	74.90
412.55	110.01
412.74	170.86
412.93	128.73
413.12	102.98
413.31	198.95
413.50	91.28
413.69	163.84
413.88	145.11
414.07	112.35
414.26	72.56
414.45	161.50
414.64	138.09
414.83	135.75
415.02	112.35
415.22	119.37
415.41	187.24
415.60	140.43
415.79	147.45
415.98	119.37
416.17	140.43
416.36	81.92
416.55	98.30
416.74	145.11
416.93	170.86
417.12	126.39
417.31	201.29
417.50	147.45
417.69	72.56
417.88	72.56
418.07	56.17
418.26	112.35
418.45	119.37
418.64	159.16
418.83	131.07
419.02	107.66
419.21	51.49
419.39	88.94
419.58	135.75
419.77	135.75
419.96	201.29
420.15	222.35
420.34	126.39
420.53	175.54
420.72	124.05
420.91	107.66
421.10	154.48
421.29	161.50
421.48	229.37
421.67	128.73
421.86	196.60
422.05	159.16
422.24	154.48
422.43	175.54
422.61	84.26
422.80	119.37
422.99	252.78
423.18	119.37
423.37	205.97
423.56	112.35
423.75	187.24
423.94	191.92
424.13	112.35
424.32	189.58
424.50	100.64
424.69	161.50
424.88	163.84
425.07	114.69
425.26	93.62
425.45	156.82
425.64	166.18
425.83	149.79
426.01	112.35
426.20	138.09
426.39	39.79
426.58	180.22
426.77	189.58
426.96	145.11
427.15	112.35
427.33	138.09
427.52	95.96
427.71	152.13
427.90	98.30
428.09	145.11
428.28	154.48
428.46	154.48
428.65	142.77
428.84	184.90
429.03	196.60
429.22	117.03
429.40	177.88
429.59	107.66
429.78	166.18
429.97	93.62
430.16	124.05
430.34	135.75
430.53	86.60
430.72	208.31
430.91	138.09
431.10	175.54
431.28	220.01
431.47	117.03
431.66	187.24
431.85	124.05
432.03	191.92
432.22	224.69
432.41	149.79
432.60	152.13
432.79	196.60
432.97	67.88
433.16	119.37
433.35	142.77
433.54	173.20
433.72	124.05
433.91	112.35
434.10	135.75
434.28	177.88
434.47	231.71
434.66	161.50
434.85	255.12
435.03	243.42
435.22	664.71
435.41	1114.10
435.59	1275.59
435.78	954.94
435.97	608.54
436.16	271.50
436.34	215.33
436.53	177.88
436.72	205.97
436.90	152.13
437.09	180.22
437.28	133.41
437.46	114.69
437.65	210.65
437.84	196.60
438.02	173.20
438.21	170.86
438.40	161.50
438.58	138.09
438.77	128.73
438.96	161.50
439.14	84.26
439.33	166.18
439.52	84.26
439.70	156.82
439.89	135.75
440.08	138.09
440.26	145.11
440.45	140.43
440.63	147.45
440.82	196.60
441.01	100.64
441.19	159.16
441.38	173.20
441.57	138.09
441.75	205.97
441.94	243.42
442.12	180.22
442.31	156.82
442.50	187.24
442.68	166.18
442.87	138.09
443.05	173.20
443.24	203.63
443.43	114.69
443.61	163.84
443.80	163.84
443.98	98.30
444.17	177.88
444.35	163.84
444.54	194.26
444.73	95.96
444.91	234.05
445.10	170.86
445.28	180.22
445.47	243.42
445.65	229.37
445.84	105.32
446.02	259.80
446.21	210.65
446.39	224.69
446.58	215.33
446.77	163.84
446.95	140.43
447.14	184.90
447.32	224.69
447.51	182.56
447.69	173.20
447.88	114.69
448.06	212.99
448.25	215.33
448.43	128.73
448.62	124.05
448.80	128.73
448.99	215.33
449.17	156.82
449.36	133.41
449.54	180.22
449.73	177.88
449.91	201.29
450.10	145.11
450.28	224.69
450.46	241.08
450.65	217.67
450.83	135.75
451.02	212.99
451.20	187.24
451.39	189.58
451.57	227.03
451.76	189.58
451.94	191.92
452.13	215.33
452.31	203.63
452.49	161.50
452.68	170.86
452.86	154.48
453.05	252.78
453.23	170.86
453.42	182.56
453.60	173.20
453.78	217.67
453.97	177.88
454.15	145.11
454.34	166.18
454.52	156.82
454.70	196.60
454.89	159.16
455.07	156.82
455.26	194.26
455.44	170.86
455.62	140.43
455.81	142.77
455.99	166.18
456.17	187.24
456.36	173.20
456.54	189.58
456.73	201.29
456.91	114.69
457.09	175.54
457.28	168.52
457.46	222.35
457.64	222.35
457.83	140.43
458.01	163.84
458.19	168.52
458.38	175.54
458.56	220.01
458.74	170.86
458.93	229.37
459.11	180.22
459.29	154.48
459.48	173.20
459.66	187.24
459.84	175.54
460.03	222.35
460.21	173.20
460.39	140.43
460.57	191.92
460.76	194.26
460.94	217.67
461.12	210.65
461.31	245.76
461.49	173.20
461.67	140.43
461.85	194.26
462.04	173.20
462.22	266.82
462.40	217.67
462.59	224.69
462.77	187.24
462.95	191.92
463.13	191.92
463.32	138.09
463.50	227.03
463.68	184.90
463.86	217.67
464.05	175.54
464.23	191.92
464.41	175.54
464.59	205.97
464.78	161.50
464.96	133.41
465.14	138.09
465.32	170.86
465.50	198.95
465.69	259.80
465.87	180.22
466.05	163.84
466.23	168.52
466.41	147.45
466.60	273.84
466.78	191.92
466.96	182.56
467.14	220.01
467.32	189.58
467.51	198.95
467.69	161.50
467.87	138.09
468.05	234.05
468.23	191.92
468.41	210.65
468.60	126.39
468.78	166.18
468.96	189.58
469.14	194.26
469.32	163.84
469.50	191.92
469.69	203.63
469.87	175.54
470.05	131.07
470.23	95.96
470.41	149.79
470.59	163.84
470.77	259.80
470.95	156.82
471.14	255.12
471.32	138.09
471.50	140.43
471.68	201.29
471.86	173.20
472.04	182.56
472.22	229.37
472.40	177.88
472.58	117.03
472.77	250.44
472.95	138.09
473.13	236.39
473.31	170.86
473.49	86.60
473.67	117.03
473.85	163.84
474.03	159.16
474.21	259.80
474.39	241.08
474.57	128.73
474.75	220.01
474.93	159.16
475.12	201.29
475.30	180.22
475.48	238.73
475.66	138.09
475.84	210.65
476.02	159.16
476.20	287.89
476.38	182.56
476.56	210.65
476.74	248.10
476.92	234.05
477.10	173.20
477.28	299.59
477.46	238.73
477.64	248.10
477.82	175.54
478.00	269.16
478.18	250.44
478.36	175.54
478.54	208.31
478.72	210.65
478.90	133.41
479.08	159.16
479.26	205.97
479.44	210.65
479.62	191.92
479.80	224.69
479.98	220.01
480.16	198.95
480.34	257.46
480.52	196.60
480.70	166.18
480.88	236.39
481.06	236.39
481.24	229.37
481.41	175.54
481.59	135.75
481.77	215.33
481.95	203.63
482.13	262.14
482.31	231.71
482.49	177.88
482.67	248.10
482.85	227.03
483.03	287.89
483.21	220.01
483.39	276.18
483.57	215.33
483.74	264.48
483.92	297.25
484.10	308.95
484.28	259.80
484.46	372.15
484.64	332.36
484.82	264.48
485.00	327.68
485.18	318.31
485.35	311.29
485.53	241.08
485.71	278.52
485.89	330.02
486.07	252.78
486.25	372.15
486.43	372.15
486.61	381.51
486.78	285.55
486.96	248.10
487.14	332.36
487.32	306.61
487.50	311.29
487.68	315.97
487.85	280.86
488.03	311.29
488.21	325.33
488.39	290.23
488.57	325.33
488.75	395.55
488.92	603.86
489.10	461.09
489.28	278.52
489.46	355.76
489.64	264.48
489.81	304.27
489.99	388.53
490.17	292.57
490.35	269.16
490.53	402.57
490.70	266.82
490.88	330.02
491.06	308.95
491.24	334.70
491.41	346.40
491.59	327.68
491.77	297.25
491.95	269.16
492.13	299.59
492.30	299.59
492.48	273.84
492.66	330.02
492.84	320.65
493.01	236.39
493.19	308.95
493.37	332.36
493.54	358.10
493.72	327.68
493.90	262.14
494.08	278.52
494.25	283.20
494.43	238.73
494.61	290.23
494.79	212.99
494.96	325.33
495.14	250.44
495.32	283.20
495.49	257.46
495.67	355.76
495.85	283.20
496.02	308.95
496.20	290.23
496.38	337.04
496.55	264.48
496.73	259.80
496.91	346.40
497.09	315.97
497.26	264.48
497.44	283.20
497.62	311.29
497.79	285.55
497.97	283.20
498.14	327.68
498.32	257.46
498.50	311.29
498.67	259.80
498.85	227.03
499.03	285.55
499.20	299.59
499.38	294.91
499.56	297.25
499.73	318.31
499.91	306.61
500.08	243.42
500.26	191.92
500.44	205.97
500.61	243.42
500.79	297.25
500.97	175.54
501.14	325.33
501.32	294.91
501.49	255.12
501.67	285.55
501.84	243.42
502.02	184.90
502.20	182.56
502.37	252.78
502.55	245.76
502.72	271.50
502.90	241.08
503.07	266.82
503.25	280.86
503.43	222.35
503.60	229.37
503.78	238.73
503.95	283.20
504.13	238.73
504.30	231.71
504.48	313.63
504.65	252.78
504.83	238.73
505.01	224.69
505.18	243.42
505.36	205.97
505.53	229.37
505.71	299.59
505.88	276.18
506.06	238.73
506.23	227.03
506.41	170.86
506.58	203.63
506.76	203.63
506.93	187.24
507.11	278.52
507.28	292.57
507.46	173.20
507.63	255.12
507.81	255.12
507.98	156.82
508.16	255.12
508.33	243.42
508.50	128.73
508.68	280.86
508.85	198.95
509.03	283.20
509.20	292.57
509.38	203.63
509.55	212.99
509.73	236.39
509.90	297.25
510.08	135.75
510.25	241.08
510.42	205.97
510.60	294.91
510.77	243.42
510.95	231.71
511.12	252.78
511.30	252.78
511.47	201.29
511.64	255.12
511.82	231.71
511.99	257.46
512.17	187.24
512.34	248.10
512.51	294.91
512.69	203.63
512.86	198.95
513.04	241.08
513.21	304.27
513.38	243.42
513.56	266.82
513.73	234.05
513.90	222.35
514.08	243.42
514.25	224.69
514.43	196.60
514.60	250.44
514.77	217.67
514.95	201.29
515.12	276.18
515.29	271.50
515.47	259.80
515.64	294.91
515.81	222.35
515.99	346.40
516.16	252.78
516.33	229.37
516.51	269.16
516.68	133.41
516.85	243.42
517.03	248.10
517.20	250.44
517.37	234.05
517.54	243.42
517.72	292.57
517.89	163.84
518.06	245.76
518.24	198.95
518.41	297.25
518.58	262.14
518.75	285.55
518.93	229.37
519.10	238.73
519.27	229.37
519.45	220.01
519.62	229.37
519.79	222.35
519.96	168.52
520.14	248.10
520.31	238.73
520.48	236.39
520.65	212.99
520.83	238.73
521.00	234.05
521.17	259.80
521.34	231.71
521.52	170.86
521.69	222.35
521.86	255.12
522.03	322.99
522.20	290.23
522.38	201.29
522.55	266.82
522.72	271.50
522.89	283.20
523.07	311.29
523.24	280.86
523.41	231.71
523.58	255.12
523.75	257.46
523.92	210.65
524.10	311.29
524.27	264.48
524.44	243.42
524.61	191.92
524.78	201.29
524.96	355.76
525.13	236.39
525.30	262.14
525.47	341.72
525.64	308.95
525.81	330.02
525.98	191.92
526.16	238.73
526.33	227.03
526.50	236.39
526.67	138.09
526.84	161.50
527.01	255.12
527.18	276.18
527.36	250.44
527.53	224.69
527.70	278.52
527.87	264.48
528.04	266.82
528.21	264.48
528.38	236.39
528.55	266.82
528.72	245.76
528.89	285.55
529.07	285.55
529.24	283.20
529.41	313.63
529.58	304.27
529.75	238.73
529.92	245.76
530.09	259.80
530.26	304.27
530.43	304.27
530.60	290.23
530.77	243.42
530.94	287.89
531.11	250.44
531.28	320.65
531.46	255.12
531.63	271.50
531.80	271.50
531.97	285.55
532.14	308.95
532.31	320.65
532.48	264.48
532.65	243.42
532.82	210.65
532.99	243.42
533.16	322.99
533.33	285.55
533.50	294.91
533.67	322.99
533.84	231.71
534.01	285.55
534.18	257.46
534.35	290.23
534.52	299.59
534.69	337.04
534.86	257.46
535.03	283.20
535.20	313.63
535.37	280.86
535.54	243.42
535.71	287.89
535.88	322.99
536.05	346.40
536.22	360.44
536.38	341.72
536.55	290.23
536.72	379.17
536.89	344.06
537.06	351.08
537.23	372.15
537.40	451.72
537.57	423.64
537.74	367.46
537.91	376.83
538.08	437.68
538.25	477.47
538.42	407.25
538.59	465.77
538.75	379.17
538.92	479.81
539.09	449.38
539.26	531.30
539.43	631.94
539.60	596.84
539.77	594.50
539.94	594.50
540.11	615.56
540.28	727.91
540.44	828.55
540.61	856.64
540.78	788.76
540.95	1008.77
541.12	1181.97
541.29	1291.98
541.46	1418.36
541.62	1299.00
541.79	1432.41
541.96	1277.93
542.13	1217.08
542.30	1308.36
542.47	1221.76
542.63	1203.04
542.80	1184.31
542.97	1191.33
543.14	1170.27
543.31	1163.25
543.48	1165.59
543.64	1177.29
543.81	1240.48
543.98	1198.35
544.15	1121.12
544.32	1224.10
544.48	1186.65
544.65	1090.69
544.82	1032.18
544.99	1050.90
545.16	1107.07
545.32	1128.14
545.49	1743.70
545.66	2754.81
545.83	3379.73
546.00	3040.36
546.16	1963.71
546.33	1535.39
546.50	1228.78
546.67	1130.48
546.83	1001.75
547.00	884.72
547.17	903.45
547.34	786.42
547.50	833.23
547.67	718.54
547.84	791.10
548.00	795.78
548.17	727.91
548.34	807.48
548.51	697.48
548.67	706.84
548.84	727.91
549.01	706.84
549.18	711.52
549.34	690.46
549.51	559.39
549.68	631.94
549.84	538.32
550.01	559.39
550.18	706.84
550.34	566.41
550.51	505.56
550.68	557.05
550.84	514.92
551.01	475.13
551.18	512.58
551.34	505.56
551.51	477.47
551.68	486.83
551.84	491.51
552.01	383.85
552.18	444.70
552.34	472.79
552.51	414.27
552.68	365.12
552.84	463.43
553.01	418.96
553.18	334.70
553.34	360.44
553.51	402.57
553.67	341.72
553.84	475.13
554.01	388.53
554.17	423.64
554.34	304.27
554.51	346.40
554.67	360.44
554.84	353.42
555.00	271.50
555.17	337.04
555.33	369.80
555.50	238.73
555.67	257.46
555.83	294.91
556.00	339.38
556.16	447.04
556.33	374.49
556.50	224.69
556.66	238.73
556.83	264.48
556.99	252.78
557.16	283.20
557.32	180.22
557.49	311.29
557.65	191.92
557.82	308.95
557.98	334.70
558.15	262.14
558.32	299.59
558.48	280.86
558.65	259.80
558.81	266.82
558.98	304.27
559.14	294.91
559.31	220.01
559.47	210.65
559.64	257.46
559.80	285.55
559.97	283.20
560.13	294.91
560.30	280.86
560.46	311.29
560.63	332.36
560.79	255.12
560.96	250.44
561.12	234.05
561.29	238.73
561.45	255.12
561.61	283.20
561.78	322.99
561.94	215.33
562.11	238.73
562.27	297.25
562.44	234.05
562.60	236.39
562.77	257.46
562.93	248.10
563.10	238.73
563.26	215.33
563.42	283.20
563.59	217.67
563.75	224.69
563.92	287.89
564.08	241.08
564.24	297.25
564.41	311.29
564.57	245.76
564.74	187.24
564.90	252.78
565.07	360.44
565.23	269.16
565.39	285.55
565.56	280.86
565.72	212.99
565.88	264.48
566.05	229.37
566.21	308.95
566.38	313.63
566.54	187.24
566.70	210.65
566.87	231.71
567.03	255.12
567.19	285.55
567.36	215.33
567.52	341.72
567.68	189.58
567.85	187.24
568.01	184.90
568.17	280.86
568.34	222.35
568.50	236.39
568.66	264.48
568.83	248.10
568.99	154.48
569.15	264.48
569.32	222.35
569.48	245.76
569.64	217.67
569.81	238.73
569.97	273.84
570.13	301.93
570.30	227.03
570.46	290.23
570.62	280.86
570.78	266.82
570.95	238.73
571.11	257.46
571.27	301.93
571.43	201.29
571.60	255.12
571.76	238.73
571.92	234.05
572.09	187.24
572.25	278.52
572.41	238.73
572.57	264.48
572.74	269.16
572.90	259.80
573.06	306.61
573.22	264.48
573.38	212.99
573.55	224.69
573.71	252.78
573.87	294.91
574.03	304.27
574.20	161.50
574.36	257.46
574.52	285.55
574.68	236.39
574.84	259.80
575.01	290.23
575.17	220.01
575.33	255.12
575.49	325.33
575.65	257.46
575.82	227.03
575.98	318.31
576.14	248.10
576.30	353.42
576.46	582.79
576.62	704.50
576.79	770.04
576.95	669.39
577.11	535.98
577.27	430.66
577.43	400.23
577.59	280.86
577.75	290.23
577.92	285.55
578.08	250.44
578.24	311.29
578.40	386.19
578.56	475.13
578.72	718.54
578.88	781.74
579.04	664.71
579.21	444.70
579.37	393.21
579.53	353.42
579.69	376.83
579.85	332.36
580.01	428.32
580.17	454.06
580.33	418.96
580.49	397.89
580.65	327.68
580.82	311.29
580.98	339.38
581.14	383.85
581.30	369.80
581.46	322.99
581.62	390.87
581.78	437.68
581.94	442.36
582.10	435.34
582.26	351.08
582.42	388.53
582.58	458.74
582.74	472.79
582.90	489.17
583.06	416.62
583.22	440.02
583.38	521.94
583.54	512.58
583.70	465.77
583.86	372.15
584.02	463.43
584.18	496.19
584.34	400.23
584.50	414.27
584.66	351.08
584.82	386.19
584.98	435.34
585.14	437.68
585.30	390.87
585.46	390.87
585.62	381.51
585.78	390.87
585.94	369.80
586.10	423.64
586.26	449.38
586.42	423.64
586.58	517.26
586.74	552.37
586.90	603.86
587.06	704.50
587.22	627.26
587.38	601.52
587.54	514.92
587.70	512.58
587.86	486.83
588.02	428.32
588.18	397.89
588.34	407.25
588.49	290.23
588.65	381.51
588.81	430.66
588.97	351.08
589.13	292.57
589.29	360.44
589.45	297.25
589.61	388.53
589.77	397.89
589.93	252.78
590.08	280.86
590.24	292.57
590.40	271.50
590.56	395.55
590.72	334.70
590.88	318.31
591.04	344.06
591.20	250.44
591.35	344.06
591.51	318.31
591.67	435.34
591.83	409.59
591.99	397.89
592.15	433.00
592.31	409.59
592.46	425.98
592.62	451.72
592.78	482.15
592.94	465.77
593.10	454.06
593.26	472.79
593.41	444.70
593.57	400.23
593.73	402.57
593.89	353.42
594.05	348.74
594.20	358.10
594.36	395.55
594.52	365.12
594.68	290.23
594.84	393.21
594.99	334.70
595.15	308.95
595.31	381.51
595.47	353.42
595.62	304.27
595.78	280.86
595.94	358.10
596.10	308.95
596.25	257.46
596.41	304.27
596.57	266.82
596.73	294.91
596.88	290.23
597.04	320.65
597.20	330.02
597.36	273.84
597.51	325.33
597.67	351.08
597.83	285.55
597.99	374.49
598.14	313.63
598.30	332.36
598.46	299.59
598.61	421.30
598.77	393.21
598.93	395.55
599.09	402.57
599.24	423.64
599.40	315.97
599.56	414.27
599.71	264.48
599.87	341.72
600.03	304.27
600.18	301.93
600.34	341.72
600.50	393.21
600.65	365.12
600.81	341.72
600.97	262.14
601.12	287.89
601.28	313.63
601.44	264.48
601.59	273.84
601.75	227.03
601.91	330.02
602.06	276.18
602.22	341.72
602.37	243.42
602.53	297.25
602.69	266.82
602.84	290.23
603.00	320.65
603.16	341.72
603.31	243.42
603.47	355.76
603.62	299.59
603.78	255.12
603.94	208.31
604.09	245.76
604.25	313.63
604.40	367.46
604.56	285.55
604.71	304.27
604.87	318.31
605.03	278.52
605.18	322.99
605.34	287.89
605.49	231.71
605.65	337.04
605.80	257.46
605.96	234.05
606.12	376.83
606.27	224.69
606.43	292.57
606.58	337.04
606.74	294.91
606.89	327.68
607.05	388.53
607.20	409.59
607.36	257.46
607.51	353.42
607.67	407.25
607.82	341.72
607.98	454.06
608.13	339.38
608.29	400.23
608.44	498.53
608.60	397.89
608.75	491.51
608.91	486.83
609.06	451.72
609.22	552.37
609.37	568.75
609.53	648.33
609.68	732.59
609.84	781.74
609.99	901.11
610.15	917.49
610.30	1179.63
610.46	1390.28
610.61	1767.10
610.76	2270.32
610.92	2789.92
611.07	3094.19
611.23	3115.25
611.38	3073.12
611.54	2513.74
611.69	2188.40
611.84	1776.47
612.00	1600.93
612.15	1383.26
612.31	1196.01
612.46	1275.59
612.62	1046.22
612.77	1093.03
612.92	952.60
613.08	959.62
613.23	945.58
613.39	844.93
613.54	861.32
613.69	781.74
613.85	903.45
614.00	849.61
614.15	856.64
614.31	823.87
614.46	777.06
614.62	702.16
614.77	723.23
614.92	660.03
615.08	699.82
615.23	660.03
615.38	528.96
615.54	512.58
615.69	545.34
615.84	472.79
616.00	463.43
616.15	411.93
616.30	435.34
616.46	395.55
616.61	374.49
616.76	388.53
616.92	449.38
617.07	341.72
617.22	360.44
617.37	421.30
617.53	402.57
617.68	344.06
617.83	318.31
617.99	355.76
618.14	379.17
618.29	353.42
618.45	353.42
618.60	334.70
618.75	330.02
618.90	311.29
619.06	315.97
619.21	308.95
619.36	334.70
619.51	243.42
619.67	322.99
619.82	421.30
619.97	416.62
620.12	367.46
620.28	372.15
620.43	327.68
620.58	367.46
620.73	397.89
620.89	414.27
621.04	351.08
621.19	372.15
621.34	320.65
621.49	369.80
621.65	381.51
621.80	332.36
621.95	402.57
622.10	313.63
622.25	402.57
622.41	313.63
622.56	325.33
622.71	402.57
622.86	344.06
623.01	334.70
623.16	351.08
623.32	351.08
623.47	292.57
623.62	299.59
623.77	280.86
623.92	365.12
624.07	379.17
624.23	381.51
624.38	315.97
624.53	322.99
624.68	390.87
624.83	442.36
624.98	395.55
625.13	383.85
625.29	374.49
625.44	322.99
625.59	308.95
625.74	372.15
625.89	393.21
626.04	280.86
626.19	292.57
626.34	273.84
626.49	344.06
626.65	346.40
626.80	318.31
626.95	334.70
627.10	346.40
627.25	418.96
627.40	344.06
627.55	330.02
627.70	339.38
627.85	362.78
628.00	344.06
628.15	273.84
628.30	299.59
628.45	320.65
628.60	330.02
628.76	346.40
628.91	346.40
629.06	297.25
629.21	313.63
629.36	306.61
629.51	262.14
629.66	404.91
629.81	376.83
629.96	332.36
630.11	379.17
630.26	339.38
630.41	418.96
630.56	407.25
630.71	433.00
630.86	489.17
631.01	421.30
631.16	486.83
631.31	442.36
631.46	425.98
631.61	388.53
631.76	351.08
631.91	313.63
632.06	280.86
632.21	301.93
632.36	231.71
632.51	238.73
632.66	313.63
632.81	257.46
632.96	241.08
633.10	196.60
633.25	212.99
633.40	248.10
633.55	290.23
633.70	234.05
633.85	152.13
634.00	220.01
634.15	189.58
634.30	224.69
634.45	257.46
634.60	210.65
634.75	212.99
634.90	266.82
635.05	205.97
635.19	276.18
635.34	208.31
635.49	215.33
635.64	308.95
635.79	191.92
635.94	224.69
636.09	308.95
636.24	208.31
636.39	236.39
636.53	257.46
636.68	180.22
636.83	220.01
636.98	215.33
637.13	248.10
637.28	252.78
637.43	280.86
637.57	205.97
637.72	215.33
637.87	154.48
638.02	170.86
638.17	189.58
638.32	138.09
638.46	257.46
638.61	271.50
638.76	215.33
638.91	182.56
639.06	191.92
639.20	215.33
639.35	187.24
639.50	112.35
639.65	177.88
639.80	159.16
639.94	215.33
640.09	198.95
640.24	262.14
640.39	234.05
640.54	121.71
640.68	234.05
640.83	182.56
640.98	152.13
641.13	175.54
641.27	212.99
641.42	194.26
641.57	128.73
641.72	222.35
641.86	152.13
642.01	138.09
642.16	182.56
642.31	224.69
642.45	234.05
642.60	259.80
642.75	248.10
642.90	187.24
643.04	241.08
643.19	112.35
643.34	166.18
643.48	205.97
643.63	255.12
643.78	168.52
643.93	194.26
644.07	177.88
644.22	196.60
644.37	156.82
644.51	166.18
644.66	201.29
644.81	187.24
644.95	154.48
645.10	105.32
645.25	175.54
645.39	266.82
645.54	177.88
645.69	210.65
645.83	224.69
645.98	264.48
646.13	147.45
646.27	208.31
646.42	198.95
646.57	121.71
646.71	126.39
646.86	152.13
647.00	290.23
647.15	220.01
647.30	138.09
647.44	124.05
647.59	220.01
647.74	236.39
647.88	187.24
648.03	187.24
648.17	220.01
648.32	238.73
648.47	166.18
648.61	184.90
648.76	145.11
648.90	145.11
649.05	187.24
649.20	168.52
649.34	229.37
649.49	163.84
649.63	224.69
649.78	198.95
649.92	208.31
650.07	212.99
650.21	163.84
650.36	322.99
650.51	198.95
650.65	337.04
650.80	255.12
650.94	243.42
651.09	212.99
651.23	184.90
651.38	189.58
651.52	231.71
651.67	308.95
651.81	217.67
651.96	285.55
652.10	234.05
652.25	180.22
652.39	194.26
652.54	212.99
652.68	217.67
652.83	198.95
652.97	220.01
653.12	191.92
653.26	203.63
653.41	262.14
653.55	203.63
653.70	173.20
653.84	168.52
653.99	241.08
654.13	149.79
654.27	201.29
654.42	77.24
654.56	191.92
654.71	234.05
654.85	149.79
655.00	196.60
655.14	177.88
655.29	154.48
655.43	215.33
655.57	140.43
655.72	170.86
655.86	168.52
656.01	152.13
656.15	189.58
656.30	205.97
656.44	173.20
656.58	173.20
656.73	187.24
656.87	198.95
657.01	112.35
657.16	154.48
657.30	243.42
657.45	220.01
657.59	203.63
657.73	163.84
657.88	154.48
658.02	250.44
658.16	245.76
658.31	189.58
658.45	145.11
658.60	210.65
658.74	142.77
658.88	191.92
659.03	152.13
659.17	175.54
659.31	86.60
659.46	131.07
659.60	227.03
659.74	215.33
659.89	210.65
660.03	161.50
660.17	152.13
660.32	182.56
660.46	194.26
660.60	173.20
660.74	227.03
660.89	163.84
661.03	208.31
661.17	255.12
661.32	175.54
661.46	210.65
661.60	142.77
661.74	229.37
661.89	220.01
662.03	278.52
662.17	191.92
662.31	301.93
662.46	177.88
662.60	152.13
662.74	217.67
662.88	212.99
663.03	224.69
663.17	173.20
663.31	205.97
663.45	168.52
663.60	189.58
663.74	182.56
663.88	217.67
664.02	217.67
664.17	222.35
664.31	161.50
664.45	215.33
664.59	245.76
664.73	262.14
664.88	138.09
665.02	140.43
665.16	220.01
665.30	271.50
665.44	212.99
665.59	205.97
665.73	156.82
665.87	147.45
666.01	222.35
666.15	217.67
666.29	166.18
666.44	187.24
666.58	170.86
666.72	117.03
666.86	175.54
667.00	180.22
667.14	227.03
667.28	161.50
667.43	170.86
667.57	205.97
667.71	177.88
667.85	177.88
667.99	229.37
668.13	234.05
668.27	201.29
668.41	227.03
668.56	124.05
668.70	191.92
668.84	222.35
668.98	159.16
669.12	117.03
669.26	152.13
669.40	222.35
669.54	173.20
669.68	145.11
669.82	196.60
669.96	236.39
670.10	168.52
670.25	173.20
670.39	191.92
670.53	184.90
670.67	156.82
670.81	142.77
670.95	189.58
671.09	63.19
671.23	182.56
671.37	198.95
671.51	220.01
671.65	182.56
671.79	170.86
671.93	215.33
672.07	241.08
672.21	128.73
672.35	175.54
672.49	117.03
672.63	159.16
672.77	161.50
672.91	220.01
673.05	121.71
673.19	168.52
673.33	161.50
673.47	175.54
673.61	227.03
673.75	147.45
673.89	201.29
674.03	210.65
674.17	210.65
674.31	205.97
674.45	156.82
674.59	170.86
674.73	212.99
674.87	191.92
675.01	222.35
675.15	229.37
675.29	175.54
675.43	238.73
675.56	229.37
675.70	142.77
675.84	117.03
675.98	149.79
676.12	243.42
676.26	201.29
676.40	112.35
676.54	180.22
676.68	124.05
676.82	217.67
676.96	194.26
677.10	152.13
677.23	224.69
677.37	138.09
677.51	114.69
677.65	208.31
677.79	182.56
677.93	88.94
678.07	117.03
678.21	121.71
678.34	107.66
678.48	107.66
678.62	180.22
678.76	142.77
678.90	184.90
679.04	114.69
679.18	152.13
679.31	142.77
679.45	102.98
679.59	110.01
679.73	124.05
679.87	147.45
680.00	180.22
680.14	187.24
680.28	119.37
680.42	58.51
680.56	135.75
680.70	182.56
680.83	163.84
680.97	105.32
681.11	175.54
681.25	220.01
681.39	231.71
681.52	147.45
681.66	149.79
681.80	170.86
681.94	208.31
682.07	234.05
682.21	112.35
682.35	107.66
682.49	147.45
682.62	135.75
682.76	163.84
682.90	131.07
683.04	100.64
683.17	152.13
683.31	145.11
683.45	189.58
683.59	161.50
683.72	142.77
683.86	194.26
684.00	124.05
684.13	124.05
684.27	184.90
684.41	152.13
684.55	194.26
684.68	198.95
684.82	145.11
684.96	100.64
685.09	121.71
685.23	128.73
685.37	119.37
685.50	140.43
685.64	149.79
685.78	88.94
685.91	163.84
686.05	229.37
686.19	198.95
686.32	154.48
686.46	224.69
686.60	205.97
686.73	196.60
686.87	145.11
687.01	124.05
687.14	91.28
687.28	119.37
687.42	184.90
687.55	138.09
687.69	124.05
687.82	112.35
687.96	196.60
688.10	177.88
688.23	166.18
688.37	163.84
688.50	140.43
688.64	147.45
688.78	138.09
688.91	114.69
689.05	163.84
689.18	117.03
689.32	152.13
689.46	189.58
689.59	145.11
689.73	102.98
689.86	51.49
690.00	105.32
690.13	117.03
690.27	138.09
690.41	44.47
690.54	147.45
690.68	175.54
690.81	107.66
690.95	138.09
691.08	117.03
691.22	154.48
691.35	110.01
691.49	46.81
691.62	224.69
691.76	243.42
691.89	133.41
692.03	154.48
692.16	126.39
692.30	184.90
692.43	175.54
692.57	93.62
692.70	23.41
692.84	198.95
692.97	124.05
693.11	84.26
693.24	67.88
693.38	138.09
693.51	107.66
693.65	215.33
693.78	147.45
693.92	121.71
694.05	98.30
694.19	133.41
694.32	154.48
694.45	110.01
694.59	161.50
694.72	102.98
694.86	35.11
694.99	114.69
695.13	189.58
695.26	126.39
695.39	77.24
695.53	189.58
695.66	133.41
695.80	194.26
695.93	149.79
696.07	217.67
696.20	142.77
696.33	121.71
696.47	98.30
696.60	53.83
696.73	149.79
696.87	58.51
697.00	196.60
697.14	166.18
697.27	152.13
697.40	205.97
697.54	107.66
697.67	133.41
697.80	91.28
697.94	88.94
698.07	124.05
698.21	60.85
698.34	154.48
698.47	110.01
698.61	208.31
698.74	189.58
698.87	163.84
699.01	112.35
699.14	135.75
699.27	114.69
699.40	266.82
699.54	100.64
699.67	46.81
699.80	105.32
699.94	114.69
700.07	81.92
700.20	124.05
700.34	58.51
700.47	98.30
700.60	65.54
700.73	131.07
700.87	191.92
701.00	112.35
701.13	184.90
701.26	222.35
701.40	175.54
701.53	91.28
701.66	79.58
701.79	138.09
701.93	100.64
702.06	154.48
702.19	126.39
702.32	175.54
702.46	166.18
702.59	133.41
702.72	110.01
702.85	145.11
702.99	65.54
703.12	166.18
703.25	98.30
703.38	119.37
703.51	112.35
703.65	142.77
703.78	88.94
703.91	131.07
704.04	88.94
704.17	163.84
704.31	91.28
704.44	168.52
704.57	159.16
704.70	74.90
704.83	215.33
704.96	112.35
705.10	196.60
705.23	191.92
>>>>>End Processed Spectral Data<<<<<
