SpectraSuite Data File
++++++++++++++++++++++++++++++++++++
Date: Fri Oct 04 11:41:50 GMT-05:00 2013
User: price-jones
Dark Spectrum Present: No
Reference Spectrum Present: No
Number of Sampled Component Spectra: 1
Spectrometers: USB2+H05261
Integration Time (usec): 100000 (USB2+H05261)
Spectra Averaged: 1 (USB2+H05261)
Boxcar Smoothing: 0 (USB2+H05261)
Correct for Electrical Dark: No (USB2+H05261)
Strobe/Lamp Enabled: No (USB2+H05261)
Correct for Detector Non-linearity: No (USB2+H05261)
Correct for Stray Light: No (USB2+H05261)
Number of Pixels in Processed Spectrum: 2048
>>>>>Begin Processed Spectral Data<<<<<
365.73	56.17
365.92	56.17
366.12	56.17
366.32	0.00
366.52	0.00
366.72	18.72
366.91	0.00
367.11	0.00
367.31	0.00
367.51	0.00
367.70	0.00
367.90	0.00
368.10	0.00
368.30	0.00
368.49	0.00
368.69	46.81
368.89	0.00
369.09	0.00
369.28	0.00
369.48	0.00
369.68	2.34
369.87	0.00
370.07	0.00
370.27	65.54
370.47	7.02
370.66	21.06
370.86	100.64
371.06	72.56
371.25	133.41
371.45	67.88
371.65	63.19
371.84	86.60
372.04	21.06
372.24	60.85
372.44	105.32
372.63	72.56
372.83	65.54
373.03	86.60
373.22	180.22
373.42	131.07
373.62	126.39
373.81	159.16
374.01	156.82
374.21	203.63
374.40	168.52
374.60	119.37
374.79	161.50
374.99	161.50
375.19	166.18
375.38	86.60
375.58	145.11
375.78	140.43
375.97	46.81
376.17	147.45
376.37	145.11
376.56	131.07
376.76	112.35
376.95	110.01
377.15	72.56
377.35	105.32
377.54	149.79
377.74	95.96
377.93	35.11
378.13	110.01
378.33	119.37
378.52	119.37
378.72	152.13
378.91	114.69
379.11	133.41
379.31	159.16
379.50	126.39
379.70	149.79
379.89	149.79
380.09	131.07
380.28	72.56
380.48	152.13
380.68	79.58
380.87	128.73
381.07	124.05
381.26	121.71
381.46	124.05
381.65	98.30
381.85	72.56
382.04	60.85
382.24	107.66
382.43	51.49
382.63	152.13
382.83	56.17
383.02	163.84
383.22	152.13
383.41	84.26
383.61	124.05
383.80	117.03
384.00	112.35
384.19	32.77
384.39	124.05
384.58	67.88
384.78	100.64
384.97	147.45
385.17	117.03
385.36	145.11
385.56	102.98
385.75	110.01
385.95	74.90
386.14	86.60
386.34	98.30
386.53	30.43
386.72	142.77
386.92	131.07
387.11	128.73
387.31	117.03
387.50	112.35
387.70	102.98
387.89	133.41
388.09	138.09
388.28	133.41
388.48	117.03
388.67	98.30
388.86	81.92
389.06	67.88
389.25	117.03
389.45	154.48
389.64	105.32
389.84	88.94
390.03	98.30
390.22	168.52
390.42	39.79
390.61	56.17
390.81	152.13
391.00	86.60
391.19	140.43
391.39	121.71
391.58	86.60
391.78	126.39
391.97	126.39
392.16	63.19
392.36	100.64
392.55	168.52
392.75	121.71
392.94	156.82
393.13	81.92
393.33	117.03
393.52	156.82
393.71	138.09
393.91	56.17
394.10	98.30
394.29	93.62
394.49	105.32
394.68	107.66
394.88	119.37
395.07	133.41
395.26	159.16
395.46	131.07
395.65	156.82
395.84	135.75
396.04	105.32
396.23	117.03
396.42	107.66
396.62	128.73
396.81	194.26
397.00	124.05
397.19	131.07
397.39	227.03
397.58	210.65
397.77	81.92
397.97	114.69
398.16	93.62
398.35	149.79
398.55	105.32
398.74	175.54
398.93	112.35
399.12	142.77
399.32	114.69
399.51	95.96
399.70	159.16
399.90	154.48
400.09	184.90
400.28	201.29
400.47	126.39
400.67	154.48
400.86	187.24
401.05	161.50
401.24	184.90
401.44	177.88
401.63	107.66
401.82	194.26
402.01	189.58
402.21	231.71
402.40	229.37
402.59	177.88
402.78	110.01
402.97	205.97
403.17	142.77
403.36	234.05
403.55	294.91
403.74	643.65
403.93	2008.18
404.13	4945.55
404.32	6700.95
404.51	5771.76
404.70	3623.15
404.89	1413.68
405.09	472.79
405.28	332.36
405.47	191.92
405.66	173.20
405.85	203.63
406.05	278.52
406.24	266.82
406.43	184.90
406.62	168.52
406.81	276.18
407.00	320.65
407.20	617.90
407.39	933.87
407.58	1032.18
407.77	751.31
407.96	437.68
408.15	208.31
408.34	161.50
408.54	194.26
408.73	187.24
408.92	182.56
409.11	201.29
409.30	196.60
409.49	156.82
409.68	163.84
409.87	203.63
410.07	161.50
410.26	168.52
410.45	187.24
410.64	173.20
410.83	177.88
411.02	189.58
411.21	252.78
411.40	175.54
411.59	262.14
411.78	145.11
411.98	156.82
412.17	201.29
412.36	177.88
412.55	161.50
412.74	191.92
412.93	217.67
413.12	191.92
413.31	220.01
413.50	119.37
413.69	217.67
413.88	229.37
414.07	177.88
414.26	222.35
414.45	156.82
414.64	173.20
414.83	220.01
415.02	243.42
415.22	262.14
415.41	264.48
415.60	184.90
415.79	227.03
415.98	243.42
416.17	276.18
416.36	280.86
416.55	161.50
416.74	264.48
416.93	266.82
417.12	292.57
417.31	248.10
417.50	212.99
417.69	271.50
417.88	250.44
418.07	180.22
418.26	224.69
418.45	306.61
418.64	330.02
418.83	313.63
419.02	177.88
419.21	203.63
419.39	205.97
419.58	299.59
419.77	264.48
419.96	255.12
420.15	308.95
420.34	241.08
420.53	238.73
420.72	266.82
420.91	287.89
421.10	215.33
421.29	241.08
421.48	320.65
421.67	306.61
421.86	301.93
422.05	262.14
422.24	308.95
422.43	252.78
422.61	301.93
422.80	318.31
422.99	271.50
423.18	306.61
423.37	285.55
423.56	234.05
423.75	320.65
423.94	290.23
424.13	320.65
424.32	198.95
424.50	285.55
424.69	360.44
424.88	365.12
425.07	238.73
425.26	250.44
425.45	313.63
425.64	290.23
425.83	372.15
426.01	285.55
426.20	264.48
426.39	360.44
426.58	306.61
426.77	318.31
426.96	273.84
427.15	259.80
427.33	306.61
427.52	341.72
427.71	341.72
427.90	250.44
428.09	381.51
428.28	322.99
428.46	332.36
428.65	315.97
428.84	278.52
429.03	383.85
429.22	330.02
429.40	339.38
429.59	344.06
429.78	362.78
429.97	278.52
430.16	353.42
430.34	313.63
430.53	353.42
430.72	372.15
430.91	440.02
431.10	355.76
431.28	388.53
431.47	437.68
431.66	365.12
431.85	416.62
432.03	327.68
432.22	440.02
432.41	458.74
432.60	461.09
432.79	540.66
432.97	437.68
433.16	451.72
433.35	514.92
433.54	653.01
433.72	641.31
433.91	636.63
434.10	653.01
434.28	755.99
434.47	908.13
434.66	983.02
434.85	1355.17
435.03	3435.91
435.22	12828.48
435.41	29532.88
435.59	31709.58
435.78	20276.06
435.97	10003.45
436.16	4016.36
436.34	1460.49
436.53	786.42
436.72	627.26
436.90	594.50
437.09	538.32
437.28	575.77
437.46	528.96
437.65	512.58
437.84	433.00
438.02	514.92
438.21	519.60
438.40	465.77
438.58	421.30
438.77	496.19
438.96	468.11
439.14	493.85
439.33	475.13
439.52	458.74
439.70	365.12
439.89	433.00
440.08	402.57
440.26	386.19
440.45	416.62
440.63	430.66
440.82	395.55
441.01	442.36
441.19	402.57
441.38	386.19
441.57	423.64
441.75	468.11
441.94	425.98
442.12	393.21
442.31	505.56
442.50	510.24
442.68	451.72
442.87	435.34
443.05	395.55
443.24	496.19
443.43	444.70
443.61	526.62
443.80	454.06
443.98	479.81
444.17	449.38
444.35	433.00
444.54	428.32
444.73	468.11
444.91	507.90
445.10	421.30
445.28	456.40
445.47	456.40
445.65	379.17
445.84	451.72
446.02	447.04
446.21	493.85
446.39	454.06
446.58	409.59
446.77	390.87
446.95	454.06
447.14	500.87
447.32	496.19
447.51	362.78
447.69	411.93
447.88	442.36
448.06	451.72
448.25	409.59
448.43	376.83
448.62	449.38
448.80	451.72
448.99	395.55
449.17	397.89
449.36	447.04
449.54	491.51
449.73	416.62
449.91	491.51
450.10	416.62
450.28	500.87
450.46	505.56
450.65	433.00
450.83	409.59
451.02	451.72
451.20	454.06
451.39	433.00
451.57	416.62
451.76	393.21
451.94	430.66
452.13	444.70
452.31	489.17
452.49	475.13
452.68	433.00
452.86	454.06
453.05	479.81
453.23	451.72
453.42	372.15
453.60	346.40
453.78	423.64
453.97	367.46
454.15	365.12
454.34	348.74
454.52	388.53
454.70	449.38
454.89	477.47
455.07	402.57
455.26	454.06
455.44	524.28
455.62	358.10
455.81	381.51
455.99	442.36
456.17	447.04
456.36	435.34
456.54	430.66
456.73	395.55
456.91	461.09
457.09	451.72
457.28	484.49
457.46	449.38
457.64	372.15
457.83	454.06
458.01	423.64
458.19	468.11
458.38	388.53
458.56	365.12
458.74	489.17
458.93	425.98
459.11	463.43
459.29	491.51
459.48	465.77
459.66	414.27
459.84	440.02
460.03	465.77
460.21	461.09
460.39	428.32
460.57	465.77
460.76	381.51
460.94	395.55
461.12	447.04
461.31	451.72
461.49	465.77
461.67	418.96
461.85	393.21
462.04	416.62
462.22	851.96
462.40	463.43
462.59	482.15
462.77	393.21
462.95	461.09
463.13	395.55
463.32	440.02
463.50	440.02
463.68	386.19
463.86	397.89
464.05	444.70
464.23	491.51
464.41	489.17
464.59	472.79
464.78	416.62
464.96	425.98
465.14	344.06
465.32	362.78
465.50	409.59
465.69	470.45
465.87	402.57
466.05	383.85
466.23	381.51
466.41	465.77
466.60	526.62
466.78	484.49
466.96	484.49
467.14	425.98
467.32	461.09
467.51	358.10
467.69	428.32
467.87	449.38
468.05	407.25
468.23	475.13
468.41	444.70
468.60	468.11
468.78	435.34
468.96	365.12
469.14	369.80
469.32	365.12
469.50	381.51
469.69	369.80
469.87	397.89
470.05	451.72
470.23	400.23
470.41	355.76
470.59	315.97
470.77	430.66
470.95	334.70
471.14	388.53
471.32	409.59
471.50	535.98
471.68	397.89
471.86	440.02
472.04	425.98
472.22	388.53
472.40	395.55
472.58	367.46
472.77	362.78
472.95	407.25
473.13	468.11
473.31	498.53
473.49	365.12
473.67	404.91
473.85	327.68
474.03	463.43
474.21	395.55
474.39	475.13
474.57	444.70
474.75	404.91
474.93	400.23
475.12	397.89
475.30	409.59
475.48	358.10
475.66	425.98
475.84	381.51
476.02	383.85
476.20	409.59
476.38	418.96
476.56	486.83
476.74	470.45
476.92	409.59
477.10	404.91
477.28	442.36
477.46	489.17
477.64	416.62
477.82	425.98
478.00	472.79
478.18	428.32
478.36	491.51
478.54	500.87
478.72	533.64
478.90	500.87
479.08	477.47
479.26	503.22
479.44	533.64
479.62	463.43
479.80	594.50
479.98	500.87
480.16	550.03
480.34	610.88
480.52	720.88
480.70	603.86
480.88	662.37
481.06	660.03
481.24	753.65
481.41	798.12
481.59	779.40
481.77	837.91
481.95	903.45
482.13	961.96
482.31	959.62
482.49	983.02
482.67	1097.71
482.85	1174.95
483.03	1296.66
483.21	1355.17
483.39	1500.28
483.57	1556.46
483.74	1685.19
483.92	1652.42
484.10	1727.32
484.28	1905.20
484.46	1954.35
484.64	2043.29
484.82	2146.27
485.00	2345.22
485.18	2469.27
485.35	2548.84
485.53	2651.83
485.71	2869.50
485.89	2953.76
486.07	3000.57
486.25	3070.78
486.43	2993.55
486.61	3063.76
486.78	2981.84
486.96	2958.44
487.14	2995.89
487.32	3038.02
487.50	2958.44
487.68	2974.82
487.85	2892.90
488.03	3038.02
488.21	2923.33
488.39	2761.83
488.57	2729.06
488.75	2630.76
488.92	2785.24
489.10	2565.23
489.28	2466.92
489.46	2399.05
489.64	2502.03
489.81	2464.58
489.99	2284.36
490.17	2251.60
490.35	2326.49
490.53	2289.04
490.70	2235.21
490.88	2298.41
491.06	2502.03
491.24	2731.41
491.41	2555.86
491.59	2466.92
491.77	2289.04
491.95	2253.94
492.13	2076.06
492.30	2059.67
492.48	2108.82
492.66	2026.90
492.84	2008.18
493.01	1970.73
493.19	1984.77
493.37	2019.88
493.54	1860.73
493.72	1937.96
493.90	1860.73
494.08	1778.81
494.25	1769.44
494.43	1757.74
494.61	1659.44
494.79	1750.72
494.96	1792.85
495.14	1614.97
495.32	1678.16
495.49	1551.78
495.67	1561.14
495.85	1593.90
496.02	1535.39
496.20	1437.09
496.38	1416.02
496.55	1465.18
496.73	1544.75
496.91	1437.09
497.09	1418.36
497.26	1376.24
497.44	1369.21
497.62	1327.08
497.79	1282.61
497.97	1371.55
498.14	1334.11
498.32	1303.68
498.50	1228.78
498.67	1188.99
498.85	1121.12
499.03	1118.78
499.20	1238.14
499.38	1057.92
499.56	1057.92
499.73	1170.27
499.91	1088.35
500.08	1057.92
500.26	997.07
500.44	976.00
500.61	894.08
500.79	931.53
500.97	896.43
501.14	908.13
501.32	802.80
501.49	786.42
501.67	809.83
501.84	784.08
502.02	725.57
502.20	753.65
502.37	732.59
502.55	704.50
502.72	690.46
502.90	671.73
503.07	676.41
503.25	681.10
503.43	543.00
503.60	610.88
503.78	641.31
503.95	573.43
504.13	599.18
504.30	601.52
504.48	550.03
504.65	526.62
504.83	603.86
505.01	521.94
505.18	624.92
505.36	559.39
505.53	456.40
505.71	507.90
505.88	550.03
506.06	477.47
506.23	496.19
506.41	472.79
506.58	475.13
506.76	545.34
506.93	526.62
507.11	505.56
507.28	505.56
507.46	449.38
507.63	390.87
507.81	402.57
507.98	456.40
508.16	386.19
508.33	500.87
508.50	409.59
508.68	482.15
508.85	594.50
509.03	486.83
509.20	458.74
509.38	496.19
509.55	545.34
509.73	451.72
509.90	531.30
510.08	451.72
510.25	423.64
510.42	383.85
510.60	486.83
510.77	500.87
510.95	358.10
511.12	360.44
511.30	493.85
511.47	416.62
511.64	451.72
511.82	435.34
511.99	442.36
512.17	458.74
512.34	479.81
512.51	397.89
512.69	468.11
512.86	519.60
513.04	421.30
513.21	386.19
513.38	390.87
513.56	402.57
513.73	442.36
513.90	346.40
514.08	461.09
514.25	468.11
514.43	372.15
514.60	374.49
514.77	407.25
514.95	388.53
515.12	374.49
515.29	435.34
515.47	435.34
515.64	400.23
515.81	327.68
515.99	397.89
516.16	376.83
516.33	411.93
516.51	388.53
516.68	339.38
516.85	325.33
517.03	409.59
517.20	360.44
517.37	440.02
517.54	348.74
517.72	313.63
517.89	332.36
518.06	262.14
518.24	339.38
518.41	430.66
518.58	332.36
518.75	393.21
518.93	360.44
519.10	418.96
519.27	376.83
519.45	362.78
519.62	358.10
519.79	362.78
519.96	376.83
520.14	348.74
520.31	360.44
520.48	308.95
520.65	348.74
520.83	386.19
521.00	383.85
521.17	463.43
521.34	304.27
521.52	430.66
521.69	318.31
521.86	348.74
522.03	404.91
522.20	390.87
522.38	341.72
522.55	358.10
522.72	407.25
522.89	351.08
523.07	400.23
523.24	299.59
523.41	362.78
523.58	346.40
523.75	304.27
523.92	381.51
524.10	369.80
524.27	332.36
524.44	374.49
524.61	400.23
524.78	423.64
524.96	367.46
525.13	393.21
525.30	440.02
525.47	365.12
525.64	470.45
525.81	416.62
525.98	423.64
526.16	374.49
526.33	306.61
526.50	409.59
526.67	360.44
526.84	355.76
527.01	402.57
527.18	468.11
527.36	489.17
527.53	463.43
527.70	477.47
527.87	442.36
528.04	482.15
528.21	395.55
528.38	456.40
528.55	510.24
528.72	449.38
528.89	451.72
529.07	491.51
529.24	479.81
529.41	507.90
529.58	458.74
529.75	479.81
529.92	444.70
530.09	470.45
530.26	592.16
530.43	543.00
530.60	531.30
530.77	540.66
530.94	578.11
531.11	573.43
531.28	634.29
531.46	582.79
531.63	617.90
531.80	615.56
531.97	704.50
532.14	795.78
532.31	873.02
532.48	1015.79
532.65	1203.04
532.82	1390.28
532.99	1570.50
533.16	1788.17
533.33	1856.04
533.50	1678.16
533.67	1586.88
533.84	1320.06
534.01	1240.48
534.18	1090.69
534.35	1132.82
534.52	1125.80
534.69	1160.91
534.86	1086.01
535.03	1198.35
535.20	1149.20
535.37	1261.55
535.54	1296.66
535.71	1439.43
535.88	1481.56
536.05	1521.35
536.22	1701.57
536.38	1741.36
536.55	1996.48
536.72	2038.61
536.89	2581.61
537.06	2658.85
537.23	2984.18
537.40	3262.71
537.57	3618.47
537.74	3712.09
537.91	3997.64
538.08	3988.27
538.25	4166.15
538.42	4107.64
538.59	4222.33
538.75	4351.06
538.92	4601.49
539.09	5085.98
539.26	5563.45
539.43	6333.49
539.60	7105.87
539.77	8070.17
539.94	8966.59
540.11	9879.40
540.28	10906.90
540.44	11885.24
540.61	13179.56
540.78	14949.00
540.95	18338.10
541.12	21666.34
541.29	24652.86
541.46	25600.78
541.62	25287.15
541.79	24329.87
541.96	22700.86
542.13	21003.97
542.30	19573.90
542.47	18239.79
542.63	17191.23
542.80	16856.54
542.97	16657.59
543.14	16519.50
543.31	16699.72
543.48	16638.87
543.64	17160.81
543.81	16947.82
543.98	17057.82
544.15	17022.72
544.32	17270.81
544.48	17359.75
544.65	17172.51
544.82	17186.55
544.99	17181.87
545.16	17640.62
545.32	18176.60
545.49	30038.44
545.66	54164.68
545.83	60205.60
546.00	55973.91
546.16	40847.03
546.33	30752.30
546.50	23096.41
546.67	17872.33
546.83	15494.35
547.00	14745.38
547.17	14085.34
547.34	13544.68
547.50	13069.55
547.67	12432.93
547.84	12198.87
548.00	11585.65
548.17	11257.98
548.34	10817.96
548.51	10223.46
548.67	9753.01
548.84	9334.06
549.01	8688.07
549.18	8620.19
549.34	8116.98
549.51	7866.54
549.68	7552.91
549.84	7241.62
550.01	6848.41
550.18	6668.19
550.34	6373.28
550.51	5921.56
550.68	5881.77
550.84	5369.19
551.01	5345.78
551.18	4957.25
551.34	4718.52
551.51	4451.70
551.68	4278.50
551.84	4205.94
552.01	3857.20
552.18	3833.80
552.34	3686.34
552.51	3510.80
552.68	3403.14
552.84	3239.30
553.01	3122.27
553.18	3119.93
553.34	3049.72
553.51	2820.35
553.67	2841.41
553.84	2698.64
554.01	2459.90
554.17	2389.69
554.34	2122.87
554.51	2050.31
554.67	1944.99
554.84	1944.99
555.00	1804.55
555.17	1643.06
555.33	1624.33
555.50	1526.03
555.67	1507.30
555.83	1348.15
556.00	1380.92
556.16	1425.39
556.33	1275.59
556.50	1252.19
556.66	1217.08
556.83	1114.10
556.99	1198.35
557.16	1062.60
557.32	1177.29
557.49	1050.90
557.65	1069.62
557.82	912.81
557.98	910.47
558.15	943.24
558.32	912.81
558.48	880.04
558.65	873.02
558.81	882.38
558.98	868.34
559.14	800.46
559.31	905.79
559.47	828.55
559.64	807.48
559.80	681.10
559.97	763.01
560.13	814.51
560.30	809.83
560.46	751.31
560.63	786.42
560.79	741.95
560.96	849.61
561.12	767.70
561.29	833.23
561.45	739.61
561.61	734.93
561.78	844.93
561.94	739.61
562.11	718.54
562.27	723.23
562.44	758.33
562.60	699.82
562.77	699.82
562.93	753.65
563.10	702.16
563.26	763.01
563.42	713.86
563.59	653.01
563.75	603.86
563.92	617.90
564.08	585.13
564.24	631.94
564.41	650.67
564.57	582.79
564.74	653.01
564.90	594.50
565.07	695.14
565.23	653.01
565.39	655.35
565.56	582.79
565.72	573.43
565.88	638.97
566.05	606.20
566.21	550.03
566.38	636.63
566.54	592.16
566.70	566.41
566.87	608.54
567.03	723.23
567.19	638.97
567.36	643.65
567.52	603.86
567.68	575.77
567.85	622.58
568.01	547.69
568.17	561.73
568.34	594.50
568.50	643.65
568.66	594.50
568.83	638.97
568.99	610.88
569.15	615.56
569.32	500.87
569.48	596.84
569.64	461.09
569.81	461.09
569.97	500.87
570.13	582.79
570.30	521.94
570.46	472.79
570.62	491.51
570.78	475.13
570.95	442.36
571.11	454.06
571.27	503.22
571.43	407.25
571.60	552.37
571.76	463.43
571.92	463.43
572.09	491.51
572.25	458.74
572.41	514.92
572.57	533.64
572.74	479.81
572.90	404.91
573.06	521.94
573.22	514.92
573.38	535.98
573.55	554.71
573.71	571.09
573.87	500.87
574.03	503.22
574.20	526.62
574.36	531.30
574.52	526.62
574.68	489.17
574.84	613.22
575.01	617.90
575.17	622.58
575.33	629.60
575.49	720.88
575.65	732.59
575.82	844.93
575.98	926.85
576.14	1034.52
576.30	1991.80
576.46	5809.21
576.62	11117.54
576.79	12486.76
576.95	8772.33
577.11	5577.50
577.27	4077.21
577.43	2733.75
577.59	1853.70
577.75	1366.87
577.92	1341.13
578.08	1221.76
578.24	1371.55
578.40	2211.81
578.56	5940.28
578.72	10689.23
578.88	11548.20
579.04	8304.22
579.21	5570.48
579.37	4203.60
579.53	3253.34
579.69	3108.23
579.85	3772.94
580.01	4608.51
580.17	4381.48
580.33	3819.75
580.49	3288.45
580.65	2775.88
580.82	2588.63
580.98	2537.14
581.14	2509.05
581.30	2658.85
581.46	2867.16
581.62	3138.66
581.78	3243.98
581.94	3566.98
582.10	3782.31
582.26	3978.91
582.42	4098.28
582.58	4299.56
582.74	4388.50
582.90	4264.46
583.06	4297.22
583.22	4299.56
583.38	4440.00
583.54	4308.93
583.70	4250.41
583.86	4283.18
584.02	4105.30
584.18	4222.33
584.34	4187.22
584.50	4004.66
584.66	3936.78
584.82	3922.74
584.98	3840.82
585.14	3744.86
585.30	3688.68
585.46	3592.72
585.62	3534.21
585.78	3581.02
585.94	3515.48
586.10	3674.64
586.26	3850.18
586.42	4468.08
586.58	5336.42
586.74	6370.94
586.90	7751.85
587.06	8667.00
587.22	8461.04
587.38	7578.65
587.54	6576.91
587.70	5455.79
587.86	4592.13
588.02	4180.20
588.18	3623.15
588.34	3194.83
588.49	3040.36
588.65	2724.38
588.81	2595.65
588.97	2520.76
589.13	2352.24
589.29	2340.54
589.45	2466.92
589.61	2340.54
589.77	2509.05
589.93	2506.71
590.08	2544.16
590.24	2504.37
590.40	2619.06
590.56	2715.02
590.72	2750.13
590.88	2855.45
591.04	2965.46
591.20	3133.98
591.35	3178.45
591.51	3225.26
591.67	3414.84
591.83	3770.60
591.99	3983.59
592.15	4344.03
592.31	4622.56
592.46	5053.22
592.62	5518.98
592.78	5907.51
592.94	5942.62
593.10	5926.24
593.26	5804.53
593.41	5238.12
593.57	4695.11
593.73	4126.36
593.89	3681.66
594.05	3225.26
594.20	3005.25
594.36	2738.43
594.52	2593.31
594.68	2483.31
594.84	2403.73
594.99	2342.88
595.15	2195.42
595.31	2174.36
595.47	2214.15
595.62	2275.00
595.78	2202.44
595.94	2108.82
596.10	2127.55
596.25	2167.34
596.41	2314.79
596.57	2167.34
596.73	2200.10
596.88	2122.87
597.04	2076.06
597.20	2073.71
597.36	2319.47
597.51	2303.09
597.67	2345.22
597.83	2441.18
597.99	2605.02
598.14	2801.62
598.30	2956.10
598.46	3014.61
598.61	3199.51
598.77	3342.28
598.93	3513.14
599.09	3662.94
599.24	3623.15
599.40	3613.79
599.56	3543.57
599.71	3400.80
599.87	3239.30
600.03	2906.95
600.18	2750.13
600.34	2621.40
600.50	2541.82
600.65	2331.17
600.81	2209.47
600.97	2129.89
601.12	1952.01
601.28	1872.43
601.44	1811.57
601.59	1703.91
601.75	1610.29
601.91	1577.52
602.06	1582.20
602.22	1551.78
602.37	1458.15
602.53	1465.18
602.69	1441.77
602.84	1458.15
603.00	1462.83
603.16	1502.62
603.31	1451.13
603.47	1444.11
603.62	1488.58
603.78	1509.65
603.94	1579.86
604.09	1706.25
604.25	1673.48
604.40	1748.38
604.56	1713.27
604.71	1781.15
604.87	1652.42
605.03	1743.70
605.18	1799.87
605.34	1839.66
605.49	1820.94
605.65	1844.34
605.80	2022.22
605.96	1949.67
606.12	2132.23
606.27	2223.51
606.43	2244.57
606.58	2385.01
606.74	2436.50
606.89	2600.34
607.05	2661.19
607.20	2839.07
607.36	3016.95
607.51	3150.36
607.67	3442.93
607.82	3571.66
607.98	4037.42
608.13	4196.58
608.29	4458.72
608.44	4992.36
608.60	5383.23
608.75	5757.72
608.91	6321.79
609.06	7066.08
609.22	7763.56
609.37	8180.17
609.53	9420.66
609.68	10588.58
609.84	12088.87
609.99	14239.82
610.15	17064.85
610.30	21128.02
610.46	26602.53
610.61	34586.10
610.76	43735.25
610.92	51466.04
611.07	55398.14
611.23	56301.59
611.38	54555.55
611.54	50220.87
611.69	43662.69
611.84	37001.53
612.00	30773.36
612.15	25841.85
612.31	22731.28
612.46	19606.67
612.62	18717.26
612.77	17465.08
612.92	16615.46
613.08	15599.67
613.23	14621.33
613.39	14300.67
613.54	13832.57
613.69	13839.59
613.85	13376.16
614.00	13476.80
614.15	12905.71
614.31	12891.67
614.46	12746.56
614.62	12379.09
614.77	11655.87
614.92	10836.68
615.08	10153.24
615.23	9357.46
615.38	8601.47
615.54	7840.79
615.69	7108.21
615.84	6684.57
616.00	6066.67
616.15	5830.27
616.30	5446.43
616.46	4964.28
616.61	4615.54
616.76	4440.00
616.92	4250.41
617.07	4002.32
617.22	3857.20
617.37	3613.79
617.53	3623.15
617.68	3236.96
617.83	3265.05
617.99	3157.38
618.14	3021.63
618.29	3040.36
618.45	2972.48
618.60	2906.95
618.75	2794.60
618.90	2892.90
619.06	2773.53
619.21	2818.00
619.36	2754.81
619.51	2717.36
619.67	2663.53
619.82	2897.58
619.97	2832.05
620.12	2857.79
620.28	2958.44
620.43	3040.36
620.58	3026.31
620.73	3077.80
620.89	3059.08
621.04	3054.40
621.19	3054.40
621.34	2888.22
621.49	2780.56
621.65	2911.63
621.80	2848.43
621.95	2951.42
622.10	2874.18
622.25	2782.90
622.41	2813.32
622.56	3047.38
622.71	3220.58
622.86	3080.14
623.01	3190.15
623.16	3265.05
623.32	3204.19
623.47	3288.45
623.62	3126.96
623.77	3272.07
623.92	3239.30
624.07	3178.45
624.23	3309.52
624.38	3164.40
624.53	3075.46
624.68	3213.56
624.83	3316.54
624.98	3281.43
625.13	3344.63
625.29	3246.32
625.44	3311.86
625.59	3314.20
625.74	3435.91
625.89	3265.05
626.04	3302.50
626.19	3281.43
626.34	3330.58
626.49	3332.92
626.65	3192.49
626.80	3227.60
626.95	3145.68
627.10	3124.62
627.25	3082.49
627.40	3063.76
627.55	3075.46
627.70	2991.20
627.85	2988.86
628.00	2808.64
628.15	2878.86
628.30	3068.44
628.45	2726.72
628.60	2902.26
628.76	2899.92
628.91	3038.02
629.06	2981.84
629.21	3131.64
629.36	3052.06
629.51	3208.87
629.66	3288.45
629.81	3653.58
629.96	3815.07
630.11	4283.18
630.26	4849.59
630.41	5352.81
630.56	5919.21
630.71	6225.82
630.86	6356.90
631.01	6190.72
631.16	5795.17
631.31	5195.99
631.46	4510.21
631.61	3875.93
631.76	3112.91
631.91	2708.00
632.06	2359.26
632.21	2029.24
632.36	1717.95
632.51	1540.07
632.66	1462.83
632.81	1203.04
632.96	1277.93
633.10	1210.06
633.25	1270.91
633.40	1123.46
633.55	1039.20
633.70	1050.90
633.85	997.07
634.00	933.87
634.15	884.72
634.30	1015.79
634.45	908.13
634.60	940.90
634.75	858.98
634.90	926.85
635.05	793.44
635.19	840.25
635.34	896.43
635.49	847.27
635.64	767.70
635.79	814.51
635.94	674.07
636.09	730.25
636.24	779.40
636.39	847.27
636.53	716.20
636.68	709.18
636.83	765.36
636.98	720.88
637.13	741.95
637.28	758.33
637.43	704.50
637.57	704.50
637.72	681.10
637.87	681.10
638.02	671.73
638.17	664.71
638.32	655.35
638.46	624.92
638.61	653.01
638.76	594.50
638.91	634.29
639.06	585.13
639.20	704.50
639.35	594.50
639.50	643.65
639.65	674.07
639.80	622.58
639.94	622.58
640.09	610.88
640.24	566.41
640.39	664.71
640.54	650.67
640.68	617.90
640.83	641.31
640.98	613.22
641.13	578.11
641.27	578.11
641.42	491.51
641.57	585.13
641.72	601.52
641.86	531.30
642.01	613.22
642.16	561.73
642.31	547.69
642.45	599.18
642.60	638.97
642.75	634.29
642.90	610.88
643.04	636.63
643.19	627.26
643.34	627.26
643.48	655.35
643.63	606.20
643.78	617.90
643.93	667.05
644.07	566.41
644.22	657.69
644.37	510.24
644.51	599.18
644.66	543.00
644.81	582.79
644.95	617.90
645.10	557.05
645.25	533.64
645.39	524.28
645.54	622.58
645.69	585.13
645.83	514.92
645.98	524.28
646.13	587.47
646.27	531.30
646.42	535.98
646.57	547.69
646.71	528.96
646.86	599.18
647.00	580.45
647.15	550.03
647.30	543.00
647.44	559.39
647.59	477.47
647.74	512.58
647.88	575.77
648.03	580.45
648.17	594.50
648.32	500.87
648.47	528.96
648.61	521.94
648.76	559.39
648.90	650.67
649.05	655.35
649.20	706.84
649.34	772.38
649.49	833.23
649.63	861.32
649.78	1100.05
649.92	1303.68
650.07	1544.75
650.21	1739.02
650.36	1823.28
650.51	1820.94
650.65	1764.76
650.80	1575.18
650.94	1390.28
651.09	1240.48
651.23	1036.86
651.38	947.92
651.52	992.39
651.67	870.68
651.81	704.50
651.96	800.46
652.10	711.52
652.25	730.25
652.39	777.06
652.54	774.72
652.68	835.57
652.83	908.13
652.97	919.83
653.12	957.28
653.26	842.59
653.41	835.57
653.55	779.40
653.70	664.71
653.84	685.78
653.99	638.97
654.13	615.56
654.27	650.67
654.42	566.41
654.56	550.03
654.71	571.09
654.85	592.16
655.00	571.09
655.14	580.45
655.29	482.15
655.43	547.69
655.57	573.43
655.72	514.92
655.86	608.54
656.01	463.43
656.15	479.81
656.30	566.41
656.44	498.53
656.58	545.34
656.73	512.58
656.87	535.98
657.01	575.77
657.16	521.94
657.30	592.16
657.45	629.60
657.59	615.56
657.73	629.60
657.88	636.63
658.02	671.73
658.16	568.75
658.31	491.51
658.45	603.86
658.60	526.62
658.74	430.66
658.88	393.21
659.03	526.62
659.17	489.17
659.31	437.68
659.46	407.25
659.60	461.09
659.74	414.27
659.89	393.21
660.03	362.78
660.17	468.11
660.32	433.00
660.46	397.89
660.60	376.83
660.74	397.89
660.89	423.64
661.03	486.83
661.17	458.74
661.32	540.66
661.46	503.22
661.60	538.32
661.74	748.97
661.89	828.55
662.03	1008.77
662.17	1158.57
662.31	983.02
662.46	1090.69
662.60	990.05
662.74	898.77
662.88	828.55
663.03	713.86
663.17	683.44
663.31	641.31
663.45	655.35
663.60	571.09
663.74	559.39
663.88	543.00
664.02	554.71
664.17	444.70
664.31	414.27
664.45	421.30
664.59	423.64
664.73	423.64
664.88	498.53
665.02	383.85
665.16	416.62
665.30	423.64
665.44	376.83
665.59	454.06
665.73	355.76
665.87	418.96
666.01	383.85
666.15	395.55
666.29	390.87
666.44	339.38
666.58	418.96
666.72	435.34
666.86	407.25
667.00	435.34
667.14	334.70
667.28	472.79
667.43	397.89
667.57	468.11
667.71	409.59
667.85	404.91
667.99	337.04
668.13	402.57
668.27	353.42
668.41	437.68
668.56	390.87
668.70	395.55
668.84	306.61
668.98	416.62
669.12	355.76
669.26	313.63
669.40	430.66
669.54	372.15
669.68	386.19
669.82	360.44
669.96	423.64
670.10	374.49
670.25	409.59
670.39	327.68
670.53	390.87
670.67	376.83
670.81	304.27
670.95	337.04
671.09	322.99
671.23	381.51
671.37	449.38
671.51	322.99
671.65	465.77
671.79	388.53
671.93	386.19
672.07	461.09
672.21	301.93
672.35	280.86
672.49	304.27
672.63	386.19
672.77	327.68
672.91	257.46
673.05	313.63
673.19	313.63
673.33	365.12
673.47	393.21
673.61	348.74
673.75	285.55
673.89	372.15
674.03	327.68
674.17	308.95
674.31	365.12
674.45	287.89
674.59	341.72
674.73	262.14
674.87	285.55
675.01	304.27
675.15	372.15
675.29	315.97
675.43	425.98
675.56	360.44
675.70	325.33
675.84	301.93
675.98	255.12
676.12	304.27
676.26	271.50
676.40	222.35
676.54	325.33
676.68	273.84
676.82	348.74
676.96	259.80
677.10	322.99
677.23	362.78
677.37	306.61
677.51	262.14
677.65	299.59
677.79	241.08
677.93	227.03
678.07	271.50
678.21	348.74
678.34	266.82
678.48	243.42
678.62	283.20
678.76	292.57
678.90	241.08
679.04	154.48
679.18	245.76
679.31	224.69
679.45	280.86
679.59	304.27
679.73	318.31
679.87	299.59
680.00	372.15
680.14	311.29
680.28	334.70
680.42	313.63
680.56	294.91
680.70	271.50
680.83	322.99
680.97	348.74
681.11	322.99
681.25	414.27
681.39	266.82
681.52	383.85
681.66	248.10
681.80	290.23
681.94	264.48
682.07	262.14
682.21	262.14
682.35	250.44
682.49	220.01
682.62	308.95
682.76	346.40
682.90	339.38
683.04	360.44
683.17	294.91
683.31	264.48
683.45	337.04
683.59	276.18
683.72	245.76
683.86	292.57
684.00	241.08
684.13	327.68
684.27	283.20
684.41	404.91
684.55	280.86
684.68	315.97
684.82	231.71
684.96	220.01
685.09	248.10
685.23	273.84
685.37	269.16
685.50	388.53
685.64	308.95
685.78	285.55
685.91	301.93
686.05	393.21
686.19	318.31
686.32	411.93
686.46	433.00
686.60	374.49
686.73	454.06
686.87	491.51
687.01	512.58
687.14	512.58
687.28	564.07
687.42	559.39
687.55	645.99
687.69	610.88
687.82	655.35
687.96	582.79
688.10	641.31
688.23	545.34
688.37	578.11
688.50	517.26
688.64	437.68
688.78	393.21
688.91	367.46
689.05	301.93
689.18	315.97
689.32	379.17
689.46	351.08
689.59	262.14
689.73	325.33
689.86	278.52
690.00	241.08
690.13	135.75
690.27	287.89
690.41	407.25
690.54	311.29
690.68	313.63
690.81	348.74
690.95	273.84
691.08	154.48
691.22	234.05
691.35	245.76
691.49	140.43
691.62	238.73
691.76	252.78
691.89	210.65
692.03	236.39
692.16	196.60
692.30	238.73
692.43	189.58
692.57	194.26
692.70	142.77
692.84	278.52
692.97	299.59
693.11	313.63
693.24	313.63
693.38	386.19
693.51	458.74
693.65	599.18
693.78	505.56
693.92	465.77
694.05	477.47
694.19	351.08
694.32	362.78
694.45	280.86
694.59	280.86
694.72	252.78
694.86	175.54
694.99	187.24
695.13	175.54
695.26	145.11
695.39	138.09
695.53	182.56
695.66	135.75
695.80	177.88
695.93	161.50
696.07	135.75
696.20	224.69
696.33	266.82
696.47	245.76
696.60	238.73
696.73	234.05
696.87	224.69
697.00	215.33
697.14	117.03
697.27	140.43
697.40	194.26
697.54	170.86
697.67	189.58
697.80	133.41
697.94	88.94
698.07	145.11
698.21	102.98
698.34	159.16
698.47	107.66
698.61	105.32
698.74	140.43
698.87	217.67
699.01	196.60
699.14	191.92
699.27	187.24
699.40	250.44
699.54	142.77
699.67	142.77
699.80	212.99
699.94	140.43
700.07	105.32
700.20	131.07
700.34	156.82
700.47	170.86
700.60	159.16
700.73	147.45
700.87	147.45
701.00	159.16
701.13	198.95
701.26	105.32
701.40	105.32
701.53	91.28
701.66	173.20
701.79	112.35
701.93	147.45
702.06	212.99
702.19	175.54
702.32	163.84
702.46	138.09
702.59	149.79
702.72	159.16
702.85	166.18
702.99	208.31
703.12	196.60
703.25	135.75
703.38	159.16
703.51	205.97
703.65	191.92
703.78	191.92
703.91	273.84
704.04	271.50
704.17	201.29
704.31	330.02
704.44	290.23
704.57	313.63
704.70	224.69
704.83	208.31
704.96	348.74
705.10	259.80
705.23	191.92
>>>>>End Processed Spectral Data<<<<<
