SpectraSuite Data File
++++++++++++++++++++++++++++++++++++
Date: Fri Oct 04 11:42:25 GMT-05:00 2013
User: price-jones
Dark Spectrum Present: No
Reference Spectrum Present: No
Number of Sampled Component Spectra: 1
Spectrometers: USB2+H05261
Integration Time (usec): 100000 (USB2+H05261)
Spectra Averaged: 1 (USB2+H05261)
Boxcar Smoothing: 0 (USB2+H05261)
Correct for Electrical Dark: No (USB2+H05261)
Strobe/Lamp Enabled: No (USB2+H05261)
Correct for Detector Non-linearity: No (USB2+H05261)
Correct for Stray Light: No (USB2+H05261)
Number of Pixels in Processed Spectrum: 2048
>>>>>Begin Processed Spectral Data<<<<<
365.73	79.58
365.92	79.58
366.12	79.58
366.32	60.85
366.52	11.70
366.72	16.38
366.91	0.00
367.11	0.00
367.31	0.00
367.51	0.00
367.70	0.00
367.90	0.00
368.10	0.00
368.30	0.00
368.49	0.00
368.69	0.00
368.89	0.00
369.09	0.00
369.28	0.00
369.48	0.00
369.68	0.00
369.87	23.41
370.07	0.00
370.27	0.00
370.47	7.02
370.66	0.00
370.86	60.85
371.06	35.11
371.25	102.98
371.45	37.45
371.65	65.54
371.84	107.66
372.04	187.24
372.24	72.56
372.44	102.98
372.63	112.35
372.83	140.43
373.03	84.26
373.22	114.69
373.42	84.26
373.62	159.16
373.81	166.18
374.01	119.37
374.21	63.19
374.40	60.85
374.60	175.54
374.79	58.51
374.99	112.35
375.19	142.77
375.38	88.94
375.58	81.92
375.78	135.75
375.97	95.96
376.17	173.20
376.37	67.88
376.56	93.62
376.76	105.32
376.95	140.43
377.15	156.82
377.35	102.98
377.54	126.39
377.74	131.07
377.93	114.69
378.13	131.07
378.33	100.64
378.52	142.77
378.72	152.13
378.91	117.03
379.11	126.39
379.31	86.60
379.50	114.69
379.70	81.92
379.89	159.16
380.09	105.32
380.28	112.35
380.48	65.54
380.68	28.09
380.87	56.17
381.07	126.39
381.26	154.48
381.46	133.41
381.65	145.11
381.85	173.20
382.04	65.54
382.24	84.26
382.43	133.41
382.63	142.77
382.83	121.71
383.02	119.37
383.22	147.45
383.41	51.49
383.61	102.98
383.80	51.49
384.00	138.09
384.19	154.48
384.39	77.24
384.58	175.54
384.78	65.54
384.97	93.62
385.17	72.56
385.36	126.39
385.56	117.03
385.75	79.58
385.95	131.07
386.14	112.35
386.34	135.75
386.53	81.92
386.72	70.22
386.92	102.98
387.11	131.07
387.31	126.39
387.50	58.51
387.70	88.94
387.89	74.90
388.09	70.22
388.28	138.09
388.48	58.51
388.67	131.07
388.86	86.60
389.06	112.35
389.25	131.07
389.45	67.88
389.64	147.45
389.84	121.71
390.03	110.01
390.22	191.92
390.42	138.09
390.61	79.58
390.81	58.51
391.00	159.16
391.19	177.88
391.39	84.26
391.58	95.96
391.78	128.73
391.97	95.96
392.16	126.39
392.36	133.41
392.55	159.16
392.75	72.56
392.94	170.86
393.13	142.77
393.33	65.54
393.52	105.32
393.71	131.07
393.91	133.41
394.10	149.79
394.29	102.98
394.49	152.13
394.68	121.71
394.88	145.11
395.07	105.32
395.26	133.41
395.46	117.03
395.65	124.05
395.84	126.39
396.04	210.65
396.23	121.71
396.42	42.13
396.62	126.39
396.81	102.98
397.00	128.73
397.19	60.85
397.39	107.66
397.58	170.86
397.77	121.71
397.97	170.86
398.16	175.54
398.35	138.09
398.55	142.77
398.74	201.29
398.93	124.05
399.12	121.71
399.32	184.90
399.51	105.32
399.70	201.29
399.90	119.37
400.09	168.52
400.28	182.56
400.47	201.29
400.67	110.01
400.86	133.41
401.05	198.95
401.24	145.11
401.44	77.24
401.63	131.07
401.82	110.01
402.01	124.05
402.21	177.88
402.40	107.66
402.59	149.79
402.78	112.35
402.97	88.94
403.17	166.18
403.36	124.05
403.55	198.95
403.74	318.31
403.93	681.10
404.13	1619.65
404.32	2445.86
404.51	2569.91
404.70	1783.49
404.89	622.58
405.09	231.71
405.28	112.35
405.47	175.54
405.66	170.86
405.85	255.12
406.05	154.48
406.24	100.64
406.43	142.77
406.62	131.07
406.81	231.71
407.00	250.44
407.20	369.80
407.39	367.46
407.58	524.28
407.77	512.58
407.96	318.31
408.15	191.92
408.34	177.88
408.54	98.30
408.73	119.37
408.92	102.98
409.11	114.69
409.30	140.43
409.49	149.79
409.68	173.20
409.87	177.88
410.07	77.24
410.26	187.24
410.45	177.88
410.64	189.58
410.83	107.66
411.02	107.66
411.21	119.37
411.40	231.71
411.59	149.79
411.78	161.50
411.98	149.79
412.17	201.29
412.36	124.05
412.55	152.13
412.74	121.71
412.93	138.09
413.12	156.82
413.31	196.60
413.50	184.90
413.69	173.20
413.88	231.71
414.07	119.37
414.26	161.50
414.45	154.48
414.64	184.90
414.83	184.90
415.02	177.88
415.22	173.20
415.41	252.78
415.60	201.29
415.79	184.90
415.98	177.88
416.17	154.48
416.36	180.22
416.55	102.98
416.74	114.69
416.93	189.58
417.12	175.54
417.31	98.30
417.50	126.39
417.69	161.50
417.88	208.31
418.07	142.77
418.26	140.43
418.45	194.26
418.64	231.71
418.83	170.86
419.02	142.77
419.21	210.65
419.39	124.05
419.58	119.37
419.77	168.52
419.96	220.01
420.15	243.42
420.34	273.84
420.53	231.71
420.72	215.33
420.91	175.54
421.10	229.37
421.29	205.97
421.48	201.29
421.67	259.80
421.86	236.39
422.05	229.37
422.24	180.22
422.43	229.37
422.61	184.90
422.80	191.92
422.99	220.01
423.18	128.73
423.37	205.97
423.56	198.95
423.75	166.18
423.94	152.13
424.13	203.63
424.32	194.26
424.50	182.56
424.69	187.24
424.88	280.86
425.07	243.42
425.26	208.31
425.45	259.80
425.64	212.99
425.83	224.69
426.01	177.88
426.20	145.11
426.39	126.39
426.58	173.20
426.77	210.65
426.96	187.24
427.15	210.65
427.33	203.63
427.52	191.92
427.71	271.50
427.90	203.63
428.09	203.63
428.28	210.65
428.46	217.67
428.65	257.46
428.84	332.36
429.03	212.99
429.22	194.26
429.40	182.56
429.59	220.01
429.78	227.03
429.97	259.80
430.16	210.65
430.34	210.65
430.53	280.86
430.72	145.11
430.91	224.69
431.10	252.78
431.28	248.10
431.47	203.63
431.66	283.20
431.85	252.78
432.03	224.69
432.22	189.58
432.41	119.37
432.60	348.74
432.79	266.82
432.97	245.76
433.16	238.73
433.35	341.72
433.54	285.55
433.72	285.55
433.91	372.15
434.10	308.95
434.28	379.17
434.47	484.49
434.66	482.15
434.85	489.17
435.03	1053.24
435.22	3506.12
435.41	8194.22
435.59	11431.18
435.78	8954.89
435.97	4173.18
436.16	1638.38
436.34	592.16
436.53	397.89
436.72	341.72
436.90	313.63
437.09	306.61
437.28	241.08
437.46	245.76
437.65	327.68
437.84	313.63
438.02	360.44
438.21	369.80
438.40	365.12
438.58	287.89
438.77	271.50
438.96	238.73
439.14	299.59
439.33	229.37
439.52	236.39
439.70	283.20
439.89	301.93
440.08	315.97
440.26	315.97
440.45	334.70
440.63	334.70
440.82	276.18
441.01	301.93
441.19	255.12
441.38	250.44
441.57	271.50
441.75	252.78
441.94	229.37
442.12	231.71
442.31	264.48
442.50	308.95
442.68	276.18
442.87	220.01
443.05	313.63
443.24	257.46
443.43	327.68
443.61	311.29
443.80	299.59
443.98	255.12
444.17	290.23
444.35	306.61
444.54	217.67
444.73	241.08
444.91	278.52
445.10	271.50
445.28	259.80
445.47	287.89
445.65	248.10
445.84	208.31
446.02	177.88
446.21	250.44
446.39	259.80
446.58	301.93
446.77	224.69
446.95	290.23
447.14	306.61
447.32	271.50
447.51	236.39
447.69	248.10
447.88	287.89
448.06	330.02
448.25	304.27
448.43	276.18
448.62	208.31
448.80	299.59
448.99	276.18
449.17	255.12
449.36	238.73
449.54	294.91
449.73	365.12
449.91	283.20
450.10	182.56
450.28	365.12
450.46	355.76
450.65	386.19
450.83	306.61
451.02	250.44
451.20	248.10
451.39	278.52
451.57	276.18
451.76	322.99
451.94	292.57
452.13	337.04
452.31	322.99
452.49	318.31
452.68	248.10
452.86	311.29
453.05	367.46
453.23	304.27
453.42	358.10
453.60	168.52
453.78	327.68
453.97	217.67
454.15	238.73
454.34	245.76
454.52	280.86
454.70	245.76
454.89	255.12
455.07	266.82
455.26	292.57
455.44	351.08
455.62	243.42
455.81	278.52
455.99	327.68
456.17	304.27
456.36	285.55
456.54	262.14
456.73	269.16
456.91	294.91
457.09	262.14
457.28	348.74
457.46	245.76
457.64	308.95
457.83	203.63
458.01	236.39
458.19	250.44
458.38	306.61
458.56	306.61
458.74	320.65
458.93	327.68
459.11	278.52
459.29	264.48
459.48	306.61
459.66	276.18
459.84	306.61
460.03	379.17
460.21	400.23
460.39	262.14
460.57	292.57
460.76	229.37
460.94	315.97
461.12	290.23
461.31	304.27
461.49	194.26
461.67	318.31
461.85	299.59
462.04	238.73
462.22	416.62
462.40	198.95
462.59	280.86
462.77	222.35
462.95	287.89
463.13	297.25
463.32	393.21
463.50	259.80
463.68	283.20
463.86	322.99
464.05	315.97
464.23	241.08
464.41	269.16
464.59	290.23
464.78	280.86
464.96	234.05
465.14	292.57
465.32	189.58
465.50	269.16
465.69	297.25
465.87	236.39
466.05	262.14
466.23	222.35
466.41	294.91
466.60	330.02
466.78	297.25
466.96	308.95
467.14	325.33
467.32	313.63
467.51	285.55
467.69	266.82
467.87	308.95
468.05	273.84
468.23	278.52
468.41	262.14
468.60	299.59
468.78	255.12
468.96	238.73
469.14	257.46
469.32	308.95
469.50	203.63
469.69	212.99
469.87	285.55
470.05	283.20
470.23	220.01
470.41	299.59
470.59	234.05
470.77	294.91
470.95	191.92
471.14	332.36
471.32	285.55
471.50	252.78
471.68	304.27
471.86	285.55
472.04	205.97
472.22	285.55
472.40	194.26
472.58	259.80
472.77	198.95
472.95	266.82
473.13	234.05
473.31	294.91
473.49	337.04
473.67	212.99
473.85	234.05
474.03	318.31
474.21	248.10
474.39	285.55
474.57	266.82
474.75	243.42
474.93	224.69
475.12	259.80
475.30	236.39
475.48	269.16
475.66	287.89
475.84	245.76
476.02	189.58
476.20	231.71
476.38	273.84
476.56	262.14
476.74	299.59
476.92	257.46
477.10	203.63
477.28	257.46
477.46	341.72
477.64	287.89
477.82	287.89
478.00	285.55
478.18	227.03
478.36	292.57
478.54	280.86
478.72	278.52
478.90	315.97
479.08	241.08
479.26	304.27
479.44	306.61
479.62	337.04
479.80	252.78
479.98	348.74
480.16	301.93
480.34	322.99
480.52	322.99
480.70	334.70
480.88	353.42
481.06	325.33
481.24	393.21
481.41	418.96
481.59	411.93
481.77	400.23
481.95	442.36
482.13	505.56
482.31	470.45
482.49	418.96
482.67	533.64
482.85	531.30
483.03	514.92
483.21	662.37
483.39	629.60
483.57	674.07
483.74	805.14
483.92	788.76
484.10	786.42
484.28	842.59
484.46	894.08
484.64	1013.45
484.82	1067.28
485.00	1107.07
485.18	1121.12
485.35	1179.63
485.53	1167.93
485.71	1163.25
485.89	1320.06
486.07	1352.83
486.25	1284.95
486.43	1331.76
486.61	1336.45
486.78	1425.39
486.96	1467.52
487.14	1448.79
487.32	1591.56
487.50	1401.98
487.68	1378.58
487.85	1437.09
488.03	1437.09
488.21	1336.45
488.39	1373.89
488.57	1497.94
488.75	1420.71
488.92	1774.13
489.10	1322.40
489.28	1474.54
489.46	1352.83
489.64	1427.73
489.81	1448.79
489.99	1355.17
490.17	1385.60
490.35	1385.60
490.53	1231.12
490.70	1214.74
490.88	1343.47
491.06	1357.51
491.24	1390.28
491.41	1458.15
491.59	1392.62
491.77	1371.55
491.95	1205.38
492.13	1163.25
492.30	1184.31
492.48	1151.54
492.66	1160.91
492.84	1083.67
493.01	1203.04
493.19	1062.60
493.37	1062.60
493.54	1118.78
493.72	1214.74
493.90	1074.31
494.08	999.41
494.25	1006.43
494.43	1086.01
494.61	980.68
494.79	961.96
494.96	990.05
495.14	994.73
495.32	905.79
495.49	1067.28
495.67	1004.09
495.85	1004.09
496.02	889.40
496.20	922.17
496.38	976.00
496.55	873.02
496.73	954.94
496.91	980.68
497.09	938.55
497.26	912.81
497.44	910.47
497.62	870.68
497.79	866.00
497.97	753.65
498.14	835.57
498.32	793.44
498.50	809.83
498.67	683.44
498.85	674.07
499.03	634.29
499.20	674.07
499.38	730.25
499.56	596.84
499.73	585.13
499.91	613.22
500.08	538.32
500.26	512.58
500.44	475.13
500.61	493.85
500.79	472.79
500.97	507.90
501.14	496.19
501.32	454.06
501.49	489.17
501.67	374.49
501.84	430.66
502.02	407.25
502.20	479.81
502.37	362.78
502.55	367.46
502.72	402.57
502.90	376.83
503.07	322.99
503.25	393.21
503.43	234.05
503.60	416.62
503.78	386.19
503.95	280.86
504.13	334.70
504.30	327.68
504.48	334.70
504.65	381.51
504.83	313.63
505.01	273.84
505.18	299.59
505.36	315.97
505.53	315.97
505.71	283.20
505.88	393.21
506.06	308.95
506.23	252.78
506.41	257.46
506.58	362.78
506.76	231.71
506.93	294.91
507.11	320.65
507.28	269.16
507.46	264.48
507.63	308.95
507.81	318.31
507.98	334.70
508.16	311.29
508.33	344.06
508.50	304.27
508.68	243.42
508.85	313.63
509.03	327.68
509.20	285.55
509.38	306.61
509.55	341.72
509.73	330.02
509.90	301.93
510.08	306.61
510.25	294.91
510.42	304.27
510.60	369.80
510.77	257.46
510.95	362.78
511.12	301.93
511.30	348.74
511.47	287.89
511.64	313.63
511.82	313.63
511.99	308.95
512.17	278.52
512.34	304.27
512.51	283.20
512.69	248.10
512.86	320.65
513.04	327.68
513.21	273.84
513.38	372.15
513.56	299.59
513.73	379.17
513.90	278.52
514.08	283.20
514.25	278.52
514.43	327.68
514.60	301.93
514.77	220.01
514.95	234.05
515.12	337.04
515.29	252.78
515.47	320.65
515.64	266.82
515.81	273.84
515.99	337.04
516.16	362.78
516.33	313.63
516.51	287.89
516.68	250.44
516.85	257.46
517.03	297.25
517.20	297.25
517.37	276.18
517.54	241.08
517.72	325.33
517.89	220.01
518.06	271.50
518.24	341.72
518.41	299.59
518.58	313.63
518.75	318.31
518.93	311.29
519.10	287.89
519.27	248.10
519.45	262.14
519.62	234.05
519.79	355.76
519.96	266.82
520.14	299.59
520.31	348.74
520.48	262.14
520.65	248.10
520.83	346.40
521.00	304.27
521.17	313.63
521.34	278.52
521.52	311.29
521.69	248.10
521.86	318.31
522.03	280.86
522.20	362.78
522.38	238.73
522.55	273.84
522.72	266.82
522.89	262.14
523.07	348.74
523.24	250.44
523.41	259.80
523.58	227.03
523.75	222.35
523.92	224.69
524.10	250.44
524.27	264.48
524.44	210.65
524.61	327.68
524.78	236.39
524.96	255.12
525.13	301.93
525.30	201.29
525.47	222.35
525.64	266.82
525.81	308.95
525.98	182.56
526.16	285.55
526.33	259.80
526.50	187.24
526.67	241.08
526.84	290.23
527.01	220.01
527.18	271.50
527.36	290.23
527.53	262.14
527.70	346.40
527.87	248.10
528.04	313.63
528.21	257.46
528.38	280.86
528.55	283.20
528.72	337.04
528.89	358.10
529.07	250.44
529.24	257.46
529.41	332.36
529.58	358.10
529.75	273.84
529.92	283.20
530.09	313.63
530.26	341.72
530.43	255.12
530.60	278.52
530.77	330.02
530.94	381.51
531.11	308.95
531.28	245.76
531.46	351.08
531.63	372.15
531.80	355.76
531.97	313.63
532.14	360.44
532.31	421.30
532.48	456.40
532.65	482.15
532.82	477.47
532.99	589.82
533.16	657.69
533.33	695.14
533.50	727.91
533.67	599.18
533.84	578.11
534.01	440.02
534.18	444.70
534.35	475.13
534.52	468.11
534.69	561.73
534.86	393.21
535.03	461.09
535.20	528.96
535.37	557.05
535.54	554.71
535.71	587.47
535.88	627.26
536.05	575.77
536.22	615.56
536.38	648.33
536.55	653.01
536.72	786.42
536.89	772.38
537.06	849.61
537.23	905.79
537.40	1032.18
537.57	1067.28
537.74	1146.86
537.91	1324.74
538.08	1416.02
538.25	1521.35
538.42	1664.12
538.59	1762.42
538.75	1781.15
538.92	1816.26
539.09	1879.45
539.26	1898.17
539.43	2083.08
539.60	2342.88
539.77	2509.05
539.94	2729.06
540.11	2949.08
540.28	3131.64
540.44	3309.52
540.61	3375.05
540.78	3786.99
540.95	4133.39
541.12	4770.01
541.29	5504.94
541.46	6478.60
541.62	7581.00
541.79	8446.99
541.96	9533.00
542.13	10202.40
542.30	10628.37
542.47	10527.73
542.63	10303.04
542.80	10059.62
542.97	10410.70
543.14	10420.06
543.31	10450.49
543.48	10906.90
543.64	10684.55
543.81	10272.61
543.98	10195.37
544.15	9680.46
544.32	9621.94
544.48	9179.58
544.65	9011.06
544.82	8308.90
544.99	8039.74
545.16	7784.62
545.32	7623.12
545.49	10274.95
545.66	17378.48
545.83	25436.94
546.00	25062.46
546.16	14714.95
546.33	9476.83
546.50	6832.02
546.67	4777.03
546.83	3943.80
547.00	3520.17
547.17	3389.10
547.34	3148.02
547.50	3115.25
547.67	2981.84
547.84	2862.48
548.00	3033.33
548.17	2928.01
548.34	3103.55
548.51	3075.46
548.67	3262.71
548.84	3386.76
549.01	3482.72
549.18	3297.81
549.34	3227.60
549.51	3136.32
549.68	2967.80
549.84	2733.75
550.01	2509.05
550.18	2590.97
550.34	2420.11
550.51	2366.28
550.68	2256.28
550.84	2176.70
551.01	2218.83
551.18	2181.38
551.34	2218.83
551.51	2204.78
551.68	2127.55
551.84	2118.18
552.01	2207.13
552.18	2111.16
552.34	2008.18
552.51	1865.41
552.68	1811.57
552.84	1748.38
553.01	1736.68
553.18	1640.72
553.34	1556.46
553.51	1465.18
553.67	1315.38
553.84	1254.53
554.01	1071.97
554.17	1048.56
554.34	908.13
554.51	870.68
554.67	868.34
554.84	849.61
555.00	711.52
555.17	695.14
555.33	692.80
555.50	610.88
555.67	575.77
555.83	706.84
556.00	601.52
556.16	781.74
556.33	489.17
556.50	521.94
556.66	463.43
556.83	475.13
556.99	440.02
557.16	510.24
557.32	433.00
557.49	421.30
557.65	465.77
557.82	444.70
557.98	489.17
558.15	404.91
558.32	484.49
558.48	395.55
558.65	337.04
558.81	379.17
558.98	421.30
559.14	463.43
559.31	367.46
559.47	468.11
559.64	348.74
559.80	400.23
559.97	348.74
560.13	360.44
560.30	327.68
560.46	358.10
560.63	360.44
560.79	372.15
560.96	351.08
561.12	365.12
561.29	400.23
561.45	418.96
561.61	418.96
561.78	435.34
561.94	411.93
562.11	308.95
562.27	313.63
562.44	367.46
562.60	381.51
562.77	409.59
562.93	365.12
563.10	358.10
563.26	294.91
563.42	332.36
563.59	383.85
563.75	252.78
563.92	372.15
564.08	355.76
564.24	425.98
564.41	353.42
564.57	334.70
564.74	360.44
564.90	388.53
565.07	388.53
565.23	358.10
565.39	255.12
565.56	372.15
565.72	280.86
565.88	285.55
566.05	266.82
566.21	355.76
566.38	280.86
566.54	285.55
566.70	346.40
566.87	280.86
567.03	337.04
567.19	372.15
567.36	306.61
567.52	287.89
567.68	402.57
567.85	325.33
568.01	332.36
568.17	222.35
568.34	290.23
568.50	325.33
568.66	290.23
568.83	294.91
568.99	271.50
569.15	322.99
569.32	262.14
569.48	231.71
569.64	283.20
569.81	362.78
569.97	290.23
570.13	334.70
570.30	283.20
570.46	227.03
570.62	325.33
570.78	269.16
570.95	262.14
571.11	337.04
571.27	381.51
571.43	241.08
571.60	262.14
571.76	273.84
571.92	283.20
572.09	241.08
572.25	241.08
572.41	341.72
572.57	407.25
572.74	358.10
572.90	372.15
573.06	411.93
573.22	395.55
573.38	327.68
573.55	418.96
573.71	402.57
573.87	395.55
574.03	353.42
574.20	299.59
574.36	447.04
574.52	341.72
574.68	390.87
574.84	407.25
575.01	407.25
575.17	395.55
575.33	381.51
575.49	425.98
575.65	491.51
575.82	437.68
575.98	580.45
576.14	458.74
576.30	830.89
576.46	1975.41
576.62	3520.17
576.79	4896.40
576.95	3719.11
577.11	2181.38
577.27	1523.69
577.43	992.39
577.59	774.72
577.75	755.99
577.92	629.60
578.08	624.92
578.24	664.71
578.40	896.43
578.56	1877.11
578.72	3262.71
578.88	4727.88
579.04	3433.57
579.21	2279.68
579.37	1963.71
579.53	1633.69
579.69	1514.33
579.85	1827.96
580.01	2101.80
580.17	2190.74
580.33	1865.41
580.49	1640.72
580.65	1399.64
580.82	1254.53
580.98	1289.64
581.14	1284.95
581.30	1404.32
581.46	1404.32
581.62	1479.22
581.78	1530.71
581.94	1579.86
582.10	1617.31
582.26	1645.40
582.42	1689.87
582.58	1879.45
582.74	1994.14
582.90	1970.73
583.06	2176.70
583.22	2129.89
583.38	2335.85
583.54	2307.77
583.70	2228.19
583.86	2246.91
584.02	2169.68
584.18	2165.00
584.34	2036.27
584.50	2085.42
584.66	2071.37
584.82	1802.21
584.98	1799.87
585.14	1715.61
585.30	1666.46
585.46	1785.83
585.62	1654.76
585.78	1657.10
585.94	1682.85
586.10	1706.25
586.26	1694.55
586.42	1963.71
586.58	2165.00
586.74	2637.78
586.90	3056.74
587.06	3461.65
587.22	3620.81
587.38	3330.58
587.54	3063.76
587.70	2750.13
587.86	2469.27
588.02	2228.19
588.18	2015.20
588.34	1849.02
588.49	1685.19
588.65	1689.87
588.81	1500.28
588.97	1474.54
589.13	1420.71
589.29	1519.01
589.45	1530.71
589.61	1465.18
589.77	1474.54
589.93	1497.94
590.08	1401.98
590.24	1432.41
590.40	1458.15
590.56	1392.62
590.72	1385.60
590.88	1378.58
591.04	1284.95
591.20	1266.23
591.35	1315.38
591.51	1380.92
591.67	1245.16
591.83	1359.85
591.99	1519.01
592.15	1629.01
592.31	1696.89
592.46	1769.44
592.62	2097.12
592.78	2069.03
592.94	2106.48
593.10	2129.89
593.26	1944.99
593.41	1839.66
593.57	1746.04
593.73	1511.99
593.89	1448.79
594.05	1203.04
594.20	1069.62
594.36	968.98
594.52	891.74
594.68	908.13
594.84	882.38
594.99	835.57
595.15	767.70
595.31	788.76
595.47	767.70
595.62	823.87
595.78	781.74
595.94	812.17
596.10	805.14
596.25	821.53
596.41	744.29
596.57	800.46
596.73	793.44
596.88	786.42
597.04	800.46
597.20	788.76
597.36	826.21
597.51	755.99
597.67	739.61
597.83	842.59
597.99	959.62
598.14	903.45
598.30	990.05
598.46	1050.90
598.61	1109.41
598.77	1231.12
598.93	1303.68
599.09	1228.78
599.24	1259.21
599.40	1275.59
599.56	1252.19
599.71	1291.98
599.87	1174.95
600.03	1158.57
600.18	1076.65
600.34	1001.75
600.50	898.77
600.65	936.21
600.81	868.34
600.97	732.59
601.12	704.50
601.28	678.76
601.44	683.44
601.59	650.67
601.75	594.50
601.91	491.51
602.06	557.05
602.22	655.35
602.37	547.69
602.53	608.54
602.69	589.82
602.84	538.32
603.00	535.98
603.16	540.66
603.31	543.00
603.47	540.66
603.62	580.45
603.78	613.22
603.94	629.60
604.09	587.47
604.25	631.94
604.40	690.46
604.56	690.46
604.71	634.29
604.87	622.58
605.03	688.12
605.18	669.39
605.34	734.93
605.49	706.84
605.65	676.41
605.80	653.01
605.96	739.61
606.12	788.76
606.27	767.70
606.43	835.57
606.58	795.78
606.74	903.45
606.89	929.19
607.05	952.60
607.20	964.30
607.36	1046.22
607.51	1125.80
607.67	1111.75
607.82	1210.06
607.98	1364.53
608.13	1362.19
608.29	1411.34
608.44	1664.12
608.60	1659.44
608.75	1870.09
608.91	2059.67
609.06	2146.27
609.22	2476.29
609.37	2672.89
609.53	2974.82
609.68	3335.26
609.84	3808.05
609.99	4470.42
610.15	5132.79
610.30	6450.52
610.46	8023.36
610.61	10597.95
610.76	13767.03
610.92	17476.78
611.07	19564.54
611.23	20528.84
611.38	18963.02
611.54	17167.83
611.69	14361.53
611.84	11763.53
612.00	9713.22
612.15	8131.02
612.31	7300.13
612.46	6614.35
612.62	6050.28
612.77	5713.25
612.92	5469.83
613.08	5071.94
613.23	4924.49
613.39	4601.49
613.54	4535.96
613.69	4437.66
613.85	4458.72
614.00	4264.46
614.15	4198.92
614.31	4147.43
614.46	4313.61
614.62	4074.87
614.77	3997.64
614.92	3686.34
615.08	3393.78
615.23	3073.12
615.38	3019.29
615.54	2764.17
615.69	2448.20
615.84	2406.07
616.00	2174.36
616.15	2036.27
616.30	1928.60
616.46	1865.41
616.61	1753.06
616.76	1696.89
616.92	1769.44
617.07	1640.72
617.22	1596.25
617.37	1643.06
617.53	1465.18
617.68	1453.47
617.83	1385.60
617.99	1455.81
618.14	1359.85
618.29	1287.29
618.45	1397.30
618.60	1434.75
618.75	1303.68
618.90	1404.32
619.06	1462.83
619.21	1533.05
619.36	1547.09
619.51	1474.54
619.67	1488.58
619.82	1570.50
619.97	1727.32
620.12	1720.29
620.28	1673.48
620.43	1673.48
620.58	1671.14
620.73	1563.48
620.89	1617.31
621.04	1610.29
621.19	1575.18
621.34	1572.84
621.49	1451.13
621.65	1472.20
621.80	1465.18
621.95	1397.30
622.10	1453.47
622.25	1409.00
622.41	1341.13
622.56	1310.70
622.71	1317.72
622.86	1266.23
623.01	1174.95
623.16	1284.95
623.32	1294.32
623.47	1313.04
623.62	1266.23
623.77	1296.66
623.92	1210.06
624.07	1231.12
624.23	1144.52
624.38	1191.33
624.53	1170.27
624.68	1252.19
624.83	1256.87
624.98	1203.04
625.13	1114.10
625.29	1184.31
625.44	1128.14
625.59	1018.13
625.74	976.00
625.89	1043.88
626.04	1015.79
626.19	994.73
626.34	1062.60
626.49	999.41
626.65	1006.43
626.80	1053.24
626.95	978.34
627.10	992.39
627.25	959.62
627.40	1020.47
627.55	1006.43
627.70	940.90
627.85	992.39
628.00	990.05
628.15	1064.94
628.30	922.17
628.45	1027.50
628.60	971.32
628.76	1001.75
628.91	1086.01
629.06	1027.50
629.21	1036.86
629.36	1125.80
629.51	1121.12
629.66	1184.31
629.81	1259.21
629.96	1446.45
630.11	1519.01
630.26	1708.59
630.41	1687.53
630.56	2022.22
630.71	2230.53
630.86	2284.36
631.01	2246.91
631.16	2015.20
631.31	1900.52
631.46	1617.31
631.61	1409.00
631.76	1294.32
631.91	926.85
632.06	931.53
632.21	695.14
632.36	610.88
632.51	582.79
632.66	559.39
632.81	454.06
632.96	524.28
633.10	498.53
633.25	435.34
633.40	414.27
633.55	402.57
633.70	447.04
633.85	451.72
634.00	393.21
634.15	353.42
634.30	402.57
634.45	374.49
634.60	351.08
634.75	383.85
634.90	360.44
635.05	294.91
635.19	447.04
635.34	393.21
635.49	341.72
635.64	362.78
635.79	440.02
635.94	421.30
636.09	374.49
636.24	299.59
636.39	318.31
636.53	330.02
636.68	376.83
636.83	348.74
636.98	416.62
637.13	304.27
637.28	320.65
637.43	376.83
637.57	276.18
637.72	346.40
637.87	259.80
638.02	264.48
638.17	327.68
638.32	304.27
638.46	290.23
638.61	325.33
638.76	278.52
638.91	280.86
639.06	297.25
639.20	308.95
639.35	339.38
639.50	322.99
639.65	280.86
639.80	273.84
639.94	362.78
640.09	397.89
640.24	330.02
640.39	315.97
640.54	273.84
640.68	313.63
640.83	423.64
640.98	236.39
641.13	243.42
641.27	294.91
641.42	294.91
641.57	248.10
641.72	278.52
641.86	355.76
642.01	285.55
642.16	308.95
642.31	222.35
642.45	283.20
642.60	271.50
642.75	299.59
642.90	280.86
643.04	273.84
643.19	278.52
643.34	304.27
643.48	327.68
643.63	308.95
643.78	299.59
643.93	386.19
644.07	311.29
644.22	269.16
644.37	290.23
644.51	294.91
644.66	388.53
644.81	308.95
644.95	341.72
645.10	330.02
645.25	306.61
645.39	311.29
645.54	250.44
645.69	346.40
645.83	397.89
645.98	372.15
646.13	351.08
646.27	273.84
646.42	243.42
646.57	301.93
646.71	201.29
646.86	308.95
647.00	294.91
647.15	285.55
647.30	280.86
647.44	322.99
647.59	245.76
647.74	241.08
647.88	278.52
648.03	238.73
648.17	322.99
648.32	290.23
648.47	234.05
648.61	322.99
648.76	262.14
648.90	243.42
649.05	381.51
649.20	304.27
649.34	353.42
649.49	355.76
649.63	397.89
649.78	423.64
649.92	493.85
650.07	585.13
650.21	603.86
650.36	748.97
650.51	706.84
650.65	676.41
650.80	697.48
650.94	613.22
651.09	458.74
651.23	411.93
651.38	414.27
651.52	402.57
651.67	414.27
651.81	341.72
651.96	390.87
652.10	386.19
652.25	353.42
652.39	271.50
652.54	311.29
652.68	306.61
652.83	418.96
652.97	430.66
653.12	418.96
653.26	367.46
653.41	393.21
653.55	425.98
653.70	318.31
653.84	273.84
653.99	365.12
654.13	259.80
654.27	276.18
654.42	243.42
654.56	320.65
654.71	306.61
654.85	250.44
655.00	271.50
655.14	255.12
655.29	205.97
655.43	290.23
655.57	276.18
655.72	229.37
655.86	217.67
656.01	241.08
656.15	234.05
656.30	306.61
656.44	245.76
656.58	234.05
656.73	224.69
656.87	276.18
657.01	238.73
657.16	304.27
657.30	313.63
657.45	362.78
657.59	252.78
657.73	266.82
657.88	290.23
658.02	299.59
658.16	351.08
658.31	264.48
658.45	283.20
658.60	294.91
658.74	222.35
658.88	236.39
659.03	241.08
659.17	250.44
659.31	191.92
659.46	273.84
659.60	252.78
659.74	205.97
659.89	175.54
660.03	205.97
660.17	236.39
660.32	217.67
660.46	245.76
660.60	252.78
660.74	262.14
660.89	217.67
661.03	264.48
661.17	250.44
661.32	212.99
661.46	297.25
661.60	346.40
661.74	308.95
661.89	395.55
662.03	400.23
662.17	463.43
662.31	447.04
662.46	535.98
662.60	433.00
662.74	381.51
662.88	390.87
663.03	304.27
663.17	376.83
663.31	297.25
663.45	322.99
663.60	285.55
663.74	250.44
663.88	269.16
664.02	262.14
664.17	308.95
664.31	220.01
664.45	264.48
664.59	205.97
664.73	311.29
664.88	297.25
665.02	198.95
665.16	238.73
665.30	341.72
665.44	313.63
665.59	245.76
665.73	161.50
665.87	227.03
666.01	266.82
666.15	224.69
666.29	205.97
666.44	337.04
666.58	337.04
666.72	222.35
666.86	266.82
667.00	227.03
667.14	215.33
667.28	276.18
667.43	205.97
667.57	262.14
667.71	236.39
667.85	238.73
667.99	315.97
668.13	259.80
668.27	264.48
668.41	243.42
668.56	208.31
668.70	308.95
668.84	259.80
668.98	220.01
669.12	205.97
669.26	201.29
669.40	365.12
669.54	205.97
669.68	271.50
669.82	224.69
669.96	229.37
670.10	212.99
670.25	269.16
670.39	271.50
670.53	189.58
670.67	234.05
670.81	210.65
670.95	245.76
671.09	248.10
671.23	259.80
671.37	292.57
671.51	191.92
671.65	262.14
671.79	224.69
671.93	177.88
672.07	238.73
672.21	285.55
672.35	250.44
672.49	203.63
672.63	184.90
672.77	205.97
672.91	236.39
673.05	252.78
673.19	152.13
673.33	259.80
673.47	205.97
673.61	205.97
673.75	156.82
673.89	182.56
674.03	194.26
674.17	224.69
674.31	182.56
674.45	173.20
674.59	196.60
674.73	163.84
674.87	166.18
675.01	236.39
675.15	163.84
675.29	203.63
675.43	203.63
675.56	259.80
675.70	250.44
675.84	212.99
675.98	241.08
676.12	273.84
676.26	159.16
676.40	161.50
676.54	187.24
676.68	173.20
676.82	224.69
676.96	203.63
677.10	250.44
677.23	208.31
677.37	168.52
677.51	252.78
677.65	224.69
677.79	320.65
677.93	220.01
678.07	229.37
678.21	187.24
678.34	217.67
678.48	210.65
678.62	262.14
678.76	201.29
678.90	243.42
679.04	212.99
679.18	266.82
679.31	177.88
679.45	154.48
679.59	212.99
679.73	238.73
679.87	201.29
680.00	152.13
680.14	154.48
680.28	201.29
680.42	170.86
680.56	175.54
680.70	163.84
680.83	208.31
680.97	210.65
681.11	220.01
681.25	248.10
681.39	250.44
681.52	238.73
681.66	217.67
681.80	255.12
681.94	187.24
682.07	215.33
682.21	245.76
682.35	210.65
682.49	187.24
682.62	210.65
682.76	187.24
682.90	212.99
683.04	259.80
683.17	173.20
683.31	255.12
683.45	173.20
683.59	114.69
683.72	170.86
683.86	278.52
684.00	154.48
684.13	278.52
684.27	159.16
684.41	203.63
684.55	208.31
684.68	180.22
684.82	74.90
684.96	215.33
685.09	208.31
685.23	79.58
685.37	182.56
685.50	201.29
685.64	163.84
685.78	170.86
685.91	222.35
686.05	180.22
686.19	126.39
686.32	198.95
686.46	217.67
686.60	147.45
686.73	252.78
686.87	276.18
687.01	161.50
687.14	283.20
687.28	287.89
687.42	266.82
687.55	231.71
687.69	358.10
687.82	208.31
687.96	290.23
688.10	322.99
688.23	238.73
688.37	266.82
688.50	236.39
688.64	259.80
688.78	208.31
688.91	168.52
689.05	196.60
689.18	175.54
689.32	159.16
689.46	201.29
689.59	175.54
689.73	217.67
689.86	180.22
690.00	222.35
690.13	152.13
690.27	105.32
690.41	180.22
690.54	189.58
690.68	191.92
690.81	198.95
690.95	245.76
691.08	184.90
691.22	142.77
691.35	149.79
691.49	182.56
691.62	124.05
691.76	140.43
691.89	182.56
692.03	112.35
692.16	173.20
692.30	168.52
692.43	191.92
692.57	126.39
692.70	194.26
692.84	175.54
692.97	166.18
693.11	138.09
693.24	168.52
693.38	245.76
693.51	231.71
693.65	257.46
693.78	257.46
693.92	248.10
694.05	215.33
694.19	238.73
694.32	196.60
694.45	224.69
694.59	187.24
694.72	173.20
694.86	135.75
694.99	236.39
695.13	189.58
695.26	238.73
695.39	126.39
695.53	205.97
695.66	67.88
695.80	231.71
695.93	133.41
696.07	170.86
696.20	163.84
696.33	184.90
696.47	138.09
696.60	126.39
696.73	208.31
696.87	131.07
697.00	224.69
697.14	147.45
697.27	119.37
697.40	191.92
697.54	93.62
697.67	107.66
697.80	177.88
697.94	119.37
698.07	100.64
698.21	154.48
698.34	259.80
698.47	135.75
698.61	154.48
698.74	88.94
698.87	168.52
699.01	77.24
699.14	138.09
699.27	170.86
699.40	231.71
699.54	138.09
699.67	102.98
699.80	149.79
699.94	112.35
700.07	114.69
700.20	140.43
700.34	102.98
700.47	145.11
700.60	107.66
700.73	152.13
700.87	217.67
701.00	126.39
701.13	133.41
701.26	110.01
701.40	184.90
701.53	196.60
701.66	91.28
701.79	145.11
701.93	119.37
702.06	140.43
702.19	156.82
702.32	215.33
702.46	142.77
702.59	56.17
702.72	98.30
702.85	156.82
702.99	161.50
703.12	124.05
703.25	114.69
703.38	159.16
703.51	138.09
703.65	168.52
703.78	117.03
703.91	203.63
704.04	222.35
704.17	187.24
704.31	145.11
704.44	217.67
704.57	196.60
704.70	163.84
704.83	161.50
704.96	180.22
705.10	198.95
705.23	142.77
>>>>>End Processed Spectral Data<<<<<
