SpectraSuite Data File
++++++++++++++++++++++++++++++++++++
Date: Fri Oct 04 11:42:04 GMT-05:00 2013
User: price-jones
Dark Spectrum Present: No
Reference Spectrum Present: No
Number of Sampled Component Spectra: 1
Spectrometers: USB2+H05261
Integration Time (usec): 100000 (USB2+H05261)
Spectra Averaged: 1 (USB2+H05261)
Boxcar Smoothing: 0 (USB2+H05261)
Correct for Electrical Dark: No (USB2+H05261)
Strobe/Lamp Enabled: No (USB2+H05261)
Correct for Detector Non-linearity: No (USB2+H05261)
Correct for Stray Light: No (USB2+H05261)
Number of Pixels in Processed Spectrum: 2048
>>>>>Begin Processed Spectral Data<<<<<
365.73	88.94
365.92	88.94
366.12	88.94
366.32	0.00
366.52	0.00
366.72	0.00
366.91	0.00
367.11	0.00
367.31	0.00
367.51	0.00
367.70	0.00
367.90	0.00
368.10	0.00
368.30	23.41
368.49	0.00
368.69	0.00
368.89	0.00
369.09	0.00
369.28	39.79
369.48	0.00
369.68	44.47
369.87	86.60
370.07	0.00
370.27	23.41
370.47	0.00
370.66	0.00
370.86	7.02
371.06	91.28
371.25	81.92
371.45	53.83
371.65	105.32
371.84	4.68
372.04	74.90
372.24	93.62
372.44	133.41
372.63	77.24
372.83	191.92
373.03	98.30
373.22	98.30
373.42	138.09
373.62	128.73
373.81	177.88
374.01	126.39
374.21	140.43
374.40	98.30
374.60	159.16
374.79	145.11
374.99	147.45
375.19	102.98
375.38	112.35
375.58	102.98
375.78	175.54
375.97	128.73
376.17	154.48
376.37	126.39
376.56	166.18
376.76	88.94
376.95	126.39
377.15	63.19
377.35	149.79
377.54	107.66
377.74	133.41
377.93	110.01
378.13	152.13
378.33	147.45
378.52	110.01
378.72	135.75
378.91	191.92
379.11	145.11
379.31	131.07
379.50	135.75
379.70	133.41
379.89	98.30
380.09	86.60
380.28	77.24
380.48	147.45
380.68	149.79
380.87	173.20
381.07	147.45
381.26	112.35
381.46	102.98
381.65	131.07
381.85	107.66
382.04	161.50
382.24	126.39
382.43	126.39
382.63	105.32
382.83	133.41
383.02	156.82
383.22	173.20
383.41	175.54
383.61	88.94
383.80	88.94
384.00	124.05
384.19	93.62
384.39	119.37
384.58	128.73
384.78	149.79
384.97	159.16
385.17	91.28
385.36	110.01
385.56	170.86
385.75	65.54
385.95	93.62
386.14	119.37
386.34	180.22
386.53	121.71
386.72	98.30
386.92	133.41
387.11	88.94
387.31	168.52
387.50	91.28
387.70	154.48
387.89	93.62
388.09	105.32
388.28	131.07
388.48	121.71
388.67	105.32
388.86	121.71
389.06	112.35
389.25	107.66
389.45	133.41
389.64	121.71
389.84	177.88
390.03	163.84
390.22	84.26
390.42	133.41
390.61	161.50
390.81	163.84
391.00	98.30
391.19	187.24
391.39	156.82
391.58	49.15
391.78	166.18
391.97	110.01
392.16	170.86
392.36	166.18
392.55	154.48
392.75	126.39
392.94	138.09
393.13	154.48
393.33	102.98
393.52	124.05
393.71	140.43
393.91	110.01
394.10	102.98
394.29	203.63
394.49	149.79
394.68	145.11
394.88	112.35
395.07	128.73
395.26	95.96
395.46	102.98
395.65	154.48
395.84	133.41
396.04	166.18
396.23	154.48
396.42	194.26
396.62	142.77
396.81	95.96
397.00	170.86
397.19	140.43
397.39	93.62
397.58	121.71
397.77	128.73
397.97	168.52
398.16	152.13
398.35	145.11
398.55	163.84
398.74	175.54
398.93	140.43
399.12	126.39
399.32	191.92
399.51	133.41
399.70	117.03
399.90	126.39
400.09	102.98
400.28	184.90
400.47	196.60
400.67	222.35
400.86	133.41
401.05	177.88
401.24	187.24
401.44	166.18
401.63	117.03
401.82	191.92
402.01	182.56
402.21	170.86
402.40	121.71
402.59	145.11
402.78	154.48
402.97	112.35
403.17	222.35
403.36	133.41
403.55	138.09
403.74	159.16
403.93	248.10
404.13	337.04
404.32	320.65
404.51	250.44
404.70	269.16
404.89	168.52
405.09	170.86
405.28	121.71
405.47	138.09
405.66	145.11
405.85	175.54
406.05	152.13
406.24	124.05
406.43	170.86
406.62	154.48
406.81	285.55
407.00	124.05
407.20	163.84
407.39	145.11
407.58	166.18
407.77	182.56
407.96	222.35
408.15	180.22
408.34	133.41
408.54	215.33
408.73	135.75
408.92	159.16
409.11	119.37
409.30	194.26
409.49	145.11
409.68	166.18
409.87	203.63
410.07	191.92
410.26	203.63
410.45	166.18
410.64	152.13
410.83	173.20
411.02	198.95
411.21	145.11
411.40	196.60
411.59	266.82
411.78	262.14
411.98	177.88
412.17	145.11
412.36	163.84
412.55	138.09
412.74	142.77
412.93	231.71
413.12	166.18
413.31	168.52
413.50	124.05
413.69	140.43
413.88	222.35
414.07	212.99
414.26	163.84
414.45	182.56
414.64	243.42
414.83	234.05
415.02	210.65
415.22	243.42
415.41	236.39
415.60	102.98
415.79	187.24
415.98	177.88
416.17	220.01
416.36	184.90
416.55	177.88
416.74	234.05
416.93	212.99
417.12	175.54
417.31	161.50
417.50	201.29
417.69	224.69
417.88	177.88
418.07	133.41
418.26	180.22
418.45	117.03
418.64	173.20
418.83	173.20
419.02	163.84
419.21	234.05
419.39	224.69
419.58	145.11
419.77	114.69
419.96	248.10
420.15	236.39
420.34	229.37
420.53	208.31
420.72	208.31
420.91	189.58
421.10	231.71
421.29	177.88
421.48	217.67
421.67	224.69
421.86	184.90
422.05	182.56
422.24	196.60
422.43	170.86
422.61	196.60
422.80	227.03
422.99	159.16
423.18	173.20
423.37	198.95
423.56	138.09
423.75	156.82
423.94	194.26
424.13	175.54
424.32	180.22
424.50	203.63
424.69	196.60
424.88	184.90
425.07	180.22
425.26	210.65
425.45	241.08
425.64	224.69
425.83	170.86
426.01	201.29
426.20	236.39
426.39	201.29
426.58	163.84
426.77	133.41
426.96	210.65
427.15	203.63
427.33	196.60
427.52	128.73
427.71	234.05
427.90	205.97
428.09	166.18
428.28	168.52
428.46	210.65
428.65	222.35
428.84	215.33
429.03	196.60
429.22	205.97
429.40	229.37
429.59	135.75
429.78	175.54
429.97	126.39
430.16	229.37
430.34	170.86
430.53	149.79
430.72	149.79
430.91	154.48
431.10	119.37
431.28	168.52
431.47	203.63
431.66	189.58
431.85	173.20
432.03	238.73
432.22	189.58
432.41	308.95
432.60	278.52
432.79	203.63
432.97	191.92
433.16	180.22
433.35	212.99
433.54	236.39
433.72	234.05
433.91	177.88
434.10	236.39
434.28	283.20
434.47	276.18
434.66	337.04
434.85	231.71
435.03	381.51
435.22	634.29
435.41	1057.92
435.59	1088.35
435.78	858.98
435.97	543.00
436.16	322.99
436.34	245.76
436.53	191.92
436.72	241.08
436.90	266.82
437.09	255.12
437.28	243.42
437.46	222.35
437.65	273.84
437.84	266.82
438.02	243.42
438.21	238.73
438.40	166.18
438.58	259.80
438.77	243.42
438.96	278.52
439.14	215.33
439.33	220.01
439.52	194.26
439.70	248.10
439.89	180.22
440.08	227.03
440.26	238.73
440.45	308.95
440.63	229.37
440.82	156.82
441.01	264.48
441.19	201.29
441.38	231.71
441.57	215.33
441.75	229.37
441.94	297.25
442.12	215.33
442.31	196.60
442.50	175.54
442.68	173.20
442.87	259.80
443.05	243.42
443.24	308.95
443.43	224.69
443.61	294.91
443.80	325.33
443.98	269.16
444.17	208.31
444.35	280.86
444.54	187.24
444.73	255.12
444.91	287.89
445.10	189.58
445.28	177.88
445.47	243.42
445.65	182.56
445.84	234.05
446.02	266.82
446.21	159.16
446.39	229.37
446.58	227.03
446.77	227.03
446.95	276.18
447.14	264.48
447.32	262.14
447.51	238.73
447.69	187.24
447.88	238.73
448.06	262.14
448.25	220.01
448.43	243.42
448.62	201.29
448.80	156.82
448.99	266.82
449.17	215.33
449.36	236.39
449.54	259.80
449.73	187.24
449.91	245.76
450.10	241.08
450.28	285.55
450.46	287.89
450.65	248.10
450.83	224.69
451.02	238.73
451.20	198.95
451.39	222.35
451.57	201.29
451.76	259.80
451.94	180.22
452.13	166.18
452.31	285.55
452.49	217.67
452.68	203.63
452.86	234.05
453.05	325.33
453.23	259.80
453.42	212.99
453.60	301.93
453.78	215.33
453.97	229.37
454.15	227.03
454.34	191.92
454.52	234.05
454.70	264.48
454.89	290.23
455.07	201.29
455.26	271.50
455.44	269.16
455.62	224.69
455.81	266.82
455.99	313.63
456.17	222.35
456.36	271.50
456.54	236.39
456.73	180.22
456.91	290.23
457.09	315.97
457.28	257.46
457.46	231.71
457.64	248.10
457.83	248.10
458.01	236.39
458.19	238.73
458.38	220.01
458.56	290.23
458.74	245.76
458.93	205.97
459.11	318.31
459.29	168.52
459.48	290.23
459.66	255.12
459.84	259.80
460.03	294.91
460.21	264.48
460.39	229.37
460.57	304.27
460.76	306.61
460.94	255.12
461.12	325.33
461.31	280.86
461.49	358.10
461.67	187.24
461.85	205.97
462.04	358.10
462.22	702.16
462.40	304.27
462.59	276.18
462.77	212.99
462.95	271.50
463.13	250.44
463.32	285.55
463.50	297.25
463.68	229.37
463.86	231.71
464.05	175.54
464.23	259.80
464.41	224.69
464.59	217.67
464.78	269.16
464.96	217.67
465.14	245.76
465.32	229.37
465.50	180.22
465.69	283.20
465.87	203.63
466.05	208.31
466.23	224.69
466.41	259.80
466.60	245.76
466.78	114.69
466.96	280.86
467.14	191.92
467.32	330.02
467.51	245.76
467.69	234.05
467.87	264.48
468.05	212.99
468.23	299.59
468.41	227.03
468.60	198.95
468.78	280.86
468.96	320.65
469.14	271.50
469.32	241.08
469.50	262.14
469.69	278.52
469.87	311.29
470.05	222.35
470.23	271.50
470.41	180.22
470.59	180.22
470.77	273.84
470.95	159.16
471.14	306.61
471.32	175.54
471.50	294.91
471.68	196.60
471.86	245.76
472.04	236.39
472.22	212.99
472.40	229.37
472.58	234.05
472.77	175.54
472.95	220.01
473.13	245.76
473.31	285.55
473.49	257.46
473.67	280.86
473.85	344.06
474.03	271.50
474.21	276.18
474.39	266.82
474.57	339.38
474.75	243.42
474.93	238.73
475.12	231.71
475.30	250.44
475.48	287.89
475.66	241.08
475.84	222.35
476.02	201.29
476.20	238.73
476.38	241.08
476.56	327.68
476.74	255.12
476.92	285.55
477.10	264.48
477.28	315.97
477.46	308.95
477.64	250.44
477.82	231.71
478.00	358.10
478.18	217.67
478.36	341.72
478.54	248.10
478.72	222.35
478.90	318.31
479.08	297.25
479.26	376.83
479.44	252.78
479.62	285.55
479.80	332.36
479.98	248.10
480.16	278.52
480.34	301.93
480.52	308.95
480.70	304.27
480.88	290.23
481.06	262.14
481.24	273.84
481.41	355.76
481.59	341.72
481.77	369.80
481.95	332.36
482.13	386.19
482.31	339.38
482.49	337.04
482.67	304.27
482.85	351.08
483.03	407.25
483.21	287.89
483.39	339.38
483.57	337.04
483.74	376.83
483.92	318.31
484.10	348.74
484.28	292.57
484.46	402.57
484.64	360.44
484.82	372.15
485.00	337.04
485.18	341.72
485.35	400.23
485.53	376.83
485.71	418.96
485.89	318.31
486.07	381.51
486.25	503.22
486.43	411.93
486.61	339.38
486.78	383.85
486.96	360.44
487.14	416.62
487.32	358.10
487.50	358.10
487.68	416.62
487.85	365.12
488.03	430.66
488.21	437.68
488.39	477.47
488.57	395.55
488.75	381.51
488.92	620.24
489.10	381.51
489.28	491.51
489.46	395.55
489.64	430.66
489.81	444.70
489.99	437.68
490.17	390.87
490.35	454.06
490.53	456.40
490.70	388.53
490.88	421.30
491.06	433.00
491.24	449.38
491.41	468.11
491.59	423.64
491.77	404.91
491.95	360.44
492.13	425.98
492.30	337.04
492.48	386.19
492.66	346.40
492.84	423.64
493.01	479.81
493.19	381.51
493.37	449.38
493.54	428.32
493.72	411.93
493.90	337.04
494.08	416.62
494.25	395.55
494.43	400.23
494.61	383.85
494.79	433.00
494.96	360.44
495.14	327.68
495.32	393.21
495.49	379.17
495.67	367.46
495.85	404.91
496.02	425.98
496.20	409.59
496.38	395.55
496.55	362.78
496.73	428.32
496.91	400.23
497.09	454.06
497.26	475.13
497.44	444.70
497.62	454.06
497.79	360.44
497.97	334.70
498.14	407.25
498.32	334.70
498.50	308.95
498.67	367.46
498.85	381.51
499.03	423.64
499.20	395.55
499.38	433.00
499.56	397.89
499.73	294.91
499.91	372.15
500.08	376.83
500.26	409.59
500.44	416.62
500.61	468.11
500.79	348.74
500.97	416.62
501.14	376.83
501.32	346.40
501.49	355.76
501.67	334.70
501.84	348.74
502.02	374.49
502.20	433.00
502.37	367.46
502.55	416.62
502.72	341.72
502.90	388.53
503.07	374.49
503.25	358.10
503.43	315.97
503.60	330.02
503.78	395.55
503.95	351.08
504.13	341.72
504.30	411.93
504.48	367.46
504.65	456.40
504.83	372.15
505.01	339.38
505.18	397.89
505.36	358.10
505.53	306.61
505.71	376.83
505.88	423.64
506.06	390.87
506.23	418.96
506.41	334.70
506.58	348.74
506.76	428.32
506.93	322.99
507.11	404.91
507.28	383.85
507.46	414.27
507.63	400.23
507.81	386.19
507.98	369.80
508.16	383.85
508.33	381.51
508.50	421.30
508.68	402.57
508.85	400.23
509.03	367.46
509.20	388.53
509.38	360.44
509.55	454.06
509.73	332.36
509.90	346.40
510.08	428.32
510.25	390.87
510.42	397.89
510.60	430.66
510.77	334.70
510.95	355.76
511.12	376.83
511.30	454.06
511.47	404.91
511.64	416.62
511.82	395.55
511.99	376.83
512.17	444.70
512.34	400.23
512.51	411.93
512.69	388.53
512.86	383.85
513.04	344.06
513.21	428.32
513.38	372.15
513.56	393.21
513.73	386.19
513.90	402.57
514.08	423.64
514.25	409.59
514.43	386.19
514.60	318.31
514.77	337.04
514.95	465.77
515.12	388.53
515.29	472.79
515.47	425.98
515.64	372.15
515.81	475.13
515.99	411.93
516.16	437.68
516.33	304.27
516.51	311.29
516.68	318.31
516.85	344.06
517.03	330.02
517.20	360.44
517.37	374.49
517.54	407.25
517.72	416.62
517.89	360.44
518.06	337.04
518.24	440.02
518.41	437.68
518.58	327.68
518.75	341.72
518.93	407.25
519.10	407.25
519.27	437.68
519.45	428.32
519.62	372.15
519.79	463.43
519.96	411.93
520.14	367.46
520.31	393.21
520.48	388.53
520.65	416.62
520.83	397.89
521.00	423.64
521.17	358.10
521.34	404.91
521.52	433.00
521.69	409.59
521.86	400.23
522.03	430.66
522.20	458.74
522.38	306.61
522.55	388.53
522.72	362.78
522.89	402.57
523.07	433.00
523.24	381.51
523.41	367.46
523.58	400.23
523.75	435.34
523.92	409.59
524.10	414.27
524.27	362.78
524.44	421.30
524.61	376.83
524.78	393.21
524.96	407.25
525.13	402.57
525.30	437.68
525.47	395.55
525.64	379.17
525.81	362.78
525.98	423.64
526.16	390.87
526.33	332.36
526.50	355.76
526.67	425.98
526.84	346.40
527.01	346.40
527.18	386.19
527.36	404.91
527.53	339.38
527.70	362.78
527.87	416.62
528.04	418.96
528.21	344.06
528.38	472.79
528.55	362.78
528.72	437.68
528.89	442.36
529.07	346.40
529.24	379.17
529.41	423.64
529.58	430.66
529.75	372.15
529.92	414.27
530.09	428.32
530.26	458.74
530.43	327.68
530.60	440.02
530.77	374.49
530.94	468.11
531.11	395.55
531.28	383.85
531.46	395.55
531.63	449.38
531.80	351.08
531.97	372.15
532.14	346.40
532.31	430.66
532.48	442.36
532.65	414.27
532.82	416.62
532.99	423.64
533.16	404.91
533.33	437.68
533.50	468.11
533.67	428.32
533.84	468.11
534.01	397.89
534.18	458.74
534.35	444.70
534.52	440.02
534.69	514.92
534.86	451.72
535.03	374.49
535.20	454.06
535.37	557.05
535.54	451.72
535.71	440.02
535.88	482.15
536.05	407.25
536.22	444.70
536.38	362.78
536.55	433.00
536.72	470.45
536.89	503.22
537.06	458.74
537.23	510.24
537.40	554.71
537.57	538.32
537.74	580.45
537.91	491.51
538.08	561.73
538.25	564.07
538.42	498.53
538.59	587.47
538.75	603.86
538.92	575.77
539.09	585.13
539.26	627.26
539.43	627.26
539.60	610.88
539.77	608.54
539.94	695.14
540.11	753.65
540.28	770.04
540.44	788.76
540.61	798.12
540.78	968.98
540.95	983.02
541.12	1165.59
541.29	1086.01
541.46	1313.04
541.62	1306.02
541.79	1273.25
541.96	1188.99
542.13	1135.16
542.30	1226.44
542.47	1156.22
542.63	1114.10
542.80	1111.75
542.97	1193.67
543.14	1048.56
543.31	1128.14
543.48	1149.20
543.64	1203.04
543.81	1062.60
543.98	1086.01
544.15	1086.01
544.32	1032.18
544.48	1078.99
544.65	1057.92
544.82	1034.52
544.99	1029.84
545.16	1116.44
545.32	1102.39
545.49	1668.80
545.66	2431.82
545.83	2944.39
546.00	2567.57
546.16	1842.00
546.33	1418.36
546.50	1193.67
546.67	1027.50
546.83	929.19
547.00	854.30
547.17	891.74
547.34	840.25
547.50	798.12
547.67	802.80
547.84	772.38
548.00	716.20
548.17	805.14
548.34	671.73
548.51	833.23
548.67	837.91
548.84	739.61
549.01	753.65
549.18	683.44
549.34	697.48
549.51	704.50
549.68	718.54
549.84	671.73
550.01	610.88
550.18	678.76
550.34	660.03
550.51	627.26
550.68	629.60
550.84	510.24
551.01	514.92
551.18	592.16
551.34	559.39
551.51	526.62
551.68	524.28
551.84	571.09
552.01	484.49
552.18	554.71
552.34	496.19
552.51	601.52
552.68	528.96
552.84	484.49
553.01	559.39
553.18	510.24
553.34	475.13
553.51	486.83
553.67	510.24
553.84	550.03
554.01	472.79
554.17	468.11
554.34	411.93
554.51	505.56
554.67	491.51
554.84	437.68
555.00	451.72
555.17	414.27
555.33	458.74
555.50	411.93
555.67	374.49
555.83	388.53
556.00	454.06
556.16	599.18
556.33	379.17
556.50	510.24
556.66	414.27
556.83	390.87
556.99	334.70
557.16	463.43
557.32	411.93
557.49	374.49
557.65	397.89
557.82	402.57
557.98	332.36
558.15	311.29
558.32	386.19
558.48	327.68
558.65	372.15
558.81	344.06
558.98	379.17
559.14	444.70
559.31	379.17
559.47	358.10
559.64	353.42
559.80	315.97
559.97	437.68
560.13	437.68
560.30	381.51
560.46	386.19
560.63	330.02
560.79	393.21
560.96	390.87
561.12	433.00
561.29	449.38
561.45	381.51
561.61	395.55
561.78	477.47
561.94	437.68
562.11	327.68
562.27	388.53
562.44	379.17
562.60	365.12
562.77	372.15
562.93	463.43
563.10	381.51
563.26	461.09
563.42	435.34
563.59	454.06
563.75	388.53
563.92	390.87
564.08	337.04
564.24	414.27
564.41	414.27
564.57	383.85
564.74	334.70
564.90	414.27
565.07	365.12
565.23	435.34
565.39	334.70
565.56	332.36
565.72	299.59
565.88	306.61
566.05	273.84
566.21	315.97
566.38	407.25
566.54	397.89
566.70	362.78
566.87	299.59
567.03	360.44
567.19	362.78
567.36	334.70
567.52	341.72
567.68	416.62
567.85	411.93
568.01	358.10
568.17	379.17
568.34	334.70
568.50	369.80
568.66	318.31
568.83	416.62
568.99	360.44
569.15	402.57
569.32	320.65
569.48	337.04
569.64	299.59
569.81	430.66
569.97	393.21
570.13	409.59
570.30	348.74
570.46	372.15
570.62	339.38
570.78	339.38
570.95	344.06
571.11	409.59
571.27	344.06
571.43	360.44
571.60	348.74
571.76	325.33
571.92	367.46
572.09	365.12
572.25	353.42
572.41	346.40
572.57	313.63
572.74	418.96
572.90	334.70
573.06	369.80
573.22	409.59
573.38	397.89
573.55	344.06
573.71	341.72
573.87	390.87
574.03	304.27
574.20	294.91
574.36	397.89
574.52	344.06
574.68	315.97
574.84	266.82
575.01	358.10
575.17	330.02
575.33	393.21
575.49	334.70
575.65	372.15
575.82	386.19
575.98	407.25
576.14	369.80
576.30	400.23
576.46	498.53
576.62	777.06
576.79	779.40
576.95	709.18
577.11	524.28
577.27	454.06
577.43	414.27
577.59	404.91
577.75	416.62
577.92	372.15
578.08	362.78
578.24	397.89
578.40	500.87
578.56	695.14
578.72	636.63
578.88	753.65
579.04	613.22
579.21	528.96
579.37	470.45
579.53	332.36
579.69	440.02
579.85	444.70
580.01	526.62
580.17	503.22
580.33	524.28
580.49	447.04
580.65	449.38
580.82	447.04
580.98	409.59
581.14	447.04
581.30	475.13
581.46	468.11
581.62	477.47
581.78	491.51
581.94	543.00
582.10	404.91
582.26	538.32
582.42	404.91
582.58	528.96
582.74	566.41
582.90	498.53
583.06	514.92
583.22	519.60
583.38	500.87
583.54	510.24
583.70	535.98
583.86	564.07
584.02	554.71
584.18	489.17
584.34	423.64
584.50	458.74
584.66	528.96
584.82	524.28
584.98	470.45
585.14	505.56
585.30	514.92
585.46	447.04
585.62	465.77
585.78	585.13
585.94	561.73
586.10	505.56
586.26	528.96
586.42	582.79
586.58	580.45
586.74	641.31
586.90	608.54
587.06	681.10
587.22	662.37
587.38	568.75
587.54	629.60
587.70	543.00
587.86	545.34
588.02	451.72
588.18	400.23
588.34	435.34
588.49	407.25
588.65	367.46
588.81	435.34
588.97	383.85
589.13	461.09
589.29	451.72
589.45	404.91
589.61	383.85
589.77	414.27
589.93	388.53
590.08	397.89
590.24	409.59
590.40	393.21
590.56	411.93
590.72	402.57
590.88	449.38
591.04	430.66
591.20	475.13
591.35	468.11
591.51	374.49
591.67	390.87
591.83	407.25
591.99	489.17
592.15	449.38
592.31	468.11
592.46	447.04
592.62	433.00
592.78	496.19
592.94	498.53
593.10	554.71
593.26	454.06
593.41	500.87
593.57	421.30
593.73	486.83
593.89	409.59
594.05	337.04
594.20	372.15
594.36	423.64
594.52	299.59
594.68	383.85
594.84	409.59
594.99	402.57
595.15	365.12
595.31	407.25
595.47	341.72
595.62	379.17
595.78	395.55
595.94	400.23
596.10	414.27
596.25	348.74
596.41	423.64
596.57	369.80
596.73	330.02
596.88	362.78
597.04	409.59
597.20	379.17
597.36	379.17
597.51	388.53
597.67	454.06
597.83	353.42
597.99	404.91
598.14	344.06
598.30	472.79
598.46	472.79
598.61	449.38
598.77	365.12
598.93	465.77
599.09	486.83
599.24	470.45
599.40	402.57
599.56	437.68
599.71	479.81
599.87	421.30
600.03	468.11
600.18	393.21
600.34	458.74
600.50	346.40
600.65	374.49
600.81	449.38
600.97	341.72
601.12	339.38
601.28	330.02
601.44	362.78
601.59	311.29
601.75	299.59
601.91	369.80
602.06	320.65
602.22	447.04
602.37	458.74
602.53	313.63
602.69	367.46
602.84	306.61
603.00	381.51
603.16	351.08
603.31	381.51
603.47	346.40
603.62	337.04
603.78	353.42
603.94	362.78
604.09	339.38
604.25	379.17
604.40	418.96
604.56	322.99
604.71	390.87
604.87	390.87
605.03	496.19
605.18	322.99
605.34	482.15
605.49	381.51
605.65	322.99
605.80	367.46
605.96	365.12
606.12	397.89
606.27	423.64
606.43	355.76
606.58	423.64
606.74	411.93
606.89	428.32
607.05	393.21
607.20	449.38
607.36	435.34
607.51	425.98
607.67	433.00
607.82	362.78
607.98	444.70
608.13	451.72
608.29	442.36
608.44	458.74
608.60	409.59
608.75	559.39
608.91	676.41
609.06	573.43
609.22	580.45
609.37	610.88
609.53	667.05
609.68	718.54
609.84	760.67
609.99	870.68
610.15	1001.75
610.30	1165.59
610.46	1411.34
610.61	1666.46
610.76	2005.84
610.92	2312.45
611.07	2572.25
611.23	2562.89
611.38	2443.52
611.54	2258.62
611.69	2012.86
611.84	1600.93
612.00	1441.77
612.15	1186.65
612.31	1088.35
612.46	1074.31
612.62	980.68
612.77	980.68
612.92	915.15
613.08	980.68
613.23	847.27
613.39	901.11
613.54	802.80
613.69	814.51
613.85	826.21
614.00	805.14
614.15	781.74
614.31	765.36
614.46	835.57
614.62	730.25
614.77	770.04
614.92	681.10
615.08	716.20
615.23	760.67
615.38	559.39
615.54	641.31
615.69	566.41
615.84	521.94
616.00	547.69
616.15	484.49
616.30	528.96
616.46	484.49
616.61	402.57
616.76	383.85
616.92	425.98
617.07	428.32
617.22	449.38
617.37	388.53
617.53	395.55
617.68	475.13
617.83	393.21
617.99	451.72
618.14	433.00
618.29	402.57
618.45	421.30
618.60	376.83
618.75	348.74
618.90	287.89
619.06	397.89
619.21	514.92
619.36	409.59
619.51	346.40
619.67	414.27
619.82	351.08
619.97	430.66
620.12	358.10
620.28	421.30
620.43	421.30
620.58	355.76
620.73	472.79
620.89	388.53
621.04	416.62
621.19	465.77
621.34	320.65
621.49	402.57
621.65	337.04
621.80	330.02
621.95	355.76
622.10	411.93
622.25	421.30
622.41	393.21
622.56	318.31
622.71	351.08
622.86	381.51
623.01	411.93
623.16	442.36
623.32	313.63
623.47	360.44
623.62	365.12
623.77	348.74
623.92	367.46
624.07	381.51
624.23	355.76
624.38	358.10
624.53	372.15
624.68	367.46
624.83	421.30
624.98	442.36
625.13	393.21
625.29	404.91
625.44	372.15
625.59	369.80
625.74	430.66
625.89	411.93
626.04	313.63
626.19	421.30
626.34	304.27
626.49	447.04
626.65	374.49
626.80	367.46
626.95	404.91
627.10	360.44
627.25	369.80
627.40	379.17
627.55	379.17
627.70	376.83
627.85	334.70
628.00	304.27
628.15	273.84
628.30	383.85
628.45	306.61
628.60	386.19
628.76	344.06
628.91	430.66
629.06	292.57
629.21	337.04
629.36	308.95
629.51	287.89
629.66	386.19
629.81	344.06
629.96	341.72
630.11	444.70
630.26	465.77
630.41	418.96
630.56	589.82
630.71	491.51
630.86	440.02
631.01	421.30
631.16	444.70
631.31	519.60
631.46	425.98
631.61	418.96
631.76	421.30
631.91	327.68
632.06	355.76
632.21	369.80
632.36	287.89
632.51	236.39
632.66	381.51
632.81	311.29
632.96	280.86
633.10	299.59
633.25	318.31
633.40	315.97
633.55	299.59
633.70	337.04
633.85	259.80
634.00	285.55
634.15	292.57
634.30	297.25
634.45	299.59
634.60	266.82
634.75	212.99
634.90	355.76
635.05	287.89
635.19	355.76
635.34	262.14
635.49	337.04
635.64	245.76
635.79	173.20
635.94	220.01
636.09	248.10
636.24	339.38
636.39	252.78
636.53	299.59
636.68	248.10
636.83	271.50
636.98	273.84
637.13	250.44
637.28	243.42
637.43	308.95
637.57	236.39
637.72	257.46
637.87	320.65
638.02	231.71
638.17	269.16
638.32	252.78
638.46	220.01
638.61	325.33
638.76	243.42
638.91	313.63
639.06	234.05
639.20	231.71
639.35	278.52
639.50	205.97
639.65	369.80
639.80	285.55
639.94	245.76
640.09	301.93
640.24	285.55
640.39	311.29
640.54	285.55
640.68	266.82
640.83	390.87
640.98	227.03
641.13	220.01
641.27	318.31
641.42	243.42
641.57	273.84
641.72	269.16
641.86	273.84
642.01	252.78
642.16	205.97
642.31	273.84
642.45	252.78
642.60	248.10
642.75	220.01
642.90	360.44
643.04	264.48
643.19	271.50
643.34	215.33
643.48	330.02
643.63	208.31
643.78	262.14
643.93	299.59
644.07	248.10
644.22	205.97
644.37	222.35
644.51	259.80
644.66	215.33
644.81	301.93
644.95	220.01
645.10	215.33
645.25	205.97
645.39	301.93
645.54	252.78
645.69	337.04
645.83	203.63
645.98	252.78
646.13	187.24
646.27	273.84
646.42	201.29
646.57	205.97
646.71	238.73
646.86	184.90
647.00	273.84
647.15	292.57
647.30	227.03
647.44	217.67
647.59	217.67
647.74	201.29
647.88	248.10
648.03	229.37
648.17	262.14
648.32	297.25
648.47	173.20
648.61	266.82
648.76	266.82
648.90	191.92
649.05	191.92
649.20	276.18
649.34	229.37
649.49	248.10
649.63	311.29
649.78	210.65
649.92	294.91
650.07	315.97
650.21	334.70
650.36	320.65
650.51	224.69
650.65	393.21
650.80	229.37
650.94	248.10
651.09	217.67
651.23	297.25
651.38	149.79
651.52	273.84
651.67	259.80
651.81	220.01
651.96	248.10
652.10	217.67
652.25	241.08
652.39	315.97
652.54	224.69
652.68	301.93
652.83	262.14
652.97	273.84
653.12	236.39
653.26	212.99
653.41	250.44
653.55	280.86
653.70	217.67
653.84	245.76
653.99	276.18
654.13	187.24
654.27	236.39
654.42	210.65
654.56	189.58
654.71	292.57
654.85	283.20
655.00	208.31
655.14	234.05
655.29	121.71
655.43	201.29
655.57	250.44
655.72	131.07
655.86	215.33
656.01	227.03
656.15	208.31
656.30	234.05
656.44	140.43
656.58	215.33
656.73	154.48
656.87	217.67
657.01	166.18
657.16	227.03
657.30	241.08
657.45	229.37
657.59	271.50
657.73	227.03
657.88	248.10
658.02	278.52
658.16	184.90
658.31	168.52
658.45	224.69
658.60	243.42
658.74	149.79
658.88	110.01
659.03	257.46
659.17	269.16
659.31	189.58
659.46	208.31
659.60	287.89
659.74	276.18
659.89	252.78
660.03	220.01
660.17	163.84
660.32	222.35
660.46	173.20
660.60	189.58
660.74	222.35
660.89	224.69
661.03	208.31
661.17	208.31
661.32	238.73
661.46	217.67
661.60	248.10
661.74	227.03
661.89	224.69
662.03	264.48
662.17	145.11
662.31	280.86
662.46	210.65
662.60	315.97
662.74	231.71
662.88	264.48
663.03	234.05
663.17	184.90
663.31	222.35
663.45	203.63
663.60	220.01
663.74	203.63
663.88	210.65
664.02	215.33
664.17	220.01
664.31	152.13
664.45	163.84
664.59	203.63
664.73	227.03
664.88	208.31
665.02	248.10
665.16	168.52
665.30	262.14
665.44	252.78
665.59	238.73
665.73	180.22
665.87	212.99
666.01	245.76
666.15	177.88
666.29	173.20
666.44	285.55
666.58	318.31
666.72	250.44
666.86	264.48
667.00	217.67
667.14	222.35
667.28	163.84
667.43	187.24
667.57	212.99
667.71	198.95
667.85	234.05
667.99	170.86
668.13	156.82
668.27	215.33
668.41	266.82
668.56	182.56
668.70	273.84
668.84	152.13
668.98	259.80
669.12	159.16
669.26	205.97
669.40	369.80
669.54	222.35
669.68	271.50
669.82	191.92
669.96	184.90
670.10	170.86
670.25	220.01
670.39	198.95
670.53	217.67
670.67	191.92
670.81	147.45
670.95	227.03
671.09	198.95
671.23	287.89
671.37	210.65
671.51	189.58
671.65	236.39
671.79	121.71
671.93	266.82
672.07	194.26
672.21	210.65
672.35	222.35
672.49	180.22
672.63	250.44
672.77	212.99
672.91	283.20
673.05	252.78
673.19	273.84
673.33	208.31
673.47	161.50
673.61	250.44
673.75	210.65
673.89	271.50
674.03	273.84
674.17	215.33
674.31	212.99
674.45	252.78
674.59	231.71
674.73	224.69
674.87	234.05
675.01	264.48
675.15	182.56
675.29	198.95
675.43	210.65
675.56	189.58
675.70	238.73
675.84	205.97
675.98	182.56
676.12	198.95
676.26	170.86
676.40	262.14
676.54	222.35
676.68	205.97
676.82	241.08
676.96	201.29
677.10	189.58
677.23	264.48
677.37	175.54
677.51	177.88
677.65	248.10
677.79	236.39
677.93	194.26
678.07	142.77
678.21	241.08
678.34	189.58
678.48	208.31
678.62	184.90
678.76	133.41
678.90	194.26
679.04	210.65
679.18	175.54
679.31	154.48
679.45	154.48
679.59	147.45
679.73	133.41
679.87	173.20
680.00	177.88
680.14	159.16
680.28	227.03
680.42	238.73
680.56	168.52
680.70	145.11
680.83	128.73
680.97	170.86
681.11	161.50
681.25	271.50
681.39	131.07
681.52	196.60
681.66	156.82
681.80	198.95
681.94	133.41
682.07	152.13
682.21	140.43
682.35	152.13
682.49	187.24
682.62	198.95
682.76	161.50
682.90	229.37
683.04	215.33
683.17	114.69
683.31	135.75
683.45	126.39
683.59	163.84
683.72	133.41
683.86	112.35
684.00	238.73
684.13	227.03
684.27	212.99
684.41	217.67
684.55	201.29
684.68	163.84
684.82	128.73
684.96	159.16
685.09	126.39
685.23	182.56
685.37	189.58
685.50	154.48
685.64	191.92
685.78	175.54
685.91	224.69
686.05	140.43
686.19	191.92
686.32	203.63
686.46	128.73
686.60	100.64
686.73	191.92
686.87	154.48
687.01	131.07
687.14	145.11
687.28	177.88
687.42	189.58
687.55	217.67
687.69	208.31
687.82	154.48
687.96	154.48
688.10	198.95
688.23	210.65
688.37	262.14
688.50	184.90
688.64	119.37
688.78	35.11
688.91	126.39
689.05	201.29
689.18	88.94
689.32	117.03
689.46	159.16
689.59	245.76
689.73	205.97
689.86	194.26
690.00	86.60
690.13	149.79
690.27	152.13
690.41	187.24
690.54	231.71
690.68	170.86
690.81	180.22
690.95	184.90
691.08	149.79
691.22	154.48
691.35	131.07
691.49	152.13
691.62	93.62
691.76	124.05
691.89	175.54
692.03	131.07
692.16	168.52
692.30	191.92
692.43	107.66
692.57	184.90
692.70	72.56
692.84	222.35
692.97	154.48
693.11	124.05
693.24	203.63
693.38	168.52
693.51	196.60
693.65	229.37
693.78	117.03
693.92	112.35
694.05	147.45
694.19	110.01
694.32	161.50
694.45	156.82
694.59	159.16
694.72	243.42
694.86	170.86
694.99	212.99
695.13	124.05
695.26	173.20
695.39	149.79
695.53	205.97
695.66	163.84
695.80	180.22
695.93	215.33
696.07	149.79
696.20	152.13
696.33	140.43
696.47	166.18
696.60	117.03
696.73	145.11
696.87	170.86
697.00	198.95
697.14	170.86
697.27	152.13
697.40	198.95
697.54	135.75
697.67	189.58
697.80	133.41
697.94	187.24
698.07	166.18
698.21	63.19
698.34	198.95
698.47	145.11
698.61	63.19
698.74	121.71
698.87	128.73
699.01	173.20
699.14	65.54
699.27	210.65
699.40	266.82
699.54	170.86
699.67	145.11
699.80	102.98
699.94	131.07
700.07	126.39
700.20	117.03
700.34	124.05
700.47	119.37
700.60	105.32
700.73	93.62
700.87	124.05
701.00	161.50
701.13	102.98
701.26	152.13
701.40	105.32
701.53	154.48
701.66	191.92
701.79	201.29
701.93	149.79
702.06	229.37
702.19	152.13
702.32	131.07
702.46	159.16
702.59	142.77
702.72	32.77
702.85	133.41
702.99	102.98
703.12	231.71
703.25	98.30
703.38	187.24
703.51	112.35
703.65	98.30
703.78	152.13
703.91	117.03
704.04	163.84
704.17	166.18
704.31	156.82
704.44	156.82
704.57	198.95
704.70	140.43
704.83	88.94
704.96	201.29
705.10	142.77
705.23	79.58
>>>>>End Processed Spectral Data<<<<<
