SpectraSuite Data File
++++++++++++++++++++++++++++++++++++
Date: Fri Oct 04 11:41:53 GMT-05:00 2013
User: price-jones
Dark Spectrum Present: No
Reference Spectrum Present: No
Number of Sampled Component Spectra: 1
Spectrometers: USB2+H05261
Integration Time (usec): 100000 (USB2+H05261)
Spectra Averaged: 1 (USB2+H05261)
Boxcar Smoothing: 0 (USB2+H05261)
Correct for Electrical Dark: No (USB2+H05261)
Strobe/Lamp Enabled: No (USB2+H05261)
Correct for Detector Non-linearity: No (USB2+H05261)
Correct for Stray Light: No (USB2+H05261)
Number of Pixels in Processed Spectrum: 2048
>>>>>Begin Processed Spectral Data<<<<<
365.73	32.77
365.92	32.77
366.12	32.77
366.32	0.00
366.52	0.00
366.72	4.68
366.91	0.00
367.11	0.00
367.31	0.00
367.51	0.00
367.70	0.00
367.90	0.00
368.10	0.00
368.30	0.00
368.49	0.00
368.69	0.00
368.89	0.00
369.09	37.45
369.28	0.00
369.48	0.00
369.68	0.00
369.87	65.54
370.07	0.00
370.27	9.36
370.47	32.77
370.66	117.03
370.86	56.17
371.06	39.79
371.25	100.64
371.45	28.09
371.65	128.73
371.84	30.43
372.04	65.54
372.24	56.17
372.44	56.17
372.63	95.96
372.83	175.54
373.03	110.01
373.22	98.30
373.42	67.88
373.62	119.37
373.81	124.05
374.01	152.13
374.21	112.35
374.40	100.64
374.60	175.54
374.79	189.58
374.99	93.62
375.19	126.39
375.38	147.45
375.58	102.98
375.78	175.54
375.97	166.18
376.17	224.69
376.37	156.82
376.56	161.50
376.76	67.88
376.95	72.56
377.15	110.01
377.35	154.48
377.54	56.17
377.74	105.32
377.93	135.75
378.13	67.88
378.33	70.22
378.52	98.30
378.72	154.48
378.91	79.58
379.11	140.43
379.31	147.45
379.50	98.30
379.70	91.28
379.89	117.03
380.09	159.16
380.28	42.13
380.48	88.94
380.68	114.69
380.87	44.47
381.07	95.96
381.26	102.98
381.46	128.73
381.65	126.39
381.85	32.77
382.04	86.60
382.24	105.32
382.43	77.24
382.63	131.07
382.83	107.66
383.02	95.96
383.22	142.77
383.41	37.45
383.61	133.41
383.80	194.26
384.00	133.41
384.19	128.73
384.39	93.62
384.58	42.13
384.78	126.39
384.97	70.22
385.17	105.32
385.36	170.86
385.56	102.98
385.75	42.13
385.95	77.24
386.14	128.73
386.34	138.09
386.53	72.56
386.72	166.18
386.92	166.18
387.11	196.60
387.31	88.94
387.50	63.19
387.70	35.11
387.89	42.13
388.09	114.69
388.28	93.62
388.48	39.79
388.67	161.50
388.86	145.11
389.06	159.16
389.25	70.22
389.45	168.52
389.64	124.05
389.84	196.60
390.03	154.48
390.22	93.62
390.42	117.03
390.61	53.83
390.81	65.54
391.00	121.71
391.19	131.07
391.39	138.09
391.58	117.03
391.78	126.39
391.97	175.54
392.16	128.73
392.36	140.43
392.55	177.88
392.75	42.13
392.94	79.58
393.13	180.22
393.33	102.98
393.52	63.19
393.71	128.73
393.91	98.30
394.10	86.60
394.29	131.07
394.49	110.01
394.68	46.81
394.88	159.16
395.07	95.96
395.26	93.62
395.46	49.15
395.65	243.42
395.84	88.94
396.04	187.24
396.23	142.77
396.42	93.62
396.62	70.22
396.81	119.37
397.00	98.30
397.19	215.33
397.39	81.92
397.58	110.01
397.77	107.66
397.97	203.63
398.16	105.32
398.35	175.54
398.55	88.94
398.74	112.35
398.93	142.77
399.12	175.54
399.32	220.01
399.51	173.20
399.70	119.37
399.90	145.11
400.09	95.96
400.28	93.62
400.47	42.13
400.67	140.43
400.86	93.62
401.05	72.56
401.24	149.79
401.44	177.88
401.63	212.99
401.82	128.73
402.01	133.41
402.21	51.49
402.40	152.13
402.59	201.29
402.78	121.71
402.97	145.11
403.17	121.71
403.36	161.50
403.55	283.20
403.74	409.59
403.93	1060.26
404.13	2113.50
404.32	2275.00
404.51	1877.11
404.70	1172.61
404.89	489.17
405.09	229.37
405.28	184.90
405.47	145.11
405.66	212.99
405.85	135.75
406.05	105.32
406.24	140.43
406.43	95.96
406.62	126.39
406.81	196.60
407.00	264.48
407.20	423.64
407.39	271.50
407.58	418.96
407.77	327.68
407.96	191.92
408.15	194.26
408.34	124.05
408.54	168.52
408.73	147.45
408.92	105.32
409.11	135.75
409.30	180.22
409.49	105.32
409.68	98.30
409.87	138.09
410.07	112.35
410.26	156.82
410.45	257.46
410.64	159.16
410.83	95.96
411.02	166.18
411.21	194.26
411.40	180.22
411.59	95.96
411.78	131.07
411.98	95.96
412.17	201.29
412.36	95.96
412.55	210.65
412.74	117.03
412.93	217.67
413.12	201.29
413.31	220.01
413.50	159.16
413.69	126.39
413.88	182.56
414.07	166.18
414.26	152.13
414.45	203.63
414.64	149.79
414.83	131.07
415.02	215.33
415.22	187.24
415.41	180.22
415.60	222.35
415.79	138.09
415.98	198.95
416.17	156.82
416.36	194.26
416.55	201.29
416.74	145.11
416.93	196.60
417.12	245.76
417.31	175.54
417.50	212.99
417.69	212.99
417.88	138.09
418.07	119.37
418.26	140.43
418.45	98.30
418.64	259.80
418.83	243.42
419.02	187.24
419.21	126.39
419.39	163.84
419.58	191.92
419.77	163.84
419.96	208.31
420.15	196.60
420.34	126.39
420.53	168.52
420.72	224.69
420.91	184.90
421.10	201.29
421.29	145.11
421.48	220.01
421.67	177.88
421.86	266.82
422.05	117.03
422.24	234.05
422.43	175.54
422.61	168.52
422.80	217.67
422.99	161.50
423.18	187.24
423.37	245.76
423.56	205.97
423.75	163.84
423.94	152.13
424.13	224.69
424.32	215.33
424.50	231.71
424.69	217.67
424.88	170.86
425.07	243.42
425.26	180.22
425.45	187.24
425.64	180.22
425.83	154.48
426.01	248.10
426.20	208.31
426.39	201.29
426.58	210.65
426.77	117.03
426.96	262.14
427.15	241.08
427.33	234.05
427.52	280.86
427.71	117.03
427.90	173.20
428.09	234.05
428.28	105.32
428.46	245.76
428.65	166.18
428.84	201.29
429.03	203.63
429.22	208.31
429.40	177.88
429.59	170.86
429.78	245.76
429.97	180.22
430.16	257.46
430.34	222.35
430.53	117.03
430.72	170.86
430.91	163.84
431.10	156.82
431.28	238.73
431.47	234.05
431.66	255.12
431.85	264.48
432.03	215.33
432.22	287.89
432.41	210.65
432.60	283.20
432.79	198.95
432.97	241.08
433.16	236.39
433.35	262.14
433.54	294.91
433.72	299.59
433.91	320.65
434.10	315.97
434.28	397.89
434.47	407.25
434.66	454.06
434.85	587.47
435.03	1851.36
435.22	6200.08
435.41	10155.58
435.59	8802.75
435.78	5802.19
435.97	2890.56
436.16	1158.57
436.34	461.09
436.53	337.04
436.72	355.76
436.90	315.97
437.09	313.63
437.28	287.89
437.46	306.61
437.65	250.44
437.84	280.86
438.02	259.80
438.21	252.78
438.40	201.29
438.58	276.18
438.77	252.78
438.96	208.31
439.14	259.80
439.33	231.71
439.52	262.14
439.70	238.73
439.89	292.57
440.08	330.02
440.26	252.78
440.45	208.31
440.63	315.97
440.82	245.76
441.01	358.10
441.19	191.92
441.38	269.16
441.57	308.95
441.75	306.61
441.94	334.70
442.12	301.93
442.31	311.29
442.50	236.39
442.68	266.82
442.87	257.46
443.05	212.99
443.24	297.25
443.43	269.16
443.61	299.59
443.80	255.12
443.98	255.12
444.17	243.42
444.35	271.50
444.54	212.99
444.73	182.56
444.91	266.82
445.10	259.80
445.28	252.78
445.47	250.44
445.65	255.12
445.84	255.12
446.02	229.37
446.21	208.31
446.39	318.31
446.58	217.67
446.77	280.86
446.95	301.93
447.14	280.86
447.32	280.86
447.51	222.35
447.69	243.42
447.88	322.99
448.06	337.04
448.25	234.05
448.43	210.65
448.62	238.73
448.80	191.92
448.99	245.76
449.17	264.48
449.36	222.35
449.54	220.01
449.73	236.39
449.91	250.44
450.10	231.71
450.28	337.04
450.46	299.59
450.65	255.12
450.83	187.24
451.02	203.63
451.20	245.76
451.39	234.05
451.57	236.39
451.76	198.95
451.94	161.50
452.13	285.55
452.31	278.52
452.49	243.42
452.68	222.35
452.86	301.93
453.05	280.86
453.23	285.55
453.42	217.67
453.60	252.78
453.78	264.48
453.97	262.14
454.15	236.39
454.34	224.69
454.52	163.84
454.70	222.35
454.89	255.12
455.07	322.99
455.26	238.73
455.44	208.31
455.62	198.95
455.81	269.16
455.99	250.44
456.17	264.48
456.36	227.03
456.54	205.97
456.73	198.95
456.91	259.80
457.09	285.55
457.28	299.59
457.46	262.14
457.64	351.08
457.83	248.10
458.01	283.20
458.19	212.99
458.38	243.42
458.56	278.52
458.74	278.52
458.93	271.50
459.11	243.42
459.29	259.80
459.48	205.97
459.66	276.18
459.84	271.50
460.03	301.93
460.21	238.73
460.39	283.20
460.57	280.86
460.76	259.80
460.94	278.52
461.12	308.95
461.31	290.23
461.49	315.97
461.67	191.92
461.85	250.44
462.04	231.71
462.22	660.03
462.40	315.97
462.59	243.42
462.77	234.05
462.95	241.08
463.13	210.65
463.32	222.35
463.50	147.45
463.68	285.55
463.86	234.05
464.05	227.03
464.23	224.69
464.41	259.80
464.59	278.52
464.78	255.12
464.96	301.93
465.14	255.12
465.32	271.50
465.50	217.67
465.69	210.65
465.87	280.86
466.05	269.16
466.23	234.05
466.41	297.25
466.60	325.33
466.78	280.86
466.96	313.63
467.14	227.03
467.32	299.59
467.51	266.82
467.69	292.57
467.87	313.63
468.05	231.71
468.23	283.20
468.41	212.99
468.60	259.80
468.78	231.71
468.96	252.78
469.14	229.37
469.32	138.09
469.50	217.67
469.69	189.58
469.87	168.52
470.05	252.78
470.23	276.18
470.41	278.52
470.59	255.12
470.77	191.92
470.95	175.54
471.14	198.95
471.32	234.05
471.50	212.99
471.68	241.08
471.86	189.58
472.04	191.92
472.22	266.82
472.40	248.10
472.58	222.35
472.77	196.60
472.95	229.37
473.13	234.05
473.31	243.42
473.49	252.78
473.67	231.71
473.85	262.14
474.03	259.80
474.21	264.48
474.39	341.72
474.57	212.99
474.75	243.42
474.93	243.42
475.12	241.08
475.30	201.29
475.48	241.08
475.66	255.12
475.84	264.48
476.02	262.14
476.20	278.52
476.38	173.20
476.56	238.73
476.74	255.12
476.92	273.84
477.10	220.01
477.28	297.25
477.46	231.71
477.64	280.86
477.82	264.48
478.00	285.55
478.18	294.91
478.36	337.04
478.54	311.29
478.72	259.80
478.90	227.03
479.08	271.50
479.26	330.02
479.44	227.03
479.62	327.68
479.80	222.35
479.98	278.52
480.16	287.89
480.34	339.38
480.52	315.97
480.70	367.46
480.88	379.17
481.06	365.12
481.24	308.95
481.41	430.66
481.59	360.44
481.77	447.04
481.95	454.06
482.13	477.47
482.31	393.21
482.49	468.11
482.67	414.27
482.85	496.19
483.03	571.09
483.21	564.07
483.39	554.71
483.57	580.45
483.74	711.52
483.92	571.09
484.10	709.18
484.28	858.98
484.46	807.48
484.64	823.87
484.82	809.83
485.00	875.36
485.18	901.11
485.35	938.55
485.53	910.47
485.71	1050.90
485.89	999.41
486.07	945.58
486.25	1093.03
486.43	1090.69
486.61	997.07
486.78	1146.86
486.96	1153.88
487.14	1071.97
487.32	1062.60
487.50	985.37
487.68	1083.67
487.85	1067.28
488.03	1090.69
488.21	964.30
488.39	1125.80
488.57	929.19
488.75	987.71
488.92	1142.18
489.10	870.68
489.28	971.32
489.46	861.32
489.64	908.13
489.81	931.53
489.99	798.12
490.17	863.66
490.35	887.06
490.53	917.49
490.70	858.98
490.88	912.81
491.06	957.28
491.24	1036.86
491.41	1008.77
491.59	938.55
491.77	819.19
491.95	833.23
492.13	826.21
492.30	795.78
492.48	847.27
492.66	812.17
492.84	751.31
493.01	779.40
493.19	765.36
493.37	781.74
493.54	779.40
493.72	784.08
493.90	688.12
494.08	624.92
494.25	737.27
494.43	727.91
494.61	727.91
494.79	629.60
494.96	601.52
495.14	636.63
495.32	582.79
495.49	676.41
495.67	702.16
495.85	613.22
496.02	585.13
496.20	683.44
496.38	685.78
496.55	692.80
496.73	683.44
496.91	631.94
497.09	667.05
497.26	559.39
497.44	578.11
497.62	589.82
497.79	557.05
497.97	580.45
498.14	559.39
498.32	444.70
498.50	547.69
498.67	550.03
498.85	454.06
499.03	528.96
499.20	514.92
499.38	407.25
499.56	521.94
499.73	496.19
499.91	484.49
500.08	409.59
500.26	479.81
500.44	369.80
500.61	395.55
500.79	437.68
500.97	521.94
501.14	388.53
501.32	402.57
501.49	414.27
501.67	423.64
501.84	451.72
502.02	318.31
502.20	390.87
502.37	315.97
502.55	400.23
502.72	388.53
502.90	372.15
503.07	337.04
503.25	351.08
503.43	362.78
503.60	308.95
503.78	362.78
503.95	355.76
504.13	306.61
504.30	369.80
504.48	367.46
504.65	395.55
504.83	369.80
505.01	227.03
505.18	248.10
505.36	250.44
505.53	322.99
505.71	313.63
505.88	322.99
506.06	372.15
506.23	269.16
506.41	280.86
506.58	365.12
506.76	283.20
506.93	308.95
507.11	353.42
507.28	285.55
507.46	252.78
507.63	290.23
507.81	348.74
507.98	287.89
508.16	318.31
508.33	301.93
508.50	287.89
508.68	283.20
508.85	358.10
509.03	273.84
509.20	304.27
509.38	341.72
509.55	388.53
509.73	313.63
509.90	351.08
510.08	248.10
510.25	280.86
510.42	313.63
510.60	322.99
510.77	297.25
510.95	383.85
511.12	285.55
511.30	360.44
511.47	320.65
511.64	346.40
511.82	374.49
511.99	234.05
512.17	287.89
512.34	301.93
512.51	283.20
512.69	266.82
512.86	280.86
513.04	297.25
513.21	271.50
513.38	327.68
513.56	304.27
513.73	273.84
513.90	287.89
514.08	322.99
514.25	376.83
514.43	299.59
514.60	337.04
514.77	273.84
514.95	292.57
515.12	243.42
515.29	269.16
515.47	285.55
515.64	299.59
515.81	294.91
515.99	273.84
516.16	341.72
516.33	259.80
516.51	330.02
516.68	322.99
516.85	311.29
517.03	250.44
517.20	208.31
517.37	259.80
517.54	313.63
517.72	229.37
517.89	283.20
518.06	276.18
518.24	304.27
518.41	208.31
518.58	280.86
518.75	283.20
518.93	234.05
519.10	290.23
519.27	252.78
519.45	283.20
519.62	325.33
519.79	280.86
519.96	203.63
520.14	294.91
520.31	301.93
520.48	252.78
520.65	189.58
520.83	287.89
521.00	297.25
521.17	257.46
521.34	217.67
521.52	278.52
521.69	255.12
521.86	257.46
522.03	257.46
522.20	334.70
522.38	266.82
522.55	248.10
522.72	205.97
522.89	283.20
523.07	287.89
523.24	327.68
523.41	271.50
523.58	308.95
523.75	250.44
523.92	234.05
524.10	271.50
524.27	283.20
524.44	297.25
524.61	330.02
524.78	294.91
524.96	276.18
525.13	330.02
525.30	318.31
525.47	327.68
525.64	248.10
525.81	318.31
525.98	367.46
526.16	360.44
526.33	327.68
526.50	297.25
526.67	252.78
526.84	294.91
527.01	259.80
527.18	264.48
527.36	327.68
527.53	360.44
527.70	339.38
527.87	315.97
528.04	379.17
528.21	250.44
528.38	341.72
528.55	351.08
528.72	362.78
528.89	428.32
529.07	294.91
529.24	252.78
529.41	278.52
529.58	297.25
529.75	390.87
529.92	276.18
530.09	290.23
530.26	360.44
530.43	304.27
530.60	315.97
530.77	278.52
530.94	355.76
531.11	339.38
531.28	322.99
531.46	341.72
531.63	346.40
531.80	388.53
531.97	421.30
532.14	386.19
532.31	482.15
532.48	442.36
532.65	538.32
532.82	538.32
532.99	657.69
533.16	681.10
533.33	725.57
533.50	613.22
533.67	636.63
533.84	580.45
534.01	512.58
534.18	505.56
534.35	543.00
534.52	521.94
534.69	594.50
534.86	564.07
535.03	512.58
535.20	528.96
535.37	615.56
535.54	587.47
535.71	578.11
535.88	599.18
536.05	641.31
536.22	716.20
536.38	741.95
536.55	793.44
536.72	940.90
536.89	1034.52
537.06	997.07
537.23	1116.44
537.40	1233.46
537.57	1259.21
537.74	1277.93
537.91	1357.51
538.08	1385.60
538.25	1481.56
538.42	1373.89
538.59	1366.87
538.75	1448.79
538.92	1565.82
539.09	1753.06
539.26	1872.43
539.43	2078.40
539.60	2392.03
539.77	2499.69
539.94	2902.26
540.11	3199.51
540.28	3400.80
540.44	3815.07
540.61	4030.40
540.78	4671.71
540.95	5621.97
541.12	6626.06
541.29	7222.89
541.46	7309.49
541.62	7253.32
541.79	6960.75
541.96	6534.78
542.13	6120.50
542.30	5785.80
542.47	5444.09
542.63	5135.14
542.80	5078.96
542.97	5085.98
543.14	5050.88
543.31	5001.72
543.48	5085.98
543.64	5116.41
543.81	5125.77
543.98	5109.39
544.15	5109.39
544.32	5270.89
544.48	5198.33
544.65	5081.30
544.82	4943.21
544.99	5043.85
545.16	5128.11
545.32	5554.09
545.49	11520.12
545.66	17535.29
545.83	18693.86
546.00	15552.86
546.16	10761.78
546.33	8063.15
546.50	5984.75
546.67	5158.54
546.83	4599.15
547.00	4344.03
547.17	4224.67
547.34	3967.21
547.50	3845.50
547.67	3808.05
547.84	3667.62
548.00	3468.67
548.17	3405.48
548.34	3115.25
548.51	3180.79
548.67	2984.18
548.84	2796.94
549.01	2733.75
549.18	2679.91
549.34	2612.04
549.51	2455.22
549.68	2462.24
549.84	2310.11
550.01	2080.74
550.18	2150.95
550.34	2066.69
550.51	1905.20
550.68	1879.45
550.84	1647.74
551.01	1732.00
551.18	1582.20
551.34	1610.29
551.51	1507.30
551.68	1430.07
551.84	1420.71
552.01	1362.19
552.18	1301.34
552.34	1217.08
552.51	1177.29
552.68	1324.74
552.84	1130.48
553.01	1109.41
553.18	1032.18
553.34	1046.22
553.51	987.71
553.67	1039.20
553.84	992.39
554.01	938.55
554.17	887.06
554.34	791.10
554.51	788.76
554.67	709.18
554.84	676.41
555.00	697.48
555.17	695.14
555.33	648.33
555.50	643.65
555.67	547.69
555.83	594.50
556.00	552.37
556.16	636.63
556.33	552.37
556.50	547.69
556.66	486.83
556.83	472.79
556.99	486.83
557.16	437.68
557.32	463.43
557.49	486.83
557.65	423.64
557.82	407.25
557.98	472.79
558.15	449.38
558.32	404.91
558.48	393.21
558.65	454.06
558.81	444.70
558.98	351.08
559.14	451.72
559.31	472.79
559.47	369.80
559.64	388.53
559.80	369.80
559.97	358.10
560.13	381.51
560.30	390.87
560.46	390.87
560.63	470.45
560.79	407.25
560.96	383.85
561.12	388.53
561.29	381.51
561.45	388.53
561.61	390.87
561.78	418.96
561.94	475.13
562.11	397.89
562.27	325.33
562.44	367.46
562.60	437.68
562.77	435.34
562.93	463.43
563.10	369.80
563.26	428.32
563.42	346.40
563.59	358.10
563.75	353.42
563.92	383.85
564.08	358.10
564.24	334.70
564.41	318.31
564.57	255.12
564.74	318.31
564.90	416.62
565.07	390.87
565.23	376.83
565.39	372.15
565.56	292.57
565.72	334.70
565.88	320.65
566.05	318.31
566.21	386.19
566.38	294.91
566.54	404.91
566.70	353.42
566.87	348.74
567.03	409.59
567.19	409.59
567.36	430.66
567.52	276.18
567.68	341.72
567.85	285.55
568.01	287.89
568.17	341.72
568.34	358.10
568.50	346.40
568.66	339.38
568.83	411.93
568.99	243.42
569.15	379.17
569.32	290.23
569.48	285.55
569.64	280.86
569.81	367.46
569.97	278.52
570.13	278.52
570.30	292.57
570.46	269.16
570.62	234.05
570.78	283.20
570.95	287.89
571.11	341.72
571.27	315.97
571.43	362.78
571.60	355.76
571.76	229.37
571.92	334.70
572.09	308.95
572.25	278.52
572.41	308.95
572.57	255.12
572.74	360.44
572.90	337.04
573.06	294.91
573.22	292.57
573.38	376.83
573.55	315.97
573.71	334.70
573.87	376.83
574.03	334.70
574.20	355.76
574.36	362.78
574.52	304.27
574.68	322.99
574.84	308.95
575.01	299.59
575.17	360.44
575.33	215.33
575.49	444.70
575.65	433.00
575.82	327.68
575.98	379.17
576.14	472.79
576.30	980.68
576.46	2637.78
576.62	3267.39
576.79	3112.91
576.95	2417.77
577.11	1682.85
577.27	1160.91
577.43	863.66
577.59	669.39
577.75	634.29
577.92	566.41
578.08	550.03
578.24	543.00
578.40	1086.01
578.56	2382.67
578.72	3103.55
578.88	2906.95
579.04	2150.95
579.21	1589.22
579.37	1207.72
579.53	971.32
579.69	1125.80
579.85	1291.98
580.01	1511.99
580.17	1263.89
580.33	1090.69
580.49	980.68
580.65	990.05
580.82	926.85
580.98	866.00
581.14	908.13
581.30	997.07
581.46	997.07
581.62	1095.37
581.78	1104.73
581.94	1158.57
582.10	1217.08
582.26	1287.29
582.42	1282.61
582.58	1369.21
582.74	1493.26
582.90	1401.98
583.06	1488.58
583.22	1420.71
583.38	1411.34
583.54	1423.05
583.70	1383.26
583.86	1359.85
584.02	1418.36
584.18	1460.49
584.34	1416.02
584.50	1336.45
584.66	1277.93
584.82	1214.74
584.98	1261.55
585.14	1156.22
585.30	1228.78
585.46	1165.59
585.62	1200.69
585.78	1053.24
585.94	1252.19
586.10	1261.55
586.26	1308.36
586.42	1469.86
586.58	1715.61
586.74	2080.74
586.90	2338.20
587.06	2480.97
587.22	2443.52
587.38	2139.25
587.54	1940.30
587.70	1652.42
587.86	1486.24
588.02	1308.36
588.18	1193.67
588.34	1095.37
588.49	954.94
588.65	1018.13
588.81	910.47
588.97	873.02
589.13	812.17
589.29	905.79
589.45	919.83
589.61	795.78
589.77	894.08
589.93	968.98
590.08	866.00
590.24	896.43
590.40	851.96
590.56	912.81
590.72	877.70
590.88	1027.50
591.04	931.53
591.20	1097.71
591.35	1095.37
591.51	1128.14
591.67	1172.61
591.83	1193.67
591.99	1373.89
592.15	1423.05
592.31	1488.58
592.46	1533.05
592.62	1734.34
592.78	1767.10
592.94	1806.89
593.10	1781.15
593.26	1685.19
593.41	1673.48
593.57	1430.07
593.73	1303.68
593.89	1121.12
594.05	1062.60
594.20	875.36
594.36	912.81
594.52	858.98
594.68	777.06
594.84	828.55
594.99	849.61
595.15	788.76
595.31	851.96
595.47	746.63
595.62	744.29
595.78	730.25
595.94	800.46
596.10	805.14
596.25	746.63
596.41	737.27
596.57	748.97
596.73	732.59
596.88	662.37
597.04	734.93
597.20	765.36
597.36	765.36
597.51	777.06
597.67	702.16
597.83	905.79
597.99	933.87
598.14	833.23
598.30	1008.77
598.46	1020.47
598.61	1078.99
598.77	1177.29
598.93	1102.39
599.09	1074.31
599.24	1125.80
599.40	1160.91
599.56	1102.39
599.71	1060.26
599.87	1107.07
600.03	992.39
600.18	999.41
600.34	910.47
600.50	823.87
600.65	786.42
600.81	809.83
600.97	734.93
601.12	671.73
601.28	678.76
601.44	657.69
601.59	592.16
601.75	571.09
601.91	571.09
602.06	627.26
602.22	650.67
602.37	592.16
602.53	552.37
602.69	543.00
602.84	528.96
603.00	643.65
603.16	566.41
603.31	615.56
603.47	615.56
603.62	643.65
603.78	535.98
603.94	643.65
604.09	617.90
604.25	554.71
604.40	596.84
604.56	559.39
604.71	655.35
604.87	571.09
605.03	594.50
605.18	669.39
605.34	664.71
605.49	674.07
605.65	676.41
605.80	667.05
605.96	760.67
606.12	791.10
606.27	793.44
606.43	753.65
606.58	819.19
606.74	870.68
606.89	835.57
607.05	896.43
607.20	973.66
607.36	1018.13
607.51	1078.99
607.67	1095.37
607.82	1172.61
607.98	1242.82
608.13	1392.62
608.29	1413.68
608.44	1535.39
608.60	1516.67
608.75	1781.15
608.91	1905.20
609.06	2073.71
609.22	2246.91
609.37	2420.11
609.53	2813.32
609.68	3131.64
609.84	3475.70
609.99	4184.88
610.15	5064.92
610.30	6197.74
610.46	7953.14
610.61	9980.04
610.76	12713.79
610.92	14829.63
611.07	16149.70
611.23	16355.66
611.38	15178.37
611.54	13514.25
611.69	11225.21
611.84	9694.50
612.00	8028.04
612.15	6724.36
612.31	6010.50
612.46	5476.85
612.62	4950.23
612.77	4688.09
612.92	4613.20
613.08	4222.33
613.23	4107.64
613.39	3932.10
613.54	3791.67
613.69	3805.71
613.85	3845.50
614.00	3756.56
614.15	3684.00
614.31	3613.79
614.46	3599.74
614.62	3456.97
614.77	3236.96
614.92	3005.25
615.08	2822.69
615.23	2693.96
615.38	2408.41
615.54	2176.70
615.69	2047.97
615.84	1893.49
616.00	1813.92
616.15	1591.56
616.30	1533.05
616.46	1507.30
616.61	1441.77
616.76	1378.58
616.92	1322.40
617.07	1266.23
617.22	1203.04
617.37	1100.05
617.53	1177.29
617.68	1097.71
617.83	1083.67
617.99	1027.50
618.14	1083.67
618.29	966.64
618.45	938.55
618.60	863.66
618.75	990.05
618.90	1006.43
619.06	931.53
619.21	964.30
619.36	957.28
619.51	922.17
619.67	880.04
619.82	854.30
619.97	1074.31
620.12	985.37
620.28	997.07
620.43	973.66
620.58	1043.88
620.73	1029.84
620.89	1057.92
621.04	964.30
621.19	1064.94
621.34	924.51
621.49	887.06
621.65	954.94
621.80	926.85
621.95	861.32
622.10	929.19
622.25	931.53
622.41	966.64
622.56	1027.50
622.71	1041.54
622.86	943.24
623.01	1029.84
623.16	1137.50
623.32	1081.33
623.47	1050.90
623.62	1053.24
623.77	1156.22
623.92	980.68
624.07	947.92
624.23	1020.47
624.38	1018.13
624.53	1006.43
624.68	990.05
624.83	1018.13
624.98	1069.62
625.13	1055.58
625.29	1055.58
625.44	1039.20
625.59	1008.77
625.74	1020.47
625.89	1102.39
626.04	1055.58
626.19	1036.86
626.34	1041.54
626.49	1022.81
626.65	1036.86
626.80	954.94
626.95	1015.79
627.10	994.73
627.25	966.64
627.40	889.40
627.55	1008.77
627.70	894.08
627.85	985.37
628.00	938.55
628.15	896.43
628.30	861.32
628.45	978.34
628.60	990.05
628.76	917.49
628.91	997.07
629.06	943.24
629.21	936.21
629.36	1027.50
629.51	964.30
629.66	1006.43
629.81	1102.39
629.96	1266.23
630.11	1320.06
630.26	1507.30
630.41	1547.09
630.56	1769.44
630.71	1771.79
630.86	1820.94
631.01	1776.47
631.16	1523.69
631.31	1439.43
631.46	1364.53
631.61	1090.69
631.76	1064.94
631.91	793.44
632.06	716.20
632.21	620.24
632.36	627.26
632.51	524.28
632.66	524.28
632.81	554.71
632.96	475.13
633.10	463.43
633.25	451.72
633.40	402.57
633.55	447.04
633.70	393.21
633.85	402.57
634.00	379.17
634.15	390.87
634.30	416.62
634.45	404.91
634.60	414.27
634.75	400.23
634.90	400.23
635.05	355.76
635.19	388.53
635.34	409.59
635.49	341.72
635.64	322.99
635.79	341.72
635.94	411.93
636.09	346.40
636.24	287.89
636.39	278.52
636.53	374.49
636.68	418.96
636.83	301.93
636.98	337.04
637.13	297.25
637.28	271.50
637.43	358.10
637.57	318.31
637.72	315.97
637.87	273.84
638.02	299.59
638.17	287.89
638.32	315.97
638.46	292.57
638.61	402.57
638.76	341.72
638.91	301.93
639.06	212.99
639.20	325.33
639.35	285.55
639.50	290.23
639.65	358.10
639.80	311.29
639.94	266.82
640.09	362.78
640.24	337.04
640.39	271.50
640.54	327.68
640.68	294.91
640.83	322.99
640.98	269.16
641.13	250.44
641.27	318.31
641.42	250.44
641.57	290.23
641.72	273.84
641.86	238.73
642.01	301.93
642.16	306.61
642.31	280.86
642.45	322.99
642.60	337.04
642.75	339.38
642.90	294.91
643.04	257.46
643.19	266.82
643.34	280.86
643.48	290.23
643.63	311.29
643.78	308.95
643.93	334.70
644.07	266.82
644.22	355.76
644.37	252.78
644.51	322.99
644.66	257.46
644.81	234.05
644.95	423.64
645.10	318.31
645.25	311.29
645.39	264.48
645.54	362.78
645.69	278.52
645.83	339.38
645.98	222.35
646.13	297.25
646.27	358.10
646.42	245.76
646.57	299.59
646.71	325.33
646.86	248.10
647.00	285.55
647.15	318.31
647.30	227.03
647.44	238.73
647.59	243.42
647.74	248.10
647.88	327.68
648.03	236.39
648.17	297.25
648.32	332.36
648.47	318.31
648.61	299.59
648.76	285.55
648.90	353.42
649.05	344.06
649.20	318.31
649.34	369.80
649.49	337.04
649.63	393.21
649.78	428.32
649.92	482.15
650.07	557.05
650.21	540.66
650.36	648.33
650.51	554.71
650.65	589.82
650.80	519.60
650.94	535.98
651.09	369.80
651.23	433.00
651.38	355.76
651.52	330.02
651.67	341.72
651.81	372.15
651.96	327.68
652.10	332.36
652.25	334.70
652.39	332.36
652.54	334.70
652.68	397.89
652.83	400.23
652.97	360.44
653.12	299.59
653.26	395.55
653.41	369.80
653.55	362.78
653.70	313.63
653.84	294.91
653.99	332.36
654.13	234.05
654.27	327.68
654.42	271.50
654.56	304.27
654.71	271.50
654.85	241.08
655.00	278.52
655.14	276.18
655.29	234.05
655.43	308.95
655.57	299.59
655.72	191.92
655.86	215.33
656.01	269.16
656.15	222.35
656.30	299.59
656.44	236.39
656.58	278.52
656.73	217.67
656.87	245.76
657.01	292.57
657.16	304.27
657.30	278.52
657.45	327.68
657.59	299.59
657.73	259.80
657.88	362.78
658.02	372.15
658.16	194.26
658.31	210.65
658.45	255.12
658.60	196.60
658.74	276.18
658.88	196.60
659.03	198.95
659.17	215.33
659.31	215.33
659.46	236.39
659.60	241.08
659.74	201.29
659.89	259.80
660.03	238.73
660.17	301.93
660.32	248.10
660.46	257.46
660.60	229.37
660.74	215.33
660.89	208.31
661.03	196.60
661.17	194.26
661.32	266.82
661.46	231.71
661.60	315.97
661.74	318.31
661.89	407.25
662.03	395.55
662.17	402.57
662.31	475.13
662.46	407.25
662.60	423.64
662.74	341.72
662.88	383.85
663.03	332.36
663.17	280.86
663.31	208.31
663.45	280.86
663.60	304.27
663.74	264.48
663.88	248.10
664.02	252.78
664.17	236.39
664.31	189.58
664.45	276.18
664.59	220.01
664.73	177.88
664.88	231.71
665.02	182.56
665.16	262.14
665.30	266.82
665.44	194.26
665.59	243.42
665.73	259.80
665.87	182.56
666.01	262.14
666.15	243.42
666.29	241.08
666.44	304.27
666.58	301.93
666.72	170.86
666.86	257.46
667.00	259.80
667.14	248.10
667.28	161.50
667.43	248.10
667.57	196.60
667.71	212.99
667.85	245.76
667.99	217.67
668.13	231.71
668.27	182.56
668.41	170.86
668.56	203.63
668.70	173.20
668.84	245.76
668.98	203.63
669.12	203.63
669.26	241.08
669.40	278.52
669.54	187.24
669.68	222.35
669.82	224.69
669.96	173.20
670.10	184.90
670.25	231.71
670.39	208.31
670.53	210.65
670.67	210.65
670.81	196.60
670.95	280.86
671.09	182.56
671.23	273.84
671.37	266.82
671.51	285.55
671.65	236.39
671.79	220.01
671.93	238.73
672.07	234.05
672.21	250.44
672.35	196.60
672.49	220.01
672.63	250.44
672.77	126.39
672.91	227.03
673.05	208.31
673.19	159.16
673.33	294.91
673.47	220.01
673.61	124.05
673.75	175.54
673.89	154.48
674.03	154.48
674.17	220.01
674.31	133.41
674.45	201.29
674.59	271.50
674.73	220.01
674.87	196.60
675.01	194.26
675.15	168.52
675.29	182.56
675.43	229.37
675.56	205.97
675.70	311.29
675.84	175.54
675.98	180.22
676.12	198.95
676.26	217.67
676.40	177.88
676.54	198.95
676.68	187.24
676.82	234.05
676.96	154.48
677.10	161.50
677.23	177.88
677.37	173.20
677.51	283.20
677.65	259.80
677.79	154.48
677.93	180.22
678.07	154.48
678.21	180.22
678.34	126.39
678.48	177.88
678.62	154.48
678.76	131.07
678.90	229.37
679.04	177.88
679.18	131.07
679.31	184.90
679.45	205.97
679.59	147.45
679.73	212.99
679.87	212.99
680.00	212.99
680.14	133.41
680.28	135.75
680.42	234.05
680.56	138.09
680.70	205.97
680.83	210.65
680.97	154.48
681.11	149.79
681.25	259.80
681.39	140.43
681.52	220.01
681.66	215.33
681.80	173.20
681.94	168.52
682.07	88.94
682.21	95.96
682.35	189.58
682.49	161.50
682.62	182.56
682.76	180.22
682.90	98.30
683.04	159.16
683.17	140.43
683.31	124.05
683.45	222.35
683.59	177.88
683.72	163.84
683.86	138.09
684.00	173.20
684.13	215.33
684.27	201.29
684.41	182.56
684.55	280.86
684.68	170.86
684.82	163.84
684.96	161.50
685.09	147.45
685.23	175.54
685.37	170.86
685.50	161.50
685.64	194.26
685.78	170.86
685.91	227.03
686.05	231.71
686.19	205.97
686.32	220.01
686.46	163.84
686.60	203.63
686.73	278.52
686.87	208.31
687.01	201.29
687.14	182.56
687.28	208.31
687.42	259.80
687.55	285.55
687.69	255.12
687.82	229.37
687.96	203.63
688.10	273.84
688.23	222.35
688.37	292.57
688.50	210.65
688.64	250.44
688.78	220.01
688.91	184.90
689.05	163.84
689.18	182.56
689.32	184.90
689.46	191.92
689.59	187.24
689.73	241.08
689.86	86.60
690.00	182.56
690.13	142.77
690.27	184.90
690.41	131.07
690.54	210.65
690.68	147.45
690.81	203.63
690.95	187.24
691.08	168.52
691.22	212.99
691.35	194.26
691.49	117.03
691.62	145.11
691.76	149.79
691.89	173.20
692.03	177.88
692.16	124.05
692.30	95.96
692.43	105.32
692.57	119.37
692.70	145.11
692.84	180.22
692.97	201.29
693.11	189.58
693.24	124.05
693.38	196.60
693.51	231.71
693.65	308.95
693.78	201.29
693.92	166.18
694.05	184.90
694.19	124.05
694.32	180.22
694.45	121.71
694.59	173.20
694.72	191.92
694.86	287.89
694.99	128.73
695.13	100.64
695.26	84.26
695.39	184.90
695.53	278.52
695.66	161.50
695.80	142.77
695.93	91.28
696.07	84.26
696.20	128.73
696.33	128.73
696.47	222.35
696.60	184.90
696.73	135.75
696.87	220.01
697.00	198.95
697.14	205.97
697.27	173.20
697.40	124.05
697.54	102.98
697.67	124.05
697.80	135.75
697.94	135.75
698.07	117.03
698.21	140.43
698.34	102.98
698.47	100.64
698.61	121.71
698.74	184.90
698.87	152.13
699.01	180.22
699.14	93.62
699.27	154.48
699.40	208.31
699.54	147.45
699.67	175.54
699.80	65.54
699.94	119.37
700.07	88.94
700.20	135.75
700.34	117.03
700.47	149.79
700.60	205.97
700.73	121.71
700.87	159.16
701.00	128.73
701.13	145.11
701.26	133.41
701.40	142.77
701.53	227.03
701.66	128.73
701.79	86.60
701.93	168.52
702.06	243.42
702.19	159.16
702.32	152.13
702.46	107.66
702.59	128.73
702.72	205.97
702.85	126.39
702.99	93.62
703.12	182.56
703.25	161.50
703.38	173.20
703.51	100.64
703.65	100.64
703.78	168.52
703.91	84.26
704.04	147.45
704.17	145.11
704.31	142.77
704.44	88.94
704.57	110.01
704.70	117.03
704.83	175.54
704.96	149.79
705.10	147.45
705.23	205.97
>>>>>End Processed Spectral Data<<<<<
