SpectraSuite Data File
++++++++++++++++++++++++++++++++++++
Date: Fri Oct 04 11:41:39 GMT-05:00 2013
User: price-jones
Dark Spectrum Present: No
Reference Spectrum Present: No
Number of Sampled Component Spectra: 1
Spectrometers: USB2+H05261
Integration Time (usec): 100000 (USB2+H05261)
Spectra Averaged: 1 (USB2+H05261)
Boxcar Smoothing: 0 (USB2+H05261)
Correct for Electrical Dark: No (USB2+H05261)
Strobe/Lamp Enabled: No (USB2+H05261)
Correct for Detector Non-linearity: No (USB2+H05261)
Correct for Stray Light: No (USB2+H05261)
Number of Pixels in Processed Spectrum: 2048
>>>>>Begin Processed Spectral Data<<<<<
365.73	81.92
365.92	81.92
366.12	81.92
366.32	0.00
366.52	0.00
366.72	0.00
366.91	0.00
367.11	0.00
367.31	0.00
367.51	0.00
367.70	0.00
367.90	0.00
368.10	0.00
368.30	0.00
368.49	0.00
368.69	0.00
368.89	0.00
369.09	0.00
369.28	51.49
369.48	0.00
369.68	23.41
369.87	7.02
370.07	0.00
370.27	21.06
370.47	46.81
370.66	88.94
370.86	88.94
371.06	161.50
371.25	184.90
371.45	98.30
371.65	128.73
371.84	93.62
372.04	149.79
372.24	173.20
372.44	152.13
372.63	175.54
372.83	170.86
373.03	215.33
373.22	79.58
373.42	205.97
373.62	212.99
373.81	163.84
374.01	184.90
374.21	180.22
374.40	222.35
374.60	203.63
374.79	182.56
374.99	205.97
375.19	152.13
375.38	212.99
375.58	184.90
375.78	180.22
375.97	234.05
376.17	290.23
376.37	243.42
376.56	252.78
376.76	177.88
376.95	187.24
377.15	180.22
377.35	182.56
377.54	259.80
377.74	182.56
377.93	135.75
378.13	243.42
378.33	201.29
378.52	187.24
378.72	182.56
378.91	95.96
379.11	229.37
379.31	161.50
379.50	163.84
379.70	177.88
379.89	177.88
380.09	196.60
380.28	131.07
380.48	177.88
380.68	203.63
380.87	166.18
381.07	131.07
381.26	198.95
381.46	154.48
381.65	161.50
381.85	177.88
382.04	135.75
382.24	124.05
382.43	114.69
382.63	184.90
382.83	112.35
383.02	184.90
383.22	154.48
383.41	145.11
383.61	215.33
383.80	142.77
384.00	159.16
384.19	205.97
384.39	156.82
384.58	114.69
384.78	198.95
384.97	161.50
385.17	191.92
385.36	194.26
385.56	203.63
385.75	163.84
385.95	215.33
386.14	227.03
386.34	159.16
386.53	173.20
386.72	159.16
386.92	201.29
387.11	198.95
387.31	224.69
387.50	166.18
387.70	182.56
387.89	187.24
388.09	215.33
388.28	264.48
388.48	182.56
388.67	262.14
388.86	229.37
389.06	205.97
389.25	236.39
389.45	252.78
389.64	248.10
389.84	250.44
390.03	259.80
390.22	250.44
390.42	231.71
390.61	210.65
390.81	189.58
391.00	191.92
391.19	257.46
391.39	243.42
391.58	273.84
391.78	145.11
391.97	168.52
392.16	191.92
392.36	285.55
392.55	177.88
392.75	121.71
392.94	180.22
393.13	208.31
393.33	215.33
393.52	227.03
393.71	248.10
393.91	156.82
394.10	166.18
394.29	243.42
394.49	227.03
394.68	229.37
394.88	255.12
395.07	212.99
395.26	234.05
395.46	201.29
395.65	229.37
395.84	208.31
396.04	271.50
396.23	133.41
396.42	208.31
396.62	212.99
396.81	91.28
397.00	215.33
397.19	217.67
397.39	203.63
397.58	252.78
397.77	285.55
397.97	229.37
398.16	255.12
398.35	346.40
398.55	332.36
398.74	287.89
398.93	362.78
399.12	243.42
399.32	273.84
399.51	266.82
399.70	205.97
399.90	337.04
400.09	264.48
400.28	301.93
400.47	238.73
400.67	245.76
400.86	271.50
401.05	273.84
401.24	292.57
401.44	276.18
401.63	315.97
401.82	400.23
402.01	283.20
402.21	318.31
402.40	304.27
402.59	285.55
402.78	210.65
402.97	259.80
403.17	273.84
403.36	325.33
403.55	322.99
403.74	315.97
403.93	325.33
404.13	365.12
404.32	482.15
404.51	404.91
404.70	404.91
404.89	322.99
405.09	311.29
405.28	285.55
405.47	315.97
405.66	315.97
405.85	292.57
406.05	304.27
406.24	273.84
406.43	325.33
406.62	318.31
406.81	327.68
407.00	337.04
407.20	337.04
407.39	292.57
407.58	294.91
407.77	346.40
407.96	397.89
408.15	337.04
408.34	360.44
408.54	283.20
408.73	315.97
408.92	334.70
409.11	388.53
409.30	332.36
409.49	351.08
409.68	299.59
409.87	315.97
410.07	318.31
410.26	318.31
410.45	266.82
410.64	313.63
410.83	388.53
411.02	320.65
411.21	400.23
411.40	287.89
411.59	341.72
411.78	278.52
411.98	393.21
412.17	339.38
412.36	304.27
412.55	362.78
412.74	362.78
412.93	395.55
413.12	322.99
413.31	379.17
413.50	301.93
413.69	318.31
413.88	411.93
414.07	379.17
414.26	327.68
414.45	379.17
414.64	365.12
414.83	397.89
415.02	388.53
415.22	416.62
415.41	395.55
415.60	372.15
415.79	400.23
415.98	416.62
416.17	353.42
416.36	395.55
416.55	283.20
416.74	402.57
416.93	390.87
417.12	454.06
417.31	355.76
417.50	358.10
417.69	479.81
417.88	308.95
418.07	332.36
418.26	386.19
418.45	362.78
418.64	451.72
418.83	376.83
419.02	334.70
419.21	353.42
419.39	351.08
419.58	381.51
419.77	390.87
419.96	397.89
420.15	454.06
420.34	367.46
420.53	433.00
420.72	367.46
420.91	505.56
421.10	360.44
421.29	458.74
421.48	442.36
421.67	393.21
421.86	456.40
422.05	337.04
422.24	404.91
422.43	294.91
422.61	367.46
422.80	423.64
422.99	407.25
423.18	344.06
423.37	411.93
423.56	299.59
423.75	353.42
423.94	379.17
424.13	362.78
424.32	400.23
424.50	383.85
424.69	407.25
424.88	383.85
425.07	285.55
425.26	381.51
425.45	365.12
425.64	290.23
425.83	369.80
426.01	395.55
426.20	372.15
426.39	388.53
426.58	365.12
426.77	348.74
426.96	383.85
427.15	358.10
427.33	390.87
427.52	337.04
427.71	266.82
427.90	416.62
428.09	294.91
428.28	355.76
428.46	325.33
428.65	367.46
428.84	388.53
429.03	351.08
429.22	327.68
429.40	327.68
429.59	381.51
429.78	374.49
429.97	348.74
430.16	245.76
430.34	294.91
430.53	245.76
430.72	327.68
430.91	311.29
431.10	337.04
431.28	365.12
431.47	472.79
431.66	454.06
431.85	400.23
432.03	346.40
432.22	428.32
432.41	383.85
432.60	404.91
432.79	409.59
432.97	341.72
433.16	386.19
433.35	332.36
433.54	390.87
433.72	447.04
433.91	400.23
434.10	458.74
434.28	482.15
434.47	390.87
434.66	437.68
434.85	409.59
435.03	596.84
435.22	931.53
435.41	1373.89
435.59	1533.05
435.78	1160.91
435.97	777.06
436.16	641.31
436.34	489.17
436.53	444.70
436.72	444.70
436.90	411.93
437.09	355.76
437.28	440.02
437.46	393.21
437.65	397.89
437.84	322.99
438.02	404.91
438.21	369.80
438.40	369.80
438.58	454.06
438.77	416.62
438.96	381.51
439.14	418.96
439.33	416.62
439.52	470.45
439.70	418.96
439.89	414.27
440.08	423.64
440.26	486.83
440.45	428.32
440.63	472.79
440.82	491.51
441.01	444.70
441.19	514.92
441.38	547.69
441.57	531.30
441.75	465.77
441.94	512.58
442.12	479.81
442.31	512.58
442.50	484.49
442.68	477.47
442.87	472.79
443.05	451.72
443.24	449.38
443.43	550.03
443.61	533.64
443.80	437.68
443.98	500.87
444.17	472.79
444.35	479.81
444.54	512.58
444.73	477.47
444.91	493.85
445.10	447.04
445.28	463.43
445.47	472.79
445.65	496.19
445.84	489.17
446.02	500.87
446.21	477.47
446.39	435.34
446.58	454.06
446.77	484.49
446.95	407.25
447.14	458.74
447.32	503.22
447.51	435.34
447.69	505.56
447.88	493.85
448.06	554.71
448.25	479.81
448.43	484.49
448.62	425.98
448.80	507.90
448.99	524.28
449.17	566.41
449.36	360.44
449.54	512.58
449.73	505.56
449.91	545.34
450.10	531.30
450.28	566.41
450.46	589.82
450.65	601.52
450.83	465.77
451.02	500.87
451.20	517.26
451.39	505.56
451.57	596.84
451.76	491.51
451.94	550.03
452.13	547.69
452.31	580.45
452.49	393.21
452.68	510.24
452.86	491.51
453.05	528.96
453.23	524.28
453.42	482.15
453.60	461.09
453.78	461.09
453.97	484.49
454.15	540.66
454.34	587.47
454.52	510.24
454.70	493.85
454.89	461.09
455.07	517.26
455.26	472.79
455.44	559.39
455.62	575.77
455.81	578.11
455.99	493.85
456.17	550.03
456.36	486.83
456.54	526.62
456.73	477.47
456.91	500.87
457.09	531.30
457.28	596.84
457.46	664.71
457.64	538.32
457.83	482.15
458.01	498.53
458.19	517.26
458.38	526.62
458.56	500.87
458.74	440.02
458.93	477.47
459.11	496.19
459.29	491.51
459.48	540.66
459.66	521.94
459.84	561.73
460.03	596.84
460.21	531.30
460.39	493.85
460.57	528.96
460.76	538.32
460.94	550.03
461.12	484.49
461.31	613.22
461.49	503.22
461.67	540.66
461.85	578.11
462.04	507.90
462.22	636.63
462.40	552.37
462.59	526.62
462.77	589.82
462.95	582.79
463.13	498.53
463.32	599.18
463.50	573.43
463.68	578.11
463.86	496.19
464.05	489.17
464.23	540.66
464.41	564.07
464.59	543.00
464.78	519.60
464.96	498.53
465.14	575.77
465.32	498.53
465.50	559.39
465.69	554.71
465.87	470.45
466.05	498.53
466.23	442.36
466.41	458.74
466.60	519.60
466.78	456.40
466.96	528.96
467.14	496.19
467.32	526.62
467.51	521.94
467.69	507.90
467.87	547.69
468.05	505.56
468.23	573.43
468.41	580.45
468.60	463.43
468.78	526.62
468.96	578.11
469.14	559.39
469.32	568.75
469.50	486.83
469.69	482.15
469.87	585.13
470.05	451.72
470.23	475.13
470.41	489.17
470.59	503.22
470.77	496.19
470.95	526.62
471.14	491.51
471.32	559.39
471.50	557.05
471.68	531.30
471.86	561.73
472.04	503.22
472.22	596.84
472.40	535.98
472.58	540.66
472.77	465.77
472.95	610.88
473.13	610.88
473.31	496.19
473.49	606.20
473.67	566.41
473.85	568.75
474.03	655.35
474.21	594.50
474.39	568.75
474.57	653.01
474.75	566.41
474.93	564.07
475.12	475.13
475.30	601.52
475.48	596.84
475.66	592.16
475.84	596.84
476.02	538.32
476.20	585.13
476.38	566.41
476.56	634.29
476.74	610.88
476.92	479.81
477.10	561.73
477.28	697.48
477.46	636.63
477.64	627.26
477.82	648.33
478.00	650.67
478.18	608.54
478.36	660.03
478.54	678.76
478.72	634.29
478.90	662.37
479.08	655.35
479.26	688.12
479.44	629.60
479.62	589.82
479.80	575.77
479.98	671.73
480.16	627.26
480.34	720.88
480.52	613.22
480.70	664.71
480.88	650.67
481.06	667.05
481.24	664.71
481.41	638.97
481.59	753.65
481.77	648.33
481.95	737.27
482.13	692.80
482.31	688.12
482.49	692.80
482.67	765.36
482.85	727.91
483.03	699.82
483.21	744.29
483.39	784.08
483.57	770.04
483.74	755.99
483.92	697.48
484.10	741.95
484.28	770.04
484.46	807.48
484.64	667.05
484.82	774.72
485.00	730.25
485.18	763.01
485.35	821.53
485.53	671.73
485.71	718.54
485.89	683.44
486.07	615.56
486.25	737.27
486.43	772.38
486.61	795.78
486.78	753.65
486.96	793.44
487.14	814.51
487.32	863.66
487.50	807.48
487.68	919.83
487.85	706.84
488.03	805.14
488.21	903.45
488.39	833.23
488.57	856.64
488.75	849.61
488.92	1088.35
489.10	947.92
489.28	978.34
489.46	816.85
489.64	866.00
489.81	877.70
489.99	842.59
490.17	887.06
490.35	980.68
490.53	922.17
490.70	763.01
490.88	919.83
491.06	894.08
491.24	912.81
491.41	840.25
491.59	889.40
491.77	798.12
491.95	774.72
492.13	807.48
492.30	858.98
492.48	922.17
492.66	952.60
492.84	990.05
493.01	1011.11
493.19	887.06
493.37	983.02
493.54	887.06
493.72	922.17
493.90	919.83
494.08	931.53
494.25	957.28
494.43	802.80
494.61	894.08
494.79	994.73
494.96	957.28
495.14	912.81
495.32	837.91
495.49	926.85
495.67	940.90
495.85	936.21
496.02	901.11
496.20	924.51
496.38	990.05
496.55	915.15
496.73	987.71
496.91	940.90
497.09	1022.81
497.26	992.39
497.44	954.94
497.62	933.87
497.79	961.96
497.97	926.85
498.14	936.21
498.32	905.79
498.50	973.66
498.67	1015.79
498.85	901.11
499.03	947.92
499.20	952.60
499.38	917.49
499.56	877.70
499.73	912.81
499.91	966.64
500.08	954.94
500.26	816.85
500.44	856.64
500.61	938.55
500.79	835.57
500.97	823.87
501.14	882.38
501.32	844.93
501.49	858.98
501.67	919.83
501.84	891.74
502.02	849.61
502.20	961.96
502.37	910.47
502.55	947.92
502.72	1013.45
502.90	973.66
503.07	884.72
503.25	854.30
503.43	760.67
503.60	791.10
503.78	748.97
503.95	781.74
504.13	802.80
504.30	990.05
504.48	833.23
504.65	966.64
504.83	915.15
505.01	858.98
505.18	961.96
505.36	976.00
505.53	959.62
505.71	940.90
505.88	1008.77
506.06	950.26
506.23	898.77
506.41	901.11
506.58	917.49
506.76	877.70
506.93	891.74
507.11	936.21
507.28	931.53
507.46	940.90
507.63	880.04
507.81	873.02
507.98	901.11
508.16	912.81
508.33	957.28
508.50	915.15
508.68	922.17
508.85	908.13
509.03	901.11
509.20	1029.84
509.38	861.32
509.55	940.90
509.73	1001.75
509.90	945.58
510.08	1011.11
510.25	880.04
510.42	889.40
510.60	910.47
510.77	952.60
510.95	992.39
511.12	994.73
511.30	959.62
511.47	959.62
511.64	980.68
511.82	954.94
511.99	889.40
512.17	954.94
512.34	866.00
512.51	938.55
512.69	856.64
512.86	1057.92
513.04	880.04
513.21	1029.84
513.38	999.41
513.56	922.17
513.73	943.24
513.90	915.15
514.08	840.25
514.25	980.68
514.43	926.85
514.60	884.72
514.77	856.64
514.95	877.70
515.12	868.34
515.29	954.94
515.47	940.90
515.64	945.58
515.81	926.85
515.99	968.98
516.16	880.04
516.33	901.11
516.51	842.59
516.68	812.17
516.85	816.85
517.03	779.40
517.20	856.64
517.37	917.49
517.54	901.11
517.72	926.85
517.89	814.51
518.06	847.27
518.24	905.79
518.41	887.06
518.58	889.40
518.75	896.43
518.93	912.81
519.10	851.96
519.27	908.13
519.45	943.24
519.62	990.05
519.79	929.19
519.96	903.45
520.14	990.05
520.31	1055.58
520.48	936.21
520.65	908.13
520.83	976.00
521.00	987.71
521.17	931.53
521.34	959.62
521.52	961.96
521.69	889.40
521.86	990.05
522.03	954.94
522.20	1022.81
522.38	887.06
522.55	870.68
522.72	882.38
522.89	957.28
523.07	931.53
523.24	961.96
523.41	1018.13
523.58	1039.20
523.75	1029.84
523.92	1090.69
524.10	976.00
524.27	1041.54
524.44	999.41
524.61	973.66
524.78	992.39
524.96	1043.88
525.13	1041.54
525.30	1048.56
525.47	1027.50
525.64	959.62
525.81	983.02
525.98	940.90
526.16	873.02
526.33	821.53
526.50	800.46
526.67	770.04
526.84	898.77
527.01	840.25
527.18	877.70
527.36	889.40
527.53	945.58
527.70	985.37
527.87	961.96
528.04	987.71
528.21	973.66
528.38	1018.13
528.55	1020.47
528.72	964.30
528.89	973.66
529.07	1022.81
529.24	1060.26
529.41	1071.97
529.58	844.93
529.75	854.30
529.92	1004.09
530.09	1025.15
530.26	1034.52
530.43	1025.15
530.60	959.62
530.77	978.34
530.94	1022.81
531.11	1025.15
531.28	1046.22
531.46	968.98
531.63	931.53
531.80	992.39
531.97	1006.43
532.14	931.53
532.31	894.08
532.48	908.13
532.65	968.98
532.82	1004.09
532.99	1020.47
533.16	973.66
533.33	1086.01
533.50	987.71
533.67	943.24
533.84	1015.79
534.01	966.64
534.18	985.37
534.35	1039.20
534.52	938.55
534.69	1071.97
534.86	1086.01
535.03	1088.35
535.20	1034.52
535.37	980.68
535.54	1074.31
535.71	961.96
535.88	1086.01
536.05	1029.84
536.22	1095.37
536.38	1043.88
536.55	1011.11
536.72	1078.99
536.89	1029.84
537.06	983.02
537.23	1060.26
537.40	1118.78
537.57	1186.65
537.74	1130.48
537.91	1144.52
538.08	1109.41
538.25	1074.31
538.42	1137.50
538.59	1111.75
538.75	1167.93
538.92	1240.48
539.09	1224.10
539.26	1240.48
539.43	1226.44
539.60	1196.01
539.77	1380.92
539.94	1308.36
540.11	1355.17
540.28	1472.20
540.44	1495.60
540.61	1474.54
540.78	1448.79
540.95	1593.90
541.12	1818.60
541.29	1975.41
541.46	2113.50
541.62	2113.50
541.79	2057.33
541.96	1926.26
542.13	1877.11
542.30	1933.28
542.47	1863.07
542.63	1928.60
542.80	1968.39
542.97	1839.66
543.14	1811.57
543.31	1739.02
543.48	1867.75
543.64	1872.43
543.81	1909.88
543.98	1944.99
544.15	1916.90
544.32	1788.17
544.48	1818.60
544.65	1792.85
544.82	1795.19
544.99	1797.53
545.16	1762.42
545.32	1818.60
545.49	2427.14
545.66	3330.58
545.83	3988.27
546.00	3641.87
546.16	2761.83
546.33	2272.66
546.50	1942.64
546.67	1671.14
546.83	1619.65
547.00	1631.35
547.17	1488.58
547.34	1441.77
547.50	1430.07
547.67	1418.36
547.84	1460.49
548.00	1385.60
548.17	1432.41
548.34	1282.61
548.51	1444.11
548.67	1341.13
548.84	1373.89
549.01	1259.21
549.18	1434.75
549.34	1327.08
549.51	1317.72
549.68	1341.13
549.84	1219.42
550.01	1252.19
550.18	1317.72
550.34	1224.10
550.51	1231.12
550.68	1231.12
550.84	1137.50
551.01	1172.61
551.18	1170.27
551.34	1151.54
551.51	1177.29
551.68	1123.46
551.84	1055.58
552.01	1160.91
552.18	1100.05
552.34	1235.80
552.51	1060.26
552.68	1020.47
552.84	966.64
553.01	1114.10
553.18	1088.35
553.34	1025.15
553.51	997.07
553.67	1022.81
553.84	1097.71
554.01	1013.45
554.17	1156.22
554.34	1004.09
554.51	1041.54
554.67	1076.65
554.84	1011.11
555.00	952.60
555.17	919.83
555.33	1053.24
555.50	1022.81
555.67	936.21
555.83	945.58
556.00	1027.50
556.16	1121.12
556.33	978.34
556.50	961.96
556.66	1022.81
556.83	1022.81
556.99	823.87
557.16	938.55
557.32	976.00
557.49	926.85
557.65	908.13
557.82	915.15
557.98	968.98
558.15	954.94
558.32	976.00
558.48	919.83
558.65	933.87
558.81	826.21
558.98	882.38
559.14	830.89
559.31	868.34
559.47	915.15
559.64	924.51
559.80	924.51
559.97	936.21
560.13	926.85
560.30	950.26
560.46	823.87
560.63	954.94
560.79	924.51
560.96	880.04
561.12	917.49
561.29	912.81
561.45	863.66
561.61	877.70
561.78	978.34
561.94	851.96
562.11	807.48
562.27	842.59
562.44	802.80
562.60	997.07
562.77	926.85
562.93	1015.79
563.10	926.85
563.26	903.45
563.42	929.19
563.59	901.11
563.75	807.48
563.92	896.43
564.08	861.32
564.24	919.83
564.41	966.64
564.57	954.94
564.74	887.06
564.90	866.00
565.07	854.30
565.23	854.30
565.39	819.19
565.56	866.00
565.72	887.06
565.88	809.83
566.05	891.74
566.21	835.57
566.38	898.77
566.54	931.53
566.70	814.51
566.87	793.44
567.03	873.02
567.19	887.06
567.36	959.62
567.52	936.21
567.68	793.44
567.85	880.04
568.01	875.36
568.17	697.48
568.34	746.63
568.50	737.27
568.66	795.78
568.83	889.40
568.99	823.87
569.15	849.61
569.32	734.93
569.48	734.93
569.64	800.46
569.81	784.08
569.97	844.93
570.13	866.00
570.30	868.34
570.46	807.48
570.62	781.74
570.78	753.65
570.95	791.10
571.11	844.93
571.27	868.34
571.43	779.40
571.60	840.25
571.76	809.83
571.92	795.78
572.09	805.14
572.25	807.48
572.41	842.59
572.57	844.93
572.74	814.51
572.90	800.46
573.06	830.89
573.22	786.42
573.38	814.51
573.55	786.42
573.71	875.36
573.87	903.45
574.03	725.57
574.20	784.08
574.36	842.59
574.52	807.48
574.68	844.93
574.84	835.57
575.01	795.78
575.17	866.00
575.33	835.57
575.49	685.78
575.65	777.06
575.82	802.80
575.98	826.21
576.14	830.89
576.30	849.61
576.46	1013.45
576.62	1310.70
576.79	1376.24
576.95	1242.82
577.11	1006.43
577.27	1022.81
577.43	1004.09
577.59	809.83
577.75	833.23
577.92	779.40
578.08	788.76
578.24	816.85
578.40	889.40
578.56	1074.31
578.72	1156.22
578.88	1324.74
579.04	1130.48
579.21	980.68
579.37	915.15
579.53	856.64
579.69	924.51
579.85	1041.54
580.01	954.94
580.17	999.41
580.33	959.62
580.49	912.81
580.65	954.94
580.82	964.30
580.98	901.11
581.14	980.68
581.30	873.02
581.46	880.04
581.62	992.39
581.78	866.00
581.94	947.92
582.10	917.49
582.26	1015.79
582.42	1004.09
582.58	985.37
582.74	964.30
582.90	952.60
583.06	978.34
583.22	990.05
583.38	994.73
583.54	1034.52
583.70	1078.99
583.86	999.41
584.02	959.62
584.18	997.07
584.34	980.68
584.50	1006.43
584.66	901.11
584.82	1067.28
584.98	1041.54
585.14	954.94
585.30	1004.09
585.46	978.34
585.62	983.02
585.78	901.11
585.94	870.68
586.10	971.32
586.26	898.77
586.42	978.34
586.58	1064.94
586.74	1071.97
586.90	1121.12
587.06	1046.22
587.22	1116.44
587.38	901.11
587.54	1029.84
587.70	1046.22
587.86	947.92
588.02	987.71
588.18	828.55
588.34	821.53
588.49	695.14
588.65	739.61
588.81	692.80
588.97	664.71
589.13	746.63
589.29	683.44
589.45	821.53
589.61	727.91
589.77	763.01
589.93	725.57
590.08	800.46
590.24	802.80
590.40	788.76
590.56	823.87
590.72	709.18
590.88	727.91
591.04	779.40
591.20	814.51
591.35	823.87
591.51	770.04
591.67	779.40
591.83	772.38
591.99	898.77
592.15	894.08
592.31	896.43
592.46	915.15
592.62	940.90
592.78	952.60
592.94	887.06
593.10	973.66
593.26	854.30
593.41	936.21
593.57	931.53
593.73	751.31
593.89	861.32
594.05	784.08
594.20	732.59
594.36	723.23
594.52	718.54
594.68	744.29
594.84	823.87
594.99	685.78
595.15	755.99
595.31	706.84
595.47	802.80
595.62	688.12
595.78	711.52
595.94	690.46
596.10	819.19
596.25	770.04
596.41	678.76
596.57	793.44
596.73	723.23
596.88	751.31
597.04	763.01
597.20	727.91
597.36	763.01
597.51	716.20
597.67	711.52
597.83	760.67
597.99	725.57
598.14	786.42
598.30	870.68
598.46	849.61
598.61	842.59
598.77	851.96
598.93	763.01
599.09	854.30
599.24	798.12
599.40	910.47
599.56	924.51
599.71	905.79
599.87	821.53
600.03	823.87
600.18	786.42
600.34	786.42
600.50	744.29
600.65	844.93
600.81	805.14
600.97	725.57
601.12	765.36
601.28	744.29
601.44	770.04
601.59	711.52
601.75	748.97
601.91	713.86
602.06	723.23
602.22	746.63
602.37	709.18
602.53	685.78
602.69	688.12
602.84	711.52
603.00	746.63
603.16	746.63
603.31	765.36
603.47	784.08
603.62	685.78
603.78	746.63
603.94	718.54
604.09	711.52
604.25	697.48
604.40	692.80
604.56	791.10
604.71	866.00
604.87	699.82
605.03	706.84
605.18	791.10
605.34	795.78
605.49	772.38
605.65	833.23
605.80	688.12
605.96	690.46
606.12	770.04
606.27	866.00
606.43	704.50
606.58	730.25
606.74	814.51
606.89	854.30
607.05	774.72
607.20	795.78
607.36	795.78
607.51	791.10
607.67	809.83
607.82	863.66
607.98	835.57
608.13	856.64
608.29	844.93
608.44	917.49
608.60	910.47
608.75	868.34
608.91	964.30
609.06	896.43
609.22	1083.67
609.37	987.71
609.53	1109.41
609.68	1149.20
609.84	1221.76
609.99	1205.38
610.15	1371.55
610.30	1727.32
610.46	1860.73
610.61	2263.30
610.76	2621.40
610.92	3183.13
611.07	3499.10
611.23	3487.40
611.38	3335.26
611.54	2920.99
611.69	2590.97
611.84	2303.09
612.00	2003.50
612.15	1715.61
612.31	1701.57
612.46	1547.09
612.62	1373.89
612.77	1345.81
612.92	1394.96
613.08	1317.72
613.23	1252.19
613.39	1210.06
613.54	1177.29
613.69	1228.78
613.85	1207.72
614.00	1235.80
614.15	1249.85
614.31	1207.72
614.46	1219.42
614.62	1139.84
614.77	1210.06
614.92	1146.86
615.08	1062.60
615.23	1067.28
615.38	966.64
615.54	929.19
615.69	929.19
615.84	849.61
616.00	809.83
616.15	926.85
616.30	823.87
616.46	737.27
616.61	734.93
616.76	884.72
616.92	854.30
617.07	720.88
617.22	718.54
617.37	753.65
617.53	814.51
617.68	725.57
617.83	688.12
617.99	753.65
618.14	706.84
618.29	880.04
618.45	788.76
618.60	676.41
618.75	777.06
618.90	744.29
619.06	669.39
619.21	910.47
619.36	812.17
619.51	760.67
619.67	753.65
619.82	760.67
619.97	711.52
620.12	763.01
620.28	816.85
620.43	884.72
620.58	798.12
620.73	746.63
620.89	758.33
621.04	807.48
621.19	791.10
621.34	730.25
621.49	704.50
621.65	718.54
621.80	711.52
621.95	784.08
622.10	793.44
622.25	683.44
622.41	664.71
622.56	730.25
622.71	685.78
622.86	732.59
623.01	662.37
623.16	809.83
623.32	758.33
623.47	709.18
623.62	741.95
623.77	744.29
623.92	751.31
624.07	699.82
624.23	594.50
624.38	683.44
624.53	671.73
624.68	727.91
624.83	763.01
624.98	748.97
625.13	664.71
625.29	699.82
625.44	781.74
625.59	631.94
625.74	720.88
625.89	746.63
626.04	622.58
626.19	753.65
626.34	767.70
626.49	734.93
626.65	660.03
626.80	730.25
626.95	631.94
627.10	636.63
627.25	650.67
627.40	613.22
627.55	638.97
627.70	713.86
627.85	653.01
628.00	575.77
628.15	643.65
628.30	697.48
628.45	643.65
628.60	592.16
628.76	702.16
628.91	671.73
629.06	645.99
629.21	732.59
629.36	688.12
629.51	692.80
629.66	760.67
629.81	599.18
629.96	648.33
630.11	786.42
630.26	779.40
630.41	777.06
630.56	844.93
630.71	884.72
630.86	866.00
631.01	748.97
631.16	814.51
631.31	807.48
631.46	723.23
631.61	685.78
631.76	674.07
631.91	629.60
632.06	564.07
632.21	631.94
632.36	681.10
632.51	645.99
632.66	578.11
632.81	643.65
632.96	692.80
633.10	608.54
633.25	636.63
633.40	566.41
633.55	634.29
633.70	521.94
633.85	538.32
634.00	521.94
634.15	528.96
634.30	557.05
634.45	624.92
634.60	559.39
634.75	463.43
634.90	528.96
635.05	545.34
635.19	498.53
635.34	573.43
635.49	514.92
635.64	568.75
635.79	545.34
635.94	514.92
636.09	564.07
636.24	571.09
636.39	540.66
636.53	594.50
636.68	550.03
636.83	573.43
636.98	543.00
637.13	559.39
637.28	528.96
637.43	638.97
637.57	582.79
637.72	615.56
637.87	596.84
638.02	484.49
638.17	435.34
638.32	512.58
638.46	603.86
638.61	510.24
638.76	610.88
638.91	486.83
639.06	470.45
639.20	533.64
639.35	538.32
639.50	463.43
639.65	496.19
639.80	514.92
639.94	535.98
640.09	568.75
640.24	528.96
640.39	528.96
640.54	458.74
640.68	531.30
640.83	535.98
640.98	437.68
641.13	498.53
641.27	465.77
641.42	533.64
641.57	447.04
641.72	498.53
641.86	500.87
642.01	512.58
642.16	498.53
642.31	512.58
642.45	470.45
642.60	564.07
642.75	526.62
642.90	514.92
643.04	470.45
643.19	484.49
643.34	538.32
643.48	482.15
643.63	510.24
643.78	566.41
643.93	535.98
644.07	458.74
644.22	531.30
644.37	435.34
644.51	498.53
644.66	440.02
644.81	519.60
644.95	524.28
645.10	470.45
645.25	484.49
645.39	435.34
645.54	500.87
645.69	585.13
645.83	409.59
645.98	582.79
646.13	433.00
646.27	526.62
646.42	477.47
646.57	475.13
646.71	395.55
646.86	465.77
647.00	397.89
647.15	463.43
647.30	433.00
647.44	390.87
647.59	390.87
647.74	454.06
647.88	423.64
648.03	402.57
648.17	348.74
648.32	416.62
648.47	454.06
648.61	425.98
648.76	407.25
648.90	388.53
649.05	454.06
649.20	353.42
649.34	449.38
649.49	475.13
649.63	440.02
649.78	461.09
649.92	458.74
650.07	505.56
650.21	521.94
650.36	528.96
650.51	507.90
650.65	571.09
650.80	468.11
650.94	458.74
651.09	491.51
651.23	416.62
651.38	423.64
651.52	449.38
651.67	437.68
651.81	395.55
651.96	500.87
652.10	491.51
652.25	430.66
652.39	489.17
652.54	503.22
652.68	489.17
652.83	507.90
652.97	411.93
653.12	503.22
653.26	496.19
653.41	489.17
653.55	344.06
653.70	444.70
653.84	500.87
653.99	458.74
654.13	437.68
654.27	423.64
654.42	381.51
654.56	442.36
654.71	433.00
654.85	409.59
655.00	428.32
655.14	341.72
655.29	402.57
655.43	400.23
655.57	397.89
655.72	358.10
655.86	290.23
656.01	332.36
656.15	379.17
656.30	330.02
656.44	341.72
656.58	390.87
656.73	433.00
656.87	365.12
657.01	458.74
657.16	400.23
657.30	386.19
657.45	465.77
657.59	428.32
657.73	451.72
657.88	493.85
658.02	477.47
658.16	440.02
658.31	566.41
658.45	341.72
658.60	411.93
658.74	465.77
658.88	435.34
659.03	435.34
659.17	374.49
659.31	390.87
659.46	456.40
659.60	442.36
659.74	547.69
659.89	479.81
660.03	428.32
660.17	442.36
660.32	477.47
660.46	442.36
660.60	472.79
660.74	374.49
660.89	496.19
661.03	451.72
661.17	430.66
661.32	390.87
661.46	425.98
661.60	433.00
661.74	425.98
661.89	428.32
662.03	517.26
662.17	493.85
662.31	454.06
662.46	463.43
662.60	454.06
662.74	428.32
662.88	440.02
663.03	451.72
663.17	390.87
663.31	416.62
663.45	454.06
663.60	390.87
663.74	397.89
663.88	416.62
664.02	442.36
664.17	472.79
664.31	418.96
664.45	435.34
664.59	358.10
664.73	433.00
664.88	440.02
665.02	351.08
665.16	402.57
665.30	454.06
665.44	425.98
665.59	325.33
665.73	433.00
665.87	376.83
666.01	449.38
666.15	362.78
666.29	442.36
666.44	369.80
666.58	430.66
666.72	430.66
666.86	360.44
667.00	491.51
667.14	358.10
667.28	486.83
667.43	440.02
667.57	358.10
667.71	447.04
667.85	451.72
667.99	416.62
668.13	395.55
668.27	372.15
668.41	472.79
668.56	463.43
668.70	533.64
668.84	402.57
668.98	388.53
669.12	435.34
669.26	395.55
669.40	444.70
669.54	365.12
669.68	411.93
669.82	304.27
669.96	362.78
670.10	388.53
670.25	362.78
670.39	435.34
670.53	409.59
670.67	411.93
670.81	409.59
670.95	362.78
671.09	379.17
671.23	388.53
671.37	407.25
671.51	390.87
671.65	470.45
671.79	407.25
671.93	348.74
672.07	404.91
672.21	449.38
672.35	402.57
672.49	379.17
672.63	461.09
672.77	395.55
672.91	379.17
673.05	454.06
673.19	395.55
673.33	339.38
673.47	465.77
673.61	386.19
673.75	369.80
673.89	339.38
674.03	360.44
674.17	393.21
674.31	369.80
674.45	365.12
674.59	355.76
674.73	308.95
674.87	376.83
675.01	379.17
675.15	353.42
675.29	440.02
675.43	381.51
675.56	322.99
675.70	395.55
675.84	353.42
675.98	341.72
676.12	369.80
676.26	344.06
676.40	320.65
676.54	372.15
676.68	304.27
676.82	339.38
676.96	337.04
677.10	442.36
677.23	301.93
677.37	313.63
677.51	299.59
677.65	383.85
677.79	433.00
677.93	402.57
678.07	390.87
678.21	280.86
678.34	348.74
678.48	315.97
678.62	355.76
678.76	334.70
678.90	346.40
679.04	358.10
679.18	332.36
679.31	376.83
679.45	330.02
679.59	313.63
679.73	348.74
679.87	388.53
680.00	395.55
680.14	360.44
680.28	348.74
680.42	231.71
680.56	264.48
680.70	353.42
680.83	374.49
680.97	337.04
681.11	320.65
681.25	332.36
681.39	332.36
681.52	339.38
681.66	306.61
681.80	425.98
681.94	339.38
682.07	358.10
682.21	301.93
682.35	308.95
682.49	299.59
682.62	318.31
682.76	290.23
682.90	322.99
683.04	320.65
683.17	273.84
683.31	327.68
683.45	351.08
683.59	414.27
683.72	339.38
683.86	351.08
684.00	294.91
684.13	248.10
684.27	271.50
684.41	362.78
684.55	313.63
684.68	290.23
684.82	353.42
684.96	344.06
685.09	318.31
685.23	287.89
685.37	304.27
685.50	264.48
685.64	276.18
685.78	180.22
685.91	250.44
686.05	315.97
686.19	369.80
686.32	250.44
686.46	269.16
686.60	273.84
686.73	294.91
686.87	276.18
687.01	194.26
687.14	198.95
687.28	243.42
687.42	259.80
687.55	301.93
687.69	381.51
687.82	257.46
687.96	231.71
688.10	362.78
688.23	292.57
688.37	205.97
688.50	311.29
688.64	212.99
688.78	252.78
688.91	273.84
689.05	177.88
689.18	152.13
689.32	255.12
689.46	248.10
689.59	238.73
689.73	273.84
689.86	142.77
690.00	229.37
690.13	173.20
690.27	287.89
690.41	245.76
690.54	355.76
690.68	285.55
690.81	271.50
690.95	198.95
691.08	201.29
691.22	224.69
691.35	196.60
691.49	250.44
691.62	243.42
691.76	234.05
691.89	227.03
692.03	191.92
692.16	234.05
692.30	180.22
692.43	252.78
692.57	180.22
692.70	266.82
692.84	257.46
692.97	294.91
693.11	212.99
693.24	231.71
693.38	173.20
693.51	227.03
693.65	283.20
693.78	276.18
693.92	201.29
694.05	283.20
694.19	161.50
694.32	208.31
694.45	203.63
694.59	227.03
694.72	177.88
694.86	196.60
694.99	248.10
695.13	224.69
695.26	182.56
695.39	241.08
695.53	194.26
695.66	236.39
695.80	241.08
695.93	224.69
696.07	245.76
696.20	131.07
696.33	194.26
696.47	294.91
696.60	198.95
696.73	208.31
696.87	217.67
697.00	276.18
697.14	252.78
697.27	194.26
697.40	332.36
697.54	201.29
697.67	163.84
697.80	170.86
697.94	205.97
698.07	180.22
698.21	227.03
698.34	262.14
698.47	269.16
698.61	205.97
698.74	238.73
698.87	184.90
699.01	292.57
699.14	140.43
699.27	194.26
699.40	262.14
699.54	229.37
699.67	222.35
699.80	184.90
699.94	245.76
700.07	142.77
700.20	283.20
700.34	112.35
700.47	224.69
700.60	166.18
700.73	191.92
700.87	203.63
701.00	175.54
701.13	177.88
701.26	177.88
701.40	217.67
701.53	187.24
701.66	180.22
701.79	255.12
701.93	227.03
702.06	259.80
702.19	131.07
702.32	194.26
702.46	107.66
702.59	161.50
702.72	154.48
702.85	189.58
702.99	182.56
703.12	241.08
703.25	128.73
703.38	215.33
703.51	222.35
703.65	217.67
703.78	208.31
703.91	212.99
704.04	168.52
704.17	215.33
704.31	177.88
704.44	203.63
704.57	262.14
704.70	182.56
704.83	198.95
704.96	208.31
705.10	145.11
705.23	224.69
>>>>>End Processed Spectral Data<<<<<
