SpectraSuite Data File
++++++++++++++++++++++++++++++++++++
Date: Fri Oct 04 11:41:55 GMT-05:00 2013
User: price-jones
Dark Spectrum Present: No
Reference Spectrum Present: No
Number of Sampled Component Spectra: 1
Spectrometers: USB2+H05261
Integration Time (usec): 100000 (USB2+H05261)
Spectra Averaged: 1 (USB2+H05261)
Boxcar Smoothing: 0 (USB2+H05261)
Correct for Electrical Dark: No (USB2+H05261)
Strobe/Lamp Enabled: No (USB2+H05261)
Correct for Detector Non-linearity: No (USB2+H05261)
Correct for Stray Light: No (USB2+H05261)
Number of Pixels in Processed Spectrum: 2048
>>>>>Begin Processed Spectral Data<<<<<
365.73	9.36
365.92	9.36
366.12	9.36
366.32	11.70
366.52	0.00
366.72	0.00
366.91	0.00
367.11	0.00
367.31	0.00
367.51	0.00
367.70	0.00
367.90	0.00
368.10	0.00
368.30	0.00
368.49	0.00
368.69	0.00
368.89	0.00
369.09	0.00
369.28	0.00
369.48	0.00
369.68	2.34
369.87	0.00
370.07	0.00
370.27	74.90
370.47	21.06
370.66	53.83
370.86	21.06
371.06	30.43
371.25	102.98
371.45	46.81
371.65	65.54
371.84	117.03
372.04	30.43
372.24	88.94
372.44	112.35
372.63	102.98
372.83	149.79
373.03	84.26
373.22	133.41
373.42	128.73
373.62	81.92
373.81	70.22
374.01	107.66
374.21	152.13
374.40	114.69
374.60	201.29
374.79	147.45
374.99	112.35
375.19	135.75
375.38	241.08
375.58	212.99
375.78	208.31
375.97	175.54
376.17	156.82
376.37	32.77
376.56	194.26
376.76	175.54
376.95	39.79
377.15	168.52
377.35	149.79
377.54	159.16
377.74	147.45
377.93	149.79
378.13	107.66
378.33	163.84
378.52	23.41
378.72	159.16
378.91	152.13
379.11	189.58
379.31	189.58
379.50	140.43
379.70	152.13
379.89	154.48
380.09	149.79
380.28	124.05
380.48	163.84
380.68	145.11
380.87	126.39
381.07	149.79
381.26	163.84
381.46	126.39
381.65	135.75
381.85	93.62
382.04	156.82
382.24	124.05
382.43	154.48
382.63	105.32
382.83	152.13
383.02	128.73
383.22	210.65
383.41	147.45
383.61	163.84
383.80	72.56
384.00	35.11
384.19	81.92
384.39	138.09
384.58	114.69
384.78	184.90
384.97	81.92
385.17	100.64
385.36	114.69
385.56	128.73
385.75	91.28
385.95	154.48
386.14	105.32
386.34	201.29
386.53	95.96
386.72	74.90
386.92	98.30
387.11	196.60
387.31	124.05
387.50	88.94
387.70	105.32
387.89	147.45
388.09	180.22
388.28	117.03
388.48	126.39
388.67	79.58
388.86	163.84
389.06	121.71
389.25	212.99
389.45	163.84
389.64	112.35
389.84	156.82
390.03	133.41
390.22	121.71
390.42	110.01
390.61	119.37
390.81	72.56
391.00	121.71
391.19	133.41
391.39	149.79
391.58	154.48
391.78	100.64
391.97	39.79
392.16	93.62
392.36	210.65
392.55	175.54
392.75	175.54
392.94	124.05
393.13	182.56
393.33	138.09
393.52	114.69
393.71	135.75
393.91	93.62
394.10	81.92
394.29	175.54
394.49	149.79
394.68	131.07
394.88	142.77
395.07	170.86
395.26	142.77
395.46	124.05
395.65	95.96
395.84	154.48
396.04	191.92
396.23	84.26
396.42	140.43
396.62	147.45
396.81	63.19
397.00	147.45
397.19	140.43
397.39	175.54
397.58	191.92
397.77	124.05
397.97	168.52
398.16	220.01
398.35	212.99
398.55	128.73
398.74	161.50
398.93	147.45
399.12	95.96
399.32	117.03
399.51	119.37
399.70	128.73
399.90	112.35
400.09	119.37
400.28	182.56
400.47	191.92
400.67	238.73
400.86	105.32
401.05	224.69
401.24	149.79
401.44	191.92
401.63	243.42
401.82	222.35
402.01	212.99
402.21	182.56
402.40	131.07
402.59	201.29
402.78	154.48
402.97	182.56
403.17	332.36
403.36	290.23
403.55	397.89
403.74	702.16
403.93	2155.63
404.13	5617.29
404.32	9481.51
404.51	9708.54
404.70	6403.71
404.89	2179.04
405.09	688.12
405.28	306.61
405.47	304.27
405.66	273.84
405.85	271.50
406.05	229.37
406.24	236.39
406.43	224.69
406.62	276.18
406.81	294.91
407.00	475.13
407.20	723.23
407.39	1158.57
407.58	1486.24
407.77	1203.04
407.96	655.35
408.15	285.55
408.34	177.88
408.54	297.25
408.73	173.20
408.92	205.97
409.11	231.71
409.30	236.39
409.49	236.39
409.68	217.67
409.87	187.24
410.07	208.31
410.26	283.20
410.45	224.69
410.64	273.84
410.83	194.26
411.02	222.35
411.21	320.65
411.40	337.04
411.59	222.35
411.78	229.37
411.98	203.63
412.17	259.80
412.36	205.97
412.55	198.95
412.74	170.86
412.93	229.37
413.12	212.99
413.31	238.73
413.50	278.52
413.69	229.37
413.88	308.95
414.07	243.42
414.26	184.90
414.45	224.69
414.64	234.05
414.83	290.23
415.02	287.89
415.22	257.46
415.41	283.20
415.60	306.61
415.79	339.38
415.98	301.93
416.17	360.44
416.36	322.99
416.55	330.02
416.74	278.52
416.93	271.50
417.12	266.82
417.31	252.78
417.50	287.89
417.69	330.02
417.88	248.10
418.07	297.25
418.26	311.29
418.45	252.78
418.64	355.76
418.83	257.46
419.02	294.91
419.21	262.14
419.39	271.50
419.58	318.31
419.77	266.82
419.96	306.61
420.15	348.74
420.34	313.63
420.53	339.38
420.72	322.99
420.91	344.06
421.10	301.93
421.29	292.57
421.48	276.18
421.67	374.49
421.86	273.84
422.05	313.63
422.24	287.89
422.43	362.78
422.61	283.20
422.80	285.55
422.99	334.70
423.18	250.44
423.37	442.36
423.56	360.44
423.75	353.42
423.94	344.06
424.13	369.80
424.32	308.95
424.50	379.17
424.69	383.85
424.88	339.38
425.07	339.38
425.26	400.23
425.45	369.80
425.64	372.15
425.83	318.31
426.01	386.19
426.20	386.19
426.39	433.00
426.58	376.83
426.77	381.51
426.96	388.53
427.15	500.87
427.33	416.62
427.52	388.53
427.71	339.38
427.90	386.19
428.09	362.78
428.28	444.70
428.46	458.74
428.65	404.91
428.84	498.53
429.03	496.19
429.22	407.25
429.40	444.70
429.59	435.34
429.78	442.36
429.97	458.74
430.16	458.74
430.34	477.47
430.53	477.47
430.72	379.17
430.91	397.89
431.10	393.21
431.28	496.19
431.47	503.22
431.66	538.32
431.85	458.74
432.03	416.62
432.22	594.50
432.41	535.98
432.60	634.29
432.79	547.69
432.97	636.63
433.16	685.78
433.35	664.71
433.54	819.19
433.72	912.81
433.91	788.76
434.10	926.85
434.28	1001.75
434.47	1413.68
434.66	1432.41
434.85	1657.10
435.03	3925.08
435.22	14281.95
435.41	36151.91
435.59	49514.03
435.78	37890.93
435.97	16620.14
436.16	6195.40
436.34	2059.67
436.53	1139.84
436.72	985.37
436.90	875.36
437.09	685.78
437.28	608.54
437.46	678.76
437.65	685.78
437.84	643.65
438.02	638.97
438.21	617.90
438.40	575.77
438.58	624.92
438.77	571.09
438.96	531.30
439.14	535.98
439.33	669.39
439.52	559.39
439.70	543.00
439.89	550.03
440.08	650.67
440.26	545.34
440.45	561.73
440.63	692.80
440.82	545.34
441.01	559.39
441.19	589.82
441.38	550.03
441.57	610.88
441.75	617.90
441.94	613.22
442.12	592.16
442.31	629.60
442.50	564.07
442.68	603.86
442.87	641.31
443.05	578.11
443.24	526.62
443.43	580.45
443.61	655.35
443.80	540.66
443.98	566.41
444.17	615.56
444.35	554.71
444.54	545.34
444.73	571.09
444.91	608.54
445.10	535.98
445.28	535.98
445.47	568.75
445.65	662.37
445.84	613.22
446.02	603.86
446.21	510.24
446.39	603.86
446.58	557.05
446.77	578.11
446.95	564.07
447.14	613.22
447.32	585.13
447.51	559.39
447.69	493.85
447.88	596.84
448.06	589.82
448.25	608.54
448.43	683.44
448.62	606.20
448.80	594.50
448.99	627.26
449.17	514.92
449.36	559.39
449.54	540.66
449.73	493.85
449.91	561.73
450.10	601.52
450.28	664.71
450.46	585.13
450.65	578.11
450.83	624.92
451.02	493.85
451.20	585.13
451.39	535.98
451.57	582.79
451.76	580.45
451.94	557.05
452.13	528.96
452.31	557.05
452.49	580.45
452.68	458.74
452.86	610.88
453.05	596.84
453.23	482.15
453.42	517.26
453.60	622.58
453.78	578.11
453.97	631.94
454.15	482.15
454.34	587.47
454.52	573.43
454.70	634.29
454.89	580.45
455.07	547.69
455.26	573.43
455.44	561.73
455.62	568.75
455.81	568.75
455.99	575.77
456.17	533.64
456.36	540.66
456.54	543.00
456.73	582.79
456.91	557.05
457.09	638.97
457.28	521.94
457.46	557.05
457.64	575.77
457.83	528.96
458.01	571.09
458.19	617.90
458.38	547.69
458.56	566.41
458.74	610.88
458.93	603.86
459.11	566.41
459.29	589.82
459.48	571.09
459.66	526.62
459.84	519.60
460.03	657.69
460.21	608.54
460.39	540.66
460.57	521.94
460.76	489.17
460.94	561.73
461.12	617.90
461.31	608.54
461.49	606.20
461.67	585.13
461.85	526.62
462.04	526.62
462.22	1048.56
462.40	613.22
462.59	543.00
462.77	456.40
462.95	550.03
463.13	503.22
463.32	599.18
463.50	543.00
463.68	505.56
463.86	566.41
464.05	571.09
464.23	599.18
464.41	610.88
464.59	543.00
464.78	564.07
464.96	599.18
465.14	543.00
465.32	545.34
465.50	528.96
465.69	491.51
465.87	489.17
466.05	578.11
466.23	503.22
466.41	472.79
466.60	573.43
466.78	608.54
466.96	578.11
467.14	648.33
467.32	594.50
467.51	615.56
467.69	519.60
467.87	585.13
468.05	503.22
468.23	578.11
468.41	486.83
468.60	507.90
468.78	528.96
468.96	519.60
469.14	528.96
469.32	524.28
469.50	461.09
469.69	482.15
469.87	514.92
470.05	491.51
470.23	519.60
470.41	535.98
470.59	580.45
470.77	440.02
470.95	538.32
471.14	531.30
471.32	493.85
471.50	571.09
471.68	575.77
471.86	437.68
472.04	521.94
472.22	552.37
472.40	512.58
472.58	472.79
472.77	566.41
472.95	484.49
473.13	512.58
473.31	514.92
473.49	493.85
473.67	543.00
473.85	477.47
474.03	491.51
474.21	486.83
474.39	594.50
474.57	507.90
474.75	484.49
474.93	552.37
475.12	440.02
475.30	524.28
475.48	472.79
475.66	514.92
475.84	543.00
476.02	580.45
476.20	543.00
476.38	554.71
476.56	594.50
476.74	535.98
476.92	557.05
477.10	540.66
477.28	547.69
477.46	585.13
477.64	662.37
477.82	566.41
478.00	589.82
478.18	624.92
478.36	685.78
478.54	568.75
478.72	606.20
478.90	751.31
479.08	660.03
479.26	620.24
479.44	674.07
479.62	678.76
479.80	709.18
479.98	760.67
480.16	718.54
480.34	758.33
480.52	828.55
480.70	915.15
480.88	844.93
481.06	903.45
481.24	943.24
481.41	994.73
481.59	1102.39
481.77	1160.91
481.95	1221.76
482.13	1306.02
482.31	1390.28
482.49	1371.55
482.67	1589.22
482.85	1640.72
483.03	1849.02
483.21	1933.28
483.39	2129.89
483.57	2160.31
483.74	2207.13
483.92	2438.84
484.10	2541.82
484.28	2747.79
484.46	2867.16
484.64	3040.36
484.82	3110.57
485.00	3180.79
485.18	3471.01
485.35	3574.00
485.53	3981.25
485.71	4058.49
485.89	4271.48
486.07	4250.41
486.25	4383.82
486.43	4418.93
486.61	4231.69
486.78	4432.97
486.96	4376.80
487.14	4369.78
487.32	4234.03
487.50	4292.54
487.68	4376.80
487.85	4322.97
488.03	4227.01
488.21	4168.49
488.39	4004.66
488.57	4009.34
488.75	4032.74
488.92	4065.51
489.10	3730.81
489.28	3686.34
489.46	3468.67
489.64	3361.01
489.81	3435.91
489.99	3187.81
490.17	3300.16
490.35	3447.61
490.53	3330.58
490.70	3094.19
490.88	3239.30
491.06	3330.58
491.24	3700.39
491.41	3768.26
491.59	3559.95
491.77	3274.41
491.95	3169.09
492.13	3089.51
492.30	2967.80
492.48	2949.08
492.66	2902.26
492.84	2876.52
493.01	2874.18
493.19	2787.58
493.37	2972.48
493.54	2696.30
493.72	2834.39
493.90	2597.99
494.08	2502.03
494.25	2640.12
494.43	2562.89
494.61	2459.90
494.79	2394.37
494.96	2387.35
495.14	2406.07
495.32	2291.38
495.49	2263.30
495.67	2246.91
495.85	2150.95
496.02	2200.10
496.20	2064.35
496.38	2094.78
496.55	2146.27
496.73	2115.84
496.91	2022.22
497.09	2019.88
497.26	1994.14
497.44	1935.62
497.62	1879.45
497.79	1865.41
497.97	1785.83
498.14	1741.36
498.32	1680.50
498.50	1727.32
498.67	1572.84
498.85	1575.18
499.03	1556.46
499.20	1521.35
499.38	1467.52
499.56	1497.94
499.73	1516.67
499.91	1383.26
500.08	1359.85
500.26	1291.98
500.44	1252.19
500.61	1282.61
500.79	1135.16
500.97	1170.27
501.14	1196.01
501.32	1132.82
501.49	1097.71
501.67	1048.56
501.84	961.96
502.02	973.66
502.20	1041.54
502.37	983.02
502.55	950.26
502.72	992.39
502.90	985.37
503.07	849.61
503.25	835.57
503.43	774.72
503.60	844.93
503.78	849.61
503.95	877.70
504.13	779.40
504.30	648.33
504.48	753.65
504.65	781.74
504.83	671.73
505.01	645.99
505.18	676.41
505.36	716.20
505.53	702.16
505.71	664.71
505.88	669.39
506.06	653.01
506.23	615.56
506.41	629.60
506.58	545.34
506.76	601.52
506.93	564.07
507.11	594.50
507.28	554.71
507.46	557.05
507.63	566.41
507.81	554.71
507.98	552.37
508.16	545.34
508.33	521.94
508.50	655.35
508.68	622.58
508.85	713.86
509.03	648.33
509.20	685.78
509.38	631.94
509.55	681.10
509.73	608.54
509.90	526.62
510.08	566.41
510.25	503.22
510.42	458.74
510.60	559.39
510.77	465.77
510.95	585.13
511.12	587.47
511.30	456.40
511.47	533.64
511.64	557.05
511.82	533.64
511.99	470.45
512.17	587.47
512.34	449.38
512.51	470.45
512.69	491.51
512.86	479.81
513.04	491.51
513.21	528.96
513.38	507.90
513.56	503.22
513.73	489.17
513.90	493.85
514.08	433.00
514.25	430.66
514.43	524.28
514.60	507.90
514.77	472.79
514.95	421.30
515.12	430.66
515.29	421.30
515.47	463.43
515.64	472.79
515.81	442.36
515.99	510.24
516.16	458.74
516.33	503.22
516.51	493.85
516.68	463.43
516.85	442.36
517.03	514.92
517.20	451.72
517.37	500.87
517.54	477.47
517.72	451.72
517.89	421.30
518.06	416.62
518.24	376.83
518.41	521.94
518.58	397.89
518.75	479.81
518.93	414.27
519.10	411.93
519.27	433.00
519.45	461.09
519.62	400.23
519.79	486.83
519.96	449.38
520.14	479.81
520.31	402.57
520.48	395.55
520.65	388.53
520.83	409.59
521.00	447.04
521.17	425.98
521.34	383.85
521.52	428.32
521.69	388.53
521.86	433.00
522.03	435.34
522.20	454.06
522.38	409.59
522.55	358.10
522.72	395.55
522.89	395.55
523.07	447.04
523.24	486.83
523.41	402.57
523.58	418.96
523.75	470.45
523.92	379.17
524.10	400.23
524.27	486.83
524.44	435.34
524.61	421.30
524.78	430.66
524.96	503.22
525.13	407.25
525.30	433.00
525.47	496.19
525.64	482.15
525.81	479.81
525.98	498.53
526.16	433.00
526.33	491.51
526.50	489.17
526.67	454.06
526.84	463.43
527.01	463.43
527.18	512.58
527.36	599.18
527.53	512.58
527.70	631.94
527.87	557.05
528.04	521.94
528.21	500.87
528.38	589.82
528.55	571.09
528.72	524.28
528.89	592.16
529.07	624.92
529.24	615.56
529.41	648.33
529.58	561.73
529.75	683.44
529.92	540.66
530.09	543.00
530.26	617.90
530.43	641.31
530.60	704.50
530.77	585.13
530.94	706.84
531.11	678.76
531.28	678.76
531.46	709.18
531.63	788.76
531.80	851.96
531.97	840.25
532.14	1011.11
532.31	1149.20
532.48	1441.77
532.65	1591.56
532.82	1762.42
532.99	2122.87
533.16	2408.41
533.33	2700.98
533.50	2626.08
533.67	2122.87
533.84	1881.79
534.01	1600.93
534.18	1483.90
534.35	1502.62
534.52	1486.24
534.69	1636.03
534.86	1561.14
535.03	1610.29
535.20	1584.54
535.37	1823.28
535.54	1851.36
535.71	2036.27
535.88	2036.27
536.05	2200.10
536.22	2303.09
536.38	2637.78
536.55	2717.36
536.72	3246.32
536.89	3527.19
537.06	3927.42
537.23	4341.69
537.40	4830.87
537.57	5102.37
537.74	5570.48
537.91	5870.06
538.08	5872.40
538.25	5942.62
538.42	6003.47
538.59	6031.56
538.75	6202.42
538.92	6539.46
539.09	7103.53
539.26	7971.86
539.43	9088.30
539.60	10260.91
539.77	11456.92
539.94	12898.69
540.11	14223.44
540.28	16063.10
540.44	17488.48
540.61	19269.63
540.78	21755.28
540.95	26111.02
541.12	31821.92
541.29	36409.37
541.46	38483.09
541.62	37991.58
541.79	36676.19
541.96	33912.02
542.13	31262.54
542.30	29188.82
542.47	27927.27
542.63	26326.35
542.80	25591.42
542.97	24657.54
543.14	24781.59
543.31	24313.48
543.48	24627.12
543.64	25156.08
543.81	25179.48
543.98	25240.34
544.15	25614.82
544.32	26085.27
544.48	25893.35
544.65	25343.32
544.82	24769.89
544.99	25060.12
545.16	25397.15
545.32	26796.79
545.49	38567.35
545.66	58857.45
545.83	65535.00
546.00	65535.00
546.16	60746.26
546.33	43957.60
546.50	33617.11
546.67	25902.71
546.83	23124.49
547.00	22373.18
547.17	21284.83
547.34	20489.05
547.50	19531.77
547.67	18934.93
547.84	17790.41
548.00	17305.92
548.17	17259.11
548.34	15850.11
548.51	15843.09
548.67	14740.69
548.84	14193.01
549.01	13343.39
549.18	12720.81
549.34	12233.98
549.51	11763.53
549.68	11363.30
549.84	10860.09
550.01	10305.38
550.18	9898.13
550.34	9200.65
550.51	8800.41
550.68	8526.57
550.84	8145.06
551.01	7660.57
551.18	7353.96
551.34	6981.82
551.51	6665.85
551.68	6317.11
551.84	6305.40
552.01	5844.32
552.18	5624.31
552.34	5322.38
552.51	5146.84
552.68	5057.90
552.84	4781.71
553.01	4540.64
553.18	4444.68
553.34	4299.56
553.51	4166.15
553.67	4053.81
553.84	3974.23
554.01	3620.81
554.17	3452.29
554.34	3103.55
554.51	2939.71
554.67	2743.11
554.84	2686.94
555.00	2525.44
555.17	2424.80
555.33	2300.75
555.50	2125.21
555.67	2059.67
555.83	1982.43
556.00	1982.43
556.16	1970.73
556.33	1767.10
556.50	1703.91
556.66	1607.95
556.83	1544.75
556.99	1526.03
557.16	1659.44
557.32	1444.11
557.49	1413.68
557.65	1399.64
557.82	1413.68
557.98	1284.95
558.15	1259.21
558.32	1331.76
558.48	1158.57
558.65	1266.23
558.81	1221.76
558.98	1128.14
559.14	1123.46
559.31	1146.86
559.47	1153.88
559.64	959.62
559.80	1067.28
559.97	952.60
560.13	994.73
560.30	1034.52
560.46	1048.56
560.63	1043.88
560.79	954.94
560.96	1121.12
561.12	1036.86
561.29	957.28
561.45	973.66
561.61	976.00
561.78	1102.39
561.94	1029.84
562.11	1050.90
562.27	940.90
562.44	926.85
562.60	943.24
562.77	936.21
562.93	1018.13
563.10	926.85
563.26	952.60
563.42	985.37
563.59	931.53
563.75	896.43
563.92	830.89
564.08	908.13
564.24	889.40
564.41	898.77
564.57	828.55
564.74	770.04
564.90	840.25
565.07	800.46
565.23	835.57
565.39	823.87
565.56	809.83
565.72	716.20
565.88	795.78
566.05	662.37
566.21	763.01
566.38	788.76
566.54	809.83
566.70	795.78
566.87	807.48
567.03	751.31
567.19	816.85
567.36	772.38
567.52	706.84
567.68	763.01
567.85	723.23
568.01	748.97
568.17	737.27
568.34	851.96
568.50	819.19
568.66	802.80
568.83	840.25
568.99	784.08
569.15	816.85
569.32	667.05
569.48	655.35
569.64	702.16
569.81	606.20
569.97	571.09
570.13	578.11
570.30	615.56
570.46	557.05
570.62	557.05
570.78	638.97
570.95	552.37
571.11	655.35
571.27	585.13
571.43	580.45
571.60	608.54
571.76	500.87
571.92	550.03
572.09	587.47
572.25	596.84
572.41	575.77
572.57	615.56
572.74	688.12
572.90	613.22
573.06	608.54
573.22	603.86
573.38	575.77
573.55	636.63
573.71	727.91
573.87	624.92
574.03	643.65
574.20	617.90
574.36	655.35
574.52	748.97
574.68	695.14
574.84	772.38
575.01	903.45
575.17	830.89
575.33	826.21
575.49	987.71
575.65	1039.20
575.82	999.41
575.98	1210.06
576.14	1359.85
576.30	2387.35
576.46	7461.63
576.62	15014.54
576.79	20858.85
576.95	15309.44
577.11	9104.68
577.27	6054.97
577.43	3922.74
577.59	2637.78
577.75	2036.27
577.92	1830.30
578.08	1879.45
578.24	1816.26
578.40	2686.94
578.56	7016.93
578.72	13834.91
578.88	18946.64
579.04	13785.76
579.21	8505.51
579.37	6017.52
579.53	4676.39
579.69	4156.79
579.85	5193.65
580.01	6466.90
580.17	6698.61
580.33	5584.52
580.49	4634.26
580.65	4159.13
580.82	3756.56
580.98	3627.83
581.14	3646.55
581.30	3936.78
581.46	4266.80
581.62	4521.92
581.78	4833.21
581.94	5181.95
582.10	5479.19
582.26	5947.30
582.42	6183.70
582.58	6211.78
582.74	6284.34
582.90	6436.47
583.06	6595.63
583.22	6375.62
583.38	6387.32
583.54	6462.22
583.70	6462.22
583.86	6518.39
584.02	6277.32
584.18	6134.54
584.34	5998.79
584.50	6122.84
584.66	5806.87
584.82	5778.78
584.98	5858.36
585.14	5598.56
585.30	5467.49
585.46	5376.21
585.62	5352.81
585.78	5394.93
585.94	5172.58
586.10	5394.93
586.26	5537.71
586.42	6408.39
586.58	7330.56
586.74	9282.56
586.90	11033.29
587.06	12861.24
587.22	12982.95
587.38	11887.58
587.54	10087.71
587.70	8243.37
587.86	6895.22
588.02	5977.73
588.18	5263.86
588.34	4716.18
588.49	4365.10
588.65	4133.39
588.81	3791.67
588.97	3768.26
589.13	3588.04
589.29	3508.46
589.45	3478.04
589.61	3459.31
589.77	3489.74
589.93	3641.87
590.08	3585.70
590.24	3794.01
590.40	3875.93
590.56	3995.29
590.72	3922.74
590.88	4056.15
591.04	4290.20
591.20	4416.59
591.35	4802.78
591.51	4861.29
591.67	5071.94
591.83	5298.97
591.99	5781.12
592.15	6141.57
592.31	6672.87
592.46	7618.44
592.62	8255.07
592.78	8975.95
592.94	9369.16
593.10	9151.49
593.26	8751.26
593.41	8028.04
593.57	7269.70
593.73	6342.85
593.89	5694.52
594.05	5093.01
594.20	4447.02
594.36	4163.81
594.52	3770.60
594.68	3574.00
594.84	3473.36
594.99	3419.52
595.15	3126.96
595.31	3288.45
595.47	3159.72
595.62	3178.45
595.78	3180.79
595.94	3112.91
596.10	3164.40
596.25	3197.17
596.41	3176.11
596.57	3311.86
596.73	3080.14
596.88	3150.36
597.04	3119.93
597.20	3136.32
597.36	3126.96
597.51	3309.52
597.67	3435.91
597.83	3534.21
597.99	3854.86
598.14	4016.36
598.30	4182.54
598.46	4463.40
598.61	4645.96
598.77	4851.93
598.93	5132.79
599.09	5205.35
599.24	5324.72
599.40	5390.25
599.56	5203.01
599.71	5083.64
599.87	4730.22
600.03	4397.87
600.18	4255.09
600.34	4049.13
600.50	3698.05
600.65	3463.99
600.81	3246.32
600.97	3047.38
601.12	2864.82
601.28	2696.30
601.44	2633.10
601.59	2396.71
601.75	2438.84
601.91	2352.24
602.06	2314.79
602.22	2253.94
602.37	2087.76
602.53	2165.00
602.69	1937.96
602.84	2019.88
603.00	2015.20
603.16	2118.18
603.31	2195.42
603.47	2165.00
603.62	2291.38
603.78	2221.17
603.94	2092.44
604.09	2223.51
604.25	2403.73
604.40	2356.92
604.56	2408.41
604.71	2464.58
604.87	2450.54
605.03	2497.35
605.18	2569.91
605.34	2492.67
605.49	2661.19
605.65	2764.17
605.80	2878.86
605.96	2801.62
606.12	3012.27
606.27	3243.98
606.43	3267.39
606.58	3543.57
606.74	3648.90
606.89	3662.94
607.05	3997.64
607.20	4079.55
607.36	4411.91
607.51	4571.07
607.67	4929.17
607.82	5277.91
607.98	5771.76
608.13	5907.51
608.29	6539.46
608.44	7101.19
608.60	7714.41
608.75	8479.76
608.91	8980.64
609.06	9987.07
609.22	11286.06
609.37	12461.01
609.53	14064.28
609.68	15693.29
609.84	17612.53
609.99	20985.24
610.15	25186.50
610.30	30611.87
610.46	38806.08
610.61	48509.94
610.76	56671.39
610.92	62068.67
611.07	65535.00
611.23	65535.00
611.38	65448.40
611.54	62557.84
611.69	58817.66
611.84	54237.23
612.00	46990.94
612.15	39386.54
612.31	34242.04
612.46	30309.94
612.62	28107.49
612.77	26712.53
612.92	25453.33
613.08	24280.72
613.23	22906.82
613.39	21628.89
613.54	21120.99
613.69	20056.05
613.85	20329.89
614.00	20355.64
614.15	20589.69
614.31	20240.95
614.46	19302.40
614.62	18597.90
614.77	17900.42
614.92	16786.32
615.08	15597.33
615.23	14300.67
615.38	13301.26
615.54	12180.15
615.69	11293.08
615.84	9968.34
616.00	9408.95
616.15	8826.16
616.30	8411.89
616.46	7625.47
616.61	7236.94
616.76	6918.62
616.92	6352.21
617.07	5919.21
617.22	5685.16
617.37	5490.90
617.53	5156.20
617.68	4919.81
617.83	4765.33
617.99	4606.17
618.14	4704.48
618.29	4468.08
618.45	4327.65
618.60	4264.46
618.75	4079.55
618.90	4091.26
619.06	4276.16
619.21	3990.61
619.36	4126.36
619.51	4042.11
619.67	4138.07
619.82	4121.68
619.97	4170.83
620.12	4053.81
620.28	4308.93
620.43	4386.16
620.58	4400.21
620.73	4409.57
620.89	4437.66
621.04	4482.13
621.19	4362.76
621.34	4348.72
621.49	4210.62
621.65	4297.22
621.80	4271.48
621.95	4152.11
622.10	4283.18
622.25	4365.10
622.41	4374.46
622.56	4470.42
622.71	4566.39
622.86	4741.93
623.01	4868.31
623.16	4713.84
623.32	4784.06
623.47	4770.01
623.62	4727.88
623.77	4762.99
623.92	4863.63
624.07	4873.00
624.23	4809.80
624.38	4699.80
624.53	4798.10
624.68	4793.42
624.83	4980.66
624.98	5050.88
625.13	4812.14
625.29	4849.59
625.44	4952.57
625.59	5050.88
625.74	4901.08
625.89	5039.17
626.04	5027.47
626.19	5062.58
626.34	4910.44
626.49	4940.87
626.65	4737.24
626.80	4779.37
626.95	4685.75
627.10	4671.71
627.25	4629.58
627.40	4589.79
627.55	4327.65
627.70	4381.48
627.85	4409.57
628.00	4542.98
628.15	4440.00
628.30	4304.25
628.45	4339.35
628.60	4337.01
628.76	4294.88
628.91	4376.80
629.06	4409.57
629.21	4531.28
629.36	4648.30
629.51	4629.58
629.66	4865.97
629.81	5224.08
629.96	5713.25
630.11	6399.02
630.26	7052.03
630.41	7953.14
630.56	8727.86
630.71	9446.40
630.86	9846.63
631.01	9708.54
631.16	8819.14
631.31	8152.09
631.46	6918.62
631.61	5748.36
631.76	4844.91
631.91	4077.21
632.06	3456.97
632.21	3019.29
632.36	2597.99
632.51	2239.89
632.66	2169.68
632.81	1959.03
632.96	1762.42
633.10	1771.79
633.25	1678.16
633.40	1652.42
633.55	1432.41
633.70	1406.66
633.85	1404.32
634.00	1425.39
634.15	1329.42
634.30	1266.23
634.45	1373.89
634.60	1221.76
634.75	1280.27
634.90	1146.86
635.05	1200.69
635.19	1270.91
635.34	1203.04
635.49	1130.48
635.64	1167.93
635.79	1102.39
635.94	1100.05
636.09	1135.16
636.24	1109.41
636.39	983.02
636.53	1043.88
636.68	1001.75
636.83	973.66
636.98	1114.10
637.13	924.51
637.28	976.00
637.43	961.96
637.57	959.62
637.72	889.40
637.87	971.32
638.02	877.70
638.17	976.00
638.32	828.55
638.46	912.81
638.61	805.14
638.76	849.61
638.91	760.67
639.06	791.10
639.20	727.91
639.35	929.19
639.50	777.06
639.65	844.93
639.80	821.53
639.94	788.76
640.09	802.80
640.24	896.43
640.39	826.21
640.54	805.14
640.68	781.74
640.83	823.87
640.98	758.33
641.13	807.48
641.27	741.95
641.42	863.66
641.57	861.32
641.72	891.74
641.86	791.10
642.01	781.74
642.16	781.74
642.31	844.93
642.45	901.11
642.60	863.66
642.75	763.01
642.90	833.23
643.04	800.46
643.19	800.46
643.34	760.67
643.48	784.08
643.63	730.25
643.78	844.93
643.93	835.57
644.07	737.27
644.22	795.78
644.37	821.53
644.51	870.68
644.66	901.11
644.81	734.93
644.95	887.06
645.10	767.70
645.25	819.19
645.39	816.85
645.54	814.51
645.69	821.53
645.83	709.18
645.98	816.85
646.13	653.01
646.27	704.50
646.42	617.90
646.57	727.91
646.71	720.88
646.86	711.52
647.00	690.46
647.15	781.74
647.30	727.91
647.44	763.01
647.59	730.25
647.74	734.93
647.88	753.65
648.03	866.00
648.17	746.63
648.32	697.48
648.47	755.99
648.61	826.21
648.76	788.76
648.90	903.45
649.05	875.36
649.20	889.40
649.34	985.37
649.49	1029.84
649.63	1315.38
649.78	1500.28
649.92	1746.04
650.07	2113.50
650.21	2588.63
650.36	2705.66
650.51	2661.19
650.65	2480.97
650.80	2328.83
650.94	2029.24
651.09	1905.20
651.23	1572.84
651.38	1385.60
651.52	1364.53
651.67	1200.69
651.81	1104.73
651.96	1078.99
652.10	997.07
652.25	945.58
652.39	978.34
652.54	1064.94
652.68	1254.53
652.83	1254.53
652.97	1261.55
653.12	1397.30
653.26	1366.87
653.41	1273.25
653.55	1170.27
653.70	1053.24
653.84	882.38
653.99	903.45
654.13	835.57
654.27	798.12
654.42	807.48
654.56	847.27
654.71	765.36
654.85	725.57
655.00	699.82
655.14	683.44
655.29	821.53
655.43	763.01
655.57	734.93
655.72	692.80
655.86	697.48
656.01	713.86
656.15	629.60
656.30	758.33
656.44	603.86
656.58	664.71
656.73	690.46
656.87	716.20
657.01	755.99
657.16	870.68
657.30	765.36
657.45	884.72
657.59	854.30
657.73	901.11
657.88	868.34
658.02	961.96
658.16	847.27
658.31	744.29
658.45	795.78
658.60	650.67
658.74	636.63
658.88	636.63
659.03	561.73
659.17	664.71
659.31	603.86
659.46	561.73
659.60	571.09
659.74	496.19
659.89	566.41
660.03	543.00
660.17	585.13
660.32	435.34
660.46	491.51
660.60	498.53
660.74	566.41
660.89	634.29
661.03	552.37
661.17	636.63
661.32	610.88
661.46	751.31
661.60	809.83
661.74	1100.05
661.89	1184.31
662.03	1345.81
662.17	1551.78
662.31	1703.91
662.46	1533.05
662.60	1455.81
662.74	1315.38
662.88	1174.95
663.03	1048.56
663.17	978.34
663.31	910.47
663.45	793.44
663.60	863.66
663.74	697.48
663.88	786.42
664.02	669.39
664.17	606.20
664.31	531.30
664.45	645.99
664.59	589.82
664.73	641.31
664.88	608.54
665.02	617.90
665.16	540.66
665.30	535.98
665.44	491.51
665.59	440.02
665.73	531.30
665.87	557.05
666.01	528.96
666.15	498.53
666.29	451.72
666.44	566.41
666.58	528.96
666.72	444.70
666.86	491.51
667.00	547.69
667.14	557.05
667.28	599.18
667.43	543.00
667.57	564.07
667.71	512.58
667.85	557.05
667.99	479.81
668.13	587.47
668.27	510.24
668.41	510.24
668.56	503.22
668.70	587.47
668.84	468.11
668.98	491.51
669.12	423.64
669.26	477.47
669.40	482.15
669.54	477.47
669.68	416.62
669.82	383.85
669.96	479.81
670.10	437.68
670.25	411.93
670.39	528.96
670.53	435.34
670.67	526.62
670.81	397.89
670.95	514.92
671.09	475.13
671.23	472.79
671.37	484.49
671.51	503.22
671.65	477.47
671.79	519.60
671.93	475.13
672.07	510.24
672.21	528.96
672.35	500.87
672.49	442.36
672.63	433.00
672.77	388.53
672.91	425.98
673.05	433.00
673.19	433.00
673.33	383.85
673.47	393.21
673.61	411.93
673.75	376.83
673.89	393.21
674.03	493.85
674.17	381.51
674.31	444.70
674.45	447.04
674.59	430.66
674.73	358.10
674.87	409.59
675.01	379.17
675.15	383.85
675.29	306.61
675.43	428.32
675.56	425.98
675.70	430.66
675.84	379.17
675.98	339.38
676.12	355.76
676.26	318.31
676.40	411.93
676.54	433.00
676.68	407.25
676.82	348.74
676.96	297.25
677.10	339.38
677.23	322.99
677.37	390.87
677.51	346.40
677.65	454.06
677.79	393.21
677.93	322.99
678.07	374.49
678.21	376.83
678.34	320.65
678.48	362.78
678.62	404.91
678.76	344.06
678.90	442.36
679.04	388.53
679.18	463.43
679.31	355.76
679.45	362.78
679.59	468.11
679.73	390.87
679.87	402.57
680.00	402.57
680.14	421.30
680.28	465.77
680.42	348.74
680.56	461.09
680.70	395.55
680.83	407.25
680.97	472.79
681.11	437.68
681.25	465.77
681.39	440.02
681.52	461.09
681.66	444.70
681.80	437.68
681.94	386.19
682.07	433.00
682.21	414.27
682.35	381.51
682.49	416.62
682.62	465.77
682.76	337.04
682.90	301.93
683.04	416.62
683.17	318.31
683.31	339.38
683.45	402.57
683.59	383.85
683.72	327.68
683.86	339.38
684.00	318.31
684.13	423.64
684.27	341.72
684.41	332.36
684.55	367.46
684.68	379.17
684.82	374.49
684.96	294.91
685.09	339.38
685.23	351.08
685.37	308.95
685.50	313.63
685.64	369.80
685.78	442.36
685.91	388.53
686.05	383.85
686.19	437.68
686.32	458.74
686.46	463.43
686.60	531.30
686.73	550.03
686.87	608.54
687.01	606.20
687.14	774.72
687.28	741.95
687.42	812.17
687.55	896.43
687.69	835.57
687.82	849.61
687.96	945.58
688.10	807.48
688.23	840.25
688.37	830.89
688.50	755.99
688.64	653.01
688.78	629.60
688.91	599.18
689.05	491.51
689.18	444.70
689.32	383.85
689.46	386.19
689.59	390.87
689.73	372.15
689.86	287.89
690.00	381.51
690.13	271.50
690.27	308.95
690.41	346.40
690.54	395.55
690.68	454.06
690.81	407.25
690.95	379.17
691.08	327.68
691.22	306.61
691.35	234.05
691.49	138.09
691.62	212.99
691.76	236.39
691.89	252.78
692.03	238.73
692.16	285.55
692.30	191.92
692.43	224.69
692.57	252.78
692.70	266.82
692.84	306.61
692.97	308.95
693.11	367.46
693.24	468.11
693.38	538.32
693.51	697.48
693.65	667.05
693.78	643.65
693.92	650.67
694.05	678.76
694.19	622.58
694.32	486.83
694.45	451.72
694.59	330.02
694.72	301.93
694.86	297.25
694.99	358.10
695.13	252.78
695.26	229.37
695.39	257.46
695.53	255.12
695.66	262.14
695.80	320.65
695.93	166.18
696.07	177.88
696.20	252.78
696.33	180.22
696.47	341.72
696.60	313.63
696.73	269.16
696.87	278.52
697.00	241.08
697.14	194.26
697.27	177.88
697.40	252.78
697.54	173.20
697.67	245.76
697.80	238.73
697.94	177.88
698.07	248.10
698.21	222.35
698.34	245.76
698.47	175.54
698.61	189.58
698.74	182.56
698.87	227.03
699.01	184.90
699.14	198.95
699.27	222.35
699.40	255.12
699.54	121.71
699.67	196.60
699.80	220.01
699.94	227.03
700.07	128.73
700.20	180.22
700.34	196.60
700.47	135.75
700.60	196.60
700.73	191.92
700.87	180.22
701.00	205.97
701.13	203.63
701.26	194.26
701.40	212.99
701.53	222.35
701.66	175.54
701.79	203.63
701.93	196.60
702.06	220.01
702.19	322.99
702.32	205.97
702.46	222.35
702.59	170.86
702.72	180.22
702.85	170.86
702.99	241.08
703.12	294.91
703.25	283.20
703.38	215.33
703.51	257.46
703.65	264.48
703.78	304.27
703.91	325.33
704.04	344.06
704.17	327.68
704.31	297.25
704.44	339.38
704.57	285.55
704.70	313.63
704.83	344.06
704.96	388.53
705.10	365.12
705.23	358.10
>>>>>End Processed Spectral Data<<<<<
