SpectraSuite Data File
++++++++++++++++++++++++++++++++++++
Date: Fri Oct 04 11:41:46 GMT-05:00 2013
User: price-jones
Dark Spectrum Present: No
Reference Spectrum Present: No
Number of Sampled Component Spectra: 1
Spectrometers: USB2+H05261
Integration Time (usec): 100000 (USB2+H05261)
Spectra Averaged: 1 (USB2+H05261)
Boxcar Smoothing: 0 (USB2+H05261)
Correct for Electrical Dark: No (USB2+H05261)
Strobe/Lamp Enabled: No (USB2+H05261)
Correct for Detector Non-linearity: No (USB2+H05261)
Correct for Stray Light: No (USB2+H05261)
Number of Pixels in Processed Spectrum: 2048
>>>>>Begin Processed Spectral Data<<<<<
365.73	105.32
365.92	105.32
366.12	105.32
366.32	0.00
366.52	0.00
366.72	0.00
366.91	0.00
367.11	0.00
367.31	0.00
367.51	0.00
367.70	0.00
367.90	0.00
368.10	0.00
368.30	0.00
368.49	0.00
368.69	37.45
368.89	0.00
369.09	0.00
369.28	0.00
369.48	0.00
369.68	0.00
369.87	39.79
370.07	0.00
370.27	0.00
370.47	0.00
370.66	2.34
370.86	63.19
371.06	91.28
371.25	133.41
371.45	35.11
371.65	105.32
371.84	119.37
372.04	44.47
372.24	107.66
372.44	44.47
372.63	88.94
372.83	168.52
373.03	88.94
373.22	187.24
373.42	79.58
373.62	56.17
373.81	138.09
374.01	168.52
374.21	131.07
374.40	84.26
374.60	77.24
374.79	152.13
374.99	138.09
375.19	149.79
375.38	156.82
375.58	159.16
375.78	175.54
375.97	161.50
376.17	177.88
376.37	140.43
376.56	18.72
376.76	173.20
376.95	67.88
377.15	117.03
377.35	88.94
377.54	135.75
377.74	110.01
377.93	98.30
378.13	107.66
378.33	107.66
378.52	138.09
378.72	154.48
378.91	74.90
379.11	79.58
379.31	163.84
379.50	133.41
379.70	147.45
379.89	161.50
380.09	184.90
380.28	112.35
380.48	74.90
380.68	81.92
380.87	105.32
381.07	100.64
381.26	149.79
381.46	152.13
381.65	175.54
381.85	231.71
382.04	117.03
382.24	77.24
382.43	126.39
382.63	114.69
382.83	133.41
383.02	124.05
383.22	93.62
383.41	114.69
383.61	98.30
383.80	114.69
384.00	114.69
384.19	58.51
384.39	145.11
384.58	86.60
384.78	124.05
384.97	93.62
385.17	100.64
385.36	138.09
385.56	203.63
385.75	119.37
385.95	49.15
386.14	168.52
386.34	72.56
386.53	114.69
386.72	135.75
386.92	126.39
387.11	198.95
387.31	128.73
387.50	117.03
387.70	163.84
387.89	168.52
388.09	121.71
388.28	60.85
388.48	121.71
388.67	117.03
388.86	81.92
389.06	84.26
389.25	121.71
389.45	126.39
389.64	121.71
389.84	159.16
390.03	203.63
390.22	140.43
390.42	173.20
390.61	105.32
390.81	121.71
391.00	163.84
391.19	95.96
391.39	154.48
391.58	112.35
391.78	35.11
391.97	81.92
392.16	86.60
392.36	203.63
392.55	177.88
392.75	154.48
392.94	128.73
393.13	156.82
393.33	140.43
393.52	131.07
393.71	187.24
393.91	77.24
394.10	124.05
394.29	168.52
394.49	100.64
394.68	170.86
394.88	189.58
395.07	208.31
395.26	149.79
395.46	142.77
395.65	147.45
395.84	163.84
396.04	215.33
396.23	114.69
396.42	170.86
396.62	175.54
396.81	112.35
397.00	147.45
397.19	156.82
397.39	126.39
397.58	173.20
397.77	182.56
397.97	124.05
398.16	229.37
398.35	147.45
398.55	138.09
398.74	107.66
398.93	187.24
399.12	187.24
399.32	119.37
399.51	140.43
399.70	124.05
399.90	177.88
400.09	135.75
400.28	238.73
400.47	238.73
400.67	203.63
400.86	107.66
401.05	100.64
401.24	208.31
401.44	201.29
401.63	124.05
401.82	208.31
402.01	210.65
402.21	201.29
402.40	217.67
402.59	180.22
402.78	224.69
402.97	217.67
403.17	231.71
403.36	273.84
403.55	334.70
403.74	699.82
403.93	2331.17
404.13	5970.71
404.32	9727.27
404.51	9668.75
404.70	5935.60
404.89	2146.27
405.09	648.33
405.28	383.85
405.47	248.10
405.66	341.72
405.85	271.50
406.05	212.99
406.24	173.20
406.43	273.84
406.62	231.71
406.81	337.04
407.00	390.87
407.20	655.35
407.39	1149.20
407.58	1380.92
407.77	1043.88
407.96	645.99
408.15	332.36
408.34	250.44
408.54	250.44
408.73	194.26
408.92	210.65
409.11	194.26
409.30	182.56
409.49	229.37
409.68	229.37
409.87	224.69
410.07	276.18
410.26	201.29
410.45	259.80
410.64	220.01
410.83	257.46
411.02	194.26
411.21	229.37
411.40	262.14
411.59	243.42
411.78	313.63
411.98	259.80
412.17	184.90
412.36	212.99
412.55	250.44
412.74	255.12
412.93	304.27
413.12	227.03
413.31	259.80
413.50	184.90
413.69	299.59
413.88	262.14
414.07	285.55
414.26	304.27
414.45	285.55
414.64	280.86
414.83	271.50
415.02	294.91
415.22	325.33
415.41	330.02
415.60	222.35
415.79	301.93
415.98	280.86
416.17	280.86
416.36	264.48
416.55	224.69
416.74	276.18
416.93	353.42
417.12	257.46
417.31	280.86
417.50	250.44
417.69	334.70
417.88	266.82
418.07	313.63
418.26	241.08
418.45	271.50
418.64	365.12
418.83	271.50
419.02	287.89
419.21	339.38
419.39	294.91
419.58	245.76
419.77	271.50
419.96	318.31
420.15	346.40
420.34	264.48
420.53	287.89
420.72	397.89
420.91	292.57
421.10	339.38
421.29	306.61
421.48	393.21
421.67	290.23
421.86	393.21
422.05	332.36
422.24	400.23
422.43	315.97
422.61	299.59
422.80	381.51
422.99	360.44
423.18	290.23
423.37	397.89
423.56	379.17
423.75	320.65
423.94	339.38
424.13	280.86
424.32	318.31
424.50	320.65
424.69	351.08
424.88	416.62
425.07	325.33
425.26	330.02
425.45	374.49
425.64	351.08
425.83	374.49
426.01	425.98
426.20	388.53
426.39	299.59
426.58	311.29
426.77	360.44
426.96	362.78
427.15	489.17
427.33	358.10
427.52	440.02
427.71	379.17
427.90	416.62
428.09	388.53
428.28	376.83
428.46	409.59
428.65	425.98
428.84	393.21
429.03	468.11
429.22	379.17
429.40	395.55
429.59	435.34
429.78	484.49
429.97	393.21
430.16	435.34
430.34	451.72
430.53	421.30
430.72	425.98
430.91	528.96
431.10	489.17
431.28	538.32
431.47	514.92
431.66	517.26
431.85	521.94
432.03	507.90
432.22	477.47
432.41	519.60
432.60	599.18
432.79	554.71
432.97	550.03
433.16	568.75
433.35	685.78
433.54	816.85
433.72	863.66
433.91	814.51
434.10	910.47
434.28	1034.52
434.47	1277.93
434.66	1416.02
434.85	1659.44
435.03	3801.03
435.22	14312.38
435.41	36615.34
435.59	48954.64
435.78	35571.46
435.97	16198.85
436.16	6127.52
436.34	2029.24
436.53	1160.91
436.72	1027.50
436.90	814.51
437.09	765.36
437.28	723.23
437.46	648.33
437.65	568.75
437.84	648.33
438.02	629.60
438.21	643.65
438.40	540.66
438.58	543.00
438.77	615.56
438.96	580.45
439.14	545.34
439.33	550.03
439.52	575.77
439.70	543.00
439.89	531.30
440.08	596.84
440.26	528.96
440.45	627.26
440.63	578.11
440.82	533.64
441.01	486.83
441.19	622.58
441.38	550.03
441.57	671.73
441.75	592.16
441.94	610.88
442.12	500.87
442.31	557.05
442.50	631.94
442.68	599.18
442.87	547.69
443.05	589.82
443.24	566.41
443.43	638.97
443.61	599.18
443.80	622.58
443.98	596.84
444.17	564.07
444.35	671.73
444.54	554.71
444.73	610.88
444.91	617.90
445.10	482.15
445.28	489.17
445.47	531.30
445.65	594.50
445.84	519.60
446.02	627.26
446.21	585.13
446.39	526.62
446.58	517.26
446.77	603.86
446.95	636.63
447.14	564.07
447.32	521.94
447.51	543.00
447.69	535.98
447.88	566.41
448.06	578.11
448.25	535.98
448.43	496.19
448.62	533.64
448.80	592.16
448.99	524.28
449.17	543.00
449.36	594.50
449.54	543.00
449.73	554.71
449.91	550.03
450.10	463.43
450.28	699.82
450.46	617.90
450.65	566.41
450.83	631.94
451.02	589.82
451.20	491.51
451.39	496.19
451.57	545.34
451.76	554.71
451.94	568.75
452.13	648.33
452.31	596.84
452.49	636.63
452.68	617.90
452.86	636.63
453.05	627.26
453.23	624.92
453.42	695.14
453.60	599.18
453.78	554.71
453.97	531.30
454.15	538.32
454.34	575.77
454.52	603.86
454.70	615.56
454.89	648.33
455.07	554.71
455.26	589.82
455.44	580.45
455.62	538.32
455.81	519.60
455.99	610.88
456.17	631.94
456.36	545.34
456.54	547.69
456.73	533.64
456.91	596.84
457.09	566.41
457.28	601.52
457.46	580.45
457.64	547.69
457.83	507.90
458.01	535.98
458.19	573.43
458.38	533.64
458.56	500.87
458.74	603.86
458.93	547.69
459.11	587.47
459.29	540.66
459.48	608.54
459.66	587.47
459.84	578.11
460.03	615.56
460.21	550.03
460.39	507.90
460.57	585.13
460.76	500.87
460.94	554.71
461.12	645.99
461.31	486.83
461.49	568.75
461.67	533.64
461.85	540.66
462.04	524.28
462.22	641.31
462.40	554.71
462.59	526.62
462.77	531.30
462.95	538.32
463.13	475.13
463.32	547.69
463.50	561.73
463.68	564.07
463.86	491.51
464.05	482.15
464.23	547.69
464.41	685.78
464.59	582.79
464.78	559.39
464.96	573.43
465.14	564.07
465.32	463.43
465.50	550.03
465.69	482.15
465.87	514.92
466.05	498.53
466.23	447.04
466.41	568.75
466.60	540.66
466.78	636.63
466.96	578.11
467.14	589.82
467.32	557.05
467.51	552.37
467.69	486.83
467.87	585.13
468.05	540.66
468.23	552.37
468.41	503.22
468.60	540.66
468.78	582.79
468.96	543.00
469.14	533.64
469.32	496.19
469.50	456.40
469.69	514.92
469.87	535.98
470.05	505.56
470.23	463.43
470.41	435.34
470.59	433.00
470.77	566.41
470.95	512.58
471.14	528.96
471.32	510.24
471.50	645.99
471.68	552.37
471.86	519.60
472.04	507.90
472.22	507.90
472.40	519.60
472.58	468.11
472.77	489.17
472.95	517.26
473.13	716.20
473.31	610.88
473.49	580.45
473.67	601.52
473.85	528.96
474.03	526.62
474.21	564.07
474.39	613.22
474.57	617.90
474.75	543.00
474.93	533.64
475.12	543.00
475.30	557.05
475.48	533.64
475.66	519.60
475.84	507.90
476.02	524.28
476.20	557.05
476.38	552.37
476.56	650.67
476.74	550.03
476.92	552.37
477.10	550.03
477.28	599.18
477.46	573.43
477.64	552.37
477.82	615.56
478.00	557.05
478.18	526.62
478.36	575.77
478.54	624.92
478.72	592.16
478.90	624.92
479.08	645.99
479.26	617.90
479.44	627.26
479.62	676.41
479.80	655.35
479.98	760.67
480.16	781.74
480.34	786.42
480.52	784.08
480.70	828.55
480.88	802.80
481.06	844.93
481.24	896.43
481.41	1018.13
481.59	1100.05
481.77	1048.56
481.95	1203.04
482.13	1238.14
482.31	1348.15
482.49	1249.85
482.67	1474.54
482.85	1715.61
483.03	1839.66
483.21	2024.56
483.39	2073.71
483.57	2150.95
483.74	2258.62
483.92	2406.07
484.10	2448.20
484.28	2544.16
484.46	2747.79
484.64	3005.25
484.82	3012.27
485.00	3213.56
485.18	3466.33
485.35	3775.28
485.53	3794.01
485.71	3927.42
485.89	4074.87
486.07	4219.99
486.25	4231.69
486.43	4264.46
486.61	4358.08
486.78	4367.44
486.96	4266.80
487.14	4365.10
487.32	4318.29
487.50	4444.68
487.68	4156.79
487.85	4229.35
488.03	4091.26
488.21	4135.73
488.39	3861.88
488.57	3922.74
488.75	3669.96
488.92	3861.88
489.10	3574.00
489.28	3492.08
489.46	3485.06
489.64	3463.99
489.81	3487.40
489.99	3262.71
490.17	3311.86
490.35	3332.92
490.53	3087.17
490.70	3194.83
490.88	3171.43
491.06	3372.71
491.24	3536.55
491.41	3826.78
491.59	3616.13
491.77	3164.40
491.95	3108.23
492.13	3056.74
492.30	2981.84
492.48	2775.88
492.66	2862.48
492.84	2803.96
493.01	2736.09
493.19	2848.43
493.37	2759.49
493.54	2689.28
493.72	2729.06
493.90	2576.93
494.08	2579.27
494.25	2476.29
494.43	2583.95
494.61	2506.71
494.79	2382.67
494.96	2289.04
495.14	2448.20
495.32	2345.22
495.49	2186.06
495.67	2167.34
495.85	2214.15
496.02	2230.53
496.20	2197.76
496.38	2211.81
496.55	1952.01
496.73	2045.63
496.91	1963.71
497.09	1949.67
497.26	1818.60
497.44	1895.83
497.62	1879.45
497.79	1842.00
497.97	1795.19
498.14	1685.19
498.32	1776.47
498.50	1652.42
498.67	1659.44
498.85	1579.86
499.03	1521.35
499.20	1502.62
499.38	1533.05
499.56	1430.07
499.73	1519.01
499.91	1474.54
500.08	1313.04
500.26	1233.46
500.44	1217.08
500.61	1165.59
500.79	1198.35
500.97	1203.04
501.14	1163.25
501.32	1210.06
501.49	1041.54
501.67	1008.77
501.84	1076.65
502.02	994.73
502.20	959.62
502.37	866.00
502.55	973.66
502.72	882.38
502.90	870.68
503.07	809.83
503.25	800.46
503.43	858.98
503.60	732.59
503.78	800.46
503.95	678.76
504.13	835.57
504.30	798.12
504.48	744.29
504.65	737.27
504.83	727.91
505.01	709.18
505.18	674.07
505.36	657.69
505.53	645.99
505.71	667.05
505.88	606.20
506.06	671.73
506.23	622.58
506.41	622.58
506.58	657.69
506.76	580.45
506.93	613.22
507.11	538.32
507.28	507.90
507.46	535.98
507.63	552.37
507.81	608.54
507.98	526.62
508.16	561.73
508.33	557.05
508.50	631.94
508.68	648.33
508.85	552.37
509.03	631.94
509.20	543.00
509.38	608.54
509.55	531.30
509.73	594.50
509.90	613.22
510.08	573.43
510.25	519.60
510.42	486.83
510.60	503.22
510.77	472.79
510.95	540.66
511.12	496.19
511.30	531.30
511.47	514.92
511.64	535.98
511.82	552.37
511.99	472.79
512.17	573.43
512.34	531.30
512.51	543.00
512.69	472.79
512.86	463.43
513.04	449.38
513.21	503.22
513.38	514.92
513.56	517.26
513.73	454.06
513.90	468.11
514.08	491.51
514.25	463.43
514.43	449.38
514.60	430.66
514.77	386.19
514.95	463.43
515.12	423.64
515.29	425.98
515.47	456.40
515.64	486.83
515.81	486.83
515.99	468.11
516.16	505.56
516.33	437.68
516.51	404.91
516.68	421.30
516.85	418.96
517.03	498.53
517.20	407.25
517.37	430.66
517.54	456.40
517.72	397.89
517.89	393.21
518.06	351.08
518.24	440.02
518.41	521.94
518.58	442.36
518.75	418.96
518.93	444.70
519.10	491.51
519.27	425.98
519.45	381.51
519.62	381.51
519.79	367.46
519.96	402.57
520.14	472.79
520.31	437.68
520.48	451.72
520.65	463.43
520.83	418.96
521.00	475.13
521.17	388.53
521.34	402.57
521.52	444.70
521.69	400.23
521.86	379.17
522.03	423.64
522.20	468.11
522.38	465.77
522.55	409.59
522.72	374.49
522.89	421.30
523.07	535.98
523.24	423.64
523.41	442.36
523.58	458.74
523.75	500.87
523.92	414.27
524.10	414.27
524.27	489.17
524.44	454.06
524.61	477.47
524.78	465.77
524.96	477.47
525.13	461.09
525.30	475.13
525.47	510.24
525.64	517.26
525.81	484.49
525.98	519.60
526.16	423.64
526.33	493.85
526.50	435.34
526.67	454.06
526.84	437.68
527.01	538.32
527.18	564.07
527.36	554.71
527.53	538.32
527.70	587.47
527.87	580.45
528.04	552.37
528.21	444.70
528.38	535.98
528.55	580.45
528.72	498.53
528.89	545.34
529.07	528.96
529.24	578.11
529.41	613.22
529.58	566.41
529.75	613.22
529.92	739.61
530.09	615.56
530.26	638.97
530.43	603.86
530.60	702.16
530.77	692.80
530.94	706.84
531.11	580.45
531.28	660.03
531.46	734.93
531.63	814.51
531.80	718.54
531.97	870.68
532.14	1034.52
532.31	1186.65
532.48	1352.83
532.65	1598.59
532.82	1834.98
532.99	2040.95
533.16	2436.50
533.33	2651.83
533.50	2495.01
533.67	2078.40
533.84	1839.66
534.01	1603.27
534.18	1516.67
534.35	1448.79
534.52	1502.62
534.69	1533.05
534.86	1507.30
535.03	1586.88
535.20	1612.63
535.37	1825.62
535.54	1881.79
535.71	1912.22
535.88	2108.82
536.05	2190.74
536.22	2427.14
536.38	2576.93
536.55	2775.88
536.72	3068.44
536.89	3461.65
537.06	3967.21
537.23	4379.14
537.40	4634.26
537.57	5179.61
537.74	5373.87
537.91	5699.20
538.08	5837.30
538.25	5970.71
538.42	5963.68
538.59	6076.03
538.75	6516.05
538.92	6740.74
539.09	7108.21
539.26	8152.09
539.43	8975.95
539.60	10209.42
539.77	11620.76
539.94	12933.80
540.11	14523.02
540.28	15798.62
540.44	17280.18
540.61	18750.03
540.78	21940.18
540.95	26235.06
541.12	31604.25
541.29	35971.69
541.46	38244.35
541.62	37848.80
541.79	36367.24
541.96	33565.62
542.13	31192.32
542.30	29102.22
542.47	27175.96
542.63	26031.44
542.80	24900.96
542.97	24793.29
543.14	24189.44
543.31	24367.32
543.48	24643.50
543.64	25060.12
543.81	25308.21
543.98	24992.24
544.15	25355.02
544.32	25926.11
544.48	25443.96
544.65	24975.86
544.82	25312.89
544.99	24989.90
545.16	25348.00
545.32	26902.12
545.49	39075.24
545.66	60254.75
545.83	65535.00
546.00	65535.00
546.16	60687.75
546.33	44486.56
546.50	33008.58
546.67	26295.92
546.83	22963.00
547.00	21762.30
547.17	21034.39
547.34	20238.61
547.50	19309.42
547.67	18728.97
547.84	17998.72
548.00	17289.54
548.17	16629.51
548.34	15845.43
548.51	15229.87
548.67	14473.87
548.84	13853.63
549.01	13099.98
549.18	12397.82
549.34	12126.32
549.51	11798.64
549.68	11173.72
549.84	10590.92
550.01	10384.96
550.18	9596.20
550.34	9378.53
550.51	8814.46
550.68	8489.12
550.84	7889.95
551.01	7695.68
551.18	7316.51
551.34	6754.79
551.51	6640.10
551.68	6464.56
551.84	6296.04
552.01	5785.80
552.18	5689.84
552.34	5291.95
552.51	5125.77
552.68	4903.42
552.84	4711.50
553.01	4486.81
553.18	4313.61
553.34	4210.62
553.51	4098.28
553.67	4002.32
553.84	3861.88
554.01	3637.19
554.17	3424.20
554.34	3141.00
554.51	3068.44
554.67	2792.26
554.84	2647.15
555.00	2459.90
555.17	2401.39
555.33	2258.62
555.50	2106.48
555.67	2183.72
555.83	1928.60
556.00	1930.94
556.16	1942.64
556.33	1809.23
556.50	1741.36
556.66	1647.74
556.83	1537.73
556.99	1621.99
557.16	1453.47
557.32	1465.18
557.49	1359.85
557.65	1373.89
557.82	1296.66
557.98	1291.98
558.15	1219.42
558.32	1380.92
558.48	1184.31
558.65	1109.41
558.81	1071.97
558.98	1111.75
559.14	1132.82
559.31	1093.03
559.47	1109.41
559.64	1172.61
559.80	1048.56
559.97	1001.75
560.13	1013.45
560.30	1046.22
560.46	1062.60
560.63	1001.75
560.79	985.37
560.96	1083.67
561.12	968.98
561.29	933.87
561.45	1013.45
561.61	931.53
561.78	1041.54
561.94	992.39
562.11	1008.77
562.27	922.17
562.44	964.30
562.60	908.13
562.77	950.26
562.93	983.02
563.10	954.94
563.26	922.17
563.42	964.30
563.59	887.06
563.75	903.45
563.92	880.04
564.08	840.25
564.24	826.21
564.41	875.36
564.57	816.85
564.74	805.14
564.90	786.42
565.07	788.76
565.23	858.98
565.39	763.01
565.56	734.93
565.72	821.53
565.88	784.08
566.05	732.59
566.21	685.78
566.38	795.78
566.54	725.57
566.70	767.70
566.87	798.12
567.03	809.83
567.19	800.46
567.36	737.27
567.52	798.12
567.68	814.51
567.85	774.72
568.01	716.20
568.17	791.10
568.34	891.74
568.50	805.14
568.66	774.72
568.83	807.48
568.99	713.86
569.15	718.54
569.32	674.07
569.48	648.33
569.64	615.56
569.81	650.67
569.97	655.35
570.13	606.20
570.30	594.50
570.46	528.96
570.62	566.41
570.78	484.49
570.95	503.22
571.11	552.37
571.27	524.28
571.43	566.41
571.60	608.54
571.76	610.88
571.92	582.79
572.09	582.79
572.25	582.79
572.41	641.31
572.57	592.16
572.74	594.50
572.90	627.26
573.06	599.18
573.22	524.28
573.38	638.97
573.55	587.47
573.71	601.52
573.87	667.05
574.03	582.79
574.20	648.33
574.36	746.63
574.52	763.01
574.68	716.20
574.84	851.96
575.01	777.06
575.17	807.48
575.33	933.87
575.49	971.32
575.65	1029.84
575.82	1015.79
575.98	1125.80
576.14	1310.70
576.30	2506.71
576.46	7478.01
576.62	15234.55
576.79	21149.08
576.95	14485.58
577.11	8940.85
577.27	6010.50
577.43	3953.16
577.59	2572.25
577.75	2031.58
577.92	1696.89
578.08	1689.87
578.24	1874.77
578.40	2733.75
578.56	7063.74
578.72	13654.69
578.88	18490.23
579.04	13706.18
579.21	8557.00
579.37	6040.92
579.53	4636.60
579.69	4285.52
579.85	5284.93
580.01	6471.58
580.17	6597.97
580.33	5486.22
580.49	4697.46
580.65	4250.41
580.82	3765.92
580.98	3625.49
581.14	3644.21
581.30	3953.16
581.46	4152.11
581.62	4451.70
581.78	4807.46
581.94	5191.31
582.10	5486.22
582.26	5731.97
582.42	5933.26
582.58	6190.72
582.74	6394.34
582.90	6511.37
583.06	6363.92
583.22	6361.58
583.38	6619.04
583.54	6352.21
583.70	6251.57
583.86	6300.72
584.02	6204.76
584.18	6005.81
584.34	5858.36
584.50	5778.78
584.66	5760.06
584.82	5624.31
584.98	5692.18
585.14	5563.45
585.30	5434.72
585.46	5430.04
585.62	5156.20
585.78	5357.49
585.94	5397.28
586.10	5399.62
586.26	5664.10
586.42	6354.55
586.58	7414.82
586.74	9018.08
586.90	11115.20
587.06	12784.01
587.22	12713.79
587.38	11499.05
587.54	9867.70
587.70	8301.88
587.86	6916.28
588.02	6003.47
588.18	5214.71
588.34	4540.64
588.49	4152.11
588.65	4058.49
588.81	3789.33
588.97	3805.71
589.13	3613.79
589.29	3595.06
589.45	3569.32
589.61	3501.44
589.77	3562.30
589.93	3478.04
590.08	3599.74
590.24	3829.12
590.40	3866.56
590.56	4014.02
590.72	3976.57
590.88	4053.81
591.04	4337.01
591.20	4322.97
591.35	4620.22
591.51	4901.08
591.67	4931.51
591.83	5514.30
591.99	5746.02
592.15	6345.19
592.31	7007.56
592.46	7344.60
592.62	8212.94
592.78	8645.94
592.94	9224.05
593.10	8898.72
593.26	8751.26
593.41	7950.80
593.57	7087.14
593.73	6230.51
593.89	5577.50
594.05	4830.87
594.20	4409.57
594.36	4138.07
594.52	3782.31
594.68	3555.27
594.84	3358.67
594.99	3309.52
595.15	3206.53
595.31	3236.96
595.47	3185.47
595.62	3084.83
595.78	3194.83
595.94	3103.55
596.10	3225.26
596.25	3260.37
596.41	3133.98
596.57	3157.38
596.73	3068.44
596.88	3185.47
597.04	3119.93
597.20	3155.04
597.36	3206.53
597.51	3300.16
597.67	3363.35
597.83	3541.23
597.99	3833.80
598.14	3974.23
598.30	4121.68
598.46	4545.32
598.61	4873.00
598.77	4891.72
598.93	5186.63
599.09	5387.91
599.24	5533.03
599.40	5500.26
599.56	5256.84
599.71	4915.12
599.87	4706.82
600.03	4535.96
600.18	4299.56
600.34	3892.31
600.50	3674.64
600.65	3452.29
600.81	3206.53
600.97	3108.23
601.12	2888.22
601.28	2771.19
601.44	2693.96
601.59	2406.07
601.75	2408.41
601.91	2258.62
602.06	2303.09
602.22	2188.40
602.37	2036.27
602.53	2047.97
602.69	2071.37
602.84	1954.35
603.00	2029.24
603.16	2050.31
603.31	2165.00
603.47	2038.61
603.62	2099.46
603.78	2190.74
603.94	2258.62
604.09	2312.45
604.25	2279.68
604.40	2363.94
604.56	2385.01
604.71	2410.75
604.87	2558.21
605.03	2511.39
605.18	2548.84
605.34	2621.40
605.49	2588.63
605.65	2693.96
605.80	2745.45
605.96	3012.27
606.12	2995.89
606.27	3035.67
606.43	3246.32
606.58	3386.76
606.74	3653.58
606.89	3880.61
607.05	4009.34
607.20	4161.47
607.36	4428.29
607.51	4648.30
607.67	4943.21
607.82	5348.12
607.98	5640.69
608.13	6024.54
608.29	6544.14
608.44	7105.87
608.60	7737.81
608.75	8456.36
608.91	9327.03
609.06	10019.83
609.22	11248.61
609.37	12128.66
609.53	13961.30
609.68	15386.68
609.84	17771.69
609.99	20730.12
610.15	24926.71
610.30	30576.76
610.46	38281.80
610.61	48973.37
610.76	57071.62
610.92	62447.83
611.07	65535.00
611.23	65535.00
611.38	65535.00
611.54	63185.10
611.69	59114.91
611.84	53638.06
612.00	46246.65
612.15	39503.56
612.31	34155.44
612.46	30532.29
612.62	28439.85
612.77	27201.71
612.92	25455.67
613.08	23564.51
613.23	22757.03
613.39	21982.31
613.54	21050.78
613.69	20847.15
613.85	20636.50
614.00	20224.57
614.15	20123.93
614.31	20056.05
614.46	19475.60
614.62	18497.25
614.77	17858.29
614.92	16856.54
615.08	16049.05
615.23	14602.60
615.38	13151.47
615.54	12002.27
615.69	10869.45
615.84	10127.50
616.00	9371.50
616.15	8526.57
616.30	8236.35
616.46	7508.44
616.61	7103.53
616.76	6789.89
616.92	6558.18
617.07	5973.05
617.22	5596.22
617.37	5584.52
617.53	5163.22
617.68	4901.08
617.83	4819.16
617.99	4751.29
618.14	4535.96
618.29	4358.08
618.45	4301.90
618.60	4229.35
618.75	4138.07
618.90	4011.68
619.06	4091.26
619.21	4095.94
619.36	3960.19
619.51	3819.75
619.67	3913.38
619.82	3990.61
619.97	4159.13
620.12	4278.50
620.28	4175.52
620.43	4442.34
620.58	4493.83
620.73	4461.06
620.89	4454.04
621.04	4526.60
621.19	4571.07
621.34	4367.44
621.49	4229.35
621.65	4196.58
621.80	4135.73
621.95	4156.79
622.10	4367.44
622.25	4124.02
622.41	4196.58
622.56	4290.20
622.71	4589.79
622.86	4423.61
623.01	4615.54
623.16	4713.84
623.32	4760.65
623.47	4734.90
623.62	4772.35
623.77	4795.76
623.92	4905.76
624.07	4758.31
624.23	4629.58
624.38	4765.33
624.53	4877.68
624.68	4812.14
624.83	4950.23
624.98	4933.85
625.13	4961.94
625.29	4929.17
625.44	5060.24
625.59	4919.81
625.74	5153.86
625.89	5020.45
626.04	4961.94
626.19	4875.34
626.34	4816.82
626.49	4980.66
626.65	4816.82
626.80	4856.61
626.95	4685.75
627.10	4557.02
627.25	4713.84
627.40	4554.68
627.55	4484.47
627.70	4374.46
627.85	4503.19
628.00	4292.54
628.15	4259.78
628.30	4262.12
628.45	4327.65
628.60	4248.07
628.76	4365.10
628.91	4353.40
629.06	4519.57
629.21	4554.68
629.36	4608.51
629.51	4809.80
629.66	4959.60
629.81	5296.63
629.96	5792.83
630.11	6534.78
630.26	7084.80
630.41	8032.72
630.56	8659.98
630.71	9502.58
630.86	9973.02
631.01	9460.45
631.16	9078.94
631.31	7974.21
631.46	6684.57
631.61	5659.42
631.76	4882.36
631.91	4025.72
632.06	3536.55
632.21	3035.67
632.36	2614.38
632.51	2258.62
632.66	2136.91
632.81	2050.31
632.96	1877.11
633.10	1638.38
633.25	1659.44
633.40	1582.20
633.55	1467.52
633.70	1467.52
633.85	1423.05
634.00	1270.91
634.15	1270.91
634.30	1345.81
634.45	1362.19
634.60	1245.16
634.75	1247.51
634.90	1334.11
635.05	1231.12
635.19	1214.74
635.34	1217.08
635.49	1184.31
635.64	1081.33
635.79	1097.71
635.94	1048.56
636.09	1032.18
636.24	1125.80
636.39	1121.12
636.53	1142.18
636.68	1001.75
636.83	917.49
636.98	1114.10
637.13	945.58
637.28	957.28
637.43	987.71
637.57	915.15
637.72	922.17
637.87	896.43
638.02	875.36
638.17	861.32
638.32	842.59
638.46	863.66
638.61	931.53
638.76	849.61
638.91	877.70
639.06	809.83
639.20	898.77
639.35	779.40
639.50	819.19
639.65	912.81
639.80	840.25
639.94	788.76
640.09	814.51
640.24	837.91
640.39	880.04
640.54	807.48
640.68	840.25
640.83	858.98
640.98	774.72
641.13	821.53
641.27	802.80
641.42	819.19
641.57	863.66
641.72	816.85
641.86	798.12
642.01	748.97
642.16	809.83
642.31	784.08
642.45	919.83
642.60	819.19
642.75	821.53
642.90	823.87
643.04	772.38
643.19	781.74
643.34	779.40
643.48	866.00
643.63	744.29
643.78	784.08
643.93	821.53
644.07	802.80
644.22	849.61
644.37	791.10
644.51	781.74
644.66	807.48
644.81	807.48
644.95	875.36
645.10	760.67
645.25	786.42
645.39	868.34
645.54	739.61
645.69	765.36
645.83	755.99
645.98	788.76
646.13	697.48
646.27	727.91
646.42	667.05
646.57	748.97
646.71	671.73
646.86	699.82
647.00	638.97
647.15	753.65
647.30	767.70
647.44	690.46
647.59	748.97
647.74	699.82
647.88	737.27
648.03	748.97
648.17	812.17
648.32	718.54
648.47	753.65
648.61	819.19
648.76	821.53
648.90	851.96
649.05	812.17
649.20	931.53
649.34	924.51
649.49	1224.10
649.63	1392.62
649.78	1551.78
649.92	1778.81
650.07	2256.28
650.21	2478.63
650.36	2661.19
650.51	2600.34
650.65	2513.74
650.80	2244.57
650.94	2108.82
651.09	1614.97
651.23	1638.38
651.38	1434.75
651.52	1369.21
651.67	1238.14
651.81	1123.46
651.96	1022.81
652.10	1165.59
652.25	950.26
652.39	931.53
652.54	1053.24
652.68	1104.73
652.83	1191.33
652.97	1373.89
653.12	1362.19
653.26	1306.02
653.41	1193.67
653.55	1111.75
653.70	912.81
653.84	858.98
653.99	983.02
654.13	805.14
654.27	884.72
654.42	812.17
654.56	880.04
654.71	770.04
654.85	758.33
655.00	744.29
655.14	807.48
655.29	692.80
655.43	676.41
655.57	765.36
655.72	746.63
655.86	770.04
656.01	772.38
656.15	744.29
656.30	711.52
656.44	732.59
656.58	711.52
656.73	634.29
656.87	741.95
657.01	772.38
657.16	816.85
657.30	812.17
657.45	926.85
657.59	809.83
657.73	868.34
657.88	966.64
658.02	936.21
658.16	798.12
658.31	828.55
658.45	671.73
658.60	709.18
658.74	631.94
658.88	622.58
659.03	545.34
659.17	557.05
659.31	507.90
659.46	594.50
659.60	531.30
659.74	519.60
659.89	615.56
660.03	596.84
660.17	594.50
660.32	613.22
660.46	550.03
660.60	503.22
660.74	603.86
660.89	557.05
661.03	514.92
661.17	627.26
661.32	631.94
661.46	770.04
661.60	833.23
661.74	954.94
661.89	1217.08
662.03	1359.85
662.17	1500.28
662.31	1626.67
662.46	1640.72
662.60	1439.43
662.74	1369.21
662.88	1231.12
663.03	1121.12
663.17	1004.09
663.31	849.61
663.45	835.57
663.60	805.14
663.74	744.29
663.88	793.44
664.02	704.50
664.17	622.58
664.31	575.77
664.45	559.39
664.59	557.05
664.73	507.90
664.88	547.69
665.02	491.51
665.16	521.94
665.30	599.18
665.44	510.24
665.59	538.32
665.73	559.39
665.87	538.32
666.01	554.71
666.15	489.17
666.29	482.15
666.44	470.45
666.58	535.98
666.72	550.03
666.86	540.66
667.00	554.71
667.14	454.06
667.28	482.15
667.43	458.74
667.57	486.83
667.71	531.30
667.85	524.28
667.99	559.39
668.13	447.04
668.27	535.98
668.41	547.69
668.56	559.39
668.70	514.92
668.84	449.38
668.98	444.70
669.12	568.75
669.26	477.47
669.40	573.43
669.54	510.24
669.68	578.11
669.82	409.59
669.96	463.43
670.10	440.02
670.25	498.53
670.39	468.11
670.53	449.38
670.67	414.27
670.81	397.89
670.95	447.04
671.09	470.45
671.23	486.83
671.37	486.83
671.51	402.57
671.65	543.00
671.79	451.72
671.93	458.74
672.07	550.03
672.21	491.51
672.35	472.79
672.49	425.98
672.63	449.38
672.77	374.49
672.91	418.96
673.05	458.74
673.19	339.38
673.33	402.57
673.47	416.62
673.61	379.17
673.75	444.70
673.89	344.06
674.03	454.06
674.17	351.08
674.31	414.27
674.45	409.59
674.59	355.76
674.73	397.89
674.87	372.15
675.01	395.55
675.15	407.25
675.29	383.85
675.43	402.57
675.56	411.93
675.70	386.19
675.84	325.33
675.98	337.04
676.12	367.46
676.26	395.55
676.40	351.08
676.54	318.31
676.68	407.25
676.82	409.59
676.96	306.61
677.10	369.80
677.23	379.17
677.37	339.38
677.51	337.04
677.65	411.93
677.79	393.21
677.93	262.14
678.07	411.93
678.21	330.02
678.34	322.99
678.48	358.10
678.62	341.72
678.76	386.19
678.90	395.55
679.04	353.42
679.18	369.80
679.31	402.57
679.45	334.70
679.59	470.45
679.73	393.21
679.87	346.40
680.00	418.96
680.14	404.91
680.28	486.83
680.42	475.13
680.56	475.13
680.70	383.85
680.83	458.74
680.97	395.55
681.11	404.91
681.25	411.93
681.39	442.36
681.52	447.04
681.66	287.89
681.80	435.34
681.94	423.64
682.07	418.96
682.21	346.40
682.35	379.17
682.49	423.64
682.62	472.79
682.76	365.12
682.90	311.29
683.04	346.40
683.17	301.93
683.31	308.95
683.45	365.12
683.59	325.33
683.72	407.25
683.86	374.49
684.00	365.12
684.13	341.72
684.27	372.15
684.41	332.36
684.55	372.15
684.68	311.29
684.82	351.08
684.96	407.25
685.09	322.99
685.23	334.70
685.37	344.06
685.50	381.51
685.64	407.25
685.78	409.59
685.91	390.87
686.05	517.26
686.19	491.51
686.32	517.26
686.46	552.37
686.60	524.28
686.73	571.09
686.87	685.78
687.01	641.31
687.14	657.69
687.28	720.88
687.42	905.79
687.55	891.74
687.69	959.62
687.82	898.77
687.96	894.08
688.10	882.38
688.23	887.06
688.37	765.36
688.50	723.23
688.64	657.69
688.78	653.01
688.91	561.73
689.05	482.15
689.18	444.70
689.32	407.25
689.46	376.83
689.59	409.59
689.73	400.23
689.86	327.68
690.00	397.89
690.13	337.04
690.27	315.97
690.41	376.83
690.54	411.93
690.68	430.66
690.81	437.68
690.95	355.76
691.08	301.93
691.22	294.91
691.35	255.12
691.49	227.03
691.62	231.71
691.76	163.84
691.89	243.42
692.03	257.46
692.16	210.65
692.30	196.60
692.43	212.99
692.57	290.23
692.70	177.88
692.84	294.91
692.97	290.23
693.11	435.34
693.24	482.15
693.38	582.79
693.51	727.91
693.65	786.42
693.78	812.17
693.92	753.65
694.05	613.22
694.19	557.05
694.32	535.98
694.45	442.36
694.59	292.57
694.72	346.40
694.86	285.55
694.99	313.63
695.13	205.97
695.26	191.92
695.39	304.27
695.53	271.50
695.66	292.57
695.80	241.08
695.93	154.48
696.07	124.05
696.20	241.08
696.33	210.65
696.47	322.99
696.60	318.31
696.73	367.46
696.87	245.76
697.00	236.39
697.14	241.08
697.27	229.37
697.40	241.08
697.54	142.77
697.67	229.37
697.80	194.26
697.94	67.88
698.07	159.16
698.21	124.05
698.34	210.65
698.47	107.66
698.61	149.79
698.74	201.29
698.87	266.82
699.01	184.90
699.14	175.54
699.27	264.48
699.40	248.10
699.54	110.01
699.67	119.37
699.80	95.96
699.94	205.97
700.07	182.56
700.20	229.37
700.34	142.77
700.47	112.35
700.60	163.84
700.73	203.63
700.87	194.26
701.00	180.22
701.13	182.56
701.26	234.05
701.40	189.58
701.53	234.05
701.66	121.71
701.79	212.99
701.93	212.99
702.06	306.61
702.19	166.18
702.32	236.39
702.46	224.69
702.59	159.16
702.72	255.12
702.85	234.05
702.99	243.42
703.12	248.10
703.25	220.01
703.38	234.05
703.51	332.36
703.65	217.67
703.78	224.69
703.91	337.04
704.04	367.46
704.17	332.36
704.31	353.42
704.44	334.70
704.57	353.42
704.70	313.63
704.83	322.99
704.96	264.48
705.10	365.12
705.23	341.72
>>>>>End Processed Spectral Data<<<<<
