SpectraSuite Data File
++++++++++++++++++++++++++++++++++++
Date: Mon Oct 07 14:59:59 GMT-05:00 2013
User: price-jones
Dark Spectrum Present: No
Reference Spectrum Present: No
Number of Sampled Component Spectra: 1
Spectrometers: USB2+H05261
Integration Time (usec): 100000 (USB2+H05261)
Spectra Averaged: 1 (USB2+H05261)
Boxcar Smoothing: 0 (USB2+H05261)
Correct for Electrical Dark: No (USB2+H05261)
Strobe/Lamp Enabled: No (USB2+H05261)
Correct for Detector Non-linearity: No (USB2+H05261)
Correct for Stray Light: No (USB2+H05261)
Number of Pixels in Processed Spectrum: 2048
>>>>>Begin Processed Spectral Data<<<<<
365.73	0.00
365.92	0.00
366.12	0.00
366.32	0.00
366.52	0.00
366.72	0.00
366.91	0.00
367.11	0.00
367.31	0.00
367.51	0.00
367.70	0.00
367.90	0.00
368.10	0.00
368.30	0.00
368.49	0.00
368.69	0.00
368.89	0.00
369.09	0.00
369.28	0.00
369.48	0.00
369.68	0.00
369.87	0.00
370.07	0.00
370.27	0.00
370.47	0.00
370.66	0.00
370.86	0.00
371.06	0.00
371.25	0.00
371.45	0.00
371.65	0.00
371.84	0.00
372.04	0.00
372.24	0.00
372.44	0.00
372.63	0.00
372.83	0.00
373.03	0.00
373.22	0.00
373.42	0.00
373.62	0.00
373.81	0.00
374.01	0.00
374.21	0.00
374.40	0.00
374.60	0.00
374.79	0.00
374.99	0.00
375.19	0.00
375.38	0.00
375.58	0.00
375.78	0.00
375.97	0.00
376.17	0.00
376.37	0.00
376.56	0.00
376.76	0.00
376.95	0.00
377.15	0.00
377.35	0.00
377.54	0.00
377.74	0.00
377.93	0.00
378.13	0.00
378.33	0.00
378.52	0.00
378.72	0.00
378.91	0.00
379.11	0.00
379.31	0.00
379.50	0.00
379.70	0.00
379.89	0.00
380.09	0.00
380.28	0.00
380.48	0.00
380.68	0.00
380.87	0.00
381.07	0.00
381.26	0.00
381.46	0.00
381.65	0.00
381.85	0.00
382.04	0.00
382.24	0.00
382.43	0.00
382.63	0.00
382.83	0.00
383.02	0.00
383.22	0.00
383.41	0.00
383.61	0.00
383.80	0.00
384.00	0.00
384.19	0.00
384.39	0.00
384.58	0.00
384.78	0.00
384.97	0.00
385.17	0.00
385.36	0.00
385.56	0.00
385.75	0.00
385.95	0.00
386.14	0.00
386.34	0.00
386.53	0.00
386.72	0.00
386.92	0.00
387.11	0.00
387.31	0.00
387.50	0.00
387.70	0.00
387.89	0.00
388.09	0.00
388.28	0.00
388.48	0.00
388.67	0.00
388.86	0.00
389.06	0.00
389.25	0.00
389.45	0.00
389.64	0.00
389.84	0.00
390.03	0.00
390.22	0.00
390.42	0.00
390.61	0.00
390.81	0.00
391.00	0.00
391.19	0.00
391.39	0.00
391.58	0.00
391.78	0.00
391.97	0.00
392.16	0.00
392.36	0.00
392.55	0.00
392.75	0.00
392.94	0.00
393.13	0.00
393.33	0.00
393.52	0.00
393.71	0.00
393.91	0.00
394.10	0.00
394.29	0.00
394.49	0.00
394.68	0.00
394.88	0.00
395.07	0.00
395.26	0.00
395.46	0.00
395.65	0.00
395.84	0.00
396.04	0.00
396.23	0.00
396.42	0.00
396.62	0.00
396.81	0.00
397.00	0.00
397.19	0.00
397.39	0.00
397.58	0.00
397.77	0.00
397.97	0.00
398.16	0.00
398.35	0.00
398.55	0.00
398.74	0.00
398.93	0.00
399.12	0.00
399.32	0.00
399.51	0.00
399.70	0.00
399.90	0.00
400.09	0.00
400.28	0.00
400.47	0.00
400.67	0.00
400.86	0.00
401.05	0.00
401.24	0.00
401.44	0.00
401.63	0.00
401.82	0.00
402.01	0.00
402.21	0.00
402.40	0.00
402.59	0.00
402.78	0.00
402.97	0.00
403.17	0.00
403.36	0.00
403.55	0.00
403.74	0.00
403.93	0.00
404.13	0.00
404.32	0.00
404.51	0.00
404.70	0.00
404.89	0.00
405.09	0.00
405.28	0.00
405.47	0.00
405.66	0.00
405.85	0.00
406.05	0.00
406.24	0.00
406.43	0.00
406.62	0.00
406.81	0.00
407.00	0.00
407.20	0.00
407.39	0.00
407.58	0.00
407.77	0.00
407.96	0.00
408.15	0.00
408.34	0.00
408.54	0.00
408.73	0.00
408.92	0.00
409.11	0.00
409.30	0.00
409.49	0.00
409.68	0.00
409.87	0.00
410.07	0.00
410.26	0.00
410.45	0.00
410.64	0.00
410.83	0.00
411.02	0.00
411.21	0.00
411.40	0.00
411.59	0.00
411.78	0.00
411.98	0.00
412.17	0.00
412.36	0.00
412.55	0.00
412.74	0.00
412.93	0.00
413.12	0.00
413.31	0.00
413.50	0.00
413.69	0.00
413.88	0.00
414.07	0.00
414.26	0.00
414.45	0.00
414.64	0.00
414.83	0.00
415.02	0.00
415.22	0.00
415.41	0.00
415.60	0.00
415.79	0.00
415.98	0.00
416.17	0.00
416.36	0.00
416.55	0.00
416.74	0.00
416.93	0.00
417.12	0.00
417.31	0.00
417.50	0.00
417.69	0.00
417.88	0.00
418.07	0.00
418.26	0.00
418.45	0.00
418.64	0.00
418.83	0.00
419.02	0.00
419.21	0.00
419.39	0.00
419.58	0.00
419.77	0.00
419.96	0.00
420.15	0.00
420.34	0.00
420.53	0.00
420.72	0.00
420.91	0.00
421.10	0.00
421.29	0.00
421.48	0.00
421.67	0.00
421.86	0.00
422.05	0.00
422.24	0.00
422.43	0.00
422.61	0.00
422.80	0.00
422.99	0.00
423.18	0.00
423.37	0.00
423.56	0.00
423.75	0.00
423.94	0.00
424.13	0.00
424.32	0.00
424.50	0.00
424.69	0.00
424.88	0.00
425.07	0.00
425.26	0.00
425.45	0.00
425.64	0.00
425.83	0.00
426.01	0.00
426.20	0.00
426.39	0.00
426.58	0.00
426.77	0.00
426.96	0.00
427.15	0.00
427.33	0.00
427.52	0.00
427.71	0.00
427.90	0.00
428.09	0.00
428.28	0.00
428.46	0.00
428.65	0.00
428.84	0.00
429.03	0.00
429.22	0.00
429.40	0.00
429.59	0.00
429.78	0.00
429.97	0.00
430.16	0.00
430.34	0.00
430.53	0.00
430.72	0.00
430.91	0.00
431.10	0.00
431.28	0.00
431.47	0.00
431.66	0.00
431.85	0.00
432.03	0.00
432.22	14.04
432.41	0.00
432.60	0.00
432.79	0.00
432.97	0.00
433.16	0.00
433.35	0.00
433.54	0.00
433.72	0.00
433.91	0.00
434.10	0.00
434.28	0.00
434.47	0.00
434.66	0.00
434.85	0.00
435.03	0.00
435.22	0.00
435.41	0.00
435.59	0.00
435.78	0.00
435.97	0.00
436.16	0.00
436.34	0.00
436.53	0.00
436.72	0.00
436.90	0.00
437.09	0.00
437.28	0.00
437.46	0.00
437.65	0.00
437.84	0.00
438.02	0.00
438.21	0.00
438.40	0.00
438.58	0.00
438.77	0.00
438.96	0.00
439.14	0.00
439.33	0.00
439.52	0.00
439.70	0.00
439.89	0.00
440.08	0.00
440.26	0.00
440.45	0.00
440.63	0.00
440.82	0.00
441.01	4.68
441.19	0.00
441.38	0.00
441.57	0.00
441.75	0.00
441.94	23.41
442.12	0.00
442.31	0.00
442.50	0.00
442.68	0.00
442.87	0.00
443.05	0.00
443.24	0.00
443.43	0.00
443.61	0.00
443.80	0.00
443.98	0.00
444.17	0.00
444.35	0.00
444.54	0.00
444.73	0.00
444.91	4.68
445.10	0.00
445.28	0.00
445.47	0.00
445.65	0.00
445.84	0.00
446.02	0.00
446.21	0.00
446.39	0.00
446.58	0.00
446.77	0.00
446.95	0.00
447.14	0.00
447.32	0.00
447.51	0.00
447.69	0.00
447.88	0.00
448.06	7.02
448.25	0.00
448.43	0.00
448.62	0.00
448.80	0.00
448.99	2.34
449.17	0.00
449.36	0.00
449.54	21.06
449.73	0.00
449.91	0.00
450.10	0.00
450.28	84.26
450.46	0.00
450.65	0.00
450.83	0.00
451.02	0.00
451.20	0.00
451.39	0.00
451.57	0.00
451.76	4.68
451.94	0.00
452.13	0.00
452.31	0.00
452.49	0.00
452.68	0.00
452.86	0.00
453.05	46.81
453.23	0.00
453.42	0.00
453.60	9.36
453.78	0.00
453.97	0.00
454.15	0.00
454.34	0.00
454.52	0.00
454.70	21.06
454.89	9.36
455.07	0.00
455.26	23.41
455.44	0.00
455.62	0.00
455.81	0.00
455.99	0.00
456.17	0.00
456.36	2.34
456.54	0.00
456.73	0.00
456.91	0.00
457.09	0.00
457.28	0.00
457.46	4.68
457.64	0.00
457.83	0.00
458.01	0.00
458.19	0.00
458.38	23.41
458.56	0.00
458.74	0.00
458.93	0.00
459.11	0.00
459.29	0.00
459.48	0.00
459.66	0.00
459.84	0.00
460.03	72.56
460.21	0.00
460.39	0.00
460.57	0.00
460.76	0.00
460.94	0.00
461.12	14.04
461.31	0.00
461.49	18.72
461.67	0.00
461.85	14.04
462.04	0.00
462.22	622.58
462.40	0.00
462.59	0.00
462.77	0.00
462.95	14.04
463.13	0.00
463.32	0.00
463.50	0.00
463.68	0.00
463.86	0.00
464.05	0.00
464.23	0.00
464.41	0.00
464.59	0.00
464.78	0.00
464.96	16.38
465.14	0.00
465.32	0.00
465.50	0.00
465.69	16.38
465.87	0.00
466.05	0.00
466.23	0.00
466.41	28.09
466.60	0.00
466.78	0.00
466.96	0.00
467.14	0.00
467.32	7.02
467.51	0.00
467.69	0.00
467.87	49.15
468.05	0.00
468.23	14.04
468.41	18.72
468.60	0.00
468.78	32.77
468.96	28.09
469.14	0.00
469.32	14.04
469.50	0.00
469.69	0.00
469.87	0.00
470.05	37.45
470.23	0.00
470.41	0.00
470.59	0.00
470.77	0.00
470.95	35.11
471.14	0.00
471.32	0.00
471.50	0.00
471.68	30.43
471.86	0.00
472.04	30.43
472.22	0.00
472.40	0.00
472.58	16.38
472.77	0.00
472.95	21.06
473.13	110.01
473.31	0.00
473.49	0.00
473.67	39.79
473.85	23.41
474.03	4.68
474.21	0.00
474.39	93.62
474.57	105.32
474.75	72.56
474.93	18.72
475.12	4.68
475.30	44.47
475.48	18.72
475.66	0.00
475.84	23.41
476.02	42.13
476.20	58.51
476.38	35.11
476.56	86.60
476.74	0.00
476.92	16.38
477.10	44.47
477.28	0.00
477.46	0.00
477.64	112.35
477.82	88.94
478.00	14.04
478.18	65.54
478.36	53.83
478.54	0.00
478.72	4.68
478.90	11.70
479.08	56.17
479.26	79.58
479.44	91.28
479.62	0.00
479.80	37.45
479.98	0.00
480.16	0.00
480.34	168.52
480.52	0.00
480.70	16.38
480.88	7.02
481.06	21.06
481.24	0.00
481.41	84.26
481.59	119.37
481.77	79.58
481.95	25.75
482.13	84.26
482.31	70.22
482.49	44.47
482.67	128.73
482.85	98.30
483.03	72.56
483.21	63.19
483.39	77.24
483.57	28.09
483.74	133.41
483.92	51.49
484.10	84.26
484.28	49.15
484.46	147.45
484.64	84.26
484.82	32.77
485.00	35.11
485.18	18.72
485.35	88.94
485.53	0.00
485.71	93.62
485.89	67.88
486.07	42.13
486.25	84.26
486.43	86.60
486.61	49.15
486.78	100.64
486.96	77.24
487.14	0.00
487.32	0.00
487.50	42.13
487.68	138.09
487.85	56.17
488.03	105.32
488.21	189.58
488.39	121.71
488.57	60.85
488.75	119.37
488.92	482.15
489.10	236.39
489.28	224.69
489.46	81.92
489.64	140.43
489.81	149.79
489.99	166.18
490.17	142.77
490.35	189.58
490.53	117.03
490.70	86.60
490.88	184.90
491.06	88.94
491.24	138.09
491.41	138.09
491.59	126.39
491.77	95.96
491.95	102.98
492.13	119.37
492.30	156.82
492.48	135.75
492.66	138.09
492.84	201.29
493.01	156.82
493.19	175.54
493.37	236.39
493.54	128.73
493.72	161.50
493.90	133.41
494.08	191.92
494.25	168.52
494.43	161.50
494.61	128.73
494.79	210.65
494.96	175.54
495.14	114.69
495.32	140.43
495.49	149.79
495.67	140.43
495.85	212.99
496.02	217.67
496.20	222.35
496.38	215.33
496.55	121.71
496.73	189.58
496.91	236.39
497.09	227.03
497.26	238.73
497.44	220.01
497.62	175.54
497.79	60.85
497.97	175.54
498.14	154.48
498.32	210.65
498.50	194.26
498.67	175.54
498.85	229.37
499.03	217.67
499.20	229.37
499.38	250.44
499.56	161.50
499.73	259.80
499.91	217.67
500.08	135.75
500.26	131.07
500.44	177.88
500.61	147.45
500.79	224.69
500.97	198.95
501.14	140.43
501.32	173.20
501.49	201.29
501.67	156.82
501.84	269.16
502.02	156.82
502.20	236.39
502.37	196.60
502.55	152.13
502.72	194.26
502.90	276.18
503.07	170.86
503.25	208.31
503.43	198.95
503.60	189.58
503.78	241.08
503.95	236.39
504.13	241.08
504.30	107.66
504.48	266.82
504.65	220.01
504.83	262.14
505.01	248.10
505.18	210.65
505.36	227.03
505.53	234.05
505.71	215.33
505.88	294.91
506.06	238.73
506.23	276.18
506.41	163.84
506.58	285.55
506.76	238.73
506.93	227.03
507.11	217.67
507.28	166.18
507.46	175.54
507.63	250.44
507.81	220.01
507.98	149.79
508.16	264.48
508.33	187.24
508.50	259.80
508.68	257.46
508.85	304.27
509.03	252.78
509.20	243.42
509.38	259.80
509.55	250.44
509.73	369.80
509.90	318.31
510.08	262.14
510.25	245.76
510.42	360.44
510.60	280.86
510.77	313.63
510.95	301.93
511.12	271.50
511.30	299.59
511.47	327.68
511.64	372.15
511.82	222.35
511.99	299.59
512.17	194.26
512.34	250.44
512.51	320.65
512.69	191.92
512.86	229.37
513.04	229.37
513.21	325.33
513.38	212.99
513.56	231.71
513.73	224.69
513.90	191.92
514.08	231.71
514.25	227.03
514.43	304.27
514.60	273.84
514.77	215.33
514.95	191.92
515.12	191.92
515.29	337.04
515.47	257.46
515.64	224.69
515.81	271.50
515.99	278.52
516.16	271.50
516.33	163.84
516.51	119.37
516.68	149.79
516.85	110.01
517.03	217.67
517.20	224.69
517.37	245.76
517.54	264.48
517.72	217.67
517.89	152.13
518.06	161.50
518.24	222.35
518.41	227.03
518.58	287.89
518.75	159.16
518.93	278.52
519.10	287.89
519.27	205.97
519.45	252.78
519.62	292.57
519.79	318.31
519.96	243.42
520.14	264.48
520.31	315.97
520.48	273.84
520.65	306.61
520.83	322.99
521.00	255.12
521.17	180.22
521.34	325.33
521.52	273.84
521.69	236.39
521.86	308.95
522.03	383.85
522.20	367.46
522.38	210.65
522.55	257.46
522.72	297.25
522.89	351.08
523.07	334.70
523.24	297.25
523.41	252.78
523.58	311.29
523.75	243.42
523.92	217.67
524.10	383.85
524.27	332.36
524.44	341.72
524.61	285.55
524.78	299.59
524.96	346.40
525.13	234.05
525.30	358.10
525.47	337.04
525.64	280.86
525.81	337.04
525.98	353.42
526.16	212.99
526.33	212.99
526.50	159.16
526.67	184.90
526.84	292.57
527.01	344.06
527.18	248.10
527.36	238.73
527.53	285.55
527.70	369.80
527.87	294.91
528.04	360.44
528.21	236.39
528.38	334.70
528.55	367.46
528.72	372.15
528.89	421.30
529.07	372.15
529.24	341.72
529.41	358.10
529.58	299.59
529.75	248.10
529.92	379.17
530.09	339.38
530.26	393.21
530.43	362.78
530.60	285.55
530.77	334.70
530.94	339.38
531.11	400.23
531.28	325.33
531.46	311.29
531.63	264.48
531.80	348.74
531.97	304.27
532.14	252.78
532.31	250.44
532.48	222.35
532.65	351.08
532.82	257.46
532.99	344.06
533.16	322.99
533.33	330.02
533.50	285.55
533.67	332.36
533.84	325.33
534.01	383.85
534.18	280.86
534.35	379.17
534.52	344.06
534.69	360.44
534.86	273.84
535.03	376.83
535.20	437.68
535.37	369.80
535.54	435.34
535.71	290.23
535.88	442.36
536.05	285.55
536.22	327.68
536.38	339.38
536.55	276.18
536.72	313.63
536.89	248.10
537.06	285.55
537.23	325.33
537.40	365.12
537.57	301.93
537.74	255.12
537.91	367.46
538.08	262.14
538.25	285.55
538.42	306.61
538.59	353.42
538.75	367.46
538.92	320.65
539.09	297.25
539.26	248.10
539.43	369.80
539.60	308.95
539.77	271.50
539.94	358.10
540.11	337.04
540.28	266.82
540.44	346.40
540.61	311.29
540.78	283.20
540.95	287.89
541.12	414.27
541.29	351.08
541.46	395.55
541.62	297.25
541.79	353.42
541.96	243.42
542.13	278.52
542.30	351.08
542.47	386.19
542.63	337.04
542.80	386.19
542.97	360.44
543.14	273.84
543.31	346.40
543.48	374.49
543.64	411.93
543.81	344.06
543.98	381.51
544.15	372.15
544.32	337.04
544.48	308.95
544.65	278.52
544.82	348.74
544.99	339.38
545.16	313.63
545.32	332.36
545.49	325.33
545.66	301.93
545.83	360.44
546.00	318.31
546.16	390.87
546.33	390.87
546.50	325.33
546.67	367.46
546.83	318.31
547.00	351.08
547.17	367.46
547.34	273.84
547.50	320.65
547.67	379.17
547.84	280.86
548.00	390.87
548.17	332.36
548.34	355.76
548.51	458.74
548.67	369.80
548.84	283.20
549.01	344.06
549.18	379.17
549.34	269.16
549.51	330.02
549.68	411.93
549.84	308.95
550.01	308.95
550.18	463.43
550.34	425.98
550.51	344.06
550.68	376.83
550.84	266.82
551.01	330.02
551.18	318.31
551.34	409.59
551.51	388.53
551.68	402.57
551.84	435.34
552.01	411.93
552.18	306.61
552.34	376.83
552.51	318.31
552.68	341.72
552.84	341.72
553.01	315.97
553.18	306.61
553.34	318.31
553.51	402.57
553.67	355.76
553.84	259.80
554.01	397.89
554.17	447.04
554.34	318.31
554.51	376.83
554.67	374.49
554.84	444.70
555.00	430.66
555.17	388.53
555.33	374.49
555.50	327.68
555.67	337.04
555.83	283.20
556.00	390.87
556.16	587.47
556.33	423.64
556.50	320.65
556.66	337.04
556.83	297.25
556.99	355.76
557.16	367.46
557.32	339.38
557.49	353.42
557.65	365.12
557.82	332.36
557.98	330.02
558.15	308.95
558.32	308.95
558.48	245.76
558.65	339.38
558.81	337.04
558.98	374.49
559.14	381.51
559.31	264.48
559.47	320.65
559.64	365.12
559.80	334.70
559.97	290.23
560.13	327.68
560.30	355.76
560.46	313.63
560.63	351.08
560.79	388.53
560.96	297.25
561.12	264.48
561.29	344.06
561.45	369.80
561.61	334.70
561.78	479.81
561.94	292.57
562.11	348.74
562.27	337.04
562.44	315.97
562.60	407.25
562.77	365.12
562.93	414.27
563.10	334.70
563.26	201.29
563.42	304.27
563.59	353.42
563.75	334.70
563.92	416.62
564.08	344.06
564.24	341.72
564.41	381.51
564.57	341.72
564.74	252.78
564.90	353.42
565.07	337.04
565.23	306.61
565.39	308.95
565.56	355.76
565.72	322.99
565.88	308.95
566.05	367.46
566.21	379.17
566.38	280.86
566.54	280.86
566.70	339.38
566.87	372.15
567.03	255.12
567.19	353.42
567.36	348.74
567.52	299.59
567.68	416.62
567.85	292.57
568.01	304.27
568.17	259.80
568.34	360.44
568.50	367.46
568.66	290.23
568.83	404.91
568.99	287.89
569.15	304.27
569.32	294.91
569.48	306.61
569.64	220.01
569.81	332.36
569.97	299.59
570.13	379.17
570.30	334.70
570.46	292.57
570.62	325.33
570.78	351.08
570.95	236.39
571.11	355.76
571.27	313.63
571.43	301.93
571.60	325.33
571.76	332.36
571.92	388.53
572.09	245.76
572.25	351.08
572.41	388.53
572.57	372.15
572.74	390.87
572.90	301.93
573.06	365.12
573.22	444.70
573.38	297.25
573.55	337.04
573.71	334.70
573.87	327.68
574.03	330.02
574.20	337.04
574.36	407.25
574.52	372.15
574.68	313.63
574.84	311.29
575.01	266.82
575.17	344.06
575.33	311.29
575.49	290.23
575.65	381.51
575.82	351.08
575.98	290.23
576.14	315.97
576.30	236.39
576.46	372.15
576.62	367.46
576.79	372.15
576.95	325.33
577.11	322.99
577.27	386.19
577.43	428.32
577.59	250.44
577.75	353.42
577.92	355.76
578.08	238.73
578.24	318.31
578.40	318.31
578.56	344.06
578.72	339.38
578.88	334.70
579.04	351.08
579.21	414.27
579.37	269.16
579.53	285.55
579.69	381.51
579.85	224.69
580.01	339.38
580.17	294.91
580.33	353.42
580.49	301.93
580.65	332.36
580.82	297.25
580.98	322.99
581.14	327.68
581.30	374.49
581.46	308.95
581.62	374.49
581.78	264.48
581.94	301.93
582.10	283.20
582.26	306.61
582.42	374.49
582.58	362.78
582.74	285.55
582.90	271.50
583.06	306.61
583.22	301.93
583.38	273.84
583.54	290.23
583.70	374.49
583.86	393.21
584.02	292.57
584.18	407.25
584.34	320.65
584.50	292.57
584.66	306.61
584.82	322.99
584.98	292.57
585.14	271.50
585.30	301.93
585.46	231.71
585.62	259.80
585.78	283.20
585.94	290.23
586.10	297.25
586.26	290.23
586.42	346.40
586.58	353.42
586.74	304.27
586.90	369.80
587.06	297.25
587.22	383.85
587.38	266.82
587.54	337.04
587.70	348.74
587.86	355.76
588.02	294.91
588.18	351.08
588.34	320.65
588.49	175.54
588.65	205.97
588.81	245.76
588.97	245.76
589.13	196.60
589.29	269.16
589.45	257.46
589.61	243.42
589.77	283.20
589.93	271.50
590.08	278.52
590.24	252.78
590.40	337.04
590.56	308.95
590.72	283.20
590.88	224.69
591.04	304.27
591.20	269.16
591.35	327.68
591.51	313.63
591.67	292.57
591.83	266.82
591.99	294.91
592.15	374.49
592.31	337.04
592.46	287.89
592.62	355.76
592.78	227.03
592.94	290.23
593.10	346.40
593.26	217.67
593.41	243.42
593.57	198.95
593.73	271.50
593.89	266.82
594.05	283.20
594.20	287.89
594.36	294.91
594.52	257.46
594.68	299.59
594.84	250.44
594.99	234.05
595.15	276.18
595.31	330.02
595.47	266.82
595.62	411.93
595.78	287.89
595.94	220.01
596.10	276.18
596.25	313.63
596.41	327.68
596.57	280.86
596.73	264.48
596.88	271.50
597.04	322.99
597.20	264.48
597.36	276.18
597.51	353.42
597.67	283.20
597.83	262.14
597.99	292.57
598.14	346.40
598.30	273.84
598.46	276.18
598.61	290.23
598.77	280.86
598.93	245.76
599.09	257.46
599.24	330.02
599.40	306.61
599.56	220.01
599.71	330.02
599.87	243.42
600.03	231.71
600.18	365.12
600.34	297.25
600.50	224.69
600.65	236.39
600.81	320.65
600.97	243.42
601.12	224.69
601.28	283.20
601.44	266.82
601.59	170.86
601.75	224.69
601.91	243.42
602.06	285.55
602.22	252.78
602.37	224.69
602.53	196.60
602.69	311.29
602.84	294.91
603.00	276.18
603.16	341.72
603.31	264.48
603.47	236.39
603.62	299.59
603.78	334.70
603.94	351.08
604.09	306.61
604.25	255.12
604.40	318.31
604.56	285.55
604.71	283.20
604.87	285.55
605.03	210.65
605.18	280.86
605.34	264.48
605.49	243.42
605.65	262.14
605.80	140.43
605.96	243.42
606.12	255.12
606.27	322.99
606.43	262.14
606.58	313.63
606.74	313.63
606.89	287.89
607.05	292.57
607.20	276.18
607.36	248.10
607.51	297.25
607.67	245.76
607.82	259.80
607.98	325.33
608.13	236.39
608.29	266.82
608.44	285.55
608.60	215.33
608.75	369.80
608.91	299.59
609.06	292.57
609.22	259.80
609.37	177.88
609.53	278.52
609.68	273.84
609.84	175.54
609.99	187.24
610.15	266.82
610.30	238.73
610.46	222.35
610.61	285.55
610.76	255.12
610.92	227.03
611.07	215.33
611.23	278.52
611.38	182.56
611.54	271.50
611.69	163.84
611.84	196.60
612.00	154.48
612.15	262.14
612.31	203.63
612.46	163.84
612.62	264.48
612.77	294.91
612.92	245.76
613.08	271.50
613.23	264.48
613.39	259.80
613.54	189.58
613.69	180.22
613.85	224.69
614.00	217.67
614.15	220.01
614.31	231.71
614.46	278.52
614.62	257.46
614.77	236.39
614.92	252.78
615.08	227.03
615.23	229.37
615.38	189.58
615.54	194.26
615.69	222.35
615.84	191.92
616.00	201.29
616.15	217.67
616.30	177.88
616.46	114.69
616.61	142.77
616.76	212.99
616.92	238.73
617.07	276.18
617.22	191.92
617.37	245.76
617.53	220.01
617.68	203.63
617.83	224.69
617.99	327.68
618.14	327.68
618.29	187.24
618.45	238.73
618.60	196.60
618.75	248.10
618.90	198.95
619.06	196.60
619.21	278.52
619.36	308.95
619.51	182.56
619.67	227.03
619.82	119.37
619.97	250.44
620.12	273.84
620.28	187.24
620.43	238.73
620.58	252.78
620.73	191.92
620.89	180.22
621.04	177.88
621.19	287.89
621.34	276.18
621.49	212.99
621.65	189.58
621.80	217.67
621.95	121.71
622.10	238.73
622.25	156.82
622.41	152.13
622.56	180.22
622.71	215.33
622.86	191.92
623.01	119.37
623.16	121.71
623.32	163.84
623.47	243.42
623.62	220.01
623.77	175.54
623.92	170.86
624.07	138.09
624.23	208.31
624.38	168.52
624.53	205.97
624.68	285.55
624.83	266.82
624.98	173.20
625.13	203.63
625.29	208.31
625.44	187.24
625.59	257.46
625.74	224.69
625.89	203.63
626.04	149.79
626.19	180.22
626.34	205.97
626.49	189.58
626.65	234.05
626.80	187.24
626.95	154.48
627.10	81.92
627.25	191.92
627.40	133.41
627.55	184.90
627.70	180.22
627.85	217.67
628.00	135.75
628.15	163.84
628.30	102.98
628.45	187.24
628.60	163.84
628.76	117.03
628.91	159.16
629.06	86.60
629.21	227.03
629.36	93.62
629.51	152.13
629.66	163.84
629.81	140.43
629.96	217.67
630.11	245.76
630.26	182.56
630.41	98.30
630.56	117.03
630.71	114.69
630.86	142.77
631.01	121.71
631.16	131.07
631.31	187.24
631.46	196.60
631.61	220.01
631.76	205.97
631.91	189.58
632.06	212.99
632.21	117.03
632.36	140.43
632.51	154.48
632.66	224.69
632.81	126.39
632.96	126.39
633.10	198.95
633.25	198.95
633.40	175.54
633.55	133.41
633.70	110.01
633.85	170.86
634.00	191.92
634.15	88.94
634.30	142.77
634.45	119.37
634.60	142.77
634.75	56.17
634.90	177.88
635.05	180.22
635.19	145.11
635.34	168.52
635.49	184.90
635.64	168.52
635.79	114.69
635.94	184.90
636.09	182.56
636.24	161.50
636.39	114.69
636.53	161.50
636.68	107.66
636.83	250.44
636.98	229.37
637.13	147.45
637.28	119.37
637.43	149.79
637.57	203.63
637.72	255.12
637.87	180.22
638.02	203.63
638.17	166.18
638.32	196.60
638.46	285.55
638.61	156.82
638.76	138.09
638.91	159.16
639.06	102.98
639.20	222.35
639.35	135.75
639.50	149.79
639.65	187.24
639.80	205.97
639.94	182.56
640.09	236.39
640.24	175.54
640.39	194.26
640.54	180.22
640.68	205.97
640.83	196.60
640.98	163.84
641.13	95.96
641.27	98.30
641.42	110.01
641.57	238.73
641.72	135.75
641.86	128.73
642.01	173.20
642.16	154.48
642.31	95.96
642.45	229.37
642.60	203.63
642.75	131.07
642.90	189.58
643.04	189.58
643.19	126.39
643.34	128.73
643.48	100.64
643.63	46.81
643.78	220.01
643.93	170.86
644.07	110.01
644.22	159.16
644.37	117.03
644.51	131.07
644.66	180.22
644.81	135.75
644.95	156.82
645.10	91.28
645.25	65.54
645.39	114.69
645.54	100.64
645.69	124.05
645.83	95.96
645.98	194.26
646.13	102.98
646.27	156.82
646.42	46.81
646.57	133.41
646.71	154.48
646.86	67.88
647.00	81.92
647.15	72.56
647.30	63.19
647.44	131.07
647.59	131.07
647.74	133.41
647.88	93.62
648.03	58.51
648.17	149.79
648.32	159.16
648.47	119.37
648.61	88.94
648.76	126.39
648.90	168.52
649.05	81.92
649.20	67.88
649.34	95.96
649.49	117.03
649.63	133.41
649.78	72.56
649.92	44.47
650.07	163.84
650.21	98.30
650.36	198.95
650.51	196.60
650.65	147.45
650.80	180.22
650.94	65.54
651.09	100.64
651.23	119.37
651.38	124.05
651.52	126.39
651.67	72.56
651.81	147.45
651.96	147.45
652.10	170.86
652.25	131.07
652.39	119.37
652.54	152.13
652.68	119.37
652.83	203.63
652.97	107.66
653.12	110.01
653.26	63.19
653.41	170.86
653.55	117.03
653.70	102.98
653.84	98.30
653.99	60.85
654.13	70.22
654.27	91.28
654.42	60.85
654.56	58.51
654.71	142.77
654.85	117.03
655.00	88.94
655.14	91.28
655.29	91.28
655.43	126.39
655.57	14.04
655.72	23.41
655.86	0.00
656.01	7.02
656.15	63.19
656.30	67.88
656.44	49.15
656.58	72.56
656.73	28.09
656.87	46.81
657.01	159.16
657.16	112.35
657.30	128.73
657.45	217.67
657.59	16.38
657.73	9.36
657.88	93.62
658.02	208.31
658.16	102.98
658.31	126.39
658.45	37.45
658.60	77.24
658.74	142.77
658.88	72.56
659.03	142.77
659.17	60.85
659.31	72.56
659.46	53.83
659.60	93.62
659.74	30.43
659.89	110.01
660.03	58.51
660.17	168.52
660.32	35.11
660.46	121.71
660.60	67.88
660.74	58.51
660.89	149.79
661.03	51.49
661.17	74.90
661.32	77.24
661.46	98.30
661.60	110.01
661.74	145.11
661.89	102.98
662.03	163.84
662.17	135.75
662.31	51.49
662.46	37.45
662.60	142.77
662.74	102.98
662.88	84.26
663.03	166.18
663.17	74.90
663.31	28.09
663.45	67.88
663.60	49.15
663.74	53.83
663.88	11.70
664.02	112.35
664.17	121.71
664.31	4.68
664.45	56.17
664.59	187.24
664.73	131.07
664.88	140.43
665.02	84.26
665.16	110.01
665.30	138.09
665.44	16.38
665.59	175.54
665.73	84.26
665.87	46.81
666.01	25.75
666.15	0.00
666.29	18.72
666.44	107.66
666.58	180.22
666.72	70.22
666.86	0.00
667.00	91.28
667.14	121.71
667.28	79.58
667.43	23.41
667.57	51.49
667.71	4.68
667.85	49.15
667.99	98.30
668.13	16.38
668.27	56.17
668.41	84.26
668.56	32.77
668.70	145.11
668.84	117.03
668.98	72.56
669.12	63.19
669.26	110.01
669.40	100.64
669.54	117.03
669.68	72.56
669.82	0.00
669.96	0.00
670.10	100.64
670.25	0.00
670.39	39.79
670.53	65.54
670.67	49.15
670.81	67.88
670.95	93.62
671.09	142.77
671.23	65.54
671.37	124.05
671.51	131.07
671.65	25.75
671.79	67.88
671.93	37.45
672.07	86.60
672.21	51.49
672.35	93.62
672.49	32.77
672.63	67.88
672.77	49.15
672.91	100.64
673.05	0.00
673.19	56.17
673.33	28.09
673.47	124.05
673.61	93.62
673.75	16.38
673.89	16.38
674.03	56.17
674.17	0.00
674.31	0.00
674.45	46.81
674.59	0.00
674.73	84.26
674.87	39.79
675.01	0.00
675.15	0.00
675.29	65.54
675.43	23.41
675.56	2.34
675.70	84.26
675.84	35.11
675.98	72.56
676.12	0.00
676.26	4.68
676.40	0.00
676.54	28.09
676.68	0.00
676.82	32.77
676.96	88.94
677.10	0.00
677.23	16.38
677.37	39.79
677.51	51.49
677.65	30.43
677.79	0.00
677.93	0.00
678.07	0.00
678.21	0.00
678.34	0.00
678.48	0.00
678.62	0.00
678.76	0.00
678.90	4.68
679.04	0.00
679.18	56.17
679.31	0.00
679.45	0.00
679.59	0.00
679.73	4.68
679.87	0.00
680.00	9.36
680.14	49.15
680.28	0.00
680.42	39.79
680.56	18.72
680.70	0.00
680.83	18.72
680.97	0.00
681.11	9.36
681.25	0.00
681.39	21.06
681.52	0.00
681.66	0.00
681.80	28.09
681.94	0.00
682.07	0.00
682.21	21.06
682.35	0.00
682.49	0.00
682.62	32.77
682.76	0.00
682.90	0.00
683.04	0.00
683.17	91.28
683.31	0.00
683.45	0.00
683.59	9.36
683.72	0.00
683.86	0.00
684.00	11.70
684.13	0.00
684.27	0.00
684.41	2.34
684.55	0.00
684.68	0.00
684.82	0.00
684.96	0.00
685.09	0.00
685.23	0.00
685.37	0.00
685.50	0.00
685.64	23.41
685.78	0.00
685.91	0.00
686.05	21.06
686.19	0.00
686.32	0.00
686.46	0.00
686.60	0.00
686.73	0.00
686.87	0.00
687.01	0.00
687.14	0.00
687.28	0.00
687.42	0.00
687.55	0.00
687.69	0.00
687.82	11.70
687.96	0.00
688.10	0.00
688.23	0.00
688.37	0.00
688.50	0.00
688.64	0.00
688.78	0.00
688.91	0.00
689.05	0.00
689.18	0.00
689.32	0.00
689.46	0.00
689.59	0.00
689.73	0.00
689.86	0.00
690.00	0.00
690.13	0.00
690.27	0.00
690.41	16.38
690.54	51.49
690.68	0.00
690.81	0.00
690.95	0.00
691.08	0.00
691.22	0.00
691.35	0.00
691.49	0.00
691.62	0.00
691.76	0.00
691.89	0.00
692.03	0.00
692.16	0.00
692.30	0.00
692.43	0.00
692.57	0.00
692.70	0.00
692.84	0.00
692.97	0.00
693.11	0.00
693.24	0.00
693.38	0.00
693.51	0.00
693.65	0.00
693.78	0.00
693.92	0.00
694.05	11.70
694.19	0.00
694.32	0.00
694.45	0.00
694.59	0.00
694.72	0.00
694.86	0.00
694.99	0.00
695.13	0.00
695.26	0.00
695.39	0.00
695.53	28.09
695.66	0.00
695.80	0.00
695.93	0.00
696.07	0.00
696.20	0.00
696.33	0.00
696.47	0.00
696.60	0.00
696.73	0.00
696.87	0.00
697.00	11.70
697.14	0.00
697.27	0.00
697.40	42.13
697.54	0.00
697.67	0.00
697.80	0.00
697.94	0.00
698.07	0.00
698.21	0.00
698.34	0.00
698.47	0.00
698.61	0.00
698.74	0.00
698.87	0.00
699.01	0.00
699.14	0.00
699.27	0.00
699.40	81.92
699.54	0.00
699.67	0.00
699.80	0.00
699.94	0.00
700.07	0.00
700.20	0.00
700.34	0.00
700.47	0.00
700.60	0.00
700.73	0.00
700.87	0.00
701.00	0.00
701.13	0.00
701.26	0.00
701.40	0.00
701.53	0.00
701.66	0.00
701.79	0.00
701.93	0.00
702.06	0.00
702.19	0.00
702.32	0.00
702.46	0.00
702.59	0.00
702.72	0.00
702.85	0.00
702.99	0.00
703.12	0.00
703.25	0.00
703.38	0.00
703.51	0.00
703.65	0.00
703.78	0.00
703.91	0.00
704.04	0.00
704.17	0.00
704.31	0.00
704.44	0.00
704.57	0.00
704.70	0.00
704.83	0.00
704.96	0.00
705.10	0.00
705.23	0.00
>>>>>End Processed Spectral Data<<<<<
