SpectraSuite Data File
++++++++++++++++++++++++++++++++++++
Date: Mon Oct 07 14:59:55 GMT-05:00 2013
User: price-jones
Dark Spectrum Present: No
Reference Spectrum Present: No
Number of Sampled Component Spectra: 1
Spectrometers: USB2+H05261
Integration Time (usec): 100000 (USB2+H05261)
Spectra Averaged: 1 (USB2+H05261)
Boxcar Smoothing: 0 (USB2+H05261)
Correct for Electrical Dark: No (USB2+H05261)
Strobe/Lamp Enabled: No (USB2+H05261)
Correct for Detector Non-linearity: No (USB2+H05261)
Correct for Stray Light: No (USB2+H05261)
Number of Pixels in Processed Spectrum: 2048
>>>>>Begin Processed Spectral Data<<<<<
365.73	0.00
365.92	0.00
366.12	0.00
366.32	0.00
366.52	0.00
366.72	0.00
366.91	0.00
367.11	0.00
367.31	0.00
367.51	0.00
367.70	0.00
367.90	0.00
368.10	0.00
368.30	0.00
368.49	0.00
368.69	0.00
368.89	0.00
369.09	0.00
369.28	0.00
369.48	0.00
369.68	0.00
369.87	0.00
370.07	0.00
370.27	0.00
370.47	0.00
370.66	0.00
370.86	0.00
371.06	0.00
371.25	0.00
371.45	0.00
371.65	0.00
371.84	0.00
372.04	0.00
372.24	0.00
372.44	0.00
372.63	0.00
372.83	0.00
373.03	0.00
373.22	0.00
373.42	0.00
373.62	0.00
373.81	0.00
374.01	0.00
374.21	0.00
374.40	0.00
374.60	0.00
374.79	0.00
374.99	0.00
375.19	0.00
375.38	0.00
375.58	0.00
375.78	0.00
375.97	0.00
376.17	0.00
376.37	0.00
376.56	0.00
376.76	0.00
376.95	0.00
377.15	0.00
377.35	0.00
377.54	0.00
377.74	0.00
377.93	0.00
378.13	0.00
378.33	0.00
378.52	0.00
378.72	0.00
378.91	0.00
379.11	0.00
379.31	0.00
379.50	0.00
379.70	0.00
379.89	0.00
380.09	0.00
380.28	0.00
380.48	0.00
380.68	0.00
380.87	0.00
381.07	0.00
381.26	0.00
381.46	0.00
381.65	0.00
381.85	0.00
382.04	0.00
382.24	0.00
382.43	0.00
382.63	0.00
382.83	0.00
383.02	0.00
383.22	0.00
383.41	0.00
383.61	0.00
383.80	0.00
384.00	0.00
384.19	0.00
384.39	0.00
384.58	0.00
384.78	0.00
384.97	0.00
385.17	0.00
385.36	0.00
385.56	0.00
385.75	0.00
385.95	0.00
386.14	0.00
386.34	0.00
386.53	0.00
386.72	0.00
386.92	0.00
387.11	0.00
387.31	0.00
387.50	0.00
387.70	0.00
387.89	0.00
388.09	0.00
388.28	0.00
388.48	0.00
388.67	0.00
388.86	0.00
389.06	0.00
389.25	0.00
389.45	0.00
389.64	0.00
389.84	0.00
390.03	0.00
390.22	0.00
390.42	0.00
390.61	0.00
390.81	0.00
391.00	0.00
391.19	0.00
391.39	0.00
391.58	0.00
391.78	0.00
391.97	0.00
392.16	0.00
392.36	0.00
392.55	0.00
392.75	0.00
392.94	0.00
393.13	0.00
393.33	0.00
393.52	0.00
393.71	0.00
393.91	0.00
394.10	0.00
394.29	0.00
394.49	0.00
394.68	0.00
394.88	0.00
395.07	0.00
395.26	0.00
395.46	0.00
395.65	0.00
395.84	0.00
396.04	0.00
396.23	0.00
396.42	0.00
396.62	0.00
396.81	0.00
397.00	0.00
397.19	0.00
397.39	0.00
397.58	0.00
397.77	0.00
397.97	0.00
398.16	0.00
398.35	0.00
398.55	0.00
398.74	0.00
398.93	0.00
399.12	0.00
399.32	0.00
399.51	0.00
399.70	0.00
399.90	0.00
400.09	0.00
400.28	0.00
400.47	0.00
400.67	0.00
400.86	0.00
401.05	0.00
401.24	0.00
401.44	0.00
401.63	0.00
401.82	0.00
402.01	0.00
402.21	0.00
402.40	0.00
402.59	0.00
402.78	0.00
402.97	0.00
403.17	0.00
403.36	0.00
403.55	0.00
403.74	0.00
403.93	0.00
404.13	0.00
404.32	0.00
404.51	0.00
404.70	0.00
404.89	0.00
405.09	0.00
405.28	0.00
405.47	0.00
405.66	0.00
405.85	0.00
406.05	0.00
406.24	0.00
406.43	0.00
406.62	0.00
406.81	0.00
407.00	0.00
407.20	0.00
407.39	0.00
407.58	0.00
407.77	0.00
407.96	0.00
408.15	0.00
408.34	0.00
408.54	0.00
408.73	0.00
408.92	0.00
409.11	0.00
409.30	0.00
409.49	0.00
409.68	0.00
409.87	0.00
410.07	0.00
410.26	0.00
410.45	0.00
410.64	0.00
410.83	0.00
411.02	0.00
411.21	0.00
411.40	0.00
411.59	0.00
411.78	0.00
411.98	0.00
412.17	0.00
412.36	0.00
412.55	0.00
412.74	0.00
412.93	0.00
413.12	0.00
413.31	0.00
413.50	0.00
413.69	0.00
413.88	0.00
414.07	0.00
414.26	0.00
414.45	0.00
414.64	0.00
414.83	0.00
415.02	0.00
415.22	0.00
415.41	0.00
415.60	0.00
415.79	0.00
415.98	0.00
416.17	0.00
416.36	0.00
416.55	0.00
416.74	0.00
416.93	0.00
417.12	0.00
417.31	0.00
417.50	0.00
417.69	0.00
417.88	0.00
418.07	0.00
418.26	0.00
418.45	0.00
418.64	0.00
418.83	0.00
419.02	0.00
419.21	0.00
419.39	0.00
419.58	0.00
419.77	0.00
419.96	0.00
420.15	0.00
420.34	0.00
420.53	0.00
420.72	0.00
420.91	0.00
421.10	0.00
421.29	0.00
421.48	0.00
421.67	0.00
421.86	0.00
422.05	0.00
422.24	0.00
422.43	0.00
422.61	0.00
422.80	0.00
422.99	0.00
423.18	0.00
423.37	0.00
423.56	0.00
423.75	0.00
423.94	0.00
424.13	0.00
424.32	0.00
424.50	0.00
424.69	0.00
424.88	0.00
425.07	0.00
425.26	0.00
425.45	0.00
425.64	0.00
425.83	0.00
426.01	0.00
426.20	0.00
426.39	0.00
426.58	0.00
426.77	0.00
426.96	0.00
427.15	0.00
427.33	0.00
427.52	0.00
427.71	0.00
427.90	0.00
428.09	0.00
428.28	0.00
428.46	0.00
428.65	0.00
428.84	0.00
429.03	0.00
429.22	0.00
429.40	0.00
429.59	0.00
429.78	0.00
429.97	0.00
430.16	0.00
430.34	0.00
430.53	0.00
430.72	0.00
430.91	0.00
431.10	0.00
431.28	0.00
431.47	0.00
431.66	0.00
431.85	0.00
432.03	0.00
432.22	0.00
432.41	0.00
432.60	0.00
432.79	0.00
432.97	0.00
433.16	0.00
433.35	0.00
433.54	0.00
433.72	0.00
433.91	0.00
434.10	0.00
434.28	0.00
434.47	0.00
434.66	0.00
434.85	0.00
435.03	0.00
435.22	0.00
435.41	0.00
435.59	0.00
435.78	0.00
435.97	0.00
436.16	0.00
436.34	0.00
436.53	0.00
436.72	0.00
436.90	0.00
437.09	0.00
437.28	0.00
437.46	0.00
437.65	0.00
437.84	0.00
438.02	0.00
438.21	0.00
438.40	0.00
438.58	0.00
438.77	0.00
438.96	0.00
439.14	0.00
439.33	0.00
439.52	0.00
439.70	0.00
439.89	0.00
440.08	0.00
440.26	0.00
440.45	0.00
440.63	0.00
440.82	0.00
441.01	0.00
441.19	0.00
441.38	0.00
441.57	0.00
441.75	0.00
441.94	0.00
442.12	0.00
442.31	0.00
442.50	0.00
442.68	0.00
442.87	0.00
443.05	0.00
443.24	0.00
443.43	0.00
443.61	0.00
443.80	0.00
443.98	0.00
444.17	0.00
444.35	0.00
444.54	0.00
444.73	0.00
444.91	0.00
445.10	0.00
445.28	0.00
445.47	0.00
445.65	0.00
445.84	0.00
446.02	0.00
446.21	0.00
446.39	0.00
446.58	0.00
446.77	0.00
446.95	0.00
447.14	0.00
447.32	11.70
447.51	0.00
447.69	0.00
447.88	0.00
448.06	0.00
448.25	0.00
448.43	0.00
448.62	0.00
448.80	0.00
448.99	23.41
449.17	0.00
449.36	0.00
449.54	0.00
449.73	0.00
449.91	0.00
450.10	0.00
450.28	0.00
450.46	67.88
450.65	21.06
450.83	0.00
451.02	0.00
451.20	0.00
451.39	25.75
451.57	0.00
451.76	0.00
451.94	0.00
452.13	0.00
452.31	32.77
452.49	0.00
452.68	0.00
452.86	0.00
453.05	0.00
453.23	0.00
453.42	0.00
453.60	0.00
453.78	0.00
453.97	0.00
454.15	0.00
454.34	0.00
454.52	0.00
454.70	51.49
454.89	0.00
455.07	0.00
455.26	0.00
455.44	0.00
455.62	0.00
455.81	0.00
455.99	35.11
456.17	0.00
456.36	0.00
456.54	0.00
456.73	14.04
456.91	0.00
457.09	0.00
457.28	9.36
457.46	0.00
457.64	0.00
457.83	0.00
458.01	0.00
458.19	0.00
458.38	0.00
458.56	14.04
458.74	42.13
458.93	0.00
459.11	0.00
459.29	0.00
459.48	39.79
459.66	0.00
459.84	14.04
460.03	131.07
460.21	0.00
460.39	18.72
460.57	0.00
460.76	18.72
460.94	25.75
461.12	37.45
461.31	32.77
461.49	0.00
461.67	0.00
461.85	49.15
462.04	0.00
462.22	638.97
462.40	18.72
462.59	35.11
462.77	0.00
462.95	0.00
463.13	0.00
463.32	0.00
463.50	30.43
463.68	0.00
463.86	0.00
464.05	44.47
464.23	4.68
464.41	7.02
464.59	0.00
464.78	0.00
464.96	0.00
465.14	0.00
465.32	58.51
465.50	0.00
465.69	0.00
465.87	23.41
466.05	0.00
466.23	0.00
466.41	0.00
466.60	0.00
466.78	0.00
466.96	30.43
467.14	0.00
467.32	37.45
467.51	0.00
467.69	0.00
467.87	0.00
468.05	0.00
468.23	60.85
468.41	35.11
468.60	0.00
468.78	0.00
468.96	4.68
469.14	46.81
469.32	0.00
469.50	0.00
469.69	0.00
469.87	0.00
470.05	0.00
470.23	0.00
470.41	0.00
470.59	0.00
470.77	0.00
470.95	0.00
471.14	0.00
471.32	0.00
471.50	72.56
471.68	32.77
471.86	53.83
472.04	0.00
472.22	14.04
472.40	0.00
472.58	0.00
472.77	0.00
472.95	4.68
473.13	11.70
473.31	98.30
473.49	0.00
473.67	18.72
473.85	7.02
474.03	0.00
474.21	0.00
474.39	0.00
474.57	51.49
474.75	37.45
474.93	0.00
475.12	0.00
475.30	0.00
475.48	16.38
475.66	4.68
475.84	0.00
476.02	0.00
476.20	39.79
476.38	84.26
476.56	65.54
476.74	60.85
476.92	0.00
477.10	0.00
477.28	28.09
477.46	0.00
477.64	0.00
477.82	9.36
478.00	11.70
478.18	7.02
478.36	51.49
478.54	39.79
478.72	14.04
478.90	58.51
479.08	81.92
479.26	67.88
479.44	49.15
479.62	79.58
479.80	18.72
479.98	35.11
480.16	23.41
480.34	28.09
480.52	56.17
480.70	72.56
480.88	0.00
481.06	9.36
481.24	42.13
481.41	86.60
481.59	105.32
481.77	9.36
481.95	0.00
482.13	154.48
482.31	88.94
482.49	93.62
482.67	28.09
482.85	72.56
483.03	74.90
483.21	124.05
483.39	72.56
483.57	42.13
483.74	81.92
483.92	102.98
484.10	58.51
484.28	81.92
484.46	133.41
484.64	14.04
484.82	46.81
485.00	60.85
485.18	30.43
485.35	117.03
485.53	0.00
485.71	60.85
485.89	4.68
486.07	0.00
486.25	35.11
486.43	30.43
486.61	0.00
486.78	49.15
486.96	79.58
487.14	210.65
487.32	51.49
487.50	114.69
487.68	14.04
487.85	121.71
488.03	74.90
488.21	208.31
488.39	203.63
488.57	173.20
488.75	30.43
488.92	456.40
489.10	175.54
489.28	156.82
489.46	107.66
489.64	201.29
489.81	250.44
489.99	149.79
490.17	224.69
490.35	234.05
490.53	196.60
490.70	114.69
490.88	182.56
491.06	175.54
491.24	156.82
491.41	177.88
491.59	161.50
491.77	93.62
491.95	44.47
492.13	124.05
492.30	128.73
492.48	93.62
492.66	180.22
492.84	187.24
493.01	187.24
493.19	173.20
493.37	187.24
493.54	198.95
493.72	191.92
493.90	117.03
494.08	180.22
494.25	173.20
494.43	163.84
494.61	180.22
494.79	168.52
494.96	187.24
495.14	189.58
495.32	138.09
495.49	177.88
495.67	135.75
495.85	264.48
496.02	145.11
496.20	257.46
496.38	234.05
496.55	273.84
496.73	210.65
496.91	154.48
497.09	243.42
497.26	182.56
497.44	187.24
497.62	205.97
497.79	182.56
497.97	145.11
498.14	196.60
498.32	241.08
498.50	255.12
498.67	287.89
498.85	156.82
499.03	168.52
499.20	252.78
499.38	187.24
499.56	180.22
499.73	306.61
499.91	201.29
500.08	198.95
500.26	163.84
500.44	187.24
500.61	290.23
500.79	203.63
500.97	173.20
501.14	203.63
501.32	180.22
501.49	182.56
501.67	140.43
501.84	245.76
502.02	220.01
502.20	194.26
502.37	154.48
502.55	170.86
502.72	203.63
502.90	306.61
503.07	273.84
503.25	217.67
503.43	187.24
503.60	142.77
503.78	203.63
503.95	180.22
504.13	266.82
504.30	217.67
504.48	161.50
504.65	283.20
504.83	252.78
505.01	259.80
505.18	287.89
505.36	217.67
505.53	184.90
505.71	339.38
505.88	318.31
506.06	215.33
506.23	133.41
506.41	243.42
506.58	222.35
506.76	229.37
506.93	234.05
507.11	311.29
507.28	234.05
507.46	191.92
507.63	201.29
507.81	156.82
507.98	304.27
508.16	292.57
508.33	243.42
508.50	264.48
508.68	266.82
508.85	252.78
509.03	262.14
509.20	238.73
509.38	257.46
509.55	208.31
509.73	278.52
509.90	315.97
510.08	245.76
510.25	241.08
510.42	224.69
510.60	234.05
510.77	234.05
510.95	287.89
511.12	283.20
511.30	285.55
511.47	304.27
511.64	367.46
511.82	311.29
511.99	222.35
512.17	222.35
512.34	175.54
512.51	222.35
512.69	194.26
512.86	367.46
513.04	290.23
513.21	304.27
513.38	283.20
513.56	177.88
513.73	250.44
513.90	248.10
514.08	236.39
514.25	269.16
514.43	245.76
514.60	245.76
514.77	294.91
514.95	276.18
515.12	262.14
515.29	264.48
515.47	191.92
515.64	280.86
515.81	257.46
515.99	264.48
516.16	273.84
516.33	308.95
516.51	161.50
516.68	173.20
516.85	175.54
517.03	145.11
517.20	255.12
517.37	266.82
517.54	285.55
517.72	198.95
517.89	189.58
518.06	208.31
518.24	250.44
518.41	283.20
518.58	320.65
518.75	266.82
518.93	222.35
519.10	215.33
519.27	322.99
519.45	241.08
519.62	290.23
519.79	301.93
519.96	250.44
520.14	315.97
520.31	322.99
520.48	227.03
520.65	264.48
520.83	355.76
521.00	271.50
521.17	287.89
521.34	238.73
521.52	374.49
521.69	402.57
521.86	318.31
522.03	395.55
522.20	294.91
522.38	297.25
522.55	266.82
522.72	306.61
522.89	325.33
523.07	367.46
523.24	304.27
523.41	318.31
523.58	273.84
523.75	325.33
523.92	313.63
524.10	353.42
524.27	278.52
524.44	299.59
524.61	283.20
524.78	337.04
524.96	397.89
525.13	292.57
525.30	386.19
525.47	360.44
525.64	362.78
525.81	351.08
525.98	325.33
526.16	264.48
526.33	259.80
526.50	234.05
526.67	273.84
526.84	236.39
527.01	290.23
527.18	238.73
527.36	315.97
527.53	315.97
527.70	346.40
527.87	257.46
528.04	400.23
528.21	308.95
528.38	428.32
528.55	433.00
528.72	365.12
528.89	421.30
529.07	269.16
529.24	315.97
529.41	318.31
529.58	299.59
529.75	304.27
529.92	386.19
530.09	372.15
530.26	351.08
530.43	369.80
530.60	397.89
530.77	376.83
530.94	351.08
531.11	301.93
531.28	365.12
531.46	294.91
531.63	348.74
531.80	351.08
531.97	306.61
532.14	355.76
532.31	320.65
532.48	292.57
532.65	250.44
532.82	297.25
532.99	346.40
533.16	330.02
533.33	344.06
533.50	376.83
533.67	301.93
533.84	337.04
534.01	339.38
534.18	334.70
534.35	367.46
534.52	411.93
534.69	358.10
534.86	243.42
535.03	411.93
535.20	351.08
535.37	372.15
535.54	381.51
535.71	280.86
535.88	442.36
536.05	327.68
536.22	339.38
536.38	400.23
536.55	304.27
536.72	311.29
536.89	271.50
537.06	320.65
537.23	245.76
537.40	337.04
537.57	341.72
537.74	379.17
537.91	365.12
538.08	304.27
538.25	320.65
538.42	341.72
538.59	320.65
538.75	376.83
538.92	271.50
539.09	386.19
539.26	365.12
539.43	400.23
539.60	334.70
539.77	327.68
539.94	306.61
540.11	299.59
540.28	327.68
540.44	334.70
540.61	318.31
540.78	358.10
540.95	294.91
541.12	416.62
541.29	257.46
541.46	435.34
541.62	372.15
541.79	297.25
541.96	297.25
542.13	346.40
542.30	322.99
542.47	362.78
542.63	280.86
542.80	306.61
542.97	388.53
543.14	276.18
543.31	344.06
543.48	294.91
543.64	369.80
543.81	287.89
543.98	353.42
544.15	327.68
544.32	358.10
544.48	383.85
544.65	311.29
544.82	299.59
544.99	308.95
545.16	395.55
545.32	416.62
545.49	372.15
545.66	407.25
545.83	355.76
546.00	320.65
546.16	351.08
546.33	397.89
546.50	318.31
546.67	369.80
546.83	395.55
547.00	381.51
547.17	395.55
547.34	304.27
547.50	264.48
547.67	334.70
547.84	376.83
548.00	369.80
548.17	315.97
548.34	390.87
548.51	381.51
548.67	395.55
548.84	353.42
549.01	381.51
549.18	421.30
549.34	355.76
549.51	334.70
549.68	369.80
549.84	339.38
550.01	280.86
550.18	545.34
550.34	505.56
550.51	402.57
550.68	311.29
550.84	299.59
551.01	271.50
551.18	351.08
551.34	320.65
551.51	381.51
551.68	355.76
551.84	388.53
552.01	285.55
552.18	381.51
552.34	428.32
552.51	351.08
552.68	367.46
552.84	327.68
553.01	367.46
553.18	414.27
553.34	388.53
553.51	348.74
553.67	351.08
553.84	416.62
554.01	355.76
554.17	374.49
554.34	297.25
554.51	372.15
554.67	461.09
554.84	346.40
555.00	425.98
555.17	374.49
555.33	315.97
555.50	313.63
555.67	381.51
555.83	388.53
556.00	308.95
556.16	638.97
556.33	402.57
556.50	306.61
556.66	379.17
556.83	290.23
556.99	308.95
557.16	273.84
557.32	285.55
557.49	374.49
557.65	348.74
557.82	273.84
557.98	376.83
558.15	311.29
558.32	255.12
558.48	341.72
558.65	306.61
558.81	351.08
558.98	386.19
559.14	374.49
559.31	362.78
559.47	442.36
559.64	334.70
559.80	383.85
559.97	355.76
560.13	393.21
560.30	351.08
560.46	325.33
560.63	365.12
560.79	393.21
560.96	386.19
561.12	348.74
561.29	255.12
561.45	409.59
561.61	374.49
561.78	449.38
561.94	379.17
562.11	297.25
562.27	344.06
562.44	353.42
562.60	344.06
562.77	379.17
562.93	414.27
563.10	278.52
563.26	430.66
563.42	358.10
563.59	365.12
563.75	353.42
563.92	395.55
564.08	416.62
564.24	346.40
564.41	393.21
564.57	365.12
564.74	339.38
564.90	433.00
565.07	337.04
565.23	334.70
565.39	278.52
565.56	332.36
565.72	301.93
565.88	365.12
566.05	308.95
566.21	379.17
566.38	243.42
566.54	388.53
566.70	304.27
566.87	381.51
567.03	327.68
567.19	257.46
567.36	353.42
567.52	348.74
567.68	348.74
567.85	332.36
568.01	245.76
568.17	292.57
568.34	259.80
568.50	325.33
568.66	334.70
568.83	479.81
568.99	330.02
569.15	376.83
569.32	322.99
569.48	334.70
569.64	271.50
569.81	341.72
569.97	348.74
570.13	313.63
570.30	325.33
570.46	304.27
570.62	315.97
570.78	299.59
570.95	327.68
571.11	341.72
571.27	315.97
571.43	320.65
571.60	320.65
571.76	308.95
571.92	330.02
572.09	299.59
572.25	276.18
572.41	278.52
572.57	325.33
572.74	393.21
572.90	386.19
573.06	278.52
573.22	348.74
573.38	351.08
573.55	397.89
573.71	397.89
573.87	402.57
574.03	320.65
574.20	381.51
574.36	290.23
574.52	358.10
574.68	332.36
574.84	273.84
575.01	278.52
575.17	346.40
575.33	283.20
575.49	301.93
575.65	330.02
575.82	306.61
575.98	435.34
576.14	330.02
576.30	337.04
576.46	327.68
576.62	301.93
576.79	414.27
576.95	425.98
577.11	409.59
577.27	262.14
577.43	271.50
577.59	379.17
577.75	224.69
577.92	304.27
578.08	243.42
578.24	325.33
578.40	351.08
578.56	397.89
578.72	341.72
578.88	287.89
579.04	308.95
579.21	341.72
579.37	301.93
579.53	311.29
579.69	428.32
579.85	341.72
580.01	292.57
580.17	278.52
580.33	290.23
580.49	325.33
580.65	337.04
580.82	299.59
580.98	339.38
581.14	325.33
581.30	421.30
581.46	311.29
581.62	341.72
581.78	259.80
581.94	360.44
582.10	308.95
582.26	306.61
582.42	287.89
582.58	330.02
582.74	241.08
582.90	222.35
583.06	290.23
583.22	456.40
583.38	339.38
583.54	322.99
583.70	367.46
583.86	330.02
584.02	353.42
584.18	285.55
584.34	332.36
584.50	301.93
584.66	381.51
584.82	383.85
584.98	358.10
585.14	344.06
585.30	411.93
585.46	276.18
585.62	262.14
585.78	294.91
585.94	353.42
586.10	353.42
586.26	330.02
586.42	351.08
586.58	330.02
586.74	332.36
586.90	311.29
587.06	393.21
587.22	287.89
587.38	290.23
587.54	313.63
587.70	360.44
587.86	320.65
588.02	280.86
588.18	238.73
588.34	238.73
588.49	264.48
588.65	287.89
588.81	271.50
588.97	236.39
589.13	273.84
589.29	278.52
589.45	315.97
589.61	238.73
589.77	250.44
589.93	259.80
590.08	297.25
590.24	308.95
590.40	271.50
590.56	292.57
590.72	308.95
590.88	236.39
591.04	266.82
591.20	362.78
591.35	313.63
591.51	311.29
591.67	276.18
591.83	264.48
591.99	327.68
592.15	332.36
592.31	372.15
592.46	297.25
592.62	339.38
592.78	250.44
592.94	358.10
593.10	313.63
593.26	250.44
593.41	278.52
593.57	308.95
593.73	379.17
593.89	341.72
594.05	243.42
594.20	287.89
594.36	311.29
594.52	252.78
594.68	313.63
594.84	346.40
594.99	337.04
595.15	287.89
595.31	271.50
595.47	280.86
595.62	299.59
595.78	264.48
595.94	224.69
596.10	379.17
596.25	248.10
596.41	271.50
596.57	269.16
596.73	285.55
596.88	397.89
597.04	308.95
597.20	311.29
597.36	369.80
597.51	156.82
597.67	278.52
597.83	297.25
597.99	241.08
598.14	351.08
598.30	311.29
598.46	264.48
598.61	332.36
598.77	259.80
598.93	154.48
599.09	224.69
599.24	224.69
599.40	344.06
599.56	290.23
599.71	271.50
599.87	294.91
600.03	283.20
600.18	344.06
600.34	259.80
600.50	212.99
600.65	128.73
600.81	376.83
600.97	210.65
601.12	273.84
601.28	318.31
601.44	287.89
601.59	269.16
601.75	299.59
601.91	320.65
602.06	273.84
602.22	358.10
602.37	217.67
602.53	189.58
602.69	238.73
602.84	217.67
603.00	304.27
603.16	182.56
603.31	325.33
603.47	285.55
603.62	306.61
603.78	297.25
603.94	301.93
604.09	386.19
604.25	320.65
604.40	238.73
604.56	184.90
604.71	290.23
604.87	278.52
605.03	262.14
605.18	280.86
605.34	367.46
605.49	315.97
605.65	241.08
605.80	299.59
605.96	299.59
606.12	306.61
606.27	320.65
606.43	297.25
606.58	238.73
606.74	287.89
606.89	187.24
607.05	320.65
607.20	191.92
607.36	229.37
607.51	294.91
607.67	266.82
607.82	301.93
607.98	257.46
608.13	224.69
608.29	180.22
608.44	297.25
608.60	306.61
608.75	255.12
608.91	311.29
609.06	262.14
609.22	238.73
609.37	262.14
609.53	280.86
609.68	273.84
609.84	245.76
609.99	210.65
610.15	236.39
610.30	196.60
610.46	266.82
610.61	224.69
610.76	287.89
610.92	334.70
611.07	292.57
611.23	266.82
611.38	229.37
611.54	189.58
611.69	210.65
611.84	248.10
612.00	210.65
612.15	229.37
612.31	184.90
612.46	100.64
612.62	128.73
612.77	320.65
612.92	344.06
613.08	266.82
613.23	191.92
613.39	224.69
613.54	229.37
613.69	212.99
613.85	182.56
614.00	222.35
614.15	311.29
614.31	201.29
614.46	212.99
614.62	210.65
614.77	285.55
614.92	255.12
615.08	259.80
615.23	308.95
615.38	173.20
615.54	276.18
615.69	243.42
615.84	182.56
616.00	231.71
616.15	238.73
616.30	187.24
616.46	93.62
616.61	243.42
616.76	266.82
616.92	250.44
617.07	208.31
617.22	271.50
617.37	212.99
617.53	269.16
617.68	229.37
617.83	250.44
617.99	224.69
618.14	205.97
618.29	264.48
618.45	276.18
618.60	271.50
618.75	229.37
618.90	236.39
619.06	308.95
619.21	262.14
619.36	252.78
619.51	264.48
619.67	245.76
619.82	215.33
619.97	269.16
620.12	224.69
620.28	196.60
620.43	231.71
620.58	299.59
620.73	269.16
620.89	243.42
621.04	273.84
621.19	266.82
621.34	255.12
621.49	208.31
621.65	259.80
621.80	138.09
621.95	222.35
622.10	308.95
622.25	208.31
622.41	142.77
622.56	154.48
622.71	217.67
622.86	290.23
623.01	205.97
623.16	320.65
623.32	243.42
623.47	175.54
623.62	156.82
623.77	163.84
623.92	241.08
624.07	266.82
624.23	159.16
624.38	177.88
624.53	168.52
624.68	210.65
624.83	264.48
624.98	145.11
625.13	224.69
625.29	131.07
625.44	142.77
625.59	210.65
625.74	304.27
625.89	280.86
626.04	100.64
626.19	149.79
626.34	117.03
626.49	269.16
626.65	166.18
626.80	177.88
626.95	243.42
627.10	147.45
627.25	140.43
627.40	117.03
627.55	79.58
627.70	114.69
627.85	124.05
628.00	201.29
628.15	145.11
628.30	133.41
628.45	79.58
628.60	191.92
628.76	145.11
628.91	215.33
629.06	156.82
629.21	147.45
629.36	152.13
629.51	72.56
629.66	112.35
629.81	107.66
629.96	133.41
630.11	215.33
630.26	159.16
630.41	161.50
630.56	163.84
630.71	159.16
630.86	173.20
631.01	86.60
631.16	79.58
631.31	231.71
631.46	145.11
631.61	229.37
631.76	180.22
631.91	203.63
632.06	222.35
632.21	250.44
632.36	173.20
632.51	245.76
632.66	149.79
632.81	110.01
632.96	156.82
633.10	227.03
633.25	238.73
633.40	163.84
633.55	163.84
633.70	175.54
633.85	224.69
634.00	220.01
634.15	117.03
634.30	140.43
634.45	133.41
634.60	191.92
634.75	88.94
634.90	224.69
635.05	224.69
635.19	220.01
635.34	163.84
635.49	194.26
635.64	135.75
635.79	175.54
635.94	224.69
636.09	177.88
636.24	205.97
636.39	189.58
636.53	224.69
636.68	161.50
636.83	140.43
636.98	198.95
637.13	194.26
637.28	255.12
637.43	236.39
637.57	168.52
637.72	156.82
637.87	262.14
638.02	105.32
638.17	184.90
638.32	224.69
638.46	220.01
638.61	294.91
638.76	154.48
638.91	177.88
639.06	145.11
639.20	163.84
639.35	264.48
639.50	112.35
639.65	177.88
639.80	138.09
639.94	212.99
640.09	227.03
640.24	222.35
640.39	166.18
640.54	156.82
640.68	177.88
640.83	191.92
640.98	152.13
641.13	145.11
641.27	250.44
641.42	112.35
641.57	173.20
641.72	198.95
641.86	177.88
642.01	163.84
642.16	205.97
642.31	163.84
642.45	262.14
642.60	124.05
642.75	191.92
642.90	184.90
643.04	170.86
643.19	149.79
643.34	215.33
643.48	128.73
643.63	152.13
643.78	220.01
643.93	194.26
644.07	124.05
644.22	159.16
644.37	138.09
644.51	102.98
644.66	147.45
644.81	140.43
644.95	170.86
645.10	107.66
645.25	147.45
645.39	138.09
645.54	88.94
645.69	173.20
645.83	152.13
645.98	152.13
646.13	145.11
646.27	170.86
646.42	110.01
646.57	30.43
646.71	212.99
646.86	86.60
647.00	140.43
647.15	133.41
647.30	138.09
647.44	105.32
647.59	138.09
647.74	119.37
647.88	170.86
648.03	102.98
648.17	128.73
648.32	79.58
648.47	154.48
648.61	149.79
648.76	110.01
648.90	93.62
649.05	63.19
649.20	65.54
649.34	74.90
649.49	74.90
649.63	133.41
649.78	163.84
649.92	142.77
650.07	39.79
650.21	86.60
650.36	180.22
650.51	95.96
650.65	131.07
650.80	88.94
650.94	112.35
651.09	107.66
651.23	16.38
651.38	112.35
651.52	91.28
651.67	98.30
651.81	63.19
651.96	107.66
652.10	173.20
652.25	191.92
652.39	58.51
652.54	102.98
652.68	114.69
652.83	126.39
652.97	63.19
653.12	184.90
653.26	119.37
653.41	250.44
653.55	93.62
653.70	110.01
653.84	53.83
653.99	79.58
654.13	121.71
654.27	112.35
654.42	60.85
654.56	74.90
654.71	74.90
654.85	84.26
655.00	98.30
655.14	126.39
655.29	0.00
655.43	194.26
655.57	65.54
655.72	25.75
655.86	42.13
656.01	67.88
656.15	0.00
656.30	191.92
656.44	67.88
656.58	53.83
656.73	74.90
656.87	39.79
657.01	138.09
657.16	119.37
657.30	131.07
657.45	161.50
657.59	114.69
657.73	91.28
657.88	88.94
658.02	234.05
658.16	53.83
658.31	37.45
658.45	74.90
658.60	91.28
658.74	147.45
658.88	138.09
659.03	58.51
659.17	102.98
659.31	74.90
659.46	187.24
659.60	77.24
659.74	126.39
659.89	105.32
660.03	42.13
660.17	147.45
660.32	110.01
660.46	72.56
660.60	135.75
660.74	58.51
660.89	65.54
661.03	0.00
661.17	0.00
661.32	107.66
661.46	35.11
661.60	119.37
661.74	88.94
661.89	124.05
662.03	128.73
662.17	138.09
662.31	81.92
662.46	177.88
662.60	86.60
662.74	119.37
662.88	98.30
663.03	131.07
663.17	35.11
663.31	30.43
663.45	81.92
663.60	58.51
663.74	77.24
663.88	126.39
664.02	131.07
664.17	107.66
664.31	44.47
664.45	107.66
664.59	161.50
664.73	81.92
664.88	93.62
665.02	77.24
665.16	152.13
665.30	147.45
665.44	128.73
665.59	145.11
665.73	95.96
665.87	70.22
666.01	56.17
666.15	72.56
666.29	84.26
666.44	28.09
666.58	100.64
666.72	53.83
666.86	46.81
667.00	154.48
667.14	25.75
667.28	67.88
667.43	131.07
667.57	67.88
667.71	187.24
667.85	9.36
667.99	37.45
668.13	95.96
668.27	51.49
668.41	53.83
668.56	21.06
668.70	88.94
668.84	30.43
668.98	98.30
669.12	70.22
669.26	98.30
669.40	112.35
669.54	135.75
669.68	56.17
669.82	0.00
669.96	49.15
670.10	49.15
670.25	126.39
670.39	95.96
670.53	72.56
670.67	112.35
670.81	35.11
670.95	0.00
671.09	37.45
671.23	117.03
671.37	114.69
671.51	4.68
671.65	49.15
671.79	37.45
671.93	159.16
672.07	91.28
672.21	117.03
672.35	100.64
672.49	46.81
672.63	105.32
672.77	30.43
672.91	95.96
673.05	131.07
673.19	25.75
673.33	58.51
673.47	161.50
673.61	107.66
673.75	77.24
673.89	14.04
674.03	60.85
674.17	74.90
674.31	0.00
674.45	25.75
674.59	18.72
674.73	79.58
674.87	65.54
675.01	56.17
675.15	2.34
675.29	72.56
675.43	0.00
675.56	147.45
675.70	79.58
675.84	28.09
675.98	0.00
676.12	2.34
676.26	18.72
676.40	0.00
676.54	37.45
676.68	88.94
676.82	93.62
676.96	0.00
677.10	11.70
677.23	14.04
677.37	23.41
677.51	37.45
677.65	124.05
677.79	44.47
677.93	0.00
678.07	7.02
678.21	58.51
678.34	37.45
678.48	0.00
678.62	0.00
678.76	0.00
678.90	70.22
679.04	0.00
679.18	25.75
679.31	25.75
679.45	0.00
679.59	0.00
679.73	0.00
679.87	9.36
680.00	60.85
680.14	49.15
680.28	0.00
680.42	7.02
680.56	32.77
680.70	28.09
680.83	0.00
680.97	0.00
681.11	0.00
681.25	0.00
681.39	0.00
681.52	23.41
681.66	16.38
681.80	0.00
681.94	0.00
682.07	0.00
682.21	23.41
682.35	0.00
682.49	0.00
682.62	0.00
682.76	0.00
682.90	0.00
683.04	35.11
683.17	21.06
683.31	0.00
683.45	0.00
683.59	0.00
683.72	28.09
683.86	39.79
684.00	0.00
684.13	0.00
684.27	0.00
684.41	46.81
684.55	0.00
684.68	0.00
684.82	28.09
684.96	0.00
685.09	0.00
685.23	0.00
685.37	0.00
685.50	0.00
685.64	21.06
685.78	0.00
685.91	21.06
686.05	0.00
686.19	2.34
686.32	4.68
686.46	0.00
686.60	0.00
686.73	23.41
686.87	0.00
687.01	0.00
687.14	0.00
687.28	0.00
687.42	0.00
687.55	0.00
687.69	4.68
687.82	0.00
687.96	0.00
688.10	0.00
688.23	0.00
688.37	0.00
688.50	0.00
688.64	0.00
688.78	0.00
688.91	0.00
689.05	0.00
689.18	0.00
689.32	0.00
689.46	0.00
689.59	4.68
689.73	4.68
689.86	0.00
690.00	0.00
690.13	0.00
690.27	0.00
690.41	0.00
690.54	0.00
690.68	0.00
690.81	0.00
690.95	0.00
691.08	0.00
691.22	0.00
691.35	0.00
691.49	0.00
691.62	0.00
691.76	0.00
691.89	0.00
692.03	0.00
692.16	0.00
692.30	0.00
692.43	0.00
692.57	0.00
692.70	0.00
692.84	0.00
692.97	0.00
693.11	0.00
693.24	0.00
693.38	0.00
693.51	0.00
693.65	0.00
693.78	0.00
693.92	0.00
694.05	0.00
694.19	0.00
694.32	0.00
694.45	0.00
694.59	0.00
694.72	0.00
694.86	0.00
694.99	0.00
695.13	0.00
695.26	0.00
695.39	0.00
695.53	0.00
695.66	0.00
695.80	0.00
695.93	0.00
696.07	0.00
696.20	0.00
696.33	0.00
696.47	0.00
696.60	0.00
696.73	0.00
696.87	0.00
697.00	0.00
697.14	4.68
697.27	0.00
697.40	23.41
697.54	0.00
697.67	0.00
697.80	0.00
697.94	0.00
698.07	0.00
698.21	0.00
698.34	0.00
698.47	0.00
698.61	0.00
698.74	0.00
698.87	0.00
699.01	0.00
699.14	0.00
699.27	0.00
699.40	67.88
699.54	0.00
699.67	0.00
699.80	0.00
699.94	0.00
700.07	0.00
700.20	0.00
700.34	0.00
700.47	0.00
700.60	0.00
700.73	0.00
700.87	0.00
701.00	0.00
701.13	0.00
701.26	0.00
701.40	0.00
701.53	0.00
701.66	0.00
701.79	0.00
701.93	0.00
702.06	0.00
702.19	0.00
702.32	9.36
702.46	0.00
702.59	0.00
702.72	0.00
702.85	0.00
702.99	0.00
703.12	0.00
703.25	0.00
703.38	0.00
703.51	0.00
703.65	0.00
703.78	0.00
703.91	0.00
704.04	0.00
704.17	0.00
704.31	0.00
704.44	0.00
704.57	0.00
704.70	0.00
704.83	0.00
704.96	0.00
705.10	0.00
705.23	0.00
>>>>>End Processed Spectral Data<<<<<
