SpectraSuite Data File
++++++++++++++++++++++++++++++++++++
Date: Mon Oct 07 15:00:47 GMT-05:00 2013
User: price-jones
Dark Spectrum Present: No
Reference Spectrum Present: No
Number of Sampled Component Spectra: 1
Spectrometers: USB2+H05261
Integration Time (usec): 10000000 (USB2+H05261)
Spectra Averaged: 1 (USB2+H05261)
Boxcar Smoothing: 0 (USB2+H05261)
Correct for Electrical Dark: No (USB2+H05261)
Strobe/Lamp Enabled: No (USB2+H05261)
Correct for Detector Non-linearity: No (USB2+H05261)
Correct for Stray Light: No (USB2+H05261)
Number of Pixels in Processed Spectrum: 2048
>>>>>Begin Processed Spectral Data<<<<<
365.73	0.00
365.92	0.00
366.12	0.00
366.32	0.00
366.52	0.00
366.72	5776.44
366.91	3007.59
367.11	5696.86
367.31	4823.84
367.51	5507.28
367.70	6579.25
367.90	8727.86
368.10	6216.46
368.30	6310.08
368.49	3248.66
368.69	8353.37
368.89	5720.27
369.09	3489.74
369.28	5177.26
369.48	3056.74
369.68	4531.28
369.87	5902.83
370.07	3981.25
370.27	8559.34
370.47	6094.76
370.66	4603.83
370.86	6977.14
371.06	10181.33
371.25	12657.62
371.45	5413.66
371.65	8821.48
371.84	4526.60
372.04	3892.31
372.24	6239.87
372.44	5174.92
372.63	6717.34
372.83	11080.10
373.03	5664.10
373.22	4395.53
373.42	4725.54
373.62	5804.53
373.81	6979.48
374.01	8924.46
374.21	8535.93
374.40	5298.97
374.60	9399.59
374.79	5886.45
374.99	5528.35
375.19	6803.94
375.38	7492.05
375.58	6211.78
375.78	8889.35
375.97	7772.92
376.17	12610.81
376.37	5781.12
376.56	7101.19
376.76	4575.75
376.95	4751.29
377.15	7761.22
377.35	7138.63
377.54	7211.19
377.74	4711.50
377.93	4933.85
378.13	6574.56
378.33	8952.55
378.52	5937.94
378.72	8875.31
378.91	8154.43
379.11	5191.31
379.31	5172.58
379.50	3801.03
379.70	8877.65
379.89	8549.98
380.09	5308.34
380.28	4126.36
380.48	6008.16
380.68	4858.95
380.87	3726.13
381.07	6857.77
381.26	9298.95
381.46	4205.94
381.65	7552.91
381.85	5064.92
382.04	8004.63
382.24	7456.95
382.43	5919.21
382.63	4271.48
382.83	5528.35
383.02	8805.10
383.22	9893.44
383.41	4332.33
383.61	6270.30
383.80	9533.00
384.00	5928.58
384.19	5256.84
384.39	6345.19
384.58	5425.36
384.78	7232.26
384.97	6609.67
385.17	5802.19
385.36	5085.98
385.56	7929.74
385.75	3761.24
385.95	5659.42
386.14	8166.13
386.34	5107.05
386.53	6775.85
386.72	4884.70
386.92	9643.01
387.11	7288.43
387.31	7676.96
387.50	4636.60
387.70	4042.11
387.89	6310.08
388.09	4681.07
388.28	4402.55
388.48	4184.88
388.67	8173.15
388.86	5626.65
389.06	5593.88
389.25	6867.13
389.45	6712.66
389.64	5802.19
389.84	9142.13
390.03	7370.35
390.22	6703.29
390.42	5369.19
390.61	4266.80
390.81	3543.57
391.00	6036.24
391.19	8753.60
391.39	5724.95
391.58	7634.83
391.78	6029.22
391.97	6766.49
392.16	4154.45
392.36	9516.62
392.55	9029.79
392.75	5970.71
392.94	4938.53
393.13	7887.61
393.33	3946.14
393.52	4999.38
393.71	10040.90
393.91	6370.94
394.10	4065.51
394.29	4865.97
394.49	4844.91
394.68	6909.26
394.88	8877.65
395.07	8631.90
395.26	6284.34
395.46	6202.42
395.65	8912.76
395.84	7162.04
396.04	14839.00
396.23	5989.43
396.42	5289.61
396.62	7129.27
396.81	7297.79
397.00	6267.95
397.19	6595.63
397.39	5399.62
397.58	9706.20
397.77	5469.83
397.97	6169.65
398.16	6026.88
398.35	8039.74
398.55	4524.26
398.74	6071.35
398.93	8669.34
399.12	5310.68
399.32	7761.22
399.51	5738.99
399.70	7878.24
399.90	7250.98
400.09	7176.08
400.28	8940.85
400.47	5434.72
400.67	8655.30
400.86	6331.15
401.05	7880.58
401.24	9125.75
401.44	8011.65
401.63	8184.85
401.82	9081.28
402.01	4755.97
402.21	7084.80
402.40	7077.78
402.59	5706.23
402.78	5703.89
402.97	5907.51
403.17	6506.69
403.36	7213.53
403.55	6031.56
403.74	5809.21
403.93	6092.41
404.13	9277.88
404.32	5074.28
404.51	5336.42
404.70	8702.11
404.89	5804.53
405.09	11908.65
405.28	6448.18
405.47	4521.92
405.66	8152.09
405.85	9041.49
406.05	6499.67
406.24	6024.54
406.43	7194.81
406.62	7798.66
406.81	13345.73
407.00	9135.11
407.20	6883.52
407.39	6146.25
407.58	5804.53
407.77	7920.37
407.96	9919.19
408.15	8753.60
408.34	7962.50
408.54	7403.11
408.73	7040.33
408.92	6626.06
409.11	8664.66
409.30	9984.73
409.49	5144.50
409.68	6239.87
409.87	7321.20
410.07	5210.03
410.26	7185.44
410.45	6179.01
410.64	5242.80
410.83	6843.73
411.02	5811.55
411.21	8252.73
411.40	8788.71
411.59	6396.68
411.78	5804.53
411.98	6691.59
412.17	5018.11
412.36	6190.72
412.55	6022.20
412.74	8659.98
412.93	12135.68
413.12	5678.14
413.31	9352.78
413.50	7943.78
413.69	6647.12
413.88	10820.30
414.07	7480.35
414.26	7173.74
414.45	6080.71
414.64	7999.95
414.83	8124.00
415.02	7798.66
415.22	8943.19
415.41	10326.44
415.60	5722.61
415.79	6916.28
415.98	10796.89
416.17	7218.21
416.36	7213.53
416.55	5900.49
416.74	8865.95
416.93	9837.27
417.12	6930.33
417.31	6820.32
417.50	6944.37
417.69	11953.12
417.88	7382.05
418.07	5191.31
418.26	6574.56
418.45	6773.51
418.64	11583.31
418.83	8013.99
419.02	8091.23
419.21	7403.11
419.39	7815.05
419.58	5849.00
419.77	5898.15
419.96	9729.61
420.15	11702.68
420.34	7276.73
420.53	8058.46
420.72	9568.11
420.91	7971.86
421.10	7524.82
421.29	8072.51
421.48	8842.54
421.67	9858.34
421.86	6450.52
422.05	7208.85
422.24	6867.13
422.43	7948.46
422.61	5238.12
422.80	6857.77
422.99	7623.12
423.18	6485.62
423.37	10960.73
423.56	9004.04
423.75	8997.02
423.94	5514.30
424.13	7290.77
424.32	6204.76
424.50	6890.54
424.69	7183.10
424.88	11037.97
425.07	6698.61
425.26	8528.91
425.45	8954.89
425.64	5865.38
425.83	6738.40
426.01	10492.62
426.20	8444.65
426.39	6717.34
426.58	6363.92
426.77	7852.50
426.96	8978.30
427.15	8402.52
427.33	6647.12
427.52	7903.99
427.71	7573.97
427.90	8271.45
428.09	6567.54
428.28	5699.20
428.46	6883.52
428.65	8922.12
428.84	6696.27
429.03	11932.05
429.22	6778.19
429.40	5703.89
429.59	5399.62
429.78	10022.17
429.97	6710.32
430.16	5951.98
430.34	6796.92
430.53	6443.49
430.72	6878.83
430.91	10073.67
431.10	5547.07
431.28	7372.69
431.47	9502.58
431.66	8809.78
431.85	6464.56
432.03	7339.92
432.22	14750.06
432.41	7428.86
432.60	11183.08
432.79	6118.16
432.97	7770.58
433.16	7054.37
433.35	5919.21
433.54	6609.67
433.72	9397.25
433.91	9926.21
434.10	6761.81
434.28	8439.97
434.47	7061.40
434.66	10087.71
434.85	6808.62
435.03	8091.23
435.22	12468.03
435.41	12791.03
435.59	9579.81
435.78	8830.84
435.97	6581.59
436.16	10059.62
436.34	7742.49
436.53	8730.20
436.72	10752.42
436.90	10019.83
437.09	8957.23
437.28	8093.57
437.46	7290.77
437.65	9841.95
437.84	9680.46
438.02	8713.81
438.21	9537.68
438.40	7082.46
438.58	5961.34
438.77	8334.65
438.96	8587.43
439.14	6368.60
439.33	10078.35
439.52	7321.20
439.70	8173.15
439.89	10352.19
440.08	8809.78
440.26	8571.04
440.45	12868.27
440.63	9177.24
440.82	8587.43
441.01	8819.14
441.19	7716.75
441.38	8042.08
441.57	8163.79
441.75	11690.98
441.94	11641.82
442.12	8624.87
442.31	7712.07
442.50	8060.80
442.68	7850.16
442.87	8458.70
443.05	7885.26
443.24	8842.54
443.43	10122.82
443.61	12348.67
443.80	8685.73
443.98	7403.11
444.17	7882.92
444.35	11101.16
444.54	8264.43
444.73	8098.25
444.91	11992.90
445.10	6827.34
445.28	7566.95
445.47	9104.68
445.65	8685.73
445.84	7314.17
446.02	8924.46
446.21	7976.55
446.39	7712.07
446.58	9504.92
446.77	7517.80
446.95	8376.78
447.14	9989.41
447.32	12854.22
447.51	8800.41
447.69	9341.08
447.88	9198.31
448.06	13240.41
448.25	9804.50
448.43	7166.72
448.62	7030.97
448.80	9294.27
448.99	10698.59
449.17	7548.23
449.36	7705.04
449.54	10899.87
449.73	7176.08
449.91	10256.23
450.10	7892.29
450.28	15571.58
450.46	14712.61
450.65	11658.21
450.83	9774.08
451.02	8882.33
451.20	8875.31
451.39	8629.56
451.57	8276.13
451.76	7831.43
451.94	8858.93
452.13	10420.06
452.31	11939.07
452.49	10258.57
452.68	6902.24
452.86	9603.22
453.05	13996.40
453.23	9057.87
453.42	6778.19
453.60	8477.42
453.78	9776.42
453.97	7143.32
454.15	6932.67
454.34	7623.12
454.52	7440.56
454.70	12809.75
454.89	10913.92
455.07	7534.18
455.26	10401.34
455.44	11227.55
455.62	8212.94
455.81	9568.11
455.99	10305.38
456.17	10604.97
456.36	8709.13
456.54	8517.21
456.73	7953.14
456.91	8093.57
457.09	10162.61
457.28	12257.39
457.46	9062.55
457.64	11630.12
457.83	8575.72
458.01	7730.79
458.19	9933.23
458.38	8121.66
458.56	9806.84
458.74	7155.02
458.93	9877.06
459.11	11602.04
459.29	7602.06
459.48	10775.83
459.66	14249.18
459.84	11117.54
460.03	20739.49
460.21	11295.43
460.39	8947.87
460.57	12774.64
460.76	9886.42
460.94	9507.26
461.12	14120.45
461.31	13008.70
461.49	8835.52
461.67	8575.72
461.85	9900.47
462.04	8894.04
462.22	35999.78
462.40	10448.15
462.59	12652.94
462.77	8205.92
462.95	10043.24
463.13	7059.06
463.32	11808.00
463.50	9743.65
463.68	10497.30
463.86	9668.75
464.05	8566.36
464.23	12805.07
464.41	10764.12
464.59	7967.18
464.78	8315.92
464.96	7164.38
465.14	9898.13
465.32	8039.74
465.50	10885.83
465.69	11136.27
465.87	7283.75
466.05	10857.75
466.23	6799.26
466.41	8774.67
466.60	8835.52
466.78	9296.61
466.96	12107.59
467.14	9991.75
467.32	12601.44
467.51	10881.15
467.69	10951.37
467.87	13949.59
468.05	9362.14
468.23	14888.15
468.41	11887.58
468.60	9053.19
468.78	10160.27
468.96	12973.59
469.14	10897.53
469.32	6902.24
469.50	7698.02
469.69	10721.99
469.87	9881.74
470.05	9741.31
470.23	8954.89
470.41	7604.40
470.59	8039.74
470.77	9991.75
470.95	9415.98
471.14	12505.48
471.32	9200.65
471.50	13839.59
471.68	9905.15
471.86	10445.81
472.04	7971.86
472.22	9738.97
472.40	7272.04
472.58	8128.68
472.77	7637.17
472.95	9174.90
473.13	15147.95
473.31	13324.67
473.49	7372.69
473.67	8100.59
473.85	11431.18
474.03	11606.72
474.21	9769.40
474.39	13415.95
474.57	14831.97
474.75	10623.69
474.93	8383.80
475.12	7290.77
475.30	8564.02
475.48	9708.54
475.66	10104.09
475.84	9694.50
476.02	9439.38
476.20	11934.39
476.38	9987.07
476.56	17006.33
476.74	9514.28
476.92	9565.77
477.10	9516.62
477.28	11871.20
477.46	9593.86
477.64	11391.39
477.82	10038.56
478.00	9603.22
478.18	10485.60
478.36	9767.06
478.54	8795.73
478.72	9418.32
478.90	9748.33
479.08	11222.87
479.26	10417.72
479.44	9394.91
479.62	8299.54
479.80	9666.41
479.98	8432.95
480.16	9090.64
480.34	12601.44
480.52	8926.80
480.70	11810.34
480.88	8814.46
481.06	8622.53
481.24	9439.38
481.41	9802.16
481.59	11712.04
481.77	10820.30
481.95	10054.94
482.13	15456.90
482.31	10658.80
482.49	8917.44
482.67	12095.89
482.85	12627.19
483.03	11920.35
483.21	11239.25
483.39	9572.79
483.57	10265.59
483.74	14883.47
483.92	10504.32
484.10	8807.44
484.28	13331.69
484.46	17942.55
484.64	9703.86
484.82	10836.68
485.00	9816.21
485.18	10895.19
485.35	11302.45
485.53	7892.29
485.71	13998.74
485.89	7527.16
486.07	9610.24
486.25	17525.93
486.43	12631.87
486.61	12896.35
486.78	12397.82
486.96	8631.90
487.14	10619.01
487.32	10216.44
487.50	10434.11
487.68	13310.63
487.85	9254.48
488.03	12823.80
488.21	15220.50
488.39	11089.46
488.57	13144.45
488.75	10384.96
488.92	43332.68
489.10	12283.13
489.28	17179.53
489.46	9795.14
489.64	11538.84
489.81	11826.73
489.99	13699.16
490.17	11262.66
490.35	20269.04
490.53	11061.37
490.70	9905.15
490.88	14064.28
491.06	10897.53
491.24	13453.40
491.41	16320.56
491.59	13109.34
491.77	10043.24
491.95	9893.44
492.13	10363.89
492.30	12362.71
492.48	11513.10
492.66	12465.69
492.84	10881.15
493.01	13046.15
493.19	10824.98
493.37	17291.88
493.54	14242.16
493.72	13589.15
493.90	11653.53
494.08	11346.92
494.25	13968.32
494.43	13121.04
494.61	11716.72
494.79	10644.76
494.96	10504.32
495.14	14141.52
495.32	11623.10
495.49	13214.66
495.67	13130.41
495.85	11737.79
496.02	10923.28
496.20	15105.82
496.38	14244.50
496.55	12982.95
496.73	14066.62
496.91	11325.85
497.09	15005.17
497.26	12578.04
497.44	12507.82
497.62	12482.08
497.79	12561.66
497.97	13942.57
498.14	14160.24
498.32	13715.54
498.50	13678.09
498.67	11950.78
498.85	13755.33
499.03	12386.12
499.20	13287.22
499.38	13238.07
499.56	12882.31
499.73	18932.59
499.91	15311.78
500.08	15150.29
500.26	12559.31
500.44	11707.36
500.61	13750.65
500.79	11878.22
500.97	14796.87
501.14	17392.52
501.32	13579.79
501.49	16702.06
501.67	12723.15
501.84	14279.61
502.02	11154.99
502.20	18855.36
502.37	14314.72
502.55	12554.63
502.72	12905.71
502.90	15496.69
503.07	13977.68
503.25	14434.08
503.43	11035.63
503.60	12208.23
503.78	14078.32
503.95	13207.64
504.13	12386.12
504.30	15246.25
504.48	16554.61
504.65	17600.83
504.83	15433.49
505.01	12498.46
505.18	13771.71
505.36	13294.24
505.53	13310.63
505.71	12461.01
505.88	17509.55
506.06	13305.95
506.23	13092.96
506.41	12528.89
506.58	14719.63
506.76	14197.69
506.93	12685.70
507.11	15187.74
507.28	11705.02
507.46	12437.61
507.63	13858.31
507.81	11632.46
507.98	13537.66
508.16	13612.56
508.33	13465.10
508.50	15262.63
508.68	13912.14
508.85	14148.54
509.03	12603.78
509.20	13029.76
509.38	15356.25
509.55	16533.54
509.73	16318.22
509.90	17444.01
510.08	12236.32
510.25	16145.02
510.42	12362.71
510.60	13727.24
510.77	15770.53
510.95	16695.04
511.12	12961.89
511.30	15653.50
511.47	15845.43
511.64	19047.28
511.82	13214.66
511.99	13460.42
512.17	13202.96
512.34	12107.59
512.51	12798.05
512.69	13137.43
512.86	17844.24
513.04	12418.88
513.21	14532.39
513.38	12681.02
513.56	12781.67
513.73	12994.65
513.90	11559.91
514.08	11662.89
514.25	14345.14
514.43	14953.68
514.60	11690.98
514.77	12531.23
514.95	14647.07
515.12	12343.99
515.29	14925.60
515.47	14726.65
515.64	14324.08
515.81	13696.82
515.99	18078.30
516.16	15138.58
516.33	16477.37
516.51	11826.73
516.68	10991.16
516.85	12470.37
517.03	12381.43
517.20	15407.75
517.37	14841.34
517.54	15653.50
517.72	12975.93
517.89	10871.79
518.06	11527.14
518.24	19674.54
518.41	19056.64
518.58	15548.18
518.75	12077.16
518.93	14293.65
519.10	14307.69
519.27	12865.92
519.45	14134.50
519.62	14532.39
519.79	15396.04
519.96	11932.05
520.14	14539.41
520.31	17490.82
520.48	13926.19
520.65	14792.19
520.83	16098.20
521.00	15995.22
521.17	17369.12
521.34	13415.95
521.52	14609.62
521.69	14359.19
521.86	14167.26
522.03	16175.44
522.20	19358.57
522.38	13071.89
522.55	15040.28
522.72	11953.12
522.89	16720.79
523.07	20271.38
523.24	14366.21
523.41	13596.17
523.58	13586.81
523.75	14157.90
523.92	13029.76
524.10	15639.46
524.27	14457.49
524.44	13680.43
524.61	18394.27
524.78	13322.33
524.96	16301.83
525.13	15126.88
525.30	17661.68
525.47	17046.12
525.64	15030.92
525.81	15236.89
525.98	15140.93
526.16	13329.35
526.33	12430.59
526.50	11845.45
526.67	11372.66
526.84	11791.62
527.01	12299.52
527.18	15419.45
527.36	14310.04
527.53	12573.36
527.70	17762.33
527.87	14356.85
528.04	19484.96
528.21	13303.60
528.38	17596.15
528.55	18122.77
528.72	18726.63
528.89	21025.03
529.07	14621.33
529.24	14810.91
529.41	19403.04
529.58	14991.13
529.75	13572.77
529.92	16362.69
530.09	14981.77
530.26	17324.65
530.43	16177.78
530.60	15262.63
530.77	15091.77
530.94	16798.02
531.11	16259.70
531.28	14303.01
531.46	13369.14
531.63	15346.89
531.80	15742.44
531.97	16283.11
532.14	14420.04
532.31	15063.69
532.48	15124.54
532.65	15477.96
532.82	12627.19
532.99	14059.60
533.16	14504.30
533.33	14827.29
533.50	14073.64
533.67	12716.13
533.84	15983.52
534.01	14981.77
534.18	14043.21
534.35	15138.58
534.52	15552.86
534.69	21460.37
534.86	14834.32
535.03	14183.65
535.20	14375.57
535.37	18188.30
535.54	15697.97
535.71	14497.28
535.88	19122.18
536.05	14218.75
536.22	16278.43
536.38	14045.55
536.55	15576.27
536.72	17846.58
536.89	12528.89
537.06	13392.55
537.23	13015.72
537.40	13612.56
537.57	13446.38
537.74	17011.01
537.91	16383.75
538.08	14862.40
538.25	16318.22
538.42	13872.36
538.59	15133.90
538.75	14232.80
538.92	14974.75
539.09	17254.43
539.26	14143.86
539.43	18640.03
539.60	14761.76
539.77	15882.88
539.94	14396.64
540.11	15824.36
540.28	19040.26
540.44	18679.82
540.61	14342.80
540.78	14169.60
540.95	12954.87
541.12	19950.73
541.29	13635.96
541.46	19323.46
541.62	15580.95
541.79	13242.75
541.96	12989.97
542.13	14022.15
542.30	12856.56
542.47	17064.85
542.63	13977.68
542.80	15669.89
542.97	18422.36
543.14	14574.52
543.31	16311.19
543.48	14579.20
543.64	16126.29
543.81	14984.11
543.98	13261.48
544.15	12720.81
544.32	14272.59
544.48	14640.05
544.65	13949.59
544.82	13231.05
544.99	14398.98
545.16	18232.77
545.32	13600.85
545.49	16053.73
545.66	14675.16
545.83	13167.85
546.00	12479.74
546.16	13701.50
546.33	13980.02
546.50	14487.92
546.67	18569.81
546.83	17158.47
547.00	14850.70
547.17	12575.70
547.34	12638.89
547.50	14368.55
547.67	14544.09
547.84	13128.06
548.00	16786.32
548.17	13806.82
548.34	13781.07
548.51	19634.75
548.67	17869.99
548.84	14209.39
549.01	15379.66
549.18	15393.70
549.34	15585.63
549.51	15435.83
549.68	15747.12
549.84	15007.52
550.01	12538.25
550.18	31094.02
550.34	23438.12
550.51	15108.16
550.68	20357.98
550.84	13516.59
551.01	15393.70
551.18	16959.52
551.34	14846.02
551.51	14281.95
551.68	14349.82
551.84	16713.77
552.01	13177.22
552.18	13783.41
552.34	15124.54
552.51	14911.55
552.68	16573.33
552.84	13647.66
553.01	15337.53
553.18	17352.73
553.34	13834.91
553.51	12453.99
553.67	16175.44
553.84	20741.83
554.01	16613.12
554.17	16308.85
554.34	12931.46
554.51	16243.32
554.67	17977.65
554.84	16835.47
555.00	15674.57
555.17	15419.45
555.33	17804.46
555.50	15133.90
555.67	15676.91
555.83	12702.09
556.00	14785.16
556.16	36992.17
556.33	15325.83
556.50	14354.51
556.66	14335.78
556.83	13184.24
556.99	13437.02
557.16	14939.64
557.32	13305.95
557.49	13502.55
557.65	13163.17
557.82	13369.14
557.98	14581.54
558.15	12863.58
558.32	13956.61
558.48	13280.20
558.65	13699.16
558.81	16030.33
558.98	13224.03
559.14	16201.19
559.31	14565.15
559.47	16315.87
559.64	13198.28
559.80	16936.12
559.97	12238.66
560.13	14352.16
560.30	11866.52
560.46	13268.50
560.63	13390.20
560.79	14085.34
560.96	14555.79
561.12	12947.84
561.29	15419.45
561.45	13565.74
561.61	14136.84
561.78	25448.64
561.94	13528.30
562.11	13233.39
562.27	14843.68
562.44	12402.50
562.60	13755.33
562.77	13490.85
562.93	22317.01
563.10	15014.54
563.26	13958.96
563.42	17137.40
563.59	14719.63
563.75	12334.62
563.92	18064.25
564.08	14633.03
564.24	16720.79
564.41	20287.76
564.57	11770.55
564.74	12779.32
564.90	14675.16
565.07	16093.52
565.23	16184.80
565.39	12662.30
565.56	15337.53
565.72	12346.33
565.88	13593.83
566.05	13036.78
566.21	13226.37
566.38	15548.18
566.54	14558.13
566.70	12870.61
566.87	12571.02
567.03	11178.40
567.19	13884.06
567.36	15044.96
567.52	13170.19
567.68	15506.05
567.85	15506.05
568.01	13160.83
568.17	11405.43
568.34	13303.60
568.50	17338.69
568.66	11602.04
568.83	22555.74
568.99	12217.60
569.15	16058.42
569.32	13151.47
569.48	13427.65
569.64	11822.05
569.81	13781.07
569.97	12461.01
570.13	15379.66
570.30	12650.60
570.46	13039.12
570.62	12856.56
570.78	12943.16
570.95	10738.38
571.11	18602.58
571.27	18523.00
571.43	11122.23
571.60	15508.39
571.76	12133.34
571.92	13523.62
572.09	12912.74
572.25	13488.51
572.41	13720.22
572.57	13179.56
572.74	19520.07
572.90	15613.71
573.06	13954.27
573.22	15012.20
573.38	16730.15
573.55	15583.29
573.71	16404.81
573.87	15169.01
574.03	11681.61
574.20	12732.51
574.36	16727.81
574.52	12353.35
574.68	12351.01
574.84	14714.95
575.01	12851.88
575.17	14686.86
575.33	12191.85
575.49	16519.50
575.65	16107.57
575.82	15721.38
575.98	20568.63
576.14	13303.60
576.30	12971.25
576.46	13160.83
576.62	13724.90
576.79	14860.06
576.95	17366.78
577.11	11761.19
577.27	11267.34
577.43	16847.18
577.59	17341.03
577.75	14796.87
577.92	12571.02
578.08	12367.39
578.24	11260.32
578.40	16334.60
578.56	17039.10
578.72	17209.96
578.88	15410.09
579.04	12411.86
579.21	14340.46
579.37	12767.62
579.53	12662.30
579.69	15964.79
579.85	11002.86
580.01	14555.79
580.17	11943.75
580.33	12348.67
580.49	13659.37
580.65	14403.66
580.82	13184.24
580.98	11754.17
581.14	11836.09
581.30	16648.23
581.46	13364.46
581.62	15997.56
581.78	11871.20
581.94	14691.54
582.10	10597.95
582.26	12704.43
582.42	11779.92
582.58	14452.81
582.74	12016.31
582.90	13724.90
583.06	13970.66
583.22	13671.07
583.38	11929.71
583.54	11220.53
583.70	17130.38
583.86	13680.43
584.02	12613.15
584.18	17542.32
584.34	11950.78
584.50	13128.06
584.66	12067.80
584.82	11077.76
584.98	13561.06
585.14	12491.44
585.30	15927.35
585.46	12580.38
585.62	10604.97
585.78	12245.68
585.94	14476.21
586.10	12786.35
586.26	13336.37
586.42	18394.27
586.58	14349.82
586.74	12709.11
586.90	12828.48
587.06	14005.77
587.22	13387.86
587.38	10984.13
587.54	11796.30
587.70	15772.87
587.86	15166.67
588.02	11943.75
588.18	13455.74
588.34	14450.47
588.49	8929.14
588.65	11517.78
588.81	11026.26
588.97	9308.31
589.13	11433.52
589.29	12559.31
589.45	15646.48
589.61	12552.29
589.77	16135.65
589.93	11442.88
590.08	11159.67
590.24	10572.20
590.40	12442.29
590.56	14572.18
590.72	12081.85
590.88	10340.49
591.04	13198.28
591.20	11375.00
591.35	17130.38
591.51	12365.05
591.67	10593.26
591.83	11571.61
591.99	13862.99
592.15	14888.15
592.31	13617.24
592.46	11779.92
592.62	14703.25
592.78	11098.82
592.94	10609.65
593.10	11089.46
593.26	10321.76
593.41	13614.90
593.57	12503.14
593.73	10949.03
593.89	14347.48
594.05	11997.59
594.20	10988.82
594.36	15819.68
594.52	10953.71
594.68	11087.12
594.84	14937.30
594.99	16908.03
595.15	13734.26
595.31	14581.54
595.47	16870.58
595.62	12156.74
595.78	11857.15
595.94	11707.36
596.10	15660.52
596.25	12903.37
596.41	14740.69
596.57	10958.39
596.73	11126.91
596.88	12114.61
597.04	12781.67
597.20	10590.92
597.36	12549.95
597.51	10799.23
597.67	10916.26
597.83	11314.15
597.99	14850.70
598.14	12617.83
598.30	15573.92
598.46	11232.23
598.61	15634.78
598.77	13097.64
598.93	10888.17
599.09	12063.12
599.24	13170.19
599.40	15716.70
599.56	12119.29
599.71	12351.01
599.87	11728.42
600.03	12449.31
600.18	11941.41
600.34	13486.17
600.50	10799.23
600.65	9975.36
600.81	14736.01
600.97	10764.12
601.12	11857.15
601.28	15915.64
601.44	12461.01
601.59	10408.36
601.75	12479.74
601.91	11342.24
602.06	13053.17
602.22	21614.85
602.37	13453.40
602.53	11648.85
602.69	13198.28
602.84	10036.22
603.00	11733.11
603.16	14047.90
603.31	14712.61
603.47	13153.81
603.62	9355.12
603.78	12571.02
603.94	13252.11
604.09	12035.03
604.25	13961.30
604.40	13605.53
604.56	11033.29
604.71	12095.89
604.87	10789.87
605.03	12219.94
605.18	12582.72
605.34	15218.16
605.49	11529.48
605.65	11248.61
605.80	9392.57
605.96	11845.45
606.12	12957.21
606.27	14335.78
606.43	11536.50
606.58	14111.09
606.74	11641.82
606.89	11967.16
607.05	14118.11
607.20	11974.18
607.36	13418.29
607.51	11117.54
607.67	12072.48
607.82	12517.18
607.98	16137.99
608.13	12959.55
608.29	11218.19
608.44	15452.22
608.60	12156.74
608.75	15812.66
608.91	13612.56
609.06	14663.46
609.22	14396.64
609.37	10047.92
609.53	10651.78
609.68	11192.44
609.84	9493.21
609.99	10141.54
610.15	13036.78
610.30	13296.58
610.46	15110.50
610.61	12744.22
610.76	11337.56
610.92	13334.03
611.07	10139.20
611.23	19955.41
611.38	14808.57
611.54	9935.57
611.69	10097.07
611.84	10902.22
612.00	10492.62
612.15	10546.45
612.31	10775.83
612.46	10462.19
612.62	8851.91
612.77	15091.77
612.92	13465.10
613.08	15536.48
613.23	13078.91
613.39	11239.25
613.54	9717.90
613.69	9973.02
613.85	10562.84
614.00	10689.23
614.15	11283.72
614.31	9872.38
614.46	13324.67
614.62	10174.31
614.77	15332.85
614.92	9628.96
615.08	12461.01
615.23	12294.83
615.38	11349.26
615.54	10333.47
615.69	11124.57
615.84	9015.74
616.00	10534.75
616.15	9907.49
616.30	11028.60
616.46	11012.22
616.61	9153.84
616.76	12746.56
616.92	11463.94
617.07	10134.52
617.22	9685.14
617.37	10686.89
617.53	12243.34
617.68	10827.32
617.83	10977.11
617.99	14466.85
618.14	16568.65
618.29	14457.49
618.45	11431.18
618.60	10553.48
618.75	9891.10
618.90	8833.18
619.06	11054.35
619.21	17128.04
619.36	15096.46
619.51	10211.76
619.67	10143.88
619.82	9865.36
619.97	12044.40
620.12	12552.29
620.28	12140.36
620.43	10881.15
620.58	12659.96
620.73	12182.49
620.89	11555.22
621.04	12105.25
621.19	16996.97
621.34	10073.67
621.49	9493.21
621.65	12077.16
621.80	8842.54
621.95	10010.47
622.10	12812.09
622.25	8580.40
622.41	9128.09
622.56	11253.30
622.71	11833.75
622.86	14326.42
623.01	10338.15
623.16	15192.42
623.32	8954.89
623.47	12390.80
623.62	10356.87
623.77	10874.13
623.92	10635.39
624.07	9846.63
624.23	10558.16
624.38	9263.84
624.53	10932.64
624.68	12727.83
624.83	15154.97
624.98	11651.19
625.13	9767.06
625.29	9060.21
625.44	10576.88
625.59	11225.21
625.74	11943.75
625.89	14878.79
626.04	8407.20
626.19	9441.72
626.34	10333.47
626.49	12479.74
626.65	9107.02
626.80	9596.20
626.95	12224.62
627.10	8755.94
627.25	11239.25
627.40	8978.30
627.55	12056.10
627.70	8978.30
627.85	12241.00
628.00	10197.71
628.15	9069.58
628.30	11206.48
628.45	8554.66
628.60	9923.87
628.76	10824.98
628.91	9371.50
629.06	10871.79
629.21	9685.14
629.36	13020.40
629.51	7857.18
629.66	11496.71
629.81	9336.40
629.96	11634.80
630.11	12404.84
630.26	11527.14
630.41	9614.92
630.56	11573.95
630.71	7705.04
630.86	9383.21
631.01	7962.50
631.16	9458.10
631.31	14848.36
631.46	13586.81
631.61	10134.52
631.76	11435.86
631.91	10099.41
632.06	12524.21
632.21	11740.13
632.36	11658.21
632.51	9937.91
632.66	10251.55
632.81	9345.76
632.96	10296.02
633.10	10958.39
633.25	15213.48
633.40	10717.31
633.55	10443.47
633.70	9268.52
633.85	10370.91
634.00	7485.03
634.15	8924.46
634.30	11115.20
634.45	10513.69
634.60	9392.57
634.75	8032.72
634.90	8662.32
635.05	10413.04
635.19	10366.23
635.34	9263.84
635.49	11379.68
635.64	8945.53
635.79	9158.52
635.94	11389.05
636.09	12475.06
636.24	10970.09
636.39	9490.87
636.53	12028.01
636.68	8418.91
636.83	10040.90
636.98	13586.81
637.13	8552.32
637.28	10939.66
637.43	14778.14
637.57	11204.14
637.72	13954.27
637.87	11260.32
638.02	8327.63
638.17	9465.13
638.32	11761.19
638.46	10071.33
638.61	15365.62
638.76	8325.29
638.91	8683.39
639.06	7819.73
639.20	13827.88
639.35	11939.07
639.50	8933.82
639.65	15297.74
639.80	9486.19
639.94	12517.18
640.09	14518.34
640.24	13322.33
640.39	11375.00
640.54	10640.08
640.68	9783.44
640.83	12594.42
640.98	8671.68
641.13	8952.55
641.27	8238.69
641.42	8547.64
641.57	12931.46
641.72	9813.87
641.86	9668.75
642.01	8957.23
642.16	12456.33
642.31	9287.25
642.45	14920.92
642.60	13214.66
642.75	8830.84
642.90	12699.75
643.04	8629.56
643.19	8741.90
643.34	9781.10
643.48	10045.58
643.63	9394.91
643.78	13963.64
643.93	15021.56
644.07	9860.68
644.22	9193.62
644.37	7351.62
644.51	11831.41
644.66	11147.97
644.81	9493.21
644.95	13397.23
645.10	8336.99
645.25	7798.66
645.39	12994.65
645.54	8748.92
645.69	14970.07
645.83	7646.53
645.98	17324.65
646.13	8725.52
646.27	12116.95
646.42	7419.50
646.57	8358.05
646.71	8645.94
646.86	8416.57
647.00	10008.13
647.15	11929.71
647.30	7508.44
647.44	8854.25
647.59	7618.44
647.74	6839.05
647.88	10832.00
648.03	6832.02
648.17	12215.26
648.32	7194.81
648.47	10714.97
648.61	8664.66
648.76	8166.13
648.90	8362.73
649.05	9296.61
649.20	7730.79
649.34	7777.60
649.49	7215.87
649.63	9680.46
649.78	8514.87
649.92	8826.16
650.07	10391.98
650.21	7857.18
650.36	11653.53
650.51	8416.57
650.65	14061.94
650.80	9004.04
650.94	8067.83
651.09	8985.32
651.23	8325.29
651.38	8650.62
651.52	8484.44
651.67	8755.94
651.81	10499.64
651.96	13507.23
652.10	12566.34
652.25	9252.14
652.39	11227.55
652.54	10143.88
652.68	9919.19
652.83	10817.96
652.97	10001.11
653.12	11105.84
653.26	8004.63
653.41	11536.50
653.55	10480.92
653.70	7564.61
653.84	8325.29
653.99	8788.71
654.13	7482.69
654.27	9408.95
654.42	8212.94
654.56	9008.72
654.71	12095.89
654.85	7274.38
655.00	7325.88
655.14	8835.52
655.29	6689.25
655.43	10721.99
655.57	9111.71
655.72	6672.87
655.86	9909.83
656.01	9650.03
656.15	8114.64
656.30	13907.46
656.44	7768.24
656.58	6817.98
656.73	8484.44
656.87	6888.20
657.01	8657.64
657.16	14143.86
657.30	10710.29
657.45	13584.47
657.59	9483.85
657.73	7618.44
657.88	9092.98
658.02	18661.09
658.16	8519.55
658.31	9186.60
658.45	8444.65
658.60	6499.67
658.74	8903.40
658.88	7197.15
659.03	7564.61
659.17	7527.16
659.31	7442.90
659.46	7962.50
659.60	10492.62
659.74	8255.07
659.89	8395.50
660.03	8287.84
660.17	14712.61
660.32	10513.69
660.46	10181.33
660.60	8697.43
660.74	10551.14
660.89	9411.29
661.03	6916.28
661.17	7838.45
661.32	8028.04
661.46	8772.33
661.60	7899.31
661.74	10272.61
661.89	11793.96
662.03	10186.01
662.17	8044.42
662.31	9530.66
662.46	10450.49
662.60	9427.68
662.74	8138.04
662.88	10832.00
663.03	8283.16
663.17	7012.24
663.31	9238.09
663.45	9783.44
663.60	8018.68
663.74	6616.69
663.88	5900.49
664.02	9202.99
664.17	7370.35
664.31	7382.05
664.45	9586.83
664.59	8320.60
664.73	8564.02
664.88	11159.67
665.02	6909.26
665.16	8166.13
665.30	13179.56
665.44	9310.65
665.59	12006.95
665.73	9434.70
665.87	8564.02
666.01	8552.32
666.15	7311.83
666.29	6511.37
666.44	13296.58
666.58	15220.50
666.72	6988.84
666.86	7737.81
667.00	11117.54
667.14	8695.09
667.28	9895.78
667.43	8748.92
667.57	9179.58
667.71	10230.48
667.85	9549.39
667.99	9914.51
668.13	8257.41
668.27	10132.18
668.41	10466.88
668.56	8603.81
668.70	12964.23
668.84	8006.97
668.98	10068.98
669.12	6012.84
669.26	9172.56
669.40	16578.01
669.54	9762.37
669.68	11604.38
669.82	7021.61
669.96	8879.99
670.10	10326.44
670.25	11019.24
670.39	10611.99
670.53	7899.31
670.67	10305.38
670.81	6513.71
670.95	9806.84
671.09	8217.62
671.23	12791.03
671.37	11365.64
671.51	8479.76
671.65	10382.62
671.79	7751.85
671.93	9537.68
672.07	15756.49
672.21	10593.26
672.35	8081.87
672.49	7674.62
672.63	11173.72
672.77	9666.41
672.91	9610.24
673.05	8800.41
673.19	8814.46
673.33	6775.85
673.47	14597.92
673.61	8568.70
673.75	7016.93
673.89	6726.70
674.03	10382.62
674.17	7978.89
674.31	9027.45
674.45	10183.67
674.59	9329.38
674.73	8273.79
674.87	9963.66
675.01	10640.08
675.15	8009.31
675.29	11822.05
675.43	11211.17
675.56	13834.91
675.70	12465.69
675.84	8294.86
675.98	9671.09
676.12	5968.37
676.26	8180.17
676.40	6136.88
676.54	8070.17
676.68	7463.97
676.82	11000.52
676.96	6527.75
677.10	9289.59
677.23	7035.65
677.37	6155.61
677.51	8229.32
677.65	15882.88
677.79	7124.59
677.93	6785.21
678.07	7419.50
678.21	6162.63
678.34	6630.74
678.48	6164.97
678.62	8992.34
678.76	5268.55
678.90	8526.57
679.04	8491.46
679.18	6733.72
679.31	6078.37
679.45	6148.59
679.59	8767.65
679.73	8184.85
679.87	5511.96
680.00	8905.74
680.14	8526.57
680.28	9643.01
680.42	7192.47
680.56	9671.09
680.70	6438.81
680.83	8917.44
680.97	6204.76
681.11	6703.29
681.25	10204.74
681.39	7578.65
681.52	9011.06
681.66	8140.38
681.80	9308.31
681.94	6127.52
682.07	7370.35
682.21	8781.69
682.35	6066.67
682.49	6160.29
682.62	10478.58
682.76	6113.48
682.90	7082.46
683.04	8964.25
683.17	9135.11
683.31	6920.96
683.45	10073.67
683.59	11529.48
683.72	10658.80
683.86	8716.16
684.00	6565.20
684.13	11204.14
684.27	9453.42
684.41	9128.09
684.55	7669.94
684.68	7398.43
684.82	6085.39
684.96	6977.14
685.09	7845.48
685.23	5607.92
685.37	6141.57
685.50	10370.91
685.64	10525.39
685.78	5544.73
685.91	9462.79
686.05	11016.90
686.19	8189.53
686.32	7662.91
686.46	8028.04
686.60	4278.50
686.73	14626.01
686.87	10012.81
687.01	5165.56
687.14	4227.01
687.28	6033.90
687.42	6319.45
687.55	6490.31
687.69	11311.81
687.82	5504.94
687.96	6635.42
688.10	10200.05
688.23	6349.87
688.37	11742.47
688.50	8439.97
688.64	8475.08
688.78	5383.23
688.91	5839.64
689.05	6291.36
689.18	4830.87
689.32	6630.74
689.46	5802.19
689.59	7737.81
689.73	9420.66
689.86	4926.83
690.00	6581.59
690.13	5516.64
690.27	5050.88
690.41	7852.50
690.54	11473.31
690.68	7793.98
690.81	6157.95
690.95	6911.60
691.08	7866.54
691.22	5811.55
691.35	6502.01
691.49	4699.80
691.62	6445.84
691.76	5247.48
691.89	7407.80
692.03	5041.51
692.16	4847.25
692.30	7740.15
692.43	6715.00
692.57	5111.73
692.70	4706.82
692.84	8348.69
692.97	5317.70
693.11	4922.15
693.24	6399.02
693.38	5160.88
693.51	6069.01
693.65	9046.17
693.78	6090.07
693.92	5256.84
694.05	8067.83
694.19	4760.65
694.32	7536.52
694.45	5659.42
694.59	5441.75
694.72	6043.26
694.86	6431.79
694.99	8444.65
695.13	5682.82
695.26	7253.32
695.39	6590.95
695.53	14139.18
695.66	7358.64
695.80	9853.66
695.93	5259.18
696.07	6064.33
696.20	7014.59
696.33	4540.64
696.47	5628.99
696.60	6043.26
696.73	7131.61
696.87	5036.83
697.00	11927.37
697.14	6237.53
697.27	6932.67
697.40	14499.62
697.54	5769.42
697.67	7155.02
697.80	7466.31
697.94	5678.14
698.07	6871.81
698.21	5647.71
698.34	8856.59
698.47	4624.90
698.61	4964.28
698.74	5235.78
698.87	9233.41
699.01	6635.42
699.14	5383.23
699.27	8617.85
699.40	21654.64
699.54	6115.82
699.67	5088.32
699.80	4807.46
699.94	5275.57
700.07	5041.51
700.20	4695.11
700.34	6726.70
700.47	3812.73
700.60	4901.08
700.73	6146.25
700.87	10590.92
701.00	5703.89
701.13	5467.49
701.26	6445.84
701.40	5973.05
701.53	5308.34
701.66	4575.75
701.79	6387.32
701.93	6310.08
702.06	11335.21
702.19	5757.72
702.32	9263.84
702.46	5647.71
702.59	4734.90
702.72	4205.94
702.85	6427.11
702.99	4865.97
703.12	9579.81
703.25	5287.27
703.38	5537.71
703.51	8788.71
703.65	4774.69
703.78	5437.06
703.91	7538.87
704.04	9107.02
704.17	5991.77
704.31	3606.77
704.44	4823.84
704.57	5617.29
704.70	6321.79
704.83	5816.23
704.96	6015.18
705.10	6827.34
705.23	5797.51
>>>>>End Processed Spectral Data<<<<<
