SpectraSuite Data File
++++++++++++++++++++++++++++++++++++
Date: Mon Oct 07 14:59:58 GMT-05:00 2013
User: price-jones
Dark Spectrum Present: No
Reference Spectrum Present: No
Number of Sampled Component Spectra: 1
Spectrometers: USB2+H05261
Integration Time (usec): 100000 (USB2+H05261)
Spectra Averaged: 1 (USB2+H05261)
Boxcar Smoothing: 0 (USB2+H05261)
Correct for Electrical Dark: No (USB2+H05261)
Strobe/Lamp Enabled: No (USB2+H05261)
Correct for Detector Non-linearity: No (USB2+H05261)
Correct for Stray Light: No (USB2+H05261)
Number of Pixels in Processed Spectrum: 2048
>>>>>Begin Processed Spectral Data<<<<<
365.73	0.00
365.92	0.00
366.12	0.00
366.32	0.00
366.52	0.00
366.72	0.00
366.91	0.00
367.11	0.00
367.31	0.00
367.51	0.00
367.70	0.00
367.90	0.00
368.10	0.00
368.30	0.00
368.49	0.00
368.69	0.00
368.89	0.00
369.09	0.00
369.28	0.00
369.48	0.00
369.68	0.00
369.87	0.00
370.07	0.00
370.27	0.00
370.47	0.00
370.66	0.00
370.86	0.00
371.06	0.00
371.25	0.00
371.45	0.00
371.65	0.00
371.84	0.00
372.04	0.00
372.24	0.00
372.44	0.00
372.63	0.00
372.83	0.00
373.03	0.00
373.22	0.00
373.42	0.00
373.62	0.00
373.81	0.00
374.01	0.00
374.21	0.00
374.40	0.00
374.60	0.00
374.79	0.00
374.99	0.00
375.19	0.00
375.38	0.00
375.58	0.00
375.78	0.00
375.97	0.00
376.17	0.00
376.37	0.00
376.56	0.00
376.76	0.00
376.95	0.00
377.15	0.00
377.35	0.00
377.54	0.00
377.74	0.00
377.93	0.00
378.13	0.00
378.33	0.00
378.52	0.00
378.72	0.00
378.91	0.00
379.11	0.00
379.31	0.00
379.50	0.00
379.70	0.00
379.89	0.00
380.09	0.00
380.28	0.00
380.48	0.00
380.68	0.00
380.87	0.00
381.07	0.00
381.26	0.00
381.46	0.00
381.65	0.00
381.85	0.00
382.04	0.00
382.24	0.00
382.43	0.00
382.63	0.00
382.83	0.00
383.02	0.00
383.22	0.00
383.41	0.00
383.61	0.00
383.80	0.00
384.00	0.00
384.19	0.00
384.39	0.00
384.58	0.00
384.78	0.00
384.97	0.00
385.17	0.00
385.36	0.00
385.56	0.00
385.75	0.00
385.95	0.00
386.14	0.00
386.34	0.00
386.53	0.00
386.72	0.00
386.92	0.00
387.11	0.00
387.31	0.00
387.50	0.00
387.70	0.00
387.89	0.00
388.09	0.00
388.28	0.00
388.48	0.00
388.67	0.00
388.86	0.00
389.06	0.00
389.25	0.00
389.45	0.00
389.64	0.00
389.84	0.00
390.03	0.00
390.22	0.00
390.42	0.00
390.61	0.00
390.81	0.00
391.00	0.00
391.19	0.00
391.39	0.00
391.58	0.00
391.78	0.00
391.97	0.00
392.16	0.00
392.36	0.00
392.55	0.00
392.75	0.00
392.94	0.00
393.13	0.00
393.33	0.00
393.52	0.00
393.71	0.00
393.91	0.00
394.10	0.00
394.29	0.00
394.49	0.00
394.68	0.00
394.88	0.00
395.07	0.00
395.26	0.00
395.46	0.00
395.65	0.00
395.84	0.00
396.04	0.00
396.23	0.00
396.42	0.00
396.62	0.00
396.81	0.00
397.00	0.00
397.19	0.00
397.39	0.00
397.58	0.00
397.77	0.00
397.97	0.00
398.16	0.00
398.35	0.00
398.55	0.00
398.74	0.00
398.93	0.00
399.12	0.00
399.32	0.00
399.51	0.00
399.70	0.00
399.90	0.00
400.09	0.00
400.28	0.00
400.47	0.00
400.67	0.00
400.86	0.00
401.05	0.00
401.24	0.00
401.44	0.00
401.63	0.00
401.82	0.00
402.01	0.00
402.21	0.00
402.40	0.00
402.59	0.00
402.78	0.00
402.97	0.00
403.17	0.00
403.36	0.00
403.55	0.00
403.74	0.00
403.93	0.00
404.13	0.00
404.32	0.00
404.51	0.00
404.70	0.00
404.89	0.00
405.09	0.00
405.28	0.00
405.47	0.00
405.66	0.00
405.85	0.00
406.05	0.00
406.24	0.00
406.43	0.00
406.62	0.00
406.81	0.00
407.00	0.00
407.20	0.00
407.39	0.00
407.58	0.00
407.77	0.00
407.96	0.00
408.15	0.00
408.34	0.00
408.54	0.00
408.73	0.00
408.92	0.00
409.11	0.00
409.30	0.00
409.49	0.00
409.68	0.00
409.87	0.00
410.07	0.00
410.26	0.00
410.45	0.00
410.64	0.00
410.83	0.00
411.02	0.00
411.21	0.00
411.40	0.00
411.59	0.00
411.78	0.00
411.98	0.00
412.17	0.00
412.36	0.00
412.55	0.00
412.74	0.00
412.93	0.00
413.12	0.00
413.31	0.00
413.50	0.00
413.69	0.00
413.88	0.00
414.07	0.00
414.26	0.00
414.45	0.00
414.64	0.00
414.83	0.00
415.02	0.00
415.22	0.00
415.41	0.00
415.60	0.00
415.79	0.00
415.98	0.00
416.17	0.00
416.36	0.00
416.55	0.00
416.74	0.00
416.93	0.00
417.12	0.00
417.31	0.00
417.50	0.00
417.69	0.00
417.88	0.00
418.07	0.00
418.26	0.00
418.45	0.00
418.64	0.00
418.83	0.00
419.02	0.00
419.21	0.00
419.39	0.00
419.58	0.00
419.77	0.00
419.96	0.00
420.15	0.00
420.34	0.00
420.53	0.00
420.72	0.00
420.91	0.00
421.10	0.00
421.29	0.00
421.48	0.00
421.67	0.00
421.86	0.00
422.05	0.00
422.24	0.00
422.43	0.00
422.61	0.00
422.80	0.00
422.99	0.00
423.18	0.00
423.37	0.00
423.56	0.00
423.75	0.00
423.94	0.00
424.13	0.00
424.32	0.00
424.50	0.00
424.69	0.00
424.88	0.00
425.07	0.00
425.26	0.00
425.45	0.00
425.64	0.00
425.83	0.00
426.01	0.00
426.20	0.00
426.39	0.00
426.58	0.00
426.77	0.00
426.96	0.00
427.15	0.00
427.33	0.00
427.52	0.00
427.71	0.00
427.90	0.00
428.09	0.00
428.28	0.00
428.46	0.00
428.65	0.00
428.84	0.00
429.03	0.00
429.22	0.00
429.40	0.00
429.59	0.00
429.78	0.00
429.97	0.00
430.16	0.00
430.34	0.00
430.53	0.00
430.72	0.00
430.91	0.00
431.10	0.00
431.28	0.00
431.47	0.00
431.66	0.00
431.85	0.00
432.03	0.00
432.22	0.00
432.41	0.00
432.60	0.00
432.79	0.00
432.97	0.00
433.16	0.00
433.35	0.00
433.54	0.00
433.72	0.00
433.91	0.00
434.10	0.00
434.28	0.00
434.47	0.00
434.66	0.00
434.85	0.00
435.03	0.00
435.22	0.00
435.41	0.00
435.59	0.00
435.78	0.00
435.97	0.00
436.16	0.00
436.34	0.00
436.53	0.00
436.72	0.00
436.90	0.00
437.09	0.00
437.28	0.00
437.46	0.00
437.65	0.00
437.84	0.00
438.02	0.00
438.21	0.00
438.40	0.00
438.58	0.00
438.77	0.00
438.96	0.00
439.14	0.00
439.33	0.00
439.52	0.00
439.70	0.00
439.89	0.00
440.08	0.00
440.26	0.00
440.45	0.00
440.63	0.00
440.82	0.00
441.01	0.00
441.19	0.00
441.38	0.00
441.57	0.00
441.75	0.00
441.94	0.00
442.12	0.00
442.31	0.00
442.50	0.00
442.68	0.00
442.87	0.00
443.05	0.00
443.24	0.00
443.43	0.00
443.61	0.00
443.80	0.00
443.98	0.00
444.17	0.00
444.35	0.00
444.54	0.00
444.73	0.00
444.91	0.00
445.10	0.00
445.28	0.00
445.47	0.00
445.65	0.00
445.84	0.00
446.02	0.00
446.21	0.00
446.39	0.00
446.58	0.00
446.77	0.00
446.95	0.00
447.14	0.00
447.32	0.00
447.51	0.00
447.69	0.00
447.88	0.00
448.06	0.00
448.25	0.00
448.43	0.00
448.62	0.00
448.80	0.00
448.99	0.00
449.17	0.00
449.36	0.00
449.54	0.00
449.73	4.68
449.91	0.00
450.10	0.00
450.28	0.00
450.46	0.00
450.65	0.00
450.83	0.00
451.02	0.00
451.20	0.00
451.39	0.00
451.57	9.36
451.76	0.00
451.94	0.00
452.13	0.00
452.31	0.00
452.49	0.00
452.68	0.00
452.86	0.00
453.05	0.00
453.23	0.00
453.42	0.00
453.60	35.11
453.78	0.00
453.97	0.00
454.15	0.00
454.34	0.00
454.52	0.00
454.70	0.00
454.89	0.00
455.07	14.04
455.26	9.36
455.44	0.00
455.62	0.00
455.81	11.70
455.99	0.00
456.17	0.00
456.36	0.00
456.54	0.00
456.73	0.00
456.91	0.00
457.09	0.00
457.28	0.00
457.46	0.00
457.64	0.00
457.83	0.00
458.01	0.00
458.19	0.00
458.38	0.00
458.56	0.00
458.74	0.00
458.93	0.00
459.11	0.00
459.29	0.00
459.48	0.00
459.66	0.00
459.84	0.00
460.03	0.00
460.21	0.00
460.39	0.00
460.57	0.00
460.76	0.00
460.94	0.00
461.12	35.11
461.31	7.02
461.49	0.00
461.67	0.00
461.85	18.72
462.04	0.00
462.22	564.07
462.40	9.36
462.59	0.00
462.77	0.00
462.95	0.00
463.13	0.00
463.32	14.04
463.50	0.00
463.68	0.00
463.86	0.00
464.05	0.00
464.23	0.00
464.41	60.85
464.59	0.00
464.78	0.00
464.96	0.00
465.14	0.00
465.32	0.00
465.50	51.49
465.69	0.00
465.87	28.09
466.05	0.00
466.23	16.38
466.41	0.00
466.60	21.06
466.78	0.00
466.96	0.00
467.14	11.70
467.32	56.17
467.51	16.38
467.69	0.00
467.87	0.00
468.05	0.00
468.23	16.38
468.41	23.41
468.60	0.00
468.78	25.75
468.96	0.00
469.14	28.09
469.32	0.00
469.50	0.00
469.69	0.00
469.87	16.38
470.05	0.00
470.23	0.00
470.41	0.00
470.59	16.38
470.77	0.00
470.95	0.00
471.14	0.00
471.32	0.00
471.50	0.00
471.68	0.00
471.86	16.38
472.04	0.00
472.22	0.00
472.40	0.00
472.58	0.00
472.77	0.00
472.95	0.00
473.13	88.94
473.31	65.54
473.49	0.00
473.67	0.00
473.85	67.88
474.03	25.75
474.21	39.79
474.39	49.15
474.57	95.96
474.75	0.00
474.93	21.06
475.12	0.00
475.30	0.00
475.48	30.43
475.66	70.22
475.84	9.36
476.02	32.77
476.20	32.77
476.38	0.00
476.56	77.24
476.74	81.92
476.92	35.11
477.10	14.04
477.28	21.06
477.46	74.90
477.64	58.51
477.82	7.02
478.00	0.00
478.18	0.00
478.36	65.54
478.54	23.41
478.72	0.00
478.90	60.85
479.08	4.68
479.26	49.15
479.44	14.04
479.62	51.49
479.80	9.36
479.98	0.00
480.16	42.13
480.34	44.47
480.52	0.00
480.70	42.13
480.88	16.38
481.06	49.15
481.24	9.36
481.41	105.32
481.59	25.75
481.77	79.58
481.95	44.47
482.13	126.39
482.31	46.81
482.49	46.81
482.67	42.13
482.85	72.56
483.03	51.49
483.21	63.19
483.39	21.06
483.57	74.90
483.74	98.30
483.92	95.96
484.10	18.72
484.28	58.51
484.46	161.50
484.64	67.88
484.82	0.00
485.00	37.45
485.18	37.45
485.35	77.24
485.53	0.00
485.71	100.64
485.89	11.70
486.07	21.06
486.25	140.43
486.43	77.24
486.61	133.41
486.78	114.69
486.96	84.26
487.14	112.35
487.32	74.90
487.50	49.15
487.68	119.37
487.85	32.77
488.03	46.81
488.21	175.54
488.39	74.90
488.57	105.32
488.75	32.77
488.92	425.98
489.10	135.75
489.28	257.46
489.46	107.66
489.64	95.96
489.81	65.54
489.99	191.92
490.17	220.01
490.35	191.92
490.53	149.79
490.70	98.30
490.88	131.07
491.06	128.73
491.24	138.09
491.41	107.66
491.59	135.75
491.77	74.90
491.95	79.58
492.13	124.05
492.30	140.43
492.48	88.94
492.66	156.82
492.84	74.90
493.01	196.60
493.19	93.62
493.37	168.52
493.54	63.19
493.72	187.24
493.90	149.79
494.08	156.82
494.25	212.99
494.43	227.03
494.61	220.01
494.79	98.30
494.96	124.05
495.14	177.88
495.32	105.32
495.49	131.07
495.67	149.79
495.85	124.05
496.02	145.11
496.20	173.20
496.38	196.60
496.55	187.24
496.73	163.84
496.91	189.58
497.09	271.50
497.26	170.86
497.44	234.05
497.62	177.88
497.79	121.71
497.97	187.24
498.14	191.92
498.32	269.16
498.50	252.78
498.67	170.86
498.85	184.90
499.03	236.39
499.20	205.97
499.38	217.67
499.56	182.56
499.73	248.10
499.91	224.69
500.08	231.71
500.26	205.97
500.44	119.37
500.61	215.33
500.79	168.52
500.97	182.56
501.14	257.46
501.32	191.92
501.49	262.14
501.67	166.18
501.84	180.22
502.02	135.75
502.20	297.25
502.37	238.73
502.55	175.54
502.72	241.08
502.90	208.31
503.07	217.67
503.25	182.56
503.43	161.50
503.60	131.07
503.78	224.69
503.95	173.20
504.13	194.26
504.30	234.05
504.48	227.03
504.65	334.70
504.83	205.97
505.01	210.65
505.18	243.42
505.36	149.79
505.53	152.13
505.71	313.63
505.88	255.12
506.06	250.44
506.23	215.33
506.41	201.29
506.58	229.37
506.76	285.55
506.93	287.89
507.11	212.99
507.28	224.69
507.46	110.01
507.63	234.05
507.81	278.52
507.98	205.97
508.16	252.78
508.33	255.12
508.50	322.99
508.68	203.63
508.85	203.63
509.03	285.55
509.20	177.88
509.38	217.67
509.55	283.20
509.73	276.18
509.90	273.84
510.08	217.67
510.25	273.84
510.42	292.57
510.60	306.61
510.77	243.42
510.95	264.48
511.12	189.58
511.30	234.05
511.47	355.76
511.64	252.78
511.82	259.80
511.99	283.20
512.17	269.16
512.34	222.35
512.51	257.46
512.69	269.16
512.86	320.65
513.04	292.57
513.21	252.78
513.38	315.97
513.56	238.73
513.73	203.63
513.90	205.97
514.08	194.26
514.25	236.39
514.43	187.24
514.60	266.82
514.77	269.16
514.95	238.73
515.12	194.26
515.29	243.42
515.47	243.42
515.64	322.99
515.81	322.99
515.99	348.74
516.16	234.05
516.33	189.58
516.51	194.26
516.68	88.94
516.85	81.92
517.03	243.42
517.20	224.69
517.37	266.82
517.54	292.57
517.72	231.71
517.89	205.97
518.06	142.77
518.24	294.91
518.41	278.52
518.58	220.01
518.75	243.42
518.93	266.82
519.10	208.31
519.27	222.35
519.45	245.76
519.62	203.63
519.79	234.05
519.96	306.61
520.14	320.65
520.31	355.76
520.48	320.65
520.65	266.82
520.83	278.52
521.00	325.33
521.17	374.49
521.34	182.56
521.52	308.95
521.69	280.86
521.86	287.89
522.03	248.10
522.20	313.63
522.38	248.10
522.55	320.65
522.72	208.31
522.89	264.48
523.07	292.57
523.24	292.57
523.41	313.63
523.58	320.65
523.75	250.44
523.92	304.27
524.10	297.25
524.27	308.95
524.44	311.29
524.61	280.86
524.78	236.39
524.96	322.99
525.13	255.12
525.30	318.31
525.47	386.19
525.64	381.51
525.81	327.68
525.98	367.46
526.16	241.08
526.33	292.57
526.50	222.35
526.67	217.67
526.84	245.76
527.01	227.03
527.18	372.15
527.36	346.40
527.53	271.50
527.70	414.27
527.87	337.04
528.04	341.72
528.21	271.50
528.38	322.99
528.55	280.86
528.72	341.72
528.89	383.85
529.07	292.57
529.24	337.04
529.41	397.89
529.58	243.42
529.75	227.03
529.92	252.78
530.09	304.27
530.26	348.74
530.43	367.46
530.60	334.70
530.77	339.38
530.94	372.15
531.11	374.49
531.28	259.80
531.46	278.52
531.63	346.40
531.80	341.72
531.97	353.42
532.14	255.12
532.31	280.86
532.48	236.39
532.65	271.50
532.82	241.08
532.99	332.36
533.16	341.72
533.33	341.72
533.50	297.25
533.67	264.48
533.84	250.44
534.01	362.78
534.18	313.63
534.35	273.84
534.52	280.86
534.69	454.06
534.86	376.83
535.03	292.57
535.20	320.65
535.37	376.83
535.54	388.53
535.71	337.04
535.88	451.72
536.05	320.65
536.22	334.70
536.38	360.44
536.55	325.33
536.72	322.99
536.89	248.10
537.06	266.82
537.23	304.27
537.40	271.50
537.57	337.04
537.74	390.87
537.91	358.10
538.08	351.08
538.25	416.62
538.42	395.55
538.59	320.65
538.75	245.76
538.92	280.86
539.09	320.65
539.26	241.08
539.43	428.32
539.60	318.31
539.77	355.76
539.94	273.84
540.11	313.63
540.28	346.40
540.44	374.49
540.61	276.18
540.78	245.76
540.95	407.25
541.12	353.42
541.29	287.89
541.46	449.38
541.62	341.72
541.79	304.27
541.96	273.84
542.13	271.50
542.30	313.63
542.47	383.85
542.63	362.78
542.80	463.43
542.97	409.59
543.14	266.82
543.31	332.36
543.48	266.82
543.64	238.73
543.81	318.31
543.98	320.65
544.15	294.91
544.32	362.78
544.48	407.25
544.65	390.87
544.82	360.44
544.99	266.82
545.16	297.25
545.32	346.40
545.49	418.96
545.66	397.89
545.83	308.95
546.00	304.27
546.16	292.57
546.33	355.76
546.50	264.48
546.67	388.53
546.83	367.46
547.00	313.63
547.17	294.91
547.34	276.18
547.50	421.30
547.67	341.72
547.84	353.42
548.00	327.68
548.17	369.80
548.34	348.74
548.51	381.51
548.67	337.04
548.84	358.10
549.01	346.40
549.18	369.80
549.34	376.83
549.51	353.42
549.68	388.53
549.84	353.42
550.01	294.91
550.18	496.19
550.34	320.65
550.51	327.68
550.68	440.02
550.84	322.99
551.01	311.29
551.18	353.42
551.34	367.46
551.51	344.06
551.68	351.08
551.84	360.44
552.01	330.02
552.18	308.95
552.34	360.44
552.51	308.95
552.68	395.55
552.84	348.74
553.01	388.53
553.18	353.42
553.34	395.55
553.51	299.59
553.67	280.86
553.84	372.15
554.01	346.40
554.17	344.06
554.34	330.02
554.51	376.83
554.67	404.91
554.84	421.30
555.00	367.46
555.17	341.72
555.33	416.62
555.50	397.89
555.67	397.89
555.83	304.27
556.00	346.40
556.16	599.18
556.33	388.53
556.50	381.51
556.66	365.12
556.83	397.89
556.99	203.63
557.16	346.40
557.32	334.70
557.49	332.36
557.65	418.96
557.82	304.27
557.98	374.49
558.15	327.68
558.32	320.65
558.48	290.23
558.65	294.91
558.81	285.55
558.98	283.20
559.14	271.50
559.31	332.36
559.47	360.44
559.64	330.02
559.80	351.08
559.97	292.57
560.13	348.74
560.30	306.61
560.46	318.31
560.63	360.44
560.79	269.16
560.96	301.93
561.12	273.84
561.29	278.52
561.45	320.65
561.61	301.93
561.78	465.77
561.94	367.46
562.11	318.31
562.27	365.12
562.44	341.72
562.60	344.06
562.77	365.12
562.93	374.49
563.10	269.16
563.26	259.80
563.42	341.72
563.59	320.65
563.75	229.37
563.92	397.89
564.08	404.91
564.24	313.63
564.41	416.62
564.57	299.59
564.74	287.89
564.90	435.34
565.07	348.74
565.23	421.30
565.39	287.89
565.56	297.25
565.72	297.25
565.88	337.04
566.05	273.84
566.21	313.63
566.38	330.02
566.54	339.38
566.70	304.27
566.87	325.33
567.03	292.57
567.19	238.73
567.36	238.73
567.52	386.19
567.68	294.91
567.85	264.48
568.01	306.61
568.17	341.72
568.34	301.93
568.50	301.93
568.66	292.57
568.83	425.98
568.99	304.27
569.15	404.91
569.32	278.52
569.48	395.55
569.64	376.83
569.81	264.48
569.97	264.48
570.13	276.18
570.30	322.99
570.46	369.80
570.62	341.72
570.78	327.68
570.95	294.91
571.11	365.12
571.27	320.65
571.43	292.57
571.60	355.76
571.76	304.27
571.92	276.18
572.09	285.55
572.25	341.72
572.41	348.74
572.57	376.83
572.74	430.66
572.90	292.57
573.06	379.17
573.22	264.48
573.38	400.23
573.55	444.70
573.71	360.44
573.87	339.38
574.03	290.23
574.20	299.59
574.36	362.78
574.52	287.89
574.68	351.08
574.84	245.76
575.01	358.10
575.17	362.78
575.33	404.91
575.49	325.33
575.65	346.40
575.82	273.84
575.98	304.27
576.14	365.12
576.30	210.65
576.46	344.06
576.62	299.59
576.79	322.99
576.95	367.46
577.11	241.08
577.27	243.42
577.43	290.23
577.59	330.02
577.75	341.72
577.92	325.33
578.08	262.14
578.24	194.26
578.40	245.76
578.56	400.23
578.72	294.91
578.88	341.72
579.04	315.97
579.21	330.02
579.37	276.18
579.53	360.44
579.69	386.19
579.85	215.33
580.01	330.02
580.17	376.83
580.33	292.57
580.49	273.84
580.65	344.06
580.82	421.30
580.98	294.91
581.14	337.04
581.30	393.21
581.46	397.89
581.62	376.83
581.78	362.78
581.94	346.40
582.10	346.40
582.26	287.89
582.42	287.89
582.58	362.78
582.74	367.46
582.90	358.10
583.06	390.87
583.22	344.06
583.38	358.10
583.54	257.46
583.70	348.74
583.86	320.65
584.02	271.50
584.18	341.72
584.34	416.62
584.50	322.99
584.66	374.49
584.82	327.68
584.98	297.25
585.14	348.74
585.30	187.24
585.46	276.18
585.62	276.18
585.78	297.25
585.94	287.89
586.10	341.72
586.26	325.33
586.42	372.15
586.58	315.97
586.74	372.15
586.90	297.25
587.06	271.50
587.22	313.63
587.38	241.08
587.54	290.23
587.70	311.29
587.86	379.17
588.02	276.18
588.18	355.76
588.34	320.65
588.49	273.84
588.65	290.23
588.81	191.92
588.97	208.31
589.13	198.95
589.29	224.69
589.45	201.29
589.61	234.05
589.77	393.21
589.93	259.80
590.08	308.95
590.24	238.73
590.40	245.76
590.56	283.20
590.72	245.76
590.88	196.60
591.04	346.40
591.20	330.02
591.35	337.04
591.51	259.80
591.67	245.76
591.83	278.52
591.99	245.76
592.15	313.63
592.31	362.78
592.46	236.39
592.62	322.99
592.78	198.95
592.94	248.10
593.10	245.76
593.26	248.10
593.41	252.78
593.57	304.27
593.73	315.97
593.89	327.68
594.05	276.18
594.20	334.70
594.36	374.49
594.52	292.57
594.68	245.76
594.84	304.27
594.99	362.78
595.15	297.25
595.31	250.44
595.47	358.10
595.62	257.46
595.78	301.93
595.94	306.61
596.10	348.74
596.25	290.23
596.41	346.40
596.57	250.44
596.73	257.46
596.88	297.25
597.04	294.91
597.20	339.38
597.36	283.20
597.51	264.48
597.67	271.50
597.83	273.84
597.99	308.95
598.14	201.29
598.30	292.57
598.46	238.73
598.61	355.76
598.77	271.50
598.93	250.44
599.09	348.74
599.24	278.52
599.40	362.78
599.56	278.52
599.71	271.50
599.87	283.20
600.03	271.50
600.18	243.42
600.34	322.99
600.50	292.57
600.65	297.25
600.81	280.86
600.97	308.95
601.12	306.61
601.28	269.16
601.44	257.46
601.59	280.86
601.75	327.68
601.91	280.86
602.06	203.63
602.22	313.63
602.37	257.46
602.53	297.25
602.69	341.72
602.84	224.69
603.00	308.95
603.16	320.65
603.31	390.87
603.47	294.91
603.62	231.71
603.78	257.46
603.94	332.36
604.09	238.73
604.25	308.95
604.40	313.63
604.56	236.39
604.71	304.27
604.87	278.52
605.03	208.31
605.18	292.57
605.34	266.82
605.49	248.10
605.65	285.55
605.80	257.46
605.96	243.42
606.12	304.27
606.27	285.55
606.43	250.44
606.58	367.46
606.74	273.84
606.89	322.99
607.05	311.29
607.20	259.80
607.36	301.93
607.51	198.95
607.67	224.69
607.82	227.03
607.98	311.29
608.13	182.56
608.29	243.42
608.44	224.69
608.60	198.95
608.75	264.48
608.91	259.80
609.06	280.86
609.22	313.63
609.37	255.12
609.53	259.80
609.68	163.84
609.84	187.24
609.99	236.39
610.15	217.67
610.30	269.16
610.46	313.63
610.61	212.99
610.76	248.10
610.92	344.06
611.07	156.82
611.23	353.42
611.38	156.82
611.54	224.69
611.69	194.26
611.84	170.86
612.00	180.22
612.15	182.56
612.31	269.16
612.46	280.86
612.62	189.58
612.77	184.90
612.92	252.78
613.08	278.52
613.23	238.73
613.39	238.73
613.54	138.09
613.69	220.01
613.85	229.37
614.00	163.84
614.15	184.90
614.31	220.01
614.46	255.12
614.62	283.20
614.77	227.03
614.92	210.65
615.08	236.39
615.23	128.73
615.38	234.05
615.54	187.24
615.69	189.58
615.84	177.88
616.00	264.48
616.15	182.56
616.30	198.95
616.46	215.33
616.61	227.03
616.76	264.48
616.92	236.39
617.07	163.84
617.22	241.08
617.37	142.77
617.53	208.31
617.68	271.50
617.83	250.44
617.99	252.78
618.14	285.55
618.29	294.91
618.45	184.90
618.60	177.88
618.75	276.18
618.90	163.84
619.06	231.71
619.21	278.52
619.36	262.14
619.51	175.54
619.67	236.39
619.82	283.20
619.97	198.95
620.12	269.16
620.28	236.39
620.43	222.35
620.58	320.65
620.73	285.55
620.89	210.65
621.04	231.71
621.19	259.80
621.34	182.56
621.49	220.01
621.65	189.58
621.80	177.88
621.95	180.22
622.10	255.12
622.25	126.39
622.41	180.22
622.56	131.07
622.71	184.90
622.86	161.50
623.01	189.58
623.16	196.60
623.32	110.01
623.47	152.13
623.62	173.20
623.77	128.73
623.92	208.31
624.07	198.95
624.23	117.03
624.38	250.44
624.53	187.24
624.68	236.39
624.83	301.93
624.98	175.54
625.13	138.09
625.29	203.63
625.44	262.14
625.59	194.26
625.74	63.19
625.89	271.50
626.04	140.43
626.19	110.01
626.34	135.75
626.49	138.09
626.65	77.24
626.80	194.26
626.95	201.29
627.10	88.94
627.25	84.26
627.40	93.62
627.55	236.39
627.70	208.31
627.85	241.08
628.00	177.88
628.15	194.26
628.30	189.58
628.45	159.16
628.60	217.67
628.76	138.09
628.91	142.77
629.06	224.69
629.21	173.20
629.36	215.33
629.51	145.11
629.66	252.78
629.81	196.60
629.96	145.11
630.11	222.35
630.26	191.92
630.41	138.09
630.56	159.16
630.71	32.77
630.86	205.97
631.01	189.58
631.16	133.41
631.31	189.58
631.46	182.56
631.61	79.58
631.76	177.88
631.91	102.98
632.06	241.08
632.21	163.84
632.36	159.16
632.51	147.45
632.66	189.58
632.81	187.24
632.96	140.43
633.10	259.80
633.25	245.76
633.40	201.29
633.55	149.79
633.70	154.48
633.85	220.01
634.00	124.05
634.15	100.64
634.30	177.88
634.45	107.66
634.60	278.52
634.75	177.88
634.90	175.54
635.05	217.67
635.19	121.71
635.34	168.52
635.49	173.20
635.64	161.50
635.79	175.54
635.94	107.66
636.09	182.56
636.24	161.50
636.39	152.13
636.53	173.20
636.68	133.41
636.83	142.77
636.98	126.39
637.13	133.41
637.28	149.79
637.43	191.92
637.57	194.26
637.72	285.55
637.87	227.03
638.02	119.37
638.17	133.41
638.32	133.41
638.46	184.90
638.61	194.26
638.76	152.13
638.91	72.56
639.06	79.58
639.20	119.37
639.35	191.92
639.50	124.05
639.65	250.44
639.80	156.82
639.94	175.54
640.09	264.48
640.24	180.22
640.39	259.80
640.54	222.35
640.68	105.32
640.83	175.54
640.98	140.43
641.13	147.45
641.27	65.54
641.42	145.11
641.57	124.05
641.72	126.39
641.86	114.69
642.01	236.39
642.16	252.78
642.31	124.05
642.45	198.95
642.60	168.52
642.75	154.48
642.90	238.73
643.04	149.79
643.19	175.54
643.34	163.84
643.48	156.82
643.63	166.18
643.78	205.97
643.93	201.29
644.07	187.24
644.22	180.22
644.37	124.05
644.51	189.58
644.66	217.67
644.81	147.45
644.95	168.52
645.10	159.16
645.25	117.03
645.39	159.16
645.54	145.11
645.69	203.63
645.83	114.69
645.98	147.45
646.13	163.84
646.27	154.48
646.42	102.98
646.57	84.26
646.71	93.62
646.86	133.41
647.00	147.45
647.15	142.77
647.30	42.13
647.44	74.90
647.59	93.62
647.74	74.90
647.88	117.03
648.03	77.24
648.17	173.20
648.32	98.30
648.47	175.54
648.61	86.60
648.76	65.54
648.90	98.30
649.05	191.92
649.20	126.39
649.34	112.35
649.49	63.19
649.63	84.26
649.78	58.51
649.92	100.64
650.07	149.79
650.21	126.39
650.36	191.92
650.51	159.16
650.65	210.65
650.80	128.73
650.94	126.39
651.09	98.30
651.23	18.72
651.38	88.94
651.52	44.47
651.67	166.18
651.81	159.16
651.96	128.73
652.10	107.66
652.25	70.22
652.39	156.82
652.54	154.48
652.68	124.05
652.83	74.90
652.97	145.11
653.12	133.41
653.26	121.71
653.41	173.20
653.55	86.60
653.70	95.96
653.84	102.98
653.99	156.82
654.13	119.37
654.27	112.35
654.42	67.88
654.56	135.75
654.71	95.96
654.85	0.00
655.00	35.11
655.14	11.70
655.29	156.82
655.43	18.72
655.57	119.37
655.72	0.00
655.86	81.92
656.01	65.54
656.15	88.94
656.30	44.47
656.44	67.88
656.58	149.79
656.73	0.00
656.87	9.36
657.01	32.77
657.16	117.03
657.30	168.52
657.45	4.68
657.59	107.66
657.73	63.19
657.88	74.90
658.02	234.05
658.16	154.48
658.31	65.54
658.45	67.88
658.60	128.73
658.74	37.45
658.88	98.30
659.03	46.81
659.17	37.45
659.31	67.88
659.46	88.94
659.60	79.58
659.74	67.88
659.89	121.71
660.03	65.54
660.17	182.56
660.32	112.35
660.46	152.13
660.60	98.30
660.74	25.75
660.89	86.60
661.03	98.30
661.17	58.51
661.32	112.35
661.46	102.98
661.60	46.81
661.74	98.30
661.89	119.37
662.03	203.63
662.17	147.45
662.31	98.30
662.46	77.24
662.60	133.41
662.74	88.94
662.88	79.58
663.03	9.36
663.17	58.51
663.31	37.45
663.45	28.09
663.60	93.62
663.74	81.92
663.88	35.11
664.02	91.28
664.17	25.75
664.31	56.17
664.45	77.24
664.59	56.17
664.73	58.51
664.88	124.05
665.02	60.85
665.16	67.88
665.30	133.41
665.44	35.11
665.59	100.64
665.73	18.72
665.87	67.88
666.01	65.54
666.15	4.68
666.29	107.66
666.44	18.72
666.58	138.09
666.72	44.47
666.86	70.22
667.00	88.94
667.14	37.45
667.28	201.29
667.43	63.19
667.57	18.72
667.71	100.64
667.85	60.85
667.99	0.00
668.13	72.56
668.27	110.01
668.41	112.35
668.56	77.24
668.70	42.13
668.84	131.07
668.98	77.24
669.12	98.30
669.26	79.58
669.40	140.43
669.54	65.54
669.68	56.17
669.82	77.24
669.96	7.02
670.10	51.49
670.25	88.94
670.39	91.28
670.53	88.94
670.67	149.79
670.81	35.11
670.95	74.90
671.09	23.41
671.23	126.39
671.37	163.84
671.51	77.24
671.65	93.62
671.79	0.00
671.93	65.54
672.07	98.30
672.21	53.83
672.35	93.62
672.49	72.56
672.63	133.41
672.77	65.54
672.91	0.00
673.05	16.38
673.19	39.79
673.33	93.62
673.47	105.32
673.61	0.00
673.75	0.00
673.89	28.09
674.03	51.49
674.17	9.36
674.31	0.00
674.45	70.22
674.59	65.54
674.73	14.04
674.87	51.49
675.01	0.00
675.15	49.15
675.29	110.01
675.43	81.92
675.56	112.35
675.70	0.00
675.84	39.79
675.98	0.00
676.12	0.00
676.26	72.56
676.40	0.00
676.54	51.49
676.68	32.77
676.82	60.85
676.96	46.81
677.10	72.56
677.23	42.13
677.37	0.00
677.51	9.36
677.65	84.26
677.79	70.22
677.93	0.00
678.07	0.00
678.21	0.00
678.34	2.34
678.48	9.36
678.62	0.00
678.76	4.68
678.90	56.17
679.04	9.36
679.18	0.00
679.31	39.79
679.45	9.36
679.59	0.00
679.73	98.30
679.87	0.00
680.00	42.13
680.14	0.00
680.28	0.00
680.42	0.00
680.56	46.81
680.70	0.00
680.83	35.11
680.97	14.04
681.11	0.00
681.25	70.22
681.39	14.04
681.52	0.00
681.66	44.47
681.80	0.00
681.94	0.00
682.07	0.00
682.21	14.04
682.35	0.00
682.49	18.72
682.62	56.17
682.76	21.06
682.90	0.00
683.04	28.09
683.17	0.00
683.31	0.00
683.45	21.06
683.59	35.11
683.72	0.00
683.86	0.00
684.00	0.00
684.13	0.00
684.27	0.00
684.41	7.02
684.55	4.68
684.68	0.00
684.82	0.00
684.96	0.00
685.09	42.13
685.23	7.02
685.37	0.00
685.50	0.00
685.64	77.24
685.78	21.06
685.91	0.00
686.05	0.00
686.19	0.00
686.32	0.00
686.46	0.00
686.60	0.00
686.73	0.00
686.87	0.00
687.01	0.00
687.14	0.00
687.28	0.00
687.42	0.00
687.55	0.00
687.69	0.00
687.82	0.00
687.96	0.00
688.10	0.00
688.23	0.00
688.37	0.00
688.50	11.70
688.64	0.00
688.78	0.00
688.91	0.00
689.05	0.00
689.18	0.00
689.32	0.00
689.46	0.00
689.59	0.00
689.73	0.00
689.86	0.00
690.00	0.00
690.13	0.00
690.27	0.00
690.41	0.00
690.54	0.00
690.68	0.00
690.81	0.00
690.95	0.00
691.08	0.00
691.22	0.00
691.35	0.00
691.49	0.00
691.62	0.00
691.76	0.00
691.89	0.00
692.03	0.00
692.16	0.00
692.30	32.77
692.43	0.00
692.57	0.00
692.70	0.00
692.84	7.02
692.97	0.00
693.11	0.00
693.24	0.00
693.38	0.00
693.51	0.00
693.65	0.00
693.78	0.00
693.92	0.00
694.05	0.00
694.19	0.00
694.32	0.00
694.45	0.00
694.59	0.00
694.72	0.00
694.86	0.00
694.99	0.00
695.13	0.00
695.26	0.00
695.39	0.00
695.53	0.00
695.66	0.00
695.80	11.70
695.93	0.00
696.07	0.00
696.20	0.00
696.33	0.00
696.47	0.00
696.60	0.00
696.73	0.00
696.87	0.00
697.00	16.38
697.14	0.00
697.27	0.00
697.40	0.00
697.54	0.00
697.67	0.00
697.80	0.00
697.94	0.00
698.07	0.00
698.21	0.00
698.34	0.00
698.47	0.00
698.61	0.00
698.74	0.00
698.87	0.00
699.01	0.00
699.14	0.00
699.27	0.00
699.40	0.00
699.54	0.00
699.67	0.00
699.80	0.00
699.94	0.00
700.07	0.00
700.20	0.00
700.34	0.00
700.47	0.00
700.60	0.00
700.73	0.00
700.87	0.00
701.00	0.00
701.13	0.00
701.26	0.00
701.40	0.00
701.53	0.00
701.66	0.00
701.79	0.00
701.93	0.00
702.06	0.00
702.19	0.00
702.32	0.00
702.46	0.00
702.59	0.00
702.72	0.00
702.85	0.00
702.99	0.00
703.12	0.00
703.25	0.00
703.38	0.00
703.51	0.00
703.65	0.00
703.78	0.00
703.91	0.00
704.04	0.00
704.17	0.00
704.31	0.00
704.44	0.00
704.57	0.00
704.70	0.00
704.83	0.00
704.96	0.00
705.10	0.00
705.23	0.00
>>>>>End Processed Spectral Data<<<<<
