SpectraSuite Data File
++++++++++++++++++++++++++++++++++++
Date: Mon Oct 07 14:59:58 GMT-05:00 2013
User: price-jones
Dark Spectrum Present: No
Reference Spectrum Present: No
Number of Sampled Component Spectra: 1
Spectrometers: USB2+H05261
Integration Time (usec): 100000 (USB2+H05261)
Spectra Averaged: 1 (USB2+H05261)
Boxcar Smoothing: 0 (USB2+H05261)
Correct for Electrical Dark: No (USB2+H05261)
Strobe/Lamp Enabled: No (USB2+H05261)
Correct for Detector Non-linearity: No (USB2+H05261)
Correct for Stray Light: No (USB2+H05261)
Number of Pixels in Processed Spectrum: 2048
>>>>>Begin Processed Spectral Data<<<<<
365.73	0.00
365.92	0.00
366.12	0.00
366.32	0.00
366.52	0.00
366.72	0.00
366.91	0.00
367.11	0.00
367.31	0.00
367.51	0.00
367.70	0.00
367.90	0.00
368.10	0.00
368.30	0.00
368.49	0.00
368.69	0.00
368.89	0.00
369.09	0.00
369.28	0.00
369.48	0.00
369.68	0.00
369.87	0.00
370.07	0.00
370.27	0.00
370.47	0.00
370.66	0.00
370.86	0.00
371.06	0.00
371.25	0.00
371.45	0.00
371.65	0.00
371.84	0.00
372.04	0.00
372.24	0.00
372.44	0.00
372.63	0.00
372.83	0.00
373.03	0.00
373.22	0.00
373.42	0.00
373.62	0.00
373.81	0.00
374.01	0.00
374.21	0.00
374.40	0.00
374.60	0.00
374.79	0.00
374.99	0.00
375.19	0.00
375.38	0.00
375.58	0.00
375.78	0.00
375.97	0.00
376.17	0.00
376.37	0.00
376.56	0.00
376.76	0.00
376.95	0.00
377.15	0.00
377.35	0.00
377.54	0.00
377.74	0.00
377.93	0.00
378.13	0.00
378.33	0.00
378.52	0.00
378.72	0.00
378.91	0.00
379.11	0.00
379.31	0.00
379.50	0.00
379.70	0.00
379.89	0.00
380.09	0.00
380.28	0.00
380.48	0.00
380.68	0.00
380.87	0.00
381.07	0.00
381.26	0.00
381.46	0.00
381.65	0.00
381.85	0.00
382.04	0.00
382.24	0.00
382.43	0.00
382.63	0.00
382.83	0.00
383.02	0.00
383.22	0.00
383.41	0.00
383.61	0.00
383.80	0.00
384.00	0.00
384.19	0.00
384.39	0.00
384.58	0.00
384.78	0.00
384.97	0.00
385.17	0.00
385.36	0.00
385.56	0.00
385.75	0.00
385.95	0.00
386.14	0.00
386.34	0.00
386.53	0.00
386.72	0.00
386.92	0.00
387.11	0.00
387.31	0.00
387.50	0.00
387.70	0.00
387.89	0.00
388.09	0.00
388.28	0.00
388.48	0.00
388.67	0.00
388.86	0.00
389.06	0.00
389.25	0.00
389.45	0.00
389.64	0.00
389.84	0.00
390.03	0.00
390.22	0.00
390.42	0.00
390.61	0.00
390.81	0.00
391.00	0.00
391.19	0.00
391.39	0.00
391.58	0.00
391.78	0.00
391.97	0.00
392.16	0.00
392.36	0.00
392.55	0.00
392.75	0.00
392.94	0.00
393.13	0.00
393.33	0.00
393.52	0.00
393.71	0.00
393.91	0.00
394.10	0.00
394.29	0.00
394.49	0.00
394.68	0.00
394.88	0.00
395.07	0.00
395.26	0.00
395.46	0.00
395.65	0.00
395.84	0.00
396.04	0.00
396.23	0.00
396.42	0.00
396.62	0.00
396.81	0.00
397.00	0.00
397.19	0.00
397.39	0.00
397.58	0.00
397.77	0.00
397.97	0.00
398.16	0.00
398.35	0.00
398.55	0.00
398.74	0.00
398.93	0.00
399.12	0.00
399.32	0.00
399.51	0.00
399.70	0.00
399.90	0.00
400.09	0.00
400.28	0.00
400.47	0.00
400.67	0.00
400.86	0.00
401.05	0.00
401.24	0.00
401.44	0.00
401.63	0.00
401.82	0.00
402.01	0.00
402.21	0.00
402.40	0.00
402.59	0.00
402.78	0.00
402.97	0.00
403.17	0.00
403.36	0.00
403.55	0.00
403.74	0.00
403.93	0.00
404.13	0.00
404.32	0.00
404.51	0.00
404.70	0.00
404.89	0.00
405.09	0.00
405.28	0.00
405.47	0.00
405.66	0.00
405.85	0.00
406.05	0.00
406.24	0.00
406.43	0.00
406.62	0.00
406.81	0.00
407.00	0.00
407.20	0.00
407.39	0.00
407.58	0.00
407.77	0.00
407.96	0.00
408.15	0.00
408.34	0.00
408.54	0.00
408.73	0.00
408.92	0.00
409.11	0.00
409.30	0.00
409.49	0.00
409.68	0.00
409.87	0.00
410.07	0.00
410.26	0.00
410.45	0.00
410.64	0.00
410.83	0.00
411.02	0.00
411.21	0.00
411.40	0.00
411.59	0.00
411.78	0.00
411.98	0.00
412.17	0.00
412.36	0.00
412.55	0.00
412.74	0.00
412.93	0.00
413.12	0.00
413.31	0.00
413.50	0.00
413.69	0.00
413.88	0.00
414.07	0.00
414.26	0.00
414.45	0.00
414.64	0.00
414.83	0.00
415.02	0.00
415.22	0.00
415.41	0.00
415.60	0.00
415.79	0.00
415.98	0.00
416.17	0.00
416.36	0.00
416.55	0.00
416.74	0.00
416.93	0.00
417.12	0.00
417.31	0.00
417.50	0.00
417.69	0.00
417.88	0.00
418.07	0.00
418.26	0.00
418.45	0.00
418.64	0.00
418.83	0.00
419.02	0.00
419.21	0.00
419.39	0.00
419.58	0.00
419.77	0.00
419.96	0.00
420.15	0.00
420.34	0.00
420.53	0.00
420.72	0.00
420.91	0.00
421.10	0.00
421.29	0.00
421.48	0.00
421.67	0.00
421.86	0.00
422.05	0.00
422.24	0.00
422.43	0.00
422.61	0.00
422.80	0.00
422.99	0.00
423.18	0.00
423.37	0.00
423.56	0.00
423.75	0.00
423.94	0.00
424.13	0.00
424.32	0.00
424.50	0.00
424.69	0.00
424.88	0.00
425.07	0.00
425.26	0.00
425.45	0.00
425.64	0.00
425.83	0.00
426.01	0.00
426.20	0.00
426.39	0.00
426.58	0.00
426.77	0.00
426.96	0.00
427.15	0.00
427.33	0.00
427.52	0.00
427.71	0.00
427.90	0.00
428.09	0.00
428.28	0.00
428.46	0.00
428.65	0.00
428.84	0.00
429.03	0.00
429.22	0.00
429.40	0.00
429.59	0.00
429.78	0.00
429.97	0.00
430.16	0.00
430.34	0.00
430.53	0.00
430.72	0.00
430.91	0.00
431.10	0.00
431.28	0.00
431.47	0.00
431.66	0.00
431.85	0.00
432.03	0.00
432.22	0.00
432.41	0.00
432.60	0.00
432.79	0.00
432.97	0.00
433.16	0.00
433.35	0.00
433.54	0.00
433.72	0.00
433.91	0.00
434.10	0.00
434.28	0.00
434.47	0.00
434.66	0.00
434.85	0.00
435.03	0.00
435.22	0.00
435.41	0.00
435.59	0.00
435.78	0.00
435.97	0.00
436.16	18.72
436.34	0.00
436.53	0.00
436.72	0.00
436.90	0.00
437.09	0.00
437.28	0.00
437.46	0.00
437.65	0.00
437.84	0.00
438.02	0.00
438.21	0.00
438.40	0.00
438.58	0.00
438.77	0.00
438.96	0.00
439.14	0.00
439.33	0.00
439.52	0.00
439.70	0.00
439.89	0.00
440.08	0.00
440.26	0.00
440.45	0.00
440.63	0.00
440.82	0.00
441.01	0.00
441.19	0.00
441.38	0.00
441.57	0.00
441.75	0.00
441.94	0.00
442.12	0.00
442.31	0.00
442.50	0.00
442.68	0.00
442.87	0.00
443.05	0.00
443.24	0.00
443.43	0.00
443.61	4.68
443.80	0.00
443.98	0.00
444.17	0.00
444.35	0.00
444.54	0.00
444.73	0.00
444.91	0.00
445.10	0.00
445.28	0.00
445.47	0.00
445.65	0.00
445.84	0.00
446.02	0.00
446.21	0.00
446.39	0.00
446.58	0.00
446.77	0.00
446.95	18.72
447.14	25.75
447.32	0.00
447.51	0.00
447.69	0.00
447.88	0.00
448.06	0.00
448.25	0.00
448.43	0.00
448.62	0.00
448.80	0.00
448.99	0.00
449.17	0.00
449.36	0.00
449.54	11.70
449.73	0.00
449.91	0.00
450.10	0.00
450.28	56.17
450.46	0.00
450.65	9.36
450.83	0.00
451.02	0.00
451.20	0.00
451.39	0.00
451.57	0.00
451.76	0.00
451.94	0.00
452.13	14.04
452.31	0.00
452.49	0.00
452.68	0.00
452.86	0.00
453.05	0.00
453.23	0.00
453.42	0.00
453.60	0.00
453.78	0.00
453.97	0.00
454.15	0.00
454.34	0.00
454.52	0.00
454.70	30.43
454.89	0.00
455.07	0.00
455.26	0.00
455.44	0.00
455.62	0.00
455.81	42.13
455.99	42.13
456.17	0.00
456.36	0.00
456.54	0.00
456.73	0.00
456.91	0.00
457.09	0.00
457.28	0.00
457.46	0.00
457.64	9.36
457.83	0.00
458.01	0.00
458.19	37.45
458.38	0.00
458.56	0.00
458.74	0.00
458.93	0.00
459.11	0.00
459.29	35.11
459.48	0.00
459.66	58.51
459.84	0.00
460.03	79.58
460.21	0.00
460.39	0.00
460.57	0.00
460.76	37.45
460.94	0.00
461.12	0.00
461.31	0.00
461.49	0.00
461.67	0.00
461.85	0.00
462.04	0.00
462.22	559.39
462.40	39.79
462.59	56.17
462.77	7.02
462.95	0.00
463.13	0.00
463.32	0.00
463.50	0.00
463.68	0.00
463.86	0.00
464.05	0.00
464.23	16.38
464.41	0.00
464.59	0.00
464.78	0.00
464.96	0.00
465.14	0.00
465.32	23.41
465.50	0.00
465.69	0.00
465.87	0.00
466.05	4.68
466.23	0.00
466.41	0.00
466.60	0.00
466.78	0.00
466.96	0.00
467.14	0.00
467.32	0.00
467.51	0.00
467.69	0.00
467.87	79.58
468.05	0.00
468.23	23.41
468.41	35.11
468.60	32.77
468.78	0.00
468.96	0.00
469.14	0.00
469.32	18.72
469.50	23.41
469.69	0.00
469.87	0.00
470.05	0.00
470.23	0.00
470.41	0.00
470.59	0.00
470.77	14.04
470.95	37.45
471.14	56.17
471.32	7.02
471.50	65.54
471.68	14.04
471.86	28.09
472.04	0.00
472.22	2.34
472.40	39.79
472.58	18.72
472.77	0.00
472.95	0.00
473.13	0.00
473.31	0.00
473.49	4.68
473.67	0.00
473.85	0.00
474.03	25.75
474.21	0.00
474.39	2.34
474.57	0.00
474.75	9.36
474.93	11.70
475.12	0.00
475.30	0.00
475.48	0.00
475.66	46.81
475.84	0.00
476.02	0.00
476.20	110.01
476.38	9.36
476.56	60.85
476.74	14.04
476.92	0.00
477.10	4.68
477.28	44.47
477.46	32.77
477.64	63.19
477.82	30.43
478.00	23.41
478.18	9.36
478.36	32.77
478.54	70.22
478.72	60.85
478.90	35.11
479.08	0.00
479.26	70.22
479.44	63.19
479.62	11.70
479.80	4.68
479.98	0.00
480.16	0.00
480.34	46.81
480.52	2.34
480.70	51.49
480.88	51.49
481.06	0.00
481.24	32.77
481.41	46.81
481.59	23.41
481.77	14.04
481.95	51.49
482.13	79.58
482.31	39.79
482.49	30.43
482.67	128.73
482.85	60.85
483.03	131.07
483.21	128.73
483.39	79.58
483.57	51.49
483.74	131.07
483.92	21.06
484.10	46.81
484.28	67.88
484.46	114.69
484.64	16.38
484.82	163.84
485.00	65.54
485.18	7.02
485.35	88.94
485.53	25.75
485.71	65.54
485.89	0.00
486.07	11.70
486.25	67.88
486.43	65.54
486.61	81.92
486.78	60.85
486.96	100.64
487.14	39.79
487.32	77.24
487.50	147.45
487.68	112.35
487.85	107.66
488.03	79.58
488.21	236.39
488.39	91.28
488.57	49.15
488.75	39.79
488.92	493.85
489.10	184.90
489.28	191.92
489.46	159.16
489.64	156.82
489.81	110.01
489.99	182.56
490.17	117.03
490.35	166.18
490.53	112.35
490.70	156.82
490.88	156.82
491.06	126.39
491.24	161.50
491.41	168.52
491.59	100.64
491.77	93.62
491.95	79.58
492.13	51.49
492.30	112.35
492.48	163.84
492.66	131.07
492.84	180.22
493.01	154.48
493.19	77.24
493.37	201.29
493.54	128.73
493.72	98.30
493.90	149.79
494.08	168.52
494.25	243.42
494.43	138.09
494.61	128.73
494.79	252.78
494.96	220.01
495.14	177.88
495.32	145.11
495.49	182.56
495.67	180.22
495.85	208.31
496.02	187.24
496.20	175.54
496.38	229.37
496.55	147.45
496.73	208.31
496.91	215.33
497.09	217.67
497.26	189.58
497.44	238.73
497.62	147.45
497.79	187.24
497.97	170.86
498.14	215.33
498.32	285.55
498.50	168.52
498.67	156.82
498.85	252.78
499.03	128.73
499.20	252.78
499.38	175.54
499.56	271.50
499.73	187.24
499.91	128.73
500.08	212.99
500.26	170.86
500.44	147.45
500.61	236.39
500.79	184.90
500.97	184.90
501.14	273.84
501.32	198.95
501.49	250.44
501.67	142.77
501.84	208.31
502.02	170.86
502.20	212.99
502.37	180.22
502.55	159.16
502.72	255.12
502.90	198.95
503.07	238.73
503.25	259.80
503.43	175.54
503.60	205.97
503.78	175.54
503.95	222.35
504.13	217.67
504.30	231.71
504.48	259.80
504.65	229.37
504.83	229.37
505.01	250.44
505.18	278.52
505.36	227.03
505.53	301.93
505.71	184.90
505.88	196.60
506.06	231.71
506.23	208.31
506.41	173.20
506.58	220.01
506.76	236.39
506.93	210.65
507.11	220.01
507.28	262.14
507.46	210.65
507.63	231.71
507.81	105.32
507.98	215.33
508.16	222.35
508.33	189.58
508.50	255.12
508.68	215.33
508.85	241.08
509.03	187.24
509.20	238.73
509.38	257.46
509.55	245.76
509.73	269.16
509.90	292.57
510.08	252.78
510.25	229.37
510.42	231.71
510.60	212.99
510.77	280.86
510.95	292.57
511.12	264.48
511.30	222.35
511.47	196.60
511.64	313.63
511.82	290.23
511.99	259.80
512.17	241.08
512.34	205.97
512.51	287.89
512.69	285.55
512.86	273.84
513.04	180.22
513.21	231.71
513.38	194.26
513.56	229.37
513.73	191.92
513.90	273.84
514.08	341.72
514.25	313.63
514.43	224.69
514.60	236.39
514.77	273.84
514.95	301.93
515.12	255.12
515.29	236.39
515.47	262.14
515.64	341.72
515.81	287.89
515.99	304.27
516.16	311.29
516.33	259.80
516.51	145.11
516.68	222.35
516.85	168.52
517.03	234.05
517.20	234.05
517.37	337.04
517.54	348.74
517.72	231.71
517.89	205.97
518.06	250.44
518.24	271.50
518.41	276.18
518.58	337.04
518.75	290.23
518.93	241.08
519.10	241.08
519.27	259.80
519.45	231.71
519.62	285.55
519.79	264.48
519.96	224.69
520.14	318.31
520.31	273.84
520.48	205.97
520.65	383.85
520.83	348.74
521.00	313.63
521.17	395.55
521.34	252.78
521.52	290.23
521.69	297.25
521.86	273.84
522.03	325.33
522.20	259.80
522.38	245.76
522.55	217.67
522.72	210.65
522.89	315.97
523.07	362.78
523.24	255.12
523.41	339.38
523.58	322.99
523.75	276.18
523.92	311.29
524.10	311.29
524.27	360.44
524.44	297.25
524.61	393.21
524.78	133.41
524.96	278.52
525.13	292.57
525.30	346.40
525.47	348.74
525.64	269.16
525.81	294.91
525.98	236.39
526.16	245.76
526.33	227.03
526.50	217.67
526.67	248.10
526.84	255.12
527.01	280.86
527.18	250.44
527.36	283.20
527.53	308.95
527.70	337.04
527.87	334.70
528.04	465.77
528.21	330.02
528.38	294.91
528.55	301.93
528.72	360.44
528.89	376.83
529.07	325.33
529.24	285.55
529.41	360.44
529.58	266.82
529.75	290.23
529.92	390.87
530.09	250.44
530.26	386.19
530.43	454.06
530.60	351.08
530.77	372.15
530.94	379.17
531.11	348.74
531.28	301.93
531.46	339.38
531.63	386.19
531.80	311.29
531.97	341.72
532.14	252.78
532.31	234.05
532.48	273.84
532.65	341.72
532.82	325.33
532.99	255.12
533.16	337.04
533.33	327.68
533.50	283.20
533.67	287.89
533.84	245.76
534.01	212.99
534.18	306.61
534.35	269.16
534.52	407.25
534.69	372.15
534.86	222.35
535.03	280.86
535.20	306.61
535.37	365.12
535.54	374.49
535.71	287.89
535.88	348.74
536.05	390.87
536.22	369.80
536.38	322.99
536.55	311.29
536.72	327.68
536.89	215.33
537.06	383.85
537.23	362.78
537.40	383.85
537.57	367.46
537.74	320.65
537.91	402.57
538.08	379.17
538.25	386.19
538.42	308.95
538.59	358.10
538.75	337.04
538.92	278.52
539.09	425.98
539.26	341.72
539.43	362.78
539.60	421.30
539.77	320.65
539.94	276.18
540.11	304.27
540.28	372.15
540.44	313.63
540.61	297.25
540.78	334.70
540.95	294.91
541.12	362.78
541.29	320.65
541.46	358.10
541.62	269.16
541.79	234.05
541.96	271.50
542.13	306.61
542.30	304.27
542.47	388.53
542.63	351.08
542.80	365.12
542.97	416.62
543.14	386.19
543.31	341.72
543.48	383.85
543.64	400.23
543.81	388.53
543.98	311.29
544.15	306.61
544.32	315.97
544.48	325.33
544.65	297.25
544.82	397.89
544.99	402.57
545.16	346.40
545.32	259.80
545.49	381.51
545.66	351.08
545.83	369.80
546.00	283.20
546.16	346.40
546.33	381.51
546.50	393.21
546.67	470.45
546.83	351.08
547.00	339.38
547.17	276.18
547.34	259.80
547.50	318.31
547.67	313.63
547.84	280.86
548.00	330.02
548.17	318.31
548.34	337.04
548.51	353.42
548.67	397.89
548.84	327.68
549.01	381.51
549.18	395.55
549.34	351.08
549.51	358.10
549.68	346.40
549.84	393.21
550.01	313.63
550.18	482.15
550.34	374.49
550.51	334.70
550.68	416.62
550.84	367.46
551.01	304.27
551.18	428.32
551.34	339.38
551.51	341.72
551.68	269.16
551.84	269.16
552.01	229.37
552.18	344.06
552.34	308.95
552.51	360.44
552.68	341.72
552.84	334.70
553.01	397.89
553.18	376.83
553.34	257.46
553.51	215.33
553.67	381.51
553.84	360.44
554.01	351.08
554.17	372.15
554.34	344.06
554.51	421.30
554.67	440.02
554.84	351.08
555.00	397.89
555.17	311.29
555.33	355.76
555.50	308.95
555.67	355.76
555.83	245.76
556.00	341.72
556.16	564.07
556.33	322.99
556.50	339.38
556.66	325.33
556.83	372.15
556.99	257.46
557.16	400.23
557.32	248.10
557.49	369.80
557.65	311.29
557.82	306.61
557.98	365.12
558.15	332.36
558.32	318.31
558.48	191.92
558.65	299.59
558.81	229.37
558.98	346.40
559.14	365.12
559.31	304.27
559.47	386.19
559.64	297.25
559.80	308.95
559.97	311.29
560.13	280.86
560.30	208.31
560.46	259.80
560.63	327.68
560.79	325.33
560.96	278.52
561.12	287.89
561.29	217.67
561.45	414.27
561.61	341.72
561.78	395.55
561.94	294.91
562.11	353.42
562.27	447.04
562.44	367.46
562.60	262.14
562.77	280.86
562.93	395.55
563.10	365.12
563.26	334.70
563.42	332.36
563.59	381.51
563.75	313.63
563.92	355.76
564.08	266.82
564.24	327.68
564.41	416.62
564.57	311.29
564.74	360.44
564.90	346.40
565.07	376.83
565.23	365.12
565.39	238.73
565.56	306.61
565.72	266.82
565.88	315.97
566.05	318.31
566.21	365.12
566.38	259.80
566.54	367.46
566.70	294.91
566.87	421.30
567.03	313.63
567.19	297.25
567.36	339.38
567.52	341.72
567.68	341.72
567.85	273.84
568.01	308.95
568.17	290.23
568.34	344.06
568.50	433.00
568.66	339.38
568.83	409.59
568.99	276.18
569.15	308.95
569.32	306.61
569.48	271.50
569.64	234.05
569.81	304.27
569.97	318.31
570.13	311.29
570.30	229.37
570.46	287.89
570.62	393.21
570.78	337.04
570.95	292.57
571.11	322.99
571.27	355.76
571.43	325.33
571.60	334.70
571.76	266.82
571.92	339.38
572.09	259.80
572.25	325.33
572.41	341.72
572.57	355.76
572.74	454.06
572.90	409.59
573.06	367.46
573.22	381.51
573.38	407.25
573.55	358.10
573.71	376.83
573.87	402.57
574.03	344.06
574.20	360.44
574.36	322.99
574.52	334.70
574.68	367.46
574.84	306.61
575.01	283.20
575.17	257.46
575.33	262.14
575.49	308.95
575.65	372.15
575.82	339.38
575.98	367.46
576.14	304.27
576.30	297.25
576.46	337.04
576.62	351.08
576.79	365.12
576.95	297.25
577.11	292.57
577.27	292.57
577.43	330.02
577.59	360.44
577.75	360.44
577.92	332.36
578.08	290.23
578.24	257.46
578.40	311.29
578.56	318.31
578.72	292.57
578.88	344.06
579.04	388.53
579.21	311.29
579.37	264.48
579.53	337.04
579.69	330.02
579.85	337.04
580.01	264.48
580.17	292.57
580.33	278.52
580.49	287.89
580.65	358.10
580.82	393.21
580.98	241.08
581.14	252.78
581.30	327.68
581.46	362.78
581.62	325.33
581.78	308.95
581.94	339.38
582.10	278.52
582.26	411.93
582.42	299.59
582.58	278.52
582.74	318.31
582.90	386.19
583.06	372.15
583.22	348.74
583.38	351.08
583.54	222.35
583.70	337.04
583.86	447.04
584.02	278.52
584.18	358.10
584.34	339.38
584.50	358.10
584.66	348.74
584.82	301.93
584.98	325.33
585.14	322.99
585.30	297.25
585.46	334.70
585.62	271.50
585.78	280.86
585.94	245.76
586.10	358.10
586.26	449.38
586.42	365.12
586.58	266.82
586.74	227.03
586.90	311.29
587.06	306.61
587.22	280.86
587.38	339.38
587.54	344.06
587.70	320.65
587.86	330.02
588.02	262.14
588.18	311.29
588.34	297.25
588.49	304.27
588.65	259.80
588.81	285.55
588.97	231.71
589.13	299.59
589.29	210.65
589.45	255.12
589.61	259.80
589.77	360.44
589.93	224.69
590.08	229.37
590.24	297.25
590.40	297.25
590.56	311.29
590.72	227.03
590.88	255.12
591.04	322.99
591.20	276.18
591.35	311.29
591.51	248.10
591.67	306.61
591.83	205.97
591.99	252.78
592.15	315.97
592.31	304.27
592.46	217.67
592.62	297.25
592.78	299.59
592.94	215.33
593.10	264.48
593.26	259.80
593.41	306.61
593.57	229.37
593.73	269.16
593.89	313.63
594.05	344.06
594.20	292.57
594.36	341.72
594.52	299.59
594.68	301.93
594.84	297.25
594.99	306.61
595.15	241.08
595.31	311.29
595.47	435.34
595.62	304.27
595.78	217.67
595.94	287.89
596.10	299.59
596.25	285.55
596.41	287.89
596.57	301.93
596.73	311.29
596.88	264.48
597.04	276.18
597.20	278.52
597.36	294.91
597.51	198.95
597.67	299.59
597.83	332.36
597.99	325.33
598.14	243.42
598.30	325.33
598.46	259.80
598.61	339.38
598.77	381.51
598.93	227.03
599.09	259.80
599.24	294.91
599.40	360.44
599.56	250.44
599.71	234.05
599.87	257.46
600.03	259.80
600.18	259.80
600.34	276.18
600.50	290.23
600.65	330.02
600.81	318.31
600.97	231.71
601.12	308.95
601.28	318.31
601.44	264.48
601.59	245.76
601.75	252.78
601.91	245.76
602.06	227.03
602.22	257.46
602.37	308.95
602.53	266.82
602.69	306.61
602.84	308.95
603.00	245.76
603.16	306.61
603.31	339.38
603.47	262.14
603.62	294.91
603.78	266.82
603.94	234.05
604.09	315.97
604.25	348.74
604.40	360.44
604.56	262.14
604.71	269.16
604.87	201.29
605.03	304.27
605.18	280.86
605.34	273.84
605.49	362.78
605.65	248.10
605.80	318.31
605.96	250.44
606.12	248.10
606.27	308.95
606.43	163.84
606.58	330.02
606.74	269.16
606.89	259.80
607.05	231.71
607.20	283.20
607.36	273.84
607.51	177.88
607.67	222.35
607.82	187.24
607.98	311.29
608.13	287.89
608.29	273.84
608.44	271.50
608.60	297.25
608.75	234.05
608.91	180.22
609.06	243.42
609.22	215.33
609.37	210.65
609.53	102.98
609.68	250.44
609.84	194.26
609.99	271.50
610.15	212.99
610.30	269.16
610.46	285.55
610.61	304.27
610.76	205.97
610.92	327.68
611.07	236.39
611.23	299.59
611.38	276.18
611.54	147.45
611.69	161.50
611.84	250.44
612.00	231.71
612.15	243.42
612.31	224.69
612.46	212.99
612.62	217.67
612.77	304.27
612.92	280.86
613.08	273.84
613.23	266.82
613.39	212.99
613.54	271.50
613.69	205.97
613.85	119.37
614.00	203.63
614.15	212.99
614.31	161.50
614.46	264.48
614.62	187.24
614.77	276.18
614.92	191.92
615.08	231.71
615.23	273.84
615.38	383.85
615.54	201.29
615.69	198.95
615.84	173.20
616.00	173.20
616.15	147.45
616.30	262.14
616.46	248.10
616.61	269.16
616.76	243.42
616.92	187.24
617.07	229.37
617.22	212.99
617.37	238.73
617.53	271.50
617.68	248.10
617.83	234.05
617.99	264.48
618.14	262.14
618.29	245.76
618.45	238.73
618.60	201.29
618.75	227.03
618.90	241.08
619.06	177.88
619.21	191.92
619.36	208.31
619.51	187.24
619.67	147.45
619.82	212.99
619.97	250.44
620.12	159.16
620.28	264.48
620.43	175.54
620.58	224.69
620.73	287.89
620.89	173.20
621.04	264.48
621.19	308.95
621.34	203.63
621.49	91.28
621.65	163.84
621.80	128.73
621.95	224.69
622.10	203.63
622.25	135.75
622.41	191.92
622.56	220.01
622.71	276.18
622.86	201.29
623.01	168.52
623.16	292.57
623.32	105.32
623.47	236.39
623.62	191.92
623.77	187.24
623.92	205.97
624.07	147.45
624.23	170.86
624.38	236.39
624.53	217.67
624.68	201.29
624.83	245.76
624.98	205.97
625.13	241.08
625.29	215.33
625.44	135.75
625.59	189.58
625.74	215.33
625.89	271.50
626.04	222.35
626.19	234.05
626.34	236.39
626.49	229.37
626.65	131.07
626.80	194.26
626.95	201.29
627.10	168.52
627.25	177.88
627.40	198.95
627.55	198.95
627.70	95.96
627.85	180.22
628.00	187.24
628.15	163.84
628.30	170.86
628.45	135.75
628.60	138.09
628.76	189.58
628.91	138.09
629.06	110.01
629.21	131.07
629.36	166.18
629.51	168.52
629.66	250.44
629.81	138.09
629.96	175.54
630.11	245.76
630.26	98.30
630.41	212.99
630.56	166.18
630.71	140.43
630.86	191.92
631.01	156.82
631.16	234.05
631.31	205.97
631.46	191.92
631.61	74.90
631.76	124.05
631.91	166.18
632.06	126.39
632.21	175.54
632.36	138.09
632.51	173.20
632.66	175.54
632.81	133.41
632.96	156.82
633.10	142.77
633.25	255.12
633.40	198.95
633.55	177.88
633.70	166.18
633.85	259.80
634.00	234.05
634.15	149.79
634.30	234.05
634.45	203.63
634.60	196.60
634.75	145.11
634.90	133.41
635.05	133.41
635.19	189.58
635.34	140.43
635.49	149.79
635.64	177.88
635.79	95.96
635.94	205.97
636.09	161.50
636.24	222.35
636.39	168.52
636.53	133.41
636.68	203.63
636.83	191.92
636.98	290.23
637.13	161.50
637.28	196.60
637.43	236.39
637.57	217.67
637.72	234.05
637.87	105.32
638.02	121.71
638.17	163.84
638.32	264.48
638.46	212.99
638.61	341.72
638.76	180.22
638.91	149.79
639.06	163.84
639.20	205.97
639.35	173.20
639.50	180.22
639.65	201.29
639.80	161.50
639.94	212.99
640.09	248.10
640.24	252.78
640.39	201.29
640.54	159.16
640.68	184.90
640.83	74.90
640.98	241.08
641.13	145.11
641.27	194.26
641.42	168.52
641.57	220.01
641.72	145.11
641.86	152.13
642.01	173.20
642.16	124.05
642.31	112.35
642.45	264.48
642.60	231.71
642.75	166.18
642.90	182.56
643.04	138.09
643.19	152.13
643.34	110.01
643.48	173.20
643.63	147.45
643.78	215.33
643.93	299.59
644.07	196.60
644.22	86.60
644.37	110.01
644.51	49.15
644.66	142.77
644.81	149.79
644.95	135.75
645.10	65.54
645.25	42.13
645.39	222.35
645.54	205.97
645.69	217.67
645.83	170.86
645.98	194.26
646.13	126.39
646.27	161.50
646.42	86.60
646.57	112.35
646.71	91.28
646.86	147.45
647.00	187.24
647.15	180.22
647.30	70.22
647.44	161.50
647.59	56.17
647.74	63.19
647.88	124.05
648.03	112.35
648.17	154.48
648.32	56.17
648.47	112.35
648.61	84.26
648.76	37.45
648.90	46.81
649.05	46.81
649.20	79.58
649.34	77.24
649.49	81.92
649.63	168.52
649.78	88.94
649.92	159.16
650.07	91.28
650.21	56.17
650.36	201.29
650.51	37.45
650.65	135.75
650.80	126.39
650.94	138.09
651.09	119.37
651.23	138.09
651.38	84.26
651.52	23.41
651.67	142.77
651.81	81.92
651.96	163.84
652.10	175.54
652.25	30.43
652.39	79.58
652.54	70.22
652.68	60.85
652.83	163.84
652.97	135.75
653.12	163.84
653.26	163.84
653.41	147.45
653.55	81.92
653.70	91.28
653.84	65.54
653.99	161.50
654.13	39.79
654.27	163.84
654.42	182.56
654.56	84.26
654.71	145.11
654.85	65.54
655.00	84.26
655.14	81.92
655.29	51.49
655.43	138.09
655.57	117.03
655.72	56.17
655.86	16.38
656.01	16.38
656.15	2.34
656.30	170.86
656.44	35.11
656.58	35.11
656.73	35.11
656.87	98.30
657.01	147.45
657.16	58.51
657.30	140.43
657.45	152.13
657.59	140.43
657.73	58.51
657.88	124.05
658.02	231.71
658.16	18.72
658.31	145.11
658.45	56.17
658.60	70.22
658.74	79.58
658.88	49.15
659.03	100.64
659.17	81.92
659.31	0.00
659.46	74.90
659.60	110.01
659.74	133.41
659.89	91.28
660.03	0.00
660.17	168.52
660.32	124.05
660.46	102.98
660.60	46.81
660.74	133.41
660.89	60.85
661.03	98.30
661.17	77.24
661.32	81.92
661.46	105.32
661.60	42.13
661.74	102.98
661.89	110.01
662.03	70.22
662.17	44.47
662.31	51.49
662.46	88.94
662.60	149.79
662.74	102.98
662.88	147.45
663.03	110.01
663.17	117.03
663.31	131.07
663.45	65.54
663.60	42.13
663.74	0.00
663.88	18.72
664.02	112.35
664.17	72.56
664.31	39.79
664.45	81.92
664.59	93.62
664.73	133.41
664.88	95.96
665.02	84.26
665.16	56.17
665.30	140.43
665.44	35.11
665.59	131.07
665.73	93.62
665.87	63.19
666.01	159.16
666.15	51.49
666.29	86.60
666.44	166.18
666.58	117.03
666.72	100.64
666.86	58.51
667.00	98.30
667.14	35.11
667.28	81.92
667.43	86.60
667.57	58.51
667.71	86.60
667.85	51.49
667.99	100.64
668.13	0.00
668.27	121.71
668.41	98.30
668.56	44.47
668.70	100.64
668.84	91.28
668.98	35.11
669.12	74.90
669.26	95.96
669.40	126.39
669.54	65.54
669.68	58.51
669.82	107.66
669.96	25.75
670.10	142.77
670.25	9.36
670.39	67.88
670.53	25.75
670.67	30.43
670.81	35.11
670.95	0.00
671.09	21.06
671.23	84.26
671.37	37.45
671.51	74.90
671.65	4.68
671.79	35.11
671.93	44.47
672.07	74.90
672.21	9.36
672.35	23.41
672.49	100.64
672.63	16.38
672.77	0.00
672.91	0.00
673.05	0.00
673.19	11.70
673.33	0.00
673.47	105.32
673.61	72.56
673.75	9.36
673.89	21.06
674.03	60.85
674.17	0.00
674.31	79.58
674.45	39.79
674.59	42.13
674.73	14.04
674.87	16.38
675.01	35.11
675.15	4.68
675.29	0.00
675.43	39.79
675.56	72.56
675.70	102.98
675.84	86.60
675.98	0.00
676.12	7.02
676.26	60.85
676.40	0.00
676.54	51.49
676.68	7.02
676.82	84.26
676.96	0.00
677.10	91.28
677.23	0.00
677.37	4.68
677.51	30.43
677.65	110.01
677.79	0.00
677.93	37.45
678.07	65.54
678.21	56.17
678.34	42.13
678.48	0.00
678.62	9.36
678.76	32.77
678.90	35.11
679.04	91.28
679.18	0.00
679.31	70.22
679.45	0.00
679.59	37.45
679.73	11.70
679.87	0.00
680.00	0.00
680.14	0.00
680.28	0.00
680.42	11.70
680.56	0.00
680.70	0.00
680.83	60.85
680.97	28.09
681.11	25.75
681.25	25.75
681.39	0.00
681.52	0.00
681.66	0.00
681.80	35.11
681.94	0.00
682.07	0.00
682.21	0.00
682.35	0.00
682.49	0.00
682.62	0.00
682.76	0.00
682.90	60.85
683.04	0.00
683.17	21.06
683.31	14.04
683.45	70.22
683.59	9.36
683.72	9.36
683.86	0.00
684.00	0.00
684.13	0.00
684.27	0.00
684.41	21.06
684.55	0.00
684.68	0.00
684.82	0.00
684.96	0.00
685.09	0.00
685.23	0.00
685.37	49.15
685.50	67.88
685.64	42.13
685.78	0.00
685.91	0.00
686.05	0.00
686.19	0.00
686.32	0.00
686.46	0.00
686.60	0.00
686.73	0.00
686.87	0.00
687.01	0.00
687.14	0.00
687.28	0.00
687.42	0.00
687.55	0.00
687.69	0.00
687.82	0.00
687.96	0.00
688.10	0.00
688.23	0.00
688.37	21.06
688.50	0.00
688.64	0.00
688.78	0.00
688.91	0.00
689.05	0.00
689.18	0.00
689.32	0.00
689.46	0.00
689.59	0.00
689.73	0.00
689.86	0.00
690.00	0.00
690.13	0.00
690.27	0.00
690.41	0.00
690.54	0.00
690.68	0.00
690.81	23.41
690.95	0.00
691.08	0.00
691.22	0.00
691.35	0.00
691.49	0.00
691.62	0.00
691.76	0.00
691.89	0.00
692.03	0.00
692.16	0.00
692.30	0.00
692.43	0.00
692.57	0.00
692.70	0.00
692.84	0.00
692.97	0.00
693.11	0.00
693.24	0.00
693.38	0.00
693.51	0.00
693.65	0.00
693.78	0.00
693.92	0.00
694.05	0.00
694.19	0.00
694.32	2.34
694.45	0.00
694.59	0.00
694.72	0.00
694.86	0.00
694.99	23.41
695.13	0.00
695.26	0.00
695.39	0.00
695.53	0.00
695.66	0.00
695.80	0.00
695.93	0.00
696.07	0.00
696.20	0.00
696.33	0.00
696.47	0.00
696.60	0.00
696.73	0.00
696.87	0.00
697.00	0.00
697.14	0.00
697.27	0.00
697.40	9.36
697.54	0.00
697.67	0.00
697.80	0.00
697.94	0.00
698.07	0.00
698.21	0.00
698.34	0.00
698.47	0.00
698.61	0.00
698.74	0.00
698.87	0.00
699.01	0.00
699.14	0.00
699.27	0.00
699.40	65.54
699.54	0.00
699.67	0.00
699.80	0.00
699.94	0.00
700.07	0.00
700.20	0.00
700.34	0.00
700.47	0.00
700.60	0.00
700.73	0.00
700.87	0.00
701.00	0.00
701.13	0.00
701.26	0.00
701.40	0.00
701.53	0.00
701.66	0.00
701.79	0.00
701.93	0.00
702.06	0.00
702.19	0.00
702.32	0.00
702.46	0.00
702.59	0.00
702.72	0.00
702.85	0.00
702.99	0.00
703.12	0.00
703.25	0.00
703.38	0.00
703.51	0.00
703.65	0.00
703.78	0.00
703.91	0.00
704.04	0.00
704.17	0.00
704.31	0.00
704.44	0.00
704.57	0.00
704.70	0.00
704.83	0.00
704.96	0.00
705.10	0.00
705.23	0.00
>>>>>End Processed Spectral Data<<<<<
