SpectraSuite Data File
++++++++++++++++++++++++++++++++++++
Date: Mon Oct 07 14:59:59 GMT-05:00 2013
User: price-jones
Dark Spectrum Present: No
Reference Spectrum Present: No
Number of Sampled Component Spectra: 1
Spectrometers: USB2+H05261
Integration Time (usec): 100000 (USB2+H05261)
Spectra Averaged: 1 (USB2+H05261)
Boxcar Smoothing: 0 (USB2+H05261)
Correct for Electrical Dark: No (USB2+H05261)
Strobe/Lamp Enabled: No (USB2+H05261)
Correct for Detector Non-linearity: No (USB2+H05261)
Correct for Stray Light: No (USB2+H05261)
Number of Pixels in Processed Spectrum: 2048
>>>>>Begin Processed Spectral Data<<<<<
365.73	0.00
365.92	0.00
366.12	0.00
366.32	0.00
366.52	0.00
366.72	0.00
366.91	0.00
367.11	0.00
367.31	0.00
367.51	0.00
367.70	0.00
367.90	0.00
368.10	0.00
368.30	0.00
368.49	0.00
368.69	0.00
368.89	0.00
369.09	0.00
369.28	0.00
369.48	0.00
369.68	0.00
369.87	0.00
370.07	0.00
370.27	0.00
370.47	0.00
370.66	0.00
370.86	0.00
371.06	0.00
371.25	0.00
371.45	0.00
371.65	0.00
371.84	0.00
372.04	0.00
372.24	0.00
372.44	0.00
372.63	0.00
372.83	0.00
373.03	0.00
373.22	0.00
373.42	0.00
373.62	0.00
373.81	0.00
374.01	0.00
374.21	0.00
374.40	0.00
374.60	0.00
374.79	0.00
374.99	0.00
375.19	0.00
375.38	0.00
375.58	0.00
375.78	0.00
375.97	0.00
376.17	0.00
376.37	0.00
376.56	0.00
376.76	0.00
376.95	0.00
377.15	0.00
377.35	0.00
377.54	0.00
377.74	0.00
377.93	0.00
378.13	0.00
378.33	0.00
378.52	0.00
378.72	0.00
378.91	0.00
379.11	0.00
379.31	0.00
379.50	0.00
379.70	0.00
379.89	0.00
380.09	0.00
380.28	0.00
380.48	0.00
380.68	0.00
380.87	0.00
381.07	0.00
381.26	0.00
381.46	0.00
381.65	0.00
381.85	0.00
382.04	0.00
382.24	0.00
382.43	0.00
382.63	0.00
382.83	0.00
383.02	0.00
383.22	0.00
383.41	0.00
383.61	0.00
383.80	0.00
384.00	0.00
384.19	0.00
384.39	0.00
384.58	0.00
384.78	0.00
384.97	0.00
385.17	0.00
385.36	0.00
385.56	0.00
385.75	0.00
385.95	0.00
386.14	0.00
386.34	0.00
386.53	0.00
386.72	0.00
386.92	0.00
387.11	0.00
387.31	0.00
387.50	0.00
387.70	0.00
387.89	0.00
388.09	0.00
388.28	0.00
388.48	0.00
388.67	0.00
388.86	0.00
389.06	0.00
389.25	0.00
389.45	0.00
389.64	0.00
389.84	0.00
390.03	0.00
390.22	0.00
390.42	0.00
390.61	0.00
390.81	0.00
391.00	0.00
391.19	0.00
391.39	0.00
391.58	0.00
391.78	0.00
391.97	0.00
392.16	0.00
392.36	0.00
392.55	0.00
392.75	0.00
392.94	0.00
393.13	0.00
393.33	0.00
393.52	0.00
393.71	0.00
393.91	0.00
394.10	0.00
394.29	0.00
394.49	0.00
394.68	0.00
394.88	0.00
395.07	0.00
395.26	0.00
395.46	0.00
395.65	0.00
395.84	0.00
396.04	0.00
396.23	0.00
396.42	0.00
396.62	0.00
396.81	0.00
397.00	0.00
397.19	0.00
397.39	0.00
397.58	0.00
397.77	0.00
397.97	0.00
398.16	0.00
398.35	0.00
398.55	0.00
398.74	0.00
398.93	0.00
399.12	0.00
399.32	0.00
399.51	0.00
399.70	0.00
399.90	0.00
400.09	0.00
400.28	0.00
400.47	0.00
400.67	0.00
400.86	0.00
401.05	0.00
401.24	0.00
401.44	0.00
401.63	0.00
401.82	0.00
402.01	0.00
402.21	0.00
402.40	0.00
402.59	0.00
402.78	0.00
402.97	0.00
403.17	0.00
403.36	0.00
403.55	0.00
403.74	0.00
403.93	0.00
404.13	0.00
404.32	0.00
404.51	0.00
404.70	0.00
404.89	0.00
405.09	0.00
405.28	0.00
405.47	0.00
405.66	0.00
405.85	0.00
406.05	0.00
406.24	0.00
406.43	0.00
406.62	0.00
406.81	0.00
407.00	0.00
407.20	0.00
407.39	0.00
407.58	0.00
407.77	0.00
407.96	0.00
408.15	0.00
408.34	0.00
408.54	0.00
408.73	0.00
408.92	0.00
409.11	0.00
409.30	0.00
409.49	0.00
409.68	0.00
409.87	0.00
410.07	0.00
410.26	0.00
410.45	0.00
410.64	0.00
410.83	0.00
411.02	0.00
411.21	0.00
411.40	0.00
411.59	0.00
411.78	0.00
411.98	0.00
412.17	0.00
412.36	0.00
412.55	0.00
412.74	0.00
412.93	0.00
413.12	0.00
413.31	0.00
413.50	0.00
413.69	0.00
413.88	0.00
414.07	0.00
414.26	0.00
414.45	0.00
414.64	0.00
414.83	0.00
415.02	0.00
415.22	0.00
415.41	0.00
415.60	0.00
415.79	0.00
415.98	0.00
416.17	0.00
416.36	0.00
416.55	0.00
416.74	0.00
416.93	0.00
417.12	0.00
417.31	0.00
417.50	0.00
417.69	0.00
417.88	0.00
418.07	0.00
418.26	0.00
418.45	0.00
418.64	0.00
418.83	0.00
419.02	0.00
419.21	0.00
419.39	0.00
419.58	0.00
419.77	0.00
419.96	0.00
420.15	0.00
420.34	0.00
420.53	0.00
420.72	0.00
420.91	0.00
421.10	0.00
421.29	0.00
421.48	0.00
421.67	0.00
421.86	0.00
422.05	0.00
422.24	0.00
422.43	0.00
422.61	0.00
422.80	0.00
422.99	0.00
423.18	0.00
423.37	0.00
423.56	0.00
423.75	0.00
423.94	0.00
424.13	0.00
424.32	0.00
424.50	0.00
424.69	0.00
424.88	0.00
425.07	0.00
425.26	0.00
425.45	0.00
425.64	0.00
425.83	0.00
426.01	0.00
426.20	0.00
426.39	0.00
426.58	0.00
426.77	0.00
426.96	0.00
427.15	0.00
427.33	0.00
427.52	0.00
427.71	0.00
427.90	0.00
428.09	0.00
428.28	0.00
428.46	0.00
428.65	0.00
428.84	0.00
429.03	0.00
429.22	0.00
429.40	0.00
429.59	0.00
429.78	0.00
429.97	0.00
430.16	0.00
430.34	0.00
430.53	0.00
430.72	0.00
430.91	0.00
431.10	0.00
431.28	0.00
431.47	0.00
431.66	0.00
431.85	0.00
432.03	0.00
432.22	0.00
432.41	0.00
432.60	0.00
432.79	0.00
432.97	0.00
433.16	0.00
433.35	0.00
433.54	0.00
433.72	0.00
433.91	0.00
434.10	0.00
434.28	0.00
434.47	0.00
434.66	0.00
434.85	0.00
435.03	0.00
435.22	0.00
435.41	0.00
435.59	0.00
435.78	0.00
435.97	0.00
436.16	0.00
436.34	0.00
436.53	0.00
436.72	0.00
436.90	0.00
437.09	0.00
437.28	0.00
437.46	0.00
437.65	0.00
437.84	0.00
438.02	0.00
438.21	0.00
438.40	0.00
438.58	0.00
438.77	0.00
438.96	0.00
439.14	0.00
439.33	0.00
439.52	0.00
439.70	0.00
439.89	0.00
440.08	0.00
440.26	0.00
440.45	0.00
440.63	0.00
440.82	0.00
441.01	0.00
441.19	0.00
441.38	0.00
441.57	0.00
441.75	0.00
441.94	0.00
442.12	0.00
442.31	0.00
442.50	0.00
442.68	0.00
442.87	0.00
443.05	0.00
443.24	0.00
443.43	0.00
443.61	0.00
443.80	0.00
443.98	0.00
444.17	0.00
444.35	18.72
444.54	0.00
444.73	0.00
444.91	0.00
445.10	0.00
445.28	0.00
445.47	0.00
445.65	0.00
445.84	0.00
446.02	0.00
446.21	0.00
446.39	0.00
446.58	0.00
446.77	0.00
446.95	0.00
447.14	0.00
447.32	0.00
447.51	0.00
447.69	0.00
447.88	0.00
448.06	0.00
448.25	0.00
448.43	0.00
448.62	0.00
448.80	0.00
448.99	0.00
449.17	0.00
449.36	0.00
449.54	0.00
449.73	0.00
449.91	0.00
450.10	0.00
450.28	0.00
450.46	0.00
450.65	0.00
450.83	0.00
451.02	0.00
451.20	0.00
451.39	0.00
451.57	0.00
451.76	23.41
451.94	0.00
452.13	0.00
452.31	0.00
452.49	0.00
452.68	0.00
452.86	0.00
453.05	0.00
453.23	0.00
453.42	44.47
453.60	0.00
453.78	0.00
453.97	0.00
454.15	0.00
454.34	0.00
454.52	0.00
454.70	0.00
454.89	0.00
455.07	0.00
455.26	0.00
455.44	0.00
455.62	0.00
455.81	0.00
455.99	2.34
456.17	51.49
456.36	0.00
456.54	0.00
456.73	0.00
456.91	0.00
457.09	0.00
457.28	35.11
457.46	0.00
457.64	0.00
457.83	0.00
458.01	0.00
458.19	0.00
458.38	0.00
458.56	0.00
458.74	0.00
458.93	0.00
459.11	0.00
459.29	0.00
459.48	0.00
459.66	0.00
459.84	0.00
460.03	81.92
460.21	37.45
460.39	0.00
460.57	0.00
460.76	0.00
460.94	0.00
461.12	28.09
461.31	51.49
461.49	0.00
461.67	0.00
461.85	63.19
462.04	0.00
462.22	561.73
462.40	2.34
462.59	0.00
462.77	0.00
462.95	0.00
463.13	0.00
463.32	0.00
463.50	0.00
463.68	42.13
463.86	9.36
464.05	0.00
464.23	21.06
464.41	0.00
464.59	0.00
464.78	0.00
464.96	0.00
465.14	0.00
465.32	0.00
465.50	21.06
465.69	14.04
465.87	4.68
466.05	9.36
466.23	0.00
466.41	0.00
466.60	0.00
466.78	44.47
466.96	51.49
467.14	0.00
467.32	0.00
467.51	0.00
467.69	0.00
467.87	84.26
468.05	0.00
468.23	32.77
468.41	21.06
468.60	0.00
468.78	56.17
468.96	65.54
469.14	0.00
469.32	0.00
469.50	0.00
469.69	0.00
469.87	28.09
470.05	25.75
470.23	0.00
470.41	0.00
470.59	0.00
470.77	0.00
470.95	0.00
471.14	0.00
471.32	0.00
471.50	28.09
471.68	0.00
471.86	0.00
472.04	0.00
472.22	0.00
472.40	0.00
472.58	0.00
472.77	0.00
472.95	9.36
473.13	7.02
473.31	0.00
473.49	0.00
473.67	37.45
473.85	21.06
474.03	37.45
474.21	0.00
474.39	98.30
474.57	95.96
474.75	100.64
474.93	7.02
475.12	0.00
475.30	0.00
475.48	51.49
475.66	46.81
475.84	0.00
476.02	0.00
476.20	0.00
476.38	0.00
476.56	88.94
476.74	11.70
476.92	0.00
477.10	28.09
477.28	65.54
477.46	0.00
477.64	91.28
477.82	0.00
478.00	0.00
478.18	0.00
478.36	0.00
478.54	0.00
478.72	0.00
478.90	72.56
479.08	42.13
479.26	32.77
479.44	39.79
479.62	39.79
479.80	0.00
479.98	30.43
480.16	58.51
480.34	0.00
480.52	0.00
480.70	32.77
480.88	18.72
481.06	0.00
481.24	35.11
481.41	63.19
481.59	72.56
481.77	49.15
481.95	72.56
482.13	168.52
482.31	56.17
482.49	44.47
482.67	49.15
482.85	72.56
483.03	9.36
483.21	63.19
483.39	53.83
483.57	0.00
483.74	114.69
483.92	0.00
484.10	60.85
484.28	142.77
484.46	110.01
484.64	79.58
484.82	112.35
485.00	91.28
485.18	0.00
485.35	2.34
485.53	51.49
485.71	117.03
485.89	0.00
486.07	74.90
486.25	142.77
486.43	79.58
486.61	0.00
486.78	77.24
486.96	95.96
487.14	77.24
487.32	91.28
487.50	86.60
487.68	110.01
487.85	70.22
488.03	140.43
488.21	117.03
488.39	72.56
488.57	140.43
488.75	128.73
488.92	461.09
489.10	152.13
489.28	142.77
489.46	110.01
489.64	95.96
489.81	189.58
489.99	149.79
490.17	77.24
490.35	234.05
490.53	117.03
490.70	138.09
490.88	189.58
491.06	126.39
491.24	189.58
491.41	135.75
491.59	65.54
491.77	93.62
491.95	110.01
492.13	149.79
492.30	110.01
492.48	173.20
492.66	128.73
492.84	152.13
493.01	177.88
493.19	135.75
493.37	140.43
493.54	93.62
493.72	70.22
493.90	159.16
494.08	79.58
494.25	173.20
494.43	138.09
494.61	166.18
494.79	95.96
494.96	102.98
495.14	243.42
495.32	187.24
495.49	220.01
495.67	182.56
495.85	128.73
496.02	145.11
496.20	205.97
496.38	238.73
496.55	161.50
496.73	224.69
496.91	145.11
497.09	248.10
497.26	163.84
497.44	173.20
497.62	182.56
497.79	156.82
497.97	191.92
498.14	86.60
498.32	140.43
498.50	145.11
498.67	210.65
498.85	156.82
499.03	215.33
499.20	205.97
499.38	252.78
499.56	154.48
499.73	175.54
499.91	198.95
500.08	224.69
500.26	205.97
500.44	182.56
500.61	119.37
500.79	105.32
500.97	173.20
501.14	231.71
501.32	184.90
501.49	145.11
501.67	257.46
501.84	131.07
502.02	161.50
502.20	238.73
502.37	128.73
502.55	243.42
502.72	187.24
502.90	224.69
503.07	259.80
503.25	184.90
503.43	222.35
503.60	201.29
503.78	255.12
503.95	173.20
504.13	161.50
504.30	203.63
504.48	313.63
504.65	299.59
504.83	280.86
505.01	173.20
505.18	322.99
505.36	217.67
505.53	196.60
505.71	191.92
505.88	276.18
506.06	224.69
506.23	201.29
506.41	250.44
506.58	285.55
506.76	203.63
506.93	210.65
507.11	262.14
507.28	149.79
507.46	205.97
507.63	250.44
507.81	159.16
507.98	257.46
508.16	297.25
508.33	222.35
508.50	241.08
508.68	269.16
508.85	248.10
509.03	135.75
509.20	198.95
509.38	252.78
509.55	224.69
509.73	229.37
509.90	301.93
510.08	194.26
510.25	283.20
510.42	175.54
510.60	285.55
510.77	252.78
510.95	224.69
511.12	187.24
511.30	259.80
511.47	243.42
511.64	348.74
511.82	358.10
511.99	344.06
512.17	220.01
512.34	191.92
512.51	210.65
512.69	262.14
512.86	273.84
513.04	236.39
513.21	257.46
513.38	212.99
513.56	175.54
513.73	222.35
513.90	255.12
514.08	222.35
514.25	224.69
514.43	264.48
514.60	220.01
514.77	280.86
514.95	196.60
515.12	215.33
515.29	332.36
515.47	299.59
515.64	273.84
515.81	262.14
515.99	372.15
516.16	285.55
516.33	271.50
516.51	201.29
516.68	128.73
516.85	177.88
517.03	189.58
517.20	276.18
517.37	243.42
517.54	355.76
517.72	198.95
517.89	224.69
518.06	215.33
518.24	332.36
518.41	243.42
518.58	238.73
518.75	278.52
518.93	273.84
519.10	308.95
519.27	304.27
519.45	304.27
519.62	346.40
519.79	304.27
519.96	259.80
520.14	243.42
520.31	264.48
520.48	271.50
520.65	234.05
520.83	313.63
521.00	330.02
521.17	271.50
521.34	322.99
521.52	245.76
521.69	294.91
521.86	220.01
522.03	297.25
522.20	318.31
522.38	236.39
522.55	203.63
522.72	248.10
522.89	250.44
523.07	276.18
523.24	301.93
523.41	294.91
523.58	262.14
523.75	243.42
523.92	278.52
524.10	271.50
524.27	320.65
524.44	238.73
524.61	250.44
524.78	180.22
524.96	358.10
525.13	409.59
525.30	367.46
525.47	273.84
525.64	252.78
525.81	306.61
525.98	271.50
526.16	248.10
526.33	145.11
526.50	259.80
526.67	287.89
526.84	184.90
527.01	280.86
527.18	318.31
527.36	325.33
527.53	280.86
527.70	320.65
527.87	290.23
528.04	315.97
528.21	339.38
528.38	353.42
528.55	348.74
528.72	330.02
528.89	418.96
529.07	266.82
529.24	407.25
529.41	344.06
529.58	299.59
529.75	304.27
529.92	276.18
530.09	355.76
530.26	315.97
530.43	259.80
530.60	409.59
530.77	330.02
530.94	257.46
531.11	395.55
531.28	346.40
531.46	278.52
531.63	444.70
531.80	273.84
531.97	299.59
532.14	257.46
532.31	318.31
532.48	262.14
532.65	294.91
532.82	264.48
532.99	304.27
533.16	404.91
533.33	334.70
533.50	372.15
533.67	238.73
533.84	278.52
534.01	241.08
534.18	322.99
534.35	271.50
534.52	376.83
534.69	421.30
534.86	369.80
535.03	390.87
535.20	271.50
535.37	372.15
535.54	266.82
535.71	374.49
535.88	407.25
536.05	332.36
536.22	292.57
536.38	297.25
536.55	280.86
536.72	276.18
536.89	273.84
537.06	351.08
537.23	318.31
537.40	280.86
537.57	322.99
537.74	451.72
537.91	365.12
538.08	402.57
538.25	418.96
538.42	276.18
538.59	374.49
538.75	241.08
538.92	358.10
539.09	397.89
539.26	304.27
539.43	360.44
539.60	278.52
539.77	325.33
539.94	334.70
540.11	252.78
540.28	311.29
540.44	372.15
540.61	297.25
540.78	362.78
540.95	341.72
541.12	306.61
541.29	353.42
541.46	330.02
541.62	332.36
541.79	379.17
541.96	346.40
542.13	301.93
542.30	306.61
542.47	339.38
542.63	252.78
542.80	278.52
542.97	400.23
543.14	250.44
543.31	444.70
543.48	369.80
543.64	463.43
543.81	262.14
543.98	344.06
544.15	320.65
544.32	358.10
544.48	259.80
544.65	311.29
544.82	367.46
544.99	306.61
545.16	376.83
545.32	358.10
545.49	355.76
545.66	355.76
545.83	301.93
546.00	297.25
546.16	332.36
546.33	367.46
546.50	322.99
546.67	461.09
546.83	404.91
547.00	346.40
547.17	327.68
547.34	278.52
547.50	283.20
547.67	306.61
547.84	334.70
548.00	299.59
548.17	367.46
548.34	393.21
548.51	404.91
548.67	376.83
548.84	320.65
549.01	414.27
549.18	358.10
549.34	334.70
549.51	358.10
549.68	369.80
549.84	294.91
550.01	252.78
550.18	456.40
550.34	430.66
550.51	332.36
550.68	418.96
550.84	383.85
551.01	330.02
551.18	379.17
551.34	339.38
551.51	334.70
551.68	320.65
551.84	376.83
552.01	379.17
552.18	376.83
552.34	320.65
552.51	358.10
552.68	320.65
552.84	346.40
553.01	259.80
553.18	266.82
553.34	287.89
553.51	306.61
553.67	416.62
553.84	360.44
554.01	337.04
554.17	358.10
554.34	383.85
554.51	425.98
554.67	454.06
554.84	409.59
555.00	325.33
555.17	386.19
555.33	353.42
555.50	358.10
555.67	383.85
555.83	259.80
556.00	276.18
556.16	592.16
556.33	360.44
556.50	315.97
556.66	332.36
556.83	264.48
556.99	348.74
557.16	287.89
557.32	287.89
557.49	381.51
557.65	266.82
557.82	283.20
557.98	346.40
558.15	269.16
558.32	344.06
558.48	308.95
558.65	227.03
558.81	229.37
558.98	308.95
559.14	351.08
559.31	287.89
559.47	330.02
559.64	278.52
559.80	292.57
559.97	351.08
560.13	280.86
560.30	315.97
560.46	362.78
560.63	372.15
560.79	341.72
560.96	301.93
561.12	290.23
561.29	358.10
561.45	318.31
561.61	311.29
561.78	435.34
561.94	428.32
562.11	315.97
562.27	320.65
562.44	407.25
562.60	301.93
562.77	358.10
562.93	376.83
563.10	283.20
563.26	308.95
563.42	348.74
563.59	381.51
563.75	278.52
563.92	369.80
564.08	322.99
564.24	369.80
564.41	383.85
564.57	365.12
564.74	224.69
564.90	308.95
565.07	372.15
565.23	322.99
565.39	315.97
565.56	285.55
565.72	351.08
565.88	348.74
566.05	325.33
566.21	259.80
566.38	271.50
566.54	327.68
566.70	325.33
566.87	369.80
567.03	318.31
567.19	428.32
567.36	308.95
567.52	311.29
567.68	318.31
567.85	294.91
568.01	287.89
568.17	271.50
568.34	250.44
568.50	280.86
568.66	264.48
568.83	407.25
568.99	308.95
569.15	353.42
569.32	379.17
569.48	372.15
569.64	395.55
569.81	271.50
569.97	285.55
570.13	315.97
570.30	327.68
570.46	297.25
570.62	210.65
570.78	234.05
570.95	330.02
571.11	322.99
571.27	334.70
571.43	224.69
571.60	337.04
571.76	250.44
571.92	315.97
572.09	353.42
572.25	245.76
572.41	386.19
572.57	372.15
572.74	346.40
572.90	351.08
573.06	224.69
573.22	386.19
573.38	339.38
573.55	348.74
573.71	374.49
573.87	372.15
574.03	292.57
574.20	278.52
574.36	341.72
574.52	346.40
574.68	318.31
574.84	367.46
575.01	266.82
575.17	294.91
575.33	320.65
575.49	322.99
575.65	423.64
575.82	346.40
575.98	339.38
576.14	395.55
576.30	341.72
576.46	217.67
576.62	269.16
576.79	332.36
576.95	306.61
577.11	365.12
577.27	217.67
577.43	315.97
577.59	278.52
577.75	292.57
577.92	297.25
578.08	276.18
578.24	205.97
578.40	341.72
578.56	315.97
578.72	271.50
578.88	334.70
579.04	320.65
579.21	308.95
579.37	292.57
579.53	285.55
579.69	383.85
579.85	339.38
580.01	315.97
580.17	332.36
580.33	304.27
580.49	351.08
580.65	390.87
580.82	348.74
580.98	313.63
581.14	290.23
581.30	379.17
581.46	313.63
581.62	395.55
581.78	346.40
581.94	322.99
582.10	229.37
582.26	341.72
582.42	315.97
582.58	334.70
582.74	440.02
582.90	311.29
583.06	360.44
583.22	344.06
583.38	346.40
583.54	266.82
583.70	334.70
583.86	257.46
584.02	355.76
584.18	376.83
584.34	376.83
584.50	280.86
584.66	311.29
584.82	285.55
584.98	248.10
585.14	259.80
585.30	437.68
585.46	332.36
585.62	278.52
585.78	332.36
585.94	266.82
586.10	306.61
586.26	400.23
586.42	294.91
586.58	306.61
586.74	320.65
586.90	365.12
587.06	280.86
587.22	262.14
587.38	315.97
587.54	273.84
587.70	360.44
587.86	255.12
588.02	280.86
588.18	290.23
588.34	334.70
588.49	217.67
588.65	180.22
588.81	241.08
588.97	238.73
589.13	187.24
589.29	168.52
589.45	304.27
589.61	262.14
589.77	241.08
589.93	311.29
590.08	231.71
590.24	217.67
590.40	278.52
590.56	334.70
590.72	248.10
590.88	283.20
591.04	243.42
591.20	285.55
591.35	285.55
591.51	320.65
591.67	299.59
591.83	259.80
591.99	227.03
592.15	271.50
592.31	344.06
592.46	379.17
592.62	358.10
592.78	308.95
592.94	220.01
593.10	285.55
593.26	273.84
593.41	276.18
593.57	304.27
593.73	320.65
593.89	351.08
594.05	276.18
594.20	198.95
594.36	325.33
594.52	280.86
594.68	269.16
594.84	327.68
594.99	308.95
595.15	381.51
595.31	372.15
595.47	430.66
595.62	276.18
595.78	264.48
595.94	313.63
596.10	353.42
596.25	280.86
596.41	294.91
596.57	159.16
596.73	379.17
596.88	220.01
597.04	255.12
597.20	224.69
597.36	287.89
597.51	243.42
597.67	294.91
597.83	220.01
597.99	358.10
598.14	250.44
598.30	290.23
598.46	198.95
598.61	376.83
598.77	320.65
598.93	215.33
599.09	248.10
599.24	273.84
599.40	299.59
599.56	245.76
599.71	278.52
599.87	252.78
600.03	320.65
600.18	220.01
600.34	346.40
600.50	344.06
600.65	304.27
600.81	292.57
600.97	287.89
601.12	294.91
601.28	348.74
601.44	304.27
601.59	229.37
601.75	341.72
601.91	248.10
602.06	346.40
602.22	376.83
602.37	248.10
602.53	231.71
602.69	297.25
602.84	203.63
603.00	271.50
603.16	315.97
603.31	313.63
603.47	259.80
603.62	229.37
603.78	308.95
603.94	287.89
604.09	280.86
604.25	327.68
604.40	304.27
604.56	250.44
604.71	294.91
604.87	292.57
605.03	280.86
605.18	269.16
605.34	269.16
605.49	313.63
605.65	278.52
605.80	271.50
605.96	257.46
606.12	220.01
606.27	220.01
606.43	292.57
606.58	297.25
606.74	236.39
606.89	358.10
607.05	311.29
607.20	285.55
607.36	252.78
607.51	201.29
607.67	290.23
607.82	252.78
607.98	285.55
608.13	325.33
608.29	280.86
608.44	287.89
608.60	266.82
608.75	276.18
608.91	222.35
609.06	273.84
609.22	273.84
609.37	196.60
609.53	191.92
609.68	231.71
609.84	259.80
609.99	215.33
610.15	196.60
610.30	252.78
610.46	238.73
610.61	351.08
610.76	278.52
610.92	234.05
611.07	208.31
611.23	283.20
611.38	220.01
611.54	252.78
611.69	304.27
611.84	294.91
612.00	231.71
612.15	245.76
612.31	248.10
612.46	168.52
612.62	177.88
612.77	259.80
612.92	273.84
613.08	283.20
613.23	259.80
613.39	231.71
613.54	196.60
613.69	308.95
613.85	201.29
614.00	285.55
614.15	196.60
614.31	180.22
614.46	297.25
614.62	252.78
614.77	248.10
614.92	224.69
615.08	271.50
615.23	330.02
615.38	191.92
615.54	194.26
615.69	177.88
615.84	168.52
616.00	229.37
616.15	231.71
616.30	149.79
616.46	217.67
616.61	194.26
616.76	173.20
616.92	166.18
617.07	252.78
617.22	210.65
617.37	119.37
617.53	215.33
617.68	241.08
617.83	187.24
617.99	238.73
618.14	227.03
618.29	231.71
618.45	276.18
618.60	149.79
618.75	198.95
618.90	217.67
619.06	222.35
619.21	269.16
619.36	243.42
619.51	198.95
619.67	299.59
619.82	196.60
619.97	255.12
620.12	177.88
620.28	285.55
620.43	149.79
620.58	177.88
620.73	252.78
620.89	161.50
621.04	229.37
621.19	299.59
621.34	205.97
621.49	145.11
621.65	205.97
621.80	205.97
621.95	128.73
622.10	198.95
622.25	170.86
622.41	187.24
622.56	205.97
622.71	196.60
622.86	194.26
623.01	159.16
623.16	299.59
623.32	229.37
623.47	231.71
623.62	222.35
623.77	173.20
623.92	168.52
624.07	201.29
624.23	229.37
624.38	187.24
624.53	166.18
624.68	163.84
624.83	266.82
624.98	203.63
625.13	156.82
625.29	196.60
625.44	212.99
625.59	229.37
625.74	159.16
625.89	196.60
626.04	149.79
626.19	163.84
626.34	170.86
626.49	266.82
626.65	198.95
626.80	217.67
626.95	224.69
627.10	161.50
627.25	187.24
627.40	168.52
627.55	105.32
627.70	93.62
627.85	189.58
628.00	107.66
628.15	140.43
628.30	184.90
628.45	117.03
628.60	166.18
628.76	163.84
628.91	128.73
629.06	189.58
629.21	170.86
629.36	191.92
629.51	187.24
629.66	147.45
629.81	112.35
629.96	170.86
630.11	161.50
630.26	245.76
630.41	121.71
630.56	201.29
630.71	121.71
630.86	191.92
631.01	117.03
631.16	182.56
631.31	198.95
631.46	168.52
631.61	156.82
631.76	100.64
631.91	163.84
632.06	248.10
632.21	189.58
632.36	163.84
632.51	184.90
632.66	147.45
632.81	231.71
632.96	140.43
633.10	149.79
633.25	210.65
633.40	156.82
633.55	156.82
633.70	138.09
633.85	149.79
634.00	77.24
634.15	117.03
634.30	121.71
634.45	147.45
634.60	128.73
634.75	180.22
634.90	170.86
635.05	74.90
635.19	166.18
635.34	182.56
635.49	166.18
635.64	201.29
635.79	131.07
635.94	154.48
636.09	210.65
636.24	147.45
636.39	187.24
636.53	234.05
636.68	166.18
636.83	154.48
636.98	184.90
637.13	128.73
637.28	184.90
637.43	227.03
637.57	205.97
637.72	250.44
637.87	236.39
638.02	126.39
638.17	175.54
638.32	173.20
638.46	173.20
638.61	203.63
638.76	138.09
638.91	42.13
639.06	166.18
639.20	191.92
639.35	112.35
639.50	175.54
639.65	177.88
639.80	142.77
639.94	245.76
640.09	278.52
640.24	236.39
640.39	126.39
640.54	210.65
640.68	98.30
640.83	135.75
640.98	112.35
641.13	173.20
641.27	173.20
641.42	133.41
641.57	222.35
641.72	91.28
641.86	128.73
642.01	163.84
642.16	187.24
642.31	140.43
642.45	135.75
642.60	184.90
642.75	95.96
642.90	138.09
643.04	126.39
643.19	126.39
643.34	135.75
643.48	147.45
643.63	215.33
643.78	208.31
643.93	227.03
644.07	168.52
644.22	102.98
644.37	177.88
644.51	177.88
644.66	138.09
644.81	145.11
644.95	182.56
645.10	227.03
645.25	100.64
645.39	227.03
645.54	184.90
645.69	271.50
645.83	67.88
645.98	217.67
646.13	88.94
646.27	156.82
646.42	86.60
646.57	175.54
646.71	177.88
646.86	119.37
647.00	100.64
647.15	91.28
647.30	77.24
647.44	177.88
647.59	51.49
647.74	86.60
647.88	140.43
648.03	138.09
648.17	131.07
648.32	14.04
648.47	184.90
648.61	180.22
648.76	81.92
648.90	142.77
649.05	81.92
649.20	105.32
649.34	30.43
649.49	74.90
649.63	93.62
649.78	93.62
649.92	16.38
650.07	95.96
650.21	46.81
650.36	112.35
650.51	91.28
650.65	128.73
650.80	154.48
650.94	138.09
651.09	88.94
651.23	74.90
651.38	86.60
651.52	72.56
651.67	63.19
651.81	126.39
651.96	142.77
652.10	175.54
652.25	81.92
652.39	79.58
652.54	98.30
652.68	67.88
652.83	100.64
652.97	138.09
653.12	128.73
653.26	81.92
653.41	133.41
653.55	107.66
653.70	156.82
653.84	102.98
653.99	79.58
654.13	42.13
654.27	65.54
654.42	25.75
654.56	0.00
654.71	168.52
654.85	117.03
655.00	133.41
655.14	91.28
655.29	4.68
655.43	100.64
655.57	0.00
655.72	98.30
655.86	44.47
656.01	0.00
656.15	105.32
656.30	35.11
656.44	37.45
656.58	112.35
656.73	84.26
656.87	25.75
657.01	100.64
657.16	198.95
657.30	147.45
657.45	168.52
657.59	114.69
657.73	16.38
657.88	102.98
658.02	159.16
658.16	124.05
658.31	105.32
658.45	30.43
658.60	28.09
658.74	79.58
658.88	65.54
659.03	18.72
659.17	93.62
659.31	37.45
659.46	56.17
659.60	149.79
659.74	84.26
659.89	63.19
660.03	154.48
660.17	156.82
660.32	131.07
660.46	124.05
660.60	86.60
660.74	86.60
660.89	56.17
661.03	11.70
661.17	110.01
661.32	70.22
661.46	79.58
661.60	84.26
661.74	110.01
661.89	74.90
662.03	46.81
662.17	30.43
662.31	142.77
662.46	63.19
662.60	63.19
662.74	161.50
662.88	65.54
663.03	86.60
663.17	11.70
663.31	42.13
663.45	44.47
663.60	91.28
663.74	49.15
663.88	100.64
664.02	16.38
664.17	56.17
664.31	102.98
664.45	135.75
664.59	32.77
664.73	42.13
664.88	93.62
665.02	60.85
665.16	58.51
665.30	112.35
665.44	142.77
665.59	100.64
665.73	93.62
665.87	37.45
666.01	37.45
666.15	84.26
666.29	63.19
666.44	44.47
666.58	128.73
666.72	133.41
666.86	65.54
667.00	131.07
667.14	95.96
667.28	18.72
667.43	46.81
667.57	65.54
667.71	112.35
667.85	81.92
667.99	84.26
668.13	65.54
668.27	142.77
668.41	140.43
668.56	93.62
668.70	65.54
668.84	49.15
668.98	46.81
669.12	74.90
669.26	0.00
669.40	138.09
669.54	77.24
669.68	72.56
669.82	0.00
669.96	21.06
670.10	60.85
670.25	110.01
670.39	117.03
670.53	18.72
670.67	72.56
670.81	56.17
670.95	86.60
671.09	39.79
671.23	56.17
671.37	126.39
671.51	102.98
671.65	98.30
671.79	70.22
671.93	0.00
672.07	98.30
672.21	98.30
672.35	0.00
672.49	18.72
672.63	42.13
672.77	63.19
672.91	0.00
673.05	77.24
673.19	0.00
673.33	119.37
673.47	124.05
673.61	98.30
673.75	0.00
673.89	72.56
674.03	37.45
674.17	44.47
674.31	21.06
674.45	98.30
674.59	105.32
674.73	0.00
674.87	25.75
675.01	14.04
675.15	39.79
675.29	77.24
675.43	7.02
675.56	81.92
675.70	70.22
675.84	98.30
675.98	37.45
676.12	9.36
676.26	42.13
676.40	0.00
676.54	0.00
676.68	16.38
676.82	49.15
676.96	23.41
677.10	0.00
677.23	67.88
677.37	0.00
677.51	7.02
677.65	84.26
677.79	30.43
677.93	9.36
678.07	77.24
678.21	0.00
678.34	0.00
678.48	0.00
678.62	0.00
678.76	4.68
678.90	0.00
679.04	0.00
679.18	0.00
679.31	0.00
679.45	0.00
679.59	42.13
679.73	133.41
679.87	0.00
680.00	0.00
680.14	0.00
680.28	7.02
680.42	11.70
680.56	21.06
680.70	0.00
680.83	0.00
680.97	0.00
681.11	39.79
681.25	0.00
681.39	0.00
681.52	0.00
681.66	77.24
681.80	0.00
681.94	9.36
682.07	23.41
682.21	25.75
682.35	0.00
682.49	0.00
682.62	0.00
682.76	0.00
682.90	0.00
683.04	21.06
683.17	35.11
683.31	0.00
683.45	39.79
683.59	51.49
683.72	0.00
683.86	0.00
684.00	0.00
684.13	30.43
684.27	0.00
684.41	0.00
684.55	0.00
684.68	0.00
684.82	0.00
684.96	0.00
685.09	0.00
685.23	32.77
685.37	0.00
685.50	0.00
685.64	56.17
685.78	0.00
685.91	0.00
686.05	14.04
686.19	16.38
686.32	0.00
686.46	0.00
686.60	0.00
686.73	9.36
686.87	0.00
687.01	0.00
687.14	0.00
687.28	0.00
687.42	0.00
687.55	0.00
687.69	0.00
687.82	0.00
687.96	0.00
688.10	0.00
688.23	0.00
688.37	0.00
688.50	0.00
688.64	0.00
688.78	0.00
688.91	0.00
689.05	0.00
689.18	0.00
689.32	0.00
689.46	0.00
689.59	0.00
689.73	0.00
689.86	0.00
690.00	0.00
690.13	0.00
690.27	0.00
690.41	0.00
690.54	46.81
690.68	2.34
690.81	0.00
690.95	0.00
691.08	0.00
691.22	0.00
691.35	0.00
691.49	0.00
691.62	0.00
691.76	0.00
691.89	0.00
692.03	0.00
692.16	0.00
692.30	0.00
692.43	0.00
692.57	0.00
692.70	0.00
692.84	0.00
692.97	0.00
693.11	0.00
693.24	0.00
693.38	0.00
693.51	0.00
693.65	0.00
693.78	0.00
693.92	0.00
694.05	0.00
694.19	0.00
694.32	0.00
694.45	0.00
694.59	0.00
694.72	0.00
694.86	0.00
694.99	0.00
695.13	0.00
695.26	0.00
695.39	0.00
695.53	7.02
695.66	0.00
695.80	0.00
695.93	0.00
696.07	0.00
696.20	0.00
696.33	0.00
696.47	0.00
696.60	0.00
696.73	0.00
696.87	0.00
697.00	0.00
697.14	0.00
697.27	0.00
697.40	30.43
697.54	0.00
697.67	0.00
697.80	0.00
697.94	0.00
698.07	0.00
698.21	0.00
698.34	0.00
698.47	0.00
698.61	0.00
698.74	0.00
698.87	0.00
699.01	0.00
699.14	0.00
699.27	0.00
699.40	35.11
699.54	0.00
699.67	0.00
699.80	0.00
699.94	0.00
700.07	0.00
700.20	0.00
700.34	0.00
700.47	0.00
700.60	0.00
700.73	0.00
700.87	0.00
701.00	0.00
701.13	0.00
701.26	0.00
701.40	0.00
701.53	0.00
701.66	0.00
701.79	0.00
701.93	0.00
702.06	0.00
702.19	0.00
702.32	0.00
702.46	0.00
702.59	0.00
702.72	0.00
702.85	0.00
702.99	0.00
703.12	0.00
703.25	0.00
703.38	0.00
703.51	0.00
703.65	0.00
703.78	0.00
703.91	0.00
704.04	0.00
704.17	0.00
704.31	0.00
704.44	0.00
704.57	0.00
704.70	0.00
704.83	0.00
704.96	0.00
705.10	0.00
705.23	0.00
>>>>>End Processed Spectral Data<<<<<
