SpectraSuite Data File
++++++++++++++++++++++++++++++++++++
Date: Mon Oct 07 14:59:56 GMT-05:00 2013
User: price-jones
Dark Spectrum Present: No
Reference Spectrum Present: No
Number of Sampled Component Spectra: 1
Spectrometers: USB2+H05261
Integration Time (usec): 100000 (USB2+H05261)
Spectra Averaged: 1 (USB2+H05261)
Boxcar Smoothing: 0 (USB2+H05261)
Correct for Electrical Dark: No (USB2+H05261)
Strobe/Lamp Enabled: No (USB2+H05261)
Correct for Detector Non-linearity: No (USB2+H05261)
Correct for Stray Light: No (USB2+H05261)
Number of Pixels in Processed Spectrum: 2048
>>>>>Begin Processed Spectral Data<<<<<
365.73	0.00
365.92	0.00
366.12	0.00
366.32	0.00
366.52	0.00
366.72	0.00
366.91	0.00
367.11	0.00
367.31	0.00
367.51	0.00
367.70	0.00
367.90	0.00
368.10	0.00
368.30	0.00
368.49	0.00
368.69	0.00
368.89	0.00
369.09	0.00
369.28	0.00
369.48	0.00
369.68	0.00
369.87	0.00
370.07	0.00
370.27	0.00
370.47	0.00
370.66	0.00
370.86	0.00
371.06	0.00
371.25	0.00
371.45	0.00
371.65	0.00
371.84	0.00
372.04	0.00
372.24	0.00
372.44	0.00
372.63	0.00
372.83	0.00
373.03	0.00
373.22	0.00
373.42	0.00
373.62	0.00
373.81	0.00
374.01	0.00
374.21	0.00
374.40	0.00
374.60	0.00
374.79	0.00
374.99	0.00
375.19	0.00
375.38	0.00
375.58	0.00
375.78	0.00
375.97	0.00
376.17	0.00
376.37	0.00
376.56	0.00
376.76	0.00
376.95	0.00
377.15	0.00
377.35	0.00
377.54	0.00
377.74	0.00
377.93	0.00
378.13	0.00
378.33	0.00
378.52	0.00
378.72	0.00
378.91	0.00
379.11	0.00
379.31	0.00
379.50	0.00
379.70	0.00
379.89	0.00
380.09	0.00
380.28	0.00
380.48	0.00
380.68	0.00
380.87	0.00
381.07	0.00
381.26	0.00
381.46	0.00
381.65	0.00
381.85	0.00
382.04	0.00
382.24	0.00
382.43	0.00
382.63	0.00
382.83	0.00
383.02	0.00
383.22	0.00
383.41	0.00
383.61	0.00
383.80	0.00
384.00	0.00
384.19	0.00
384.39	0.00
384.58	0.00
384.78	0.00
384.97	0.00
385.17	0.00
385.36	0.00
385.56	0.00
385.75	0.00
385.95	0.00
386.14	0.00
386.34	0.00
386.53	0.00
386.72	0.00
386.92	0.00
387.11	0.00
387.31	0.00
387.50	0.00
387.70	0.00
387.89	0.00
388.09	0.00
388.28	0.00
388.48	0.00
388.67	0.00
388.86	0.00
389.06	0.00
389.25	0.00
389.45	0.00
389.64	0.00
389.84	0.00
390.03	0.00
390.22	0.00
390.42	0.00
390.61	0.00
390.81	0.00
391.00	0.00
391.19	0.00
391.39	0.00
391.58	0.00
391.78	0.00
391.97	0.00
392.16	0.00
392.36	0.00
392.55	0.00
392.75	0.00
392.94	0.00
393.13	0.00
393.33	0.00
393.52	0.00
393.71	0.00
393.91	0.00
394.10	0.00
394.29	0.00
394.49	0.00
394.68	0.00
394.88	0.00
395.07	0.00
395.26	0.00
395.46	0.00
395.65	0.00
395.84	0.00
396.04	0.00
396.23	0.00
396.42	0.00
396.62	0.00
396.81	0.00
397.00	0.00
397.19	0.00
397.39	0.00
397.58	0.00
397.77	0.00
397.97	0.00
398.16	0.00
398.35	0.00
398.55	0.00
398.74	0.00
398.93	0.00
399.12	0.00
399.32	0.00
399.51	0.00
399.70	0.00
399.90	0.00
400.09	0.00
400.28	0.00
400.47	0.00
400.67	0.00
400.86	0.00
401.05	0.00
401.24	0.00
401.44	0.00
401.63	0.00
401.82	0.00
402.01	0.00
402.21	0.00
402.40	0.00
402.59	0.00
402.78	0.00
402.97	0.00
403.17	0.00
403.36	0.00
403.55	0.00
403.74	0.00
403.93	0.00
404.13	0.00
404.32	0.00
404.51	0.00
404.70	0.00
404.89	0.00
405.09	0.00
405.28	0.00
405.47	0.00
405.66	0.00
405.85	0.00
406.05	0.00
406.24	0.00
406.43	0.00
406.62	0.00
406.81	0.00
407.00	0.00
407.20	0.00
407.39	0.00
407.58	0.00
407.77	0.00
407.96	0.00
408.15	0.00
408.34	0.00
408.54	0.00
408.73	0.00
408.92	0.00
409.11	0.00
409.30	0.00
409.49	0.00
409.68	0.00
409.87	0.00
410.07	0.00
410.26	0.00
410.45	0.00
410.64	0.00
410.83	0.00
411.02	0.00
411.21	0.00
411.40	0.00
411.59	0.00
411.78	0.00
411.98	0.00
412.17	0.00
412.36	0.00
412.55	0.00
412.74	0.00
412.93	0.00
413.12	0.00
413.31	0.00
413.50	0.00
413.69	0.00
413.88	0.00
414.07	0.00
414.26	0.00
414.45	0.00
414.64	0.00
414.83	0.00
415.02	0.00
415.22	0.00
415.41	0.00
415.60	0.00
415.79	0.00
415.98	0.00
416.17	0.00
416.36	0.00
416.55	0.00
416.74	0.00
416.93	0.00
417.12	0.00
417.31	0.00
417.50	0.00
417.69	0.00
417.88	0.00
418.07	0.00
418.26	0.00
418.45	0.00
418.64	0.00
418.83	0.00
419.02	0.00
419.21	0.00
419.39	0.00
419.58	0.00
419.77	0.00
419.96	0.00
420.15	0.00
420.34	0.00
420.53	0.00
420.72	0.00
420.91	0.00
421.10	0.00
421.29	0.00
421.48	0.00
421.67	0.00
421.86	0.00
422.05	0.00
422.24	0.00
422.43	0.00
422.61	0.00
422.80	0.00
422.99	0.00
423.18	0.00
423.37	0.00
423.56	0.00
423.75	0.00
423.94	0.00
424.13	0.00
424.32	0.00
424.50	0.00
424.69	0.00
424.88	0.00
425.07	0.00
425.26	0.00
425.45	0.00
425.64	0.00
425.83	0.00
426.01	0.00
426.20	0.00
426.39	0.00
426.58	0.00
426.77	0.00
426.96	0.00
427.15	0.00
427.33	0.00
427.52	0.00
427.71	0.00
427.90	0.00
428.09	0.00
428.28	0.00
428.46	0.00
428.65	0.00
428.84	0.00
429.03	0.00
429.22	0.00
429.40	0.00
429.59	0.00
429.78	0.00
429.97	0.00
430.16	0.00
430.34	0.00
430.53	0.00
430.72	0.00
430.91	0.00
431.10	0.00
431.28	0.00
431.47	0.00
431.66	0.00
431.85	0.00
432.03	0.00
432.22	0.00
432.41	0.00
432.60	0.00
432.79	0.00
432.97	0.00
433.16	0.00
433.35	0.00
433.54	0.00
433.72	0.00
433.91	0.00
434.10	0.00
434.28	0.00
434.47	0.00
434.66	0.00
434.85	0.00
435.03	0.00
435.22	0.00
435.41	0.00
435.59	0.00
435.78	0.00
435.97	0.00
436.16	0.00
436.34	0.00
436.53	0.00
436.72	0.00
436.90	0.00
437.09	0.00
437.28	0.00
437.46	0.00
437.65	0.00
437.84	0.00
438.02	0.00
438.21	0.00
438.40	0.00
438.58	0.00
438.77	0.00
438.96	0.00
439.14	0.00
439.33	0.00
439.52	0.00
439.70	0.00
439.89	0.00
440.08	0.00
440.26	0.00
440.45	0.00
440.63	0.00
440.82	0.00
441.01	0.00
441.19	0.00
441.38	0.00
441.57	0.00
441.75	0.00
441.94	0.00
442.12	0.00
442.31	0.00
442.50	0.00
442.68	0.00
442.87	0.00
443.05	0.00
443.24	0.00
443.43	0.00
443.61	4.68
443.80	0.00
443.98	0.00
444.17	0.00
444.35	0.00
444.54	0.00
444.73	0.00
444.91	0.00
445.10	0.00
445.28	0.00
445.47	0.00
445.65	0.00
445.84	0.00
446.02	0.00
446.21	0.00
446.39	0.00
446.58	0.00
446.77	0.00
446.95	0.00
447.14	0.00
447.32	0.00
447.51	0.00
447.69	0.00
447.88	0.00
448.06	49.15
448.25	0.00
448.43	0.00
448.62	0.00
448.80	0.00
448.99	0.00
449.17	0.00
449.36	0.00
449.54	0.00
449.73	0.00
449.91	0.00
450.10	0.00
450.28	110.01
450.46	84.26
450.65	0.00
450.83	0.00
451.02	0.00
451.20	0.00
451.39	0.00
451.57	0.00
451.76	0.00
451.94	0.00
452.13	0.00
452.31	14.04
452.49	0.00
452.68	0.00
452.86	0.00
453.05	0.00
453.23	0.00
453.42	0.00
453.60	0.00
453.78	0.00
453.97	0.00
454.15	0.00
454.34	9.36
454.52	0.00
454.70	44.47
454.89	0.00
455.07	0.00
455.26	18.72
455.44	2.34
455.62	0.00
455.81	0.00
455.99	42.13
456.17	0.00
456.36	0.00
456.54	2.34
456.73	0.00
456.91	37.45
457.09	0.00
457.28	0.00
457.46	0.00
457.64	0.00
457.83	0.00
458.01	0.00
458.19	0.00
458.38	0.00
458.56	2.34
458.74	0.00
458.93	0.00
459.11	0.00
459.29	0.00
459.48	0.00
459.66	65.54
459.84	0.00
460.03	56.17
460.21	0.00
460.39	0.00
460.57	0.00
460.76	0.00
460.94	0.00
461.12	42.13
461.31	30.43
461.49	0.00
461.67	0.00
461.85	18.72
462.04	0.00
462.22	561.73
462.40	37.45
462.59	124.05
462.77	0.00
462.95	0.00
463.13	0.00
463.32	0.00
463.50	25.75
463.68	28.09
463.86	28.09
464.05	0.00
464.23	0.00
464.41	16.38
464.59	0.00
464.78	0.00
464.96	23.41
465.14	56.17
465.32	0.00
465.50	0.00
465.69	25.75
465.87	0.00
466.05	0.00
466.23	0.00
466.41	0.00
466.60	9.36
466.78	0.00
466.96	58.51
467.14	0.00
467.32	0.00
467.51	0.00
467.69	42.13
467.87	0.00
468.05	0.00
468.23	16.38
468.41	56.17
468.60	0.00
468.78	0.00
468.96	0.00
469.14	0.00
469.32	0.00
469.50	0.00
469.69	0.00
469.87	0.00
470.05	0.00
470.23	0.00
470.41	0.00
470.59	0.00
470.77	0.00
470.95	18.72
471.14	93.62
471.32	0.00
471.50	7.02
471.68	0.00
471.86	11.70
472.04	0.00
472.22	0.00
472.40	0.00
472.58	0.00
472.77	0.00
472.95	0.00
473.13	46.81
473.31	70.22
473.49	0.00
473.67	0.00
473.85	0.00
474.03	0.00
474.21	0.00
474.39	100.64
474.57	60.85
474.75	4.68
474.93	0.00
475.12	0.00
475.30	25.75
475.48	46.81
475.66	18.72
475.84	0.00
476.02	21.06
476.20	21.06
476.38	23.41
476.56	98.30
476.74	67.88
476.92	0.00
477.10	0.00
477.28	9.36
477.46	0.00
477.64	37.45
477.82	35.11
478.00	42.13
478.18	39.79
478.36	42.13
478.54	42.13
478.72	2.34
478.90	49.15
479.08	102.98
479.26	51.49
479.44	46.81
479.62	16.38
479.80	0.00
479.98	0.00
480.16	37.45
480.34	56.17
480.52	2.34
480.70	91.28
480.88	121.71
481.06	46.81
481.24	9.36
481.41	0.00
481.59	81.92
481.77	60.85
481.95	39.79
482.13	124.05
482.31	70.22
482.49	28.09
482.67	67.88
482.85	138.09
483.03	49.15
483.21	93.62
483.39	53.83
483.57	93.62
483.74	126.39
483.92	18.72
484.10	53.83
484.28	58.51
484.46	154.48
484.64	74.90
484.82	142.77
485.00	25.75
485.18	37.45
485.35	53.83
485.53	0.00
485.71	74.90
485.89	0.00
486.07	0.00
486.25	91.28
486.43	107.66
486.61	11.70
486.78	86.60
486.96	28.09
487.14	63.19
487.32	126.39
487.50	70.22
487.68	74.90
487.85	131.07
488.03	112.35
488.21	210.65
488.39	147.45
488.57	128.73
488.75	67.88
488.92	308.95
489.10	110.01
489.28	215.33
489.46	196.60
489.64	100.64
489.81	138.09
489.99	168.52
490.17	88.94
490.35	241.08
490.53	135.75
490.70	98.30
490.88	236.39
491.06	156.82
491.24	182.56
491.41	138.09
491.59	117.03
491.77	145.11
491.95	91.28
492.13	86.60
492.30	187.24
492.48	114.69
492.66	191.92
492.84	119.37
493.01	175.54
493.19	149.79
493.37	248.10
493.54	142.77
493.72	234.05
493.90	208.31
494.08	100.64
494.25	170.86
494.43	234.05
494.61	67.88
494.79	60.85
494.96	156.82
495.14	231.71
495.32	145.11
495.49	105.32
495.67	177.88
495.85	241.08
496.02	175.54
496.20	266.82
496.38	259.80
496.55	217.67
496.73	205.97
496.91	203.63
497.09	147.45
497.26	138.09
497.44	147.45
497.62	198.95
497.79	173.20
497.97	154.48
498.14	131.07
498.32	189.58
498.50	229.37
498.67	184.90
498.85	210.65
499.03	152.13
499.20	259.80
499.38	177.88
499.56	117.03
499.73	262.14
499.91	177.88
500.08	205.97
500.26	259.80
500.44	180.22
500.61	177.88
500.79	198.95
500.97	252.78
501.14	278.52
501.32	252.78
501.49	205.97
501.67	203.63
501.84	327.68
502.02	189.58
502.20	315.97
502.37	205.97
502.55	182.56
502.72	269.16
502.90	278.52
503.07	229.37
503.25	187.24
503.43	191.92
503.60	173.20
503.78	163.84
503.95	231.71
504.13	248.10
504.30	187.24
504.48	138.09
504.65	252.78
504.83	273.84
505.01	201.29
505.18	292.57
505.36	276.18
505.53	299.59
505.71	264.48
505.88	369.80
506.06	241.08
506.23	212.99
506.41	262.14
506.58	322.99
506.76	266.82
506.93	208.31
507.11	278.52
507.28	327.68
507.46	201.29
507.63	224.69
507.81	168.52
507.98	294.91
508.16	152.13
508.33	203.63
508.50	248.10
508.68	278.52
508.85	271.50
509.03	327.68
509.20	250.44
509.38	285.55
509.55	320.65
509.73	196.60
509.90	210.65
510.08	271.50
510.25	365.12
510.42	205.97
510.60	212.99
510.77	280.86
510.95	306.61
511.12	386.19
511.30	369.80
511.47	325.33
511.64	320.65
511.82	276.18
511.99	210.65
512.17	205.97
512.34	215.33
512.51	262.14
512.69	257.46
512.86	266.82
513.04	241.08
513.21	257.46
513.38	285.55
513.56	224.69
513.73	189.58
513.90	250.44
514.08	250.44
514.25	252.78
514.43	273.84
514.60	278.52
514.77	170.86
514.95	292.57
515.12	276.18
515.29	234.05
515.47	292.57
515.64	313.63
515.81	287.89
515.99	327.68
516.16	208.31
516.33	273.84
516.51	135.75
516.68	152.13
516.85	191.92
517.03	173.20
517.20	243.42
517.37	283.20
517.54	229.37
517.72	259.80
517.89	234.05
518.06	105.32
518.24	250.44
518.41	287.89
518.58	301.93
518.75	189.58
518.93	196.60
519.10	252.78
519.27	304.27
519.45	231.71
519.62	236.39
519.79	255.12
519.96	222.35
520.14	234.05
520.31	283.20
520.48	313.63
520.65	297.25
520.83	435.34
521.00	386.19
521.17	285.55
521.34	280.86
521.52	278.52
521.69	290.23
521.86	285.55
522.03	330.02
522.20	327.68
522.38	271.50
522.55	344.06
522.72	266.82
522.89	262.14
523.07	362.78
523.24	353.42
523.41	271.50
523.58	252.78
523.75	362.78
523.92	280.86
524.10	269.16
524.27	325.33
524.44	301.93
524.61	318.31
524.78	313.63
524.96	393.21
525.13	294.91
525.30	353.42
525.47	304.27
525.64	308.95
525.81	280.86
525.98	252.78
526.16	339.38
526.33	252.78
526.50	182.56
526.67	287.89
526.84	189.58
527.01	280.86
527.18	262.14
527.36	290.23
527.53	304.27
527.70	294.91
527.87	313.63
528.04	292.57
528.21	320.65
528.38	411.93
528.55	454.06
528.72	318.31
528.89	367.46
529.07	379.17
529.24	339.38
529.41	407.25
529.58	344.06
529.75	320.65
529.92	411.93
530.09	365.12
530.26	407.25
530.43	383.85
530.60	308.95
530.77	341.72
530.94	390.87
531.11	290.23
531.28	374.49
531.46	379.17
531.63	346.40
531.80	320.65
531.97	322.99
532.14	332.36
532.31	322.99
532.48	299.59
532.65	231.71
532.82	308.95
532.99	269.16
533.16	367.46
533.33	390.87
533.50	346.40
533.67	322.99
533.84	241.08
534.01	322.99
534.18	262.14
534.35	292.57
534.52	383.85
534.69	451.72
534.86	365.12
535.03	404.91
535.20	320.65
535.37	400.23
535.54	472.79
535.71	388.53
535.88	372.15
536.05	383.85
536.22	358.10
536.38	341.72
536.55	351.08
536.72	393.21
536.89	259.80
537.06	313.63
537.23	269.16
537.40	358.10
537.57	311.29
537.74	358.10
537.91	393.21
538.08	416.62
538.25	423.64
538.42	304.27
538.59	402.57
538.75	327.68
538.92	231.71
539.09	339.38
539.26	234.05
539.43	318.31
539.60	346.40
539.77	315.97
539.94	271.50
540.11	355.76
540.28	292.57
540.44	367.46
540.61	339.38
540.78	379.17
540.95	308.95
541.12	430.66
541.29	322.99
541.46	442.36
541.62	297.25
541.79	344.06
541.96	360.44
542.13	334.70
542.30	339.38
542.47	372.15
542.63	353.42
542.80	339.38
542.97	395.55
543.14	306.61
543.31	351.08
543.48	362.78
543.64	339.38
543.81	304.27
543.98	372.15
544.15	259.80
544.32	334.70
544.48	337.04
544.65	327.68
544.82	278.52
544.99	283.20
545.16	315.97
545.32	320.65
545.49	444.70
545.66	346.40
545.83	306.61
546.00	353.42
546.16	386.19
546.33	315.97
546.50	337.04
546.67	433.00
546.83	360.44
547.00	433.00
547.17	301.93
547.34	224.69
547.50	348.74
547.67	351.08
547.84	297.25
548.00	360.44
548.17	290.23
548.34	311.29
548.51	358.10
548.67	374.49
548.84	344.06
549.01	402.57
549.18	320.65
549.34	344.06
549.51	278.52
549.68	341.72
549.84	362.78
550.01	334.70
550.18	500.87
550.34	421.30
550.51	451.72
550.68	304.27
550.84	353.42
551.01	353.42
551.18	379.17
551.34	315.97
551.51	311.29
551.68	353.42
551.84	461.09
552.01	313.63
552.18	287.89
552.34	341.72
552.51	325.33
552.68	330.02
552.84	271.50
553.01	327.68
553.18	367.46
553.34	344.06
553.51	339.38
553.67	367.46
553.84	423.64
554.01	320.65
554.17	397.89
554.34	400.23
554.51	381.51
554.67	397.89
554.84	397.89
555.00	390.87
555.17	362.78
555.33	430.66
555.50	358.10
555.67	414.27
555.83	299.59
556.00	411.93
556.16	592.16
556.33	430.66
556.50	386.19
556.66	313.63
556.83	299.59
556.99	341.72
557.16	341.72
557.32	367.46
557.49	313.63
557.65	304.27
557.82	374.49
557.98	372.15
558.15	407.25
558.32	358.10
558.48	353.42
558.65	231.71
558.81	294.91
558.98	346.40
559.14	395.55
559.31	381.51
559.47	325.33
559.64	243.42
559.80	358.10
559.97	337.04
560.13	327.68
560.30	278.52
560.46	386.19
560.63	325.33
560.79	390.87
560.96	351.08
561.12	400.23
561.29	374.49
561.45	400.23
561.61	318.31
561.78	367.46
561.94	322.99
562.11	381.51
562.27	393.21
562.44	348.74
562.60	355.76
562.77	341.72
562.93	486.83
563.10	404.91
563.26	407.25
563.42	353.42
563.59	311.29
563.75	306.61
563.92	285.55
564.08	491.51
564.24	348.74
564.41	421.30
564.57	341.72
564.74	285.55
564.90	301.93
565.07	315.97
565.23	395.55
565.39	306.61
565.56	369.80
565.72	346.40
565.88	294.91
566.05	306.61
566.21	283.20
566.38	341.72
566.54	344.06
566.70	341.72
566.87	341.72
567.03	327.68
567.19	369.80
567.36	297.25
567.52	327.68
567.68	353.42
567.85	393.21
568.01	280.86
568.17	280.86
568.34	248.10
568.50	360.44
568.66	304.27
568.83	440.02
568.99	325.33
569.15	269.16
569.32	327.68
569.48	259.80
569.64	262.14
569.81	362.78
569.97	313.63
570.13	346.40
570.30	311.29
570.46	322.99
570.62	327.68
570.78	234.05
570.95	250.44
571.11	367.46
571.27	362.78
571.43	344.06
571.60	355.76
571.76	250.44
571.92	421.30
572.09	365.12
572.25	320.65
572.41	290.23
572.57	388.53
572.74	409.59
572.90	393.21
573.06	397.89
573.22	292.57
573.38	402.57
573.55	344.06
573.71	330.02
573.87	440.02
574.03	308.95
574.20	287.89
574.36	306.61
574.52	313.63
574.68	243.42
574.84	320.65
575.01	301.93
575.17	344.06
575.33	318.31
575.49	344.06
575.65	344.06
575.82	390.87
575.98	421.30
576.14	334.70
576.30	273.84
576.46	248.10
576.62	330.02
576.79	257.46
576.95	381.51
577.11	241.08
577.27	301.93
577.43	456.40
577.59	311.29
577.75	297.25
577.92	330.02
578.08	220.01
578.24	255.12
578.40	334.70
578.56	318.31
578.72	259.80
578.88	271.50
579.04	346.40
579.21	348.74
579.37	308.95
579.53	222.35
579.69	376.83
579.85	301.93
580.01	395.55
580.17	301.93
580.33	292.57
580.49	308.95
580.65	320.65
580.82	294.91
580.98	196.60
581.14	248.10
581.30	327.68
581.46	301.93
581.62	341.72
581.78	416.62
581.94	318.31
582.10	304.27
582.26	344.06
582.42	428.32
582.58	304.27
582.74	276.18
582.90	280.86
583.06	362.78
583.22	339.38
583.38	290.23
583.54	320.65
583.70	318.31
583.86	362.78
584.02	315.97
584.18	318.31
584.34	315.97
584.50	269.16
584.66	290.23
584.82	220.01
584.98	358.10
585.14	231.71
585.30	386.19
585.46	276.18
585.62	318.31
585.78	330.02
585.94	369.80
586.10	290.23
586.26	346.40
586.42	407.25
586.58	447.04
586.74	257.46
586.90	313.63
587.06	344.06
587.22	411.93
587.38	297.25
587.54	308.95
587.70	353.42
587.86	365.12
588.02	243.42
588.18	308.95
588.34	386.19
588.49	156.82
588.65	220.01
588.81	177.88
588.97	163.84
589.13	159.16
589.29	196.60
589.45	191.92
589.61	292.57
589.77	269.16
589.93	231.71
590.08	301.93
590.24	252.78
590.40	234.05
590.56	327.68
590.72	330.02
590.88	269.16
591.04	313.63
591.20	320.65
591.35	334.70
591.51	315.97
591.67	217.67
591.83	318.31
591.99	313.63
592.15	334.70
592.31	299.59
592.46	315.97
592.62	273.84
592.78	248.10
592.94	353.42
593.10	332.36
593.26	266.82
593.41	306.61
593.57	337.04
593.73	292.57
593.89	304.27
594.05	224.69
594.20	198.95
594.36	355.76
594.52	337.04
594.68	198.95
594.84	278.52
594.99	318.31
595.15	320.65
595.31	320.65
595.47	344.06
595.62	360.44
595.78	348.74
595.94	362.78
596.10	292.57
596.25	227.03
596.41	287.89
596.57	245.76
596.73	360.44
596.88	315.97
597.04	271.50
597.20	264.48
597.36	311.29
597.51	306.61
597.67	287.89
597.83	271.50
597.99	381.51
598.14	313.63
598.30	285.55
598.46	264.48
598.61	294.91
598.77	273.84
598.93	301.93
599.09	313.63
599.24	278.52
599.40	276.18
599.56	297.25
599.71	299.59
599.87	264.48
600.03	334.70
600.18	241.08
600.34	259.80
600.50	283.20
600.65	297.25
600.81	245.76
600.97	299.59
601.12	306.61
601.28	292.57
601.44	306.61
601.59	227.03
601.75	283.20
601.91	231.71
602.06	280.86
602.22	376.83
602.37	259.80
602.53	243.42
602.69	372.15
602.84	217.67
603.00	257.46
603.16	285.55
603.31	301.93
603.47	299.59
603.62	255.12
603.78	299.59
603.94	334.70
604.09	360.44
604.25	250.44
604.40	362.78
604.56	168.52
604.71	243.42
604.87	215.33
605.03	217.67
605.18	248.10
605.34	280.86
605.49	269.16
605.65	318.31
605.80	271.50
605.96	238.73
606.12	334.70
606.27	376.83
606.43	248.10
606.58	353.42
606.74	248.10
606.89	299.59
607.05	346.40
607.20	266.82
607.36	266.82
607.51	215.33
607.67	311.29
607.82	241.08
607.98	325.33
608.13	257.46
608.29	234.05
608.44	306.61
608.60	255.12
608.75	299.59
608.91	301.93
609.06	315.97
609.22	337.04
609.37	255.12
609.53	264.48
609.68	203.63
609.84	198.95
609.99	348.74
610.15	264.48
610.30	311.29
610.46	299.59
610.61	285.55
610.76	271.50
610.92	313.63
611.07	189.58
611.23	208.31
611.38	346.40
611.54	215.33
611.69	238.73
611.84	278.52
612.00	201.29
612.15	208.31
612.31	182.56
612.46	220.01
612.62	278.52
612.77	341.72
612.92	245.76
613.08	236.39
613.23	229.37
613.39	320.65
613.54	198.95
613.69	177.88
613.85	220.01
614.00	234.05
614.15	285.55
614.31	189.58
614.46	290.23
614.62	280.86
614.77	297.25
614.92	177.88
615.08	250.44
615.23	212.99
615.38	224.69
615.54	227.03
615.69	124.05
615.84	140.43
616.00	208.31
616.15	229.37
616.30	283.20
616.46	215.33
616.61	227.03
616.76	220.01
616.92	196.60
617.07	262.14
617.22	149.79
617.37	311.29
617.53	297.25
617.68	224.69
617.83	245.76
617.99	306.61
618.14	278.52
618.29	327.68
618.45	175.54
618.60	205.97
618.75	210.65
618.90	184.90
619.06	210.65
619.21	252.78
619.36	227.03
619.51	220.01
619.67	271.50
619.82	180.22
619.97	351.08
620.12	196.60
620.28	194.26
620.43	222.35
620.58	304.27
620.73	245.76
620.89	292.57
621.04	241.08
621.19	255.12
621.34	222.35
621.49	262.14
621.65	285.55
621.80	215.33
621.95	231.71
622.10	234.05
622.25	154.48
622.41	297.25
622.56	175.54
622.71	255.12
622.86	180.22
623.01	180.22
623.16	266.82
623.32	217.67
623.47	224.69
623.62	198.95
623.77	112.35
623.92	182.56
624.07	252.78
624.23	191.92
624.38	161.50
624.53	180.22
624.68	234.05
624.83	212.99
624.98	154.48
625.13	191.92
625.29	175.54
625.44	220.01
625.59	166.18
625.74	250.44
625.89	191.92
626.04	131.07
626.19	196.60
626.34	224.69
626.49	205.97
626.65	156.82
626.80	189.58
626.95	238.73
627.10	257.46
627.25	175.54
627.40	182.56
627.55	255.12
627.70	196.60
627.85	215.33
628.00	140.43
628.15	184.90
628.30	208.31
628.45	187.24
628.60	131.07
628.76	133.41
628.91	135.75
629.06	189.58
629.21	196.60
629.36	126.39
629.51	147.45
629.66	175.54
629.81	196.60
629.96	138.09
630.11	194.26
630.26	201.29
630.41	156.82
630.56	163.84
630.71	133.41
630.86	170.86
631.01	159.16
631.16	102.98
631.31	145.11
631.46	208.31
631.61	166.18
631.76	145.11
631.91	142.77
632.06	205.97
632.21	175.54
632.36	201.29
632.51	133.41
632.66	145.11
632.81	196.60
632.96	187.24
633.10	133.41
633.25	212.99
633.40	184.90
633.55	243.42
633.70	198.95
633.85	187.24
634.00	224.69
634.15	56.17
634.30	198.95
634.45	161.50
634.60	170.86
634.75	173.20
634.90	149.79
635.05	166.18
635.19	262.14
635.34	229.37
635.49	184.90
635.64	180.22
635.79	154.48
635.94	229.37
636.09	154.48
636.24	189.58
636.39	245.76
636.53	98.30
636.68	154.48
636.83	161.50
636.98	210.65
637.13	159.16
637.28	177.88
637.43	184.90
637.57	220.01
637.72	217.67
637.87	252.78
638.02	203.63
638.17	196.60
638.32	210.65
638.46	166.18
638.61	259.80
638.76	212.99
638.91	222.35
639.06	175.54
639.20	241.08
639.35	184.90
639.50	196.60
639.65	175.54
639.80	175.54
639.94	234.05
640.09	175.54
640.24	234.05
640.39	175.54
640.54	248.10
640.68	210.65
640.83	180.22
640.98	175.54
641.13	156.82
641.27	175.54
641.42	182.56
641.57	301.93
641.72	161.50
641.86	84.26
642.01	212.99
642.16	194.26
642.31	124.05
642.45	156.82
642.60	159.16
642.75	121.71
642.90	212.99
643.04	138.09
643.19	91.28
643.34	131.07
643.48	187.24
643.63	140.43
643.78	170.86
643.93	180.22
644.07	177.88
644.22	145.11
644.37	49.15
644.51	145.11
644.66	126.39
644.81	189.58
644.95	107.66
645.10	131.07
645.25	191.92
645.39	100.64
645.54	149.79
645.69	205.97
645.83	44.47
645.98	175.54
646.13	145.11
646.27	119.37
646.42	18.72
646.57	35.11
646.71	168.52
646.86	70.22
647.00	114.69
647.15	215.33
647.30	100.64
647.44	170.86
647.59	107.66
647.74	30.43
647.88	107.66
648.03	187.24
648.17	159.16
648.32	0.00
648.47	177.88
648.61	156.82
648.76	63.19
648.90	117.03
649.05	72.56
649.20	53.83
649.34	95.96
649.49	93.62
649.63	60.85
649.78	145.11
649.92	67.88
650.07	114.69
650.21	32.77
650.36	72.56
650.51	86.60
650.65	149.79
650.80	72.56
650.94	86.60
651.09	112.35
651.23	56.17
651.38	65.54
651.52	147.45
651.67	198.95
651.81	98.30
651.96	201.29
652.10	245.76
652.25	119.37
652.39	154.48
652.54	117.03
652.68	201.29
652.83	201.29
652.97	138.09
653.12	173.20
653.26	135.75
653.41	154.48
653.55	114.69
653.70	35.11
653.84	110.01
653.99	56.17
654.13	49.15
654.27	11.70
654.42	112.35
654.56	81.92
654.71	210.65
654.85	72.56
655.00	100.64
655.14	93.62
655.29	46.81
655.43	65.54
655.57	0.00
655.72	131.07
655.86	25.75
656.01	95.96
656.15	60.85
656.30	152.13
656.44	0.00
656.58	0.00
656.73	166.18
656.87	58.51
657.01	102.98
657.16	93.62
657.30	16.38
657.45	126.39
657.59	60.85
657.73	79.58
657.88	154.48
658.02	166.18
658.16	117.03
658.31	114.69
658.45	105.32
658.60	163.84
658.74	2.34
658.88	112.35
659.03	0.00
659.17	77.24
659.31	117.03
659.46	145.11
659.60	91.28
659.74	74.90
659.89	65.54
660.03	121.71
660.17	140.43
660.32	53.83
660.46	154.48
660.60	159.16
660.74	86.60
660.89	81.92
661.03	56.17
661.17	30.43
661.32	65.54
661.46	53.83
661.60	163.84
661.74	138.09
661.89	138.09
662.03	147.45
662.17	84.26
662.31	65.54
662.46	88.94
662.60	93.62
662.74	46.81
662.88	91.28
663.03	173.20
663.17	56.17
663.31	74.90
663.45	114.69
663.60	102.98
663.74	112.35
663.88	51.49
664.02	149.79
664.17	102.98
664.31	102.98
664.45	114.69
664.59	63.19
664.73	77.24
664.88	133.41
665.02	60.85
665.16	18.72
665.30	140.43
665.44	107.66
665.59	63.19
665.73	135.75
665.87	58.51
666.01	39.79
666.15	35.11
666.29	58.51
666.44	72.56
666.58	145.11
666.72	93.62
666.86	67.88
667.00	114.69
667.14	81.92
667.28	119.37
667.43	51.49
667.57	21.06
667.71	84.26
667.85	58.51
667.99	100.64
668.13	53.83
668.27	74.90
668.41	72.56
668.56	74.90
668.70	77.24
668.84	95.96
668.98	46.81
669.12	98.30
669.26	74.90
669.40	217.67
669.54	140.43
669.68	215.33
669.82	2.34
669.96	119.37
670.10	81.92
670.25	95.96
670.39	140.43
670.53	30.43
670.67	60.85
670.81	46.81
670.95	67.88
671.09	74.90
671.23	138.09
671.37	16.38
671.51	58.51
671.65	65.54
671.79	81.92
671.93	4.68
672.07	138.09
672.21	133.41
672.35	70.22
672.49	70.22
672.63	42.13
672.77	74.90
672.91	70.22
673.05	37.45
673.19	30.43
673.33	0.00
673.47	81.92
673.61	0.00
673.75	51.49
673.89	53.83
674.03	67.88
674.17	58.51
674.31	65.54
674.45	42.13
674.59	93.62
674.73	0.00
674.87	0.00
675.01	112.35
675.15	86.60
675.29	114.69
675.43	84.26
675.56	91.28
675.70	74.90
675.84	0.00
675.98	84.26
676.12	0.00
676.26	35.11
676.40	35.11
676.54	0.00
676.68	0.00
676.82	28.09
676.96	25.75
677.10	11.70
677.23	0.00
677.37	0.00
677.51	0.00
677.65	49.15
677.79	0.00
677.93	30.43
678.07	0.00
678.21	42.13
678.34	0.00
678.48	0.00
678.62	0.00
678.76	0.00
678.90	0.00
679.04	0.00
679.18	9.36
679.31	0.00
679.45	0.00
679.59	152.13
679.73	14.04
679.87	0.00
680.00	49.15
680.14	67.88
680.28	25.75
680.42	11.70
680.56	11.70
680.70	0.00
680.83	18.72
680.97	0.00
681.11	0.00
681.25	9.36
681.39	37.45
681.52	0.00
681.66	0.00
681.80	11.70
681.94	18.72
682.07	0.00
682.21	0.00
682.35	0.00
682.49	0.00
682.62	14.04
682.76	0.00
682.90	0.00
683.04	14.04
683.17	0.00
683.31	0.00
683.45	30.43
683.59	28.09
683.72	0.00
683.86	0.00
684.00	0.00
684.13	18.72
684.27	63.19
684.41	0.00
684.55	0.00
684.68	0.00
684.82	0.00
684.96	0.00
685.09	0.00
685.23	0.00
685.37	0.00
685.50	14.04
685.64	21.06
685.78	0.00
685.91	2.34
686.05	0.00
686.19	0.00
686.32	0.00
686.46	28.09
686.60	0.00
686.73	35.11
686.87	0.00
687.01	0.00
687.14	0.00
687.28	0.00
687.42	0.00
687.55	0.00
687.69	32.77
687.82	0.00
687.96	0.00
688.10	16.38
688.23	0.00
688.37	0.00
688.50	0.00
688.64	0.00
688.78	0.00
688.91	0.00
689.05	0.00
689.18	0.00
689.32	0.00
689.46	0.00
689.59	0.00
689.73	0.00
689.86	0.00
690.00	0.00
690.13	0.00
690.27	0.00
690.41	0.00
690.54	0.00
690.68	0.00
690.81	0.00
690.95	0.00
691.08	0.00
691.22	0.00
691.35	0.00
691.49	0.00
691.62	0.00
691.76	0.00
691.89	0.00
692.03	0.00
692.16	0.00
692.30	0.00
692.43	0.00
692.57	0.00
692.70	0.00
692.84	0.00
692.97	0.00
693.11	0.00
693.24	0.00
693.38	0.00
693.51	0.00
693.65	0.00
693.78	0.00
693.92	0.00
694.05	0.00
694.19	0.00
694.32	0.00
694.45	0.00
694.59	0.00
694.72	0.00
694.86	0.00
694.99	0.00
695.13	0.00
695.26	0.00
695.39	0.00
695.53	0.00
695.66	0.00
695.80	0.00
695.93	0.00
696.07	0.00
696.20	0.00
696.33	0.00
696.47	0.00
696.60	0.00
696.73	0.00
696.87	0.00
697.00	0.00
697.14	0.00
697.27	0.00
697.40	0.00
697.54	0.00
697.67	0.00
697.80	0.00
697.94	0.00
698.07	0.00
698.21	0.00
698.34	0.00
698.47	0.00
698.61	0.00
698.74	0.00
698.87	0.00
699.01	0.00
699.14	0.00
699.27	0.00
699.40	0.00
699.54	0.00
699.67	0.00
699.80	0.00
699.94	0.00
700.07	0.00
700.20	0.00
700.34	0.00
700.47	0.00
700.60	0.00
700.73	0.00
700.87	0.00
701.00	0.00
701.13	0.00
701.26	0.00
701.40	0.00
701.53	0.00
701.66	0.00
701.79	0.00
701.93	0.00
702.06	0.00
702.19	0.00
702.32	0.00
702.46	0.00
702.59	0.00
702.72	0.00
702.85	0.00
702.99	0.00
703.12	0.00
703.25	0.00
703.38	0.00
703.51	0.00
703.65	0.00
703.78	0.00
703.91	0.00
704.04	0.00
704.17	0.00
704.31	0.00
704.44	0.00
704.57	0.00
704.70	0.00
704.83	0.00
704.96	0.00
705.10	0.00
705.23	0.00
>>>>>End Processed Spectral Data<<<<<
