SpectraSuite Data File
++++++++++++++++++++++++++++++++++++
Date: Mon Oct 07 14:59:56 GMT-05:00 2013
User: price-jones
Dark Spectrum Present: No
Reference Spectrum Present: No
Number of Sampled Component Spectra: 1
Spectrometers: USB2+H05261
Integration Time (usec): 100000 (USB2+H05261)
Spectra Averaged: 1 (USB2+H05261)
Boxcar Smoothing: 0 (USB2+H05261)
Correct for Electrical Dark: No (USB2+H05261)
Strobe/Lamp Enabled: No (USB2+H05261)
Correct for Detector Non-linearity: No (USB2+H05261)
Correct for Stray Light: No (USB2+H05261)
Number of Pixels in Processed Spectrum: 2048
>>>>>Begin Processed Spectral Data<<<<<
365.73	0.00
365.92	0.00
366.12	0.00
366.32	0.00
366.52	0.00
366.72	0.00
366.91	0.00
367.11	0.00
367.31	0.00
367.51	0.00
367.70	0.00
367.90	0.00
368.10	0.00
368.30	0.00
368.49	0.00
368.69	0.00
368.89	0.00
369.09	0.00
369.28	0.00
369.48	0.00
369.68	0.00
369.87	0.00
370.07	0.00
370.27	0.00
370.47	0.00
370.66	0.00
370.86	0.00
371.06	0.00
371.25	0.00
371.45	0.00
371.65	0.00
371.84	0.00
372.04	0.00
372.24	0.00
372.44	0.00
372.63	0.00
372.83	0.00
373.03	0.00
373.22	0.00
373.42	0.00
373.62	0.00
373.81	0.00
374.01	0.00
374.21	0.00
374.40	0.00
374.60	0.00
374.79	0.00
374.99	0.00
375.19	0.00
375.38	0.00
375.58	0.00
375.78	0.00
375.97	0.00
376.17	0.00
376.37	0.00
376.56	0.00
376.76	0.00
376.95	0.00
377.15	0.00
377.35	0.00
377.54	0.00
377.74	0.00
377.93	0.00
378.13	0.00
378.33	0.00
378.52	0.00
378.72	0.00
378.91	0.00
379.11	0.00
379.31	0.00
379.50	0.00
379.70	0.00
379.89	0.00
380.09	0.00
380.28	0.00
380.48	0.00
380.68	0.00
380.87	0.00
381.07	0.00
381.26	0.00
381.46	0.00
381.65	0.00
381.85	0.00
382.04	0.00
382.24	0.00
382.43	0.00
382.63	0.00
382.83	0.00
383.02	0.00
383.22	0.00
383.41	0.00
383.61	0.00
383.80	0.00
384.00	0.00
384.19	0.00
384.39	0.00
384.58	0.00
384.78	0.00
384.97	0.00
385.17	0.00
385.36	0.00
385.56	0.00
385.75	0.00
385.95	0.00
386.14	0.00
386.34	0.00
386.53	0.00
386.72	0.00
386.92	0.00
387.11	0.00
387.31	0.00
387.50	0.00
387.70	0.00
387.89	0.00
388.09	0.00
388.28	0.00
388.48	0.00
388.67	0.00
388.86	0.00
389.06	0.00
389.25	0.00
389.45	0.00
389.64	0.00
389.84	0.00
390.03	0.00
390.22	0.00
390.42	0.00
390.61	0.00
390.81	0.00
391.00	0.00
391.19	0.00
391.39	0.00
391.58	0.00
391.78	0.00
391.97	0.00
392.16	0.00
392.36	0.00
392.55	0.00
392.75	0.00
392.94	0.00
393.13	0.00
393.33	0.00
393.52	0.00
393.71	0.00
393.91	0.00
394.10	0.00
394.29	0.00
394.49	0.00
394.68	0.00
394.88	0.00
395.07	0.00
395.26	0.00
395.46	0.00
395.65	0.00
395.84	0.00
396.04	0.00
396.23	0.00
396.42	0.00
396.62	0.00
396.81	0.00
397.00	0.00
397.19	0.00
397.39	0.00
397.58	0.00
397.77	0.00
397.97	0.00
398.16	0.00
398.35	0.00
398.55	0.00
398.74	0.00
398.93	0.00
399.12	0.00
399.32	0.00
399.51	0.00
399.70	0.00
399.90	0.00
400.09	0.00
400.28	0.00
400.47	0.00
400.67	0.00
400.86	0.00
401.05	0.00
401.24	0.00
401.44	0.00
401.63	0.00
401.82	0.00
402.01	0.00
402.21	0.00
402.40	0.00
402.59	0.00
402.78	0.00
402.97	0.00
403.17	0.00
403.36	0.00
403.55	0.00
403.74	0.00
403.93	0.00
404.13	0.00
404.32	0.00
404.51	0.00
404.70	0.00
404.89	0.00
405.09	0.00
405.28	0.00
405.47	0.00
405.66	0.00
405.85	0.00
406.05	0.00
406.24	0.00
406.43	0.00
406.62	0.00
406.81	0.00
407.00	0.00
407.20	0.00
407.39	0.00
407.58	0.00
407.77	0.00
407.96	0.00
408.15	0.00
408.34	0.00
408.54	0.00
408.73	0.00
408.92	0.00
409.11	0.00
409.30	0.00
409.49	0.00
409.68	0.00
409.87	0.00
410.07	0.00
410.26	0.00
410.45	0.00
410.64	0.00
410.83	0.00
411.02	0.00
411.21	0.00
411.40	0.00
411.59	0.00
411.78	0.00
411.98	0.00
412.17	0.00
412.36	0.00
412.55	0.00
412.74	0.00
412.93	0.00
413.12	0.00
413.31	0.00
413.50	0.00
413.69	0.00
413.88	0.00
414.07	0.00
414.26	0.00
414.45	0.00
414.64	0.00
414.83	0.00
415.02	0.00
415.22	0.00
415.41	0.00
415.60	0.00
415.79	0.00
415.98	0.00
416.17	0.00
416.36	0.00
416.55	0.00
416.74	0.00
416.93	0.00
417.12	0.00
417.31	0.00
417.50	0.00
417.69	0.00
417.88	0.00
418.07	0.00
418.26	0.00
418.45	0.00
418.64	0.00
418.83	0.00
419.02	0.00
419.21	0.00
419.39	0.00
419.58	0.00
419.77	0.00
419.96	0.00
420.15	0.00
420.34	0.00
420.53	0.00
420.72	0.00
420.91	0.00
421.10	0.00
421.29	0.00
421.48	0.00
421.67	0.00
421.86	0.00
422.05	0.00
422.24	0.00
422.43	0.00
422.61	0.00
422.80	0.00
422.99	0.00
423.18	0.00
423.37	0.00
423.56	0.00
423.75	0.00
423.94	0.00
424.13	0.00
424.32	0.00
424.50	0.00
424.69	0.00
424.88	0.00
425.07	0.00
425.26	0.00
425.45	0.00
425.64	0.00
425.83	0.00
426.01	0.00
426.20	0.00
426.39	0.00
426.58	0.00
426.77	0.00
426.96	0.00
427.15	0.00
427.33	0.00
427.52	0.00
427.71	0.00
427.90	0.00
428.09	0.00
428.28	0.00
428.46	0.00
428.65	0.00
428.84	0.00
429.03	0.00
429.22	0.00
429.40	0.00
429.59	0.00
429.78	0.00
429.97	0.00
430.16	0.00
430.34	0.00
430.53	0.00
430.72	0.00
430.91	0.00
431.10	0.00
431.28	0.00
431.47	0.00
431.66	0.00
431.85	0.00
432.03	0.00
432.22	0.00
432.41	0.00
432.60	0.00
432.79	0.00
432.97	0.00
433.16	0.00
433.35	0.00
433.54	0.00
433.72	0.00
433.91	0.00
434.10	0.00
434.28	0.00
434.47	0.00
434.66	0.00
434.85	0.00
435.03	0.00
435.22	0.00
435.41	0.00
435.59	0.00
435.78	0.00
435.97	0.00
436.16	0.00
436.34	0.00
436.53	0.00
436.72	0.00
436.90	0.00
437.09	0.00
437.28	0.00
437.46	0.00
437.65	0.00
437.84	0.00
438.02	0.00
438.21	0.00
438.40	0.00
438.58	0.00
438.77	0.00
438.96	0.00
439.14	0.00
439.33	0.00
439.52	0.00
439.70	0.00
439.89	0.00
440.08	0.00
440.26	0.00
440.45	0.00
440.63	0.00
440.82	0.00
441.01	0.00
441.19	49.15
441.38	0.00
441.57	0.00
441.75	0.00
441.94	0.00
442.12	0.00
442.31	0.00
442.50	0.00
442.68	0.00
442.87	0.00
443.05	0.00
443.24	0.00
443.43	0.00
443.61	2.34
443.80	0.00
443.98	0.00
444.17	0.00
444.35	0.00
444.54	0.00
444.73	0.00
444.91	2.34
445.10	0.00
445.28	0.00
445.47	0.00
445.65	0.00
445.84	0.00
446.02	0.00
446.21	28.09
446.39	0.00
446.58	0.00
446.77	4.68
446.95	0.00
447.14	0.00
447.32	0.00
447.51	0.00
447.69	0.00
447.88	0.00
448.06	11.70
448.25	0.00
448.43	0.00
448.62	0.00
448.80	0.00
448.99	0.00
449.17	0.00
449.36	0.00
449.54	0.00
449.73	0.00
449.91	0.00
450.10	0.00
450.28	11.70
450.46	25.75
450.65	0.00
450.83	0.00
451.02	0.00
451.20	0.00
451.39	0.00
451.57	0.00
451.76	0.00
451.94	0.00
452.13	9.36
452.31	0.00
452.49	0.00
452.68	0.00
452.86	0.00
453.05	49.15
453.23	0.00
453.42	0.00
453.60	0.00
453.78	0.00
453.97	0.00
454.15	0.00
454.34	0.00
454.52	0.00
454.70	0.00
454.89	0.00
455.07	0.00
455.26	0.00
455.44	25.75
455.62	0.00
455.81	0.00
455.99	0.00
456.17	0.00
456.36	0.00
456.54	28.09
456.73	0.00
456.91	0.00
457.09	0.00
457.28	0.00
457.46	0.00
457.64	0.00
457.83	0.00
458.01	21.06
458.19	7.02
458.38	0.00
458.56	18.72
458.74	0.00
458.93	0.00
459.11	0.00
459.29	0.00
459.48	0.00
459.66	4.68
459.84	0.00
460.03	67.88
460.21	0.00
460.39	0.00
460.57	74.90
460.76	21.06
460.94	0.00
461.12	25.75
461.31	53.83
461.49	0.00
461.67	51.49
461.85	0.00
462.04	0.00
462.22	573.43
462.40	56.17
462.59	46.81
462.77	0.00
462.95	0.00
463.13	0.00
463.32	25.75
463.50	0.00
463.68	30.43
463.86	30.43
464.05	0.00
464.23	0.00
464.41	0.00
464.59	0.00
464.78	65.54
464.96	0.00
465.14	37.45
465.32	0.00
465.50	0.00
465.69	56.17
465.87	0.00
466.05	0.00
466.23	0.00
466.41	32.77
466.60	53.83
466.78	28.09
466.96	91.28
467.14	0.00
467.32	0.00
467.51	60.85
467.69	0.00
467.87	0.00
468.05	16.38
468.23	67.88
468.41	0.00
468.60	35.11
468.78	49.15
468.96	0.00
469.14	16.38
469.32	0.00
469.50	0.00
469.69	37.45
469.87	0.00
470.05	30.43
470.23	0.00
470.41	0.00
470.59	0.00
470.77	58.51
470.95	0.00
471.14	49.15
471.32	0.00
471.50	0.00
471.68	0.00
471.86	0.00
472.04	67.88
472.22	28.09
472.40	0.00
472.58	51.49
472.77	0.00
472.95	0.00
473.13	79.58
473.31	0.00
473.49	0.00
473.67	39.79
473.85	0.00
474.03	0.00
474.21	58.51
474.39	35.11
474.57	11.70
474.75	0.00
474.93	0.00
475.12	0.00
475.30	0.00
475.48	0.00
475.66	0.00
475.84	2.34
476.02	14.04
476.20	72.56
476.38	35.11
476.56	86.60
476.74	2.34
476.92	25.75
477.10	0.00
477.28	37.45
477.46	53.83
477.64	67.88
477.82	51.49
478.00	114.69
478.18	49.15
478.36	67.88
478.54	0.00
478.72	37.45
478.90	16.38
479.08	91.28
479.26	93.62
479.44	0.00
479.62	0.00
479.80	86.60
479.98	0.00
480.16	0.00
480.34	18.72
480.52	0.00
480.70	32.77
480.88	0.00
481.06	39.79
481.24	16.38
481.41	39.79
481.59	30.43
481.77	142.77
481.95	112.35
482.13	67.88
482.31	44.47
482.49	35.11
482.67	86.60
482.85	28.09
483.03	74.90
483.21	81.92
483.39	60.85
483.57	86.60
483.74	86.60
483.92	46.81
484.10	74.90
484.28	46.81
484.46	191.92
484.64	51.49
484.82	39.79
485.00	86.60
485.18	0.00
485.35	7.02
485.53	56.17
485.71	32.77
485.89	0.00
486.07	21.06
486.25	147.45
486.43	72.56
486.61	23.41
486.78	145.11
486.96	11.70
487.14	147.45
487.32	28.09
487.50	91.28
487.68	124.05
487.85	93.62
488.03	124.05
488.21	154.48
488.39	72.56
488.57	156.82
488.75	173.20
488.92	484.49
489.10	93.62
489.28	152.13
489.46	173.20
489.64	126.39
489.81	102.98
489.99	194.26
490.17	191.92
490.35	212.99
490.53	102.98
490.70	105.32
490.88	205.97
491.06	154.48
491.24	124.05
491.41	145.11
491.59	84.26
491.77	173.20
491.95	91.28
492.13	84.26
492.30	170.86
492.48	145.11
492.66	156.82
492.84	154.48
493.01	140.43
493.19	163.84
493.37	124.05
493.54	156.82
493.72	234.05
493.90	266.82
494.08	170.86
494.25	159.16
494.43	159.16
494.61	215.33
494.79	142.77
494.96	227.03
495.14	147.45
495.32	201.29
495.49	189.58
495.67	138.09
495.85	250.44
496.02	177.88
496.20	222.35
496.38	243.42
496.55	142.77
496.73	196.60
496.91	149.79
497.09	255.12
497.26	173.20
497.44	140.43
497.62	196.60
497.79	161.50
497.97	210.65
498.14	257.46
498.32	266.82
498.50	241.08
498.67	180.22
498.85	175.54
499.03	273.84
499.20	287.89
499.38	255.12
499.56	182.56
499.73	236.39
499.91	271.50
500.08	208.31
500.26	149.79
500.44	161.50
500.61	245.76
500.79	128.73
500.97	189.58
501.14	241.08
501.32	194.26
501.49	177.88
501.67	187.24
501.84	248.10
502.02	290.23
502.20	257.46
502.37	201.29
502.55	201.29
502.72	168.52
502.90	252.78
503.07	184.90
503.25	224.69
503.43	208.31
503.60	208.31
503.78	210.65
503.95	154.48
504.13	262.14
504.30	264.48
504.48	210.65
504.65	344.06
504.83	187.24
505.01	234.05
505.18	217.67
505.36	269.16
505.53	210.65
505.71	238.73
505.88	285.55
506.06	294.91
506.23	224.69
506.41	163.84
506.58	264.48
506.76	220.01
506.93	189.58
507.11	269.16
507.28	133.41
507.46	241.08
507.63	222.35
507.81	156.82
507.98	147.45
508.16	205.97
508.33	173.20
508.50	250.44
508.68	241.08
508.85	299.59
509.03	271.50
509.20	238.73
509.38	280.86
509.55	229.37
509.73	325.33
509.90	252.78
510.08	215.33
510.25	358.10
510.42	203.63
510.60	337.04
510.77	320.65
510.95	257.46
511.12	327.68
511.30	313.63
511.47	304.27
511.64	308.95
511.82	238.73
511.99	327.68
512.17	299.59
512.34	234.05
512.51	245.76
512.69	287.89
512.86	262.14
513.04	252.78
513.21	276.18
513.38	187.24
513.56	161.50
513.73	294.91
513.90	175.54
514.08	229.37
514.25	290.23
514.43	315.97
514.60	266.82
514.77	280.86
514.95	245.76
515.12	255.12
515.29	208.31
515.47	292.57
515.64	400.23
515.81	290.23
515.99	355.76
516.16	294.91
516.33	231.71
516.51	241.08
516.68	271.50
516.85	238.73
517.03	205.97
517.20	252.78
517.37	278.52
517.54	266.82
517.72	238.73
517.89	173.20
518.06	205.97
518.24	227.03
518.41	220.01
518.58	229.37
518.75	304.27
518.93	187.24
519.10	215.33
519.27	292.57
519.45	290.23
519.62	304.27
519.79	332.36
519.96	297.25
520.14	217.67
520.31	362.78
520.48	299.59
520.65	271.50
520.83	278.52
521.00	301.93
521.17	315.97
521.34	243.42
521.52	318.31
521.69	315.97
521.86	362.78
522.03	318.31
522.20	362.78
522.38	177.88
522.55	227.03
522.72	224.69
522.89	241.08
523.07	388.53
523.24	220.01
523.41	346.40
523.58	220.01
523.75	372.15
523.92	290.23
524.10	346.40
524.27	351.08
524.44	397.89
524.61	353.42
524.78	313.63
524.96	301.93
525.13	250.44
525.30	383.85
525.47	283.20
525.64	308.95
525.81	220.01
525.98	255.12
526.16	273.84
526.33	203.63
526.50	217.67
526.67	245.76
526.84	220.01
527.01	241.08
527.18	365.12
527.36	290.23
527.53	334.70
527.70	325.33
527.87	379.17
528.04	337.04
528.21	273.84
528.38	374.49
528.55	372.15
528.72	418.96
528.89	430.66
529.07	292.57
529.24	341.72
529.41	355.76
529.58	362.78
529.75	290.23
529.92	283.20
530.09	376.83
530.26	449.38
530.43	299.59
530.60	360.44
530.77	390.87
530.94	339.38
531.11	383.85
531.28	290.23
531.46	210.65
531.63	383.85
531.80	294.91
531.97	311.29
532.14	301.93
532.31	358.10
532.48	290.23
532.65	383.85
532.82	297.25
532.99	402.57
533.16	339.38
533.33	374.49
533.50	290.23
533.67	208.31
533.84	339.38
534.01	388.53
534.18	318.31
534.35	353.42
534.52	318.31
534.69	390.87
534.86	325.33
535.03	337.04
535.20	297.25
535.37	390.87
535.54	308.95
535.71	334.70
535.88	372.15
536.05	294.91
536.22	397.89
536.38	271.50
536.55	313.63
536.72	365.12
536.89	318.31
537.06	381.51
537.23	351.08
537.40	372.15
537.57	301.93
537.74	306.61
537.91	351.08
538.08	285.55
538.25	437.68
538.42	278.52
538.59	313.63
538.75	278.52
538.92	311.29
539.09	414.27
539.26	337.04
539.43	379.17
539.60	294.91
539.77	269.16
539.94	337.04
540.11	332.36
540.28	402.57
540.44	351.08
540.61	320.65
540.78	304.27
540.95	313.63
541.12	353.42
541.29	287.89
541.46	395.55
541.62	346.40
541.79	252.78
541.96	215.33
542.13	337.04
542.30	355.76
542.47	339.38
542.63	386.19
542.80	299.59
542.97	425.98
543.14	402.57
543.31	283.20
543.48	362.78
543.64	362.78
543.81	454.06
543.98	283.20
544.15	318.31
544.32	330.02
544.48	269.16
544.65	411.93
544.82	393.21
544.99	433.00
545.16	332.36
545.32	386.19
545.49	367.46
545.66	355.76
545.83	311.29
546.00	332.36
546.16	409.59
546.33	337.04
546.50	353.42
546.67	440.02
546.83	341.72
547.00	332.36
547.17	341.72
547.34	285.55
547.50	355.76
547.67	220.01
547.84	315.97
548.00	386.19
548.17	320.65
548.34	255.12
548.51	402.57
548.67	334.70
548.84	297.25
549.01	355.76
549.18	386.19
549.34	386.19
549.51	411.93
549.68	332.36
549.84	367.46
550.01	334.70
550.18	479.81
550.34	433.00
550.51	388.53
550.68	341.72
550.84	271.50
551.01	313.63
551.18	376.83
551.34	360.44
551.51	348.74
551.68	365.12
551.84	435.34
552.01	339.38
552.18	367.46
552.34	353.42
552.51	320.65
552.68	416.62
552.84	367.46
553.01	395.55
553.18	353.42
553.34	353.42
553.51	322.99
553.67	332.36
553.84	315.97
554.01	311.29
554.17	325.33
554.34	362.78
554.51	442.36
554.67	447.04
554.84	397.89
555.00	444.70
555.17	358.10
555.33	369.80
555.50	285.55
555.67	404.91
555.83	299.59
556.00	358.10
556.16	514.92
556.33	344.06
556.50	311.29
556.66	465.77
556.83	325.33
556.99	383.85
557.16	358.10
557.32	341.72
557.49	383.85
557.65	332.36
557.82	280.86
557.98	330.02
558.15	379.17
558.32	376.83
558.48	362.78
558.65	285.55
558.81	353.42
558.98	372.15
559.14	315.97
559.31	297.25
559.47	311.29
559.64	322.99
559.80	287.89
559.97	379.17
560.13	327.68
560.30	276.18
560.46	332.36
560.63	365.12
560.79	379.17
560.96	409.59
561.12	325.33
561.29	276.18
561.45	402.57
561.61	400.23
561.78	447.04
561.94	304.27
562.11	210.65
562.27	318.31
562.44	367.46
562.60	379.17
562.77	362.78
562.93	449.38
563.10	351.08
563.26	346.40
563.42	397.89
563.59	318.31
563.75	308.95
563.92	388.53
564.08	308.95
564.24	400.23
564.41	447.04
564.57	327.68
564.74	318.31
564.90	353.42
565.07	351.08
565.23	304.27
565.39	311.29
565.56	306.61
565.72	287.89
565.88	344.06
566.05	327.68
566.21	376.83
566.38	351.08
566.54	358.10
566.70	362.78
566.87	210.65
567.03	334.70
567.19	322.99
567.36	327.68
567.52	360.44
567.68	353.42
567.85	320.65
568.01	428.32
568.17	243.42
568.34	280.86
568.50	379.17
568.66	299.59
568.83	402.57
568.99	308.95
569.15	353.42
569.32	318.31
569.48	327.68
569.64	252.78
569.81	355.76
569.97	245.76
570.13	355.76
570.30	269.16
570.46	367.46
570.62	325.33
570.78	259.80
570.95	306.61
571.11	411.93
571.27	332.36
571.43	320.65
571.60	444.70
571.76	203.63
571.92	259.80
572.09	322.99
572.25	325.33
572.41	266.82
572.57	334.70
572.74	421.30
572.90	285.55
573.06	334.70
573.22	297.25
573.38	358.10
573.55	374.49
573.71	367.46
573.87	299.59
574.03	227.03
574.20	234.05
574.36	327.68
574.52	306.61
574.68	250.44
574.84	367.46
575.01	266.82
575.17	325.33
575.33	252.78
575.49	367.46
575.65	365.12
575.82	313.63
575.98	407.25
576.14	339.38
576.30	351.08
576.46	315.97
576.62	315.97
576.79	231.71
576.95	346.40
577.11	433.00
577.27	311.29
577.43	311.29
577.59	299.59
577.75	257.46
577.92	313.63
578.08	311.29
578.24	215.33
578.40	360.44
578.56	358.10
578.72	386.19
578.88	351.08
579.04	341.72
579.21	259.80
579.37	313.63
579.53	325.33
579.69	294.91
579.85	304.27
580.01	315.97
580.17	301.93
580.33	304.27
580.49	348.74
580.65	299.59
580.82	369.80
580.98	381.51
581.14	430.66
581.30	355.76
581.46	297.25
581.62	374.49
581.78	278.52
581.94	369.80
582.10	290.23
582.26	290.23
582.42	381.51
582.58	367.46
582.74	383.85
582.90	376.83
583.06	334.70
583.22	278.52
583.38	266.82
583.54	327.68
583.70	465.77
583.86	301.93
584.02	322.99
584.18	339.38
584.34	308.95
584.50	290.23
584.66	245.76
584.82	264.48
584.98	332.36
585.14	304.27
585.30	325.33
585.46	311.29
585.62	212.99
585.78	304.27
585.94	348.74
586.10	301.93
586.26	348.74
586.42	395.55
586.58	360.44
586.74	325.33
586.90	306.61
587.06	332.36
587.22	393.21
587.38	315.97
587.54	358.10
587.70	376.83
587.86	262.14
588.02	301.93
588.18	308.95
588.34	308.95
588.49	248.10
588.65	189.58
588.81	285.55
588.97	173.20
589.13	243.42
589.29	297.25
589.45	304.27
589.61	177.88
589.77	327.68
589.93	252.78
590.08	311.29
590.24	238.73
590.40	301.93
590.56	393.21
590.72	311.29
590.88	273.84
591.04	297.25
591.20	339.38
591.35	360.44
591.51	238.73
591.67	266.82
591.83	278.52
591.99	220.01
592.15	318.31
592.31	304.27
592.46	346.40
592.62	341.72
592.78	243.42
592.94	294.91
593.10	278.52
593.26	276.18
593.41	330.02
593.57	285.55
593.73	262.14
593.89	276.18
594.05	290.23
594.20	229.37
594.36	362.78
594.52	353.42
594.68	220.01
594.84	311.29
594.99	367.46
595.15	322.99
595.31	390.87
595.47	355.76
595.62	355.76
595.78	301.93
595.94	376.83
596.10	292.57
596.25	287.89
596.41	264.48
596.57	299.59
596.73	355.76
596.88	325.33
597.04	318.31
597.20	276.18
597.36	252.78
597.51	311.29
597.67	241.08
597.83	330.02
597.99	306.61
598.14	285.55
598.30	346.40
598.46	308.95
598.61	351.08
598.77	358.10
598.93	252.78
599.09	344.06
599.24	322.99
599.40	339.38
599.56	297.25
599.71	236.39
599.87	262.14
600.03	330.02
600.18	224.69
600.34	234.05
600.50	294.91
600.65	222.35
600.81	318.31
600.97	229.37
601.12	285.55
601.28	311.29
601.44	245.76
601.59	257.46
601.75	203.63
601.91	224.69
602.06	297.25
602.22	348.74
602.37	355.76
602.53	337.04
602.69	334.70
602.84	241.08
603.00	273.84
603.16	262.14
603.31	285.55
603.47	299.59
603.62	184.90
603.78	234.05
603.94	308.95
604.09	376.83
604.25	276.18
604.40	353.42
604.56	283.20
604.71	227.03
604.87	327.68
605.03	308.95
605.18	278.52
605.34	334.70
605.49	322.99
605.65	280.86
605.80	175.54
605.96	297.25
606.12	283.20
606.27	306.61
606.43	280.86
606.58	248.10
606.74	318.31
606.89	294.91
607.05	318.31
607.20	227.03
607.36	334.70
607.51	278.52
607.67	262.14
607.82	292.57
607.98	337.04
608.13	341.72
608.29	322.99
608.44	379.17
608.60	318.31
608.75	262.14
608.91	252.78
609.06	276.18
609.22	332.36
609.37	208.31
609.53	196.60
609.68	203.63
609.84	220.01
609.99	203.63
610.15	259.80
610.30	304.27
610.46	266.82
610.61	306.61
610.76	346.40
610.92	311.29
611.07	224.69
611.23	341.72
611.38	205.97
611.54	257.46
611.69	156.82
611.84	135.75
612.00	255.12
612.15	220.01
612.31	217.67
612.46	257.46
612.62	245.76
612.77	280.86
612.92	241.08
613.08	238.73
613.23	196.60
613.39	243.42
613.54	248.10
613.69	236.39
613.85	276.18
614.00	245.76
614.15	166.18
614.31	196.60
614.46	257.46
614.62	224.69
614.77	208.31
614.92	248.10
615.08	255.12
615.23	264.48
615.38	238.73
615.54	250.44
615.69	205.97
615.84	229.37
616.00	205.97
616.15	182.56
616.30	187.24
616.46	152.13
616.61	184.90
616.76	283.20
616.92	278.52
617.07	191.92
617.22	168.52
617.37	203.63
617.53	301.93
617.68	259.80
617.83	227.03
617.99	255.12
618.14	301.93
618.29	238.73
618.45	227.03
618.60	250.44
618.75	271.50
618.90	187.24
619.06	217.67
619.21	301.93
619.36	327.68
619.51	252.78
619.67	252.78
619.82	229.37
619.97	210.65
620.12	224.69
620.28	149.79
620.43	203.63
620.58	184.90
620.73	191.92
620.89	234.05
621.04	278.52
621.19	201.29
621.34	156.82
621.49	180.22
621.65	227.03
621.80	168.52
621.95	294.91
622.10	271.50
622.25	145.11
622.41	154.48
622.56	133.41
622.71	191.92
622.86	276.18
623.01	124.05
623.16	273.84
623.32	149.79
623.47	175.54
623.62	140.43
623.77	271.50
623.92	222.35
624.07	189.58
624.23	227.03
624.38	224.69
624.53	177.88
624.68	292.57
624.83	248.10
624.98	152.13
625.13	159.16
625.29	203.63
625.44	166.18
625.59	163.84
625.74	264.48
625.89	220.01
626.04	177.88
626.19	212.99
626.34	124.05
626.49	182.56
626.65	110.01
626.80	184.90
626.95	269.16
627.10	201.29
627.25	191.92
627.40	156.82
627.55	245.76
627.70	156.82
627.85	217.67
628.00	187.24
628.15	210.65
628.30	224.69
628.45	135.75
628.60	147.45
628.76	205.97
628.91	205.97
629.06	168.52
629.21	229.37
629.36	255.12
629.51	107.66
629.66	133.41
629.81	135.75
629.96	100.64
630.11	175.54
630.26	170.86
630.41	135.75
630.56	299.59
630.71	100.64
630.86	168.52
631.01	100.64
631.16	138.09
631.31	154.48
631.46	196.60
631.61	159.16
631.76	173.20
631.91	175.54
632.06	208.31
632.21	229.37
632.36	159.16
632.51	175.54
632.66	220.01
632.81	107.66
632.96	163.84
633.10	182.56
633.25	166.18
633.40	175.54
633.55	138.09
633.70	154.48
633.85	173.20
634.00	149.79
634.15	65.54
634.30	264.48
634.45	184.90
634.60	149.79
634.75	217.67
634.90	114.69
635.05	241.08
635.19	262.14
635.34	191.92
635.49	177.88
635.64	77.24
635.79	187.24
635.94	191.92
636.09	273.84
636.24	138.09
636.39	159.16
636.53	175.54
636.68	187.24
636.83	121.71
636.98	126.39
637.13	163.84
637.28	215.33
637.43	224.69
637.57	145.11
637.72	205.97
637.87	287.89
638.02	248.10
638.17	212.99
638.32	161.50
638.46	229.37
638.61	262.14
638.76	252.78
638.91	135.75
639.06	121.71
639.20	121.71
639.35	173.20
639.50	210.65
639.65	248.10
639.80	177.88
639.94	194.26
640.09	318.31
640.24	227.03
640.39	131.07
640.54	147.45
640.68	159.16
640.83	187.24
640.98	212.99
641.13	201.29
641.27	114.69
641.42	184.90
641.57	170.86
641.72	117.03
641.86	147.45
642.01	133.41
642.16	184.90
642.31	147.45
642.45	273.84
642.60	149.79
642.75	107.66
642.90	173.20
643.04	217.67
643.19	100.64
643.34	140.43
643.48	98.30
643.63	121.71
643.78	215.33
643.93	177.88
644.07	168.52
644.22	124.05
644.37	133.41
644.51	128.73
644.66	173.20
644.81	93.62
644.95	140.43
645.10	140.43
645.25	81.92
645.39	126.39
645.54	77.24
645.69	182.56
645.83	191.92
645.98	248.10
646.13	88.94
646.27	147.45
646.42	51.49
646.57	72.56
646.71	180.22
646.86	114.69
647.00	70.22
647.15	135.75
647.30	67.88
647.44	65.54
647.59	88.94
647.74	79.58
647.88	93.62
648.03	49.15
648.17	140.43
648.32	70.22
648.47	156.82
648.61	124.05
648.76	140.43
648.90	100.64
649.05	0.00
649.20	126.39
649.34	133.41
649.49	163.84
649.63	102.98
649.78	114.69
649.92	147.45
650.07	56.17
650.21	63.19
650.36	189.58
650.51	81.92
650.65	98.30
650.80	170.86
650.94	114.69
651.09	91.28
651.23	79.58
651.38	93.62
651.52	135.75
651.67	65.54
651.81	56.17
651.96	102.98
652.10	175.54
652.25	65.54
652.39	93.62
652.54	154.48
652.68	145.11
652.83	42.13
652.97	128.73
653.12	156.82
653.26	114.69
653.41	142.77
653.55	65.54
653.70	95.96
653.84	133.41
653.99	166.18
654.13	44.47
654.27	79.58
654.42	110.01
654.56	119.37
654.71	107.66
654.85	35.11
655.00	70.22
655.14	70.22
655.29	56.17
655.43	86.60
655.57	93.62
655.72	49.15
655.86	32.77
656.01	9.36
656.15	77.24
656.30	72.56
656.44	77.24
656.58	0.00
656.73	42.13
656.87	81.92
657.01	102.98
657.16	124.05
657.30	184.90
657.45	128.73
657.59	152.13
657.73	131.07
657.88	37.45
658.02	117.03
658.16	142.77
658.31	145.11
658.45	140.43
658.60	21.06
658.74	110.01
658.88	91.28
659.03	67.88
659.17	138.09
659.31	44.47
659.46	56.17
659.60	105.32
659.74	77.24
659.89	79.58
660.03	42.13
660.17	145.11
660.32	88.94
660.46	119.37
660.60	14.04
660.74	86.60
660.89	102.98
661.03	58.51
661.17	91.28
661.32	79.58
661.46	72.56
661.60	63.19
661.74	147.45
661.89	117.03
662.03	110.01
662.17	60.85
662.31	102.98
662.46	126.39
662.60	152.13
662.74	70.22
662.88	98.30
663.03	67.88
663.17	70.22
663.31	63.19
663.45	46.81
663.60	93.62
663.74	32.77
663.88	79.58
664.02	56.17
664.17	79.58
664.31	117.03
664.45	39.79
664.59	70.22
664.73	91.28
664.88	72.56
665.02	88.94
665.16	95.96
665.30	152.13
665.44	93.62
665.59	110.01
665.73	81.92
665.87	11.70
666.01	67.88
666.15	14.04
666.29	84.26
666.44	81.92
666.58	184.90
666.72	18.72
666.86	42.13
667.00	84.26
667.14	77.24
667.28	65.54
667.43	74.90
667.57	25.75
667.71	74.90
667.85	21.06
667.99	65.54
668.13	32.77
668.27	79.58
668.41	91.28
668.56	35.11
668.70	126.39
668.84	95.96
668.98	154.48
669.12	28.09
669.26	107.66
669.40	175.54
669.54	58.51
669.68	46.81
669.82	95.96
669.96	21.06
670.10	0.00
670.25	128.73
670.39	121.71
670.53	95.96
670.67	23.41
670.81	46.81
670.95	60.85
671.09	0.00
671.23	91.28
671.37	67.88
671.51	32.77
671.65	81.92
671.79	53.83
671.93	67.88
672.07	159.16
672.21	100.64
672.35	0.00
672.49	63.19
672.63	100.64
672.77	114.69
672.91	117.03
673.05	91.28
673.19	25.75
673.33	4.68
673.47	91.28
673.61	18.72
673.75	23.41
673.89	44.47
674.03	88.94
674.17	70.22
674.31	0.00
674.45	74.90
674.59	72.56
674.73	18.72
674.87	0.00
675.01	95.96
675.15	18.72
675.29	70.22
675.43	70.22
675.56	74.90
675.70	84.26
675.84	0.00
675.98	0.00
676.12	42.13
676.26	51.49
676.40	0.00
676.54	7.02
676.68	0.00
676.82	93.62
676.96	32.77
677.10	79.58
677.23	16.38
677.37	28.09
677.51	86.60
677.65	128.73
677.79	0.00
677.93	44.47
678.07	0.00
678.21	0.00
678.34	42.13
678.48	30.43
678.62	56.17
678.76	42.13
678.90	56.17
679.04	25.75
679.18	58.51
679.31	44.47
679.45	0.00
679.59	9.36
679.73	0.00
679.87	37.45
680.00	44.47
680.14	0.00
680.28	28.09
680.42	2.34
680.56	0.00
680.70	0.00
680.83	42.13
680.97	0.00
681.11	7.02
681.25	46.81
681.39	7.02
681.52	0.00
681.66	0.00
681.80	0.00
681.94	0.00
682.07	25.75
682.21	0.00
682.35	9.36
682.49	18.72
682.62	46.81
682.76	30.43
682.90	0.00
683.04	0.00
683.17	0.00
683.31	25.75
683.45	0.00
683.59	51.49
683.72	0.00
683.86	0.00
684.00	9.36
684.13	0.00
684.27	0.00
684.41	0.00
684.55	14.04
684.68	0.00
684.82	0.00
684.96	0.00
685.09	0.00
685.23	0.00
685.37	0.00
685.50	2.34
685.64	18.72
685.78	0.00
685.91	0.00
686.05	42.13
686.19	0.00
686.32	0.00
686.46	0.00
686.60	0.00
686.73	4.68
686.87	0.00
687.01	0.00
687.14	0.00
687.28	0.00
687.42	0.00
687.55	0.00
687.69	0.00
687.82	0.00
687.96	0.00
688.10	0.00
688.23	0.00
688.37	0.00
688.50	0.00
688.64	0.00
688.78	0.00
688.91	0.00
689.05	37.45
689.18	0.00
689.32	0.00
689.46	0.00
689.59	0.00
689.73	0.00
689.86	0.00
690.00	0.00
690.13	0.00
690.27	0.00
690.41	0.00
690.54	0.00
690.68	0.00
690.81	0.00
690.95	0.00
691.08	0.00
691.22	0.00
691.35	0.00
691.49	0.00
691.62	0.00
691.76	0.00
691.89	0.00
692.03	0.00
692.16	0.00
692.30	0.00
692.43	0.00
692.57	0.00
692.70	0.00
692.84	0.00
692.97	0.00
693.11	0.00
693.24	0.00
693.38	0.00
693.51	0.00
693.65	0.00
693.78	0.00
693.92	0.00
694.05	0.00
694.19	0.00
694.32	0.00
694.45	0.00
694.59	0.00
694.72	0.00
694.86	0.00
694.99	0.00
695.13	0.00
695.26	0.00
695.39	0.00
695.53	0.00
695.66	0.00
695.80	0.00
695.93	0.00
696.07	0.00
696.20	0.00
696.33	0.00
696.47	0.00
696.60	0.00
696.73	0.00
696.87	0.00
697.00	0.00
697.14	0.00
697.27	0.00
697.40	0.00
697.54	0.00
697.67	0.00
697.80	0.00
697.94	0.00
698.07	0.00
698.21	0.00
698.34	0.00
698.47	0.00
698.61	0.00
698.74	0.00
698.87	0.00
699.01	0.00
699.14	0.00
699.27	0.00
699.40	114.69
699.54	0.00
699.67	0.00
699.80	0.00
699.94	0.00
700.07	0.00
700.20	0.00
700.34	0.00
700.47	0.00
700.60	0.00
700.73	0.00
700.87	0.00
701.00	0.00
701.13	0.00
701.26	0.00
701.40	0.00
701.53	0.00
701.66	0.00
701.79	0.00
701.93	0.00
702.06	0.00
702.19	0.00
702.32	0.00
702.46	0.00
702.59	0.00
702.72	0.00
702.85	0.00
702.99	0.00
703.12	0.00
703.25	0.00
703.38	0.00
703.51	0.00
703.65	0.00
703.78	0.00
703.91	0.00
704.04	0.00
704.17	0.00
704.31	0.00
704.44	0.00
704.57	0.00
704.70	0.00
704.83	0.00
704.96	0.00
705.10	0.00
705.23	0.00
>>>>>End Processed Spectral Data<<<<<
