SpectraSuite Data File
++++++++++++++++++++++++++++++++++++
Date: Mon Oct 07 15:00:00 GMT-05:00 2013
User: price-jones
Dark Spectrum Present: No
Reference Spectrum Present: No
Number of Sampled Component Spectra: 1
Spectrometers: USB2+H05261
Integration Time (usec): 100000 (USB2+H05261)
Spectra Averaged: 1 (USB2+H05261)
Boxcar Smoothing: 0 (USB2+H05261)
Correct for Electrical Dark: No (USB2+H05261)
Strobe/Lamp Enabled: No (USB2+H05261)
Correct for Detector Non-linearity: No (USB2+H05261)
Correct for Stray Light: No (USB2+H05261)
Number of Pixels in Processed Spectrum: 2048
>>>>>Begin Processed Spectral Data<<<<<
365.73	0.00
365.92	0.00
366.12	0.00
366.32	0.00
366.52	0.00
366.72	0.00
366.91	0.00
367.11	0.00
367.31	0.00
367.51	0.00
367.70	0.00
367.90	0.00
368.10	0.00
368.30	0.00
368.49	0.00
368.69	0.00
368.89	0.00
369.09	0.00
369.28	0.00
369.48	0.00
369.68	0.00
369.87	0.00
370.07	0.00
370.27	0.00
370.47	0.00
370.66	0.00
370.86	0.00
371.06	0.00
371.25	0.00
371.45	0.00
371.65	0.00
371.84	0.00
372.04	0.00
372.24	0.00
372.44	0.00
372.63	0.00
372.83	0.00
373.03	0.00
373.22	0.00
373.42	0.00
373.62	0.00
373.81	0.00
374.01	0.00
374.21	0.00
374.40	0.00
374.60	0.00
374.79	0.00
374.99	0.00
375.19	0.00
375.38	0.00
375.58	0.00
375.78	0.00
375.97	0.00
376.17	0.00
376.37	0.00
376.56	0.00
376.76	0.00
376.95	0.00
377.15	0.00
377.35	0.00
377.54	0.00
377.74	0.00
377.93	0.00
378.13	0.00
378.33	0.00
378.52	0.00
378.72	0.00
378.91	0.00
379.11	0.00
379.31	0.00
379.50	0.00
379.70	0.00
379.89	0.00
380.09	0.00
380.28	0.00
380.48	0.00
380.68	0.00
380.87	0.00
381.07	0.00
381.26	0.00
381.46	0.00
381.65	0.00
381.85	0.00
382.04	0.00
382.24	0.00
382.43	0.00
382.63	0.00
382.83	0.00
383.02	0.00
383.22	0.00
383.41	0.00
383.61	0.00
383.80	0.00
384.00	0.00
384.19	0.00
384.39	0.00
384.58	0.00
384.78	0.00
384.97	0.00
385.17	0.00
385.36	0.00
385.56	0.00
385.75	0.00
385.95	0.00
386.14	0.00
386.34	0.00
386.53	0.00
386.72	0.00
386.92	0.00
387.11	0.00
387.31	0.00
387.50	0.00
387.70	0.00
387.89	0.00
388.09	0.00
388.28	0.00
388.48	0.00
388.67	0.00
388.86	0.00
389.06	0.00
389.25	0.00
389.45	0.00
389.64	0.00
389.84	0.00
390.03	0.00
390.22	0.00
390.42	0.00
390.61	0.00
390.81	0.00
391.00	0.00
391.19	0.00
391.39	0.00
391.58	0.00
391.78	0.00
391.97	0.00
392.16	0.00
392.36	0.00
392.55	0.00
392.75	0.00
392.94	0.00
393.13	0.00
393.33	0.00
393.52	0.00
393.71	0.00
393.91	0.00
394.10	0.00
394.29	0.00
394.49	0.00
394.68	0.00
394.88	0.00
395.07	0.00
395.26	0.00
395.46	0.00
395.65	0.00
395.84	0.00
396.04	0.00
396.23	0.00
396.42	0.00
396.62	0.00
396.81	0.00
397.00	0.00
397.19	0.00
397.39	0.00
397.58	0.00
397.77	0.00
397.97	0.00
398.16	0.00
398.35	0.00
398.55	0.00
398.74	0.00
398.93	0.00
399.12	0.00
399.32	0.00
399.51	0.00
399.70	0.00
399.90	0.00
400.09	0.00
400.28	0.00
400.47	0.00
400.67	0.00
400.86	0.00
401.05	0.00
401.24	0.00
401.44	0.00
401.63	0.00
401.82	0.00
402.01	0.00
402.21	0.00
402.40	0.00
402.59	0.00
402.78	0.00
402.97	0.00
403.17	0.00
403.36	0.00
403.55	0.00
403.74	0.00
403.93	0.00
404.13	0.00
404.32	0.00
404.51	0.00
404.70	0.00
404.89	0.00
405.09	0.00
405.28	0.00
405.47	0.00
405.66	0.00
405.85	0.00
406.05	0.00
406.24	0.00
406.43	0.00
406.62	0.00
406.81	0.00
407.00	0.00
407.20	0.00
407.39	0.00
407.58	0.00
407.77	0.00
407.96	0.00
408.15	0.00
408.34	0.00
408.54	0.00
408.73	0.00
408.92	0.00
409.11	0.00
409.30	0.00
409.49	0.00
409.68	0.00
409.87	0.00
410.07	0.00
410.26	0.00
410.45	0.00
410.64	0.00
410.83	0.00
411.02	0.00
411.21	0.00
411.40	0.00
411.59	0.00
411.78	0.00
411.98	0.00
412.17	0.00
412.36	0.00
412.55	0.00
412.74	0.00
412.93	0.00
413.12	0.00
413.31	0.00
413.50	0.00
413.69	0.00
413.88	0.00
414.07	0.00
414.26	0.00
414.45	0.00
414.64	0.00
414.83	0.00
415.02	0.00
415.22	0.00
415.41	0.00
415.60	0.00
415.79	0.00
415.98	0.00
416.17	0.00
416.36	0.00
416.55	0.00
416.74	0.00
416.93	0.00
417.12	0.00
417.31	0.00
417.50	0.00
417.69	0.00
417.88	0.00
418.07	0.00
418.26	0.00
418.45	0.00
418.64	0.00
418.83	0.00
419.02	0.00
419.21	0.00
419.39	0.00
419.58	0.00
419.77	0.00
419.96	0.00
420.15	0.00
420.34	0.00
420.53	0.00
420.72	0.00
420.91	0.00
421.10	0.00
421.29	0.00
421.48	0.00
421.67	0.00
421.86	0.00
422.05	0.00
422.24	0.00
422.43	0.00
422.61	0.00
422.80	0.00
422.99	0.00
423.18	0.00
423.37	0.00
423.56	0.00
423.75	0.00
423.94	0.00
424.13	0.00
424.32	0.00
424.50	0.00
424.69	0.00
424.88	0.00
425.07	0.00
425.26	0.00
425.45	0.00
425.64	0.00
425.83	0.00
426.01	0.00
426.20	0.00
426.39	0.00
426.58	0.00
426.77	0.00
426.96	0.00
427.15	0.00
427.33	0.00
427.52	0.00
427.71	0.00
427.90	0.00
428.09	0.00
428.28	0.00
428.46	0.00
428.65	0.00
428.84	0.00
429.03	0.00
429.22	0.00
429.40	0.00
429.59	0.00
429.78	0.00
429.97	0.00
430.16	0.00
430.34	0.00
430.53	0.00
430.72	0.00
430.91	0.00
431.10	0.00
431.28	0.00
431.47	0.00
431.66	0.00
431.85	0.00
432.03	0.00
432.22	0.00
432.41	0.00
432.60	0.00
432.79	0.00
432.97	0.00
433.16	0.00
433.35	0.00
433.54	0.00
433.72	0.00
433.91	0.00
434.10	0.00
434.28	0.00
434.47	0.00
434.66	0.00
434.85	0.00
435.03	0.00
435.22	0.00
435.41	0.00
435.59	0.00
435.78	0.00
435.97	0.00
436.16	0.00
436.34	0.00
436.53	0.00
436.72	0.00
436.90	0.00
437.09	0.00
437.28	0.00
437.46	0.00
437.65	0.00
437.84	0.00
438.02	0.00
438.21	0.00
438.40	0.00
438.58	0.00
438.77	0.00
438.96	0.00
439.14	0.00
439.33	0.00
439.52	0.00
439.70	0.00
439.89	0.00
440.08	0.00
440.26	0.00
440.45	28.09
440.63	0.00
440.82	0.00
441.01	0.00
441.19	0.00
441.38	0.00
441.57	0.00
441.75	0.00
441.94	0.00
442.12	0.00
442.31	0.00
442.50	0.00
442.68	0.00
442.87	0.00
443.05	39.79
443.24	0.00
443.43	0.00
443.61	21.06
443.80	0.00
443.98	0.00
444.17	0.00
444.35	0.00
444.54	0.00
444.73	0.00
444.91	9.36
445.10	0.00
445.28	0.00
445.47	0.00
445.65	0.00
445.84	0.00
446.02	0.00
446.21	0.00
446.39	0.00
446.58	0.00
446.77	0.00
446.95	0.00
447.14	0.00
447.32	0.00
447.51	0.00
447.69	0.00
447.88	0.00
448.06	14.04
448.25	0.00
448.43	0.00
448.62	0.00
448.80	0.00
448.99	0.00
449.17	0.00
449.36	0.00
449.54	21.06
449.73	0.00
449.91	0.00
450.10	0.00
450.28	49.15
450.46	53.83
450.65	35.11
450.83	0.00
451.02	0.00
451.20	0.00
451.39	0.00
451.57	0.00
451.76	0.00
451.94	0.00
452.13	4.68
452.31	0.00
452.49	0.00
452.68	0.00
452.86	0.00
453.05	7.02
453.23	0.00
453.42	0.00
453.60	35.11
453.78	0.00
453.97	0.00
454.15	0.00
454.34	0.00
454.52	0.00
454.70	0.00
454.89	7.02
455.07	0.00
455.26	0.00
455.44	0.00
455.62	0.00
455.81	0.00
455.99	0.00
456.17	0.00
456.36	0.00
456.54	14.04
456.73	0.00
456.91	9.36
457.09	0.00
457.28	0.00
457.46	0.00
457.64	0.00
457.83	0.00
458.01	0.00
458.19	0.00
458.38	0.00
458.56	16.38
458.74	0.00
458.93	0.00
459.11	0.00
459.29	0.00
459.48	0.00
459.66	0.00
459.84	0.00
460.03	128.73
460.21	42.13
460.39	9.36
460.57	0.00
460.76	0.00
460.94	0.00
461.12	0.00
461.31	0.00
461.49	0.00
461.67	0.00
461.85	0.00
462.04	9.36
462.22	543.00
462.40	0.00
462.59	46.81
462.77	14.04
462.95	0.00
463.13	0.00
463.32	21.06
463.50	0.00
463.68	0.00
463.86	0.00
464.05	0.00
464.23	0.00
464.41	0.00
464.59	0.00
464.78	0.00
464.96	0.00
465.14	0.00
465.32	18.72
465.50	0.00
465.69	0.00
465.87	0.00
466.05	0.00
466.23	0.00
466.41	0.00
466.60	0.00
466.78	32.77
466.96	0.00
467.14	0.00
467.32	28.09
467.51	0.00
467.69	4.68
467.87	28.09
468.05	42.13
468.23	42.13
468.41	0.00
468.60	0.00
468.78	0.00
468.96	35.11
469.14	0.00
469.32	0.00
469.50	0.00
469.69	0.00
469.87	0.00
470.05	0.00
470.23	0.00
470.41	0.00
470.59	0.00
470.77	0.00
470.95	0.00
471.14	0.00
471.32	0.00
471.50	16.38
471.68	21.06
471.86	0.00
472.04	0.00
472.22	0.00
472.40	0.00
472.58	9.36
472.77	0.00
472.95	0.00
473.13	49.15
473.31	72.56
473.49	14.04
473.67	0.00
473.85	4.68
474.03	23.41
474.21	0.00
474.39	0.00
474.57	30.43
474.75	9.36
474.93	0.00
475.12	86.60
475.30	4.68
475.48	0.00
475.66	14.04
475.84	0.00
476.02	0.00
476.20	7.02
476.38	18.72
476.56	46.81
476.74	18.72
476.92	0.00
477.10	91.28
477.28	51.49
477.46	0.00
477.64	14.04
477.82	0.00
478.00	7.02
478.18	21.06
478.36	53.83
478.54	32.77
478.72	23.41
478.90	0.00
479.08	93.62
479.26	81.92
479.44	81.92
479.62	21.06
479.80	44.47
479.98	7.02
480.16	0.00
480.34	35.11
480.52	0.00
480.70	18.72
480.88	16.38
481.06	0.00
481.24	0.00
481.41	16.38
481.59	65.54
481.77	53.83
481.95	2.34
482.13	51.49
482.31	60.85
482.49	14.04
482.67	110.01
482.85	124.05
483.03	119.37
483.21	30.43
483.39	98.30
483.57	77.24
483.74	70.22
483.92	60.85
484.10	2.34
484.28	131.07
484.46	191.92
484.64	0.00
484.82	51.49
485.00	37.45
485.18	124.05
485.35	35.11
485.53	0.00
485.71	53.83
485.89	0.00
486.07	0.00
486.25	180.22
486.43	100.64
486.61	81.92
486.78	67.88
486.96	67.88
487.14	46.81
487.32	84.26
487.50	53.83
487.68	16.38
487.85	74.90
488.03	98.30
488.21	168.52
488.39	79.58
488.57	187.24
488.75	37.45
488.92	540.66
489.10	175.54
489.28	189.58
489.46	102.98
489.64	168.52
489.81	119.37
489.99	175.54
490.17	128.73
490.35	161.50
490.53	131.07
490.70	65.54
490.88	138.09
491.06	98.30
491.24	182.56
491.41	149.79
491.59	72.56
491.77	131.07
491.95	110.01
492.13	88.94
492.30	107.66
492.48	114.69
492.66	203.63
492.84	177.88
493.01	133.41
493.19	154.48
493.37	238.73
493.54	163.84
493.72	201.29
493.90	152.13
494.08	124.05
494.25	224.69
494.43	154.48
494.61	184.90
494.79	98.30
494.96	173.20
495.14	147.45
495.32	168.52
495.49	149.79
495.67	159.16
495.85	159.16
496.02	201.29
496.20	205.97
496.38	201.29
496.55	227.03
496.73	205.97
496.91	161.50
497.09	194.26
497.26	175.54
497.44	241.08
497.62	149.79
497.79	161.50
497.97	177.88
498.14	149.79
498.32	208.31
498.50	220.01
498.67	161.50
498.85	205.97
499.03	156.82
499.20	184.90
499.38	168.52
499.56	227.03
499.73	245.76
499.91	201.29
500.08	241.08
500.26	138.09
500.44	138.09
500.61	203.63
500.79	248.10
500.97	203.63
501.14	220.01
501.32	135.75
501.49	212.99
501.67	196.60
501.84	168.52
502.02	145.11
502.20	264.48
502.37	201.29
502.55	222.35
502.72	180.22
502.90	287.89
503.07	159.16
503.25	205.97
503.43	156.82
503.60	217.67
503.78	191.92
503.95	147.45
504.13	119.37
504.30	241.08
504.48	266.82
504.65	278.52
504.83	175.54
505.01	205.97
505.18	259.80
505.36	252.78
505.53	315.97
505.71	243.42
505.88	278.52
506.06	210.65
506.23	271.50
506.41	252.78
506.58	224.69
506.76	236.39
506.93	215.33
507.11	124.05
507.28	201.29
507.46	156.82
507.63	166.18
507.81	227.03
507.98	184.90
508.16	234.05
508.33	236.39
508.50	313.63
508.68	257.46
508.85	215.33
509.03	252.78
509.20	224.69
509.38	236.39
509.55	308.95
509.73	262.14
509.90	250.44
510.08	252.78
510.25	299.59
510.42	215.33
510.60	264.48
510.77	217.67
510.95	311.29
511.12	278.52
511.30	315.97
511.47	227.03
511.64	327.68
511.82	252.78
511.99	393.21
512.17	273.84
512.34	224.69
512.51	196.60
512.69	306.61
512.86	292.57
513.04	271.50
513.21	248.10
513.38	222.35
513.56	215.33
513.73	222.35
513.90	124.05
514.08	191.92
514.25	301.93
514.43	301.93
514.60	163.84
514.77	280.86
514.95	203.63
515.12	168.52
515.29	229.37
515.47	215.33
515.64	257.46
515.81	285.55
515.99	308.95
516.16	250.44
516.33	255.12
516.51	269.16
516.68	138.09
516.85	163.84
517.03	210.65
517.20	222.35
517.37	224.69
517.54	320.65
517.72	248.10
517.89	210.65
518.06	152.13
518.24	241.08
518.41	196.60
518.58	243.42
518.75	203.63
518.93	259.80
519.10	273.84
519.27	196.60
519.45	292.57
519.62	243.42
519.79	264.48
519.96	220.01
520.14	196.60
520.31	273.84
520.48	217.67
520.65	297.25
520.83	315.97
521.00	276.18
521.17	304.27
521.34	266.82
521.52	367.46
521.69	285.55
521.86	248.10
522.03	269.16
522.20	358.10
522.38	325.33
522.55	360.44
522.72	196.60
522.89	386.19
523.07	393.21
523.24	250.44
523.41	330.02
523.58	266.82
523.75	276.18
523.92	264.48
524.10	280.86
524.27	285.55
524.44	409.59
524.61	388.53
524.78	212.99
524.96	301.93
525.13	287.89
525.30	318.31
525.47	318.31
525.64	313.63
525.81	210.65
525.98	215.33
526.16	243.42
526.33	203.63
526.50	234.05
526.67	166.18
526.84	175.54
527.01	248.10
527.18	269.16
527.36	276.18
527.53	245.76
527.70	369.80
527.87	262.14
528.04	379.17
528.21	304.27
528.38	383.85
528.55	344.06
528.72	348.74
528.89	376.83
529.07	255.12
529.24	297.25
529.41	344.06
529.58	276.18
529.75	315.97
529.92	292.57
530.09	299.59
530.26	285.55
530.43	376.83
530.60	292.57
530.77	278.52
530.94	339.38
531.11	397.89
531.28	241.08
531.46	269.16
531.63	259.80
531.80	341.72
531.97	390.87
532.14	269.16
532.31	238.73
532.48	308.95
532.65	304.27
532.82	224.69
532.99	255.12
533.16	266.82
533.33	346.40
533.50	290.23
533.67	306.61
533.84	400.23
534.01	248.10
534.18	334.70
534.35	332.36
534.52	283.20
534.69	409.59
534.86	348.74
535.03	365.12
535.20	264.48
535.37	355.76
535.54	388.53
535.71	330.02
535.88	325.33
536.05	337.04
536.22	273.84
536.38	313.63
536.55	283.20
536.72	332.36
536.89	276.18
537.06	318.31
537.23	315.97
537.40	332.36
537.57	234.05
537.74	322.99
537.91	294.91
538.08	346.40
538.25	273.84
538.42	372.15
538.59	360.44
538.75	292.57
538.92	259.80
539.09	381.51
539.26	308.95
539.43	381.51
539.60	311.29
539.77	381.51
539.94	334.70
540.11	425.98
540.28	337.04
540.44	287.89
540.61	311.29
540.78	259.80
540.95	306.61
541.12	299.59
541.29	339.38
541.46	388.53
541.62	250.44
541.79	278.52
541.96	327.68
542.13	353.42
542.30	330.02
542.47	308.95
542.63	243.42
542.80	315.97
542.97	423.64
543.14	351.08
543.31	337.04
543.48	315.97
543.64	322.99
543.81	390.87
543.98	308.95
544.15	257.46
544.32	227.03
544.48	355.76
544.65	311.29
544.82	325.33
544.99	271.50
545.16	315.97
545.32	369.80
545.49	325.33
545.66	353.42
545.83	332.36
546.00	330.02
546.16	318.31
546.33	355.76
546.50	301.93
546.67	388.53
546.83	358.10
547.00	409.59
547.17	313.63
547.34	379.17
547.50	318.31
547.67	351.08
547.84	301.93
548.00	367.46
548.17	299.59
548.34	353.42
548.51	416.62
548.67	348.74
548.84	390.87
549.01	346.40
549.18	381.51
549.34	407.25
549.51	332.36
549.68	325.33
549.84	318.31
550.01	397.89
550.18	447.04
550.34	388.53
550.51	292.57
550.68	409.59
550.84	341.72
551.01	294.91
551.18	337.04
551.34	264.48
551.51	372.15
551.68	374.49
551.84	362.78
552.01	297.25
552.18	248.10
552.34	248.10
552.51	294.91
552.68	409.59
552.84	313.63
553.01	313.63
553.18	411.93
553.34	404.91
553.51	414.27
553.67	416.62
553.84	409.59
554.01	358.10
554.17	332.36
554.34	418.96
554.51	409.59
554.67	390.87
554.84	301.93
555.00	416.62
555.17	374.49
555.33	416.62
555.50	325.33
555.67	360.44
555.83	306.61
556.00	334.70
556.16	603.86
556.33	278.52
556.50	381.51
556.66	379.17
556.83	386.19
556.99	315.97
557.16	353.42
557.32	372.15
557.49	346.40
557.65	435.34
557.82	330.02
557.98	341.72
558.15	264.48
558.32	262.14
558.48	222.35
558.65	259.80
558.81	360.44
558.98	255.12
559.14	320.65
559.31	285.55
559.47	369.80
559.64	212.99
559.80	360.44
559.97	287.89
560.13	287.89
560.30	294.91
560.46	409.59
560.63	264.48
560.79	346.40
560.96	311.29
561.12	301.93
561.29	236.39
561.45	264.48
561.61	304.27
561.78	421.30
561.94	311.29
562.11	358.10
562.27	351.08
562.44	351.08
562.60	248.10
562.77	273.84
562.93	407.25
563.10	390.87
563.26	273.84
563.42	318.31
563.59	353.42
563.75	278.52
563.92	358.10
564.08	351.08
564.24	290.23
564.41	477.47
564.57	283.20
564.74	353.42
564.90	327.68
565.07	409.59
565.23	292.57
565.39	341.72
565.56	238.73
565.72	344.06
565.88	400.23
566.05	322.99
566.21	276.18
566.38	327.68
566.54	337.04
566.70	285.55
566.87	379.17
567.03	280.86
567.19	339.38
567.36	346.40
567.52	294.91
567.68	339.38
567.85	322.99
568.01	259.80
568.17	346.40
568.34	280.86
568.50	407.25
568.66	304.27
568.83	383.85
568.99	290.23
569.15	306.61
569.32	294.91
569.48	271.50
569.64	250.44
569.81	327.68
569.97	348.74
570.13	292.57
570.30	304.27
570.46	318.31
570.62	203.63
570.78	255.12
570.95	306.61
571.11	308.95
571.27	344.06
571.43	332.36
571.60	315.97
571.76	241.08
571.92	297.25
572.09	294.91
572.25	313.63
572.41	383.85
572.57	341.72
572.74	367.46
572.90	332.36
573.06	273.84
573.22	353.42
573.38	442.36
573.55	301.93
573.71	379.17
573.87	390.87
574.03	271.50
574.20	332.36
574.36	341.72
574.52	262.14
574.68	353.42
574.84	325.33
575.01	243.42
575.17	418.96
575.33	304.27
575.49	362.78
575.65	355.76
575.82	269.16
575.98	397.89
576.14	341.72
576.30	290.23
576.46	369.80
576.62	290.23
576.79	259.80
576.95	306.61
577.11	311.29
577.27	311.29
577.43	283.20
577.59	322.99
577.75	234.05
577.92	259.80
578.08	325.33
578.24	337.04
578.40	313.63
578.56	337.04
578.72	294.91
578.88	372.15
579.04	402.57
579.21	386.19
579.37	411.93
579.53	318.31
579.69	341.72
579.85	301.93
580.01	381.51
580.17	409.59
580.33	339.38
580.49	299.59
580.65	362.78
580.82	358.10
580.98	346.40
581.14	278.52
581.30	339.38
581.46	301.93
581.62	362.78
581.78	259.80
581.94	285.55
582.10	266.82
582.26	290.23
582.42	308.95
582.58	404.91
582.74	318.31
582.90	334.70
583.06	379.17
583.22	379.17
583.38	344.06
583.54	322.99
583.70	341.72
583.86	313.63
584.02	365.12
584.18	313.63
584.34	332.36
584.50	358.10
584.66	266.82
584.82	280.86
584.98	353.42
585.14	390.87
585.30	388.53
585.46	322.99
585.62	257.46
585.78	290.23
585.94	322.99
586.10	311.29
586.26	304.27
586.42	322.99
586.58	255.12
586.74	306.61
586.90	304.27
587.06	315.97
587.22	278.52
587.38	224.69
587.54	278.52
587.70	360.44
587.86	294.91
588.02	271.50
588.18	255.12
588.34	341.72
588.49	191.92
588.65	215.33
588.81	163.84
588.97	140.43
589.13	187.24
589.29	259.80
589.45	273.84
589.61	273.84
589.77	428.32
589.93	301.93
590.08	306.61
590.24	248.10
590.40	236.39
590.56	313.63
590.72	285.55
590.88	224.69
591.04	313.63
591.20	248.10
591.35	273.84
591.51	294.91
591.67	313.63
591.83	245.76
591.99	227.03
592.15	320.65
592.31	297.25
592.46	201.29
592.62	255.12
592.78	231.71
592.94	198.95
593.10	224.69
593.26	262.14
593.41	283.20
593.57	325.33
593.73	285.55
593.89	301.93
594.05	304.27
594.20	224.69
594.36	287.89
594.52	287.89
594.68	245.76
594.84	215.33
594.99	383.85
595.15	388.53
595.31	262.14
595.47	320.65
595.62	252.78
595.78	332.36
595.94	271.50
596.10	358.10
596.25	266.82
596.41	334.70
596.57	201.29
596.73	266.82
596.88	198.95
597.04	238.73
597.20	269.16
597.36	341.72
597.51	220.01
597.67	210.65
597.83	337.04
597.99	231.71
598.14	255.12
598.30	334.70
598.46	210.65
598.61	264.48
598.77	294.91
598.93	191.92
599.09	320.65
599.24	294.91
599.40	299.59
599.56	294.91
599.71	330.02
599.87	241.08
600.03	313.63
600.18	278.52
600.34	250.44
600.50	238.73
600.65	198.95
600.81	229.37
600.97	208.31
601.12	198.95
601.28	259.80
601.44	348.74
601.59	184.90
601.75	234.05
601.91	308.95
602.06	318.31
602.22	440.02
602.37	337.04
602.53	250.44
602.69	304.27
602.84	294.91
603.00	369.80
603.16	283.20
603.31	294.91
603.47	248.10
603.62	238.73
603.78	299.59
603.94	245.76
604.09	276.18
604.25	334.70
604.40	304.27
604.56	245.76
604.71	243.42
604.87	163.84
605.03	220.01
605.18	262.14
605.34	365.12
605.49	273.84
605.65	276.18
605.80	257.46
605.96	264.48
606.12	257.46
606.27	227.03
606.43	194.26
606.58	308.95
606.74	217.67
606.89	224.69
607.05	234.05
607.20	360.44
607.36	280.86
607.51	271.50
607.67	327.68
607.82	297.25
607.98	227.03
608.13	280.86
608.29	306.61
608.44	245.76
608.60	264.48
608.75	264.48
608.91	294.91
609.06	248.10
609.22	273.84
609.37	229.37
609.53	238.73
609.68	259.80
609.84	292.57
609.99	257.46
610.15	229.37
610.30	175.54
610.46	245.76
610.61	212.99
610.76	259.80
610.92	290.23
611.07	301.93
611.23	372.15
611.38	273.84
611.54	184.90
611.69	208.31
611.84	241.08
612.00	189.58
612.15	180.22
612.31	177.88
612.46	149.79
612.62	196.60
612.77	271.50
612.92	255.12
613.08	257.46
613.23	236.39
613.39	215.33
613.54	276.18
613.69	236.39
613.85	203.63
614.00	133.41
614.15	220.01
614.31	234.05
614.46	315.97
614.62	287.89
614.77	311.29
614.92	205.97
615.08	238.73
615.23	205.97
615.38	255.12
615.54	222.35
615.69	187.24
615.84	220.01
616.00	163.84
616.15	154.48
616.30	290.23
616.46	194.26
616.61	168.52
616.76	189.58
616.92	217.67
617.07	215.33
617.22	205.97
617.37	203.63
617.53	124.05
617.68	236.39
617.83	262.14
617.99	299.59
618.14	194.26
618.29	257.46
618.45	322.99
618.60	215.33
618.75	212.99
618.90	156.82
619.06	177.88
619.21	220.01
619.36	287.89
619.51	156.82
619.67	170.86
619.82	318.31
619.97	198.95
620.12	271.50
620.28	257.46
620.43	229.37
620.58	191.92
620.73	222.35
620.89	269.16
621.04	224.69
621.19	248.10
621.34	187.24
621.49	149.79
621.65	210.65
621.80	203.63
621.95	133.41
622.10	222.35
622.25	114.69
622.41	241.08
622.56	227.03
622.71	264.48
622.86	149.79
623.01	220.01
623.16	168.52
623.32	154.48
623.47	177.88
623.62	264.48
623.77	156.82
623.92	187.24
624.07	140.43
624.23	187.24
624.38	131.07
624.53	203.63
624.68	227.03
624.83	283.20
624.98	194.26
625.13	175.54
625.29	140.43
625.44	234.05
625.59	114.69
625.74	184.90
625.89	215.33
626.04	142.77
626.19	128.73
626.34	86.60
626.49	201.29
626.65	184.90
626.80	229.37
626.95	180.22
627.10	107.66
627.25	203.63
627.40	37.45
627.55	180.22
627.70	147.45
627.85	180.22
628.00	191.92
628.15	166.18
628.30	203.63
628.45	154.48
628.60	107.66
628.76	227.03
628.91	149.79
629.06	126.39
629.21	212.99
629.36	175.54
629.51	168.52
629.66	86.60
629.81	175.54
629.96	163.84
630.11	93.62
630.26	229.37
630.41	170.86
630.56	222.35
630.71	168.52
630.86	140.43
631.01	105.32
631.16	175.54
631.31	173.20
631.46	264.48
631.61	217.67
631.76	161.50
631.91	135.75
632.06	88.94
632.21	224.69
632.36	175.54
632.51	154.48
632.66	201.29
632.81	95.96
632.96	212.99
633.10	161.50
633.25	229.37
633.40	166.18
633.55	196.60
633.70	135.75
633.85	156.82
634.00	177.88
634.15	182.56
634.30	236.39
634.45	168.52
634.60	189.58
634.75	135.75
634.90	145.11
635.05	159.16
635.19	163.84
635.34	194.26
635.49	135.75
635.64	203.63
635.79	138.09
635.94	142.77
636.09	215.33
636.24	114.69
636.39	187.24
636.53	220.01
636.68	194.26
636.83	175.54
636.98	243.42
637.13	119.37
637.28	212.99
637.43	315.97
637.57	159.16
637.72	194.26
637.87	98.30
638.02	102.98
638.17	140.43
638.32	147.45
638.46	149.79
638.61	285.55
638.76	161.50
638.91	191.92
639.06	215.33
639.20	210.65
639.35	154.48
639.50	84.26
639.65	248.10
639.80	163.84
639.94	205.97
640.09	182.56
640.24	191.92
640.39	156.82
640.54	203.63
640.68	149.79
640.83	147.45
640.98	126.39
641.13	175.54
641.27	74.90
641.42	133.41
641.57	93.62
641.72	135.75
641.86	159.16
642.01	222.35
642.16	184.90
642.31	173.20
642.45	184.90
642.60	184.90
642.75	119.37
642.90	189.58
643.04	163.84
643.19	147.45
643.34	138.09
643.48	238.73
643.63	117.03
643.78	128.73
643.93	154.48
644.07	201.29
644.22	163.84
644.37	117.03
644.51	198.95
644.66	142.77
644.81	236.39
644.95	114.69
645.10	88.94
645.25	173.20
645.39	135.75
645.54	98.30
645.69	189.58
645.83	156.82
645.98	56.17
646.13	161.50
646.27	182.56
646.42	72.56
646.57	114.69
646.71	100.64
646.86	95.96
647.00	163.84
647.15	110.01
647.30	133.41
647.44	100.64
647.59	124.05
647.74	0.00
647.88	147.45
648.03	44.47
648.17	98.30
648.32	126.39
648.47	135.75
648.61	39.79
648.76	95.96
648.90	30.43
649.05	88.94
649.20	77.24
649.34	63.19
649.49	81.92
649.63	117.03
649.78	131.07
649.92	110.01
650.07	126.39
650.21	25.75
650.36	140.43
650.51	126.39
650.65	161.50
650.80	105.32
650.94	140.43
651.09	28.09
651.23	84.26
651.38	128.73
651.52	102.98
651.67	142.77
651.81	154.48
651.96	187.24
652.10	107.66
652.25	112.35
652.39	133.41
652.54	236.39
652.68	95.96
652.83	119.37
652.97	91.28
653.12	147.45
653.26	77.24
653.41	189.58
653.55	117.03
653.70	58.51
653.84	152.13
653.99	114.69
654.13	37.45
654.27	93.62
654.42	74.90
654.56	56.17
654.71	166.18
654.85	93.62
655.00	81.92
655.14	42.13
655.29	105.32
655.43	145.11
655.57	128.73
655.72	67.88
655.86	91.28
656.01	63.19
656.15	51.49
656.30	140.43
656.44	7.02
656.58	9.36
656.73	58.51
656.87	86.60
657.01	84.26
657.16	119.37
657.30	110.01
657.45	119.37
657.59	7.02
657.73	81.92
657.88	154.48
658.02	159.16
658.16	53.83
658.31	74.90
658.45	133.41
658.60	44.47
658.74	79.58
658.88	72.56
659.03	28.09
659.17	88.94
659.31	74.90
659.46	81.92
659.60	147.45
659.74	67.88
659.89	91.28
660.03	37.45
660.17	112.35
660.32	126.39
660.46	168.52
660.60	91.28
660.74	117.03
660.89	77.24
661.03	86.60
661.17	114.69
661.32	23.41
661.46	110.01
661.60	79.58
661.74	145.11
661.89	147.45
662.03	0.00
662.17	91.28
662.31	105.32
662.46	88.94
662.60	67.88
662.74	119.37
662.88	105.32
663.03	25.75
663.17	86.60
663.31	77.24
663.45	98.30
663.60	25.75
663.74	0.00
663.88	67.88
664.02	74.90
664.17	86.60
664.31	60.85
664.45	39.79
664.59	35.11
664.73	44.47
664.88	126.39
665.02	84.26
665.16	53.83
665.30	95.96
665.44	81.92
665.59	84.26
665.73	91.28
665.87	95.96
666.01	152.13
666.15	0.00
666.29	74.90
666.44	44.47
666.58	121.71
666.72	37.45
666.86	91.28
667.00	119.37
667.14	67.88
667.28	124.05
667.43	42.13
667.57	142.77
667.71	126.39
667.85	77.24
667.99	102.98
668.13	74.90
668.27	67.88
668.41	30.43
668.56	35.11
668.70	79.58
668.84	0.00
668.98	44.47
669.12	0.00
669.26	49.15
669.40	159.16
669.54	67.88
669.68	105.32
669.82	42.13
669.96	98.30
670.10	63.19
670.25	128.73
670.39	0.00
670.53	72.56
670.67	49.15
670.81	58.51
670.95	51.49
671.09	42.13
671.23	145.11
671.37	133.41
671.51	84.26
671.65	100.64
671.79	44.47
671.93	79.58
672.07	147.45
672.21	91.28
672.35	60.85
672.49	0.00
672.63	32.77
672.77	0.00
672.91	84.26
673.05	79.58
673.19	44.47
673.33	14.04
673.47	58.51
673.61	65.54
673.75	25.75
673.89	0.00
674.03	128.73
674.17	37.45
674.31	16.38
674.45	49.15
674.59	51.49
674.73	60.85
674.87	84.26
675.01	53.83
675.15	100.64
675.29	70.22
675.43	56.17
675.56	93.62
675.70	44.47
675.84	4.68
675.98	28.09
676.12	0.00
676.26	60.85
676.40	0.00
676.54	32.77
676.68	0.00
676.82	9.36
676.96	14.04
677.10	0.00
677.23	0.00
677.37	0.00
677.51	39.79
677.65	58.51
677.79	0.00
677.93	0.00
678.07	0.00
678.21	2.34
678.34	9.36
678.48	25.75
678.62	0.00
678.76	2.34
678.90	0.00
679.04	9.36
679.18	14.04
679.31	0.00
679.45	32.77
679.59	0.00
679.73	0.00
679.87	0.00
680.00	0.00
680.14	0.00
680.28	0.00
680.42	0.00
680.56	0.00
680.70	18.72
680.83	51.49
680.97	0.00
681.11	21.06
681.25	60.85
681.39	0.00
681.52	0.00
681.66	16.38
681.80	0.00
681.94	0.00
682.07	0.00
682.21	23.41
682.35	21.06
682.49	0.00
682.62	0.00
682.76	0.00
682.90	0.00
683.04	28.09
683.17	0.00
683.31	0.00
683.45	0.00
683.59	23.41
683.72	32.77
683.86	56.17
684.00	9.36
684.13	14.04
684.27	0.00
684.41	65.54
684.55	0.00
684.68	14.04
684.82	0.00
684.96	0.00
685.09	0.00
685.23	9.36
685.37	56.17
685.50	0.00
685.64	2.34
685.78	0.00
685.91	18.72
686.05	32.77
686.19	0.00
686.32	0.00
686.46	0.00
686.60	0.00
686.73	0.00
686.87	0.00
687.01	0.00
687.14	0.00
687.28	0.00
687.42	0.00
687.55	0.00
687.69	9.36
687.82	0.00
687.96	0.00
688.10	0.00
688.23	0.00
688.37	11.70
688.50	0.00
688.64	0.00
688.78	0.00
688.91	0.00
689.05	0.00
689.18	0.00
689.32	0.00
689.46	0.00
689.59	2.34
689.73	7.02
689.86	0.00
690.00	0.00
690.13	0.00
690.27	0.00
690.41	0.00
690.54	16.38
690.68	0.00
690.81	0.00
690.95	0.00
691.08	0.00
691.22	0.00
691.35	0.00
691.49	0.00
691.62	9.36
691.76	0.00
691.89	0.00
692.03	0.00
692.16	0.00
692.30	0.00
692.43	0.00
692.57	0.00
692.70	0.00
692.84	0.00
692.97	0.00
693.11	0.00
693.24	0.00
693.38	0.00
693.51	0.00
693.65	0.00
693.78	0.00
693.92	0.00
694.05	0.00
694.19	0.00
694.32	0.00
694.45	0.00
694.59	0.00
694.72	0.00
694.86	0.00
694.99	0.00
695.13	0.00
695.26	0.00
695.39	0.00
695.53	4.68
695.66	0.00
695.80	0.00
695.93	0.00
696.07	0.00
696.20	0.00
696.33	0.00
696.47	0.00
696.60	0.00
696.73	0.00
696.87	0.00
697.00	0.00
697.14	0.00
697.27	0.00
697.40	0.00
697.54	0.00
697.67	0.00
697.80	0.00
697.94	0.00
698.07	0.00
698.21	0.00
698.34	0.00
698.47	0.00
698.61	0.00
698.74	0.00
698.87	0.00
699.01	0.00
699.14	0.00
699.27	0.00
699.40	11.70
699.54	0.00
699.67	0.00
699.80	0.00
699.94	0.00
700.07	0.00
700.20	0.00
700.34	0.00
700.47	0.00
700.60	0.00
700.73	0.00
700.87	0.00
701.00	0.00
701.13	0.00
701.26	0.00
701.40	0.00
701.53	0.00
701.66	0.00
701.79	0.00
701.93	0.00
702.06	0.00
702.19	0.00
702.32	0.00
702.46	0.00
702.59	0.00
702.72	0.00
702.85	0.00
702.99	0.00
703.12	0.00
703.25	0.00
703.38	0.00
703.51	0.00
703.65	0.00
703.78	0.00
703.91	0.00
704.04	0.00
704.17	0.00
704.31	0.00
704.44	0.00
704.57	0.00
704.70	0.00
704.83	0.00
704.96	0.00
705.10	0.00
705.23	0.00
>>>>>End Processed Spectral Data<<<<<
