SpectraSuite Data File
++++++++++++++++++++++++++++++++++++
Date: Mon Oct 07 15:00:16 GMT-05:00 2013
User: price-jones
Dark Spectrum Present: No
Reference Spectrum Present: No
Number of Sampled Component Spectra: 1
Spectrometers: USB2+H05261
Integration Time (usec): 1000000 (USB2+H05261)
Spectra Averaged: 1 (USB2+H05261)
Boxcar Smoothing: 0 (USB2+H05261)
Correct for Electrical Dark: No (USB2+H05261)
Strobe/Lamp Enabled: No (USB2+H05261)
Correct for Detector Non-linearity: No (USB2+H05261)
Correct for Stray Light: No (USB2+H05261)
Number of Pixels in Processed Spectrum: 2048
>>>>>Begin Processed Spectral Data<<<<<
365.73	0.00
365.92	0.00
366.12	0.00
366.32	0.00
366.52	0.00
366.72	245.76
366.91	0.00
367.11	215.33
367.31	119.37
367.51	159.16
367.70	290.23
367.90	524.28
368.10	142.77
368.30	217.67
368.49	0.00
368.69	379.17
368.89	166.18
369.09	0.00
369.28	93.62
369.48	0.00
369.68	53.83
369.87	262.14
370.07	28.09
370.27	531.30
370.47	245.76
370.66	159.16
370.86	337.04
371.06	784.08
371.25	968.98
371.45	318.31
371.65	615.56
371.84	210.65
372.04	156.82
372.24	369.80
372.44	271.50
372.63	456.40
372.83	807.48
373.03	355.76
373.22	229.37
373.42	306.61
373.62	341.72
373.81	519.60
374.01	723.23
374.21	641.31
374.40	341.72
374.60	748.97
374.79	383.85
374.99	379.17
375.19	505.56
375.38	524.28
375.58	475.13
375.78	669.39
375.97	571.09
376.17	1050.90
376.37	437.68
376.56	526.62
376.76	290.23
376.95	280.86
377.15	564.07
377.35	451.72
377.54	540.66
377.74	320.65
377.93	248.10
378.13	491.51
378.33	648.33
378.52	442.36
378.72	638.97
378.91	660.03
379.11	330.02
379.31	313.63
379.50	105.32
379.70	603.86
379.89	624.92
380.09	337.04
380.28	215.33
380.48	351.08
380.68	252.78
380.87	173.20
381.07	395.55
381.26	734.93
381.46	210.65
381.65	465.77
381.85	330.02
382.04	514.92
382.24	533.64
382.43	372.15
382.63	220.01
382.83	325.33
383.02	650.67
383.22	758.33
383.41	189.58
383.61	400.23
383.80	741.95
384.00	433.00
384.19	318.31
384.39	440.02
384.58	337.04
384.78	456.40
384.97	505.56
385.17	386.19
385.36	308.95
385.56	638.97
385.75	194.26
385.95	423.64
386.14	624.92
386.34	287.89
386.53	440.02
386.72	222.35
386.92	767.70
387.11	580.45
387.31	510.24
387.50	278.52
387.70	227.03
387.89	421.30
388.09	353.42
388.28	191.92
388.48	241.08
388.67	594.50
388.86	379.17
389.06	404.91
389.25	540.66
389.45	528.96
389.64	498.53
389.84	772.38
390.03	561.73
390.22	458.74
390.42	315.97
390.61	212.99
390.81	245.76
391.00	451.72
391.19	638.97
391.39	435.34
391.58	587.47
391.78	400.23
391.97	351.08
392.16	220.01
392.36	681.10
392.55	610.88
392.75	433.00
392.94	290.23
393.13	631.94
393.33	236.39
393.52	388.53
393.71	830.89
393.91	493.85
394.10	264.48
394.29	390.87
394.49	266.82
394.68	498.53
394.88	617.90
395.07	653.01
395.26	409.59
395.46	400.23
395.65	727.91
395.84	582.79
396.04	1203.04
396.23	407.25
396.42	252.78
396.62	578.11
396.81	526.62
397.00	437.68
397.19	505.56
397.39	414.27
397.58	835.57
397.77	383.85
397.97	514.92
398.16	404.91
398.35	631.94
398.55	355.76
398.74	470.45
398.93	784.08
399.12	276.18
399.32	594.50
399.51	477.47
399.70	540.66
399.90	624.92
400.09	580.45
400.28	795.78
400.47	440.02
400.67	709.18
400.86	468.11
401.05	678.76
401.24	699.82
401.44	725.57
401.63	760.67
401.82	919.83
402.01	381.51
402.21	723.23
402.40	543.00
402.59	468.11
402.78	454.06
402.97	472.79
403.17	543.00
403.36	629.60
403.55	547.69
403.74	414.27
403.93	500.87
404.13	828.55
404.32	407.25
404.51	386.19
404.70	748.97
404.89	496.19
405.09	1095.37
405.28	571.09
405.47	355.76
405.66	770.04
405.85	741.95
406.05	564.07
406.24	533.64
406.43	634.29
406.62	620.24
406.81	1163.25
407.00	739.61
407.20	545.34
407.39	500.87
407.58	470.45
407.77	774.72
407.96	823.87
408.15	851.96
408.34	655.35
408.54	669.39
408.73	622.58
408.92	503.22
409.11	791.10
409.30	821.53
409.49	404.91
409.68	599.18
409.87	657.69
410.07	430.66
410.26	599.18
410.45	629.60
410.64	470.45
410.83	648.33
411.02	573.43
411.21	770.04
411.40	861.32
411.59	592.16
411.78	521.94
411.98	660.03
412.17	418.96
412.36	531.30
412.55	589.82
412.74	767.70
412.93	1114.10
413.12	489.17
413.31	915.15
413.50	641.31
413.69	634.29
413.88	997.07
414.07	718.54
414.26	674.07
414.45	540.66
414.64	737.27
414.83	823.87
415.02	744.29
415.22	812.17
415.41	976.00
415.60	578.11
415.79	704.50
415.98	1048.56
416.17	826.21
416.36	671.73
416.55	496.19
416.74	812.17
416.93	894.08
417.12	669.39
417.31	706.84
417.50	592.16
417.69	1191.33
417.88	732.59
418.07	559.39
418.26	629.60
418.45	624.92
418.64	1107.07
418.83	706.84
419.02	868.34
419.21	660.03
419.39	688.12
419.58	472.79
419.77	507.90
419.96	1022.81
420.15	1064.94
420.34	702.16
420.53	781.74
420.72	910.47
420.91	856.64
421.10	760.67
421.29	809.83
421.48	840.25
421.67	957.28
421.86	718.54
422.05	683.44
422.24	709.18
422.43	795.78
422.61	582.79
422.80	709.18
422.99	779.40
423.18	510.24
423.37	1032.18
423.56	866.00
423.75	854.30
423.94	531.30
424.13	627.26
424.32	615.56
424.50	657.69
424.69	657.69
424.88	1186.65
425.07	681.10
425.26	835.57
425.45	898.77
425.64	580.45
425.83	657.69
426.01	1121.12
426.20	830.89
426.39	662.37
426.58	610.88
426.77	767.70
426.96	828.55
427.15	739.61
427.33	627.26
427.52	723.23
427.71	767.70
427.90	777.06
428.09	674.07
428.28	582.79
428.46	641.31
428.65	947.92
428.84	737.27
429.03	1139.84
429.22	627.26
429.40	477.47
429.59	573.43
429.78	833.23
429.97	535.98
430.16	491.51
430.34	608.54
430.53	578.11
430.72	578.11
430.91	997.07
431.10	512.58
431.28	720.88
431.47	971.32
431.66	954.94
431.85	704.50
432.03	681.10
432.22	1401.98
432.41	734.93
432.60	1160.91
432.79	601.52
432.97	887.06
433.16	763.01
433.35	564.07
433.54	589.82
433.72	966.64
433.91	924.51
434.10	718.54
434.28	802.80
434.47	718.54
434.66	1022.81
434.85	760.67
435.03	849.61
435.22	1275.59
435.41	1270.91
435.59	947.92
435.78	931.53
435.97	678.76
436.16	1074.31
436.34	840.25
436.53	898.77
436.72	1128.14
436.90	987.71
437.09	896.43
437.28	882.38
437.46	737.27
437.65	1015.79
437.84	1036.86
438.02	870.68
438.21	1013.45
438.40	695.14
438.58	564.07
438.77	851.96
438.96	842.59
439.14	730.25
439.33	1039.20
439.52	868.34
439.70	854.30
439.89	1076.65
440.08	784.08
440.26	856.64
440.45	1317.72
440.63	968.98
440.82	894.08
441.01	992.39
441.19	863.66
441.38	842.59
441.57	861.32
441.75	1247.51
441.94	1303.68
442.12	957.28
442.31	915.15
442.50	908.13
442.68	877.70
442.87	926.85
443.05	851.96
443.24	1027.50
443.43	1029.84
443.61	1259.21
443.80	947.92
443.98	880.04
444.17	919.83
444.35	1186.65
444.54	908.13
444.73	882.38
444.91	1364.53
445.10	858.98
445.28	833.23
445.47	959.62
445.65	1001.75
445.84	777.06
446.02	983.02
446.21	917.49
446.39	873.02
446.58	1109.41
446.77	821.53
446.95	882.38
447.14	1076.65
447.32	1404.32
447.51	1078.99
447.69	1034.52
447.88	1057.92
448.06	1383.26
448.25	1102.39
448.43	861.32
448.62	730.25
448.80	1032.18
448.99	1144.52
449.17	866.00
449.36	849.61
449.54	1191.33
449.73	816.85
449.91	1125.80
450.10	985.37
450.28	1767.10
450.46	1544.75
450.65	1392.62
450.83	1116.44
451.02	976.00
451.20	1048.56
451.39	952.60
451.57	978.34
451.76	905.79
451.94	1093.03
452.13	1196.01
452.31	1448.79
452.49	990.05
452.68	772.38
452.86	1102.39
453.05	1490.92
453.23	1064.94
453.42	931.53
453.60	915.15
453.78	976.00
453.97	744.29
454.15	793.44
454.34	905.79
454.52	917.49
454.70	1411.34
454.89	1233.46
455.07	866.00
455.26	1221.76
455.44	1181.97
455.62	1018.13
455.81	1078.99
455.99	1174.95
456.17	1284.95
456.36	985.37
456.54	887.06
456.73	968.98
456.91	945.58
457.09	1102.39
457.28	1252.19
457.46	1039.20
457.64	1362.19
457.83	987.71
458.01	983.02
458.19	1111.75
458.38	894.08
458.56	1156.22
458.74	910.47
458.93	1086.01
459.11	1261.55
459.29	929.19
459.48	1256.87
459.66	1629.01
459.84	1310.70
460.03	2230.53
460.21	1336.45
460.39	1156.22
460.57	1369.21
460.76	1139.84
460.94	1170.27
461.12	1589.22
461.31	1411.34
461.49	1198.35
461.67	1032.18
461.85	1172.61
462.04	1158.57
462.22	7552.91
462.40	1411.34
462.59	1394.96
462.77	1018.13
462.95	1153.88
463.13	875.36
463.32	1294.32
463.50	1123.46
463.68	1245.16
463.86	1219.42
464.05	1076.65
464.23	1439.43
464.41	1240.48
464.59	1057.92
464.78	1032.18
464.96	861.32
465.14	1233.46
465.32	863.66
465.50	1128.14
465.69	1308.36
465.87	896.43
466.05	1240.48
466.23	830.89
466.41	999.41
466.60	1022.81
466.78	1137.50
466.96	1380.92
467.14	1139.84
467.32	1430.07
467.51	1207.72
467.69	1303.68
467.87	1504.96
468.05	1102.39
468.23	1565.82
468.41	1376.24
468.60	1095.37
468.78	1144.52
468.96	1528.37
469.14	1296.66
469.32	826.21
469.50	954.94
469.69	1252.19
469.87	1177.29
470.05	1188.99
470.23	1078.99
470.41	847.27
470.59	1039.20
470.77	1111.75
470.95	1130.48
471.14	1556.46
471.32	1198.35
471.50	1603.27
471.68	1245.16
471.86	1345.81
472.04	968.98
472.22	1259.21
472.40	929.19
472.58	997.07
472.77	954.94
472.95	1139.84
473.13	1750.72
473.31	1448.79
473.49	1114.10
473.67	1022.81
473.85	1287.29
474.03	1460.49
474.21	1207.72
474.39	1542.41
474.57	1584.54
474.75	1296.66
474.93	1039.20
475.12	1109.41
475.30	1121.12
475.48	1207.72
475.66	1240.48
475.84	1142.18
476.02	1282.61
476.20	1500.28
476.38	1172.61
476.56	1942.64
476.74	1184.31
476.92	1249.85
477.10	1198.35
477.28	1469.86
477.46	1219.42
477.64	1481.56
477.82	1160.91
478.00	1191.33
478.18	1359.85
478.36	1266.23
478.54	1064.94
478.72	1212.40
478.90	1359.85
479.08	1373.89
479.26	1441.77
479.44	1184.31
479.62	1081.33
479.80	1221.76
479.98	1179.63
480.16	1179.63
480.34	1699.23
480.52	1186.65
480.70	1523.69
480.88	1165.59
481.06	1151.54
481.24	1153.88
481.41	1369.21
481.59	1521.35
481.77	1474.54
481.95	1306.02
482.13	1792.85
482.31	1411.34
482.49	1310.70
482.67	1516.67
482.85	1626.67
483.03	1547.09
483.21	1366.87
483.39	1399.64
483.57	1338.79
483.74	1851.36
483.92	1600.93
484.10	1224.10
484.28	1727.32
484.46	2214.15
484.64	1387.94
484.82	1453.47
485.00	1437.09
485.18	1500.28
485.35	1432.41
485.53	1153.88
485.71	1673.48
485.89	1151.54
486.07	1226.44
486.25	2101.80
486.43	1645.40
486.61	1732.00
486.78	1636.03
486.96	1261.55
487.14	1509.65
487.32	1483.90
487.50	1486.24
487.68	1732.00
487.85	1376.24
488.03	1748.38
488.21	1916.90
488.39	1593.90
488.57	1806.89
488.75	1401.98
488.92	5203.01
489.10	1816.26
489.28	2251.60
489.46	1540.07
489.64	1598.59
489.81	1652.42
489.99	1830.30
490.17	1575.18
490.35	2513.74
490.53	1678.16
490.70	1554.12
490.88	1891.15
491.06	1563.48
491.24	1809.23
491.41	2120.53
491.59	1781.15
491.77	1455.81
491.95	1493.26
492.13	1537.73
492.30	1853.70
492.48	1799.87
492.66	1802.21
492.84	1682.85
493.01	1764.76
493.19	1654.76
493.37	2181.38
493.54	2019.88
493.72	1879.45
493.90	1825.62
494.08	1668.80
494.25	1947.33
494.43	1968.39
494.61	1694.55
494.79	1589.22
494.96	1636.03
495.14	1914.56
495.32	1722.63
495.49	1928.60
495.67	1895.83
495.85	1872.43
496.02	1760.08
496.20	2101.80
496.38	2115.84
496.55	1811.57
496.73	1970.73
496.91	1846.68
497.09	2052.65
497.26	1996.48
497.44	1905.20
497.62	1888.81
497.79	1783.49
497.97	1940.30
498.14	2033.93
498.32	1914.56
498.50	1937.96
498.67	1792.85
498.85	2076.06
499.03	1895.83
499.20	2012.86
499.38	2087.76
499.56	1856.04
499.73	2387.35
499.91	2136.91
500.08	2200.10
500.26	1863.07
500.44	1778.81
500.61	1998.82
500.79	1905.20
500.97	2165.00
501.14	2347.56
501.32	1923.92
501.49	2321.81
501.67	1870.09
501.84	2064.35
502.02	1774.13
502.20	2513.74
502.37	2127.55
502.55	1973.07
502.72	1944.99
502.90	2169.68
503.07	2101.80
503.25	2101.80
503.43	1849.02
503.60	1834.98
503.78	2057.33
503.95	1944.99
504.13	1860.73
504.30	2251.60
504.48	2300.75
504.65	2338.20
504.83	2190.74
505.01	1994.14
505.18	2202.44
505.36	2057.33
505.53	2141.59
505.71	2012.86
505.88	2523.10
506.06	2115.84
506.23	1947.33
506.41	1966.05
506.58	2090.10
506.76	2157.97
506.93	1982.43
507.11	2244.57
507.28	1987.11
507.46	1973.07
507.63	2076.06
507.81	1902.86
507.98	2029.24
508.16	2057.33
508.33	2019.88
508.50	2328.83
508.68	2125.21
508.85	2153.29
509.03	2139.25
509.20	1919.24
509.38	2256.28
509.55	2462.24
509.73	2296.07
509.90	2499.69
510.08	2033.93
510.25	2303.09
510.42	1952.01
510.60	2113.50
510.77	2406.07
510.95	2450.54
511.12	2195.42
511.30	2284.36
511.47	2448.20
511.64	2747.79
511.82	2090.10
511.99	2083.08
512.17	2083.08
512.34	1909.88
512.51	1991.80
512.69	2005.84
512.86	2429.48
513.04	2071.37
513.21	2232.87
513.38	1984.77
513.56	1895.83
513.73	2054.99
513.90	1959.03
514.08	1813.92
514.25	2221.17
514.43	2176.70
514.60	1954.35
514.77	2127.55
514.95	2181.38
515.12	1980.09
515.29	2230.53
515.47	2209.47
515.64	2244.57
515.81	2108.82
515.99	2518.42
516.16	2172.02
516.33	2263.30
516.51	1792.85
516.68	1643.06
516.85	1863.07
517.03	1846.68
517.20	2174.36
517.37	2296.07
517.54	2305.43
517.72	2003.50
517.89	1699.23
518.06	1809.23
518.24	2490.33
518.41	2628.42
518.58	2319.47
518.75	1881.79
518.93	2080.74
519.10	2176.70
519.27	2134.57
519.45	2204.78
519.62	2277.34
519.79	2317.13
519.96	1937.96
520.14	2036.27
520.31	2595.65
520.48	2172.02
520.65	2225.85
520.83	2434.16
521.00	2406.07
521.17	2462.24
521.34	2146.27
521.52	2359.26
521.69	2277.34
521.86	2202.44
522.03	2373.30
522.20	2712.68
522.38	2120.53
522.55	2265.64
522.72	2101.80
522.89	2476.29
523.07	2832.05
523.24	2307.77
523.41	2303.09
523.58	2167.34
523.75	2272.66
523.92	2069.03
524.10	2415.43
524.27	2319.47
524.44	2211.81
524.61	2651.83
524.78	2157.97
524.96	2436.50
525.13	2380.32
525.30	2595.65
525.47	2534.80
525.64	2424.80
525.81	2434.16
525.98	2406.07
526.16	2136.91
526.33	1989.46
526.50	2012.86
526.67	1818.60
526.84	1989.46
527.01	2069.03
527.18	2303.09
527.36	2122.87
527.53	2139.25
527.70	2677.57
527.87	2202.44
528.04	2843.75
528.21	2209.47
528.38	2630.76
528.55	2682.25
528.72	2731.41
528.89	2972.48
529.07	2377.98
529.24	2422.45
529.41	2775.88
529.58	2420.11
529.75	2188.40
529.92	2513.74
530.09	2289.04
530.26	2530.12
530.43	2506.71
530.60	2455.22
530.77	2520.76
530.94	2679.91
531.11	2637.78
531.28	2333.51
531.46	2387.35
531.63	2361.60
531.80	2448.20
531.97	2527.78
532.14	2246.91
532.31	2244.57
532.48	2282.02
532.65	2232.87
532.82	2064.35
532.99	2244.57
533.16	2473.95
533.33	2188.40
533.50	2399.05
533.67	2134.57
533.84	2534.80
534.01	2429.48
534.18	2307.77
534.35	2347.56
534.52	2319.47
534.69	2932.69
534.86	2429.48
535.03	2333.51
535.20	2289.04
535.37	2839.07
535.54	2530.12
535.71	2457.56
535.88	2885.88
536.05	2326.49
536.22	2469.27
536.38	2193.08
536.55	2370.96
536.72	2626.08
536.89	2186.06
537.06	2242.23
537.23	2303.09
537.40	2347.56
537.57	2244.57
537.74	2506.71
537.91	2630.76
538.08	2349.90
538.25	2448.20
538.42	2368.62
538.59	2478.63
538.75	2282.02
538.92	2230.53
539.09	2558.21
539.26	2282.02
539.43	2696.30
539.60	2368.62
539.77	2349.90
539.94	2314.79
540.11	2375.64
540.28	2684.59
540.44	2689.28
540.61	2115.84
540.78	2289.04
540.95	2090.10
541.12	2778.22
541.29	2310.11
541.46	2731.41
541.62	2349.90
541.79	2235.21
541.96	2120.53
542.13	2284.36
542.30	2193.08
542.47	2656.51
542.63	2303.09
542.80	2333.51
542.97	2541.82
543.14	2310.11
543.31	2539.48
543.48	2462.24
543.64	2548.84
543.81	2359.26
543.98	2340.54
544.15	2050.31
544.32	2342.88
544.48	2424.80
544.65	2272.66
544.82	2239.89
544.99	2375.64
545.16	2780.56
545.32	2204.78
545.49	2569.91
545.66	2408.41
545.83	2047.97
546.00	2190.74
546.16	2172.02
546.33	2286.70
546.50	2377.98
546.67	2658.85
546.83	2647.15
547.00	2483.31
547.17	2239.89
547.34	2129.89
547.50	2401.39
547.67	2485.65
547.84	2214.15
548.00	2553.52
548.17	2244.57
548.34	2340.54
548.51	2942.05
548.67	2658.85
548.84	2427.14
549.01	2448.20
549.18	2572.25
549.34	2478.63
549.51	2392.03
549.68	2377.98
549.84	2408.41
550.01	2197.76
550.18	3896.99
550.34	3272.07
550.51	2403.73
550.68	2885.88
550.84	2223.51
551.01	2377.98
551.18	2649.49
551.34	2445.86
551.51	2410.75
551.68	2429.48
551.84	2614.38
552.01	2289.04
552.18	2277.34
552.34	2314.79
552.51	2431.82
552.68	2504.37
552.84	2312.45
553.01	2586.29
553.18	2502.03
553.34	2377.98
553.51	2242.23
553.67	2565.23
553.84	2930.35
554.01	2710.34
554.17	2532.46
554.34	2232.87
554.51	2590.97
554.67	2684.59
554.84	2696.30
555.00	2546.50
555.17	2469.27
555.33	2708.00
555.50	2487.99
555.67	2429.48
555.83	2232.87
556.00	2502.03
556.16	4496.17
556.33	2403.73
556.50	2317.13
556.66	2296.07
556.83	2080.74
556.99	2148.61
557.16	2431.82
557.32	2239.89
557.49	2221.17
557.65	2211.81
557.82	2228.19
557.98	2335.85
558.15	2335.85
558.32	2176.70
558.48	2291.38
558.65	2129.89
558.81	2377.98
558.98	2204.78
559.14	2410.75
559.31	2352.24
559.47	2464.58
559.64	2129.89
559.80	2537.14
559.97	1998.82
560.13	2293.72
560.30	2054.99
560.46	2242.23
560.63	2193.08
560.79	2403.73
560.96	2375.64
561.12	2078.40
561.29	2363.94
561.45	2162.66
561.61	2469.27
561.78	3215.90
561.94	2232.87
562.11	2125.21
562.27	2356.92
562.44	2148.61
562.60	2258.62
562.77	2286.70
562.93	3089.51
563.10	2434.16
563.26	2324.15
563.42	2656.51
563.59	2401.39
563.75	2146.27
563.92	2619.06
564.08	2361.60
564.24	2504.37
564.41	2836.73
564.57	2078.40
564.74	2118.18
564.90	2265.64
565.07	2457.56
565.23	2466.92
565.39	2160.31
565.56	2317.13
565.72	2033.93
565.88	2195.42
566.05	2069.03
566.21	2270.32
566.38	2424.80
566.54	2284.36
566.70	2090.10
566.87	2181.38
567.03	2054.99
567.19	2293.72
567.36	2420.11
567.52	2160.31
567.68	2401.39
567.85	2464.58
568.01	2129.89
568.17	1984.77
568.34	2062.01
568.50	2567.57
568.66	2054.99
568.83	3070.78
568.99	2101.80
569.15	2555.86
569.32	2179.04
569.48	2122.87
569.64	2026.90
569.81	2207.13
569.97	2029.24
570.13	2375.64
570.30	2127.55
570.46	2090.10
570.62	1998.82
570.78	2038.61
570.95	1923.92
571.11	2766.51
571.27	2710.34
571.43	2045.63
571.60	2370.96
571.76	1994.14
571.92	2326.49
572.09	2136.91
572.25	2209.47
572.41	2282.02
572.57	2223.51
572.74	2766.51
572.90	2431.82
573.06	2242.23
573.22	2448.20
573.38	2530.12
573.55	2530.12
573.71	2644.81
573.87	2380.32
574.03	2059.67
574.20	2181.38
574.36	2616.72
574.52	2125.21
574.68	2157.97
574.84	2263.30
575.01	2115.84
575.17	2485.65
575.33	2040.95
575.49	2506.71
575.65	2504.37
575.82	2373.30
575.98	2726.72
576.14	2267.98
576.30	2139.25
576.46	2186.06
576.62	2181.38
576.79	2167.34
576.95	2464.58
577.11	2076.06
577.27	1888.81
577.43	2497.35
577.59	2523.10
577.75	2186.06
577.92	2045.63
578.08	2190.74
578.24	1893.49
578.40	2368.62
578.56	2518.42
578.72	2597.99
578.88	2523.10
579.04	2122.87
579.21	2246.91
579.37	2113.50
579.53	2129.89
579.69	2504.37
579.85	1989.46
580.01	2377.98
580.17	2125.21
580.33	2136.91
580.49	2326.49
580.65	2410.75
580.82	2136.91
580.98	2132.23
581.14	1970.73
581.30	2424.80
581.46	2099.46
581.62	2548.84
581.78	2099.46
581.94	2462.24
582.10	1952.01
582.26	2188.40
582.42	2118.18
582.58	2312.45
582.74	2209.47
582.90	2167.34
583.06	2282.02
583.22	2324.15
583.38	2031.58
583.54	2029.24
583.70	2607.36
583.86	2235.21
584.02	2263.30
584.18	2539.48
584.34	2118.18
584.50	2356.92
584.66	2146.27
584.82	1893.49
584.98	2228.19
585.14	2118.18
585.30	2445.86
585.46	2026.90
585.62	1933.28
585.78	2047.97
585.94	2342.88
586.10	2193.08
586.26	2183.72
586.42	2595.65
586.58	2314.79
586.74	2146.27
586.90	2165.00
587.06	2352.24
587.22	2256.28
587.38	1909.88
587.54	2066.69
587.70	2525.44
587.86	2464.58
588.02	2038.61
588.18	2193.08
588.34	2312.45
588.49	1528.37
588.65	1867.75
588.81	1785.83
588.97	1619.65
589.13	1818.60
589.29	1940.30
589.45	2298.41
589.61	2010.52
589.77	2478.63
589.93	1907.54
590.08	1830.30
590.24	1961.37
590.40	2071.37
590.56	2193.08
590.72	2001.16
590.88	1907.54
591.04	2078.40
591.20	1944.99
591.35	2396.71
591.51	2045.63
591.67	1863.07
591.83	2052.65
591.99	2134.57
592.15	2286.70
592.31	2087.76
592.46	1888.81
592.62	2174.36
592.78	1954.35
592.94	1900.52
593.10	1881.79
593.26	1788.17
593.41	2209.47
593.57	2043.29
593.73	1942.64
593.89	2200.10
594.05	2012.86
594.20	1984.77
594.36	2476.29
594.52	1963.71
594.68	1909.88
594.84	2324.15
594.99	2399.05
595.15	2146.27
595.31	2214.15
595.47	2502.03
595.62	2069.03
595.78	1952.01
595.94	1921.58
596.10	2333.51
596.25	2195.42
596.41	2277.34
596.57	1935.62
596.73	1970.73
596.88	2136.91
597.04	2134.57
597.20	1900.52
597.36	2022.22
597.51	2040.95
597.67	1891.15
597.83	2008.18
597.99	2172.02
598.14	2054.99
598.30	2408.41
598.46	1881.79
598.61	2410.75
598.77	2097.12
598.93	1891.15
599.09	1867.75
599.24	2040.95
599.40	2275.00
599.56	1963.71
599.71	2043.29
599.87	1912.22
600.03	2230.53
600.18	1949.67
600.34	2101.80
600.50	1881.79
600.65	1806.89
600.81	2260.96
600.97	1799.87
601.12	1893.49
601.28	2214.15
601.44	2057.33
601.59	1842.00
601.75	1942.64
601.91	1851.36
602.06	1973.07
602.22	2930.35
602.37	2221.17
602.53	2083.08
602.69	2160.31
602.84	1820.94
603.00	1907.54
603.16	2221.17
603.31	2228.19
603.47	2066.69
603.62	1710.93
603.78	2012.86
603.94	2150.95
604.09	2040.95
604.25	2122.87
604.40	2172.02
604.56	1961.37
604.71	2120.53
604.87	1872.43
605.03	1973.07
605.18	1975.41
605.34	2396.71
605.49	1919.24
605.65	1902.86
605.80	1783.49
605.96	2073.71
606.12	2183.72
606.27	2200.10
606.43	1961.37
606.58	2300.75
606.74	1961.37
606.89	2043.29
607.05	2239.89
607.20	2054.99
607.36	2167.34
607.51	1713.27
607.67	1914.56
607.82	2101.80
607.98	2373.30
608.13	2104.14
608.29	1856.04
608.44	2193.08
608.60	1959.03
608.75	2354.58
608.91	2211.81
609.06	2115.84
609.22	2235.21
609.37	1842.00
609.53	1830.30
609.68	1937.96
609.84	1556.46
609.99	1736.68
610.15	1959.03
610.30	2026.90
610.46	2139.25
610.61	1952.01
610.76	1872.43
610.92	2090.10
611.07	1746.04
611.23	2729.06
611.38	2228.19
611.54	1844.34
611.69	1748.38
611.84	1804.55
612.00	1666.46
612.15	1804.55
612.31	1753.06
612.46	1713.27
612.62	1572.84
612.77	2267.98
612.92	2040.95
613.08	2356.92
613.23	1954.35
613.39	1813.92
613.54	1650.08
613.69	1589.22
613.85	1839.66
614.00	1776.47
614.15	1785.83
614.31	1643.06
614.46	2029.24
614.62	1802.21
614.77	2244.57
614.92	1792.85
615.08	1956.69
615.23	1895.83
615.38	1867.75
615.54	1792.85
615.69	1774.13
615.84	1488.58
616.00	1724.97
616.15	1732.00
616.30	1764.76
616.46	1757.74
616.61	1605.61
616.76	1996.48
616.92	1811.57
617.07	1797.53
617.22	1516.67
617.37	1753.06
617.53	1879.45
617.68	1809.23
617.83	1842.00
617.99	2169.68
618.14	2307.77
618.29	2174.36
618.45	1811.57
618.60	1706.25
618.75	1682.85
618.90	1563.48
619.06	1834.98
619.21	2429.48
619.36	2207.13
619.51	1729.66
619.67	1729.66
619.82	1743.70
619.97	1923.92
620.12	1947.33
620.28	1928.60
620.43	1879.45
620.58	1926.26
620.73	1823.28
620.89	1720.29
621.04	1874.77
621.19	2333.51
621.34	1636.03
621.49	1479.22
621.65	1783.49
621.80	1544.75
621.95	1661.78
622.10	1872.43
622.25	1523.69
622.41	1547.09
622.56	1774.13
622.71	1760.08
622.86	2085.42
623.01	1650.08
623.16	2162.66
623.32	1598.59
623.47	1877.11
623.62	1685.19
623.77	1631.35
623.92	1722.63
624.07	1614.97
624.23	1699.23
624.38	1500.28
624.53	1741.36
624.68	1991.80
624.83	2090.10
624.98	1856.04
625.13	1537.73
625.29	1507.30
625.44	1633.69
625.59	1813.92
625.74	1734.34
625.89	2132.23
626.04	1430.07
626.19	1596.25
626.34	1624.33
626.49	1783.49
626.65	1425.39
626.80	1661.78
626.95	1809.23
627.10	1514.33
627.25	1732.00
627.40	1434.75
627.55	1652.42
627.70	1476.88
627.85	1804.55
628.00	1589.22
628.15	1451.13
628.30	1832.64
628.45	1481.56
628.60	1610.29
628.76	1685.19
628.91	1486.24
629.06	1694.55
629.21	1526.03
629.36	1886.47
629.51	1336.45
629.66	1631.35
629.81	1423.05
629.96	1729.66
630.11	1839.66
630.26	1699.23
630.41	1533.05
630.56	1568.16
630.71	1411.34
630.86	1486.24
631.01	1373.89
631.16	1497.94
631.31	1966.05
631.46	1884.13
631.61	1619.65
631.76	1638.38
631.91	1509.65
632.06	1743.70
632.21	1727.32
632.36	1816.26
632.51	1504.96
632.66	1600.93
632.81	1418.36
632.96	1626.67
633.10	1591.56
633.25	2083.08
633.40	1617.31
633.55	1533.05
633.70	1467.52
633.85	1612.63
634.00	1256.87
634.15	1418.36
634.30	1657.10
634.45	1647.74
634.60	1444.11
634.75	1320.06
634.90	1507.30
635.05	1514.33
635.19	1584.54
635.34	1439.43
635.49	1729.66
635.64	1500.28
635.79	1467.52
635.94	1650.08
636.09	1881.79
636.24	1685.19
636.39	1554.12
636.53	1914.56
636.68	1432.41
636.83	1575.18
636.98	1959.03
637.13	1451.13
637.28	1722.63
637.43	1984.77
637.57	1659.44
637.72	2052.65
637.87	1650.08
638.02	1394.96
638.17	1561.14
638.32	1732.00
638.46	1575.18
638.61	2113.50
638.76	1397.30
638.91	1427.73
639.06	1341.13
639.20	1970.73
639.35	1774.13
639.50	1507.30
639.65	2148.61
639.80	1617.31
639.94	1858.39
640.09	2062.01
640.24	2043.29
640.39	1741.36
640.54	1661.78
640.68	1549.43
640.83	1804.55
640.98	1369.21
641.13	1460.49
641.27	1380.92
641.42	1420.71
641.57	1837.32
641.72	1535.39
641.86	1472.20
642.01	1401.98
642.16	1710.93
642.31	1521.35
642.45	2132.23
642.60	1900.52
642.75	1488.58
642.90	1888.81
643.04	1394.96
643.19	1371.55
643.34	1533.05
643.48	1607.95
643.63	1418.36
643.78	1888.81
643.93	2012.86
644.07	1526.03
644.22	1397.30
644.37	1226.44
644.51	1785.83
644.66	1596.25
644.81	1392.62
644.95	1813.92
645.10	1371.55
645.25	1273.25
645.39	1591.56
645.54	1284.95
645.69	1940.30
645.83	1287.29
645.98	2143.93
646.13	1348.15
646.27	1818.60
646.42	1158.57
646.57	1320.06
646.71	1392.62
646.86	1261.55
647.00	1556.46
647.15	1661.78
647.30	1252.19
647.44	1336.45
647.59	1259.21
647.74	1228.78
647.88	1540.07
648.03	1078.99
648.17	1666.46
648.32	1090.69
648.47	1497.94
648.61	1369.21
648.76	1203.04
648.90	1240.48
649.05	1406.66
649.20	1156.22
649.34	1137.50
649.49	1142.18
649.63	1310.70
649.78	1313.04
649.92	1291.98
650.07	1479.22
650.21	1179.63
650.36	1696.89
650.51	1196.01
650.65	1762.42
650.80	1387.94
650.94	1289.64
651.09	1331.76
651.23	1259.21
651.38	1268.57
651.52	1394.96
651.67	1277.93
651.81	1390.28
651.96	1757.74
652.10	1710.93
652.25	1392.62
652.39	1509.65
652.54	1373.89
652.68	1420.71
652.83	1533.05
652.97	1416.02
653.12	1507.30
653.26	1181.97
653.41	1605.61
653.55	1486.24
653.70	1226.44
653.84	1273.25
653.99	1308.36
654.13	1198.35
654.27	1345.81
654.42	1249.85
654.56	1327.08
654.71	1621.99
654.85	1174.95
655.00	1219.42
655.14	1191.33
655.29	1036.86
655.43	1540.07
655.57	1158.57
655.72	1011.11
655.86	1240.48
656.01	1266.23
656.15	1153.88
656.30	1741.36
656.44	1128.14
656.58	1060.26
656.73	1205.38
656.87	1062.60
657.01	1275.59
657.16	1762.42
657.30	1479.22
657.45	1771.79
657.59	1329.42
657.73	1100.05
657.88	1289.64
658.02	2165.00
658.16	1315.38
658.31	1259.21
658.45	1273.25
658.60	1074.31
658.74	1355.17
658.88	1048.56
659.03	1153.88
659.17	1050.90
659.31	1102.39
659.46	1245.16
659.60	1394.96
659.74	1256.87
659.89	1217.08
660.03	1233.46
660.17	1764.76
660.32	1490.92
660.46	1507.30
660.60	1310.70
660.74	1451.13
660.89	1355.17
661.03	1184.31
661.17	1263.89
661.32	1256.87
661.46	1310.70
661.60	1142.18
661.74	1469.86
661.89	1565.82
662.03	1371.55
662.17	1179.63
662.31	1362.19
662.46	1409.00
662.60	1291.98
662.74	1167.93
662.88	1406.66
663.03	1233.46
663.17	1100.05
663.31	1296.66
663.45	1341.13
663.60	1149.20
663.74	1032.18
663.88	1011.11
664.02	1273.25
664.17	1181.97
664.31	1172.61
664.45	1266.23
664.59	1238.14
664.73	1205.38
664.88	1558.80
665.02	1123.46
665.16	1158.57
665.30	1638.38
665.44	1277.93
665.59	1488.58
665.73	1259.21
665.87	1289.64
666.01	1238.14
666.15	1135.16
666.29	1083.67
666.44	1600.93
666.58	1804.55
666.72	1111.75
666.86	1207.72
667.00	1479.22
667.14	1203.04
667.28	1373.89
667.43	1144.52
667.57	1270.91
667.71	1390.28
667.85	1186.65
667.99	1352.83
668.13	1212.40
668.27	1355.17
668.41	1420.71
668.56	1256.87
668.70	1624.33
668.84	1313.04
668.98	1289.64
669.12	952.60
669.26	1188.99
669.40	1912.22
669.54	1303.68
669.68	1547.09
669.82	1090.69
669.96	1188.99
670.10	1327.08
670.25	1474.54
670.39	1364.53
670.53	1156.22
670.67	1336.45
670.81	1006.43
670.95	1231.12
671.09	1123.46
671.23	1572.84
671.37	1519.01
671.51	1217.08
671.65	1357.51
671.79	1149.20
671.93	1270.91
672.07	1834.98
672.21	1310.70
672.35	1102.39
672.49	1043.88
672.63	1409.00
672.77	1303.68
672.91	1369.21
673.05	1193.67
673.19	1212.40
673.33	1046.22
673.47	1746.04
673.61	1146.86
673.75	1001.75
673.89	868.34
674.03	1320.06
674.17	1008.77
674.31	1118.78
674.45	1296.66
674.59	1233.46
674.73	1062.60
674.87	1142.18
675.01	1270.91
675.15	1100.05
675.29	1570.50
675.43	1355.17
675.56	1612.63
675.70	1516.67
675.84	1104.73
675.98	1170.27
676.12	896.43
676.26	1090.69
676.40	896.43
676.54	1046.22
676.68	1083.67
676.82	1462.83
676.96	873.02
677.10	1109.41
677.23	961.96
677.37	919.83
677.51	1090.69
677.65	1743.70
677.79	1041.54
677.93	896.43
678.07	997.07
678.21	870.68
678.34	929.19
678.48	940.90
678.62	1078.99
678.76	751.31
678.90	997.07
679.04	1008.77
679.18	901.11
679.31	807.48
679.45	887.06
679.59	1078.99
679.73	997.07
679.87	805.14
680.00	1062.60
680.14	957.28
680.28	1163.25
680.42	929.19
680.56	1217.08
680.70	929.19
680.83	1093.03
680.97	856.64
681.11	915.15
681.25	1280.27
681.39	1041.54
681.52	1025.15
681.66	1062.60
681.80	1160.91
681.94	835.57
682.07	868.34
682.21	1086.01
682.35	842.59
682.49	891.74
682.62	1266.23
682.76	784.08
682.90	936.21
683.04	1071.97
683.17	1048.56
683.31	828.55
683.45	1137.50
683.59	1387.94
683.72	1233.46
683.86	1036.86
684.00	938.55
684.13	1282.61
684.27	1149.20
684.41	1036.86
684.55	903.45
684.68	1001.75
684.82	730.25
684.96	929.19
685.09	1039.20
685.23	858.98
685.37	812.17
685.50	1205.38
685.64	1203.04
685.78	748.97
685.91	1053.24
686.05	1212.40
686.19	990.05
686.32	901.11
686.46	917.49
686.60	444.70
686.73	1399.64
686.87	1074.31
687.01	650.67
687.14	423.64
687.28	582.79
687.42	624.92
687.55	688.12
687.69	1104.73
687.82	606.20
687.96	786.42
688.10	1078.99
688.23	737.27
688.37	1217.08
688.50	851.96
688.64	917.49
688.78	613.22
688.91	711.52
689.05	716.20
689.18	559.39
689.32	688.12
689.46	685.78
689.59	830.89
689.73	954.94
689.86	552.37
690.00	678.76
690.13	685.78
690.27	580.45
690.41	786.42
690.54	1210.06
690.68	856.64
690.81	716.20
690.95	739.61
691.08	889.40
691.22	645.99
691.35	709.18
691.49	571.09
691.62	751.31
691.76	645.99
691.89	826.21
692.03	557.05
692.16	571.09
692.30	826.21
692.43	770.04
692.57	568.75
692.70	505.56
692.84	842.59
692.97	557.05
693.11	589.82
693.24	711.52
693.38	566.41
693.51	692.80
693.65	919.83
693.78	592.16
693.92	650.67
694.05	915.15
694.19	475.13
694.32	751.31
694.45	578.11
694.59	706.84
694.72	592.16
694.86	674.07
694.99	772.38
695.13	573.43
695.26	758.33
695.39	664.71
695.53	1418.36
695.66	802.80
695.80	922.17
695.93	594.50
696.07	692.80
696.20	765.36
696.33	610.88
696.47	697.48
696.60	657.69
696.73	840.25
696.87	645.99
697.00	1256.87
697.14	784.08
697.27	765.36
697.40	1476.88
697.54	678.76
697.67	725.57
697.80	772.38
697.94	657.69
698.07	737.27
698.21	641.31
698.34	926.85
698.47	519.60
698.61	425.98
698.74	606.20
698.87	992.39
699.01	704.50
699.14	578.11
699.27	947.92
699.40	2153.29
699.54	706.84
699.67	557.05
699.80	526.62
699.94	587.47
700.07	503.22
700.20	383.85
700.34	638.97
700.47	311.29
700.60	465.77
700.73	585.13
700.87	1071.97
701.00	624.92
701.13	552.37
701.26	655.35
701.40	566.41
701.53	531.30
701.66	390.87
701.79	662.37
701.93	653.01
702.06	1046.22
702.19	561.73
702.32	847.27
702.46	512.58
702.59	498.53
702.72	358.10
702.85	648.33
702.99	489.17
703.12	964.30
703.25	496.19
703.38	489.17
703.51	877.70
703.65	421.30
703.78	500.87
703.91	779.40
704.04	917.49
704.17	578.11
704.31	348.74
704.44	433.00
704.57	531.30
704.70	568.75
704.83	620.24
704.96	521.94
705.10	667.05
705.23	552.37
>>>>>End Processed Spectral Data<<<<<
