SpectraSuite Data File
++++++++++++++++++++++++++++++++++++
Date: Mon Oct 07 15:00:00 GMT-05:00 2013
User: price-jones
Dark Spectrum Present: No
Reference Spectrum Present: No
Number of Sampled Component Spectra: 1
Spectrometers: USB2+H05261
Integration Time (usec): 100000 (USB2+H05261)
Spectra Averaged: 1 (USB2+H05261)
Boxcar Smoothing: 0 (USB2+H05261)
Correct for Electrical Dark: No (USB2+H05261)
Strobe/Lamp Enabled: No (USB2+H05261)
Correct for Detector Non-linearity: No (USB2+H05261)
Correct for Stray Light: No (USB2+H05261)
Number of Pixels in Processed Spectrum: 2048
>>>>>Begin Processed Spectral Data<<<<<
365.73	0.00
365.92	0.00
366.12	0.00
366.32	0.00
366.52	0.00
366.72	0.00
366.91	0.00
367.11	0.00
367.31	0.00
367.51	0.00
367.70	0.00
367.90	0.00
368.10	0.00
368.30	0.00
368.49	0.00
368.69	0.00
368.89	0.00
369.09	0.00
369.28	0.00
369.48	0.00
369.68	0.00
369.87	0.00
370.07	0.00
370.27	0.00
370.47	0.00
370.66	0.00
370.86	0.00
371.06	0.00
371.25	0.00
371.45	0.00
371.65	0.00
371.84	0.00
372.04	0.00
372.24	0.00
372.44	0.00
372.63	0.00
372.83	0.00
373.03	0.00
373.22	0.00
373.42	0.00
373.62	0.00
373.81	0.00
374.01	0.00
374.21	0.00
374.40	0.00
374.60	0.00
374.79	0.00
374.99	0.00
375.19	0.00
375.38	0.00
375.58	0.00
375.78	0.00
375.97	0.00
376.17	0.00
376.37	0.00
376.56	0.00
376.76	0.00
376.95	0.00
377.15	0.00
377.35	0.00
377.54	0.00
377.74	0.00
377.93	0.00
378.13	0.00
378.33	0.00
378.52	0.00
378.72	0.00
378.91	0.00
379.11	0.00
379.31	0.00
379.50	0.00
379.70	0.00
379.89	0.00
380.09	0.00
380.28	0.00
380.48	0.00
380.68	0.00
380.87	0.00
381.07	0.00
381.26	0.00
381.46	0.00
381.65	0.00
381.85	0.00
382.04	0.00
382.24	0.00
382.43	0.00
382.63	0.00
382.83	0.00
383.02	0.00
383.22	0.00
383.41	0.00
383.61	0.00
383.80	0.00
384.00	0.00
384.19	0.00
384.39	0.00
384.58	0.00
384.78	0.00
384.97	0.00
385.17	0.00
385.36	0.00
385.56	0.00
385.75	0.00
385.95	0.00
386.14	0.00
386.34	0.00
386.53	0.00
386.72	0.00
386.92	0.00
387.11	0.00
387.31	0.00
387.50	0.00
387.70	0.00
387.89	0.00
388.09	0.00
388.28	0.00
388.48	0.00
388.67	0.00
388.86	0.00
389.06	0.00
389.25	0.00
389.45	0.00
389.64	0.00
389.84	0.00
390.03	0.00
390.22	0.00
390.42	0.00
390.61	0.00
390.81	0.00
391.00	0.00
391.19	0.00
391.39	0.00
391.58	0.00
391.78	0.00
391.97	0.00
392.16	0.00
392.36	0.00
392.55	0.00
392.75	0.00
392.94	0.00
393.13	0.00
393.33	0.00
393.52	0.00
393.71	0.00
393.91	0.00
394.10	0.00
394.29	0.00
394.49	0.00
394.68	0.00
394.88	0.00
395.07	0.00
395.26	0.00
395.46	0.00
395.65	0.00
395.84	0.00
396.04	0.00
396.23	0.00
396.42	0.00
396.62	0.00
396.81	0.00
397.00	0.00
397.19	0.00
397.39	0.00
397.58	0.00
397.77	0.00
397.97	0.00
398.16	0.00
398.35	0.00
398.55	0.00
398.74	0.00
398.93	0.00
399.12	0.00
399.32	0.00
399.51	0.00
399.70	0.00
399.90	0.00
400.09	0.00
400.28	0.00
400.47	0.00
400.67	0.00
400.86	0.00
401.05	0.00
401.24	0.00
401.44	0.00
401.63	0.00
401.82	0.00
402.01	0.00
402.21	0.00
402.40	0.00
402.59	0.00
402.78	0.00
402.97	0.00
403.17	0.00
403.36	0.00
403.55	0.00
403.74	0.00
403.93	0.00
404.13	0.00
404.32	0.00
404.51	0.00
404.70	0.00
404.89	0.00
405.09	0.00
405.28	0.00
405.47	0.00
405.66	0.00
405.85	0.00
406.05	0.00
406.24	0.00
406.43	0.00
406.62	0.00
406.81	0.00
407.00	0.00
407.20	0.00
407.39	0.00
407.58	0.00
407.77	0.00
407.96	0.00
408.15	0.00
408.34	0.00
408.54	0.00
408.73	0.00
408.92	0.00
409.11	0.00
409.30	0.00
409.49	0.00
409.68	0.00
409.87	0.00
410.07	0.00
410.26	0.00
410.45	0.00
410.64	0.00
410.83	0.00
411.02	0.00
411.21	0.00
411.40	0.00
411.59	0.00
411.78	0.00
411.98	0.00
412.17	0.00
412.36	0.00
412.55	0.00
412.74	0.00
412.93	0.00
413.12	0.00
413.31	0.00
413.50	0.00
413.69	0.00
413.88	0.00
414.07	0.00
414.26	0.00
414.45	0.00
414.64	0.00
414.83	0.00
415.02	0.00
415.22	0.00
415.41	0.00
415.60	0.00
415.79	0.00
415.98	0.00
416.17	0.00
416.36	0.00
416.55	0.00
416.74	0.00
416.93	0.00
417.12	0.00
417.31	0.00
417.50	0.00
417.69	0.00
417.88	0.00
418.07	0.00
418.26	0.00
418.45	0.00
418.64	0.00
418.83	0.00
419.02	0.00
419.21	0.00
419.39	0.00
419.58	0.00
419.77	0.00
419.96	0.00
420.15	0.00
420.34	0.00
420.53	0.00
420.72	0.00
420.91	0.00
421.10	0.00
421.29	0.00
421.48	0.00
421.67	0.00
421.86	0.00
422.05	0.00
422.24	0.00
422.43	0.00
422.61	0.00
422.80	0.00
422.99	0.00
423.18	0.00
423.37	0.00
423.56	0.00
423.75	0.00
423.94	0.00
424.13	0.00
424.32	0.00
424.50	0.00
424.69	0.00
424.88	0.00
425.07	0.00
425.26	0.00
425.45	0.00
425.64	0.00
425.83	0.00
426.01	0.00
426.20	0.00
426.39	0.00
426.58	0.00
426.77	0.00
426.96	0.00
427.15	0.00
427.33	0.00
427.52	0.00
427.71	0.00
427.90	0.00
428.09	0.00
428.28	0.00
428.46	0.00
428.65	0.00
428.84	0.00
429.03	0.00
429.22	0.00
429.40	0.00
429.59	0.00
429.78	0.00
429.97	0.00
430.16	0.00
430.34	0.00
430.53	0.00
430.72	0.00
430.91	0.00
431.10	0.00
431.28	0.00
431.47	0.00
431.66	0.00
431.85	0.00
432.03	0.00
432.22	0.00
432.41	0.00
432.60	0.00
432.79	0.00
432.97	0.00
433.16	0.00
433.35	0.00
433.54	0.00
433.72	0.00
433.91	0.00
434.10	0.00
434.28	0.00
434.47	0.00
434.66	0.00
434.85	0.00
435.03	0.00
435.22	0.00
435.41	37.45
435.59	0.00
435.78	0.00
435.97	0.00
436.16	0.00
436.34	0.00
436.53	0.00
436.72	0.00
436.90	0.00
437.09	0.00
437.28	0.00
437.46	0.00
437.65	0.00
437.84	0.00
438.02	0.00
438.21	0.00
438.40	0.00
438.58	0.00
438.77	0.00
438.96	0.00
439.14	0.00
439.33	0.00
439.52	0.00
439.70	0.00
439.89	0.00
440.08	0.00
440.26	0.00
440.45	0.00
440.63	0.00
440.82	0.00
441.01	0.00
441.19	0.00
441.38	0.00
441.57	0.00
441.75	0.00
441.94	0.00
442.12	0.00
442.31	0.00
442.50	0.00
442.68	0.00
442.87	0.00
443.05	0.00
443.24	0.00
443.43	0.00
443.61	0.00
443.80	0.00
443.98	0.00
444.17	0.00
444.35	0.00
444.54	0.00
444.73	0.00
444.91	0.00
445.10	0.00
445.28	0.00
445.47	0.00
445.65	9.36
445.84	0.00
446.02	0.00
446.21	0.00
446.39	0.00
446.58	0.00
446.77	0.00
446.95	0.00
447.14	0.00
447.32	0.00
447.51	0.00
447.69	0.00
447.88	0.00
448.06	0.00
448.25	0.00
448.43	0.00
448.62	0.00
448.80	0.00
448.99	0.00
449.17	0.00
449.36	0.00
449.54	0.00
449.73	0.00
449.91	0.00
450.10	0.00
450.28	2.34
450.46	35.11
450.65	0.00
450.83	0.00
451.02	0.00
451.20	0.00
451.39	0.00
451.57	0.00
451.76	0.00
451.94	0.00
452.13	0.00
452.31	18.72
452.49	0.00
452.68	0.00
452.86	0.00
453.05	16.38
453.23	0.00
453.42	0.00
453.60	0.00
453.78	0.00
453.97	0.00
454.15	0.00
454.34	0.00
454.52	0.00
454.70	0.00
454.89	0.00
455.07	0.00
455.26	16.38
455.44	0.00
455.62	0.00
455.81	0.00
455.99	0.00
456.17	0.00
456.36	0.00
456.54	0.00
456.73	0.00
456.91	0.00
457.09	0.00
457.28	0.00
457.46	0.00
457.64	0.00
457.83	0.00
458.01	0.00
458.19	0.00
458.38	0.00
458.56	0.00
458.74	0.00
458.93	0.00
459.11	25.75
459.29	0.00
459.48	0.00
459.66	23.41
459.84	28.09
460.03	28.09
460.21	18.72
460.39	0.00
460.57	46.81
460.76	18.72
460.94	49.15
461.12	11.70
461.31	0.00
461.49	0.00
461.67	0.00
461.85	0.00
462.04	0.00
462.22	559.39
462.40	18.72
462.59	0.00
462.77	0.00
462.95	0.00
463.13	0.00
463.32	0.00
463.50	0.00
463.68	0.00
463.86	0.00
464.05	0.00
464.23	9.36
464.41	0.00
464.59	0.00
464.78	0.00
464.96	0.00
465.14	0.00
465.32	0.00
465.50	0.00
465.69	32.77
465.87	0.00
466.05	0.00
466.23	0.00
466.41	0.00
466.60	0.00
466.78	0.00
466.96	0.00
467.14	0.00
467.32	0.00
467.51	0.00
467.69	28.09
467.87	0.00
468.05	0.00
468.23	0.00
468.41	0.00
468.60	0.00
468.78	0.00
468.96	32.77
469.14	11.70
469.32	0.00
469.50	0.00
469.69	4.68
469.87	0.00
470.05	0.00
470.23	0.00
470.41	0.00
470.59	0.00
470.77	0.00
470.95	0.00
471.14	0.00
471.32	0.00
471.50	56.17
471.68	0.00
471.86	0.00
472.04	9.36
472.22	14.04
472.40	0.00
472.58	0.00
472.77	0.00
472.95	23.41
473.13	9.36
473.31	23.41
473.49	0.00
473.67	16.38
473.85	37.45
474.03	0.00
474.21	0.00
474.39	25.75
474.57	60.85
474.75	0.00
474.93	0.00
475.12	0.00
475.30	0.00
475.48	0.00
475.66	28.09
475.84	0.00
476.02	0.00
476.20	0.00
476.38	0.00
476.56	39.79
476.74	0.00
476.92	30.43
477.10	0.00
477.28	4.68
477.46	77.24
477.64	21.06
477.82	7.02
478.00	21.06
478.18	0.00
478.36	42.13
478.54	0.00
478.72	9.36
478.90	21.06
479.08	93.62
479.26	0.00
479.44	0.00
479.62	51.49
479.80	39.79
479.98	0.00
480.16	124.05
480.34	56.17
480.52	0.00
480.70	0.00
480.88	23.41
481.06	2.34
481.24	21.06
481.41	77.24
481.59	121.71
481.77	119.37
481.95	84.26
482.13	119.37
482.31	63.19
482.49	4.68
482.67	21.06
482.85	37.45
483.03	42.13
483.21	140.43
483.39	131.07
483.57	9.36
483.74	37.45
483.92	42.13
484.10	86.60
484.28	105.32
484.46	133.41
484.64	18.72
484.82	0.00
485.00	0.00
485.18	72.56
485.35	128.73
485.53	67.88
485.71	70.22
485.89	44.47
486.07	4.68
486.25	0.00
486.43	53.83
486.61	2.34
486.78	49.15
486.96	14.04
487.14	0.00
487.32	23.41
487.50	0.00
487.68	119.37
487.85	4.68
488.03	152.13
488.21	133.41
488.39	105.32
488.57	51.49
488.75	72.56
488.92	472.79
489.10	131.07
489.28	67.88
489.46	91.28
489.64	112.35
489.81	79.58
489.99	100.64
490.17	128.73
490.35	184.90
490.53	135.75
490.70	37.45
490.88	163.84
491.06	37.45
491.24	133.41
491.41	0.00
491.59	145.11
491.77	28.09
491.95	119.37
492.13	105.32
492.30	133.41
492.48	131.07
492.66	156.82
492.84	142.77
493.01	77.24
493.19	126.39
493.37	273.84
493.54	145.11
493.72	128.73
493.90	124.05
494.08	124.05
494.25	133.41
494.43	166.18
494.61	107.66
494.79	110.01
494.96	182.56
495.14	124.05
495.32	124.05
495.49	102.98
495.67	196.60
495.85	110.01
496.02	212.99
496.20	175.54
496.38	161.50
496.55	93.62
496.73	107.66
496.91	243.42
497.09	91.28
497.26	187.24
497.44	241.08
497.62	173.20
497.79	299.59
497.97	135.75
498.14	91.28
498.32	234.05
498.50	145.11
498.67	145.11
498.85	187.24
499.03	196.60
499.20	238.73
499.38	145.11
499.56	187.24
499.73	278.52
499.91	163.84
500.08	81.92
500.26	131.07
500.44	170.86
500.61	163.84
500.79	138.09
500.97	173.20
501.14	222.35
501.32	224.69
501.49	273.84
501.67	198.95
501.84	131.07
502.02	177.88
502.20	234.05
502.37	229.37
502.55	133.41
502.72	313.63
502.90	220.01
503.07	170.86
503.25	156.82
503.43	273.84
503.60	194.26
503.78	231.71
503.95	212.99
504.13	210.65
504.30	222.35
504.48	243.42
504.65	243.42
504.83	180.22
505.01	163.84
505.18	203.63
505.36	201.29
505.53	170.86
505.71	177.88
505.88	252.78
506.06	184.90
506.23	271.50
506.41	210.65
506.58	252.78
506.76	166.18
506.93	159.16
507.11	250.44
507.28	142.77
507.46	184.90
507.63	166.18
507.81	138.09
507.98	227.03
508.16	201.29
508.33	203.63
508.50	231.71
508.68	318.31
508.85	259.80
509.03	217.67
509.20	257.46
509.38	196.60
509.55	170.86
509.73	229.37
509.90	273.84
510.08	194.26
510.25	201.29
510.42	191.92
510.60	152.13
510.77	241.08
510.95	259.80
511.12	210.65
511.30	262.14
511.47	299.59
511.64	278.52
511.82	234.05
511.99	243.42
512.17	250.44
512.34	208.31
512.51	320.65
512.69	210.65
512.86	327.68
513.04	227.03
513.21	227.03
513.38	166.18
513.56	180.22
513.73	177.88
513.90	203.63
514.08	217.67
514.25	280.86
514.43	212.99
514.60	215.33
514.77	177.88
514.95	290.23
515.12	217.67
515.29	304.27
515.47	210.65
515.64	177.88
515.81	166.18
515.99	205.97
516.16	250.44
516.33	154.48
516.51	105.32
516.68	65.54
516.85	191.92
517.03	166.18
517.20	241.08
517.37	238.73
517.54	149.79
517.72	227.03
517.89	201.29
518.06	177.88
518.24	196.60
518.41	320.65
518.58	229.37
518.75	250.44
518.93	360.44
519.10	210.65
519.27	215.33
519.45	255.12
519.62	236.39
519.79	306.61
519.96	212.99
520.14	294.91
520.31	320.65
520.48	269.16
520.65	351.08
520.83	330.02
521.00	301.93
521.17	334.70
521.34	315.97
521.52	229.37
521.69	264.48
521.86	257.46
522.03	285.55
522.20	285.55
522.38	276.18
522.55	248.10
522.72	241.08
522.89	330.02
523.07	390.87
523.24	306.61
523.41	257.46
523.58	278.52
523.75	266.82
523.92	287.89
524.10	248.10
524.27	339.38
524.44	311.29
524.61	299.59
524.78	182.56
524.96	278.52
525.13	294.91
525.30	290.23
525.47	315.97
525.64	348.74
525.81	320.65
525.98	227.03
526.16	231.71
526.33	208.31
526.50	203.63
526.67	184.90
526.84	283.20
527.01	290.23
527.18	344.06
527.36	205.97
527.53	322.99
527.70	250.44
527.87	255.12
528.04	273.84
528.21	327.68
528.38	348.74
528.55	311.29
528.72	404.91
528.89	372.15
529.07	337.04
529.24	339.38
529.41	400.23
529.58	351.08
529.75	245.76
529.92	337.04
530.09	280.86
530.26	285.55
530.43	393.21
530.60	269.16
530.77	346.40
530.94	346.40
531.11	297.25
531.28	339.38
531.46	327.68
531.63	266.82
531.80	355.76
531.97	315.97
532.14	271.50
532.31	325.33
532.48	327.68
532.65	339.38
532.82	217.67
532.99	290.23
533.16	339.38
533.33	259.80
533.50	250.44
533.67	299.59
533.84	276.18
534.01	262.14
534.18	334.70
534.35	311.29
534.52	278.52
534.69	374.49
534.86	425.98
535.03	292.57
535.20	372.15
535.37	430.66
535.54	404.91
535.71	315.97
535.88	322.99
536.05	271.50
536.22	362.78
536.38	341.72
536.55	311.29
536.72	292.57
536.89	259.80
537.06	341.72
537.23	386.19
537.40	404.91
537.57	278.52
537.74	315.97
537.91	418.96
538.08	447.04
538.25	297.25
538.42	383.85
538.59	318.31
538.75	241.08
538.92	297.25
539.09	287.89
539.26	283.20
539.43	369.80
539.60	245.76
539.77	339.38
539.94	297.25
540.11	273.84
540.28	339.38
540.44	334.70
540.61	299.59
540.78	313.63
540.95	318.31
541.12	383.85
541.29	315.97
541.46	365.12
541.62	346.40
541.79	287.89
541.96	330.02
542.13	325.33
542.30	297.25
542.47	257.46
542.63	292.57
542.80	276.18
542.97	332.36
543.14	280.86
543.31	383.85
543.48	311.29
543.64	322.99
543.81	353.42
543.98	327.68
544.15	318.31
544.32	280.86
544.48	400.23
544.65	346.40
544.82	362.78
544.99	433.00
545.16	280.86
545.32	313.63
545.49	304.27
545.66	402.57
545.83	301.93
546.00	278.52
546.16	348.74
546.33	383.85
546.50	308.95
546.67	425.98
546.83	367.46
547.00	313.63
547.17	264.48
547.34	236.39
547.50	369.80
547.67	322.99
547.84	287.89
548.00	423.64
548.17	339.38
548.34	320.65
548.51	358.10
548.67	355.76
548.84	269.16
549.01	362.78
549.18	402.57
549.34	397.89
549.51	379.17
549.68	344.06
549.84	299.59
550.01	374.49
550.18	465.77
550.34	397.89
550.51	360.44
550.68	486.83
550.84	248.10
551.01	322.99
551.18	322.99
551.34	362.78
551.51	369.80
551.68	383.85
551.84	353.42
552.01	330.02
552.18	409.59
552.34	428.32
552.51	346.40
552.68	320.65
552.84	318.31
553.01	397.89
553.18	322.99
553.34	367.46
553.51	297.25
553.67	376.83
553.84	451.72
554.01	407.25
554.17	411.93
554.34	285.55
554.51	411.93
554.67	358.10
554.84	388.53
555.00	379.17
555.17	365.12
555.33	404.91
555.50	334.70
555.67	367.46
555.83	238.73
556.00	374.49
556.16	512.58
556.33	369.80
556.50	348.74
556.66	325.33
556.83	245.76
556.99	376.83
557.16	301.93
557.32	301.93
557.49	273.84
557.65	276.18
557.82	283.20
557.98	320.65
558.15	269.16
558.32	241.08
558.48	198.95
558.65	205.97
558.81	411.93
558.98	325.33
559.14	395.55
559.31	327.68
559.47	369.80
559.64	372.15
559.80	355.76
559.97	327.68
560.13	283.20
560.30	212.99
560.46	332.36
560.63	332.36
560.79	369.80
560.96	322.99
561.12	337.04
561.29	358.10
561.45	217.67
561.61	383.85
561.78	456.40
561.94	344.06
562.11	315.97
562.27	315.97
562.44	299.59
562.60	294.91
562.77	337.04
562.93	430.66
563.10	365.12
563.26	351.08
563.42	255.12
563.59	315.97
563.75	313.63
563.92	411.93
564.08	313.63
564.24	369.80
564.41	421.30
564.57	297.25
564.74	285.55
564.90	285.55
565.07	362.78
565.23	341.72
565.39	276.18
565.56	290.23
565.72	322.99
565.88	238.73
566.05	330.02
566.21	374.49
566.38	374.49
566.54	280.86
566.70	250.44
566.87	407.25
567.03	395.55
567.19	372.15
567.36	318.31
567.52	269.16
567.68	297.25
567.85	301.93
568.01	297.25
568.17	276.18
568.34	255.12
568.50	341.72
568.66	369.80
568.83	437.68
568.99	351.08
569.15	322.99
569.32	327.68
569.48	210.65
569.64	276.18
569.81	273.84
569.97	236.39
570.13	325.33
570.30	231.71
570.46	238.73
570.62	220.01
570.78	299.59
570.95	198.95
571.11	355.76
571.27	344.06
571.43	285.55
571.60	339.38
571.76	374.49
571.92	327.68
572.09	365.12
572.25	367.46
572.41	234.05
572.57	351.08
572.74	414.27
572.90	362.78
573.06	280.86
573.22	304.27
573.38	315.97
573.55	372.15
573.71	215.33
573.87	315.97
574.03	346.40
574.20	234.05
574.36	383.85
574.52	306.61
574.68	283.20
574.84	376.83
575.01	278.52
575.17	327.68
575.33	283.20
575.49	322.99
575.65	376.83
575.82	367.46
575.98	358.10
576.14	334.70
576.30	297.25
576.46	365.12
576.62	320.65
576.79	386.19
576.95	372.15
577.11	320.65
577.27	257.46
577.43	315.97
577.59	407.25
577.75	360.44
577.92	358.10
578.08	283.20
578.24	283.20
578.40	269.16
578.56	409.59
578.72	351.08
578.88	400.23
579.04	330.02
579.21	416.62
579.37	318.31
579.53	414.27
579.69	313.63
579.85	234.05
580.01	311.29
580.17	278.52
580.33	294.91
580.49	252.78
580.65	355.76
580.82	402.57
580.98	287.89
581.14	278.52
581.30	369.80
581.46	322.99
581.62	330.02
581.78	313.63
581.94	243.42
582.10	273.84
582.26	337.04
582.42	372.15
582.58	367.46
582.74	374.49
582.90	297.25
583.06	409.59
583.22	379.17
583.38	400.23
583.54	285.55
583.70	360.44
583.86	330.02
584.02	236.39
584.18	376.83
584.34	318.31
584.50	304.27
584.66	372.15
584.82	353.42
584.98	306.61
585.14	259.80
585.30	269.16
585.46	322.99
585.62	262.14
585.78	245.76
585.94	278.52
586.10	337.04
586.26	346.40
586.42	425.98
586.58	315.97
586.74	292.57
586.90	344.06
587.06	344.06
587.22	259.80
587.38	414.27
587.54	262.14
587.70	287.89
587.86	215.33
588.02	386.19
588.18	285.55
588.34	334.70
588.49	250.44
588.65	229.37
588.81	215.33
588.97	191.92
589.13	191.92
589.29	210.65
589.45	344.06
589.61	294.91
589.77	269.16
589.93	248.10
590.08	287.89
590.24	208.31
590.40	287.89
590.56	334.70
590.72	248.10
590.88	238.73
591.04	198.95
591.20	269.16
591.35	313.63
591.51	208.31
591.67	297.25
591.83	278.52
591.99	231.71
592.15	313.63
592.31	318.31
592.46	315.97
592.62	238.73
592.78	318.31
592.94	308.95
593.10	184.90
593.26	280.86
593.41	276.18
593.57	327.68
593.73	283.20
593.89	276.18
594.05	231.71
594.20	262.14
594.36	322.99
594.52	231.71
594.68	315.97
594.84	306.61
594.99	273.84
595.15	320.65
595.31	313.63
595.47	243.42
595.62	278.52
595.78	238.73
595.94	252.78
596.10	379.17
596.25	269.16
596.41	320.65
596.57	257.46
596.73	318.31
596.88	365.12
597.04	255.12
597.20	264.48
597.36	313.63
597.51	241.08
597.67	271.50
597.83	182.56
597.99	287.89
598.14	212.99
598.30	283.20
598.46	217.67
598.61	346.40
598.77	348.74
598.93	154.48
599.09	262.14
599.24	306.61
599.40	271.50
599.56	369.80
599.71	297.25
599.87	264.48
600.03	205.97
600.18	294.91
600.34	304.27
600.50	264.48
600.65	269.16
600.81	210.65
600.97	198.95
601.12	227.03
601.28	234.05
601.44	259.80
601.59	276.18
601.75	236.39
601.91	231.71
602.06	273.84
602.22	322.99
602.37	252.78
602.53	234.05
602.69	315.97
602.84	330.02
603.00	301.93
603.16	353.42
603.31	332.36
603.47	264.48
603.62	236.39
603.78	301.93
603.94	266.82
604.09	280.86
604.25	285.55
604.40	287.89
604.56	351.08
604.71	187.24
604.87	304.27
605.03	269.16
605.18	252.78
605.34	346.40
605.49	290.23
605.65	299.59
605.80	308.95
605.96	205.97
606.12	243.42
606.27	182.56
606.43	315.97
606.58	297.25
606.74	322.99
606.89	252.78
607.05	250.44
607.20	276.18
607.36	306.61
607.51	245.76
607.67	248.10
607.82	287.89
607.98	292.57
608.13	276.18
608.29	222.35
608.44	278.52
608.60	271.50
608.75	346.40
608.91	332.36
609.06	196.60
609.22	257.46
609.37	236.39
609.53	255.12
609.68	262.14
609.84	238.73
609.99	156.82
610.15	269.16
610.30	273.84
610.46	313.63
610.61	252.78
610.76	198.95
610.92	320.65
611.07	166.18
611.23	318.31
611.38	269.16
611.54	198.95
611.69	187.24
611.84	161.50
612.00	280.86
612.15	196.60
612.31	156.82
612.46	196.60
612.62	217.67
612.77	285.55
612.92	271.50
613.08	227.03
613.23	173.20
613.39	154.48
613.54	194.26
613.69	203.63
613.85	241.08
614.00	168.52
614.15	208.31
614.31	154.48
614.46	285.55
614.62	182.56
614.77	248.10
614.92	231.71
615.08	196.60
615.23	182.56
615.38	285.55
615.54	201.29
615.69	229.37
615.84	72.56
616.00	212.99
616.15	238.73
616.30	217.67
616.46	135.75
616.61	217.67
616.76	208.31
616.92	133.41
617.07	238.73
617.22	271.50
617.37	229.37
617.53	250.44
617.68	135.75
617.83	227.03
617.99	203.63
618.14	283.20
618.29	250.44
618.45	140.43
618.60	128.73
618.75	156.82
618.90	196.60
619.06	166.18
619.21	273.84
619.36	252.78
619.51	145.11
619.67	227.03
619.82	203.63
619.97	229.37
620.12	315.97
620.28	236.39
620.43	231.71
620.58	276.18
620.73	175.54
620.89	170.86
621.04	297.25
621.19	241.08
621.34	194.26
621.49	154.48
621.65	149.79
621.80	112.35
621.95	154.48
622.10	215.33
622.25	208.31
622.41	189.58
622.56	222.35
622.71	229.37
622.86	201.29
623.01	177.88
623.16	236.39
623.32	163.84
623.47	201.29
623.62	168.52
623.77	241.08
623.92	198.95
624.07	74.90
624.23	149.79
624.38	229.37
624.53	159.16
624.68	257.46
624.83	196.60
624.98	189.58
625.13	191.92
625.29	121.71
625.44	248.10
625.59	138.09
625.74	156.82
625.89	231.71
626.04	65.54
626.19	154.48
626.34	208.31
626.49	191.92
626.65	98.30
626.80	168.52
626.95	215.33
627.10	117.03
627.25	187.24
627.40	175.54
627.55	140.43
627.70	133.41
627.85	191.92
628.00	65.54
628.15	166.18
628.30	248.10
628.45	110.01
628.60	135.75
628.76	266.82
628.91	180.22
629.06	189.58
629.21	145.11
629.36	182.56
629.51	175.54
629.66	145.11
629.81	149.79
629.96	224.69
630.11	196.60
630.26	119.37
630.41	110.01
630.56	168.52
630.71	149.79
630.86	53.83
631.01	126.39
631.16	163.84
631.31	245.76
631.46	133.41
631.61	81.92
631.76	170.86
631.91	182.56
632.06	203.63
632.21	208.31
632.36	241.08
632.51	227.03
632.66	140.43
632.81	177.88
632.96	133.41
633.10	124.05
633.25	170.86
633.40	119.37
633.55	156.82
633.70	163.84
633.85	95.96
634.00	121.71
634.15	102.98
634.30	93.62
634.45	124.05
634.60	156.82
634.75	140.43
634.90	79.58
635.05	177.88
635.19	220.01
635.34	191.92
635.49	147.45
635.64	180.22
635.79	107.66
635.94	138.09
636.09	210.65
636.24	149.79
636.39	112.35
636.53	175.54
636.68	138.09
636.83	140.43
636.98	133.41
637.13	110.01
637.28	177.88
637.43	163.84
637.57	100.64
637.72	203.63
637.87	166.18
638.02	126.39
638.17	156.82
638.32	140.43
638.46	131.07
638.61	140.43
638.76	121.71
638.91	105.32
639.06	196.60
639.20	227.03
639.35	161.50
639.50	152.13
639.65	161.50
639.80	203.63
639.94	189.58
640.09	285.55
640.24	283.20
640.39	182.56
640.54	147.45
640.68	168.52
640.83	234.05
640.98	126.39
641.13	91.28
641.27	140.43
641.42	159.16
641.57	95.96
641.72	114.69
641.86	152.13
642.01	72.56
642.16	170.86
642.31	131.07
642.45	88.94
642.60	234.05
642.75	138.09
642.90	135.75
643.04	184.90
643.19	100.64
643.34	191.92
643.48	173.20
643.63	126.39
643.78	159.16
643.93	198.95
644.07	142.77
644.22	100.64
644.37	152.13
644.51	222.35
644.66	105.32
644.81	117.03
644.95	180.22
645.10	93.62
645.25	131.07
645.39	168.52
645.54	131.07
645.69	152.13
645.83	133.41
645.98	159.16
646.13	133.41
646.27	142.77
646.42	107.66
646.57	145.11
646.71	166.18
646.86	56.17
647.00	102.98
647.15	131.07
647.30	72.56
647.44	28.09
647.59	63.19
647.74	95.96
647.88	135.75
648.03	114.69
648.17	117.03
648.32	95.96
648.47	189.58
648.61	100.64
648.76	79.58
648.90	60.85
649.05	37.45
649.20	9.36
649.34	86.60
649.49	23.41
649.63	126.39
649.78	147.45
649.92	77.24
650.07	173.20
650.21	100.64
650.36	177.88
650.51	49.15
650.65	114.69
650.80	91.28
650.94	91.28
651.09	70.22
651.23	102.98
651.38	67.88
651.52	142.77
651.67	0.00
651.81	168.52
651.96	184.90
652.10	152.13
652.25	98.30
652.39	114.69
652.54	98.30
652.68	121.71
652.83	149.79
652.97	70.22
653.12	161.50
653.26	135.75
653.41	72.56
653.55	117.03
653.70	70.22
653.84	93.62
653.99	81.92
654.13	9.36
654.27	124.05
654.42	14.04
654.56	79.58
654.71	65.54
654.85	154.48
655.00	63.19
655.14	100.64
655.29	58.51
655.43	159.16
655.57	72.56
655.72	14.04
655.86	63.19
656.01	60.85
656.15	0.00
656.30	65.54
656.44	0.00
656.58	21.06
656.73	74.90
656.87	28.09
657.01	114.69
657.16	124.05
657.30	154.48
657.45	63.19
657.59	175.54
657.73	16.38
657.88	196.60
658.02	203.63
658.16	95.96
658.31	156.82
658.45	37.45
658.60	77.24
658.74	177.88
658.88	0.00
659.03	102.98
659.17	25.75
659.31	60.85
659.46	74.90
659.60	124.05
659.74	32.77
659.89	119.37
660.03	119.37
660.17	142.77
660.32	128.73
660.46	65.54
660.60	70.22
660.74	105.32
660.89	81.92
661.03	79.58
661.17	63.19
661.32	67.88
661.46	93.62
661.60	91.28
661.74	81.92
661.89	161.50
662.03	110.01
662.17	65.54
662.31	21.06
662.46	16.38
662.60	56.17
662.74	58.51
662.88	135.75
663.03	81.92
663.17	91.28
663.31	77.24
663.45	114.69
663.60	60.85
663.74	81.92
663.88	37.45
664.02	95.96
664.17	0.00
664.31	0.00
664.45	152.13
664.59	107.66
664.73	72.56
664.88	88.94
665.02	0.00
665.16	32.77
665.30	184.90
665.44	138.09
665.59	124.05
665.73	72.56
665.87	23.41
666.01	21.06
666.15	98.30
666.29	4.68
666.44	196.60
666.58	131.07
666.72	30.43
666.86	51.49
667.00	191.92
667.14	133.41
667.28	77.24
667.43	51.49
667.57	70.22
667.71	51.49
667.85	100.64
667.99	119.37
668.13	37.45
668.27	142.77
668.41	37.45
668.56	16.38
668.70	107.66
668.84	63.19
668.98	35.11
669.12	0.00
669.26	42.13
669.40	140.43
669.54	9.36
669.68	72.56
669.82	23.41
669.96	70.22
670.10	49.15
670.25	110.01
670.39	30.43
670.53	18.72
670.67	39.79
670.81	4.68
670.95	93.62
671.09	21.06
671.23	88.94
671.37	35.11
671.51	2.34
671.65	107.66
671.79	16.38
671.93	81.92
672.07	42.13
672.21	7.02
672.35	53.83
672.49	117.03
672.63	95.96
672.77	86.60
672.91	60.85
673.05	18.72
673.19	9.36
673.33	35.11
673.47	72.56
673.61	0.00
673.75	0.00
673.89	0.00
674.03	23.41
674.17	67.88
674.31	100.64
674.45	44.47
674.59	0.00
674.73	51.49
674.87	37.45
675.01	37.45
675.15	42.13
675.29	21.06
675.43	72.56
675.56	23.41
675.70	58.51
675.84	30.43
675.98	0.00
676.12	0.00
676.26	18.72
676.40	0.00
676.54	39.79
676.68	58.51
676.82	0.00
676.96	25.75
677.10	32.77
677.23	65.54
677.37	0.00
677.51	56.17
677.65	128.73
677.79	4.68
677.93	0.00
678.07	70.22
678.21	18.72
678.34	0.00
678.48	9.36
678.62	0.00
678.76	74.90
678.90	23.41
679.04	28.09
679.18	0.00
679.31	39.79
679.45	30.43
679.59	4.68
679.73	0.00
679.87	9.36
680.00	58.51
680.14	58.51
680.28	21.06
680.42	51.49
680.56	23.41
680.70	0.00
680.83	0.00
680.97	0.00
681.11	0.00
681.25	23.41
681.39	0.00
681.52	4.68
681.66	0.00
681.80	0.00
681.94	0.00
682.07	0.00
682.21	0.00
682.35	44.47
682.49	51.49
682.62	11.70
682.76	0.00
682.90	0.00
683.04	0.00
683.17	16.38
683.31	46.81
683.45	0.00
683.59	74.90
683.72	44.47
683.86	9.36
684.00	0.00
684.13	0.00
684.27	0.00
684.41	23.41
684.55	0.00
684.68	21.06
684.82	0.00
684.96	0.00
685.09	16.38
685.23	0.00
685.37	0.00
685.50	28.09
685.64	9.36
685.78	0.00
685.91	0.00
686.05	0.00
686.19	16.38
686.32	0.00
686.46	0.00
686.60	0.00
686.73	0.00
686.87	0.00
687.01	0.00
687.14	0.00
687.28	0.00
687.42	0.00
687.55	0.00
687.69	0.00
687.82	0.00
687.96	0.00
688.10	32.77
688.23	0.00
688.37	0.00
688.50	0.00
688.64	39.79
688.78	0.00
688.91	0.00
689.05	0.00
689.18	0.00
689.32	0.00
689.46	0.00
689.59	0.00
689.73	0.00
689.86	0.00
690.00	0.00
690.13	0.00
690.27	0.00
690.41	0.00
690.54	0.00
690.68	39.79
690.81	0.00
690.95	0.00
691.08	0.00
691.22	0.00
691.35	0.00
691.49	0.00
691.62	0.00
691.76	0.00
691.89	0.00
692.03	0.00
692.16	0.00
692.30	0.00
692.43	0.00
692.57	0.00
692.70	0.00
692.84	0.00
692.97	0.00
693.11	0.00
693.24	0.00
693.38	0.00
693.51	0.00
693.65	0.00
693.78	0.00
693.92	0.00
694.05	0.00
694.19	0.00
694.32	0.00
694.45	0.00
694.59	0.00
694.72	0.00
694.86	0.00
694.99	0.00
695.13	0.00
695.26	0.00
695.39	0.00
695.53	0.00
695.66	0.00
695.80	0.00
695.93	0.00
696.07	0.00
696.20	0.00
696.33	0.00
696.47	0.00
696.60	0.00
696.73	0.00
696.87	0.00
697.00	0.00
697.14	0.00
697.27	0.00
697.40	0.00
697.54	0.00
697.67	0.00
697.80	0.00
697.94	0.00
698.07	0.00
698.21	0.00
698.34	0.00
698.47	0.00
698.61	0.00
698.74	0.00
698.87	0.00
699.01	0.00
699.14	0.00
699.27	0.00
699.40	77.24
699.54	0.00
699.67	0.00
699.80	0.00
699.94	0.00
700.07	0.00
700.20	0.00
700.34	0.00
700.47	0.00
700.60	0.00
700.73	0.00
700.87	0.00
701.00	0.00
701.13	0.00
701.26	0.00
701.40	0.00
701.53	0.00
701.66	0.00
701.79	0.00
701.93	0.00
702.06	0.00
702.19	0.00
702.32	0.00
702.46	0.00
702.59	0.00
702.72	0.00
702.85	0.00
702.99	0.00
703.12	0.00
703.25	0.00
703.38	0.00
703.51	0.00
703.65	0.00
703.78	0.00
703.91	0.00
704.04	0.00
704.17	0.00
704.31	0.00
704.44	0.00
704.57	0.00
704.70	0.00
704.83	0.00
704.96	0.00
705.10	0.00
705.23	0.00
>>>>>End Processed Spectral Data<<<<<
