SpectraSuite Data File
++++++++++++++++++++++++++++++++++++
Date: Mon Oct 07 14:59:56 GMT-05:00 2013
User: price-jones
Dark Spectrum Present: No
Reference Spectrum Present: No
Number of Sampled Component Spectra: 1
Spectrometers: USB2+H05261
Integration Time (usec): 100000 (USB2+H05261)
Spectra Averaged: 1 (USB2+H05261)
Boxcar Smoothing: 0 (USB2+H05261)
Correct for Electrical Dark: No (USB2+H05261)
Strobe/Lamp Enabled: No (USB2+H05261)
Correct for Detector Non-linearity: No (USB2+H05261)
Correct for Stray Light: No (USB2+H05261)
Number of Pixels in Processed Spectrum: 2048
>>>>>Begin Processed Spectral Data<<<<<
365.73	0.00
365.92	0.00
366.12	0.00
366.32	0.00
366.52	0.00
366.72	0.00
366.91	0.00
367.11	0.00
367.31	0.00
367.51	0.00
367.70	0.00
367.90	0.00
368.10	0.00
368.30	0.00
368.49	0.00
368.69	0.00
368.89	0.00
369.09	0.00
369.28	0.00
369.48	0.00
369.68	0.00
369.87	0.00
370.07	0.00
370.27	0.00
370.47	0.00
370.66	0.00
370.86	0.00
371.06	0.00
371.25	0.00
371.45	0.00
371.65	0.00
371.84	0.00
372.04	0.00
372.24	0.00
372.44	0.00
372.63	0.00
372.83	0.00
373.03	0.00
373.22	0.00
373.42	0.00
373.62	0.00
373.81	0.00
374.01	0.00
374.21	0.00
374.40	0.00
374.60	0.00
374.79	0.00
374.99	0.00
375.19	0.00
375.38	0.00
375.58	0.00
375.78	0.00
375.97	0.00
376.17	0.00
376.37	0.00
376.56	0.00
376.76	0.00
376.95	0.00
377.15	0.00
377.35	0.00
377.54	0.00
377.74	0.00
377.93	0.00
378.13	0.00
378.33	0.00
378.52	0.00
378.72	0.00
378.91	0.00
379.11	0.00
379.31	0.00
379.50	0.00
379.70	0.00
379.89	0.00
380.09	0.00
380.28	0.00
380.48	0.00
380.68	0.00
380.87	0.00
381.07	0.00
381.26	0.00
381.46	0.00
381.65	0.00
381.85	0.00
382.04	0.00
382.24	0.00
382.43	0.00
382.63	0.00
382.83	0.00
383.02	0.00
383.22	0.00
383.41	0.00
383.61	0.00
383.80	0.00
384.00	0.00
384.19	0.00
384.39	0.00
384.58	0.00
384.78	0.00
384.97	0.00
385.17	0.00
385.36	0.00
385.56	0.00
385.75	0.00
385.95	0.00
386.14	0.00
386.34	0.00
386.53	0.00
386.72	0.00
386.92	0.00
387.11	0.00
387.31	0.00
387.50	0.00
387.70	0.00
387.89	0.00
388.09	0.00
388.28	0.00
388.48	0.00
388.67	0.00
388.86	0.00
389.06	0.00
389.25	0.00
389.45	0.00
389.64	0.00
389.84	0.00
390.03	0.00
390.22	0.00
390.42	0.00
390.61	0.00
390.81	0.00
391.00	0.00
391.19	0.00
391.39	0.00
391.58	0.00
391.78	0.00
391.97	0.00
392.16	0.00
392.36	0.00
392.55	0.00
392.75	0.00
392.94	0.00
393.13	0.00
393.33	0.00
393.52	0.00
393.71	0.00
393.91	0.00
394.10	0.00
394.29	0.00
394.49	0.00
394.68	0.00
394.88	0.00
395.07	0.00
395.26	0.00
395.46	0.00
395.65	0.00
395.84	0.00
396.04	0.00
396.23	0.00
396.42	0.00
396.62	0.00
396.81	0.00
397.00	0.00
397.19	0.00
397.39	0.00
397.58	0.00
397.77	0.00
397.97	0.00
398.16	0.00
398.35	0.00
398.55	0.00
398.74	0.00
398.93	0.00
399.12	0.00
399.32	0.00
399.51	0.00
399.70	0.00
399.90	0.00
400.09	0.00
400.28	0.00
400.47	0.00
400.67	0.00
400.86	0.00
401.05	0.00
401.24	0.00
401.44	0.00
401.63	0.00
401.82	0.00
402.01	0.00
402.21	0.00
402.40	0.00
402.59	0.00
402.78	0.00
402.97	0.00
403.17	0.00
403.36	0.00
403.55	0.00
403.74	0.00
403.93	0.00
404.13	0.00
404.32	0.00
404.51	0.00
404.70	0.00
404.89	0.00
405.09	0.00
405.28	0.00
405.47	0.00
405.66	0.00
405.85	0.00
406.05	0.00
406.24	0.00
406.43	0.00
406.62	0.00
406.81	0.00
407.00	0.00
407.20	0.00
407.39	0.00
407.58	0.00
407.77	0.00
407.96	0.00
408.15	0.00
408.34	0.00
408.54	0.00
408.73	0.00
408.92	0.00
409.11	0.00
409.30	0.00
409.49	0.00
409.68	0.00
409.87	0.00
410.07	0.00
410.26	0.00
410.45	0.00
410.64	0.00
410.83	0.00
411.02	0.00
411.21	0.00
411.40	0.00
411.59	0.00
411.78	0.00
411.98	0.00
412.17	0.00
412.36	0.00
412.55	0.00
412.74	0.00
412.93	0.00
413.12	0.00
413.31	0.00
413.50	0.00
413.69	0.00
413.88	0.00
414.07	0.00
414.26	0.00
414.45	0.00
414.64	0.00
414.83	0.00
415.02	0.00
415.22	0.00
415.41	0.00
415.60	0.00
415.79	0.00
415.98	0.00
416.17	0.00
416.36	0.00
416.55	0.00
416.74	0.00
416.93	0.00
417.12	0.00
417.31	0.00
417.50	0.00
417.69	0.00
417.88	0.00
418.07	0.00
418.26	0.00
418.45	0.00
418.64	0.00
418.83	0.00
419.02	0.00
419.21	0.00
419.39	0.00
419.58	0.00
419.77	0.00
419.96	0.00
420.15	0.00
420.34	0.00
420.53	0.00
420.72	0.00
420.91	0.00
421.10	0.00
421.29	0.00
421.48	0.00
421.67	0.00
421.86	0.00
422.05	0.00
422.24	0.00
422.43	0.00
422.61	0.00
422.80	0.00
422.99	0.00
423.18	0.00
423.37	0.00
423.56	0.00
423.75	0.00
423.94	0.00
424.13	0.00
424.32	0.00
424.50	0.00
424.69	0.00
424.88	0.00
425.07	0.00
425.26	0.00
425.45	0.00
425.64	0.00
425.83	0.00
426.01	0.00
426.20	0.00
426.39	0.00
426.58	0.00
426.77	0.00
426.96	0.00
427.15	0.00
427.33	0.00
427.52	0.00
427.71	0.00
427.90	0.00
428.09	0.00
428.28	0.00
428.46	0.00
428.65	0.00
428.84	0.00
429.03	0.00
429.22	0.00
429.40	0.00
429.59	0.00
429.78	0.00
429.97	0.00
430.16	0.00
430.34	0.00
430.53	0.00
430.72	0.00
430.91	0.00
431.10	0.00
431.28	0.00
431.47	0.00
431.66	0.00
431.85	0.00
432.03	0.00
432.22	0.00
432.41	0.00
432.60	0.00
432.79	0.00
432.97	0.00
433.16	0.00
433.35	0.00
433.54	0.00
433.72	0.00
433.91	0.00
434.10	0.00
434.28	0.00
434.47	0.00
434.66	0.00
434.85	0.00
435.03	0.00
435.22	0.00
435.41	0.00
435.59	0.00
435.78	0.00
435.97	0.00
436.16	0.00
436.34	0.00
436.53	0.00
436.72	0.00
436.90	0.00
437.09	0.00
437.28	0.00
437.46	0.00
437.65	0.00
437.84	0.00
438.02	0.00
438.21	0.00
438.40	0.00
438.58	0.00
438.77	0.00
438.96	0.00
439.14	0.00
439.33	0.00
439.52	0.00
439.70	0.00
439.89	0.00
440.08	0.00
440.26	0.00
440.45	0.00
440.63	0.00
440.82	0.00
441.01	0.00
441.19	0.00
441.38	0.00
441.57	0.00
441.75	0.00
441.94	0.00
442.12	0.00
442.31	0.00
442.50	0.00
442.68	0.00
442.87	0.00
443.05	0.00
443.24	0.00
443.43	0.00
443.61	0.00
443.80	0.00
443.98	0.00
444.17	0.00
444.35	0.00
444.54	0.00
444.73	0.00
444.91	0.00
445.10	0.00
445.28	0.00
445.47	0.00
445.65	0.00
445.84	0.00
446.02	0.00
446.21	0.00
446.39	0.00
446.58	0.00
446.77	0.00
446.95	0.00
447.14	0.00
447.32	0.00
447.51	0.00
447.69	0.00
447.88	0.00
448.06	0.00
448.25	11.70
448.43	0.00
448.62	0.00
448.80	0.00
448.99	0.00
449.17	0.00
449.36	0.00
449.54	7.02
449.73	0.00
449.91	0.00
450.10	0.00
450.28	9.36
450.46	16.38
450.65	0.00
450.83	0.00
451.02	0.00
451.20	0.00
451.39	0.00
451.57	0.00
451.76	0.00
451.94	0.00
452.13	0.00
452.31	0.00
452.49	0.00
452.68	0.00
452.86	0.00
453.05	0.00
453.23	0.00
453.42	0.00
453.60	0.00
453.78	0.00
453.97	0.00
454.15	0.00
454.34	0.00
454.52	0.00
454.70	16.38
454.89	0.00
455.07	0.00
455.26	0.00
455.44	0.00
455.62	0.00
455.81	0.00
455.99	0.00
456.17	0.00
456.36	0.00
456.54	0.00
456.73	2.34
456.91	7.02
457.09	35.11
457.28	0.00
457.46	0.00
457.64	0.00
457.83	0.00
458.01	23.41
458.19	53.83
458.38	23.41
458.56	56.17
458.74	0.00
458.93	0.00
459.11	0.00
459.29	0.00
459.48	0.00
459.66	16.38
459.84	51.49
460.03	107.66
460.21	65.54
460.39	32.77
460.57	72.56
460.76	0.00
460.94	0.00
461.12	93.62
461.31	30.43
461.49	4.68
461.67	0.00
461.85	0.00
462.04	0.00
462.22	526.62
462.40	18.72
462.59	60.85
462.77	0.00
462.95	9.36
463.13	7.02
463.32	0.00
463.50	0.00
463.68	11.70
463.86	0.00
464.05	0.00
464.23	67.88
464.41	0.00
464.59	0.00
464.78	0.00
464.96	0.00
465.14	0.00
465.32	0.00
465.50	4.68
465.69	11.70
465.87	21.06
466.05	0.00
466.23	4.68
466.41	0.00
466.60	0.00
466.78	0.00
466.96	16.38
467.14	0.00
467.32	0.00
467.51	42.13
467.69	9.36
467.87	4.68
468.05	0.00
468.23	0.00
468.41	0.00
468.60	0.00
468.78	0.00
468.96	51.49
469.14	0.00
469.32	0.00
469.50	0.00
469.69	0.00
469.87	35.11
470.05	0.00
470.23	2.34
470.41	0.00
470.59	0.00
470.77	21.06
470.95	7.02
471.14	0.00
471.32	7.02
471.50	0.00
471.68	0.00
471.86	0.00
472.04	0.00
472.22	11.70
472.40	4.68
472.58	25.75
472.77	0.00
472.95	0.00
473.13	35.11
473.31	28.09
473.49	0.00
473.67	4.68
473.85	14.04
474.03	0.00
474.21	9.36
474.39	53.83
474.57	128.73
474.75	44.47
474.93	7.02
475.12	65.54
475.30	46.81
475.48	0.00
475.66	35.11
475.84	0.00
476.02	84.26
476.20	77.24
476.38	53.83
476.56	81.92
476.74	0.00
476.92	30.43
477.10	28.09
477.28	65.54
477.46	4.68
477.64	11.70
477.82	0.00
478.00	4.68
478.18	0.00
478.36	86.60
478.54	0.00
478.72	0.00
478.90	32.77
479.08	4.68
479.26	58.51
479.44	0.00
479.62	16.38
479.80	0.00
479.98	51.49
480.16	86.60
480.34	32.77
480.52	46.81
480.70	44.47
480.88	0.00
481.06	42.13
481.24	23.41
481.41	49.15
481.59	30.43
481.77	58.51
481.95	25.75
482.13	110.01
482.31	16.38
482.49	7.02
482.67	74.90
482.85	67.88
483.03	37.45
483.21	14.04
483.39	77.24
483.57	53.83
483.74	51.49
483.92	28.09
484.10	0.00
484.28	107.66
484.46	114.69
484.64	93.62
484.82	49.15
485.00	105.32
485.18	131.07
485.35	88.94
485.53	0.00
485.71	102.98
485.89	0.00
486.07	58.51
486.25	140.43
486.43	117.03
486.61	70.22
486.78	25.75
486.96	88.94
487.14	100.64
487.32	107.66
487.50	119.37
487.68	124.05
487.85	39.79
488.03	86.60
488.21	117.03
488.39	91.28
488.57	117.03
488.75	98.30
488.92	447.04
489.10	98.30
489.28	133.41
489.46	119.37
489.64	154.48
489.81	135.75
489.99	102.98
490.17	56.17
490.35	271.50
490.53	128.73
490.70	60.85
490.88	175.54
491.06	142.77
491.24	182.56
491.41	203.63
491.59	105.32
491.77	119.37
491.95	107.66
492.13	46.81
492.30	163.84
492.48	196.60
492.66	147.45
492.84	180.22
493.01	152.13
493.19	175.54
493.37	147.45
493.54	194.26
493.72	177.88
493.90	114.69
494.08	168.52
494.25	203.63
494.43	201.29
494.61	152.13
494.79	117.03
494.96	194.26
495.14	114.69
495.32	152.13
495.49	142.77
495.67	159.16
495.85	196.60
496.02	187.24
496.20	196.60
496.38	229.37
496.55	227.03
496.73	224.69
496.91	238.73
497.09	205.97
497.26	173.20
497.44	234.05
497.62	119.37
497.79	131.07
497.97	168.52
498.14	241.08
498.32	198.95
498.50	248.10
498.67	210.65
498.85	276.18
499.03	156.82
499.20	140.43
499.38	248.10
499.56	257.46
499.73	205.97
499.91	273.84
500.08	194.26
500.26	229.37
500.44	180.22
500.61	184.90
500.79	175.54
500.97	187.24
501.14	124.05
501.32	212.99
501.49	262.14
501.67	168.52
501.84	231.71
502.02	86.60
502.20	290.23
502.37	220.01
502.55	119.37
502.72	255.12
502.90	250.44
503.07	215.33
503.25	264.48
503.43	163.84
503.60	227.03
503.78	229.37
503.95	201.29
504.13	222.35
504.30	229.37
504.48	234.05
504.65	297.25
504.83	330.02
505.01	245.76
505.18	285.55
505.36	243.42
505.53	273.84
505.71	168.52
505.88	294.91
506.06	248.10
506.23	201.29
506.41	222.35
506.58	203.63
506.76	205.97
506.93	208.31
507.11	194.26
507.28	210.65
507.46	163.84
507.63	248.10
507.81	163.84
507.98	198.95
508.16	210.65
508.33	318.31
508.50	292.57
508.68	278.52
508.85	308.95
509.03	126.39
509.20	280.86
509.38	259.80
509.55	308.95
509.73	241.08
509.90	285.55
510.08	241.08
510.25	266.82
510.42	217.67
510.60	353.42
510.77	285.55
510.95	304.27
511.12	241.08
511.30	255.12
511.47	220.01
511.64	236.39
511.82	168.52
511.99	220.01
512.17	266.82
512.34	177.88
512.51	189.58
512.69	266.82
512.86	280.86
513.04	220.01
513.21	203.63
513.38	191.92
513.56	271.50
513.73	196.60
513.90	189.58
514.08	231.71
514.25	332.36
514.43	372.15
514.60	297.25
514.77	308.95
514.95	236.39
515.12	229.37
515.29	238.73
515.47	217.67
515.64	301.93
515.81	334.70
515.99	262.14
516.16	215.33
516.33	292.57
516.51	245.76
516.68	121.71
516.85	154.48
517.03	147.45
517.20	236.39
517.37	250.44
517.54	241.08
517.72	184.90
517.89	184.90
518.06	175.54
518.24	234.05
518.41	287.89
518.58	248.10
518.75	189.58
518.93	280.86
519.10	266.82
519.27	311.29
519.45	255.12
519.62	215.33
519.79	245.76
519.96	290.23
520.14	294.91
520.31	313.63
520.48	292.57
520.65	351.08
520.83	294.91
521.00	308.95
521.17	383.85
521.34	257.46
521.52	315.97
521.69	315.97
521.86	224.69
522.03	322.99
522.20	367.46
522.38	283.20
522.55	283.20
522.72	241.08
522.89	299.59
523.07	379.17
523.24	287.89
523.41	330.02
523.58	301.93
523.75	294.91
523.92	280.86
524.10	327.68
524.27	285.55
524.44	299.59
524.61	353.42
524.78	245.76
524.96	283.20
525.13	344.06
525.30	313.63
525.47	320.65
525.64	315.97
525.81	379.17
525.98	283.20
526.16	145.11
526.33	117.03
526.50	220.01
526.67	210.65
526.84	297.25
527.01	201.29
527.18	287.89
527.36	287.89
527.53	229.37
527.70	290.23
527.87	304.27
528.04	308.95
528.21	264.48
528.38	379.17
528.55	416.62
528.72	308.95
528.89	334.70
529.07	238.73
529.24	257.46
529.41	465.77
529.58	308.95
529.75	315.97
529.92	346.40
530.09	299.59
530.26	409.59
530.43	365.12
530.60	311.29
530.77	404.91
530.94	348.74
531.11	320.65
531.28	390.87
531.46	262.14
531.63	301.93
531.80	351.08
531.97	248.10
532.14	320.65
532.31	271.50
532.48	330.02
532.65	362.78
532.82	348.74
532.99	255.12
533.16	381.51
533.33	318.31
533.50	273.84
533.67	285.55
533.84	358.10
534.01	351.08
534.18	346.40
534.35	365.12
534.52	414.27
534.69	355.76
534.86	367.46
535.03	362.78
535.20	294.91
535.37	397.89
535.54	355.76
535.71	311.29
535.88	435.34
536.05	374.49
536.22	325.33
536.38	278.52
536.55	287.89
536.72	304.27
536.89	271.50
537.06	250.44
537.23	369.80
537.40	313.63
537.57	362.78
537.74	351.08
537.91	461.09
538.08	346.40
538.25	334.70
538.42	332.36
538.59	388.53
538.75	325.33
538.92	290.23
539.09	337.04
539.26	269.16
539.43	346.40
539.60	355.76
539.77	297.25
539.94	381.51
540.11	339.38
540.28	351.08
540.44	304.27
540.61	414.27
540.78	292.57
540.95	372.15
541.12	409.59
541.29	306.61
541.46	379.17
541.62	313.63
541.79	301.93
541.96	341.72
542.13	348.74
542.30	358.10
542.47	397.89
542.63	318.31
542.80	255.12
542.97	313.63
543.14	365.12
543.31	463.43
543.48	358.10
543.64	442.36
543.81	313.63
543.98	360.44
544.15	315.97
544.32	353.42
544.48	327.68
544.65	390.87
544.82	344.06
544.99	320.65
545.16	376.83
545.32	358.10
545.49	393.21
545.66	400.23
545.83	294.91
546.00	334.70
546.16	341.72
546.33	348.74
546.50	283.20
546.67	428.32
546.83	388.53
547.00	341.72
547.17	271.50
547.34	325.33
547.50	358.10
547.67	292.57
547.84	386.19
548.00	465.77
548.17	397.89
548.34	397.89
548.51	447.04
548.67	454.06
548.84	346.40
549.01	372.15
549.18	297.25
549.34	341.72
549.51	402.57
549.68	259.80
549.84	308.95
550.01	308.95
550.18	465.77
550.34	388.53
550.51	301.93
550.68	440.02
550.84	346.40
551.01	348.74
551.18	423.64
551.34	400.23
551.51	271.50
551.68	367.46
551.84	395.55
552.01	353.42
552.18	346.40
552.34	388.53
552.51	341.72
552.68	362.78
552.84	372.15
553.01	416.62
553.18	315.97
553.34	362.78
553.51	346.40
553.67	344.06
553.84	458.74
554.01	269.16
554.17	320.65
554.34	358.10
554.51	374.49
554.67	351.08
554.84	367.46
555.00	372.15
555.17	404.91
555.33	330.02
555.50	369.80
555.67	393.21
555.83	311.29
556.00	360.44
556.16	571.09
556.33	374.49
556.50	367.46
556.66	311.29
556.83	308.95
556.99	330.02
557.16	376.83
557.32	304.27
557.49	402.57
557.65	381.51
557.82	313.63
557.98	313.63
558.15	334.70
558.32	318.31
558.48	294.91
558.65	337.04
558.81	353.42
558.98	320.65
559.14	294.91
559.31	287.89
559.47	330.02
559.64	294.91
559.80	372.15
559.97	325.33
560.13	313.63
560.30	318.31
560.46	353.42
560.63	393.21
560.79	344.06
560.96	341.72
561.12	325.33
561.29	308.95
561.45	367.46
561.61	367.46
561.78	470.45
561.94	395.55
562.11	348.74
562.27	395.55
562.44	283.20
562.60	416.62
562.77	299.59
562.93	390.87
563.10	428.32
563.26	423.64
563.42	428.32
563.59	351.08
563.75	290.23
563.92	393.21
564.08	449.38
564.24	315.97
564.41	414.27
564.57	278.52
564.74	327.68
564.90	451.72
565.07	290.23
565.23	425.98
565.39	362.78
565.56	374.49
565.72	285.55
565.88	351.08
566.05	306.61
566.21	276.18
566.38	318.31
566.54	353.42
566.70	386.19
566.87	337.04
567.03	283.20
567.19	285.55
567.36	369.80
567.52	283.20
567.68	381.51
567.85	360.44
568.01	337.04
568.17	285.55
568.34	376.83
568.50	264.48
568.66	311.29
568.83	390.87
568.99	341.72
569.15	372.15
569.32	327.68
569.48	332.36
569.64	259.80
569.81	353.42
569.97	393.21
570.13	313.63
570.30	313.63
570.46	304.27
570.62	320.65
570.78	294.91
570.95	278.52
571.11	468.11
571.27	365.12
571.43	320.65
571.60	243.42
571.76	313.63
571.92	341.72
572.09	374.49
572.25	327.68
572.41	269.16
572.57	327.68
572.74	435.34
572.90	337.04
573.06	311.29
573.22	315.97
573.38	348.74
573.55	390.87
573.71	322.99
573.87	341.72
574.03	484.49
574.20	315.97
574.36	353.42
574.52	290.23
574.68	306.61
574.84	360.44
575.01	301.93
575.17	376.83
575.33	381.51
575.49	322.99
575.65	332.36
575.82	283.20
575.98	379.17
576.14	353.42
576.30	304.27
576.46	257.46
576.62	308.95
576.79	322.99
576.95	355.76
577.11	322.99
577.27	372.15
577.43	320.65
577.59	339.38
577.75	388.53
577.92	245.76
578.08	262.14
578.24	306.61
578.40	435.34
578.56	330.02
578.72	395.55
578.88	416.62
579.04	334.70
579.21	308.95
579.37	367.46
579.53	297.25
579.69	255.12
579.85	280.86
580.01	407.25
580.17	348.74
580.33	348.74
580.49	330.02
580.65	346.40
580.82	301.93
580.98	266.82
581.14	264.48
581.30	334.70
581.46	306.61
581.62	390.87
581.78	374.49
581.94	386.19
582.10	308.95
582.26	360.44
582.42	313.63
582.58	313.63
582.74	322.99
582.90	332.36
583.06	341.72
583.22	313.63
583.38	297.25
583.54	299.59
583.70	360.44
583.86	381.51
584.02	301.93
584.18	376.83
584.34	362.78
584.50	330.02
584.66	301.93
584.82	292.57
584.98	311.29
585.14	315.97
585.30	367.46
585.46	271.50
585.62	337.04
585.78	255.12
585.94	381.51
586.10	283.20
586.26	383.85
586.42	430.66
586.58	287.89
586.74	311.29
586.90	386.19
587.06	327.68
587.22	327.68
587.38	255.12
587.54	224.69
587.70	390.87
587.86	400.23
588.02	306.61
588.18	292.57
588.34	287.89
588.49	220.01
588.65	154.48
588.81	229.37
588.97	152.13
589.13	227.03
589.29	297.25
589.45	259.80
589.61	299.59
589.77	278.52
589.93	259.80
590.08	327.68
590.24	276.18
590.40	292.57
590.56	294.91
590.72	290.23
590.88	290.23
591.04	262.14
591.20	271.50
591.35	257.46
591.51	341.72
591.67	224.69
591.83	234.05
591.99	285.55
592.15	257.46
592.31	290.23
592.46	250.44
592.62	365.12
592.78	285.55
592.94	315.97
593.10	334.70
593.26	255.12
593.41	334.70
593.57	308.95
593.73	348.74
593.89	355.76
594.05	269.16
594.20	250.44
594.36	250.44
594.52	308.95
594.68	320.65
594.84	322.99
594.99	362.78
595.15	285.55
595.31	365.12
595.47	346.40
595.62	264.48
595.78	250.44
595.94	304.27
596.10	423.64
596.25	245.76
596.41	332.36
596.57	280.86
596.73	264.48
596.88	290.23
597.04	250.44
597.20	227.03
597.36	351.08
597.51	227.03
597.67	264.48
597.83	203.63
597.99	337.04
598.14	271.50
598.30	325.33
598.46	252.78
598.61	325.33
598.77	285.55
598.93	238.73
599.09	292.57
599.24	227.03
599.40	271.50
599.56	271.50
599.71	311.29
599.87	294.91
600.03	325.33
600.18	262.14
600.34	334.70
600.50	241.08
600.65	248.10
600.81	278.52
600.97	217.67
601.12	273.84
601.28	269.16
601.44	243.42
601.59	224.69
601.75	220.01
601.91	308.95
602.06	299.59
602.22	409.59
602.37	313.63
602.53	229.37
602.69	299.59
602.84	250.44
603.00	301.93
603.16	358.10
603.31	304.27
603.47	367.46
603.62	266.82
603.78	348.74
603.94	231.71
604.09	283.20
604.25	278.52
604.40	278.52
604.56	297.25
604.71	292.57
604.87	290.23
605.03	262.14
605.18	313.63
605.34	250.44
605.49	325.33
605.65	290.23
605.80	332.36
605.96	341.72
606.12	327.68
606.27	264.48
606.43	304.27
606.58	320.65
606.74	266.82
606.89	313.63
607.05	273.84
607.20	266.82
607.36	337.04
607.51	278.52
607.67	367.46
607.82	299.59
607.98	311.29
608.13	327.68
608.29	351.08
608.44	344.06
608.60	212.99
608.75	306.61
608.91	304.27
609.06	238.73
609.22	330.02
609.37	283.20
609.53	325.33
609.68	187.24
609.84	250.44
609.99	229.37
610.15	278.52
610.30	334.70
610.46	308.95
610.61	252.78
610.76	255.12
610.92	271.50
611.07	196.60
611.23	362.78
611.38	322.99
611.54	255.12
611.69	224.69
611.84	196.60
612.00	215.33
612.15	227.03
612.31	224.69
612.46	236.39
612.62	154.48
612.77	283.20
612.92	231.71
613.08	262.14
613.23	299.59
613.39	236.39
613.54	210.65
613.69	177.88
613.85	229.37
614.00	229.37
614.15	259.80
614.31	248.10
614.46	250.44
614.62	234.05
614.77	290.23
614.92	280.86
615.08	208.31
615.23	250.44
615.38	220.01
615.54	175.54
615.69	191.92
615.84	215.33
616.00	212.99
616.15	210.65
616.30	163.84
616.46	231.71
616.61	168.52
616.76	278.52
616.92	220.01
617.07	212.99
617.22	203.63
617.37	210.65
617.53	191.92
617.68	175.54
617.83	222.35
617.99	248.10
618.14	376.83
618.29	308.95
618.45	243.42
618.60	161.50
618.75	180.22
618.90	276.18
619.06	198.95
619.21	308.95
619.36	285.55
619.51	241.08
619.67	243.42
619.82	217.67
619.97	217.67
620.12	222.35
620.28	241.08
620.43	257.46
620.58	236.39
620.73	201.29
620.89	287.89
621.04	184.90
621.19	234.05
621.34	250.44
621.49	163.84
621.65	180.22
621.80	210.65
621.95	182.56
622.10	262.14
622.25	161.50
622.41	166.18
622.56	259.80
622.71	229.37
622.86	255.12
623.01	208.31
623.16	245.76
623.32	194.26
623.47	220.01
623.62	196.60
623.77	173.20
623.92	124.05
624.07	170.86
624.23	124.05
624.38	227.03
624.53	163.84
624.68	236.39
624.83	252.78
624.98	215.33
625.13	198.95
625.29	135.75
625.44	231.71
625.59	257.46
625.74	173.20
625.89	184.90
626.04	217.67
626.19	149.79
626.34	301.93
626.49	175.54
626.65	166.18
626.80	243.42
626.95	264.48
627.10	217.67
627.25	215.33
627.40	161.50
627.55	175.54
627.70	142.77
627.85	212.99
628.00	203.63
628.15	105.32
628.30	182.56
628.45	220.01
628.60	145.11
628.76	212.99
628.91	217.67
629.06	170.86
629.21	210.65
629.36	220.01
629.51	133.41
629.66	217.67
629.81	95.96
629.96	140.43
630.11	156.82
630.26	210.65
630.41	149.79
630.56	224.69
630.71	142.77
630.86	170.86
631.01	138.09
631.16	161.50
631.31	191.92
631.46	161.50
631.61	142.77
631.76	198.95
631.91	142.77
632.06	154.48
632.21	182.56
632.36	133.41
632.51	180.22
632.66	180.22
632.81	217.67
632.96	198.95
633.10	191.92
633.25	231.71
633.40	191.92
633.55	170.86
633.70	86.60
633.85	117.03
634.00	159.16
634.15	117.03
634.30	161.50
634.45	131.07
634.60	119.37
634.75	189.58
634.90	154.48
635.05	203.63
635.19	168.52
635.34	128.73
635.49	220.01
635.64	100.64
635.79	119.37
635.94	210.65
636.09	152.13
636.24	145.11
636.39	51.49
636.53	194.26
636.68	159.16
636.83	203.63
636.98	145.11
637.13	121.71
637.28	175.54
637.43	231.71
637.57	154.48
637.72	187.24
637.87	191.92
638.02	156.82
638.17	149.79
638.32	208.31
638.46	147.45
638.61	215.33
638.76	182.56
638.91	166.18
639.06	131.07
639.20	203.63
639.35	102.98
639.50	110.01
639.65	182.56
639.80	102.98
639.94	205.97
640.09	259.80
640.24	215.33
640.39	205.97
640.54	182.56
640.68	198.95
640.83	250.44
640.98	117.03
641.13	81.92
641.27	128.73
641.42	170.86
641.57	205.97
641.72	107.66
641.86	142.77
642.01	177.88
642.16	177.88
642.31	142.77
642.45	236.39
642.60	175.54
642.75	135.75
642.90	210.65
643.04	93.62
643.19	154.48
643.34	142.77
643.48	152.13
643.63	105.32
643.78	236.39
643.93	215.33
644.07	173.20
644.22	128.73
644.37	194.26
644.51	58.51
644.66	138.09
644.81	74.90
644.95	203.63
645.10	149.79
645.25	147.45
645.39	212.99
645.54	119.37
645.69	142.77
645.83	58.51
645.98	208.31
646.13	163.84
646.27	177.88
646.42	140.43
646.57	117.03
646.71	84.26
646.86	110.01
647.00	145.11
647.15	194.26
647.30	128.73
647.44	112.35
647.59	84.26
647.74	86.60
647.88	100.64
648.03	126.39
648.17	102.98
648.32	72.56
648.47	98.30
648.61	124.05
648.76	133.41
648.90	44.47
649.05	117.03
649.20	79.58
649.34	105.32
649.49	126.39
649.63	98.30
649.78	128.73
649.92	114.69
650.07	154.48
650.21	149.79
650.36	110.01
650.51	11.70
650.65	81.92
650.80	140.43
650.94	145.11
651.09	163.84
651.23	9.36
651.38	51.49
651.52	112.35
651.67	119.37
651.81	79.58
651.96	65.54
652.10	220.01
652.25	117.03
652.39	95.96
652.54	159.16
652.68	102.98
652.83	86.60
652.97	88.94
653.12	231.71
653.26	126.39
653.41	166.18
653.55	147.45
653.70	60.85
653.84	79.58
653.99	191.92
654.13	124.05
654.27	100.64
654.42	18.72
654.56	42.13
654.71	161.50
654.85	102.98
655.00	110.01
655.14	74.90
655.29	93.62
655.43	173.20
655.57	105.32
655.72	0.00
655.86	9.36
656.01	74.90
656.15	46.81
656.30	140.43
656.44	2.34
656.58	0.00
656.73	65.54
656.87	0.00
657.01	156.82
657.16	74.90
657.30	98.30
657.45	154.48
657.59	77.24
657.73	124.05
657.88	121.71
658.02	215.33
658.16	117.03
658.31	58.51
658.45	86.60
658.60	88.94
658.74	25.75
658.88	14.04
659.03	4.68
659.17	0.00
659.31	49.15
659.46	81.92
659.60	138.09
659.74	67.88
659.89	173.20
660.03	131.07
660.17	128.73
660.32	112.35
660.46	70.22
660.60	42.13
660.74	98.30
660.89	128.73
661.03	152.13
661.17	70.22
661.32	84.26
661.46	147.45
661.60	86.60
661.74	189.58
661.89	131.07
662.03	133.41
662.17	95.96
662.31	91.28
662.46	170.86
662.60	110.01
662.74	93.62
662.88	102.98
663.03	102.98
663.17	88.94
663.31	51.49
663.45	95.96
663.60	93.62
663.74	67.88
663.88	124.05
664.02	74.90
664.17	35.11
664.31	133.41
664.45	88.94
664.59	140.43
664.73	67.88
664.88	86.60
665.02	25.75
665.16	72.56
665.30	81.92
665.44	117.03
665.59	112.35
665.73	70.22
665.87	39.79
666.01	86.60
666.15	60.85
666.29	105.32
666.44	175.54
666.58	49.15
666.72	23.41
666.86	53.83
667.00	138.09
667.14	142.77
667.28	72.56
667.43	51.49
667.57	32.77
667.71	37.45
667.85	149.79
667.99	84.26
668.13	95.96
668.27	35.11
668.41	91.28
668.56	46.81
668.70	135.75
668.84	25.75
668.98	56.17
669.12	46.81
669.26	112.35
669.40	154.48
669.54	95.96
669.68	142.77
669.82	23.41
669.96	133.41
670.10	53.83
670.25	84.26
670.39	110.01
670.53	53.83
670.67	0.00
670.81	0.00
670.95	32.77
671.09	58.51
671.23	128.73
671.37	70.22
671.51	42.13
671.65	42.13
671.79	63.19
671.93	44.47
672.07	119.37
672.21	168.52
672.35	77.24
672.49	60.85
672.63	138.09
672.77	110.01
672.91	53.83
673.05	46.81
673.19	119.37
673.33	23.41
673.47	72.56
673.61	18.72
673.75	65.54
673.89	91.28
674.03	86.60
674.17	0.00
674.31	16.38
674.45	21.06
674.59	25.75
674.73	93.62
674.87	39.79
675.01	2.34
675.15	56.17
675.29	72.56
675.43	0.00
675.56	95.96
675.70	16.38
675.84	84.26
675.98	53.83
676.12	16.38
676.26	0.00
676.40	0.00
676.54	0.00
676.68	39.79
676.82	11.70
676.96	42.13
677.10	0.00
677.23	0.00
677.37	0.00
677.51	65.54
677.65	95.96
677.79	7.02
677.93	39.79
678.07	37.45
678.21	7.02
678.34	0.00
678.48	0.00
678.62	0.00
678.76	0.00
678.90	67.88
679.04	0.00
679.18	7.02
679.31	0.00
679.45	30.43
679.59	0.00
679.73	53.83
679.87	16.38
680.00	30.43
680.14	16.38
680.28	53.83
680.42	0.00
680.56	0.00
680.70	0.00
680.83	0.00
680.97	0.00
681.11	0.00
681.25	49.15
681.39	0.00
681.52	0.00
681.66	16.38
681.80	0.00
681.94	0.00
682.07	0.00
682.21	30.43
682.35	0.00
682.49	21.06
682.62	0.00
682.76	0.00
682.90	0.00
683.04	0.00
683.17	14.04
683.31	0.00
683.45	0.00
683.59	4.68
683.72	95.96
683.86	28.09
684.00	0.00
684.13	18.72
684.27	0.00
684.41	16.38
684.55	0.00
684.68	0.00
684.82	2.34
684.96	39.79
685.09	0.00
685.23	0.00
685.37	0.00
685.50	63.19
685.64	53.83
685.78	16.38
685.91	56.17
686.05	0.00
686.19	32.77
686.32	0.00
686.46	0.00
686.60	0.00
686.73	11.70
686.87	0.00
687.01	0.00
687.14	0.00
687.28	0.00
687.42	0.00
687.55	0.00
687.69	0.00
687.82	0.00
687.96	0.00
688.10	0.00
688.23	0.00
688.37	0.00
688.50	0.00
688.64	0.00
688.78	0.00
688.91	0.00
689.05	0.00
689.18	0.00
689.32	0.00
689.46	0.00
689.59	0.00
689.73	0.00
689.86	0.00
690.00	0.00
690.13	0.00
690.27	0.00
690.41	0.00
690.54	25.75
690.68	0.00
690.81	88.94
690.95	0.00
691.08	0.00
691.22	0.00
691.35	0.00
691.49	0.00
691.62	0.00
691.76	0.00
691.89	0.00
692.03	0.00
692.16	0.00
692.30	0.00
692.43	4.68
692.57	0.00
692.70	0.00
692.84	0.00
692.97	0.00
693.11	0.00
693.24	0.00
693.38	0.00
693.51	0.00
693.65	0.00
693.78	0.00
693.92	0.00
694.05	35.11
694.19	0.00
694.32	0.00
694.45	0.00
694.59	0.00
694.72	0.00
694.86	0.00
694.99	0.00
695.13	0.00
695.26	0.00
695.39	0.00
695.53	0.00
695.66	0.00
695.80	0.00
695.93	0.00
696.07	0.00
696.20	0.00
696.33	0.00
696.47	0.00
696.60	0.00
696.73	0.00
696.87	0.00
697.00	0.00
697.14	0.00
697.27	0.00
697.40	0.00
697.54	0.00
697.67	0.00
697.80	0.00
697.94	0.00
698.07	0.00
698.21	0.00
698.34	0.00
698.47	0.00
698.61	0.00
698.74	0.00
698.87	0.00
699.01	0.00
699.14	0.00
699.27	0.00
699.40	72.56
699.54	0.00
699.67	0.00
699.80	0.00
699.94	0.00
700.07	0.00
700.20	0.00
700.34	0.00
700.47	0.00
700.60	0.00
700.73	0.00
700.87	0.00
701.00	0.00
701.13	0.00
701.26	0.00
701.40	0.00
701.53	0.00
701.66	0.00
701.79	0.00
701.93	0.00
702.06	0.00
702.19	0.00
702.32	0.00
702.46	0.00
702.59	0.00
702.72	0.00
702.85	0.00
702.99	0.00
703.12	0.00
703.25	0.00
703.38	0.00
703.51	0.00
703.65	0.00
703.78	0.00
703.91	0.00
704.04	0.00
704.17	0.00
704.31	0.00
704.44	0.00
704.57	0.00
704.70	0.00
704.83	0.00
704.96	0.00
705.10	0.00
705.23	0.00
>>>>>End Processed Spectral Data<<<<<
