SpectraSuite Data File
++++++++++++++++++++++++++++++++++++
Date: Mon Oct 07 15:00:00 GMT-05:00 2013
User: price-jones
Dark Spectrum Present: No
Reference Spectrum Present: No
Number of Sampled Component Spectra: 1
Spectrometers: USB2+H05261
Integration Time (usec): 100000 (USB2+H05261)
Spectra Averaged: 1 (USB2+H05261)
Boxcar Smoothing: 0 (USB2+H05261)
Correct for Electrical Dark: No (USB2+H05261)
Strobe/Lamp Enabled: No (USB2+H05261)
Correct for Detector Non-linearity: No (USB2+H05261)
Correct for Stray Light: No (USB2+H05261)
Number of Pixels in Processed Spectrum: 2048
>>>>>Begin Processed Spectral Data<<<<<
365.73	0.00
365.92	0.00
366.12	0.00
366.32	0.00
366.52	0.00
366.72	0.00
366.91	0.00
367.11	0.00
367.31	0.00
367.51	0.00
367.70	0.00
367.90	0.00
368.10	0.00
368.30	0.00
368.49	0.00
368.69	0.00
368.89	0.00
369.09	0.00
369.28	0.00
369.48	0.00
369.68	0.00
369.87	0.00
370.07	0.00
370.27	0.00
370.47	0.00
370.66	0.00
370.86	0.00
371.06	0.00
371.25	0.00
371.45	0.00
371.65	0.00
371.84	0.00
372.04	0.00
372.24	0.00
372.44	0.00
372.63	0.00
372.83	0.00
373.03	0.00
373.22	0.00
373.42	0.00
373.62	0.00
373.81	0.00
374.01	0.00
374.21	0.00
374.40	0.00
374.60	0.00
374.79	0.00
374.99	0.00
375.19	0.00
375.38	0.00
375.58	0.00
375.78	0.00
375.97	0.00
376.17	0.00
376.37	0.00
376.56	0.00
376.76	0.00
376.95	0.00
377.15	0.00
377.35	0.00
377.54	0.00
377.74	0.00
377.93	0.00
378.13	0.00
378.33	0.00
378.52	0.00
378.72	0.00
378.91	0.00
379.11	0.00
379.31	0.00
379.50	0.00
379.70	0.00
379.89	0.00
380.09	0.00
380.28	0.00
380.48	0.00
380.68	0.00
380.87	0.00
381.07	0.00
381.26	0.00
381.46	0.00
381.65	0.00
381.85	0.00
382.04	0.00
382.24	0.00
382.43	0.00
382.63	0.00
382.83	0.00
383.02	0.00
383.22	0.00
383.41	0.00
383.61	0.00
383.80	0.00
384.00	0.00
384.19	0.00
384.39	0.00
384.58	0.00
384.78	0.00
384.97	0.00
385.17	0.00
385.36	0.00
385.56	0.00
385.75	0.00
385.95	0.00
386.14	0.00
386.34	0.00
386.53	0.00
386.72	0.00
386.92	0.00
387.11	0.00
387.31	0.00
387.50	0.00
387.70	0.00
387.89	0.00
388.09	0.00
388.28	0.00
388.48	0.00
388.67	0.00
388.86	0.00
389.06	0.00
389.25	0.00
389.45	0.00
389.64	0.00
389.84	0.00
390.03	0.00
390.22	0.00
390.42	0.00
390.61	0.00
390.81	0.00
391.00	0.00
391.19	0.00
391.39	0.00
391.58	0.00
391.78	0.00
391.97	0.00
392.16	0.00
392.36	0.00
392.55	0.00
392.75	0.00
392.94	0.00
393.13	0.00
393.33	0.00
393.52	0.00
393.71	0.00
393.91	0.00
394.10	0.00
394.29	0.00
394.49	0.00
394.68	0.00
394.88	0.00
395.07	0.00
395.26	0.00
395.46	0.00
395.65	0.00
395.84	0.00
396.04	0.00
396.23	0.00
396.42	0.00
396.62	0.00
396.81	0.00
397.00	0.00
397.19	0.00
397.39	0.00
397.58	0.00
397.77	0.00
397.97	0.00
398.16	0.00
398.35	0.00
398.55	0.00
398.74	0.00
398.93	0.00
399.12	0.00
399.32	0.00
399.51	0.00
399.70	0.00
399.90	0.00
400.09	0.00
400.28	0.00
400.47	0.00
400.67	0.00
400.86	0.00
401.05	0.00
401.24	0.00
401.44	0.00
401.63	0.00
401.82	0.00
402.01	0.00
402.21	0.00
402.40	0.00
402.59	0.00
402.78	0.00
402.97	0.00
403.17	0.00
403.36	0.00
403.55	0.00
403.74	0.00
403.93	0.00
404.13	0.00
404.32	0.00
404.51	0.00
404.70	0.00
404.89	0.00
405.09	0.00
405.28	0.00
405.47	0.00
405.66	0.00
405.85	0.00
406.05	0.00
406.24	0.00
406.43	0.00
406.62	0.00
406.81	0.00
407.00	0.00
407.20	0.00
407.39	0.00
407.58	0.00
407.77	0.00
407.96	0.00
408.15	0.00
408.34	0.00
408.54	0.00
408.73	0.00
408.92	0.00
409.11	0.00
409.30	0.00
409.49	0.00
409.68	0.00
409.87	0.00
410.07	0.00
410.26	0.00
410.45	0.00
410.64	0.00
410.83	0.00
411.02	0.00
411.21	0.00
411.40	0.00
411.59	0.00
411.78	0.00
411.98	0.00
412.17	0.00
412.36	0.00
412.55	0.00
412.74	0.00
412.93	0.00
413.12	0.00
413.31	0.00
413.50	0.00
413.69	0.00
413.88	0.00
414.07	0.00
414.26	0.00
414.45	0.00
414.64	0.00
414.83	0.00
415.02	0.00
415.22	0.00
415.41	0.00
415.60	0.00
415.79	0.00
415.98	0.00
416.17	0.00
416.36	0.00
416.55	0.00
416.74	0.00
416.93	0.00
417.12	0.00
417.31	0.00
417.50	0.00
417.69	0.00
417.88	0.00
418.07	0.00
418.26	0.00
418.45	0.00
418.64	0.00
418.83	0.00
419.02	0.00
419.21	0.00
419.39	0.00
419.58	0.00
419.77	0.00
419.96	0.00
420.15	0.00
420.34	0.00
420.53	0.00
420.72	0.00
420.91	0.00
421.10	0.00
421.29	0.00
421.48	0.00
421.67	0.00
421.86	0.00
422.05	0.00
422.24	0.00
422.43	0.00
422.61	0.00
422.80	0.00
422.99	0.00
423.18	0.00
423.37	0.00
423.56	0.00
423.75	0.00
423.94	0.00
424.13	0.00
424.32	0.00
424.50	0.00
424.69	0.00
424.88	0.00
425.07	0.00
425.26	0.00
425.45	0.00
425.64	0.00
425.83	0.00
426.01	0.00
426.20	0.00
426.39	0.00
426.58	0.00
426.77	0.00
426.96	0.00
427.15	0.00
427.33	0.00
427.52	0.00
427.71	0.00
427.90	0.00
428.09	0.00
428.28	0.00
428.46	0.00
428.65	0.00
428.84	0.00
429.03	0.00
429.22	0.00
429.40	0.00
429.59	0.00
429.78	0.00
429.97	0.00
430.16	0.00
430.34	0.00
430.53	0.00
430.72	0.00
430.91	0.00
431.10	0.00
431.28	0.00
431.47	0.00
431.66	0.00
431.85	0.00
432.03	0.00
432.22	0.00
432.41	0.00
432.60	0.00
432.79	0.00
432.97	0.00
433.16	0.00
433.35	0.00
433.54	0.00
433.72	0.00
433.91	0.00
434.10	0.00
434.28	0.00
434.47	0.00
434.66	0.00
434.85	0.00
435.03	0.00
435.22	0.00
435.41	14.04
435.59	0.00
435.78	0.00
435.97	0.00
436.16	0.00
436.34	0.00
436.53	0.00
436.72	0.00
436.90	21.06
437.09	0.00
437.28	0.00
437.46	0.00
437.65	0.00
437.84	0.00
438.02	0.00
438.21	0.00
438.40	0.00
438.58	0.00
438.77	0.00
438.96	0.00
439.14	0.00
439.33	9.36
439.52	0.00
439.70	0.00
439.89	0.00
440.08	0.00
440.26	0.00
440.45	0.00
440.63	0.00
440.82	0.00
441.01	0.00
441.19	0.00
441.38	0.00
441.57	0.00
441.75	0.00
441.94	0.00
442.12	0.00
442.31	0.00
442.50	0.00
442.68	0.00
442.87	0.00
443.05	0.00
443.24	0.00
443.43	0.00
443.61	0.00
443.80	0.00
443.98	0.00
444.17	0.00
444.35	0.00
444.54	0.00
444.73	0.00
444.91	0.00
445.10	0.00
445.28	0.00
445.47	0.00
445.65	0.00
445.84	0.00
446.02	0.00
446.21	0.00
446.39	0.00
446.58	0.00
446.77	0.00
446.95	0.00
447.14	0.00
447.32	0.00
447.51	0.00
447.69	0.00
447.88	23.41
448.06	0.00
448.25	0.00
448.43	0.00
448.62	0.00
448.80	0.00
448.99	0.00
449.17	0.00
449.36	0.00
449.54	0.00
449.73	0.00
449.91	0.00
450.10	0.00
450.28	18.72
450.46	23.41
450.65	0.00
450.83	0.00
451.02	0.00
451.20	0.00
451.39	0.00
451.57	0.00
451.76	0.00
451.94	0.00
452.13	0.00
452.31	0.00
452.49	2.34
452.68	0.00
452.86	0.00
453.05	21.06
453.23	0.00
453.42	0.00
453.60	4.68
453.78	0.00
453.97	0.00
454.15	0.00
454.34	0.00
454.52	0.00
454.70	0.00
454.89	0.00
455.07	0.00
455.26	0.00
455.44	0.00
455.62	0.00
455.81	18.72
455.99	0.00
456.17	7.02
456.36	0.00
456.54	0.00
456.73	0.00
456.91	0.00
457.09	0.00
457.28	0.00
457.46	0.00
457.64	0.00
457.83	0.00
458.01	0.00
458.19	0.00
458.38	0.00
458.56	0.00
458.74	0.00
458.93	37.45
459.11	0.00
459.29	0.00
459.48	0.00
459.66	30.43
459.84	0.00
460.03	133.41
460.21	25.75
460.39	0.00
460.57	39.79
460.76	0.00
460.94	0.00
461.12	28.09
461.31	0.00
461.49	0.00
461.67	0.00
461.85	49.15
462.04	0.00
462.22	585.13
462.40	23.41
462.59	39.79
462.77	28.09
462.95	0.00
463.13	0.00
463.32	42.13
463.50	0.00
463.68	0.00
463.86	0.00
464.05	0.00
464.23	23.41
464.41	0.00
464.59	0.00
464.78	0.00
464.96	0.00
465.14	0.00
465.32	35.11
465.50	0.00
465.69	0.00
465.87	0.00
466.05	32.77
466.23	0.00
466.41	0.00
466.60	0.00
466.78	0.00
466.96	0.00
467.14	0.00
467.32	0.00
467.51	0.00
467.69	0.00
467.87	16.38
468.05	0.00
468.23	32.77
468.41	0.00
468.60	0.00
468.78	0.00
468.96	0.00
469.14	0.00
469.32	0.00
469.50	0.00
469.69	0.00
469.87	0.00
470.05	42.13
470.23	0.00
470.41	0.00
470.59	0.00
470.77	0.00
470.95	53.83
471.14	0.00
471.32	0.00
471.50	79.58
471.68	0.00
471.86	7.02
472.04	0.00
472.22	0.00
472.40	11.70
472.58	0.00
472.77	0.00
472.95	0.00
473.13	95.96
473.31	0.00
473.49	11.70
473.67	0.00
473.85	0.00
474.03	37.45
474.21	28.09
474.39	79.58
474.57	58.51
474.75	0.00
474.93	0.00
475.12	21.06
475.30	0.00
475.48	0.00
475.66	18.72
475.84	4.68
476.02	0.00
476.20	0.00
476.38	18.72
476.56	86.60
476.74	30.43
476.92	0.00
477.10	0.00
477.28	107.66
477.46	21.06
477.64	114.69
477.82	0.00
478.00	44.47
478.18	4.68
478.36	21.06
478.54	0.00
478.72	11.70
478.90	25.75
479.08	53.83
479.26	0.00
479.44	37.45
479.62	0.00
479.80	4.68
479.98	0.00
480.16	23.41
480.34	2.34
480.52	18.72
480.70	65.54
480.88	56.17
481.06	121.71
481.24	44.47
481.41	58.51
481.59	35.11
481.77	0.00
481.95	74.90
482.13	56.17
482.31	72.56
482.49	67.88
482.67	60.85
482.85	25.75
483.03	49.15
483.21	74.90
483.39	9.36
483.57	65.54
483.74	77.24
483.92	49.15
484.10	86.60
484.28	84.26
484.46	138.09
484.64	107.66
484.82	93.62
485.00	2.34
485.18	84.26
485.35	107.66
485.53	53.83
485.71	84.26
485.89	0.00
486.07	28.09
486.25	156.82
486.43	79.58
486.61	114.69
486.78	56.17
486.96	35.11
487.14	107.66
487.32	86.60
487.50	30.43
487.68	86.60
487.85	138.09
488.03	86.60
488.21	201.29
488.39	70.22
488.57	154.48
488.75	102.98
488.92	475.13
489.10	194.26
489.28	156.82
489.46	112.35
489.64	117.03
489.81	49.15
489.99	152.13
490.17	81.92
490.35	168.52
490.53	60.85
490.70	124.05
490.88	191.92
491.06	102.98
491.24	182.56
491.41	105.32
491.59	65.54
491.77	60.85
491.95	112.35
492.13	133.41
492.30	65.54
492.48	133.41
492.66	147.45
492.84	100.64
493.01	187.24
493.19	140.43
493.37	138.09
493.54	105.32
493.72	114.69
493.90	152.13
494.08	152.13
494.25	224.69
494.43	196.60
494.61	173.20
494.79	161.50
494.96	159.16
495.14	220.01
495.32	210.65
495.49	156.82
495.67	159.16
495.85	208.31
496.02	231.71
496.20	201.29
496.38	205.97
496.55	135.75
496.73	203.63
496.91	189.58
497.09	280.86
497.26	147.45
497.44	210.65
497.62	159.16
497.79	128.73
497.97	189.58
498.14	159.16
498.32	198.95
498.50	266.82
498.67	180.22
498.85	173.20
499.03	243.42
499.20	175.54
499.38	217.67
499.56	236.39
499.73	294.91
499.91	149.79
500.08	280.86
500.26	128.73
500.44	124.05
500.61	238.73
500.79	187.24
500.97	255.12
501.14	212.99
501.32	187.24
501.49	238.73
501.67	201.29
501.84	203.63
502.02	212.99
502.20	224.69
502.37	243.42
502.55	271.50
502.72	278.52
502.90	224.69
503.07	217.67
503.25	271.50
503.43	121.71
503.60	198.95
503.78	180.22
503.95	187.24
504.13	224.69
504.30	170.86
504.48	231.71
504.65	280.86
504.83	222.35
505.01	131.07
505.18	243.42
505.36	248.10
505.53	262.14
505.71	222.35
505.88	297.25
506.06	278.52
506.23	212.99
506.41	234.05
506.58	248.10
506.76	189.58
506.93	170.86
507.11	229.37
507.28	271.50
507.46	245.76
507.63	168.52
507.81	252.78
507.98	184.90
508.16	198.95
508.33	243.42
508.50	191.92
508.68	257.46
508.85	208.31
509.03	222.35
509.20	243.42
509.38	280.86
509.55	280.86
509.73	341.72
509.90	252.78
510.08	227.03
510.25	231.71
510.42	248.10
510.60	210.65
510.77	276.18
510.95	201.29
511.12	203.63
511.30	236.39
511.47	308.95
511.64	238.73
511.82	273.84
511.99	184.90
512.17	257.46
512.34	203.63
512.51	241.08
512.69	217.67
512.86	285.55
513.04	217.67
513.21	187.24
513.38	142.77
513.56	212.99
513.73	205.97
513.90	327.68
514.08	215.33
514.25	362.78
514.43	248.10
514.60	236.39
514.77	168.52
514.95	304.27
515.12	198.95
515.29	255.12
515.47	252.78
515.64	259.80
515.81	264.48
515.99	262.14
516.16	175.54
516.33	231.71
516.51	196.60
516.68	126.39
516.85	191.92
517.03	194.26
517.20	362.78
517.37	308.95
517.54	365.12
517.72	252.78
517.89	128.73
518.06	203.63
518.24	262.14
518.41	318.31
518.58	210.65
518.75	184.90
518.93	308.95
519.10	322.99
519.27	231.71
519.45	191.92
519.62	271.50
519.79	313.63
519.96	210.65
520.14	243.42
520.31	220.01
520.48	297.25
520.65	245.76
520.83	367.46
521.00	318.31
521.17	241.08
521.34	245.76
521.52	276.18
521.69	325.33
521.86	257.46
522.03	255.12
522.20	205.97
522.38	294.91
522.55	203.63
522.72	208.31
522.89	248.10
523.07	297.25
523.24	301.93
523.41	269.16
523.58	311.29
523.75	341.72
523.92	271.50
524.10	313.63
524.27	330.02
524.44	278.52
524.61	271.50
524.78	273.84
524.96	318.31
525.13	353.42
525.30	341.72
525.47	346.40
525.64	287.89
525.81	299.59
525.98	269.16
526.16	278.52
526.33	170.86
526.50	203.63
526.67	177.88
526.84	217.67
527.01	276.18
527.18	245.76
527.36	229.37
527.53	189.58
527.70	327.68
527.87	273.84
528.04	362.78
528.21	280.86
528.38	292.57
528.55	442.36
528.72	386.19
528.89	341.72
529.07	294.91
529.24	308.95
529.41	290.23
529.58	266.82
529.75	337.04
529.92	313.63
530.09	278.52
530.26	334.70
530.43	351.08
530.60	308.95
530.77	365.12
530.94	351.08
531.11	330.02
531.28	313.63
531.46	390.87
531.63	299.59
531.80	337.04
531.97	351.08
532.14	320.65
532.31	241.08
532.48	280.86
532.65	294.91
532.82	294.91
532.99	224.69
533.16	339.38
533.33	229.37
533.50	330.02
533.67	294.91
533.84	348.74
534.01	327.68
534.18	327.68
534.35	252.78
534.52	311.29
534.69	355.76
534.86	297.25
535.03	320.65
535.20	379.17
535.37	337.04
535.54	287.89
535.71	355.76
535.88	444.70
536.05	308.95
536.22	315.97
536.38	311.29
536.55	294.91
536.72	397.89
536.89	220.01
537.06	280.86
537.23	285.55
537.40	332.36
537.57	339.38
537.74	306.61
537.91	369.80
538.08	308.95
538.25	351.08
538.42	374.49
538.59	344.06
538.75	374.49
538.92	297.25
539.09	440.02
539.26	315.97
539.43	255.12
539.60	325.33
539.77	339.38
539.94	313.63
540.11	301.93
540.28	315.97
540.44	355.76
540.61	351.08
540.78	292.57
540.95	308.95
541.12	381.51
541.29	365.12
541.46	463.43
541.62	376.83
541.79	315.97
541.96	175.54
542.13	353.42
542.30	297.25
542.47	344.06
542.63	280.86
542.80	355.76
542.97	306.61
543.14	306.61
543.31	374.49
543.48	386.19
543.64	397.89
543.81	325.33
543.98	262.14
544.15	234.05
544.32	341.72
544.48	339.38
544.65	351.08
544.82	327.68
544.99	355.76
545.16	407.25
545.32	376.83
545.49	313.63
545.66	285.55
545.83	322.99
546.00	301.93
546.16	383.85
546.33	344.06
546.50	348.74
546.67	393.21
546.83	374.49
547.00	287.89
547.17	341.72
547.34	325.33
547.50	304.27
547.67	334.70
547.84	266.82
548.00	325.33
548.17	353.42
548.34	360.44
548.51	304.27
548.67	355.76
548.84	383.85
549.01	358.10
549.18	315.97
549.34	411.93
549.51	341.72
549.68	334.70
549.84	358.10
550.01	372.15
550.18	479.81
550.34	433.00
550.51	334.70
550.68	421.30
550.84	397.89
551.01	334.70
551.18	390.87
551.34	334.70
551.51	360.44
551.68	421.30
551.84	397.89
552.01	358.10
552.18	285.55
552.34	334.70
552.51	355.76
552.68	327.68
552.84	322.99
553.01	311.29
553.18	330.02
553.34	362.78
553.51	341.72
553.67	287.89
553.84	395.55
554.01	449.38
554.17	388.53
554.34	339.38
554.51	287.89
554.67	386.19
554.84	393.21
555.00	374.49
555.17	322.99
555.33	294.91
555.50	369.80
555.67	369.80
555.83	327.68
556.00	362.78
556.16	610.88
556.33	355.76
556.50	372.15
556.66	418.96
556.83	372.15
556.99	313.63
557.16	283.20
557.32	322.99
557.49	416.62
557.65	320.65
557.82	327.68
557.98	238.73
558.15	322.99
558.32	238.73
558.48	210.65
558.65	278.52
558.81	372.15
558.98	308.95
559.14	358.10
559.31	367.46
559.47	299.59
559.64	287.89
559.80	388.53
559.97	280.86
560.13	337.04
560.30	299.59
560.46	341.72
560.63	297.25
560.79	332.36
560.96	264.48
561.12	259.80
561.29	248.10
561.45	276.18
561.61	402.57
561.78	456.40
561.94	325.33
562.11	308.95
562.27	290.23
562.44	315.97
562.60	294.91
562.77	330.02
562.93	381.51
563.10	325.33
563.26	280.86
563.42	332.36
563.59	334.70
563.75	259.80
563.92	404.91
564.08	259.80
564.24	337.04
564.41	440.02
564.57	346.40
564.74	313.63
564.90	360.44
565.07	348.74
565.23	315.97
565.39	236.39
565.56	402.57
565.72	187.24
565.88	311.29
566.05	271.50
566.21	376.83
566.38	362.78
566.54	322.99
566.70	358.10
566.87	285.55
567.03	299.59
567.19	322.99
567.36	283.20
567.52	327.68
567.68	320.65
567.85	379.17
568.01	215.33
568.17	175.54
568.34	355.76
568.50	365.12
568.66	266.82
568.83	493.85
568.99	301.93
569.15	353.42
569.32	334.70
569.48	243.42
569.64	320.65
569.81	339.38
569.97	229.37
570.13	330.02
570.30	283.20
570.46	255.12
570.62	322.99
570.78	306.61
570.95	337.04
571.11	390.87
571.27	283.20
571.43	259.80
571.60	362.78
571.76	351.08
571.92	372.15
572.09	325.33
572.25	355.76
572.41	346.40
572.57	365.12
572.74	374.49
572.90	294.91
573.06	334.70
573.22	255.12
573.38	330.02
573.55	320.65
573.71	381.51
573.87	344.06
574.03	337.04
574.20	351.08
574.36	278.52
574.52	205.97
574.68	339.38
574.84	416.62
575.01	257.46
575.17	266.82
575.33	280.86
575.49	290.23
575.65	341.72
575.82	294.91
575.98	411.93
576.14	257.46
576.30	353.42
576.46	313.63
576.62	222.35
576.79	337.04
576.95	330.02
577.11	255.12
577.27	262.14
577.43	330.02
577.59	381.51
577.75	290.23
577.92	222.35
578.08	327.68
578.24	362.78
578.40	266.82
578.56	322.99
578.72	388.53
578.88	283.20
579.04	220.01
579.21	341.72
579.37	315.97
579.53	285.55
579.69	355.76
579.85	280.86
580.01	386.19
580.17	332.36
580.33	311.29
580.49	304.27
580.65	315.97
580.82	362.78
580.98	215.33
581.14	393.21
581.30	355.76
581.46	273.84
581.62	299.59
581.78	344.06
581.94	339.38
582.10	278.52
582.26	306.61
582.42	330.02
582.58	276.18
582.74	358.10
582.90	304.27
583.06	442.36
583.22	369.80
583.38	362.78
583.54	266.82
583.70	299.59
583.86	341.72
584.02	315.97
584.18	339.38
584.34	262.14
584.50	325.33
584.66	332.36
584.82	374.49
584.98	353.42
585.14	325.33
585.30	252.78
585.46	308.95
585.62	220.01
585.78	222.35
585.94	351.08
586.10	280.86
586.26	353.42
586.42	325.33
586.58	353.42
586.74	297.25
586.90	374.49
587.06	318.31
587.22	365.12
587.38	292.57
587.54	217.67
587.70	304.27
587.86	245.76
588.02	306.61
588.18	269.16
588.34	252.78
588.49	117.03
588.65	220.01
588.81	238.73
588.97	196.60
589.13	231.71
589.29	231.71
589.45	285.55
589.61	358.10
589.77	334.70
589.93	292.57
590.08	332.36
590.24	276.18
590.40	308.95
590.56	198.95
590.72	245.76
590.88	255.12
591.04	388.53
591.20	215.33
591.35	322.99
591.51	252.78
591.67	229.37
591.83	283.20
591.99	257.46
592.15	306.61
592.31	330.02
592.46	264.48
592.62	294.91
592.78	154.48
592.94	245.76
593.10	234.05
593.26	325.33
593.41	278.52
593.57	227.03
593.73	351.08
593.89	280.86
594.05	252.78
594.20	182.56
594.36	318.31
594.52	285.55
594.68	299.59
594.84	264.48
594.99	353.42
595.15	257.46
595.31	374.49
595.47	407.25
595.62	194.26
595.78	304.27
595.94	266.82
596.10	248.10
596.25	315.97
596.41	285.55
596.57	290.23
596.73	222.35
596.88	292.57
597.04	238.73
597.20	278.52
597.36	283.20
597.51	217.67
597.67	308.95
597.83	196.60
597.99	292.57
598.14	278.52
598.30	280.86
598.46	248.10
598.61	238.73
598.77	234.05
598.93	248.10
599.09	353.42
599.24	292.57
599.40	245.76
599.56	224.69
599.71	332.36
599.87	285.55
600.03	287.89
600.18	198.95
600.34	325.33
600.50	250.44
600.65	212.99
600.81	189.58
600.97	238.73
601.12	241.08
601.28	337.04
601.44	229.37
601.59	290.23
601.75	276.18
601.91	224.69
602.06	152.13
602.22	311.29
602.37	287.89
602.53	252.78
602.69	215.33
602.84	318.31
603.00	264.48
603.16	257.46
603.31	351.08
603.47	227.03
603.62	308.95
603.78	311.29
603.94	294.91
604.09	358.10
604.25	252.78
604.40	241.08
604.56	292.57
604.71	271.50
604.87	255.12
605.03	266.82
605.18	276.18
605.34	241.08
605.49	297.25
605.65	320.65
605.80	271.50
605.96	283.20
606.12	292.57
606.27	250.44
606.43	292.57
606.58	222.35
606.74	234.05
606.89	252.78
607.05	241.08
607.20	287.89
607.36	290.23
607.51	238.73
607.67	220.01
607.82	294.91
607.98	358.10
608.13	278.52
608.29	198.95
608.44	367.46
608.60	264.48
608.75	266.82
608.91	243.42
609.06	278.52
609.22	313.63
609.37	175.54
609.53	175.54
609.68	184.90
609.84	182.56
609.99	175.54
610.15	184.90
610.30	276.18
610.46	250.44
610.61	320.65
610.76	229.37
610.92	187.24
611.07	269.16
611.23	339.38
611.38	245.76
611.54	189.58
611.69	133.41
611.84	241.08
612.00	229.37
612.15	180.22
612.31	248.10
612.46	210.65
612.62	243.42
612.77	205.97
612.92	220.01
613.08	177.88
613.23	212.99
613.39	201.29
613.54	231.71
613.69	229.37
613.85	152.13
614.00	187.24
614.15	243.42
614.31	203.63
614.46	210.65
614.62	184.90
614.77	248.10
614.92	227.03
615.08	231.71
615.23	245.76
615.38	224.69
615.54	184.90
615.69	215.33
615.84	159.16
616.00	248.10
616.15	180.22
616.30	208.31
616.46	231.71
616.61	138.09
616.76	208.31
616.92	259.80
617.07	255.12
617.22	227.03
617.37	243.42
617.53	191.92
617.68	166.18
617.83	177.88
617.99	287.89
618.14	269.16
618.29	245.76
618.45	266.82
618.60	245.76
618.75	231.71
618.90	173.20
619.06	229.37
619.21	250.44
619.36	269.16
619.51	224.69
619.67	180.22
619.82	205.97
619.97	290.23
620.12	215.33
620.28	191.92
620.43	212.99
620.58	220.01
620.73	212.99
620.89	173.20
621.04	243.42
621.19	278.52
621.34	198.95
621.49	196.60
621.65	250.44
621.80	152.13
621.95	245.76
622.10	283.20
622.25	287.89
622.41	184.90
622.56	154.48
622.71	203.63
622.86	238.73
623.01	269.16
623.16	227.03
623.32	184.90
623.47	280.86
623.62	210.65
623.77	191.92
623.92	152.13
624.07	163.84
624.23	182.56
624.38	138.09
624.53	187.24
624.68	194.26
624.83	276.18
624.98	198.95
625.13	170.86
625.29	189.58
625.44	110.01
625.59	133.41
625.74	227.03
625.89	222.35
626.04	135.75
626.19	105.32
626.34	177.88
626.49	194.26
626.65	154.48
626.80	184.90
626.95	128.73
627.10	182.56
627.25	131.07
627.40	70.22
627.55	191.92
627.70	266.82
627.85	119.37
628.00	173.20
628.15	163.84
628.30	227.03
628.45	126.39
628.60	119.37
628.76	175.54
628.91	177.88
629.06	175.54
629.21	262.14
629.36	145.11
629.51	121.71
629.66	138.09
629.81	114.69
629.96	184.90
630.11	105.32
630.26	170.86
630.41	198.95
630.56	126.39
630.71	138.09
630.86	105.32
631.01	138.09
631.16	124.05
631.31	236.39
631.46	173.20
631.61	149.79
631.76	156.82
631.91	161.50
632.06	187.24
632.21	208.31
632.36	124.05
632.51	250.44
632.66	138.09
632.81	196.60
632.96	81.92
633.10	107.66
633.25	154.48
633.40	266.82
633.55	156.82
633.70	95.96
633.85	159.16
634.00	177.88
634.15	156.82
634.30	177.88
634.45	168.52
634.60	133.41
634.75	147.45
634.90	145.11
635.05	198.95
635.19	180.22
635.34	208.31
635.49	138.09
635.64	173.20
635.79	53.83
635.94	161.50
636.09	187.24
636.24	180.22
636.39	145.11
636.53	257.46
636.68	138.09
636.83	166.18
636.98	222.35
637.13	72.56
637.28	252.78
637.43	184.90
637.57	149.79
637.72	194.26
637.87	166.18
638.02	208.31
638.17	177.88
638.32	173.20
638.46	175.54
638.61	273.84
638.76	126.39
638.91	194.26
639.06	105.32
639.20	191.92
639.35	170.86
639.50	210.65
639.65	259.80
639.80	161.50
639.94	248.10
640.09	168.52
640.24	194.26
640.39	133.41
640.54	112.35
640.68	126.39
640.83	110.01
640.98	131.07
641.13	117.03
641.27	110.01
641.42	117.03
641.57	112.35
641.72	189.58
641.86	168.52
642.01	133.41
642.16	166.18
642.31	105.32
642.45	189.58
642.60	238.73
642.75	191.92
642.90	222.35
643.04	138.09
643.19	74.90
643.34	119.37
643.48	121.71
643.63	117.03
643.78	168.52
643.93	121.71
644.07	138.09
644.22	93.62
644.37	133.41
644.51	152.13
644.66	37.45
644.81	114.69
644.95	145.11
645.10	67.88
645.25	42.13
645.39	133.41
645.54	105.32
645.69	133.41
645.83	142.77
645.98	138.09
646.13	224.69
646.27	159.16
646.42	147.45
646.57	114.69
646.71	110.01
646.86	100.64
647.00	93.62
647.15	91.28
647.30	86.60
647.44	121.71
647.59	175.54
647.74	44.47
647.88	124.05
648.03	110.01
648.17	88.94
648.32	77.24
648.47	117.03
648.61	133.41
648.76	107.66
648.90	112.35
649.05	65.54
649.20	119.37
649.34	44.47
649.49	79.58
649.63	81.92
649.78	107.66
649.92	114.69
650.07	227.03
650.21	133.41
650.36	121.71
650.51	184.90
650.65	177.88
650.80	138.09
650.94	100.64
651.09	39.79
651.23	51.49
651.38	32.77
651.52	91.28
651.67	79.58
651.81	156.82
651.96	173.20
652.10	110.01
652.25	79.58
652.39	121.71
652.54	110.01
652.68	173.20
652.83	126.39
652.97	58.51
653.12	112.35
653.26	107.66
653.41	128.73
653.55	102.98
653.70	149.79
653.84	79.58
653.99	110.01
654.13	16.38
654.27	126.39
654.42	110.01
654.56	135.75
654.71	180.22
654.85	42.13
655.00	51.49
655.14	63.19
655.29	0.00
655.43	77.24
655.57	98.30
655.72	16.38
655.86	44.47
656.01	56.17
656.15	0.00
656.30	112.35
656.44	91.28
656.58	93.62
656.73	79.58
656.87	53.83
657.01	112.35
657.16	114.69
657.30	140.43
657.45	154.48
657.59	79.58
657.73	42.13
657.88	119.37
658.02	198.95
658.16	121.71
658.31	119.37
658.45	58.51
658.60	0.00
658.74	72.56
658.88	84.26
659.03	35.11
659.17	81.92
659.31	56.17
659.46	117.03
659.60	163.84
659.74	72.56
659.89	100.64
660.03	58.51
660.17	147.45
660.32	156.82
660.46	135.75
660.60	119.37
660.74	194.26
660.89	173.20
661.03	145.11
661.17	28.09
661.32	60.85
661.46	58.51
661.60	91.28
661.74	88.94
661.89	114.69
662.03	154.48
662.17	74.90
662.31	74.90
662.46	88.94
662.60	117.03
662.74	70.22
662.88	72.56
663.03	100.64
663.17	28.09
663.31	35.11
663.45	77.24
663.60	77.24
663.74	84.26
663.88	30.43
664.02	32.77
664.17	67.88
664.31	72.56
664.45	35.11
664.59	35.11
664.73	77.24
664.88	32.77
665.02	72.56
665.16	112.35
665.30	107.66
665.44	98.30
665.59	142.77
665.73	100.64
665.87	117.03
666.01	152.13
666.15	79.58
666.29	44.47
666.44	198.95
666.58	138.09
666.72	18.72
666.86	16.38
667.00	72.56
667.14	53.83
667.28	4.68
667.43	11.70
667.57	77.24
667.71	98.30
667.85	25.75
667.99	72.56
668.13	93.62
668.27	21.06
668.41	28.09
668.56	7.02
668.70	86.60
668.84	0.00
668.98	145.11
669.12	46.81
669.26	93.62
669.40	154.48
669.54	81.92
669.68	110.01
669.82	88.94
669.96	117.03
670.10	28.09
670.25	105.32
670.39	9.36
670.53	74.90
670.67	86.60
670.81	0.00
670.95	93.62
671.09	72.56
671.23	131.07
671.37	39.79
671.51	16.38
671.65	84.26
671.79	0.00
671.93	7.02
672.07	119.37
672.21	84.26
672.35	51.49
672.49	0.00
672.63	4.68
672.77	28.09
672.91	74.90
673.05	25.75
673.19	30.43
673.33	25.75
673.47	79.58
673.61	79.58
673.75	60.85
673.89	72.56
674.03	49.15
674.17	28.09
674.31	35.11
674.45	0.00
674.59	0.00
674.73	72.56
674.87	23.41
675.01	79.58
675.15	7.02
675.29	93.62
675.43	63.19
675.56	112.35
675.70	63.19
675.84	11.70
675.98	44.47
676.12	14.04
676.26	0.00
676.40	42.13
676.54	0.00
676.68	35.11
676.82	100.64
676.96	18.72
677.10	28.09
677.23	11.70
677.37	0.00
677.51	0.00
677.65	51.49
677.79	32.77
677.93	28.09
678.07	0.00
678.21	23.41
678.34	0.00
678.48	39.79
678.62	9.36
678.76	56.17
678.90	30.43
679.04	0.00
679.18	0.00
679.31	0.00
679.45	51.49
679.59	0.00
679.73	56.17
679.87	0.00
680.00	0.00
680.14	32.77
680.28	9.36
680.42	25.75
680.56	0.00
680.70	0.00
680.83	4.68
680.97	0.00
681.11	0.00
681.25	0.00
681.39	0.00
681.52	0.00
681.66	4.68
681.80	0.00
681.94	0.00
682.07	0.00
682.21	0.00
682.35	0.00
682.49	37.45
682.62	14.04
682.76	0.00
682.90	23.41
683.04	0.00
683.17	0.00
683.31	0.00
683.45	32.77
683.59	0.00
683.72	21.06
683.86	53.83
684.00	30.43
684.13	0.00
684.27	42.13
684.41	49.15
684.55	0.00
684.68	30.43
684.82	28.09
684.96	0.00
685.09	0.00
685.23	0.00
685.37	0.00
685.50	0.00
685.64	0.00
685.78	0.00
685.91	0.00
686.05	0.00
686.19	0.00
686.32	11.70
686.46	0.00
686.60	0.00
686.73	0.00
686.87	0.00
687.01	0.00
687.14	0.00
687.28	0.00
687.42	0.00
687.55	0.00
687.69	0.00
687.82	0.00
687.96	0.00
688.10	0.00
688.23	0.00
688.37	0.00
688.50	0.00
688.64	0.00
688.78	0.00
688.91	0.00
689.05	0.00
689.18	0.00
689.32	0.00
689.46	0.00
689.59	0.00
689.73	0.00
689.86	0.00
690.00	0.00
690.13	0.00
690.27	0.00
690.41	0.00
690.54	0.00
690.68	0.00
690.81	0.00
690.95	0.00
691.08	0.00
691.22	0.00
691.35	0.00
691.49	0.00
691.62	0.00
691.76	0.00
691.89	0.00
692.03	0.00
692.16	0.00
692.30	21.06
692.43	0.00
692.57	0.00
692.70	0.00
692.84	0.00
692.97	0.00
693.11	0.00
693.24	0.00
693.38	0.00
693.51	0.00
693.65	0.00
693.78	0.00
693.92	0.00
694.05	0.00
694.19	0.00
694.32	0.00
694.45	0.00
694.59	0.00
694.72	0.00
694.86	0.00
694.99	0.00
695.13	0.00
695.26	0.00
695.39	0.00
695.53	0.00
695.66	0.00
695.80	0.00
695.93	0.00
696.07	0.00
696.20	0.00
696.33	0.00
696.47	0.00
696.60	0.00
696.73	0.00
696.87	0.00
697.00	0.00
697.14	0.00
697.27	0.00
697.40	16.38
697.54	0.00
697.67	0.00
697.80	0.00
697.94	0.00
698.07	0.00
698.21	0.00
698.34	0.00
698.47	0.00
698.61	0.00
698.74	0.00
698.87	0.00
699.01	0.00
699.14	0.00
699.27	0.00
699.40	42.13
699.54	0.00
699.67	0.00
699.80	0.00
699.94	0.00
700.07	0.00
700.20	0.00
700.34	0.00
700.47	0.00
700.60	0.00
700.73	0.00
700.87	0.00
701.00	0.00
701.13	0.00
701.26	0.00
701.40	0.00
701.53	0.00
701.66	0.00
701.79	0.00
701.93	0.00
702.06	0.00
702.19	0.00
702.32	0.00
702.46	0.00
702.59	0.00
702.72	0.00
702.85	0.00
702.99	0.00
703.12	0.00
703.25	0.00
703.38	0.00
703.51	0.00
703.65	0.00
703.78	0.00
703.91	0.00
704.04	0.00
704.17	0.00
704.31	0.00
704.44	0.00
704.57	0.00
704.70	0.00
704.83	0.00
704.96	0.00
705.10	0.00
705.23	0.00
>>>>>End Processed Spectral Data<<<<<
