SpectraSuite Data File
++++++++++++++++++++++++++++++++++++
Date: Mon Oct 07 15:00:00 GMT-05:00 2013
User: price-jones
Dark Spectrum Present: No
Reference Spectrum Present: No
Number of Sampled Component Spectra: 1
Spectrometers: USB2+H05261
Integration Time (usec): 100000 (USB2+H05261)
Spectra Averaged: 1 (USB2+H05261)
Boxcar Smoothing: 0 (USB2+H05261)
Correct for Electrical Dark: No (USB2+H05261)
Strobe/Lamp Enabled: No (USB2+H05261)
Correct for Detector Non-linearity: No (USB2+H05261)
Correct for Stray Light: No (USB2+H05261)
Number of Pixels in Processed Spectrum: 2048
>>>>>Begin Processed Spectral Data<<<<<
365.73	0.00
365.92	0.00
366.12	0.00
366.32	0.00
366.52	0.00
366.72	0.00
366.91	0.00
367.11	0.00
367.31	0.00
367.51	0.00
367.70	0.00
367.90	0.00
368.10	0.00
368.30	0.00
368.49	0.00
368.69	0.00
368.89	0.00
369.09	0.00
369.28	0.00
369.48	0.00
369.68	0.00
369.87	0.00
370.07	0.00
370.27	0.00
370.47	0.00
370.66	0.00
370.86	0.00
371.06	0.00
371.25	0.00
371.45	0.00
371.65	0.00
371.84	0.00
372.04	0.00
372.24	0.00
372.44	0.00
372.63	0.00
372.83	0.00
373.03	0.00
373.22	0.00
373.42	0.00
373.62	0.00
373.81	0.00
374.01	0.00
374.21	0.00
374.40	0.00
374.60	0.00
374.79	0.00
374.99	0.00
375.19	0.00
375.38	0.00
375.58	0.00
375.78	0.00
375.97	0.00
376.17	0.00
376.37	0.00
376.56	0.00
376.76	0.00
376.95	0.00
377.15	0.00
377.35	0.00
377.54	0.00
377.74	0.00
377.93	0.00
378.13	0.00
378.33	0.00
378.52	0.00
378.72	0.00
378.91	0.00
379.11	0.00
379.31	0.00
379.50	0.00
379.70	0.00
379.89	0.00
380.09	0.00
380.28	0.00
380.48	0.00
380.68	0.00
380.87	0.00
381.07	0.00
381.26	0.00
381.46	0.00
381.65	0.00
381.85	0.00
382.04	0.00
382.24	0.00
382.43	0.00
382.63	0.00
382.83	0.00
383.02	0.00
383.22	0.00
383.41	0.00
383.61	0.00
383.80	0.00
384.00	0.00
384.19	0.00
384.39	0.00
384.58	0.00
384.78	0.00
384.97	0.00
385.17	0.00
385.36	0.00
385.56	0.00
385.75	0.00
385.95	0.00
386.14	0.00
386.34	0.00
386.53	0.00
386.72	0.00
386.92	0.00
387.11	0.00
387.31	0.00
387.50	0.00
387.70	0.00
387.89	0.00
388.09	0.00
388.28	0.00
388.48	0.00
388.67	0.00
388.86	0.00
389.06	0.00
389.25	0.00
389.45	0.00
389.64	0.00
389.84	0.00
390.03	0.00
390.22	0.00
390.42	0.00
390.61	0.00
390.81	0.00
391.00	0.00
391.19	0.00
391.39	0.00
391.58	0.00
391.78	0.00
391.97	0.00
392.16	0.00
392.36	0.00
392.55	0.00
392.75	0.00
392.94	0.00
393.13	0.00
393.33	0.00
393.52	0.00
393.71	0.00
393.91	0.00
394.10	0.00
394.29	0.00
394.49	0.00
394.68	0.00
394.88	0.00
395.07	0.00
395.26	0.00
395.46	0.00
395.65	0.00
395.84	0.00
396.04	0.00
396.23	0.00
396.42	0.00
396.62	0.00
396.81	0.00
397.00	0.00
397.19	0.00
397.39	0.00
397.58	0.00
397.77	0.00
397.97	0.00
398.16	0.00
398.35	0.00
398.55	0.00
398.74	0.00
398.93	0.00
399.12	0.00
399.32	0.00
399.51	0.00
399.70	0.00
399.90	0.00
400.09	0.00
400.28	0.00
400.47	0.00
400.67	0.00
400.86	0.00
401.05	0.00
401.24	0.00
401.44	0.00
401.63	0.00
401.82	0.00
402.01	0.00
402.21	0.00
402.40	0.00
402.59	0.00
402.78	0.00
402.97	0.00
403.17	0.00
403.36	0.00
403.55	0.00
403.74	0.00
403.93	0.00
404.13	0.00
404.32	0.00
404.51	0.00
404.70	0.00
404.89	0.00
405.09	0.00
405.28	0.00
405.47	0.00
405.66	0.00
405.85	0.00
406.05	0.00
406.24	0.00
406.43	0.00
406.62	0.00
406.81	0.00
407.00	0.00
407.20	0.00
407.39	0.00
407.58	0.00
407.77	0.00
407.96	0.00
408.15	0.00
408.34	0.00
408.54	0.00
408.73	0.00
408.92	0.00
409.11	0.00
409.30	0.00
409.49	0.00
409.68	0.00
409.87	0.00
410.07	0.00
410.26	0.00
410.45	0.00
410.64	0.00
410.83	0.00
411.02	0.00
411.21	0.00
411.40	0.00
411.59	0.00
411.78	0.00
411.98	0.00
412.17	0.00
412.36	0.00
412.55	0.00
412.74	0.00
412.93	0.00
413.12	0.00
413.31	0.00
413.50	0.00
413.69	0.00
413.88	0.00
414.07	0.00
414.26	0.00
414.45	0.00
414.64	0.00
414.83	0.00
415.02	0.00
415.22	0.00
415.41	0.00
415.60	0.00
415.79	0.00
415.98	0.00
416.17	0.00
416.36	0.00
416.55	0.00
416.74	0.00
416.93	0.00
417.12	0.00
417.31	0.00
417.50	0.00
417.69	0.00
417.88	0.00
418.07	0.00
418.26	0.00
418.45	0.00
418.64	0.00
418.83	0.00
419.02	0.00
419.21	0.00
419.39	0.00
419.58	0.00
419.77	0.00
419.96	0.00
420.15	0.00
420.34	0.00
420.53	0.00
420.72	0.00
420.91	0.00
421.10	0.00
421.29	0.00
421.48	0.00
421.67	0.00
421.86	0.00
422.05	0.00
422.24	0.00
422.43	0.00
422.61	0.00
422.80	0.00
422.99	0.00
423.18	0.00
423.37	0.00
423.56	0.00
423.75	0.00
423.94	0.00
424.13	0.00
424.32	0.00
424.50	0.00
424.69	0.00
424.88	0.00
425.07	0.00
425.26	0.00
425.45	0.00
425.64	0.00
425.83	0.00
426.01	0.00
426.20	0.00
426.39	0.00
426.58	0.00
426.77	0.00
426.96	0.00
427.15	0.00
427.33	0.00
427.52	0.00
427.71	0.00
427.90	0.00
428.09	0.00
428.28	0.00
428.46	0.00
428.65	0.00
428.84	0.00
429.03	0.00
429.22	0.00
429.40	0.00
429.59	0.00
429.78	0.00
429.97	0.00
430.16	0.00
430.34	0.00
430.53	0.00
430.72	0.00
430.91	0.00
431.10	0.00
431.28	0.00
431.47	0.00
431.66	0.00
431.85	0.00
432.03	0.00
432.22	0.00
432.41	0.00
432.60	0.00
432.79	0.00
432.97	0.00
433.16	0.00
433.35	0.00
433.54	0.00
433.72	0.00
433.91	0.00
434.10	0.00
434.28	0.00
434.47	0.00
434.66	0.00
434.85	0.00
435.03	0.00
435.22	0.00
435.41	0.00
435.59	0.00
435.78	0.00
435.97	0.00
436.16	0.00
436.34	0.00
436.53	0.00
436.72	0.00
436.90	0.00
437.09	0.00
437.28	0.00
437.46	0.00
437.65	0.00
437.84	0.00
438.02	0.00
438.21	0.00
438.40	0.00
438.58	0.00
438.77	0.00
438.96	0.00
439.14	0.00
439.33	0.00
439.52	0.00
439.70	0.00
439.89	0.00
440.08	0.00
440.26	0.00
440.45	0.00
440.63	0.00
440.82	0.00
441.01	0.00
441.19	0.00
441.38	0.00
441.57	0.00
441.75	0.00
441.94	0.00
442.12	0.00
442.31	0.00
442.50	0.00
442.68	0.00
442.87	0.00
443.05	0.00
443.24	0.00
443.43	0.00
443.61	2.34
443.80	0.00
443.98	0.00
444.17	0.00
444.35	0.00
444.54	0.00
444.73	0.00
444.91	0.00
445.10	0.00
445.28	0.00
445.47	0.00
445.65	0.00
445.84	0.00
446.02	0.00
446.21	0.00
446.39	0.00
446.58	0.00
446.77	0.00
446.95	0.00
447.14	0.00
447.32	0.00
447.51	0.00
447.69	0.00
447.88	0.00
448.06	14.04
448.25	72.56
448.43	0.00
448.62	0.00
448.80	0.00
448.99	0.00
449.17	0.00
449.36	0.00
449.54	0.00
449.73	0.00
449.91	0.00
450.10	0.00
450.28	0.00
450.46	0.00
450.65	0.00
450.83	0.00
451.02	0.00
451.20	0.00
451.39	0.00
451.57	0.00
451.76	0.00
451.94	0.00
452.13	0.00
452.31	0.00
452.49	0.00
452.68	0.00
452.86	0.00
453.05	0.00
453.23	0.00
453.42	0.00
453.60	0.00
453.78	0.00
453.97	0.00
454.15	0.00
454.34	0.00
454.52	0.00
454.70	0.00
454.89	0.00
455.07	0.00
455.26	0.00
455.44	0.00
455.62	0.00
455.81	49.15
455.99	42.13
456.17	25.75
456.36	0.00
456.54	0.00
456.73	0.00
456.91	0.00
457.09	0.00
457.28	0.00
457.46	0.00
457.64	7.02
457.83	0.00
458.01	0.00
458.19	0.00
458.38	0.00
458.56	0.00
458.74	0.00
458.93	0.00
459.11	0.00
459.29	0.00
459.48	0.00
459.66	0.00
459.84	0.00
460.03	86.60
460.21	0.00
460.39	2.34
460.57	0.00
460.76	0.00
460.94	0.00
461.12	63.19
461.31	21.06
461.49	0.00
461.67	0.00
461.85	4.68
462.04	0.00
462.22	533.64
462.40	0.00
462.59	21.06
462.77	0.00
462.95	0.00
463.13	0.00
463.32	65.54
463.50	0.00
463.68	0.00
463.86	0.00
464.05	0.00
464.23	23.41
464.41	0.00
464.59	0.00
464.78	0.00
464.96	0.00
465.14	0.00
465.32	0.00
465.50	0.00
465.69	67.88
465.87	0.00
466.05	0.00
466.23	0.00
466.41	0.00
466.60	0.00
466.78	0.00
466.96	2.34
467.14	37.45
467.32	0.00
467.51	16.38
467.69	0.00
467.87	56.17
468.05	0.00
468.23	30.43
468.41	30.43
468.60	7.02
468.78	0.00
468.96	0.00
469.14	25.75
469.32	0.00
469.50	0.00
469.69	7.02
469.87	0.00
470.05	0.00
470.23	0.00
470.41	0.00
470.59	0.00
470.77	0.00
470.95	0.00
471.14	49.15
471.32	0.00
471.50	2.34
471.68	72.56
471.86	11.70
472.04	0.00
472.22	0.00
472.40	0.00
472.58	0.00
472.77	0.00
472.95	0.00
473.13	28.09
473.31	91.28
473.49	58.51
473.67	0.00
473.85	9.36
474.03	16.38
474.21	30.43
474.39	42.13
474.57	65.54
474.75	28.09
474.93	30.43
475.12	0.00
475.30	0.00
475.48	0.00
475.66	0.00
475.84	0.00
476.02	46.81
476.20	0.00
476.38	0.00
476.56	107.66
476.74	0.00
476.92	0.00
477.10	58.51
477.28	131.07
477.46	9.36
477.64	0.00
477.82	0.00
478.00	11.70
478.18	0.00
478.36	53.83
478.54	0.00
478.72	0.00
478.90	0.00
479.08	53.83
479.26	28.09
479.44	0.00
479.62	11.70
479.80	2.34
479.98	0.00
480.16	49.15
480.34	91.28
480.52	0.00
480.70	32.77
480.88	0.00
481.06	35.11
481.24	74.90
481.41	32.77
481.59	70.22
481.77	93.62
481.95	44.47
482.13	51.49
482.31	0.00
482.49	0.00
482.67	70.22
482.85	65.54
483.03	30.43
483.21	65.54
483.39	49.15
483.57	70.22
483.74	42.13
483.92	39.79
484.10	91.28
484.28	133.41
484.46	119.37
484.64	121.71
484.82	119.37
485.00	93.62
485.18	84.26
485.35	37.45
485.53	0.00
485.71	105.32
485.89	0.00
486.07	18.72
486.25	117.03
486.43	72.56
486.61	58.51
486.78	88.94
486.96	88.94
487.14	86.60
487.32	16.38
487.50	112.35
487.68	70.22
487.85	131.07
488.03	133.41
488.21	142.77
488.39	110.01
488.57	110.01
488.75	86.60
488.92	465.77
489.10	84.26
489.28	241.08
489.46	65.54
489.64	107.66
489.81	203.63
489.99	156.82
490.17	88.94
490.35	248.10
490.53	95.96
490.70	131.07
490.88	128.73
491.06	128.73
491.24	203.63
491.41	166.18
491.59	166.18
491.77	131.07
491.95	74.90
492.13	102.98
492.30	102.98
492.48	140.43
492.66	107.66
492.84	51.49
493.01	84.26
493.19	217.67
493.37	163.84
493.54	138.09
493.72	166.18
493.90	173.20
494.08	145.11
494.25	161.50
494.43	166.18
494.61	208.31
494.79	166.18
494.96	168.52
495.14	222.35
495.32	138.09
495.49	142.77
495.67	191.92
495.85	201.29
496.02	196.60
496.20	196.60
496.38	203.63
496.55	217.67
496.73	161.50
496.91	205.97
497.09	234.05
497.26	163.84
497.44	189.58
497.62	105.32
497.79	121.71
497.97	184.90
498.14	229.37
498.32	140.43
498.50	161.50
498.67	117.03
498.85	257.46
499.03	124.05
499.20	245.76
499.38	236.39
499.56	149.79
499.73	292.57
499.91	227.03
500.08	271.50
500.26	142.77
500.44	266.82
500.61	196.60
500.79	93.62
500.97	170.86
501.14	140.43
501.32	182.56
501.49	248.10
501.67	131.07
501.84	271.50
502.02	184.90
502.20	255.12
502.37	271.50
502.55	189.58
502.72	276.18
502.90	283.20
503.07	198.95
503.25	327.68
503.43	133.41
503.60	152.13
503.78	86.60
503.95	147.45
504.13	205.97
504.30	259.80
504.48	234.05
504.65	227.03
504.83	175.54
505.01	262.14
505.18	222.35
505.36	182.56
505.53	220.01
505.71	234.05
505.88	304.27
506.06	212.99
506.23	196.60
506.41	173.20
506.58	229.37
506.76	187.24
506.93	245.76
507.11	243.42
507.28	241.08
507.46	182.56
507.63	215.33
507.81	154.48
507.98	248.10
508.16	264.48
508.33	212.99
508.50	271.50
508.68	271.50
508.85	334.70
509.03	313.63
509.20	208.31
509.38	257.46
509.55	264.48
509.73	273.84
509.90	208.31
510.08	173.20
510.25	212.99
510.42	133.41
510.60	257.46
510.77	245.76
510.95	220.01
511.12	161.50
511.30	273.84
511.47	266.82
511.64	381.51
511.82	168.52
511.99	201.29
512.17	177.88
512.34	191.92
512.51	173.20
512.69	163.84
512.86	311.29
513.04	255.12
513.21	299.59
513.38	297.25
513.56	292.57
513.73	212.99
513.90	196.60
514.08	177.88
514.25	259.80
514.43	283.20
514.60	205.97
514.77	290.23
514.95	191.92
515.12	198.95
515.29	215.33
515.47	231.71
515.64	294.91
515.81	201.29
515.99	308.95
516.16	278.52
516.33	205.97
516.51	135.75
516.68	135.75
516.85	156.82
517.03	88.94
517.20	224.69
517.37	98.30
517.54	133.41
517.72	177.88
517.89	196.60
518.06	142.77
518.24	177.88
518.41	353.42
518.58	301.93
518.75	215.33
518.93	259.80
519.10	203.63
519.27	294.91
519.45	273.84
519.62	264.48
519.79	341.72
519.96	227.03
520.14	154.48
520.31	283.20
520.48	280.86
520.65	283.20
520.83	358.10
521.00	271.50
521.17	318.31
521.34	299.59
521.52	252.78
521.69	227.03
521.86	264.48
522.03	355.76
522.20	311.29
522.38	259.80
522.55	290.23
522.72	198.95
522.89	255.12
523.07	285.55
523.24	304.27
523.41	255.12
523.58	285.55
523.75	278.52
523.92	227.03
524.10	201.29
524.27	269.16
524.44	215.33
524.61	315.97
524.78	287.89
524.96	290.23
525.13	327.68
525.30	304.27
525.47	320.65
525.64	308.95
525.81	273.84
525.98	257.46
526.16	234.05
526.33	266.82
526.50	177.88
526.67	259.80
526.84	203.63
527.01	262.14
527.18	311.29
527.36	301.93
527.53	248.10
527.70	313.63
527.87	311.29
528.04	376.83
528.21	322.99
528.38	315.97
528.55	250.44
528.72	353.42
528.89	372.15
529.07	351.08
529.24	339.38
529.41	400.23
529.58	330.02
529.75	322.99
529.92	304.27
530.09	290.23
530.26	311.29
530.43	325.33
530.60	283.20
530.77	332.36
530.94	341.72
531.11	397.89
531.28	308.95
531.46	376.83
531.63	355.76
531.80	332.36
531.97	388.53
532.14	287.89
532.31	245.76
532.48	290.23
532.65	245.76
532.82	304.27
532.99	294.91
533.16	379.17
533.33	332.36
533.50	360.44
533.67	341.72
533.84	351.08
534.01	255.12
534.18	308.95
534.35	210.65
534.52	306.61
534.69	285.55
534.86	315.97
535.03	376.83
535.20	308.95
535.37	360.44
535.54	322.99
535.71	304.27
535.88	404.91
536.05	320.65
536.22	283.20
536.38	252.78
536.55	252.78
536.72	292.57
536.89	294.91
537.06	301.93
537.23	358.10
537.40	414.27
537.57	360.44
537.74	372.15
537.91	337.04
538.08	360.44
538.25	390.87
538.42	287.89
538.59	400.23
538.75	271.50
538.92	287.89
539.09	297.25
539.26	255.12
539.43	330.02
539.60	259.80
539.77	362.78
539.94	374.49
540.11	236.39
540.28	280.86
540.44	337.04
540.61	266.82
540.78	306.61
540.95	271.50
541.12	332.36
541.29	318.31
541.46	411.93
541.62	332.36
541.79	299.59
541.96	259.80
542.13	313.63
542.30	313.63
542.47	388.53
542.63	241.08
542.80	236.39
542.97	264.48
543.14	320.65
543.31	395.55
543.48	341.72
543.64	414.27
543.81	418.96
543.98	325.33
544.15	283.20
544.32	402.57
544.48	344.06
544.65	411.93
544.82	308.95
544.99	360.44
545.16	264.48
545.32	362.78
545.49	348.74
545.66	416.62
545.83	308.95
546.00	325.33
546.16	365.12
546.33	358.10
546.50	360.44
546.67	369.80
546.83	332.36
547.00	290.23
547.17	308.95
547.34	330.02
547.50	308.95
547.67	243.42
547.84	334.70
548.00	367.46
548.17	306.61
548.34	308.95
548.51	416.62
548.67	421.30
548.84	301.93
549.01	346.40
549.18	299.59
549.34	320.65
549.51	304.27
549.68	351.08
549.84	262.14
550.01	308.95
550.18	514.92
550.34	430.66
550.51	344.06
550.68	395.55
550.84	315.97
551.01	348.74
551.18	402.57
551.34	325.33
551.51	372.15
551.68	287.89
551.84	383.85
552.01	294.91
552.18	355.76
552.34	367.46
552.51	360.44
552.68	355.76
552.84	299.59
553.01	346.40
553.18	320.65
553.34	320.65
553.51	280.86
553.67	318.31
553.84	397.89
554.01	386.19
554.17	332.36
554.34	341.72
554.51	351.08
554.67	388.53
554.84	358.10
555.00	355.76
555.17	360.44
555.33	315.97
555.50	346.40
555.67	355.76
555.83	311.29
556.00	339.38
556.16	531.30
556.33	334.70
556.50	395.55
556.66	290.23
556.83	362.78
556.99	280.86
557.16	325.33
557.32	367.46
557.49	416.62
557.65	248.10
557.82	285.55
557.98	306.61
558.15	339.38
558.32	325.33
558.48	280.86
558.65	308.95
558.81	334.70
558.98	292.57
559.14	330.02
559.31	301.93
559.47	306.61
559.64	341.72
559.80	313.63
559.97	308.95
560.13	248.10
560.30	386.19
560.46	229.37
560.63	397.89
560.79	442.36
560.96	276.18
561.12	330.02
561.29	325.33
561.45	355.76
561.61	283.20
561.78	463.43
561.94	341.72
562.11	369.80
562.27	290.23
562.44	301.93
562.60	407.25
562.77	414.27
562.93	440.02
563.10	322.99
563.26	299.59
563.42	327.68
563.59	358.10
563.75	407.25
563.92	362.78
564.08	306.61
564.24	313.63
564.41	395.55
564.57	330.02
564.74	330.02
564.90	334.70
565.07	393.21
565.23	351.08
565.39	360.44
565.56	318.31
565.72	372.15
565.88	301.93
566.05	292.57
566.21	301.93
566.38	318.31
566.54	292.57
566.70	304.27
566.87	266.82
567.03	299.59
567.19	306.61
567.36	299.59
567.52	348.74
567.68	348.74
567.85	348.74
568.01	304.27
568.17	297.25
568.34	255.12
568.50	318.31
568.66	248.10
568.83	386.19
568.99	353.42
569.15	390.87
569.32	273.84
569.48	308.95
569.64	285.55
569.81	287.89
569.97	306.61
570.13	360.44
570.30	250.44
570.46	224.69
570.62	318.31
570.78	315.97
570.95	250.44
571.11	330.02
571.27	325.33
571.43	339.38
571.60	313.63
571.76	362.78
571.92	325.33
572.09	320.65
572.25	339.38
572.41	388.53
572.57	299.59
572.74	472.79
572.90	327.68
573.06	276.18
573.22	407.25
573.38	386.19
573.55	304.27
573.71	449.38
573.87	290.23
574.03	266.82
574.20	327.68
574.36	346.40
574.52	259.80
574.68	236.39
574.84	252.78
575.01	238.73
575.17	304.27
575.33	161.50
575.49	325.33
575.65	304.27
575.82	332.36
575.98	386.19
576.14	285.55
576.30	409.59
576.46	297.25
576.62	372.15
576.79	320.65
576.95	376.83
577.11	210.65
577.27	311.29
577.43	353.42
577.59	271.50
577.75	346.40
577.92	285.55
578.08	325.33
578.24	269.16
578.40	294.91
578.56	283.20
578.72	360.44
578.88	341.72
579.04	339.38
579.21	425.98
579.37	287.89
579.53	337.04
579.69	358.10
579.85	180.22
580.01	337.04
580.17	196.60
580.33	311.29
580.49	341.72
580.65	325.33
580.82	390.87
580.98	276.18
581.14	266.82
581.30	276.18
581.46	224.69
581.62	318.31
581.78	285.55
581.94	367.46
582.10	273.84
582.26	290.23
582.42	264.48
582.58	297.25
582.74	301.93
582.90	344.06
583.06	397.89
583.22	360.44
583.38	306.61
583.54	273.84
583.70	325.33
583.86	290.23
584.02	292.57
584.18	299.59
584.34	374.49
584.50	266.82
584.66	330.02
584.82	301.93
584.98	325.33
585.14	285.55
585.30	360.44
585.46	304.27
585.62	285.55
585.78	383.85
585.94	243.42
586.10	355.76
586.26	344.06
586.42	325.33
586.58	294.91
586.74	308.95
586.90	409.59
587.06	266.82
587.22	369.80
587.38	208.31
587.54	203.63
587.70	332.36
587.86	297.25
588.02	273.84
588.18	245.76
588.34	255.12
588.49	173.20
588.65	315.97
588.81	227.03
588.97	217.67
589.13	227.03
589.29	271.50
589.45	250.44
589.61	262.14
589.77	339.38
589.93	292.57
590.08	372.15
590.24	271.50
590.40	234.05
590.56	344.06
590.72	283.20
590.88	255.12
591.04	306.61
591.20	245.76
591.35	264.48
591.51	229.37
591.67	229.37
591.83	194.26
591.99	341.72
592.15	297.25
592.31	308.95
592.46	264.48
592.62	243.42
592.78	311.29
592.94	266.82
593.10	224.69
593.26	271.50
593.41	264.48
593.57	229.37
593.73	278.52
593.89	271.50
594.05	173.20
594.20	238.73
594.36	301.93
594.52	231.71
594.68	255.12
594.84	262.14
594.99	315.97
595.15	294.91
595.31	220.01
595.47	360.44
595.62	311.29
595.78	280.86
595.94	297.25
596.10	280.86
596.25	285.55
596.41	315.97
596.57	355.76
596.73	304.27
596.88	341.72
597.04	332.36
597.20	208.31
597.36	266.82
597.51	215.33
597.67	250.44
597.83	271.50
597.99	325.33
598.14	271.50
598.30	334.70
598.46	168.52
598.61	273.84
598.77	355.76
598.93	238.73
599.09	264.48
599.24	332.36
599.40	360.44
599.56	386.19
599.71	180.22
599.87	280.86
600.03	297.25
600.18	264.48
600.34	341.72
600.50	278.52
600.65	266.82
600.81	334.70
600.97	255.12
601.12	311.29
601.28	290.23
601.44	241.08
601.59	304.27
601.75	304.27
601.91	257.46
602.06	287.89
602.22	341.72
602.37	215.33
602.53	243.42
602.69	334.70
602.84	280.86
603.00	245.76
603.16	262.14
603.31	320.65
603.47	313.63
603.62	217.67
603.78	262.14
603.94	262.14
604.09	346.40
604.25	299.59
604.40	287.89
604.56	269.16
604.71	262.14
604.87	217.67
605.03	215.33
605.18	166.18
605.34	294.91
605.49	231.71
605.65	222.35
605.80	156.82
605.96	283.20
606.12	217.67
606.27	276.18
606.43	262.14
606.58	290.23
606.74	306.61
606.89	304.27
607.05	264.48
607.20	290.23
607.36	238.73
607.51	241.08
607.67	283.20
607.82	273.84
607.98	386.19
608.13	327.68
608.29	229.37
608.44	292.57
608.60	315.97
608.75	287.89
608.91	308.95
609.06	236.39
609.22	203.63
609.37	234.05
609.53	229.37
609.68	283.20
609.84	201.29
609.99	259.80
610.15	229.37
610.30	210.65
610.46	285.55
610.61	166.18
610.76	318.31
610.92	290.23
611.07	259.80
611.23	297.25
611.38	315.97
611.54	252.78
611.69	205.97
611.84	210.65
612.00	203.63
612.15	292.57
612.31	194.26
612.46	208.31
612.62	180.22
612.77	234.05
612.92	210.65
613.08	220.01
613.23	194.26
613.39	177.88
613.54	133.41
613.69	145.11
613.85	212.99
614.00	154.48
614.15	217.67
614.31	229.37
614.46	280.86
614.62	255.12
614.77	283.20
614.92	196.60
615.08	278.52
615.23	297.25
615.38	142.77
615.54	163.84
615.69	194.26
615.84	163.84
616.00	159.16
616.15	229.37
616.30	222.35
616.46	159.16
616.61	149.79
616.76	269.16
616.92	189.58
617.07	187.24
617.22	149.79
617.37	241.08
617.53	227.03
617.68	241.08
617.83	252.78
617.99	334.70
618.14	187.24
618.29	280.86
618.45	145.11
618.60	208.31
618.75	189.58
618.90	168.52
619.06	236.39
619.21	229.37
619.36	283.20
619.51	203.63
619.67	208.31
619.82	224.69
619.97	217.67
620.12	196.60
620.28	222.35
620.43	161.50
620.58	245.76
620.73	217.67
620.89	203.63
621.04	285.55
621.19	252.78
621.34	194.26
621.49	114.69
621.65	236.39
621.80	140.43
621.95	187.24
622.10	234.05
622.25	131.07
622.41	93.62
622.56	238.73
622.71	147.45
622.86	299.59
623.01	201.29
623.16	205.97
623.32	147.45
623.47	131.07
623.62	152.13
623.77	161.50
623.92	154.48
624.07	124.05
624.23	187.24
624.38	184.90
624.53	252.78
624.68	182.56
624.83	168.52
624.98	215.33
625.13	163.84
625.29	117.03
625.44	88.94
625.59	142.77
625.74	224.69
625.89	299.59
626.04	140.43
626.19	184.90
626.34	149.79
626.49	238.73
626.65	189.58
626.80	131.07
626.95	168.52
627.10	166.18
627.25	318.31
627.40	175.54
627.55	149.79
627.70	135.75
627.85	145.11
628.00	131.07
628.15	93.62
628.30	194.26
628.45	173.20
628.60	154.48
628.76	243.42
628.91	198.95
629.06	131.07
629.21	145.11
629.36	215.33
629.51	182.56
629.66	227.03
629.81	159.16
629.96	220.01
630.11	231.71
630.26	238.73
630.41	152.13
630.56	170.86
630.71	84.26
630.86	145.11
631.01	147.45
631.16	173.20
631.31	283.20
631.46	194.26
631.61	124.05
631.76	241.08
631.91	133.41
632.06	117.03
632.21	217.67
632.36	203.63
632.51	131.07
632.66	191.92
632.81	161.50
632.96	180.22
633.10	156.82
633.25	208.31
633.40	110.01
633.55	182.56
633.70	154.48
633.85	170.86
634.00	203.63
634.15	145.11
634.30	173.20
634.45	102.98
634.60	138.09
634.75	67.88
634.90	140.43
635.05	182.56
635.19	154.48
635.34	163.84
635.49	210.65
635.64	135.75
635.79	159.16
635.94	166.18
636.09	140.43
636.24	53.83
636.39	98.30
636.53	175.54
636.68	161.50
636.83	250.44
636.98	208.31
637.13	63.19
637.28	145.11
637.43	175.54
637.57	184.90
637.72	262.14
637.87	88.94
638.02	121.71
638.17	65.54
638.32	229.37
638.46	81.92
638.61	203.63
638.76	196.60
638.91	95.96
639.06	140.43
639.20	227.03
639.35	215.33
639.50	105.32
639.65	203.63
639.80	121.71
639.94	154.48
640.09	205.97
640.24	198.95
640.39	128.73
640.54	124.05
640.68	135.75
640.83	142.77
640.98	220.01
641.13	184.90
641.27	163.84
641.42	60.85
641.57	159.16
641.72	147.45
641.86	72.56
642.01	53.83
642.16	201.29
642.31	124.05
642.45	154.48
642.60	201.29
642.75	147.45
642.90	217.67
643.04	77.24
643.19	112.35
643.34	161.50
643.48	168.52
643.63	79.58
643.78	203.63
643.93	149.79
644.07	126.39
644.22	121.71
644.37	149.79
644.51	140.43
644.66	163.84
644.81	84.26
644.95	194.26
645.10	51.49
645.25	51.49
645.39	163.84
645.54	135.75
645.69	154.48
645.83	49.15
645.98	163.84
646.13	100.64
646.27	194.26
646.42	154.48
646.57	208.31
646.71	184.90
646.86	51.49
647.00	28.09
647.15	112.35
647.30	110.01
647.44	72.56
647.59	86.60
647.74	135.75
647.88	128.73
648.03	39.79
648.17	121.71
648.32	98.30
648.47	65.54
648.61	107.66
648.76	70.22
648.90	102.98
649.05	53.83
649.20	98.30
649.34	0.00
649.49	119.37
649.63	39.79
649.78	140.43
649.92	93.62
650.07	166.18
650.21	86.60
650.36	110.01
650.51	126.39
650.65	74.90
650.80	102.98
650.94	131.07
651.09	58.51
651.23	70.22
651.38	95.96
651.52	142.77
651.67	93.62
651.81	100.64
651.96	110.01
652.10	145.11
652.25	138.09
652.39	131.07
652.54	156.82
652.68	77.24
652.83	37.45
652.97	86.60
653.12	177.88
653.26	81.92
653.41	161.50
653.55	163.84
653.70	117.03
653.84	84.26
653.99	105.32
654.13	77.24
654.27	72.56
654.42	112.35
654.56	84.26
654.71	93.62
654.85	49.15
655.00	67.88
655.14	121.71
655.29	107.66
655.43	107.66
655.57	72.56
655.72	100.64
655.86	44.47
656.01	58.51
656.15	44.47
656.30	124.05
656.44	49.15
656.58	32.77
656.73	58.51
656.87	84.26
657.01	86.60
657.16	121.71
657.30	138.09
657.45	124.05
657.59	81.92
657.73	91.28
657.88	65.54
658.02	208.31
658.16	126.39
658.31	161.50
658.45	93.62
658.60	18.72
658.74	128.73
658.88	81.92
659.03	95.96
659.17	44.47
659.31	53.83
659.46	156.82
659.60	84.26
659.74	86.60
659.89	105.32
660.03	100.64
660.17	196.60
660.32	112.35
660.46	77.24
660.60	152.13
660.74	105.32
660.89	131.07
661.03	98.30
661.17	81.92
661.32	86.60
661.46	138.09
661.60	39.79
661.74	154.48
661.89	145.11
662.03	100.64
662.17	49.15
662.31	72.56
662.46	81.92
662.60	114.69
662.74	81.92
662.88	11.70
663.03	9.36
663.17	23.41
663.31	70.22
663.45	81.92
663.60	16.38
663.74	72.56
663.88	16.38
664.02	135.75
664.17	42.13
664.31	58.51
664.45	37.45
664.59	56.17
664.73	88.94
664.88	93.62
665.02	42.13
665.16	149.79
665.30	152.13
665.44	74.90
665.59	98.30
665.73	37.45
665.87	56.17
666.01	39.79
666.15	93.62
666.29	58.51
666.44	63.19
666.58	124.05
666.72	0.00
666.86	32.77
667.00	84.26
667.14	53.83
667.28	124.05
667.43	53.83
667.57	88.94
667.71	105.32
667.85	121.71
667.99	18.72
668.13	7.02
668.27	110.01
668.41	91.28
668.56	65.54
668.70	67.88
668.84	88.94
668.98	79.58
669.12	30.43
669.26	79.58
669.40	119.37
669.54	86.60
669.68	119.37
669.82	35.11
669.96	37.45
670.10	37.45
670.25	67.88
670.39	60.85
670.53	23.41
670.67	0.00
670.81	25.75
670.95	74.90
671.09	0.00
671.23	7.02
671.37	53.83
671.51	114.69
671.65	11.70
671.79	0.00
671.93	70.22
672.07	63.19
672.21	100.64
672.35	39.79
672.49	65.54
672.63	0.00
672.77	67.88
672.91	63.19
673.05	56.17
673.19	0.00
673.33	4.68
673.47	95.96
673.61	67.88
673.75	0.00
673.89	0.00
674.03	9.36
674.17	0.00
674.31	58.51
674.45	105.32
674.59	93.62
674.73	74.90
674.87	86.60
675.01	70.22
675.15	51.49
675.29	16.38
675.43	91.28
675.56	84.26
675.70	98.30
675.84	30.43
675.98	0.00
676.12	0.00
676.26	0.00
676.40	32.77
676.54	58.51
676.68	0.00
676.82	51.49
676.96	49.15
677.10	18.72
677.23	0.00
677.37	56.17
677.51	44.47
677.65	79.58
677.79	0.00
677.93	0.00
678.07	56.17
678.21	44.47
678.34	0.00
678.48	0.00
678.62	11.70
678.76	0.00
678.90	0.00
679.04	11.70
679.18	0.00
679.31	0.00
679.45	0.00
679.59	7.02
679.73	70.22
679.87	0.00
680.00	63.19
680.14	18.72
680.28	60.85
680.42	0.00
680.56	0.00
680.70	0.00
680.83	0.00
680.97	0.00
681.11	0.00
681.25	42.13
681.39	0.00
681.52	0.00
681.66	0.00
681.80	28.09
681.94	0.00
682.07	88.94
682.21	0.00
682.35	11.70
682.49	0.00
682.62	0.00
682.76	0.00
682.90	0.00
683.04	11.70
683.17	0.00
683.31	0.00
683.45	35.11
683.59	0.00
683.72	21.06
683.86	0.00
684.00	0.00
684.13	42.13
684.27	25.75
684.41	25.75
684.55	0.00
684.68	0.00
684.82	14.04
684.96	0.00
685.09	0.00
685.23	0.00
685.37	2.34
685.50	0.00
685.64	2.34
685.78	0.00
685.91	0.00
686.05	0.00
686.19	0.00
686.32	0.00
686.46	0.00
686.60	0.00
686.73	0.00
686.87	0.00
687.01	0.00
687.14	0.00
687.28	0.00
687.42	0.00
687.55	0.00
687.69	0.00
687.82	0.00
687.96	0.00
688.10	0.00
688.23	0.00
688.37	0.00
688.50	0.00
688.64	4.68
688.78	0.00
688.91	0.00
689.05	0.00
689.18	0.00
689.32	0.00
689.46	0.00
689.59	0.00
689.73	0.00
689.86	0.00
690.00	0.00
690.13	0.00
690.27	0.00
690.41	0.00
690.54	49.15
690.68	0.00
690.81	0.00
690.95	0.00
691.08	0.00
691.22	0.00
691.35	0.00
691.49	0.00
691.62	4.68
691.76	0.00
691.89	0.00
692.03	0.00
692.16	0.00
692.30	0.00
692.43	0.00
692.57	0.00
692.70	0.00
692.84	0.00
692.97	0.00
693.11	0.00
693.24	0.00
693.38	0.00
693.51	0.00
693.65	0.00
693.78	0.00
693.92	0.00
694.05	0.00
694.19	0.00
694.32	0.00
694.45	0.00
694.59	0.00
694.72	0.00
694.86	0.00
694.99	0.00
695.13	0.00
695.26	0.00
695.39	0.00
695.53	0.00
695.66	0.00
695.80	0.00
695.93	0.00
696.07	0.00
696.20	0.00
696.33	0.00
696.47	0.00
696.60	0.00
696.73	0.00
696.87	0.00
697.00	0.00
697.14	0.00
697.27	0.00
697.40	0.00
697.54	0.00
697.67	0.00
697.80	0.00
697.94	0.00
698.07	0.00
698.21	0.00
698.34	0.00
698.47	0.00
698.61	0.00
698.74	0.00
698.87	0.00
699.01	0.00
699.14	0.00
699.27	0.00
699.40	25.75
699.54	0.00
699.67	0.00
699.80	0.00
699.94	0.00
700.07	0.00
700.20	0.00
700.34	0.00
700.47	0.00
700.60	0.00
700.73	0.00
700.87	0.00
701.00	0.00
701.13	0.00
701.26	0.00
701.40	0.00
701.53	0.00
701.66	0.00
701.79	0.00
701.93	0.00
702.06	0.00
702.19	0.00
702.32	0.00
702.46	0.00
702.59	0.00
702.72	0.00
702.85	0.00
702.99	0.00
703.12	0.00
703.25	0.00
703.38	0.00
703.51	0.00
703.65	0.00
703.78	0.00
703.91	0.00
704.04	0.00
704.17	0.00
704.31	0.00
704.44	0.00
704.57	0.00
704.70	0.00
704.83	0.00
704.96	0.00
705.10	0.00
705.23	0.00
>>>>>End Processed Spectral Data<<<<<
