SpectraSuite Data File
++++++++++++++++++++++++++++++++++++
Date: Mon Oct 07 14:59:58 GMT-05:00 2013
User: price-jones
Dark Spectrum Present: No
Reference Spectrum Present: No
Number of Sampled Component Spectra: 1
Spectrometers: USB2+H05261
Integration Time (usec): 100000 (USB2+H05261)
Spectra Averaged: 1 (USB2+H05261)
Boxcar Smoothing: 0 (USB2+H05261)
Correct for Electrical Dark: No (USB2+H05261)
Strobe/Lamp Enabled: No (USB2+H05261)
Correct for Detector Non-linearity: No (USB2+H05261)
Correct for Stray Light: No (USB2+H05261)
Number of Pixels in Processed Spectrum: 2048
>>>>>Begin Processed Spectral Data<<<<<
365.73	0.00
365.92	0.00
366.12	0.00
366.32	0.00
366.52	0.00
366.72	0.00
366.91	0.00
367.11	0.00
367.31	0.00
367.51	0.00
367.70	0.00
367.90	0.00
368.10	0.00
368.30	0.00
368.49	0.00
368.69	0.00
368.89	0.00
369.09	0.00
369.28	0.00
369.48	0.00
369.68	0.00
369.87	0.00
370.07	0.00
370.27	0.00
370.47	0.00
370.66	0.00
370.86	0.00
371.06	0.00
371.25	0.00
371.45	0.00
371.65	0.00
371.84	0.00
372.04	0.00
372.24	0.00
372.44	0.00
372.63	0.00
372.83	0.00
373.03	0.00
373.22	0.00
373.42	0.00
373.62	0.00
373.81	0.00
374.01	0.00
374.21	0.00
374.40	0.00
374.60	0.00
374.79	0.00
374.99	0.00
375.19	0.00
375.38	0.00
375.58	0.00
375.78	0.00
375.97	0.00
376.17	0.00
376.37	0.00
376.56	0.00
376.76	0.00
376.95	0.00
377.15	0.00
377.35	0.00
377.54	0.00
377.74	0.00
377.93	0.00
378.13	0.00
378.33	0.00
378.52	0.00
378.72	0.00
378.91	0.00
379.11	0.00
379.31	0.00
379.50	0.00
379.70	0.00
379.89	0.00
380.09	0.00
380.28	0.00
380.48	0.00
380.68	0.00
380.87	0.00
381.07	0.00
381.26	0.00
381.46	0.00
381.65	0.00
381.85	0.00
382.04	0.00
382.24	0.00
382.43	0.00
382.63	0.00
382.83	0.00
383.02	0.00
383.22	0.00
383.41	0.00
383.61	0.00
383.80	0.00
384.00	0.00
384.19	0.00
384.39	0.00
384.58	0.00
384.78	0.00
384.97	0.00
385.17	0.00
385.36	0.00
385.56	0.00
385.75	0.00
385.95	0.00
386.14	0.00
386.34	0.00
386.53	0.00
386.72	0.00
386.92	0.00
387.11	0.00
387.31	0.00
387.50	0.00
387.70	0.00
387.89	0.00
388.09	0.00
388.28	0.00
388.48	0.00
388.67	0.00
388.86	0.00
389.06	0.00
389.25	0.00
389.45	0.00
389.64	0.00
389.84	0.00
390.03	0.00
390.22	0.00
390.42	0.00
390.61	0.00
390.81	0.00
391.00	0.00
391.19	0.00
391.39	0.00
391.58	0.00
391.78	0.00
391.97	0.00
392.16	0.00
392.36	0.00
392.55	0.00
392.75	0.00
392.94	0.00
393.13	0.00
393.33	0.00
393.52	0.00
393.71	0.00
393.91	0.00
394.10	0.00
394.29	0.00
394.49	0.00
394.68	0.00
394.88	0.00
395.07	0.00
395.26	0.00
395.46	0.00
395.65	0.00
395.84	0.00
396.04	0.00
396.23	0.00
396.42	0.00
396.62	0.00
396.81	0.00
397.00	0.00
397.19	0.00
397.39	0.00
397.58	0.00
397.77	0.00
397.97	0.00
398.16	0.00
398.35	0.00
398.55	0.00
398.74	0.00
398.93	0.00
399.12	0.00
399.32	0.00
399.51	0.00
399.70	0.00
399.90	0.00
400.09	0.00
400.28	0.00
400.47	0.00
400.67	0.00
400.86	0.00
401.05	0.00
401.24	0.00
401.44	0.00
401.63	0.00
401.82	0.00
402.01	0.00
402.21	0.00
402.40	0.00
402.59	0.00
402.78	0.00
402.97	0.00
403.17	0.00
403.36	0.00
403.55	0.00
403.74	0.00
403.93	0.00
404.13	0.00
404.32	0.00
404.51	0.00
404.70	0.00
404.89	0.00
405.09	0.00
405.28	0.00
405.47	0.00
405.66	0.00
405.85	0.00
406.05	0.00
406.24	0.00
406.43	0.00
406.62	0.00
406.81	0.00
407.00	0.00
407.20	0.00
407.39	0.00
407.58	0.00
407.77	0.00
407.96	0.00
408.15	0.00
408.34	0.00
408.54	0.00
408.73	0.00
408.92	0.00
409.11	0.00
409.30	0.00
409.49	0.00
409.68	0.00
409.87	0.00
410.07	0.00
410.26	0.00
410.45	0.00
410.64	0.00
410.83	0.00
411.02	0.00
411.21	0.00
411.40	0.00
411.59	0.00
411.78	0.00
411.98	0.00
412.17	0.00
412.36	0.00
412.55	0.00
412.74	0.00
412.93	0.00
413.12	0.00
413.31	0.00
413.50	0.00
413.69	0.00
413.88	0.00
414.07	0.00
414.26	0.00
414.45	0.00
414.64	0.00
414.83	0.00
415.02	0.00
415.22	0.00
415.41	0.00
415.60	0.00
415.79	0.00
415.98	0.00
416.17	0.00
416.36	0.00
416.55	0.00
416.74	0.00
416.93	0.00
417.12	0.00
417.31	0.00
417.50	0.00
417.69	0.00
417.88	0.00
418.07	0.00
418.26	0.00
418.45	0.00
418.64	0.00
418.83	0.00
419.02	0.00
419.21	0.00
419.39	0.00
419.58	0.00
419.77	0.00
419.96	0.00
420.15	0.00
420.34	0.00
420.53	0.00
420.72	0.00
420.91	0.00
421.10	0.00
421.29	0.00
421.48	0.00
421.67	0.00
421.86	0.00
422.05	0.00
422.24	0.00
422.43	0.00
422.61	0.00
422.80	0.00
422.99	0.00
423.18	0.00
423.37	0.00
423.56	0.00
423.75	0.00
423.94	0.00
424.13	0.00
424.32	0.00
424.50	0.00
424.69	0.00
424.88	0.00
425.07	0.00
425.26	0.00
425.45	0.00
425.64	0.00
425.83	0.00
426.01	0.00
426.20	0.00
426.39	0.00
426.58	0.00
426.77	0.00
426.96	0.00
427.15	0.00
427.33	0.00
427.52	0.00
427.71	0.00
427.90	0.00
428.09	0.00
428.28	0.00
428.46	0.00
428.65	0.00
428.84	0.00
429.03	0.00
429.22	0.00
429.40	0.00
429.59	0.00
429.78	0.00
429.97	0.00
430.16	0.00
430.34	0.00
430.53	0.00
430.72	0.00
430.91	0.00
431.10	0.00
431.28	0.00
431.47	0.00
431.66	0.00
431.85	0.00
432.03	0.00
432.22	0.00
432.41	0.00
432.60	0.00
432.79	0.00
432.97	0.00
433.16	0.00
433.35	0.00
433.54	0.00
433.72	0.00
433.91	0.00
434.10	0.00
434.28	0.00
434.47	0.00
434.66	0.00
434.85	0.00
435.03	0.00
435.22	0.00
435.41	0.00
435.59	0.00
435.78	0.00
435.97	0.00
436.16	0.00
436.34	0.00
436.53	0.00
436.72	0.00
436.90	0.00
437.09	0.00
437.28	0.00
437.46	0.00
437.65	0.00
437.84	0.00
438.02	0.00
438.21	0.00
438.40	0.00
438.58	0.00
438.77	0.00
438.96	0.00
439.14	0.00
439.33	0.00
439.52	0.00
439.70	0.00
439.89	0.00
440.08	0.00
440.26	0.00
440.45	0.00
440.63	0.00
440.82	0.00
441.01	0.00
441.19	0.00
441.38	0.00
441.57	0.00
441.75	25.75
441.94	23.41
442.12	0.00
442.31	0.00
442.50	0.00
442.68	0.00
442.87	0.00
443.05	0.00
443.24	0.00
443.43	0.00
443.61	0.00
443.80	0.00
443.98	0.00
444.17	0.00
444.35	0.00
444.54	0.00
444.73	0.00
444.91	0.00
445.10	0.00
445.28	0.00
445.47	0.00
445.65	0.00
445.84	0.00
446.02	0.00
446.21	0.00
446.39	0.00
446.58	0.00
446.77	2.34
446.95	0.00
447.14	4.68
447.32	16.38
447.51	0.00
447.69	0.00
447.88	0.00
448.06	0.00
448.25	0.00
448.43	0.00
448.62	0.00
448.80	0.00
448.99	4.68
449.17	0.00
449.36	0.00
449.54	0.00
449.73	0.00
449.91	30.43
450.10	9.36
450.28	0.00
450.46	0.00
450.65	0.00
450.83	0.00
451.02	0.00
451.20	0.00
451.39	0.00
451.57	11.70
451.76	0.00
451.94	0.00
452.13	0.00
452.31	16.38
452.49	0.00
452.68	0.00
452.86	0.00
453.05	0.00
453.23	0.00
453.42	0.00
453.60	14.04
453.78	0.00
453.97	0.00
454.15	0.00
454.34	0.00
454.52	0.00
454.70	7.02
454.89	0.00
455.07	0.00
455.26	0.00
455.44	0.00
455.62	0.00
455.81	0.00
455.99	0.00
456.17	21.06
456.36	0.00
456.54	0.00
456.73	0.00
456.91	0.00
457.09	0.00
457.28	0.00
457.46	0.00
457.64	0.00
457.83	0.00
458.01	0.00
458.19	39.79
458.38	0.00
458.56	9.36
458.74	0.00
458.93	49.15
459.11	114.69
459.29	0.00
459.48	0.00
459.66	16.38
459.84	0.00
460.03	32.77
460.21	0.00
460.39	0.00
460.57	0.00
460.76	18.72
460.94	0.00
461.12	16.38
461.31	9.36
461.49	9.36
461.67	0.00
461.85	0.00
462.04	0.00
462.22	543.00
462.40	0.00
462.59	0.00
462.77	0.00
462.95	0.00
463.13	0.00
463.32	18.72
463.50	72.56
463.68	42.13
463.86	4.68
464.05	0.00
464.23	0.00
464.41	0.00
464.59	0.00
464.78	0.00
464.96	0.00
465.14	0.00
465.32	0.00
465.50	9.36
465.69	0.00
465.87	0.00
466.05	0.00
466.23	0.00
466.41	0.00
466.60	0.00
466.78	18.72
466.96	46.81
467.14	0.00
467.32	0.00
467.51	100.64
467.69	0.00
467.87	0.00
468.05	0.00
468.23	44.47
468.41	0.00
468.60	0.00
468.78	0.00
468.96	0.00
469.14	4.68
469.32	0.00
469.50	0.00
469.69	0.00
469.87	0.00
470.05	25.75
470.23	0.00
470.41	4.68
470.59	0.00
470.77	0.00
470.95	0.00
471.14	53.83
471.32	0.00
471.50	0.00
471.68	0.00
471.86	32.77
472.04	23.41
472.22	100.64
472.40	0.00
472.58	0.00
472.77	4.68
472.95	28.09
473.13	53.83
473.31	4.68
473.49	0.00
473.67	0.00
473.85	79.58
474.03	9.36
474.21	0.00
474.39	11.70
474.57	100.64
474.75	0.00
474.93	0.00
475.12	0.00
475.30	0.00
475.48	0.00
475.66	0.00
475.84	0.00
476.02	0.00
476.20	32.77
476.38	0.00
476.56	140.43
476.74	0.00
476.92	2.34
477.10	0.00
477.28	44.47
477.46	0.00
477.64	72.56
477.82	39.79
478.00	74.90
478.18	65.54
478.36	58.51
478.54	72.56
478.72	28.09
478.90	32.77
479.08	58.51
479.26	95.96
479.44	86.60
479.62	21.06
479.80	0.00
479.98	0.00
480.16	0.00
480.34	98.30
480.52	86.60
480.70	21.06
480.88	16.38
481.06	74.90
481.24	7.02
481.41	32.77
481.59	126.39
481.77	77.24
481.95	72.56
482.13	159.16
482.31	37.45
482.49	21.06
482.67	58.51
482.85	63.19
483.03	107.66
483.21	91.28
483.39	7.02
483.57	102.98
483.74	46.81
483.92	102.98
484.10	23.41
484.28	67.88
484.46	163.84
484.64	74.90
484.82	98.30
485.00	25.75
485.18	70.22
485.35	74.90
485.53	0.00
485.71	0.00
485.89	0.00
486.07	49.15
486.25	88.94
486.43	60.85
486.61	32.77
486.78	114.69
486.96	9.36
487.14	46.81
487.32	28.09
487.50	152.13
487.68	112.35
487.85	110.01
488.03	81.92
488.21	72.56
488.39	77.24
488.57	84.26
488.75	131.07
488.92	451.72
489.10	149.79
489.28	126.39
489.46	84.26
489.64	72.56
489.81	117.03
489.99	152.13
490.17	53.83
490.35	180.22
490.53	77.24
490.70	65.54
490.88	142.77
491.06	210.65
491.24	126.39
491.41	196.60
491.59	32.77
491.77	35.11
491.95	67.88
492.13	110.01
492.30	124.05
492.48	107.66
492.66	264.48
492.84	142.77
493.01	163.84
493.19	112.35
493.37	177.88
493.54	250.44
493.72	177.88
493.90	121.71
494.08	159.16
494.25	142.77
494.43	140.43
494.61	131.07
494.79	128.73
494.96	210.65
495.14	196.60
495.32	126.39
495.49	117.03
495.67	149.79
495.85	163.84
496.02	184.90
496.20	278.52
496.38	283.20
496.55	191.92
496.73	259.80
496.91	138.09
497.09	208.31
497.26	212.99
497.44	198.95
497.62	114.69
497.79	142.77
497.97	224.69
498.14	72.56
498.32	217.67
498.50	208.31
498.67	126.39
498.85	140.43
499.03	163.84
499.20	283.20
499.38	241.08
499.56	168.52
499.73	180.22
499.91	184.90
500.08	133.41
500.26	131.07
500.44	189.58
500.61	269.16
500.79	159.16
500.97	180.22
501.14	299.59
501.32	276.18
501.49	264.48
501.67	177.88
501.84	138.09
502.02	290.23
502.20	203.63
502.37	238.73
502.55	149.79
502.72	210.65
502.90	304.27
503.07	280.86
503.25	194.26
503.43	166.18
503.60	215.33
503.78	196.60
503.95	177.88
504.13	184.90
504.30	250.44
504.48	236.39
504.65	212.99
504.83	234.05
505.01	234.05
505.18	184.90
505.36	248.10
505.53	168.52
505.71	252.78
505.88	203.63
506.06	205.97
506.23	285.55
506.41	220.01
506.58	266.82
506.76	243.42
506.93	198.95
507.11	243.42
507.28	248.10
507.46	138.09
507.63	273.84
507.81	191.92
507.98	168.52
508.16	264.48
508.33	248.10
508.50	196.60
508.68	236.39
508.85	276.18
509.03	299.59
509.20	252.78
509.38	273.84
509.55	212.99
509.73	229.37
509.90	327.68
510.08	353.42
510.25	299.59
510.42	262.14
510.60	198.95
510.77	266.82
510.95	322.99
511.12	180.22
511.30	278.52
511.47	299.59
511.64	365.12
511.82	283.20
511.99	269.16
512.17	231.71
512.34	224.69
512.51	241.08
512.69	187.24
512.86	369.80
513.04	229.37
513.21	269.16
513.38	210.65
513.56	255.12
513.73	142.77
513.90	222.35
514.08	187.24
514.25	217.67
514.43	210.65
514.60	301.93
514.77	255.12
514.95	227.03
515.12	372.15
515.29	283.20
515.47	257.46
515.64	234.05
515.81	280.86
515.99	367.46
516.16	215.33
516.33	180.22
516.51	168.52
516.68	100.64
516.85	220.01
517.03	205.97
517.20	245.76
517.37	339.38
517.54	294.91
517.72	212.99
517.89	229.37
518.06	163.84
518.24	283.20
518.41	266.82
518.58	271.50
518.75	191.92
518.93	245.76
519.10	224.69
519.27	184.90
519.45	257.46
519.62	285.55
519.79	257.46
519.96	215.33
520.14	292.57
520.31	269.16
520.48	259.80
520.65	276.18
520.83	278.52
521.00	339.38
521.17	297.25
521.34	236.39
521.52	299.59
521.69	306.61
521.86	297.25
522.03	297.25
522.20	320.65
522.38	208.31
522.55	308.95
522.72	208.31
522.89	269.16
523.07	381.51
523.24	339.38
523.41	292.57
523.58	393.21
523.75	238.73
523.92	332.36
524.10	313.63
524.27	332.36
524.44	283.20
524.61	423.64
524.78	301.93
524.96	365.12
525.13	313.63
525.30	374.49
525.47	299.59
525.64	290.23
525.81	269.16
525.98	435.34
526.16	264.48
526.33	170.86
526.50	182.56
526.67	210.65
526.84	182.56
527.01	283.20
527.18	248.10
527.36	269.16
527.53	278.52
527.70	292.57
527.87	381.51
528.04	416.62
528.21	266.82
528.38	332.36
528.55	381.51
528.72	376.83
528.89	414.27
529.07	330.02
529.24	313.63
529.41	344.06
529.58	278.52
529.75	330.02
529.92	332.36
530.09	308.95
530.26	348.74
530.43	367.46
530.60	372.15
530.77	287.89
530.94	278.52
531.11	388.53
531.28	311.29
531.46	348.74
531.63	351.08
531.80	322.99
531.97	372.15
532.14	257.46
532.31	283.20
532.48	292.57
532.65	346.40
532.82	320.65
532.99	330.02
533.16	294.91
533.33	348.74
533.50	318.31
533.67	201.29
533.84	301.93
534.01	306.61
534.18	404.91
534.35	283.20
534.52	376.83
534.69	409.59
534.86	339.38
535.03	315.97
535.20	306.61
535.37	372.15
535.54	334.70
535.71	306.61
535.88	407.25
536.05	339.38
536.22	259.80
536.38	285.55
536.55	269.16
536.72	332.36
536.89	276.18
537.06	308.95
537.23	339.38
537.40	287.89
537.57	297.25
537.74	383.85
537.91	365.12
538.08	344.06
538.25	355.76
538.42	301.93
538.59	344.06
538.75	311.29
538.92	330.02
539.09	383.85
539.26	280.86
539.43	358.10
539.60	348.74
539.77	320.65
539.94	327.68
540.11	271.50
540.28	362.78
540.44	369.80
540.61	313.63
540.78	262.14
540.95	262.14
541.12	411.93
541.29	358.10
541.46	486.83
541.62	245.76
541.79	280.86
541.96	325.33
542.13	311.29
542.30	339.38
542.47	372.15
542.63	257.46
542.80	292.57
542.97	311.29
543.14	318.31
543.31	360.44
543.48	341.72
543.64	341.72
543.81	344.06
543.98	306.61
544.15	294.91
544.32	421.30
544.48	367.46
544.65	358.10
544.82	346.40
544.99	306.61
545.16	430.66
545.32	362.78
545.49	393.21
545.66	315.97
545.83	311.29
546.00	374.49
546.16	393.21
546.33	318.31
546.50	318.31
546.67	290.23
546.83	346.40
547.00	360.44
547.17	292.57
547.34	238.73
547.50	308.95
547.67	313.63
547.84	353.42
548.00	416.62
548.17	390.87
548.34	276.18
548.51	374.49
548.67	327.68
548.84	287.89
549.01	402.57
549.18	360.44
549.34	400.23
549.51	348.74
549.68	362.78
549.84	325.33
550.01	229.37
550.18	484.49
550.34	447.04
550.51	334.70
550.68	411.93
550.84	334.70
551.01	341.72
551.18	383.85
551.34	339.38
551.51	306.61
551.68	374.49
551.84	400.23
552.01	330.02
552.18	372.15
552.34	306.61
552.51	334.70
552.68	306.61
552.84	327.68
553.01	374.49
553.18	393.21
553.34	320.65
553.51	344.06
553.67	337.04
553.84	447.04
554.01	292.57
554.17	318.31
554.34	337.04
554.51	294.91
554.67	322.99
554.84	402.57
555.00	372.15
555.17	376.83
555.33	402.57
555.50	341.72
555.67	351.08
555.83	294.91
556.00	285.55
556.16	477.47
556.33	257.46
556.50	425.98
556.66	301.93
556.83	257.46
556.99	315.97
557.16	386.19
557.32	341.72
557.49	290.23
557.65	273.84
557.82	330.02
557.98	280.86
558.15	299.59
558.32	264.48
558.48	264.48
558.65	234.05
558.81	287.89
558.98	334.70
559.14	414.27
559.31	315.97
559.47	346.40
559.64	362.78
559.80	409.59
559.97	348.74
560.13	374.49
560.30	386.19
560.46	351.08
560.63	337.04
560.79	322.99
560.96	322.99
561.12	353.42
561.29	325.33
561.45	365.12
561.61	369.80
561.78	454.06
561.94	266.82
562.11	344.06
562.27	388.53
562.44	379.17
562.60	395.55
562.77	400.23
562.93	409.59
563.10	360.44
563.26	379.17
563.42	339.38
563.59	325.33
563.75	360.44
563.92	367.46
564.08	264.48
564.24	369.80
564.41	362.78
564.57	395.55
564.74	306.61
564.90	318.31
565.07	327.68
565.23	376.83
565.39	245.76
565.56	374.49
565.72	346.40
565.88	283.20
566.05	280.86
566.21	425.98
566.38	245.76
566.54	292.57
566.70	337.04
566.87	339.38
567.03	327.68
567.19	330.02
567.36	369.80
567.52	393.21
567.68	369.80
567.85	234.05
568.01	341.72
568.17	252.78
568.34	217.67
568.50	313.63
568.66	290.23
568.83	322.99
568.99	334.70
569.15	358.10
569.32	276.18
569.48	252.78
569.64	313.63
569.81	327.68
569.97	320.65
570.13	304.27
570.30	297.25
570.46	313.63
570.62	231.71
570.78	222.35
570.95	311.29
571.11	383.85
571.27	330.02
571.43	266.82
571.60	339.38
571.76	318.31
571.92	222.35
572.09	353.42
572.25	337.04
572.41	299.59
572.57	320.65
572.74	386.19
572.90	348.74
573.06	276.18
573.22	278.52
573.38	428.32
573.55	344.06
573.71	330.02
573.87	294.91
574.03	290.23
574.20	306.61
574.36	337.04
574.52	248.10
574.68	304.27
574.84	285.55
575.01	322.99
575.17	255.12
575.33	222.35
575.49	348.74
575.65	318.31
575.82	278.52
575.98	365.12
576.14	318.31
576.30	337.04
576.46	273.84
576.62	294.91
576.79	301.93
576.95	386.19
577.11	294.91
577.27	290.23
577.43	334.70
577.59	400.23
577.75	278.52
577.92	379.17
578.08	311.29
578.24	287.89
578.40	325.33
578.56	365.12
578.72	393.21
578.88	311.29
579.04	290.23
579.21	255.12
579.37	285.55
579.53	318.31
579.69	367.46
579.85	308.95
580.01	341.72
580.17	318.31
580.33	306.61
580.49	411.93
580.65	290.23
580.82	353.42
580.98	301.93
581.14	376.83
581.30	348.74
581.46	325.33
581.62	287.89
581.78	320.65
581.94	325.33
582.10	287.89
582.26	341.72
582.42	306.61
582.58	416.62
582.74	308.95
582.90	390.87
583.06	348.74
583.22	365.12
583.38	259.80
583.54	290.23
583.70	313.63
583.86	327.68
584.02	367.46
584.18	339.38
584.34	287.89
584.50	367.46
584.66	318.31
584.82	308.95
584.98	278.52
585.14	283.20
585.30	365.12
585.46	332.36
585.62	243.42
585.78	262.14
585.94	337.04
586.10	334.70
586.26	278.52
586.42	383.85
586.58	362.78
586.74	355.76
586.90	318.31
587.06	327.68
587.22	304.27
587.38	262.14
587.54	341.72
587.70	290.23
587.86	311.29
588.02	337.04
588.18	358.10
588.34	255.12
588.49	121.71
588.65	276.18
588.81	205.97
588.97	196.60
589.13	187.24
589.29	294.91
589.45	353.42
589.61	234.05
589.77	269.16
589.93	283.20
590.08	257.46
590.24	245.76
590.40	264.48
590.56	313.63
590.72	304.27
590.88	273.84
591.04	273.84
591.20	266.82
591.35	339.38
591.51	315.97
591.67	264.48
591.83	220.01
591.99	339.38
592.15	271.50
592.31	339.38
592.46	299.59
592.62	355.76
592.78	393.21
592.94	250.44
593.10	304.27
593.26	301.93
593.41	318.31
593.57	320.65
593.73	231.71
593.89	269.16
594.05	222.35
594.20	229.37
594.36	325.33
594.52	273.84
594.68	346.40
594.84	365.12
594.99	292.57
595.15	313.63
595.31	252.78
595.47	339.38
595.62	243.42
595.78	161.50
595.94	299.59
596.10	318.31
596.25	264.48
596.41	262.14
596.57	381.51
596.73	250.44
596.88	280.86
597.04	285.55
597.20	294.91
597.36	269.16
597.51	222.35
597.67	322.99
597.83	248.10
597.99	313.63
598.14	313.63
598.30	348.74
598.46	344.06
598.61	372.15
598.77	294.91
598.93	292.57
599.09	264.48
599.24	283.20
599.40	353.42
599.56	287.89
599.71	248.10
599.87	250.44
600.03	238.73
600.18	269.16
600.34	201.29
600.50	266.82
600.65	220.01
600.81	325.33
600.97	266.82
601.12	227.03
601.28	313.63
601.44	257.46
601.59	236.39
601.75	341.72
601.91	252.78
602.06	318.31
602.22	372.15
602.37	266.82
602.53	280.86
602.69	198.95
602.84	276.18
603.00	217.67
603.16	341.72
603.31	304.27
603.47	306.61
603.62	280.86
603.78	285.55
603.94	330.02
604.09	285.55
604.25	278.52
604.40	243.42
604.56	250.44
604.71	287.89
604.87	330.02
605.03	285.55
605.18	255.12
605.34	290.23
605.49	285.55
605.65	245.76
605.80	194.26
605.96	229.37
606.12	205.97
606.27	269.16
606.43	248.10
606.58	386.19
606.74	257.46
606.89	245.76
607.05	257.46
607.20	318.31
607.36	266.82
607.51	205.97
607.67	222.35
607.82	212.99
607.98	273.84
608.13	294.91
608.29	215.33
608.44	308.95
608.60	252.78
608.75	337.04
608.91	259.80
609.06	294.91
609.22	318.31
609.37	201.29
609.53	208.31
609.68	236.39
609.84	257.46
609.99	231.71
610.15	292.57
610.30	243.42
610.46	220.01
610.61	250.44
610.76	238.73
610.92	205.97
611.07	276.18
611.23	409.59
611.38	234.05
611.54	222.35
611.69	257.46
611.84	222.35
612.00	278.52
612.15	264.48
612.31	217.67
612.46	234.05
612.62	173.20
612.77	273.84
612.92	220.01
613.08	341.72
613.23	191.92
613.39	280.86
613.54	184.90
613.69	220.01
613.85	196.60
614.00	168.52
614.15	243.42
614.31	191.92
614.46	297.25
614.62	266.82
614.77	234.05
614.92	224.69
615.08	245.76
615.23	273.84
615.38	327.68
615.54	175.54
615.69	210.65
615.84	142.77
616.00	248.10
616.15	126.39
616.30	234.05
616.46	170.86
616.61	149.79
616.76	313.63
616.92	215.33
617.07	250.44
617.22	177.88
617.37	227.03
617.53	259.80
617.68	191.92
617.83	177.88
617.99	243.42
618.14	227.03
618.29	283.20
618.45	187.24
618.60	294.91
618.75	205.97
618.90	131.07
619.06	313.63
619.21	264.48
619.36	212.99
619.51	220.01
619.67	276.18
619.82	180.22
619.97	250.44
620.12	215.33
620.28	220.01
620.43	217.67
620.58	215.33
620.73	149.79
620.89	222.35
621.04	170.86
621.19	257.46
621.34	308.95
621.49	152.13
621.65	175.54
621.80	170.86
621.95	205.97
622.10	325.33
622.25	124.05
622.41	182.56
622.56	215.33
622.71	205.97
622.86	290.23
623.01	128.73
623.16	252.78
623.32	201.29
623.47	215.33
623.62	126.39
623.77	168.52
623.92	161.50
624.07	191.92
624.23	159.16
624.38	208.31
624.53	184.90
624.68	215.33
624.83	166.18
624.98	147.45
625.13	154.48
625.29	208.31
625.44	187.24
625.59	203.63
625.74	259.80
625.89	145.11
626.04	140.43
626.19	182.56
626.34	194.26
626.49	379.17
626.65	210.65
626.80	156.82
626.95	217.67
627.10	77.24
627.25	208.31
627.40	250.44
627.55	161.50
627.70	149.79
627.85	126.39
628.00	135.75
628.15	194.26
628.30	184.90
628.45	124.05
628.60	154.48
628.76	201.29
628.91	191.92
629.06	231.71
629.21	128.73
629.36	276.18
629.51	168.52
629.66	152.13
629.81	32.77
629.96	203.63
630.11	257.46
630.26	191.92
630.41	100.64
630.56	241.08
630.71	159.16
630.86	4.68
631.01	110.01
631.16	173.20
631.31	154.48
631.46	142.77
631.61	147.45
631.76	184.90
631.91	100.64
632.06	205.97
632.21	133.41
632.36	278.52
632.51	184.90
632.66	128.73
632.81	100.64
632.96	191.92
633.10	147.45
633.25	290.23
633.40	234.05
633.55	147.45
633.70	140.43
633.85	159.16
634.00	156.82
634.15	154.48
634.30	196.60
634.45	175.54
634.60	177.88
634.75	102.98
634.90	161.50
635.05	142.77
635.19	163.84
635.34	128.73
635.49	126.39
635.64	119.37
635.79	86.60
635.94	189.58
636.09	234.05
636.24	180.22
636.39	203.63
636.53	163.84
636.68	93.62
636.83	238.73
636.98	205.97
637.13	152.13
637.28	231.71
637.43	161.50
637.57	182.56
637.72	222.35
637.87	177.88
638.02	93.62
638.17	210.65
638.32	156.82
638.46	252.78
638.61	187.24
638.76	138.09
638.91	166.18
639.06	60.85
639.20	217.67
639.35	241.08
639.50	180.22
639.65	145.11
639.80	63.19
639.94	196.60
640.09	189.58
640.24	198.95
640.39	187.24
640.54	110.01
640.68	191.92
640.83	142.77
640.98	173.20
641.13	196.60
641.27	88.94
641.42	126.39
641.57	203.63
641.72	212.99
641.86	154.48
642.01	102.98
642.16	140.43
642.31	46.81
642.45	259.80
642.60	264.48
642.75	234.05
642.90	196.60
643.04	117.03
643.19	117.03
643.34	102.98
643.48	170.86
643.63	128.73
643.78	166.18
643.93	138.09
644.07	194.26
644.22	145.11
644.37	128.73
644.51	241.08
644.66	154.48
644.81	100.64
644.95	212.99
645.10	65.54
645.25	95.96
645.39	182.56
645.54	77.24
645.69	177.88
645.83	18.72
645.98	215.33
646.13	95.96
646.27	163.84
646.42	98.30
646.57	95.96
646.71	145.11
646.86	14.04
647.00	95.96
647.15	131.07
647.30	53.83
647.44	65.54
647.59	135.75
647.74	72.56
647.88	119.37
648.03	63.19
648.17	142.77
648.32	58.51
648.47	135.75
648.61	100.64
648.76	84.26
648.90	131.07
649.05	60.85
649.20	0.00
649.34	0.00
649.49	63.19
649.63	110.01
649.78	154.48
649.92	58.51
650.07	124.05
650.21	105.32
650.36	135.75
650.51	25.75
650.65	154.48
650.80	84.26
650.94	23.41
651.09	117.03
651.23	93.62
651.38	32.77
651.52	114.69
651.67	131.07
651.81	35.11
651.96	147.45
652.10	159.16
652.25	168.52
652.39	65.54
652.54	140.43
652.68	100.64
652.83	107.66
652.97	100.64
653.12	205.97
653.26	198.95
653.41	107.66
653.55	121.71
653.70	117.03
653.84	187.24
653.99	98.30
654.13	110.01
654.27	39.79
654.42	23.41
654.56	88.94
654.71	98.30
654.85	88.94
655.00	88.94
655.14	51.49
655.29	46.81
655.43	95.96
655.57	173.20
655.72	46.81
655.86	114.69
656.01	67.88
656.15	0.00
656.30	147.45
656.44	16.38
656.58	58.51
656.73	35.11
656.87	70.22
657.01	70.22
657.16	175.54
657.30	95.96
657.45	133.41
657.59	81.92
657.73	184.90
657.88	46.81
658.02	236.39
658.16	79.58
658.31	46.81
658.45	81.92
658.60	95.96
658.74	105.32
658.88	39.79
659.03	53.83
659.17	93.62
659.31	77.24
659.46	95.96
659.60	79.58
659.74	53.83
659.89	149.79
660.03	107.66
660.17	114.69
660.32	84.26
660.46	95.96
660.60	93.62
660.74	145.11
660.89	121.71
661.03	119.37
661.17	131.07
661.32	51.49
661.46	72.56
661.60	23.41
661.74	58.51
661.89	138.09
662.03	9.36
662.17	77.24
662.31	102.98
662.46	140.43
662.60	32.77
662.74	39.79
662.88	114.69
663.03	98.30
663.17	11.70
663.31	72.56
663.45	149.79
663.60	0.00
663.74	0.00
663.88	65.54
664.02	117.03
664.17	133.41
664.31	135.75
664.45	51.49
664.59	30.43
664.73	56.17
664.88	65.54
665.02	21.06
665.16	91.28
665.30	152.13
665.44	100.64
665.59	166.18
665.73	124.05
665.87	53.83
666.01	102.98
666.15	91.28
666.29	98.30
666.44	63.19
666.58	95.96
666.72	2.34
666.86	98.30
667.00	126.39
667.14	70.22
667.28	156.82
667.43	53.83
667.57	25.75
667.71	152.13
667.85	84.26
667.99	105.32
668.13	81.92
668.27	58.51
668.41	0.00
668.56	42.13
668.70	88.94
668.84	93.62
668.98	131.07
669.12	0.00
669.26	0.00
669.40	198.95
669.54	25.75
669.68	86.60
669.82	114.69
669.96	77.24
670.10	32.77
670.25	72.56
670.39	126.39
670.53	42.13
670.67	39.79
670.81	37.45
670.95	11.70
671.09	121.71
671.23	114.69
671.37	105.32
671.51	67.88
671.65	58.51
671.79	25.75
671.93	135.75
672.07	98.30
672.21	72.56
672.35	0.00
672.49	65.54
672.63	63.19
672.77	84.26
672.91	60.85
673.05	0.00
673.19	46.81
673.33	16.38
673.47	156.82
673.61	44.47
673.75	16.38
673.89	56.17
674.03	23.41
674.17	28.09
674.31	0.00
674.45	91.28
674.59	72.56
674.73	91.28
674.87	149.79
675.01	67.88
675.15	0.00
675.29	88.94
675.43	102.98
675.56	159.16
675.70	51.49
675.84	0.00
675.98	14.04
676.12	39.79
676.26	0.00
676.40	0.00
676.54	16.38
676.68	51.49
676.82	58.51
676.96	0.00
677.10	0.00
677.23	58.51
677.37	0.00
677.51	39.79
677.65	77.24
677.79	35.11
677.93	14.04
678.07	0.00
678.21	32.77
678.34	65.54
678.48	18.72
678.62	0.00
678.76	0.00
678.90	0.00
679.04	0.00
679.18	30.43
679.31	11.70
679.45	37.45
679.59	11.70
679.73	0.00
679.87	0.00
680.00	93.62
680.14	30.43
680.28	0.00
680.42	0.00
680.56	21.06
680.70	0.00
680.83	18.72
680.97	39.79
681.11	7.02
681.25	49.15
681.39	4.68
681.52	21.06
681.66	0.00
681.80	7.02
681.94	0.00
682.07	32.77
682.21	37.45
682.35	0.00
682.49	0.00
682.62	14.04
682.76	25.75
682.90	0.00
683.04	23.41
683.17	84.26
683.31	0.00
683.45	46.81
683.59	0.00
683.72	21.06
683.86	70.22
684.00	0.00
684.13	2.34
684.27	65.54
684.41	28.09
684.55	0.00
684.68	0.00
684.82	0.00
684.96	0.00
685.09	0.00
685.23	0.00
685.37	7.02
685.50	0.00
685.64	0.00
685.78	4.68
685.91	0.00
686.05	4.68
686.19	0.00
686.32	0.00
686.46	0.00
686.60	0.00
686.73	0.00
686.87	0.00
687.01	0.00
687.14	0.00
687.28	0.00
687.42	0.00
687.55	0.00
687.69	0.00
687.82	0.00
687.96	0.00
688.10	0.00
688.23	0.00
688.37	0.00
688.50	0.00
688.64	0.00
688.78	0.00
688.91	0.00
689.05	0.00
689.18	0.00
689.32	0.00
689.46	0.00
689.59	0.00
689.73	0.00
689.86	0.00
690.00	0.00
690.13	0.00
690.27	0.00
690.41	0.00
690.54	2.34
690.68	0.00
690.81	0.00
690.95	0.00
691.08	0.00
691.22	0.00
691.35	0.00
691.49	0.00
691.62	0.00
691.76	0.00
691.89	0.00
692.03	0.00
692.16	0.00
692.30	0.00
692.43	0.00
692.57	0.00
692.70	0.00
692.84	0.00
692.97	0.00
693.11	0.00
693.24	0.00
693.38	0.00
693.51	0.00
693.65	0.00
693.78	0.00
693.92	0.00
694.05	0.00
694.19	0.00
694.32	0.00
694.45	0.00
694.59	0.00
694.72	0.00
694.86	0.00
694.99	0.00
695.13	0.00
695.26	0.00
695.39	0.00
695.53	0.00
695.66	0.00
695.80	0.00
695.93	0.00
696.07	0.00
696.20	0.00
696.33	0.00
696.47	0.00
696.60	0.00
696.73	0.00
696.87	0.00
697.00	0.00
697.14	0.00
697.27	0.00
697.40	65.54
697.54	0.00
697.67	0.00
697.80	0.00
697.94	0.00
698.07	0.00
698.21	0.00
698.34	0.00
698.47	0.00
698.61	0.00
698.74	0.00
698.87	0.00
699.01	0.00
699.14	0.00
699.27	0.00
699.40	9.36
699.54	0.00
699.67	0.00
699.80	0.00
699.94	0.00
700.07	0.00
700.20	0.00
700.34	21.06
700.47	0.00
700.60	0.00
700.73	0.00
700.87	0.00
701.00	0.00
701.13	0.00
701.26	0.00
701.40	0.00
701.53	0.00
701.66	0.00
701.79	0.00
701.93	0.00
702.06	0.00
702.19	0.00
702.32	0.00
702.46	0.00
702.59	0.00
702.72	0.00
702.85	0.00
702.99	0.00
703.12	0.00
703.25	0.00
703.38	0.00
703.51	0.00
703.65	0.00
703.78	0.00
703.91	0.00
704.04	0.00
704.17	0.00
704.31	0.00
704.44	0.00
704.57	0.00
704.70	0.00
704.83	0.00
704.96	0.00
705.10	0.00
705.23	0.00
>>>>>End Processed Spectral Data<<<<<
