SpectraSuite Data File
++++++++++++++++++++++++++++++++++++
Date: Mon Oct 07 14:59:58 GMT-05:00 2013
User: price-jones
Dark Spectrum Present: No
Reference Spectrum Present: No
Number of Sampled Component Spectra: 1
Spectrometers: USB2+H05261
Integration Time (usec): 100000 (USB2+H05261)
Spectra Averaged: 1 (USB2+H05261)
Boxcar Smoothing: 0 (USB2+H05261)
Correct for Electrical Dark: No (USB2+H05261)
Strobe/Lamp Enabled: No (USB2+H05261)
Correct for Detector Non-linearity: No (USB2+H05261)
Correct for Stray Light: No (USB2+H05261)
Number of Pixels in Processed Spectrum: 2048
>>>>>Begin Processed Spectral Data<<<<<
365.73	0.00
365.92	0.00
366.12	0.00
366.32	0.00
366.52	0.00
366.72	0.00
366.91	0.00
367.11	0.00
367.31	0.00
367.51	0.00
367.70	0.00
367.90	0.00
368.10	0.00
368.30	0.00
368.49	0.00
368.69	0.00
368.89	0.00
369.09	0.00
369.28	0.00
369.48	0.00
369.68	0.00
369.87	0.00
370.07	0.00
370.27	0.00
370.47	0.00
370.66	0.00
370.86	0.00
371.06	0.00
371.25	0.00
371.45	0.00
371.65	0.00
371.84	0.00
372.04	0.00
372.24	0.00
372.44	0.00
372.63	0.00
372.83	0.00
373.03	0.00
373.22	0.00
373.42	0.00
373.62	0.00
373.81	0.00
374.01	0.00
374.21	0.00
374.40	0.00
374.60	0.00
374.79	0.00
374.99	0.00
375.19	0.00
375.38	0.00
375.58	0.00
375.78	0.00
375.97	0.00
376.17	0.00
376.37	0.00
376.56	0.00
376.76	0.00
376.95	0.00
377.15	0.00
377.35	0.00
377.54	0.00
377.74	0.00
377.93	0.00
378.13	0.00
378.33	0.00
378.52	0.00
378.72	0.00
378.91	0.00
379.11	0.00
379.31	0.00
379.50	0.00
379.70	0.00
379.89	0.00
380.09	0.00
380.28	0.00
380.48	0.00
380.68	0.00
380.87	0.00
381.07	0.00
381.26	0.00
381.46	0.00
381.65	0.00
381.85	0.00
382.04	0.00
382.24	0.00
382.43	0.00
382.63	0.00
382.83	0.00
383.02	0.00
383.22	0.00
383.41	0.00
383.61	0.00
383.80	0.00
384.00	0.00
384.19	0.00
384.39	0.00
384.58	0.00
384.78	0.00
384.97	0.00
385.17	0.00
385.36	0.00
385.56	0.00
385.75	0.00
385.95	0.00
386.14	0.00
386.34	0.00
386.53	0.00
386.72	0.00
386.92	0.00
387.11	0.00
387.31	0.00
387.50	0.00
387.70	0.00
387.89	0.00
388.09	0.00
388.28	0.00
388.48	0.00
388.67	0.00
388.86	0.00
389.06	0.00
389.25	0.00
389.45	0.00
389.64	0.00
389.84	0.00
390.03	0.00
390.22	0.00
390.42	0.00
390.61	0.00
390.81	0.00
391.00	0.00
391.19	0.00
391.39	0.00
391.58	0.00
391.78	0.00
391.97	0.00
392.16	0.00
392.36	0.00
392.55	0.00
392.75	0.00
392.94	0.00
393.13	0.00
393.33	0.00
393.52	0.00
393.71	0.00
393.91	0.00
394.10	0.00
394.29	0.00
394.49	0.00
394.68	0.00
394.88	0.00
395.07	0.00
395.26	0.00
395.46	0.00
395.65	0.00
395.84	0.00
396.04	0.00
396.23	0.00
396.42	0.00
396.62	0.00
396.81	0.00
397.00	0.00
397.19	0.00
397.39	0.00
397.58	0.00
397.77	0.00
397.97	0.00
398.16	0.00
398.35	0.00
398.55	0.00
398.74	0.00
398.93	0.00
399.12	0.00
399.32	0.00
399.51	0.00
399.70	0.00
399.90	0.00
400.09	0.00
400.28	0.00
400.47	0.00
400.67	0.00
400.86	0.00
401.05	0.00
401.24	0.00
401.44	0.00
401.63	0.00
401.82	0.00
402.01	0.00
402.21	0.00
402.40	0.00
402.59	0.00
402.78	0.00
402.97	0.00
403.17	0.00
403.36	0.00
403.55	0.00
403.74	0.00
403.93	0.00
404.13	0.00
404.32	0.00
404.51	0.00
404.70	0.00
404.89	0.00
405.09	0.00
405.28	0.00
405.47	0.00
405.66	0.00
405.85	0.00
406.05	0.00
406.24	0.00
406.43	0.00
406.62	0.00
406.81	0.00
407.00	0.00
407.20	0.00
407.39	0.00
407.58	0.00
407.77	0.00
407.96	0.00
408.15	0.00
408.34	0.00
408.54	0.00
408.73	0.00
408.92	0.00
409.11	0.00
409.30	0.00
409.49	0.00
409.68	0.00
409.87	0.00
410.07	0.00
410.26	0.00
410.45	0.00
410.64	0.00
410.83	0.00
411.02	0.00
411.21	0.00
411.40	0.00
411.59	0.00
411.78	0.00
411.98	0.00
412.17	0.00
412.36	0.00
412.55	0.00
412.74	0.00
412.93	0.00
413.12	0.00
413.31	0.00
413.50	0.00
413.69	0.00
413.88	0.00
414.07	0.00
414.26	0.00
414.45	0.00
414.64	0.00
414.83	0.00
415.02	0.00
415.22	0.00
415.41	0.00
415.60	0.00
415.79	0.00
415.98	0.00
416.17	0.00
416.36	0.00
416.55	0.00
416.74	0.00
416.93	0.00
417.12	0.00
417.31	0.00
417.50	0.00
417.69	0.00
417.88	0.00
418.07	0.00
418.26	0.00
418.45	0.00
418.64	0.00
418.83	0.00
419.02	0.00
419.21	0.00
419.39	0.00
419.58	0.00
419.77	0.00
419.96	0.00
420.15	0.00
420.34	0.00
420.53	0.00
420.72	0.00
420.91	0.00
421.10	0.00
421.29	0.00
421.48	0.00
421.67	0.00
421.86	0.00
422.05	0.00
422.24	0.00
422.43	0.00
422.61	0.00
422.80	0.00
422.99	0.00
423.18	0.00
423.37	0.00
423.56	0.00
423.75	0.00
423.94	0.00
424.13	0.00
424.32	0.00
424.50	0.00
424.69	0.00
424.88	0.00
425.07	0.00
425.26	0.00
425.45	0.00
425.64	0.00
425.83	0.00
426.01	0.00
426.20	0.00
426.39	0.00
426.58	0.00
426.77	0.00
426.96	0.00
427.15	0.00
427.33	0.00
427.52	0.00
427.71	0.00
427.90	0.00
428.09	0.00
428.28	0.00
428.46	0.00
428.65	0.00
428.84	0.00
429.03	0.00
429.22	0.00
429.40	0.00
429.59	0.00
429.78	0.00
429.97	0.00
430.16	0.00
430.34	0.00
430.53	0.00
430.72	0.00
430.91	0.00
431.10	0.00
431.28	0.00
431.47	0.00
431.66	0.00
431.85	0.00
432.03	0.00
432.22	0.00
432.41	0.00
432.60	0.00
432.79	0.00
432.97	0.00
433.16	0.00
433.35	0.00
433.54	0.00
433.72	0.00
433.91	0.00
434.10	0.00
434.28	0.00
434.47	0.00
434.66	0.00
434.85	0.00
435.03	0.00
435.22	0.00
435.41	0.00
435.59	0.00
435.78	0.00
435.97	0.00
436.16	0.00
436.34	0.00
436.53	0.00
436.72	0.00
436.90	0.00
437.09	0.00
437.28	0.00
437.46	0.00
437.65	0.00
437.84	0.00
438.02	0.00
438.21	0.00
438.40	0.00
438.58	0.00
438.77	0.00
438.96	0.00
439.14	0.00
439.33	0.00
439.52	0.00
439.70	0.00
439.89	0.00
440.08	0.00
440.26	0.00
440.45	0.00
440.63	0.00
440.82	0.00
441.01	0.00
441.19	0.00
441.38	0.00
441.57	0.00
441.75	0.00
441.94	0.00
442.12	0.00
442.31	0.00
442.50	0.00
442.68	0.00
442.87	0.00
443.05	0.00
443.24	0.00
443.43	0.00
443.61	9.36
443.80	0.00
443.98	0.00
444.17	0.00
444.35	0.00
444.54	0.00
444.73	0.00
444.91	0.00
445.10	0.00
445.28	0.00
445.47	0.00
445.65	0.00
445.84	0.00
446.02	0.00
446.21	0.00
446.39	0.00
446.58	0.00
446.77	0.00
446.95	0.00
447.14	0.00
447.32	0.00
447.51	0.00
447.69	0.00
447.88	0.00
448.06	23.41
448.25	0.00
448.43	0.00
448.62	0.00
448.80	0.00
448.99	0.00
449.17	0.00
449.36	0.00
449.54	0.00
449.73	0.00
449.91	0.00
450.10	0.00
450.28	9.36
450.46	0.00
450.65	0.00
450.83	18.72
451.02	0.00
451.20	0.00
451.39	0.00
451.57	0.00
451.76	0.00
451.94	0.00
452.13	0.00
452.31	0.00
452.49	0.00
452.68	0.00
452.86	0.00
453.05	0.00
453.23	0.00
453.42	0.00
453.60	0.00
453.78	0.00
453.97	0.00
454.15	0.00
454.34	0.00
454.52	0.00
454.70	0.00
454.89	0.00
455.07	0.00
455.26	0.00
455.44	0.00
455.62	0.00
455.81	0.00
455.99	0.00
456.17	0.00
456.36	0.00
456.54	0.00
456.73	0.00
456.91	0.00
457.09	0.00
457.28	0.00
457.46	7.02
457.64	0.00
457.83	0.00
458.01	0.00
458.19	0.00
458.38	11.70
458.56	23.41
458.74	0.00
458.93	0.00
459.11	0.00
459.29	0.00
459.48	0.00
459.66	16.38
459.84	0.00
460.03	42.13
460.21	0.00
460.39	0.00
460.57	56.17
460.76	0.00
460.94	0.00
461.12	39.79
461.31	4.68
461.49	0.00
461.67	0.00
461.85	21.06
462.04	0.00
462.22	575.77
462.40	0.00
462.59	53.83
462.77	0.00
462.95	0.00
463.13	0.00
463.32	0.00
463.50	0.00
463.68	0.00
463.86	0.00
464.05	0.00
464.23	21.06
464.41	0.00
464.59	0.00
464.78	2.34
464.96	0.00
465.14	16.38
465.32	0.00
465.50	0.00
465.69	0.00
465.87	0.00
466.05	0.00
466.23	0.00
466.41	0.00
466.60	0.00
466.78	16.38
466.96	9.36
467.14	0.00
467.32	4.68
467.51	0.00
467.69	0.00
467.87	0.00
468.05	0.00
468.23	51.49
468.41	51.49
468.60	0.00
468.78	56.17
468.96	0.00
469.14	0.00
469.32	0.00
469.50	0.00
469.69	0.00
469.87	0.00
470.05	4.68
470.23	0.00
470.41	0.00
470.59	0.00
470.77	16.38
470.95	0.00
471.14	7.02
471.32	0.00
471.50	0.00
471.68	30.43
471.86	0.00
472.04	0.00
472.22	4.68
472.40	0.00
472.58	0.00
472.77	0.00
472.95	0.00
473.13	79.58
473.31	28.09
473.49	0.00
473.67	0.00
473.85	49.15
474.03	81.92
474.21	0.00
474.39	9.36
474.57	58.51
474.75	0.00
474.93	28.09
475.12	0.00
475.30	49.15
475.48	14.04
475.66	18.72
475.84	46.81
476.02	0.00
476.20	23.41
476.38	0.00
476.56	149.79
476.74	28.09
476.92	0.00
477.10	0.00
477.28	0.00
477.46	0.00
477.64	32.77
477.82	14.04
478.00	98.30
478.18	23.41
478.36	70.22
478.54	0.00
478.72	0.00
478.90	16.38
479.08	65.54
479.26	72.56
479.44	39.79
479.62	0.00
479.80	21.06
479.98	100.64
480.16	0.00
480.34	51.49
480.52	21.06
480.70	11.70
480.88	30.43
481.06	72.56
481.24	14.04
481.41	0.00
481.59	0.00
481.77	32.77
481.95	18.72
482.13	30.43
482.31	0.00
482.49	46.81
482.67	44.47
482.85	37.45
483.03	0.00
483.21	95.96
483.39	30.43
483.57	112.35
483.74	46.81
483.92	53.83
484.10	44.47
484.28	28.09
484.46	154.48
484.64	39.79
484.82	79.58
485.00	39.79
485.18	37.45
485.35	28.09
485.53	4.68
485.71	14.04
485.89	0.00
486.07	0.00
486.25	53.83
486.43	14.04
486.61	56.17
486.78	86.60
486.96	93.62
487.14	98.30
487.32	9.36
487.50	74.90
487.68	163.84
487.85	37.45
488.03	65.54
488.21	133.41
488.39	119.37
488.57	88.94
488.75	81.92
488.92	425.98
489.10	81.92
489.28	187.24
489.46	145.11
489.64	126.39
489.81	84.26
489.99	142.77
490.17	126.39
490.35	243.42
490.53	128.73
490.70	135.75
490.88	147.45
491.06	163.84
491.24	154.48
491.41	159.16
491.59	142.77
491.77	102.98
491.95	98.30
492.13	117.03
492.30	175.54
492.48	140.43
492.66	149.79
492.84	187.24
493.01	112.35
493.19	121.71
493.37	231.71
493.54	147.45
493.72	231.71
493.90	140.43
494.08	84.26
494.25	194.26
494.43	180.22
494.61	131.07
494.79	217.67
494.96	241.08
495.14	222.35
495.32	217.67
495.49	105.32
495.67	138.09
495.85	107.66
496.02	135.75
496.20	229.37
496.38	147.45
496.55	166.18
496.73	86.60
496.91	182.56
497.09	215.33
497.26	145.11
497.44	131.07
497.62	189.58
497.79	224.69
497.97	180.22
498.14	161.50
498.32	210.65
498.50	224.69
498.67	189.58
498.85	161.50
499.03	285.55
499.20	250.44
499.38	229.37
499.56	198.95
499.73	229.37
499.91	257.46
500.08	283.20
500.26	145.11
500.44	173.20
500.61	194.26
500.79	168.52
500.97	184.90
501.14	252.78
501.32	184.90
501.49	252.78
501.67	147.45
501.84	128.73
502.02	243.42
502.20	210.65
502.37	224.69
502.55	201.29
502.72	142.77
502.90	238.73
503.07	212.99
503.25	212.99
503.43	194.26
503.60	180.22
503.78	149.79
503.95	191.92
504.13	212.99
504.30	266.82
504.48	201.29
504.65	285.55
504.83	163.84
505.01	163.84
505.18	182.56
505.36	208.31
505.53	177.88
505.71	175.54
505.88	245.76
506.06	280.86
506.23	163.84
506.41	215.33
506.58	264.48
506.76	229.37
506.93	210.65
507.11	201.29
507.28	177.88
507.46	156.82
507.63	140.43
507.81	283.20
507.98	241.08
508.16	208.31
508.33	238.73
508.50	276.18
508.68	250.44
508.85	248.10
509.03	222.35
509.20	280.86
509.38	245.76
509.55	220.01
509.73	236.39
509.90	149.79
510.08	231.71
510.25	332.36
510.42	292.57
510.60	142.77
510.77	236.39
510.95	266.82
511.12	285.55
511.30	205.97
511.47	299.59
511.64	306.61
511.82	297.25
511.99	187.24
512.17	166.18
512.34	273.84
512.51	243.42
512.69	231.71
512.86	341.72
513.04	290.23
513.21	173.20
513.38	280.86
513.56	208.31
513.73	266.82
513.90	238.73
514.08	189.58
514.25	273.84
514.43	264.48
514.60	276.18
514.77	280.86
514.95	308.95
515.12	262.14
515.29	222.35
515.47	348.74
515.64	294.91
515.81	262.14
515.99	285.55
516.16	269.16
516.33	159.16
516.51	184.90
516.68	184.90
516.85	180.22
517.03	173.20
517.20	262.14
517.37	273.84
517.54	320.65
517.72	290.23
517.89	161.50
518.06	156.82
518.24	266.82
518.41	248.10
518.58	187.24
518.75	196.60
518.93	283.20
519.10	243.42
519.27	327.68
519.45	252.78
519.62	215.33
519.79	255.12
519.96	208.31
520.14	212.99
520.31	294.91
520.48	322.99
520.65	208.31
520.83	353.42
521.00	339.38
521.17	292.57
521.34	238.73
521.52	259.80
521.69	353.42
521.86	315.97
522.03	285.55
522.20	287.89
522.38	264.48
522.55	304.27
522.72	222.35
522.89	416.62
523.07	369.80
523.24	346.40
523.41	344.06
523.58	330.02
523.75	255.12
523.92	301.93
524.10	311.29
524.27	257.46
524.44	339.38
524.61	374.49
524.78	294.91
524.96	334.70
525.13	337.04
525.30	416.62
525.47	273.84
525.64	327.68
525.81	262.14
525.98	236.39
526.16	301.93
526.33	255.12
526.50	320.65
526.67	231.71
526.84	287.89
527.01	259.80
527.18	362.78
527.36	259.80
527.53	264.48
527.70	283.20
527.87	250.44
528.04	325.33
528.21	290.23
528.38	313.63
528.55	376.83
528.72	355.76
528.89	374.49
529.07	297.25
529.24	353.42
529.41	245.76
529.58	290.23
529.75	294.91
529.92	337.04
530.09	308.95
530.26	311.29
530.43	355.76
530.60	360.44
530.77	264.48
530.94	283.20
531.11	311.29
531.28	379.17
531.46	297.25
531.63	245.76
531.80	287.89
531.97	404.91
532.14	374.49
532.31	290.23
532.48	224.69
532.65	252.78
532.82	231.71
532.99	334.70
533.16	280.86
533.33	351.08
533.50	325.33
533.67	266.82
533.84	217.67
534.01	386.19
534.18	243.42
534.35	362.78
534.52	297.25
534.69	411.93
534.86	381.51
535.03	397.89
535.20	376.83
535.37	369.80
535.54	337.04
535.71	355.76
535.88	395.55
536.05	383.85
536.22	362.78
536.38	262.14
536.55	311.29
536.72	325.33
536.89	280.86
537.06	245.76
537.23	379.17
537.40	332.36
537.57	294.91
537.74	442.36
537.91	313.63
538.08	292.57
538.25	330.02
538.42	332.36
538.59	318.31
538.75	285.55
538.92	287.89
539.09	440.02
539.26	348.74
539.43	362.78
539.60	241.08
539.77	299.59
539.94	339.38
540.11	280.86
540.28	285.55
540.44	327.68
540.61	297.25
540.78	348.74
540.95	234.05
541.12	379.17
541.29	280.86
541.46	383.85
541.62	390.87
541.79	276.18
541.96	290.23
542.13	285.55
542.30	301.93
542.47	341.72
542.63	311.29
542.80	271.50
542.97	358.10
543.14	322.99
543.31	369.80
543.48	257.46
543.64	367.46
543.81	297.25
543.98	299.59
544.15	341.72
544.32	360.44
544.48	351.08
544.65	292.57
544.82	322.99
544.99	332.36
545.16	332.36
545.32	290.23
545.49	358.10
545.66	325.33
545.83	341.72
546.00	351.08
546.16	355.76
546.33	320.65
546.50	325.33
546.67	322.99
546.83	297.25
547.00	369.80
547.17	381.51
547.34	346.40
547.50	280.86
547.67	360.44
547.84	308.95
548.00	308.95
548.17	344.06
548.34	292.57
548.51	395.55
548.67	381.51
548.84	360.44
549.01	344.06
549.18	285.55
549.34	337.04
549.51	360.44
549.68	330.02
549.84	332.36
550.01	388.53
550.18	465.77
550.34	390.87
550.51	339.38
550.68	358.10
550.84	339.38
551.01	297.25
551.18	367.46
551.34	283.20
551.51	318.31
551.68	402.57
551.84	421.30
552.01	222.35
552.18	308.95
552.34	407.25
552.51	374.49
552.68	339.38
552.84	318.31
553.01	407.25
553.18	376.83
553.34	306.61
553.51	334.70
553.67	425.98
553.84	444.70
554.01	411.93
554.17	386.19
554.34	332.36
554.51	430.66
554.67	367.46
554.84	376.83
555.00	358.10
555.17	360.44
555.33	374.49
555.50	353.42
555.67	334.70
555.83	346.40
556.00	346.40
556.16	477.47
556.33	311.29
556.50	334.70
556.66	306.61
556.83	241.08
556.99	315.97
557.16	271.50
557.32	339.38
557.49	369.80
557.65	358.10
557.82	294.91
557.98	318.31
558.15	374.49
558.32	381.51
558.48	198.95
558.65	320.65
558.81	290.23
558.98	280.86
559.14	351.08
559.31	327.68
559.47	353.42
559.64	306.61
559.80	287.89
559.97	325.33
560.13	397.89
560.30	346.40
560.46	276.18
560.63	332.36
560.79	411.93
560.96	358.10
561.12	348.74
561.29	285.55
561.45	304.27
561.61	264.48
561.78	421.30
561.94	320.65
562.11	271.50
562.27	297.25
562.44	372.15
562.60	308.95
562.77	397.89
562.93	463.43
563.10	278.52
563.26	360.44
563.42	325.33
563.59	264.48
563.75	402.57
563.92	374.49
564.08	404.91
564.24	322.99
564.41	458.74
564.57	327.68
564.74	355.76
564.90	311.29
565.07	404.91
565.23	301.93
565.39	313.63
565.56	353.42
565.72	304.27
565.88	301.93
566.05	276.18
566.21	320.65
566.38	278.52
566.54	344.06
566.70	325.33
566.87	201.29
567.03	245.76
567.19	379.17
567.36	311.29
567.52	306.61
567.68	390.87
567.85	339.38
568.01	299.59
568.17	344.06
568.34	362.78
568.50	334.70
568.66	299.59
568.83	402.57
568.99	264.48
569.15	334.70
569.32	252.78
569.48	257.46
569.64	306.61
569.81	348.74
569.97	243.42
570.13	255.12
570.30	325.33
570.46	212.99
570.62	241.08
570.78	292.57
570.95	259.80
571.11	381.51
571.27	414.27
571.43	299.59
571.60	241.08
571.76	355.76
571.92	287.89
572.09	304.27
572.25	428.32
572.41	337.04
572.57	322.99
572.74	411.93
572.90	264.48
573.06	376.83
573.22	365.12
573.38	430.66
573.55	358.10
573.71	280.86
573.87	353.42
574.03	339.38
574.20	285.55
574.36	306.61
574.52	299.59
574.68	362.78
574.84	278.52
575.01	327.68
575.17	276.18
575.33	280.86
575.49	374.49
575.65	334.70
575.82	386.19
575.98	344.06
576.14	409.59
576.30	313.63
576.46	283.20
576.62	252.78
576.79	365.12
576.95	418.96
577.11	311.29
577.27	325.33
577.43	327.68
577.59	348.74
577.75	332.36
577.92	217.67
578.08	311.29
578.24	269.16
578.40	346.40
578.56	334.70
578.72	322.99
578.88	269.16
579.04	374.49
579.21	301.93
579.37	339.38
579.53	287.89
579.69	344.06
579.85	250.44
580.01	327.68
580.17	266.82
580.33	266.82
580.49	330.02
580.65	418.96
580.82	322.99
580.98	290.23
581.14	318.31
581.30	327.68
581.46	416.62
581.62	379.17
581.78	351.08
581.94	372.15
582.10	299.59
582.26	278.52
582.42	280.86
582.58	397.89
582.74	311.29
582.90	257.46
583.06	372.15
583.22	271.50
583.38	327.68
583.54	325.33
583.70	353.42
583.86	376.83
584.02	299.59
584.18	393.21
584.34	306.61
584.50	271.50
584.66	322.99
584.82	257.46
584.98	411.93
585.14	372.15
585.30	348.74
585.46	292.57
585.62	311.29
585.78	332.36
585.94	315.97
586.10	231.71
586.26	306.61
586.42	318.31
586.58	358.10
586.74	266.82
586.90	257.46
587.06	339.38
587.22	273.84
587.38	266.82
587.54	306.61
587.70	374.49
587.86	337.04
588.02	262.14
588.18	315.97
588.34	297.25
588.49	280.86
588.65	252.78
588.81	177.88
588.97	194.26
589.13	241.08
589.29	212.99
589.45	264.48
589.61	238.73
589.77	313.63
589.93	231.71
590.08	245.76
590.24	215.33
590.40	245.76
590.56	311.29
590.72	325.33
590.88	259.80
591.04	348.74
591.20	308.95
591.35	360.44
591.51	334.70
591.67	262.14
591.83	252.78
591.99	348.74
592.15	362.78
592.31	341.72
592.46	315.97
592.62	358.10
592.78	276.18
592.94	259.80
593.10	229.37
593.26	287.89
593.41	325.33
593.57	322.99
593.73	285.55
593.89	271.50
594.05	259.80
594.20	290.23
594.36	266.82
594.52	351.08
594.68	294.91
594.84	187.24
594.99	283.20
595.15	259.80
595.31	285.55
595.47	344.06
595.62	315.97
595.78	283.20
595.94	262.14
596.10	355.76
596.25	273.84
596.41	330.02
596.57	231.71
596.73	276.18
596.88	248.10
597.04	332.36
597.20	285.55
597.36	313.63
597.51	271.50
597.67	311.29
597.83	355.76
597.99	278.52
598.14	220.01
598.30	311.29
598.46	308.95
598.61	397.89
598.77	294.91
598.93	271.50
599.09	248.10
599.24	360.44
599.40	271.50
599.56	210.65
599.71	315.97
599.87	243.42
600.03	308.95
600.18	290.23
600.34	292.57
600.50	248.10
600.65	229.37
600.81	266.82
600.97	208.31
601.12	341.72
601.28	292.57
601.44	276.18
601.59	201.29
601.75	283.20
601.91	327.68
602.06	294.91
602.22	250.44
602.37	212.99
602.53	341.72
602.69	280.86
602.84	280.86
603.00	255.12
603.16	290.23
603.31	306.61
603.47	381.51
603.62	234.05
603.78	315.97
603.94	294.91
604.09	238.73
604.25	320.65
604.40	365.12
604.56	252.78
604.71	297.25
604.87	236.39
605.03	304.27
605.18	301.93
605.34	262.14
605.49	212.99
605.65	273.84
605.80	222.35
605.96	273.84
606.12	259.80
606.27	330.02
606.43	308.95
606.58	245.76
606.74	264.48
606.89	306.61
607.05	264.48
607.20	276.18
607.36	252.78
607.51	220.01
607.67	234.05
607.82	166.18
607.98	283.20
608.13	294.91
608.29	227.03
608.44	297.25
608.60	271.50
608.75	297.25
608.91	276.18
609.06	259.80
609.22	238.73
609.37	236.39
609.53	262.14
609.68	189.58
609.84	175.54
609.99	276.18
610.15	259.80
610.30	276.18
610.46	257.46
610.61	208.31
610.76	252.78
610.92	196.60
611.07	220.01
611.23	224.69
611.38	325.33
611.54	159.16
611.69	229.37
611.84	191.92
612.00	262.14
612.15	100.64
612.31	184.90
612.46	189.58
612.62	196.60
612.77	259.80
612.92	269.16
613.08	273.84
613.23	147.45
613.39	257.46
613.54	170.86
613.69	269.16
613.85	266.82
614.00	250.44
614.15	208.31
614.31	259.80
614.46	248.10
614.62	154.48
614.77	278.52
614.92	224.69
615.08	262.14
615.23	227.03
615.38	280.86
615.54	175.54
615.69	135.75
615.84	198.95
616.00	205.97
616.15	227.03
616.30	236.39
616.46	220.01
616.61	234.05
616.76	227.03
616.92	304.27
617.07	234.05
617.22	250.44
617.37	198.95
617.53	222.35
617.68	220.01
617.83	177.88
617.99	224.69
618.14	255.12
618.29	236.39
618.45	173.20
618.60	212.99
618.75	278.52
618.90	189.58
619.06	152.13
619.21	318.31
619.36	196.60
619.51	210.65
619.67	184.90
619.82	163.84
619.97	241.08
620.12	304.27
620.28	276.18
620.43	222.35
620.58	259.80
620.73	173.20
620.89	180.22
621.04	234.05
621.19	313.63
621.34	170.86
621.49	245.76
621.65	250.44
621.80	124.05
621.95	210.65
622.10	215.33
622.25	220.01
622.41	102.98
622.56	156.82
622.71	231.71
622.86	175.54
623.01	126.39
623.16	248.10
623.32	159.16
623.47	177.88
623.62	198.95
623.77	95.96
623.92	163.84
624.07	201.29
624.23	212.99
624.38	173.20
624.53	175.54
624.68	238.73
624.83	264.48
624.98	217.67
625.13	161.50
625.29	159.16
625.44	180.22
625.59	65.54
625.74	170.86
625.89	236.39
626.04	142.77
626.19	112.35
626.34	145.11
626.49	191.92
626.65	203.63
626.80	285.55
626.95	236.39
627.10	177.88
627.25	205.97
627.40	147.45
627.55	131.07
627.70	187.24
627.85	198.95
628.00	191.92
628.15	147.45
628.30	152.13
628.45	163.84
628.60	205.97
628.76	224.69
628.91	163.84
629.06	133.41
629.21	159.16
629.36	273.84
629.51	145.11
629.66	114.69
629.81	131.07
629.96	156.82
630.11	114.69
630.26	170.86
630.41	170.86
630.56	189.58
630.71	145.11
630.86	201.29
631.01	236.39
631.16	105.32
631.31	318.31
631.46	198.95
631.61	112.35
631.76	124.05
631.91	201.29
632.06	161.50
632.21	257.46
632.36	250.44
632.51	114.69
632.66	175.54
632.81	191.92
632.96	177.88
633.10	105.32
633.25	215.33
633.40	210.65
633.55	128.73
633.70	131.07
633.85	93.62
634.00	88.94
634.15	175.54
634.30	173.20
634.45	264.48
634.60	170.86
634.75	133.41
634.90	131.07
635.05	149.79
635.19	196.60
635.34	187.24
635.49	220.01
635.64	210.65
635.79	189.58
635.94	180.22
636.09	203.63
636.24	175.54
636.39	119.37
636.53	180.22
636.68	180.22
636.83	159.16
636.98	280.86
637.13	126.39
637.28	161.50
637.43	149.79
637.57	161.50
637.72	257.46
637.87	180.22
638.02	77.24
638.17	182.56
638.32	177.88
638.46	163.84
638.61	189.58
638.76	180.22
638.91	168.52
639.06	126.39
639.20	205.97
639.35	135.75
639.50	88.94
639.65	212.99
639.80	175.54
639.94	152.13
640.09	154.48
640.24	236.39
640.39	234.05
640.54	170.86
640.68	208.31
640.83	208.31
640.98	152.13
641.13	173.20
641.27	168.52
641.42	124.05
641.57	255.12
641.72	131.07
641.86	245.76
642.01	93.62
642.16	173.20
642.31	138.09
642.45	238.73
642.60	133.41
642.75	105.32
642.90	140.43
643.04	112.35
643.19	126.39
643.34	56.17
643.48	133.41
643.63	91.28
643.78	250.44
643.93	156.82
644.07	238.73
644.22	180.22
644.37	81.92
644.51	208.31
644.66	114.69
644.81	191.92
644.95	245.76
645.10	102.98
645.25	145.11
645.39	163.84
645.54	138.09
645.69	117.03
645.83	91.28
645.98	110.01
646.13	84.26
646.27	184.90
646.42	168.52
646.57	84.26
646.71	117.03
646.86	154.48
647.00	88.94
647.15	166.18
647.30	98.30
647.44	23.41
647.59	21.06
647.74	81.92
647.88	156.82
648.03	81.92
648.17	140.43
648.32	72.56
648.47	128.73
648.61	37.45
648.76	72.56
648.90	126.39
649.05	95.96
649.20	159.16
649.34	70.22
649.49	107.66
649.63	140.43
649.78	95.96
649.92	107.66
650.07	93.62
650.21	100.64
650.36	100.64
650.51	105.32
650.65	100.64
650.80	168.52
650.94	60.85
651.09	18.72
651.23	56.17
651.38	58.51
651.52	77.24
651.67	60.85
651.81	81.92
651.96	196.60
652.10	194.26
652.25	67.88
652.39	58.51
652.54	163.84
652.68	53.83
652.83	135.75
652.97	74.90
653.12	135.75
653.26	128.73
653.41	95.96
653.55	84.26
653.70	93.62
653.84	135.75
653.99	81.92
654.13	79.58
654.27	32.77
654.42	42.13
654.56	72.56
654.71	98.30
654.85	53.83
655.00	114.69
655.14	142.77
655.29	39.79
655.43	88.94
655.57	84.26
655.72	79.58
655.86	117.03
656.01	44.47
656.15	65.54
656.30	63.19
656.44	74.90
656.58	88.94
656.73	56.17
656.87	65.54
657.01	84.26
657.16	131.07
657.30	145.11
657.45	102.98
657.59	93.62
657.73	25.75
657.88	98.30
658.02	215.33
658.16	86.60
658.31	63.19
658.45	58.51
658.60	159.16
658.74	95.96
658.88	88.94
659.03	91.28
659.17	131.07
659.31	163.84
659.46	79.58
659.60	145.11
659.74	37.45
659.89	67.88
660.03	77.24
660.17	159.16
660.32	42.13
660.46	70.22
660.60	145.11
660.74	142.77
660.89	135.75
661.03	131.07
661.17	86.60
661.32	56.17
661.46	135.75
661.60	0.00
661.74	112.35
661.89	173.20
662.03	100.64
662.17	11.70
662.31	86.60
662.46	119.37
662.60	72.56
662.74	77.24
662.88	145.11
663.03	98.30
663.17	102.98
663.31	67.88
663.45	44.47
663.60	112.35
663.74	72.56
663.88	23.41
664.02	117.03
664.17	79.58
664.31	81.92
664.45	74.90
664.59	121.71
664.73	147.45
664.88	128.73
665.02	72.56
665.16	65.54
665.30	100.64
665.44	39.79
665.59	117.03
665.73	60.85
665.87	140.43
666.01	30.43
666.15	58.51
666.29	56.17
666.44	44.47
666.58	222.35
666.72	14.04
666.86	79.58
667.00	114.69
667.14	102.98
667.28	88.94
667.43	95.96
667.57	25.75
667.71	14.04
667.85	0.00
667.99	88.94
668.13	121.71
668.27	105.32
668.41	77.24
668.56	77.24
668.70	84.26
668.84	79.58
668.98	91.28
669.12	9.36
669.26	84.26
669.40	121.71
669.54	110.01
669.68	58.51
669.82	42.13
669.96	53.83
670.10	0.00
670.25	46.81
670.39	16.38
670.53	23.41
670.67	44.47
670.81	32.77
670.95	53.83
671.09	65.54
671.23	105.32
671.37	74.90
671.51	39.79
671.65	91.28
671.79	56.17
671.93	67.88
672.07	224.69
672.21	84.26
672.35	77.24
672.49	58.51
672.63	133.41
672.77	37.45
672.91	4.68
673.05	42.13
673.19	11.70
673.33	16.38
673.47	72.56
673.61	58.51
673.75	77.24
673.89	0.00
674.03	84.26
674.17	60.85
674.31	37.45
674.45	88.94
674.59	56.17
674.73	21.06
674.87	60.85
675.01	9.36
675.15	0.00
675.29	44.47
675.43	4.68
675.56	98.30
675.70	114.69
675.84	0.00
675.98	53.83
676.12	0.00
676.26	0.00
676.40	0.00
676.54	72.56
676.68	0.00
676.82	63.19
676.96	42.13
677.10	100.64
677.23	0.00
677.37	0.00
677.51	0.00
677.65	77.24
677.79	16.38
677.93	0.00
678.07	0.00
678.21	0.00
678.34	72.56
678.48	0.00
678.62	51.49
678.76	18.72
678.90	2.34
679.04	21.06
679.18	0.00
679.31	0.00
679.45	65.54
679.59	53.83
679.73	0.00
679.87	0.00
680.00	51.49
680.14	51.49
680.28	0.00
680.42	0.00
680.56	70.22
680.70	0.00
680.83	0.00
680.97	0.00
681.11	4.68
681.25	60.85
681.39	67.88
681.52	0.00
681.66	93.62
681.80	21.06
681.94	18.72
682.07	0.00
682.21	0.00
682.35	0.00
682.49	0.00
682.62	0.00
682.76	0.00
682.90	23.41
683.04	44.47
683.17	0.00
683.31	0.00
683.45	0.00
683.59	0.00
683.72	4.68
683.86	0.00
684.00	0.00
684.13	53.83
684.27	0.00
684.41	35.11
684.55	0.00
684.68	0.00
684.82	0.00
684.96	0.00
685.09	0.00
685.23	0.00
685.37	0.00
685.50	7.02
685.64	58.51
685.78	30.43
685.91	0.00
686.05	0.00
686.19	0.00
686.32	0.00
686.46	0.00
686.60	0.00
686.73	0.00
686.87	0.00
687.01	0.00
687.14	0.00
687.28	0.00
687.42	0.00
687.55	0.00
687.69	9.36
687.82	0.00
687.96	0.00
688.10	16.38
688.23	0.00
688.37	0.00
688.50	0.00
688.64	0.00
688.78	0.00
688.91	0.00
689.05	0.00
689.18	0.00
689.32	0.00
689.46	0.00
689.59	0.00
689.73	0.00
689.86	0.00
690.00	0.00
690.13	7.02
690.27	0.00
690.41	0.00
690.54	0.00
690.68	0.00
690.81	0.00
690.95	0.00
691.08	14.04
691.22	0.00
691.35	0.00
691.49	0.00
691.62	0.00
691.76	0.00
691.89	0.00
692.03	0.00
692.16	0.00
692.30	0.00
692.43	0.00
692.57	0.00
692.70	0.00
692.84	0.00
692.97	0.00
693.11	0.00
693.24	0.00
693.38	0.00
693.51	0.00
693.65	0.00
693.78	0.00
693.92	0.00
694.05	0.00
694.19	0.00
694.32	0.00
694.45	0.00
694.59	0.00
694.72	0.00
694.86	0.00
694.99	0.00
695.13	0.00
695.26	0.00
695.39	0.00
695.53	0.00
695.66	0.00
695.80	0.00
695.93	0.00
696.07	0.00
696.20	0.00
696.33	0.00
696.47	0.00
696.60	0.00
696.73	0.00
696.87	30.43
697.00	0.00
697.14	0.00
697.27	0.00
697.40	0.00
697.54	0.00
697.67	0.00
697.80	0.00
697.94	0.00
698.07	0.00
698.21	0.00
698.34	0.00
698.47	0.00
698.61	0.00
698.74	0.00
698.87	0.00
699.01	0.00
699.14	0.00
699.27	0.00
699.40	49.15
699.54	0.00
699.67	0.00
699.80	0.00
699.94	0.00
700.07	0.00
700.20	0.00
700.34	0.00
700.47	0.00
700.60	0.00
700.73	0.00
700.87	0.00
701.00	0.00
701.13	0.00
701.26	0.00
701.40	0.00
701.53	0.00
701.66	0.00
701.79	0.00
701.93	0.00
702.06	0.00
702.19	0.00
702.32	0.00
702.46	0.00
702.59	0.00
702.72	0.00
702.85	0.00
702.99	0.00
703.12	0.00
703.25	0.00
703.38	0.00
703.51	0.00
703.65	0.00
703.78	0.00
703.91	0.00
704.04	0.00
704.17	0.00
704.31	0.00
704.44	0.00
704.57	0.00
704.70	0.00
704.83	0.00
704.96	0.00
705.10	0.00
705.23	0.00
>>>>>End Processed Spectral Data<<<<<
