SpectraSuite Data File
++++++++++++++++++++++++++++++++++++
Date: Mon Oct 07 14:59:57 GMT-05:00 2013
User: price-jones
Dark Spectrum Present: No
Reference Spectrum Present: No
Number of Sampled Component Spectra: 1
Spectrometers: USB2+H05261
Integration Time (usec): 100000 (USB2+H05261)
Spectra Averaged: 1 (USB2+H05261)
Boxcar Smoothing: 0 (USB2+H05261)
Correct for Electrical Dark: No (USB2+H05261)
Strobe/Lamp Enabled: No (USB2+H05261)
Correct for Detector Non-linearity: No (USB2+H05261)
Correct for Stray Light: No (USB2+H05261)
Number of Pixels in Processed Spectrum: 2048
>>>>>Begin Processed Spectral Data<<<<<
365.73	0.00
365.92	0.00
366.12	0.00
366.32	0.00
366.52	0.00
366.72	0.00
366.91	0.00
367.11	0.00
367.31	0.00
367.51	0.00
367.70	0.00
367.90	0.00
368.10	0.00
368.30	0.00
368.49	0.00
368.69	0.00
368.89	0.00
369.09	0.00
369.28	0.00
369.48	0.00
369.68	0.00
369.87	0.00
370.07	0.00
370.27	0.00
370.47	0.00
370.66	0.00
370.86	0.00
371.06	0.00
371.25	0.00
371.45	0.00
371.65	0.00
371.84	0.00
372.04	0.00
372.24	0.00
372.44	0.00
372.63	0.00
372.83	0.00
373.03	0.00
373.22	0.00
373.42	0.00
373.62	0.00
373.81	0.00
374.01	0.00
374.21	0.00
374.40	0.00
374.60	0.00
374.79	0.00
374.99	0.00
375.19	0.00
375.38	0.00
375.58	0.00
375.78	0.00
375.97	0.00
376.17	0.00
376.37	0.00
376.56	0.00
376.76	0.00
376.95	0.00
377.15	0.00
377.35	0.00
377.54	0.00
377.74	0.00
377.93	0.00
378.13	0.00
378.33	0.00
378.52	0.00
378.72	0.00
378.91	0.00
379.11	0.00
379.31	0.00
379.50	0.00
379.70	0.00
379.89	0.00
380.09	0.00
380.28	0.00
380.48	0.00
380.68	0.00
380.87	0.00
381.07	0.00
381.26	0.00
381.46	0.00
381.65	0.00
381.85	0.00
382.04	0.00
382.24	0.00
382.43	0.00
382.63	0.00
382.83	0.00
383.02	0.00
383.22	0.00
383.41	0.00
383.61	0.00
383.80	0.00
384.00	0.00
384.19	0.00
384.39	0.00
384.58	0.00
384.78	0.00
384.97	0.00
385.17	0.00
385.36	0.00
385.56	0.00
385.75	0.00
385.95	0.00
386.14	0.00
386.34	0.00
386.53	0.00
386.72	0.00
386.92	0.00
387.11	0.00
387.31	0.00
387.50	0.00
387.70	0.00
387.89	0.00
388.09	0.00
388.28	0.00
388.48	0.00
388.67	0.00
388.86	0.00
389.06	0.00
389.25	0.00
389.45	0.00
389.64	0.00
389.84	0.00
390.03	0.00
390.22	0.00
390.42	0.00
390.61	0.00
390.81	0.00
391.00	0.00
391.19	0.00
391.39	0.00
391.58	0.00
391.78	0.00
391.97	0.00
392.16	0.00
392.36	0.00
392.55	0.00
392.75	0.00
392.94	0.00
393.13	0.00
393.33	0.00
393.52	0.00
393.71	0.00
393.91	0.00
394.10	0.00
394.29	0.00
394.49	0.00
394.68	0.00
394.88	0.00
395.07	0.00
395.26	0.00
395.46	0.00
395.65	0.00
395.84	0.00
396.04	0.00
396.23	0.00
396.42	0.00
396.62	0.00
396.81	0.00
397.00	0.00
397.19	0.00
397.39	0.00
397.58	0.00
397.77	0.00
397.97	0.00
398.16	0.00
398.35	0.00
398.55	0.00
398.74	0.00
398.93	0.00
399.12	0.00
399.32	0.00
399.51	0.00
399.70	0.00
399.90	0.00
400.09	0.00
400.28	0.00
400.47	0.00
400.67	0.00
400.86	0.00
401.05	0.00
401.24	0.00
401.44	0.00
401.63	0.00
401.82	0.00
402.01	0.00
402.21	0.00
402.40	0.00
402.59	0.00
402.78	0.00
402.97	0.00
403.17	0.00
403.36	0.00
403.55	0.00
403.74	0.00
403.93	0.00
404.13	0.00
404.32	0.00
404.51	0.00
404.70	0.00
404.89	0.00
405.09	0.00
405.28	0.00
405.47	0.00
405.66	0.00
405.85	0.00
406.05	0.00
406.24	0.00
406.43	0.00
406.62	0.00
406.81	0.00
407.00	0.00
407.20	0.00
407.39	0.00
407.58	0.00
407.77	0.00
407.96	0.00
408.15	0.00
408.34	0.00
408.54	0.00
408.73	0.00
408.92	0.00
409.11	0.00
409.30	0.00
409.49	0.00
409.68	0.00
409.87	0.00
410.07	0.00
410.26	0.00
410.45	0.00
410.64	0.00
410.83	0.00
411.02	0.00
411.21	0.00
411.40	0.00
411.59	0.00
411.78	0.00
411.98	0.00
412.17	0.00
412.36	0.00
412.55	0.00
412.74	0.00
412.93	0.00
413.12	0.00
413.31	0.00
413.50	0.00
413.69	0.00
413.88	0.00
414.07	0.00
414.26	0.00
414.45	0.00
414.64	0.00
414.83	0.00
415.02	0.00
415.22	0.00
415.41	0.00
415.60	0.00
415.79	0.00
415.98	0.00
416.17	0.00
416.36	0.00
416.55	0.00
416.74	0.00
416.93	0.00
417.12	0.00
417.31	0.00
417.50	0.00
417.69	0.00
417.88	0.00
418.07	0.00
418.26	0.00
418.45	0.00
418.64	0.00
418.83	0.00
419.02	0.00
419.21	0.00
419.39	0.00
419.58	0.00
419.77	0.00
419.96	0.00
420.15	0.00
420.34	0.00
420.53	0.00
420.72	0.00
420.91	0.00
421.10	0.00
421.29	0.00
421.48	0.00
421.67	0.00
421.86	0.00
422.05	0.00
422.24	0.00
422.43	0.00
422.61	0.00
422.80	0.00
422.99	0.00
423.18	0.00
423.37	0.00
423.56	0.00
423.75	0.00
423.94	0.00
424.13	0.00
424.32	0.00
424.50	0.00
424.69	0.00
424.88	0.00
425.07	0.00
425.26	0.00
425.45	0.00
425.64	0.00
425.83	0.00
426.01	0.00
426.20	0.00
426.39	0.00
426.58	0.00
426.77	0.00
426.96	0.00
427.15	0.00
427.33	0.00
427.52	0.00
427.71	0.00
427.90	0.00
428.09	0.00
428.28	0.00
428.46	0.00
428.65	0.00
428.84	0.00
429.03	0.00
429.22	0.00
429.40	0.00
429.59	0.00
429.78	0.00
429.97	0.00
430.16	0.00
430.34	0.00
430.53	0.00
430.72	0.00
430.91	0.00
431.10	0.00
431.28	0.00
431.47	0.00
431.66	0.00
431.85	0.00
432.03	0.00
432.22	0.00
432.41	0.00
432.60	0.00
432.79	0.00
432.97	0.00
433.16	0.00
433.35	0.00
433.54	0.00
433.72	0.00
433.91	0.00
434.10	0.00
434.28	0.00
434.47	0.00
434.66	0.00
434.85	0.00
435.03	0.00
435.22	0.00
435.41	0.00
435.59	0.00
435.78	0.00
435.97	0.00
436.16	0.00
436.34	0.00
436.53	0.00
436.72	0.00
436.90	0.00
437.09	0.00
437.28	0.00
437.46	0.00
437.65	0.00
437.84	0.00
438.02	0.00
438.21	0.00
438.40	0.00
438.58	0.00
438.77	0.00
438.96	0.00
439.14	0.00
439.33	0.00
439.52	0.00
439.70	0.00
439.89	0.00
440.08	0.00
440.26	0.00
440.45	0.00
440.63	0.00
440.82	0.00
441.01	0.00
441.19	0.00
441.38	0.00
441.57	0.00
441.75	0.00
441.94	0.00
442.12	0.00
442.31	0.00
442.50	0.00
442.68	0.00
442.87	0.00
443.05	0.00
443.24	0.00
443.43	0.00
443.61	0.00
443.80	0.00
443.98	0.00
444.17	0.00
444.35	0.00
444.54	0.00
444.73	0.00
444.91	0.00
445.10	0.00
445.28	0.00
445.47	0.00
445.65	0.00
445.84	0.00
446.02	0.00
446.21	0.00
446.39	0.00
446.58	0.00
446.77	0.00
446.95	0.00
447.14	0.00
447.32	7.02
447.51	0.00
447.69	0.00
447.88	0.00
448.06	0.00
448.25	0.00
448.43	0.00
448.62	0.00
448.80	0.00
448.99	0.00
449.17	0.00
449.36	0.00
449.54	0.00
449.73	0.00
449.91	0.00
450.10	0.00
450.28	0.00
450.46	4.68
450.65	0.00
450.83	0.00
451.02	0.00
451.20	0.00
451.39	0.00
451.57	0.00
451.76	0.00
451.94	0.00
452.13	0.00
452.31	46.81
452.49	0.00
452.68	0.00
452.86	0.00
453.05	32.77
453.23	0.00
453.42	0.00
453.60	0.00
453.78	0.00
453.97	0.00
454.15	16.38
454.34	0.00
454.52	0.00
454.70	0.00
454.89	0.00
455.07	0.00
455.26	0.00
455.44	0.00
455.62	0.00
455.81	0.00
455.99	0.00
456.17	0.00
456.36	0.00
456.54	28.09
456.73	0.00
456.91	0.00
457.09	51.49
457.28	14.04
457.46	0.00
457.64	0.00
457.83	0.00
458.01	0.00
458.19	0.00
458.38	4.68
458.56	72.56
458.74	0.00
458.93	0.00
459.11	0.00
459.29	0.00
459.48	0.00
459.66	0.00
459.84	0.00
460.03	91.28
460.21	0.00
460.39	0.00
460.57	23.41
460.76	23.41
460.94	35.11
461.12	0.00
461.31	7.02
461.49	0.00
461.67	0.00
461.85	23.41
462.04	44.47
462.22	566.41
462.40	86.60
462.59	37.45
462.77	0.00
462.95	0.00
463.13	0.00
463.32	28.09
463.50	44.47
463.68	0.00
463.86	0.00
464.05	0.00
464.23	0.00
464.41	0.00
464.59	0.00
464.78	42.13
464.96	0.00
465.14	0.00
465.32	0.00
465.50	39.79
465.69	16.38
465.87	0.00
466.05	21.06
466.23	0.00
466.41	42.13
466.60	0.00
466.78	0.00
466.96	0.00
467.14	7.02
467.32	42.13
467.51	0.00
467.69	4.68
467.87	4.68
468.05	0.00
468.23	46.81
468.41	72.56
468.60	0.00
468.78	0.00
468.96	0.00
469.14	0.00
469.32	0.00
469.50	0.00
469.69	0.00
469.87	0.00
470.05	14.04
470.23	0.00
470.41	0.00
470.59	0.00
470.77	0.00
470.95	0.00
471.14	0.00
471.32	0.00
471.50	11.70
471.68	16.38
471.86	0.00
472.04	0.00
472.22	0.00
472.40	0.00
472.58	0.00
472.77	0.00
472.95	49.15
473.13	81.92
473.31	25.75
473.49	46.81
473.67	30.43
473.85	23.41
474.03	56.17
474.21	60.85
474.39	7.02
474.57	11.70
474.75	21.06
474.93	25.75
475.12	23.41
475.30	0.00
475.48	0.00
475.66	0.00
475.84	0.00
476.02	0.00
476.20	32.77
476.38	0.00
476.56	84.26
476.74	14.04
476.92	53.83
477.10	0.00
477.28	70.22
477.46	65.54
477.64	77.24
477.82	0.00
478.00	74.90
478.18	0.00
478.36	25.75
478.54	60.85
478.72	2.34
478.90	0.00
479.08	42.13
479.26	0.00
479.44	16.38
479.62	0.00
479.80	7.02
479.98	11.70
480.16	9.36
480.34	74.90
480.52	11.70
480.70	0.00
480.88	0.00
481.06	28.09
481.24	58.51
481.41	0.00
481.59	95.96
481.77	74.90
481.95	51.49
482.13	117.03
482.31	77.24
482.49	39.79
482.67	46.81
482.85	110.01
483.03	32.77
483.21	93.62
483.39	88.94
483.57	51.49
483.74	117.03
483.92	16.38
484.10	60.85
484.28	105.32
484.46	229.37
484.64	46.81
484.82	119.37
485.00	37.45
485.18	60.85
485.35	128.73
485.53	0.00
485.71	72.56
485.89	18.72
486.07	39.79
486.25	119.37
486.43	98.30
486.61	102.98
486.78	49.15
486.96	65.54
487.14	168.52
487.32	126.39
487.50	25.75
487.68	63.19
487.85	7.02
488.03	110.01
488.21	49.15
488.39	77.24
488.57	128.73
488.75	110.01
488.92	444.70
489.10	166.18
489.28	117.03
489.46	149.79
489.64	201.29
489.81	112.35
489.99	138.09
490.17	138.09
490.35	304.27
490.53	72.56
490.70	112.35
490.88	154.48
491.06	205.97
491.24	114.69
491.41	177.88
491.59	210.65
491.77	114.69
491.95	72.56
492.13	117.03
492.30	138.09
492.48	175.54
492.66	201.29
492.84	124.05
493.01	189.58
493.19	180.22
493.37	159.16
493.54	131.07
493.72	152.13
493.90	149.79
494.08	65.54
494.25	196.60
494.43	196.60
494.61	147.45
494.79	133.41
494.96	161.50
495.14	112.35
495.32	210.65
495.49	170.86
495.67	133.41
495.85	177.88
496.02	217.67
496.20	194.26
496.38	180.22
496.55	187.24
496.73	229.37
496.91	154.48
497.09	241.08
497.26	203.63
497.44	161.50
497.62	170.86
497.79	159.16
497.97	234.05
498.14	205.97
498.32	135.75
498.50	212.99
498.67	154.48
498.85	236.39
499.03	266.82
499.20	271.50
499.38	250.44
499.56	191.92
499.73	215.33
499.91	191.92
500.08	154.48
500.26	205.97
500.44	114.69
500.61	159.16
500.79	175.54
500.97	102.98
501.14	189.58
501.32	126.39
501.49	217.67
501.67	117.03
501.84	189.58
502.02	285.55
502.20	290.23
502.37	215.33
502.55	278.52
502.72	252.78
502.90	276.18
503.07	299.59
503.25	255.12
503.43	222.35
503.60	110.01
503.78	159.16
503.95	234.05
504.13	194.26
504.30	222.35
504.48	243.42
504.65	236.39
504.83	222.35
505.01	271.50
505.18	224.69
505.36	161.50
505.53	266.82
505.71	217.67
505.88	231.71
506.06	217.67
506.23	198.95
506.41	257.46
506.58	283.20
506.76	227.03
506.93	292.57
507.11	287.89
507.28	320.65
507.46	236.39
507.63	299.59
507.81	203.63
507.98	245.76
508.16	180.22
508.33	322.99
508.50	276.18
508.68	290.23
508.85	257.46
509.03	250.44
509.20	271.50
509.38	311.29
509.55	266.82
509.73	285.55
509.90	294.91
510.08	243.42
510.25	236.39
510.42	210.65
510.60	255.12
510.77	292.57
510.95	294.91
511.12	252.78
511.30	273.84
511.47	339.38
511.64	379.17
511.82	252.78
511.99	276.18
512.17	231.71
512.34	175.54
512.51	191.92
512.69	248.10
512.86	299.59
513.04	238.73
513.21	245.76
513.38	294.91
513.56	283.20
513.73	191.92
513.90	168.52
514.08	196.60
514.25	278.52
514.43	241.08
514.60	222.35
514.77	245.76
514.95	278.52
515.12	346.40
515.29	355.76
515.47	306.61
515.64	257.46
515.81	168.52
515.99	241.08
516.16	210.65
516.33	198.95
516.51	187.24
516.68	145.11
516.85	227.03
517.03	227.03
517.20	189.58
517.37	287.89
517.54	217.67
517.72	273.84
517.89	271.50
518.06	234.05
518.24	264.48
518.41	294.91
518.58	308.95
518.75	248.10
518.93	266.82
519.10	250.44
519.27	273.84
519.45	269.16
519.62	269.16
519.79	248.10
519.96	339.38
520.14	306.61
520.31	250.44
520.48	294.91
520.65	259.80
520.83	283.20
521.00	276.18
521.17	351.08
521.34	245.76
521.52	327.68
521.69	337.04
521.86	308.95
522.03	269.16
522.20	327.68
522.38	198.95
522.55	252.78
522.72	311.29
522.89	327.68
523.07	348.74
523.24	351.08
523.41	252.78
523.58	283.20
523.75	414.27
523.92	198.95
524.10	318.31
524.27	301.93
524.44	341.72
524.61	341.72
524.78	308.95
524.96	285.55
525.13	229.37
525.30	322.99
525.47	262.14
525.64	292.57
525.81	369.80
525.98	304.27
526.16	259.80
526.33	224.69
526.50	217.67
526.67	227.03
526.84	222.35
527.01	170.86
527.18	332.36
527.36	348.74
527.53	320.65
527.70	433.00
527.87	262.14
528.04	325.33
528.21	271.50
528.38	351.08
528.55	404.91
528.72	358.10
528.89	372.15
529.07	369.80
529.24	339.38
529.41	348.74
529.58	362.78
529.75	341.72
529.92	327.68
530.09	311.29
530.26	400.23
530.43	337.04
530.60	372.15
530.77	327.68
530.94	318.31
531.11	379.17
531.28	376.83
531.46	231.71
531.63	397.89
531.80	348.74
531.97	348.74
532.14	269.16
532.31	325.33
532.48	304.27
532.65	348.74
532.82	205.97
532.99	351.08
533.16	301.93
533.33	374.49
533.50	313.63
533.67	355.76
533.84	332.36
534.01	367.46
534.18	308.95
534.35	374.49
534.52	315.97
534.69	437.68
534.86	369.80
535.03	358.10
535.20	365.12
535.37	374.49
535.54	374.49
535.71	365.12
535.88	388.53
536.05	315.97
536.22	337.04
536.38	311.29
536.55	236.39
536.72	376.83
536.89	414.27
537.06	311.29
537.23	341.72
537.40	390.87
537.57	271.50
537.74	315.97
537.91	376.83
538.08	341.72
538.25	372.15
538.42	339.38
538.59	390.87
538.75	332.36
538.92	386.19
539.09	304.27
539.26	304.27
539.43	358.10
539.60	334.70
539.77	334.70
539.94	362.78
540.11	308.95
540.28	255.12
540.44	341.72
540.61	313.63
540.78	313.63
540.95	271.50
541.12	376.83
541.29	369.80
541.46	407.25
541.62	404.91
541.79	346.40
541.96	353.42
542.13	327.68
542.30	273.84
542.47	332.36
542.63	351.08
542.80	376.83
542.97	315.97
543.14	355.76
543.31	353.42
543.48	238.73
543.64	278.52
543.81	353.42
543.98	283.20
544.15	292.57
544.32	330.02
544.48	362.78
544.65	294.91
544.82	283.20
544.99	421.30
545.16	330.02
545.32	248.10
545.49	297.25
545.66	283.20
545.83	292.57
546.00	337.04
546.16	313.63
546.33	337.04
546.50	332.36
546.67	430.66
546.83	299.59
547.00	346.40
547.17	255.12
547.34	278.52
547.50	386.19
547.67	278.52
547.84	414.27
548.00	369.80
548.17	269.16
548.34	344.06
548.51	486.83
548.67	383.85
548.84	294.91
549.01	484.49
549.18	407.25
549.34	348.74
549.51	367.46
549.68	367.46
549.84	283.20
550.01	334.70
550.18	475.13
550.34	365.12
550.51	390.87
550.68	433.00
550.84	351.08
551.01	341.72
551.18	404.91
551.34	360.44
551.51	294.91
551.68	344.06
551.84	411.93
552.01	299.59
552.18	325.33
552.34	402.57
552.51	367.46
552.68	400.23
552.84	255.12
553.01	341.72
553.18	311.29
553.34	332.36
553.51	327.68
553.67	351.08
553.84	409.59
554.01	318.31
554.17	360.44
554.34	369.80
554.51	332.36
554.67	355.76
554.84	383.85
555.00	313.63
555.17	395.55
555.33	449.38
555.50	372.15
555.67	393.21
555.83	346.40
556.00	334.70
556.16	561.73
556.33	362.78
556.50	290.23
556.66	332.36
556.83	330.02
556.99	344.06
557.16	334.70
557.32	304.27
557.49	285.55
557.65	301.93
557.82	320.65
557.98	367.46
558.15	332.36
558.32	278.52
558.48	320.65
558.65	325.33
558.81	360.44
558.98	311.29
559.14	208.31
559.31	360.44
559.47	365.12
559.64	285.55
559.80	241.08
559.97	299.59
560.13	320.65
560.30	376.83
560.46	386.19
560.63	311.29
560.79	341.72
560.96	344.06
561.12	367.46
561.29	299.59
561.45	330.02
561.61	330.02
561.78	498.53
561.94	297.25
562.11	330.02
562.27	334.70
562.44	341.72
562.60	360.44
562.77	315.97
562.93	418.96
563.10	360.44
563.26	292.57
563.42	440.02
563.59	367.46
563.75	311.29
563.92	271.50
564.08	339.38
564.24	418.96
564.41	437.68
564.57	318.31
564.74	327.68
564.90	290.23
565.07	362.78
565.23	425.98
565.39	264.48
565.56	271.50
565.72	320.65
565.88	285.55
566.05	306.61
566.21	362.78
566.38	320.65
566.54	360.44
566.70	414.27
566.87	383.85
567.03	322.99
567.19	386.19
567.36	294.91
567.52	414.27
567.68	451.72
567.85	264.48
568.01	311.29
568.17	248.10
568.34	301.93
568.50	400.23
568.66	306.61
568.83	461.09
568.99	271.50
569.15	390.87
569.32	313.63
569.48	255.12
569.64	315.97
569.81	287.89
569.97	299.59
570.13	311.29
570.30	308.95
570.46	290.23
570.62	308.95
570.78	252.78
570.95	280.86
571.11	358.10
571.27	376.83
571.43	201.29
571.60	259.80
571.76	280.86
571.92	428.32
572.09	327.68
572.25	320.65
572.41	388.53
572.57	315.97
572.74	404.91
572.90	344.06
573.06	236.39
573.22	330.02
573.38	409.59
573.55	379.17
573.71	372.15
573.87	320.65
574.03	358.10
574.20	266.82
574.36	360.44
574.52	353.42
574.68	365.12
574.84	353.42
575.01	360.44
575.17	283.20
575.33	355.76
575.49	346.40
575.65	374.49
575.82	264.48
575.98	437.68
576.14	264.48
576.30	290.23
576.46	383.85
576.62	287.89
576.79	292.57
576.95	339.38
577.11	376.83
577.27	313.63
577.43	311.29
577.59	318.31
577.75	376.83
577.92	271.50
578.08	257.46
578.24	280.86
578.40	386.19
578.56	332.36
578.72	374.49
578.88	304.27
579.04	308.95
579.21	381.51
579.37	351.08
579.53	276.18
579.69	334.70
579.85	283.20
580.01	322.99
580.17	292.57
580.33	318.31
580.49	285.55
580.65	243.42
580.82	404.91
580.98	238.73
581.14	290.23
581.30	248.10
581.46	322.99
581.62	351.08
581.78	255.12
581.94	285.55
582.10	266.82
582.26	311.29
582.42	285.55
582.58	355.76
582.74	285.55
582.90	269.16
583.06	301.93
583.22	430.66
583.38	369.80
583.54	355.76
583.70	341.72
583.86	369.80
584.02	353.42
584.18	358.10
584.34	362.78
584.50	348.74
584.66	334.70
584.82	315.97
584.98	341.72
585.14	266.82
585.30	339.38
585.46	290.23
585.62	322.99
585.78	269.16
585.94	327.68
586.10	297.25
586.26	318.31
586.42	337.04
586.58	348.74
586.74	264.48
586.90	344.06
587.06	299.59
587.22	344.06
587.38	287.89
587.54	250.44
587.70	306.61
587.86	308.95
588.02	208.31
588.18	313.63
588.34	224.69
588.49	231.71
588.65	313.63
588.81	168.52
588.97	194.26
589.13	271.50
589.29	299.59
589.45	229.37
589.61	292.57
589.77	259.80
589.93	229.37
590.08	299.59
590.24	184.90
590.40	287.89
590.56	318.31
590.72	191.92
590.88	212.99
591.04	322.99
591.20	351.08
591.35	409.59
591.51	341.72
591.67	259.80
591.83	222.35
591.99	259.80
592.15	339.38
592.31	220.01
592.46	257.46
592.62	327.68
592.78	304.27
592.94	278.52
593.10	290.23
593.26	301.93
593.41	224.69
593.57	208.31
593.73	227.03
593.89	257.46
594.05	273.84
594.20	294.91
594.36	297.25
594.52	184.90
594.68	231.71
594.84	299.59
594.99	334.70
595.15	273.84
595.31	322.99
595.47	397.89
595.62	299.59
595.78	360.44
595.94	299.59
596.10	264.48
596.25	163.84
596.41	248.10
596.57	273.84
596.73	245.76
596.88	334.70
597.04	224.69
597.20	255.12
597.36	285.55
597.51	231.71
597.67	245.76
597.83	255.12
597.99	355.76
598.14	327.68
598.30	320.65
598.46	315.97
598.61	217.67
598.77	299.59
598.93	252.78
599.09	318.31
599.24	311.29
599.40	416.62
599.56	259.80
599.71	344.06
599.87	234.05
600.03	269.16
600.18	212.99
600.34	337.04
600.50	238.73
600.65	362.78
600.81	292.57
600.97	283.20
601.12	301.93
601.28	290.23
601.44	241.08
601.59	243.42
601.75	276.18
601.91	325.33
602.06	266.82
602.22	362.78
602.37	372.15
602.53	250.44
602.69	301.93
602.84	173.20
603.00	315.97
603.16	269.16
603.31	287.89
603.47	269.16
603.62	271.50
603.78	262.14
603.94	273.84
604.09	243.42
604.25	271.50
604.40	348.74
604.56	245.76
604.71	308.95
604.87	231.71
605.03	311.29
605.18	351.08
605.34	308.95
605.49	353.42
605.65	308.95
605.80	280.86
605.96	229.37
606.12	259.80
606.27	351.08
606.43	346.40
606.58	318.31
606.74	234.05
606.89	292.57
607.05	367.46
607.20	259.80
607.36	203.63
607.51	175.54
607.67	222.35
607.82	285.55
607.98	276.18
608.13	238.73
608.29	243.42
608.44	339.38
608.60	220.01
608.75	318.31
608.91	287.89
609.06	344.06
609.22	304.27
609.37	332.36
609.53	175.54
609.68	222.35
609.84	212.99
609.99	255.12
610.15	318.31
610.30	287.89
610.46	271.50
610.61	234.05
610.76	276.18
610.92	259.80
611.07	273.84
611.23	301.93
611.38	301.93
611.54	259.80
611.69	191.92
611.84	273.84
612.00	259.80
612.15	224.69
612.31	156.82
612.46	269.16
612.62	203.63
612.77	287.89
612.92	234.05
613.08	215.33
613.23	205.97
613.39	299.59
613.54	217.67
613.69	231.71
613.85	189.58
614.00	210.65
614.15	198.95
614.31	187.24
614.46	189.58
614.62	222.35
614.77	259.80
614.92	231.71
615.08	168.52
615.23	248.10
615.38	173.20
615.54	198.95
615.69	184.90
615.84	205.97
616.00	236.39
616.15	145.11
616.30	187.24
616.46	191.92
616.61	163.84
616.76	287.89
616.92	245.76
617.07	259.80
617.22	248.10
617.37	170.86
617.53	257.46
617.68	243.42
617.83	208.31
617.99	248.10
618.14	315.97
618.29	220.01
618.45	276.18
618.60	184.90
618.75	201.29
618.90	278.52
619.06	250.44
619.21	252.78
619.36	252.78
619.51	227.03
619.67	184.90
619.82	290.23
619.97	217.67
620.12	322.99
620.28	248.10
620.43	236.39
620.58	301.93
620.73	252.78
620.89	217.67
621.04	255.12
621.19	280.86
621.34	227.03
621.49	212.99
621.65	266.82
621.80	210.65
621.95	170.86
622.10	297.25
622.25	203.63
622.41	222.35
622.56	198.95
622.71	208.31
622.86	198.95
623.01	187.24
623.16	222.35
623.32	173.20
623.47	238.73
623.62	229.37
623.77	215.33
623.92	182.56
624.07	236.39
624.23	201.29
624.38	124.05
624.53	278.52
624.68	201.29
624.83	224.69
624.98	322.99
625.13	112.35
625.29	98.30
625.44	175.54
625.59	131.07
625.74	234.05
625.89	182.56
626.04	110.01
626.19	112.35
626.34	107.66
626.49	266.82
626.65	175.54
626.80	159.16
626.95	201.29
627.10	140.43
627.25	159.16
627.40	105.32
627.55	114.69
627.70	131.07
627.85	166.18
628.00	229.37
628.15	173.20
628.30	161.50
628.45	126.39
628.60	173.20
628.76	156.82
628.91	121.71
629.06	175.54
629.21	145.11
629.36	231.71
629.51	126.39
629.66	126.39
629.81	138.09
629.96	147.45
630.11	182.56
630.26	257.46
630.41	224.69
630.56	271.50
630.71	177.88
630.86	159.16
631.01	117.03
631.16	95.96
631.31	287.89
631.46	138.09
631.61	121.71
631.76	159.16
631.91	180.22
632.06	184.90
632.21	220.01
632.36	189.58
632.51	138.09
632.66	147.45
632.81	187.24
632.96	177.88
633.10	220.01
633.25	156.82
633.40	149.79
633.55	107.66
633.70	124.05
633.85	173.20
634.00	147.45
634.15	135.75
634.30	215.33
634.45	220.01
634.60	102.98
634.75	147.45
634.90	133.41
635.05	163.84
635.19	194.26
635.34	166.18
635.49	124.05
635.64	126.39
635.79	112.35
635.94	180.22
636.09	238.73
636.24	205.97
636.39	102.98
636.53	187.24
636.68	184.90
636.83	203.63
636.98	255.12
637.13	163.84
637.28	238.73
637.43	283.20
637.57	184.90
637.72	212.99
637.87	227.03
638.02	126.39
638.17	177.88
638.32	203.63
638.46	156.82
638.61	217.67
638.76	105.32
638.91	95.96
639.06	147.45
639.20	159.16
639.35	166.18
639.50	152.13
639.65	175.54
639.80	112.35
639.94	208.31
640.09	166.18
640.24	255.12
640.39	205.97
640.54	212.99
640.68	182.56
640.83	170.86
640.98	212.99
641.13	196.60
641.27	234.05
641.42	191.92
641.57	215.33
641.72	166.18
641.86	212.99
642.01	152.13
642.16	145.11
642.31	124.05
642.45	173.20
642.60	180.22
642.75	161.50
642.90	138.09
643.04	74.90
643.19	149.79
643.34	126.39
643.48	182.56
643.63	91.28
643.78	180.22
643.93	163.84
644.07	86.60
644.22	149.79
644.37	58.51
644.51	180.22
644.66	159.16
644.81	175.54
644.95	138.09
645.10	138.09
645.25	65.54
645.39	149.79
645.54	163.84
645.69	205.97
645.83	60.85
645.98	271.50
646.13	65.54
646.27	177.88
646.42	166.18
646.57	121.71
646.71	182.56
646.86	173.20
647.00	112.35
647.15	168.52
647.30	11.70
647.44	56.17
647.59	119.37
647.74	170.86
647.88	175.54
648.03	102.98
648.17	100.64
648.32	131.07
648.47	124.05
648.61	194.26
648.76	166.18
648.90	102.98
649.05	65.54
649.20	70.22
649.34	67.88
649.49	107.66
649.63	100.64
649.78	91.28
649.92	70.22
650.07	133.41
650.21	88.94
650.36	154.48
650.51	91.28
650.65	184.90
650.80	180.22
650.94	23.41
651.09	60.85
651.23	163.84
651.38	135.75
651.52	194.26
651.67	107.66
651.81	182.56
651.96	259.80
652.10	114.69
652.25	60.85
652.39	154.48
652.54	114.69
652.68	74.90
652.83	119.37
652.97	93.62
653.12	170.86
653.26	58.51
653.41	152.13
653.55	133.41
653.70	65.54
653.84	166.18
653.99	105.32
654.13	133.41
654.27	119.37
654.42	58.51
654.56	65.54
654.71	142.77
654.85	35.11
655.00	105.32
655.14	88.94
655.29	42.13
655.43	70.22
655.57	32.77
655.72	56.17
655.86	39.79
656.01	30.43
656.15	35.11
656.30	149.79
656.44	126.39
656.58	79.58
656.73	53.83
656.87	91.28
657.01	121.71
657.16	135.75
657.30	37.45
657.45	133.41
657.59	128.73
657.73	86.60
657.88	44.47
658.02	248.10
658.16	175.54
658.31	110.01
658.45	37.45
658.60	86.60
658.74	30.43
658.88	56.17
659.03	88.94
659.17	67.88
659.31	131.07
659.46	74.90
659.60	98.30
659.74	81.92
659.89	93.62
660.03	112.35
660.17	210.65
660.32	145.11
660.46	86.60
660.60	86.60
660.74	102.98
660.89	39.79
661.03	67.88
661.17	39.79
661.32	102.98
661.46	60.85
661.60	105.32
661.74	53.83
661.89	98.30
662.03	84.26
662.17	86.60
662.31	51.49
662.46	18.72
662.60	72.56
662.74	135.75
662.88	131.07
663.03	39.79
663.17	56.17
663.31	0.00
663.45	100.64
663.60	56.17
663.74	51.49
663.88	65.54
664.02	102.98
664.17	51.49
664.31	67.88
664.45	93.62
664.59	74.90
664.73	63.19
664.88	100.64
665.02	110.01
665.16	42.13
665.30	95.96
665.44	51.49
665.59	124.05
665.73	91.28
665.87	77.24
666.01	105.32
666.15	2.34
666.29	112.35
666.44	32.77
666.58	100.64
666.72	70.22
666.86	91.28
667.00	56.17
667.14	44.47
667.28	35.11
667.43	4.68
667.57	42.13
667.71	7.02
667.85	102.98
667.99	121.71
668.13	117.03
668.27	142.77
668.41	187.24
668.56	28.09
668.70	133.41
668.84	25.75
668.98	93.62
669.12	11.70
669.26	79.58
669.40	95.96
669.54	86.60
669.68	67.88
669.82	70.22
669.96	32.77
670.10	124.05
670.25	77.24
670.39	51.49
670.53	0.00
670.67	98.30
670.81	0.00
670.95	46.81
671.09	63.19
671.23	77.24
671.37	112.35
671.51	117.03
671.65	53.83
671.79	39.79
671.93	37.45
672.07	67.88
672.21	81.92
672.35	0.00
672.49	0.00
672.63	88.94
672.77	77.24
672.91	0.00
673.05	86.60
673.19	23.41
673.33	0.00
673.47	58.51
673.61	0.00
673.75	0.00
673.89	46.81
674.03	35.11
674.17	4.68
674.31	84.26
674.45	23.41
674.59	32.77
674.73	56.17
674.87	37.45
675.01	28.09
675.15	37.45
675.29	72.56
675.43	114.69
675.56	74.90
675.70	42.13
675.84	4.68
675.98	93.62
676.12	0.00
676.26	0.00
676.40	46.81
676.54	21.06
676.68	58.51
676.82	0.00
676.96	0.00
677.10	0.00
677.23	0.00
677.37	0.00
677.51	0.00
677.65	124.05
677.79	39.79
677.93	0.00
678.07	2.34
678.21	0.00
678.34	0.00
678.48	51.49
678.62	0.00
678.76	0.00
678.90	11.70
679.04	0.00
679.18	0.00
679.31	9.36
679.45	0.00
679.59	9.36
679.73	16.38
679.87	42.13
680.00	0.00
680.14	0.00
680.28	70.22
680.42	0.00
680.56	0.00
680.70	37.45
680.83	35.11
680.97	30.43
681.11	0.00
681.25	37.45
681.39	23.41
681.52	0.00
681.66	0.00
681.80	0.00
681.94	7.02
682.07	2.34
682.21	0.00
682.35	0.00
682.49	0.00
682.62	42.13
682.76	0.00
682.90	35.11
683.04	56.17
683.17	46.81
683.31	0.00
683.45	93.62
683.59	0.00
683.72	51.49
683.86	9.36
684.00	0.00
684.13	0.00
684.27	0.00
684.41	91.28
684.55	0.00
684.68	0.00
684.82	0.00
684.96	0.00
685.09	0.00
685.23	0.00
685.37	0.00
685.50	9.36
685.64	0.00
685.78	0.00
685.91	0.00
686.05	0.00
686.19	37.45
686.32	0.00
686.46	0.00
686.60	0.00
686.73	42.13
686.87	0.00
687.01	0.00
687.14	0.00
687.28	0.00
687.42	0.00
687.55	0.00
687.69	0.00
687.82	0.00
687.96	0.00
688.10	35.11
688.23	0.00
688.37	0.00
688.50	35.11
688.64	0.00
688.78	0.00
688.91	0.00
689.05	0.00
689.18	0.00
689.32	0.00
689.46	0.00
689.59	0.00
689.73	0.00
689.86	0.00
690.00	0.00
690.13	0.00
690.27	0.00
690.41	0.00
690.54	0.00
690.68	0.00
690.81	0.00
690.95	0.00
691.08	0.00
691.22	0.00
691.35	0.00
691.49	0.00
691.62	0.00
691.76	0.00
691.89	0.00
692.03	0.00
692.16	0.00
692.30	0.00
692.43	0.00
692.57	0.00
692.70	0.00
692.84	0.00
692.97	0.00
693.11	0.00
693.24	0.00
693.38	0.00
693.51	0.00
693.65	0.00
693.78	0.00
693.92	0.00
694.05	0.00
694.19	0.00
694.32	0.00
694.45	0.00
694.59	0.00
694.72	0.00
694.86	0.00
694.99	0.00
695.13	0.00
695.26	0.00
695.39	0.00
695.53	16.38
695.66	0.00
695.80	16.38
695.93	0.00
696.07	0.00
696.20	0.00
696.33	0.00
696.47	0.00
696.60	0.00
696.73	0.00
696.87	0.00
697.00	0.00
697.14	0.00
697.27	0.00
697.40	46.81
697.54	0.00
697.67	0.00
697.80	0.00
697.94	0.00
698.07	0.00
698.21	0.00
698.34	0.00
698.47	0.00
698.61	0.00
698.74	0.00
698.87	0.00
699.01	0.00
699.14	0.00
699.27	0.00
699.40	49.15
699.54	0.00
699.67	0.00
699.80	0.00
699.94	0.00
700.07	0.00
700.20	0.00
700.34	0.00
700.47	0.00
700.60	0.00
700.73	0.00
700.87	0.00
701.00	0.00
701.13	0.00
701.26	0.00
701.40	0.00
701.53	0.00
701.66	0.00
701.79	0.00
701.93	0.00
702.06	0.00
702.19	0.00
702.32	0.00
702.46	0.00
702.59	0.00
702.72	0.00
702.85	0.00
702.99	0.00
703.12	0.00
703.25	0.00
703.38	0.00
703.51	0.00
703.65	0.00
703.78	0.00
703.91	0.00
704.04	0.00
704.17	0.00
704.31	0.00
704.44	0.00
704.57	0.00
704.70	0.00
704.83	0.00
704.96	0.00
705.10	0.00
705.23	0.00
>>>>>End Processed Spectral Data<<<<<
