SpectraSuite Data File
++++++++++++++++++++++++++++++++++++
Date: Mon Oct 07 15:01:12 GMT-05:00 2013
User: price-jones
Dark Spectrum Present: No
Reference Spectrum Present: No
Number of Sampled Component Spectra: 1
Spectrometers: USB2+H05261
Integration Time (usec): 10000 (USB2+H05261)
Spectra Averaged: 1 (USB2+H05261)
Boxcar Smoothing: 0 (USB2+H05261)
Correct for Electrical Dark: No (USB2+H05261)
Strobe/Lamp Enabled: No (USB2+H05261)
Correct for Detector Non-linearity: No (USB2+H05261)
Correct for Stray Light: No (USB2+H05261)
Number of Pixels in Processed Spectrum: 2048
>>>>>Begin Processed Spectral Data<<<<<
365.73	0.00
365.92	0.00
366.12	0.00
366.32	0.00
366.52	0.00
366.72	0.00
366.91	0.00
367.11	0.00
367.31	0.00
367.51	0.00
367.70	0.00
367.90	0.00
368.10	0.00
368.30	0.00
368.49	0.00
368.69	0.00
368.89	0.00
369.09	0.00
369.28	0.00
369.48	0.00
369.68	0.00
369.87	0.00
370.07	0.00
370.27	0.00
370.47	0.00
370.66	0.00
370.86	0.00
371.06	0.00
371.25	0.00
371.45	0.00
371.65	0.00
371.84	0.00
372.04	0.00
372.24	0.00
372.44	0.00
372.63	0.00
372.83	0.00
373.03	0.00
373.22	0.00
373.42	0.00
373.62	0.00
373.81	0.00
374.01	0.00
374.21	0.00
374.40	0.00
374.60	0.00
374.79	0.00
374.99	0.00
375.19	0.00
375.38	0.00
375.58	0.00
375.78	0.00
375.97	0.00
376.17	0.00
376.37	0.00
376.56	0.00
376.76	0.00
376.95	0.00
377.15	0.00
377.35	0.00
377.54	0.00
377.74	0.00
377.93	0.00
378.13	0.00
378.33	0.00
378.52	0.00
378.72	0.00
378.91	0.00
379.11	0.00
379.31	0.00
379.50	0.00
379.70	0.00
379.89	0.00
380.09	0.00
380.28	0.00
380.48	0.00
380.68	0.00
380.87	0.00
381.07	0.00
381.26	0.00
381.46	0.00
381.65	0.00
381.85	0.00
382.04	0.00
382.24	0.00
382.43	0.00
382.63	0.00
382.83	0.00
383.02	0.00
383.22	0.00
383.41	0.00
383.61	0.00
383.80	0.00
384.00	0.00
384.19	0.00
384.39	0.00
384.58	0.00
384.78	0.00
384.97	0.00
385.17	0.00
385.36	0.00
385.56	0.00
385.75	0.00
385.95	0.00
386.14	0.00
386.34	0.00
386.53	0.00
386.72	0.00
386.92	0.00
387.11	0.00
387.31	0.00
387.50	0.00
387.70	0.00
387.89	0.00
388.09	0.00
388.28	0.00
388.48	0.00
388.67	0.00
388.86	0.00
389.06	0.00
389.25	0.00
389.45	0.00
389.64	0.00
389.84	0.00
390.03	0.00
390.22	0.00
390.42	0.00
390.61	0.00
390.81	0.00
391.00	0.00
391.19	0.00
391.39	0.00
391.58	0.00
391.78	0.00
391.97	0.00
392.16	0.00
392.36	0.00
392.55	0.00
392.75	0.00
392.94	0.00
393.13	0.00
393.33	0.00
393.52	0.00
393.71	0.00
393.91	0.00
394.10	0.00
394.29	0.00
394.49	0.00
394.68	0.00
394.88	0.00
395.07	0.00
395.26	0.00
395.46	0.00
395.65	0.00
395.84	0.00
396.04	0.00
396.23	0.00
396.42	0.00
396.62	0.00
396.81	0.00
397.00	0.00
397.19	0.00
397.39	0.00
397.58	0.00
397.77	0.00
397.97	0.00
398.16	0.00
398.35	0.00
398.55	0.00
398.74	0.00
398.93	0.00
399.12	0.00
399.32	0.00
399.51	0.00
399.70	0.00
399.90	0.00
400.09	0.00
400.28	0.00
400.47	0.00
400.67	0.00
400.86	0.00
401.05	0.00
401.24	0.00
401.44	0.00
401.63	0.00
401.82	0.00
402.01	0.00
402.21	0.00
402.40	0.00
402.59	0.00
402.78	0.00
402.97	0.00
403.17	0.00
403.36	0.00
403.55	0.00
403.74	0.00
403.93	0.00
404.13	0.00
404.32	0.00
404.51	0.00
404.70	0.00
404.89	0.00
405.09	0.00
405.28	0.00
405.47	0.00
405.66	0.00
405.85	0.00
406.05	0.00
406.24	0.00
406.43	0.00
406.62	0.00
406.81	0.00
407.00	0.00
407.20	0.00
407.39	0.00
407.58	0.00
407.77	0.00
407.96	0.00
408.15	0.00
408.34	0.00
408.54	0.00
408.73	0.00
408.92	0.00
409.11	0.00
409.30	0.00
409.49	0.00
409.68	0.00
409.87	0.00
410.07	0.00
410.26	0.00
410.45	0.00
410.64	0.00
410.83	0.00
411.02	0.00
411.21	0.00
411.40	0.00
411.59	0.00
411.78	0.00
411.98	0.00
412.17	0.00
412.36	0.00
412.55	0.00
412.74	0.00
412.93	0.00
413.12	0.00
413.31	0.00
413.50	0.00
413.69	0.00
413.88	0.00
414.07	0.00
414.26	0.00
414.45	0.00
414.64	0.00
414.83	0.00
415.02	0.00
415.22	0.00
415.41	0.00
415.60	0.00
415.79	0.00
415.98	0.00
416.17	0.00
416.36	0.00
416.55	0.00
416.74	0.00
416.93	0.00
417.12	0.00
417.31	0.00
417.50	0.00
417.69	0.00
417.88	0.00
418.07	0.00
418.26	0.00
418.45	0.00
418.64	0.00
418.83	0.00
419.02	0.00
419.21	0.00
419.39	0.00
419.58	0.00
419.77	0.00
419.96	0.00
420.15	0.00
420.34	0.00
420.53	0.00
420.72	0.00
420.91	0.00
421.10	0.00
421.29	0.00
421.48	0.00
421.67	0.00
421.86	0.00
422.05	0.00
422.24	0.00
422.43	0.00
422.61	0.00
422.80	0.00
422.99	0.00
423.18	0.00
423.37	0.00
423.56	0.00
423.75	0.00
423.94	0.00
424.13	0.00
424.32	0.00
424.50	0.00
424.69	0.00
424.88	0.00
425.07	0.00
425.26	0.00
425.45	0.00
425.64	0.00
425.83	0.00
426.01	0.00
426.20	0.00
426.39	0.00
426.58	0.00
426.77	0.00
426.96	0.00
427.15	0.00
427.33	0.00
427.52	0.00
427.71	0.00
427.90	0.00
428.09	0.00
428.28	0.00
428.46	0.00
428.65	0.00
428.84	0.00
429.03	0.00
429.22	0.00
429.40	0.00
429.59	0.00
429.78	0.00
429.97	0.00
430.16	0.00
430.34	0.00
430.53	0.00
430.72	0.00
430.91	0.00
431.10	0.00
431.28	0.00
431.47	0.00
431.66	0.00
431.85	0.00
432.03	0.00
432.22	0.00
432.41	0.00
432.60	0.00
432.79	0.00
432.97	0.00
433.16	0.00
433.35	0.00
433.54	0.00
433.72	0.00
433.91	0.00
434.10	0.00
434.28	0.00
434.47	0.00
434.66	0.00
434.85	0.00
435.03	0.00
435.22	0.00
435.41	0.00
435.59	0.00
435.78	0.00
435.97	0.00
436.16	0.00
436.34	0.00
436.53	0.00
436.72	0.00
436.90	0.00
437.09	0.00
437.28	0.00
437.46	0.00
437.65	0.00
437.84	0.00
438.02	0.00
438.21	0.00
438.40	0.00
438.58	0.00
438.77	0.00
438.96	0.00
439.14	0.00
439.33	0.00
439.52	0.00
439.70	0.00
439.89	0.00
440.08	0.00
440.26	0.00
440.45	0.00
440.63	0.00
440.82	0.00
441.01	0.00
441.19	0.00
441.38	0.00
441.57	0.00
441.75	0.00
441.94	0.00
442.12	0.00
442.31	0.00
442.50	0.00
442.68	0.00
442.87	0.00
443.05	0.00
443.24	0.00
443.43	0.00
443.61	0.00
443.80	0.00
443.98	0.00
444.17	0.00
444.35	0.00
444.54	0.00
444.73	0.00
444.91	0.00
445.10	0.00
445.28	0.00
445.47	0.00
445.65	0.00
445.84	0.00
446.02	0.00
446.21	0.00
446.39	0.00
446.58	0.00
446.77	0.00
446.95	0.00
447.14	0.00
447.32	0.00
447.51	0.00
447.69	0.00
447.88	0.00
448.06	0.00
448.25	0.00
448.43	0.00
448.62	0.00
448.80	0.00
448.99	0.00
449.17	0.00
449.36	0.00
449.54	0.00
449.73	0.00
449.91	0.00
450.10	0.00
450.28	0.00
450.46	0.00
450.65	0.00
450.83	0.00
451.02	0.00
451.20	0.00
451.39	0.00
451.57	0.00
451.76	0.00
451.94	0.00
452.13	0.00
452.31	0.00
452.49	0.00
452.68	0.00
452.86	0.00
453.05	0.00
453.23	0.00
453.42	0.00
453.60	0.00
453.78	0.00
453.97	0.00
454.15	0.00
454.34	0.00
454.52	0.00
454.70	0.00
454.89	0.00
455.07	0.00
455.26	0.00
455.44	0.00
455.62	0.00
455.81	0.00
455.99	0.00
456.17	0.00
456.36	0.00
456.54	0.00
456.73	0.00
456.91	0.00
457.09	0.00
457.28	0.00
457.46	0.00
457.64	0.00
457.83	0.00
458.01	0.00
458.19	0.00
458.38	0.00
458.56	0.00
458.74	0.00
458.93	0.00
459.11	0.00
459.29	0.00
459.48	0.00
459.66	0.00
459.84	0.00
460.03	0.00
460.21	0.00
460.39	0.00
460.57	0.00
460.76	0.00
460.94	0.00
461.12	0.00
461.31	0.00
461.49	0.00
461.67	0.00
461.85	0.00
462.04	0.00
462.22	0.00
462.40	0.00
462.59	0.00
462.77	0.00
462.95	0.00
463.13	0.00
463.32	0.00
463.50	0.00
463.68	0.00
463.86	0.00
464.05	0.00
464.23	0.00
464.41	0.00
464.59	0.00
464.78	0.00
464.96	0.00
465.14	0.00
465.32	0.00
465.50	0.00
465.69	0.00
465.87	0.00
466.05	0.00
466.23	0.00
466.41	0.00
466.60	0.00
466.78	0.00
466.96	0.00
467.14	0.00
467.32	0.00
467.51	0.00
467.69	0.00
467.87	0.00
468.05	0.00
468.23	0.00
468.41	0.00
468.60	0.00
468.78	0.00
468.96	0.00
469.14	0.00
469.32	0.00
469.50	0.00
469.69	0.00
469.87	0.00
470.05	0.00
470.23	0.00
470.41	0.00
470.59	0.00
470.77	0.00
470.95	0.00
471.14	0.00
471.32	0.00
471.50	0.00
471.68	0.00
471.86	0.00
472.04	0.00
472.22	0.00
472.40	0.00
472.58	0.00
472.77	0.00
472.95	0.00
473.13	0.00
473.31	0.00
473.49	0.00
473.67	0.00
473.85	0.00
474.03	0.00
474.21	0.00
474.39	0.00
474.57	0.00
474.75	0.00
474.93	0.00
475.12	0.00
475.30	0.00
475.48	0.00
475.66	0.00
475.84	0.00
476.02	0.00
476.20	0.00
476.38	0.00
476.56	0.00
476.74	0.00
476.92	0.00
477.10	0.00
477.28	0.00
477.46	0.00
477.64	0.00
477.82	0.00
478.00	0.00
478.18	0.00
478.36	0.00
478.54	0.00
478.72	0.00
478.90	0.00
479.08	0.00
479.26	0.00
479.44	0.00
479.62	0.00
479.80	0.00
479.98	0.00
480.16	0.00
480.34	0.00
480.52	0.00
480.70	0.00
480.88	0.00
481.06	0.00
481.24	0.00
481.41	0.00
481.59	0.00
481.77	0.00
481.95	0.00
482.13	0.00
482.31	0.00
482.49	0.00
482.67	0.00
482.85	0.00
483.03	0.00
483.21	0.00
483.39	0.00
483.57	0.00
483.74	0.00
483.92	0.00
484.10	0.00
484.28	0.00
484.46	0.00
484.64	0.00
484.82	0.00
485.00	0.00
485.18	0.00
485.35	0.00
485.53	0.00
485.71	0.00
485.89	0.00
486.07	0.00
486.25	0.00
486.43	0.00
486.61	0.00
486.78	0.00
486.96	0.00
487.14	0.00
487.32	0.00
487.50	0.00
487.68	0.00
487.85	0.00
488.03	0.00
488.21	0.00
488.39	0.00
488.57	0.00
488.75	0.00
488.92	0.00
489.10	0.00
489.28	0.00
489.46	0.00
489.64	0.00
489.81	0.00
489.99	0.00
490.17	0.00
490.35	0.00
490.53	0.00
490.70	0.00
490.88	0.00
491.06	0.00
491.24	0.00
491.41	0.00
491.59	0.00
491.77	0.00
491.95	0.00
492.13	0.00
492.30	0.00
492.48	0.00
492.66	0.00
492.84	0.00
493.01	0.00
493.19	0.00
493.37	0.00
493.54	0.00
493.72	0.00
493.90	0.00
494.08	0.00
494.25	0.00
494.43	0.00
494.61	0.00
494.79	0.00
494.96	0.00
495.14	0.00
495.32	0.00
495.49	0.00
495.67	0.00
495.85	0.00
496.02	0.00
496.20	0.00
496.38	0.00
496.55	0.00
496.73	0.00
496.91	0.00
497.09	0.00
497.26	0.00
497.44	0.00
497.62	0.00
497.79	0.00
497.97	0.00
498.14	0.00
498.32	0.00
498.50	0.00
498.67	0.00
498.85	0.00
499.03	0.00
499.20	0.00
499.38	0.00
499.56	0.00
499.73	0.00
499.91	0.00
500.08	0.00
500.26	0.00
500.44	0.00
500.61	0.00
500.79	0.00
500.97	0.00
501.14	0.00
501.32	0.00
501.49	0.00
501.67	0.00
501.84	0.00
502.02	0.00
502.20	0.00
502.37	0.00
502.55	0.00
502.72	0.00
502.90	0.00
503.07	0.00
503.25	0.00
503.43	0.00
503.60	0.00
503.78	0.00
503.95	0.00
504.13	0.00
504.30	0.00
504.48	0.00
504.65	0.00
504.83	0.00
505.01	0.00
505.18	0.00
505.36	0.00
505.53	0.00
505.71	0.00
505.88	0.00
506.06	0.00
506.23	0.00
506.41	0.00
506.58	0.00
506.76	0.00
506.93	0.00
507.11	0.00
507.28	0.00
507.46	0.00
507.63	0.00
507.81	0.00
507.98	0.00
508.16	0.00
508.33	0.00
508.50	0.00
508.68	0.00
508.85	0.00
509.03	0.00
509.20	0.00
509.38	0.00
509.55	0.00
509.73	0.00
509.90	0.00
510.08	0.00
510.25	0.00
510.42	0.00
510.60	0.00
510.77	0.00
510.95	0.00
511.12	0.00
511.30	0.00
511.47	0.00
511.64	0.00
511.82	0.00
511.99	0.00
512.17	0.00
512.34	0.00
512.51	0.00
512.69	0.00
512.86	0.00
513.04	0.00
513.21	0.00
513.38	0.00
513.56	0.00
513.73	0.00
513.90	0.00
514.08	0.00
514.25	0.00
514.43	0.00
514.60	0.00
514.77	0.00
514.95	0.00
515.12	0.00
515.29	0.00
515.47	0.00
515.64	0.00
515.81	0.00
515.99	0.00
516.16	0.00
516.33	0.00
516.51	0.00
516.68	0.00
516.85	0.00
517.03	0.00
517.20	0.00
517.37	0.00
517.54	0.00
517.72	0.00
517.89	0.00
518.06	0.00
518.24	0.00
518.41	0.00
518.58	0.00
518.75	0.00
518.93	0.00
519.10	0.00
519.27	0.00
519.45	0.00
519.62	0.00
519.79	0.00
519.96	0.00
520.14	0.00
520.31	0.00
520.48	0.00
520.65	0.00
520.83	0.00
521.00	0.00
521.17	0.00
521.34	0.00
521.52	0.00
521.69	0.00
521.86	0.00
522.03	0.00
522.20	0.00
522.38	0.00
522.55	0.00
522.72	0.00
522.89	0.00
523.07	0.00
523.24	0.00
523.41	0.00
523.58	0.00
523.75	0.00
523.92	0.00
524.10	0.00
524.27	0.00
524.44	0.00
524.61	0.00
524.78	0.00
524.96	0.00
525.13	0.00
525.30	0.00
525.47	0.00
525.64	0.00
525.81	0.00
525.98	0.00
526.16	0.00
526.33	0.00
526.50	0.00
526.67	0.00
526.84	0.00
527.01	0.00
527.18	0.00
527.36	0.00
527.53	0.00
527.70	0.00
527.87	0.00
528.04	0.00
528.21	0.00
528.38	0.00
528.55	0.00
528.72	0.00
528.89	0.00
529.07	0.00
529.24	0.00
529.41	0.00
529.58	0.00
529.75	0.00
529.92	0.00
530.09	0.00
530.26	0.00
530.43	0.00
530.60	0.00
530.77	0.00
530.94	0.00
531.11	0.00
531.28	0.00
531.46	0.00
531.63	0.00
531.80	0.00
531.97	0.00
532.14	0.00
532.31	0.00
532.48	0.00
532.65	0.00
532.82	0.00
532.99	0.00
533.16	0.00
533.33	0.00
533.50	0.00
533.67	0.00
533.84	0.00
534.01	0.00
534.18	0.00
534.35	0.00
534.52	0.00
534.69	0.00
534.86	0.00
535.03	0.00
535.20	0.00
535.37	0.00
535.54	0.00
535.71	0.00
535.88	0.00
536.05	0.00
536.22	0.00
536.38	0.00
536.55	0.00
536.72	0.00
536.89	0.00
537.06	0.00
537.23	0.00
537.40	0.00
537.57	0.00
537.74	0.00
537.91	0.00
538.08	0.00
538.25	0.00
538.42	0.00
538.59	0.00
538.75	0.00
538.92	0.00
539.09	0.00
539.26	0.00
539.43	0.00
539.60	0.00
539.77	0.00
539.94	0.00
540.11	0.00
540.28	0.00
540.44	0.00
540.61	0.00
540.78	0.00
540.95	0.00
541.12	0.00
541.29	0.00
541.46	0.00
541.62	0.00
541.79	0.00
541.96	0.00
542.13	0.00
542.30	0.00
542.47	0.00
542.63	0.00
542.80	0.00
542.97	0.00
543.14	0.00
543.31	0.00
543.48	0.00
543.64	0.00
543.81	0.00
543.98	0.00
544.15	0.00
544.32	0.00
544.48	0.00
544.65	0.00
544.82	0.00
544.99	0.00
545.16	0.00
545.32	0.00
545.49	0.00
545.66	0.00
545.83	0.00
546.00	0.00
546.16	0.00
546.33	0.00
546.50	0.00
546.67	0.00
546.83	0.00
547.00	0.00
547.17	0.00
547.34	0.00
547.50	0.00
547.67	0.00
547.84	0.00
548.00	0.00
548.17	0.00
548.34	0.00
548.51	0.00
548.67	0.00
548.84	0.00
549.01	0.00
549.18	0.00
549.34	0.00
549.51	0.00
549.68	0.00
549.84	0.00
550.01	0.00
550.18	0.00
550.34	0.00
550.51	0.00
550.68	0.00
550.84	0.00
551.01	0.00
551.18	0.00
551.34	0.00
551.51	0.00
551.68	0.00
551.84	0.00
552.01	0.00
552.18	0.00
552.34	0.00
552.51	0.00
552.68	0.00
552.84	0.00
553.01	0.00
553.18	0.00
553.34	0.00
553.51	0.00
553.67	0.00
553.84	0.00
554.01	0.00
554.17	0.00
554.34	0.00
554.51	0.00
554.67	0.00
554.84	0.00
555.00	0.00
555.17	0.00
555.33	0.00
555.50	0.00
555.67	0.00
555.83	0.00
556.00	0.00
556.16	0.00
556.33	0.00
556.50	0.00
556.66	0.00
556.83	0.00
556.99	0.00
557.16	0.00
557.32	0.00
557.49	0.00
557.65	0.00
557.82	0.00
557.98	0.00
558.15	0.00
558.32	0.00
558.48	0.00
558.65	0.00
558.81	0.00
558.98	0.00
559.14	0.00
559.31	0.00
559.47	0.00
559.64	0.00
559.80	0.00
559.97	0.00
560.13	0.00
560.30	0.00
560.46	0.00
560.63	0.00
560.79	0.00
560.96	0.00
561.12	0.00
561.29	0.00
561.45	0.00
561.61	0.00
561.78	0.00
561.94	0.00
562.11	0.00
562.27	0.00
562.44	0.00
562.60	0.00
562.77	0.00
562.93	0.00
563.10	0.00
563.26	0.00
563.42	0.00
563.59	0.00
563.75	0.00
563.92	0.00
564.08	0.00
564.24	0.00
564.41	0.00
564.57	0.00
564.74	0.00
564.90	0.00
565.07	0.00
565.23	0.00
565.39	0.00
565.56	0.00
565.72	0.00
565.88	0.00
566.05	0.00
566.21	0.00
566.38	0.00
566.54	0.00
566.70	0.00
566.87	0.00
567.03	0.00
567.19	0.00
567.36	0.00
567.52	0.00
567.68	0.00
567.85	0.00
568.01	0.00
568.17	0.00
568.34	0.00
568.50	0.00
568.66	0.00
568.83	0.00
568.99	0.00
569.15	0.00
569.32	0.00
569.48	0.00
569.64	0.00
569.81	0.00
569.97	0.00
570.13	0.00
570.30	0.00
570.46	0.00
570.62	0.00
570.78	0.00
570.95	0.00
571.11	0.00
571.27	0.00
571.43	0.00
571.60	0.00
571.76	0.00
571.92	0.00
572.09	0.00
572.25	0.00
572.41	0.00
572.57	0.00
572.74	0.00
572.90	0.00
573.06	0.00
573.22	0.00
573.38	0.00
573.55	0.00
573.71	0.00
573.87	0.00
574.03	0.00
574.20	0.00
574.36	0.00
574.52	0.00
574.68	0.00
574.84	0.00
575.01	0.00
575.17	0.00
575.33	0.00
575.49	0.00
575.65	0.00
575.82	0.00
575.98	0.00
576.14	0.00
576.30	0.00
576.46	0.00
576.62	0.00
576.79	0.00
576.95	0.00
577.11	0.00
577.27	0.00
577.43	0.00
577.59	0.00
577.75	0.00
577.92	0.00
578.08	0.00
578.24	0.00
578.40	0.00
578.56	0.00
578.72	0.00
578.88	0.00
579.04	0.00
579.21	0.00
579.37	0.00
579.53	0.00
579.69	0.00
579.85	0.00
580.01	0.00
580.17	0.00
580.33	0.00
580.49	0.00
580.65	0.00
580.82	0.00
580.98	0.00
581.14	0.00
581.30	0.00
581.46	0.00
581.62	0.00
581.78	0.00
581.94	0.00
582.10	0.00
582.26	0.00
582.42	0.00
582.58	0.00
582.74	0.00
582.90	0.00
583.06	0.00
583.22	0.00
583.38	0.00
583.54	0.00
583.70	0.00
583.86	0.00
584.02	0.00
584.18	0.00
584.34	0.00
584.50	0.00
584.66	0.00
584.82	0.00
584.98	0.00
585.14	0.00
585.30	0.00
585.46	0.00
585.62	0.00
585.78	0.00
585.94	0.00
586.10	0.00
586.26	0.00
586.42	0.00
586.58	0.00
586.74	0.00
586.90	0.00
587.06	0.00
587.22	0.00
587.38	0.00
587.54	0.00
587.70	0.00
587.86	0.00
588.02	0.00
588.18	0.00
588.34	0.00
588.49	0.00
588.65	0.00
588.81	0.00
588.97	0.00
589.13	0.00
589.29	0.00
589.45	0.00
589.61	0.00
589.77	0.00
589.93	0.00
590.08	0.00
590.24	0.00
590.40	0.00
590.56	0.00
590.72	0.00
590.88	0.00
591.04	0.00
591.20	0.00
591.35	0.00
591.51	0.00
591.67	0.00
591.83	0.00
591.99	0.00
592.15	0.00
592.31	0.00
592.46	0.00
592.62	0.00
592.78	0.00
592.94	0.00
593.10	0.00
593.26	0.00
593.41	0.00
593.57	0.00
593.73	0.00
593.89	0.00
594.05	0.00
594.20	0.00
594.36	0.00
594.52	0.00
594.68	0.00
594.84	0.00
594.99	0.00
595.15	0.00
595.31	0.00
595.47	0.00
595.62	0.00
595.78	0.00
595.94	0.00
596.10	0.00
596.25	0.00
596.41	0.00
596.57	0.00
596.73	0.00
596.88	0.00
597.04	0.00
597.20	0.00
597.36	0.00
597.51	0.00
597.67	0.00
597.83	0.00
597.99	0.00
598.14	0.00
598.30	0.00
598.46	0.00
598.61	0.00
598.77	0.00
598.93	0.00
599.09	0.00
599.24	0.00
599.40	0.00
599.56	0.00
599.71	0.00
599.87	0.00
600.03	0.00
600.18	0.00
600.34	0.00
600.50	0.00
600.65	0.00
600.81	0.00
600.97	0.00
601.12	0.00
601.28	0.00
601.44	0.00
601.59	0.00
601.75	0.00
601.91	0.00
602.06	0.00
602.22	0.00
602.37	0.00
602.53	0.00
602.69	0.00
602.84	0.00
603.00	0.00
603.16	0.00
603.31	0.00
603.47	0.00
603.62	0.00
603.78	0.00
603.94	0.00
604.09	0.00
604.25	0.00
604.40	0.00
604.56	0.00
604.71	0.00
604.87	0.00
605.03	0.00
605.18	0.00
605.34	0.00
605.49	0.00
605.65	0.00
605.80	0.00
605.96	0.00
606.12	0.00
606.27	0.00
606.43	0.00
606.58	0.00
606.74	0.00
606.89	0.00
607.05	0.00
607.20	0.00
607.36	0.00
607.51	0.00
607.67	0.00
607.82	0.00
607.98	0.00
608.13	0.00
608.29	0.00
608.44	0.00
608.60	0.00
608.75	0.00
608.91	0.00
609.06	0.00
609.22	0.00
609.37	0.00
609.53	0.00
609.68	0.00
609.84	0.00
609.99	0.00
610.15	0.00
610.30	0.00
610.46	0.00
610.61	0.00
610.76	0.00
610.92	0.00
611.07	0.00
611.23	0.00
611.38	0.00
611.54	0.00
611.69	0.00
611.84	0.00
612.00	0.00
612.15	0.00
612.31	0.00
612.46	0.00
612.62	0.00
612.77	0.00
612.92	0.00
613.08	0.00
613.23	0.00
613.39	0.00
613.54	0.00
613.69	0.00
613.85	0.00
614.00	0.00
614.15	0.00
614.31	0.00
614.46	0.00
614.62	0.00
614.77	0.00
614.92	0.00
615.08	0.00
615.23	0.00
615.38	0.00
615.54	0.00
615.69	0.00
615.84	0.00
616.00	0.00
616.15	0.00
616.30	0.00
616.46	0.00
616.61	0.00
616.76	0.00
616.92	0.00
617.07	0.00
617.22	0.00
617.37	0.00
617.53	0.00
617.68	0.00
617.83	0.00
617.99	0.00
618.14	0.00
618.29	0.00
618.45	0.00
618.60	0.00
618.75	0.00
618.90	0.00
619.06	0.00
619.21	0.00
619.36	0.00
619.51	0.00
619.67	0.00
619.82	0.00
619.97	0.00
620.12	0.00
620.28	0.00
620.43	0.00
620.58	0.00
620.73	0.00
620.89	0.00
621.04	0.00
621.19	0.00
621.34	0.00
621.49	0.00
621.65	0.00
621.80	0.00
621.95	0.00
622.10	0.00
622.25	0.00
622.41	0.00
622.56	0.00
622.71	0.00
622.86	0.00
623.01	0.00
623.16	0.00
623.32	0.00
623.47	0.00
623.62	0.00
623.77	0.00
623.92	0.00
624.07	0.00
624.23	0.00
624.38	0.00
624.53	0.00
624.68	0.00
624.83	0.00
624.98	0.00
625.13	0.00
625.29	0.00
625.44	0.00
625.59	0.00
625.74	0.00
625.89	0.00
626.04	0.00
626.19	0.00
626.34	0.00
626.49	0.00
626.65	0.00
626.80	0.00
626.95	0.00
627.10	0.00
627.25	0.00
627.40	0.00
627.55	0.00
627.70	0.00
627.85	0.00
628.00	0.00
628.15	0.00
628.30	0.00
628.45	0.00
628.60	0.00
628.76	0.00
628.91	0.00
629.06	0.00
629.21	0.00
629.36	0.00
629.51	0.00
629.66	0.00
629.81	0.00
629.96	0.00
630.11	0.00
630.26	0.00
630.41	0.00
630.56	0.00
630.71	0.00
630.86	0.00
631.01	0.00
631.16	0.00
631.31	0.00
631.46	0.00
631.61	0.00
631.76	0.00
631.91	0.00
632.06	0.00
632.21	0.00
632.36	0.00
632.51	0.00
632.66	0.00
632.81	0.00
632.96	0.00
633.10	0.00
633.25	0.00
633.40	0.00
633.55	0.00
633.70	0.00
633.85	0.00
634.00	0.00
634.15	0.00
634.30	0.00
634.45	0.00
634.60	0.00
634.75	0.00
634.90	0.00
635.05	0.00
635.19	0.00
635.34	0.00
635.49	0.00
635.64	0.00
635.79	0.00
635.94	0.00
636.09	0.00
636.24	0.00
636.39	0.00
636.53	0.00
636.68	0.00
636.83	0.00
636.98	0.00
637.13	0.00
637.28	0.00
637.43	0.00
637.57	0.00
637.72	0.00
637.87	0.00
638.02	0.00
638.17	0.00
638.32	0.00
638.46	0.00
638.61	0.00
638.76	0.00
638.91	0.00
639.06	0.00
639.20	0.00
639.35	0.00
639.50	0.00
639.65	0.00
639.80	0.00
639.94	0.00
640.09	0.00
640.24	0.00
640.39	0.00
640.54	0.00
640.68	0.00
640.83	0.00
640.98	0.00
641.13	0.00
641.27	0.00
641.42	0.00
641.57	0.00
641.72	0.00
641.86	0.00
642.01	0.00
642.16	0.00
642.31	0.00
642.45	0.00
642.60	0.00
642.75	0.00
642.90	0.00
643.04	0.00
643.19	0.00
643.34	0.00
643.48	0.00
643.63	0.00
643.78	0.00
643.93	0.00
644.07	0.00
644.22	0.00
644.37	0.00
644.51	0.00
644.66	0.00
644.81	0.00
644.95	0.00
645.10	0.00
645.25	0.00
645.39	0.00
645.54	0.00
645.69	0.00
645.83	0.00
645.98	0.00
646.13	0.00
646.27	0.00
646.42	0.00
646.57	0.00
646.71	0.00
646.86	0.00
647.00	0.00
647.15	0.00
647.30	0.00
647.44	0.00
647.59	0.00
647.74	0.00
647.88	0.00
648.03	0.00
648.17	0.00
648.32	0.00
648.47	0.00
648.61	0.00
648.76	0.00
648.90	0.00
649.05	0.00
649.20	0.00
649.34	0.00
649.49	0.00
649.63	0.00
649.78	0.00
649.92	0.00
650.07	0.00
650.21	0.00
650.36	0.00
650.51	0.00
650.65	0.00
650.80	0.00
650.94	0.00
651.09	0.00
651.23	0.00
651.38	0.00
651.52	0.00
651.67	0.00
651.81	0.00
651.96	0.00
652.10	0.00
652.25	0.00
652.39	0.00
652.54	0.00
652.68	0.00
652.83	0.00
652.97	0.00
653.12	0.00
653.26	0.00
653.41	0.00
653.55	0.00
653.70	0.00
653.84	0.00
653.99	0.00
654.13	0.00
654.27	0.00
654.42	0.00
654.56	0.00
654.71	0.00
654.85	0.00
655.00	0.00
655.14	0.00
655.29	0.00
655.43	0.00
655.57	0.00
655.72	0.00
655.86	0.00
656.01	0.00
656.15	0.00
656.30	0.00
656.44	0.00
656.58	0.00
656.73	0.00
656.87	0.00
657.01	0.00
657.16	0.00
657.30	0.00
657.45	0.00
657.59	0.00
657.73	0.00
657.88	0.00
658.02	0.00
658.16	0.00
658.31	0.00
658.45	0.00
658.60	0.00
658.74	0.00
658.88	0.00
659.03	0.00
659.17	0.00
659.31	0.00
659.46	0.00
659.60	0.00
659.74	0.00
659.89	0.00
660.03	0.00
660.17	0.00
660.32	0.00
660.46	0.00
660.60	0.00
660.74	0.00
660.89	0.00
661.03	0.00
661.17	0.00
661.32	0.00
661.46	0.00
661.60	0.00
661.74	0.00
661.89	0.00
662.03	0.00
662.17	0.00
662.31	0.00
662.46	0.00
662.60	0.00
662.74	0.00
662.88	0.00
663.03	0.00
663.17	0.00
663.31	0.00
663.45	0.00
663.60	0.00
663.74	0.00
663.88	0.00
664.02	0.00
664.17	0.00
664.31	0.00
664.45	0.00
664.59	0.00
664.73	0.00
664.88	0.00
665.02	0.00
665.16	0.00
665.30	0.00
665.44	0.00
665.59	0.00
665.73	0.00
665.87	0.00
666.01	0.00
666.15	0.00
666.29	0.00
666.44	0.00
666.58	0.00
666.72	0.00
666.86	0.00
667.00	0.00
667.14	0.00
667.28	0.00
667.43	0.00
667.57	0.00
667.71	0.00
667.85	0.00
667.99	0.00
668.13	0.00
668.27	0.00
668.41	0.00
668.56	0.00
668.70	0.00
668.84	0.00
668.98	0.00
669.12	0.00
669.26	0.00
669.40	0.00
669.54	0.00
669.68	0.00
669.82	0.00
669.96	0.00
670.10	0.00
670.25	0.00
670.39	0.00
670.53	0.00
670.67	0.00
670.81	0.00
670.95	0.00
671.09	0.00
671.23	0.00
671.37	0.00
671.51	0.00
671.65	0.00
671.79	0.00
671.93	0.00
672.07	0.00
672.21	0.00
672.35	0.00
672.49	0.00
672.63	0.00
672.77	0.00
672.91	0.00
673.05	0.00
673.19	0.00
673.33	0.00
673.47	0.00
673.61	0.00
673.75	0.00
673.89	0.00
674.03	0.00
674.17	0.00
674.31	0.00
674.45	0.00
674.59	0.00
674.73	0.00
674.87	0.00
675.01	0.00
675.15	0.00
675.29	0.00
675.43	0.00
675.56	0.00
675.70	0.00
675.84	0.00
675.98	0.00
676.12	0.00
676.26	0.00
676.40	0.00
676.54	0.00
676.68	0.00
676.82	0.00
676.96	0.00
677.10	0.00
677.23	0.00
677.37	0.00
677.51	0.00
677.65	0.00
677.79	0.00
677.93	0.00
678.07	0.00
678.21	0.00
678.34	0.00
678.48	0.00
678.62	0.00
678.76	0.00
678.90	0.00
679.04	0.00
679.18	0.00
679.31	0.00
679.45	0.00
679.59	0.00
679.73	0.00
679.87	0.00
680.00	0.00
680.14	0.00
680.28	0.00
680.42	0.00
680.56	0.00
680.70	0.00
680.83	0.00
680.97	0.00
681.11	0.00
681.25	0.00
681.39	0.00
681.52	0.00
681.66	0.00
681.80	0.00
681.94	0.00
682.07	0.00
682.21	0.00
682.35	0.00
682.49	0.00
682.62	0.00
682.76	0.00
682.90	0.00
683.04	0.00
683.17	0.00
683.31	0.00
683.45	0.00
683.59	0.00
683.72	0.00
683.86	0.00
684.00	0.00
684.13	0.00
684.27	0.00
684.41	0.00
684.55	0.00
684.68	0.00
684.82	0.00
684.96	0.00
685.09	0.00
685.23	0.00
685.37	0.00
685.50	0.00
685.64	0.00
685.78	0.00
685.91	0.00
686.05	0.00
686.19	0.00
686.32	0.00
686.46	0.00
686.60	0.00
686.73	0.00
686.87	0.00
687.01	0.00
687.14	0.00
687.28	0.00
687.42	0.00
687.55	0.00
687.69	0.00
687.82	0.00
687.96	0.00
688.10	0.00
688.23	0.00
688.37	0.00
688.50	0.00
688.64	0.00
688.78	0.00
688.91	0.00
689.05	0.00
689.18	0.00
689.32	0.00
689.46	0.00
689.59	0.00
689.73	0.00
689.86	0.00
690.00	0.00
690.13	0.00
690.27	0.00
690.41	0.00
690.54	0.00
690.68	0.00
690.81	0.00
690.95	0.00
691.08	0.00
691.22	0.00
691.35	0.00
691.49	0.00
691.62	0.00
691.76	0.00
691.89	0.00
692.03	0.00
692.16	0.00
692.30	0.00
692.43	0.00
692.57	0.00
692.70	0.00
692.84	0.00
692.97	0.00
693.11	0.00
693.24	0.00
693.38	0.00
693.51	0.00
693.65	0.00
693.78	0.00
693.92	0.00
694.05	0.00
694.19	0.00
694.32	0.00
694.45	0.00
694.59	0.00
694.72	0.00
694.86	0.00
694.99	0.00
695.13	0.00
695.26	0.00
695.39	0.00
695.53	0.00
695.66	0.00
695.80	0.00
695.93	0.00
696.07	0.00
696.20	0.00
696.33	0.00
696.47	0.00
696.60	0.00
696.73	0.00
696.87	0.00
697.00	0.00
697.14	0.00
697.27	0.00
697.40	0.00
697.54	0.00
697.67	0.00
697.80	0.00
697.94	0.00
698.07	0.00
698.21	0.00
698.34	0.00
698.47	0.00
698.61	0.00
698.74	0.00
698.87	0.00
699.01	0.00
699.14	0.00
699.27	0.00
699.40	0.00
699.54	0.00
699.67	0.00
699.80	0.00
699.94	0.00
700.07	0.00
700.20	0.00
700.34	0.00
700.47	0.00
700.60	0.00
700.73	0.00
700.87	0.00
701.00	0.00
701.13	0.00
701.26	0.00
701.40	0.00
701.53	0.00
701.66	0.00
701.79	0.00
701.93	0.00
702.06	0.00
702.19	0.00
702.32	0.00
702.46	0.00
702.59	0.00
702.72	0.00
702.85	0.00
702.99	0.00
703.12	0.00
703.25	0.00
703.38	0.00
703.51	0.00
703.65	0.00
703.78	0.00
703.91	0.00
704.04	0.00
704.17	0.00
704.31	0.00
704.44	0.00
704.57	0.00
704.70	0.00
704.83	0.00
704.96	0.00
705.10	0.00
705.23	0.00
>>>>>End Processed Spectral Data<<<<<
