SpectraSuite Data File
++++++++++++++++++++++++++++++++++++
Date: Mon Oct 07 14:59:57 GMT-05:00 2013
User: price-jones
Dark Spectrum Present: No
Reference Spectrum Present: No
Number of Sampled Component Spectra: 1
Spectrometers: USB2+H05261
Integration Time (usec): 100000 (USB2+H05261)
Spectra Averaged: 1 (USB2+H05261)
Boxcar Smoothing: 0 (USB2+H05261)
Correct for Electrical Dark: No (USB2+H05261)
Strobe/Lamp Enabled: No (USB2+H05261)
Correct for Detector Non-linearity: No (USB2+H05261)
Correct for Stray Light: No (USB2+H05261)
Number of Pixels in Processed Spectrum: 2048
>>>>>Begin Processed Spectral Data<<<<<
365.73	0.00
365.92	0.00
366.12	0.00
366.32	0.00
366.52	0.00
366.72	0.00
366.91	0.00
367.11	0.00
367.31	0.00
367.51	0.00
367.70	0.00
367.90	0.00
368.10	0.00
368.30	0.00
368.49	0.00
368.69	0.00
368.89	0.00
369.09	0.00
369.28	0.00
369.48	0.00
369.68	0.00
369.87	0.00
370.07	0.00
370.27	0.00
370.47	0.00
370.66	0.00
370.86	0.00
371.06	0.00
371.25	0.00
371.45	0.00
371.65	0.00
371.84	0.00
372.04	0.00
372.24	0.00
372.44	0.00
372.63	0.00
372.83	0.00
373.03	0.00
373.22	0.00
373.42	0.00
373.62	0.00
373.81	0.00
374.01	0.00
374.21	0.00
374.40	0.00
374.60	0.00
374.79	0.00
374.99	0.00
375.19	0.00
375.38	0.00
375.58	0.00
375.78	0.00
375.97	0.00
376.17	0.00
376.37	0.00
376.56	0.00
376.76	0.00
376.95	0.00
377.15	0.00
377.35	0.00
377.54	0.00
377.74	0.00
377.93	0.00
378.13	0.00
378.33	0.00
378.52	0.00
378.72	0.00
378.91	0.00
379.11	0.00
379.31	0.00
379.50	0.00
379.70	0.00
379.89	0.00
380.09	0.00
380.28	0.00
380.48	0.00
380.68	0.00
380.87	0.00
381.07	0.00
381.26	0.00
381.46	0.00
381.65	0.00
381.85	0.00
382.04	0.00
382.24	0.00
382.43	0.00
382.63	0.00
382.83	0.00
383.02	0.00
383.22	0.00
383.41	0.00
383.61	0.00
383.80	0.00
384.00	0.00
384.19	0.00
384.39	0.00
384.58	0.00
384.78	0.00
384.97	0.00
385.17	0.00
385.36	0.00
385.56	0.00
385.75	0.00
385.95	0.00
386.14	0.00
386.34	0.00
386.53	0.00
386.72	0.00
386.92	0.00
387.11	0.00
387.31	0.00
387.50	0.00
387.70	0.00
387.89	0.00
388.09	0.00
388.28	0.00
388.48	0.00
388.67	0.00
388.86	0.00
389.06	0.00
389.25	0.00
389.45	0.00
389.64	0.00
389.84	0.00
390.03	0.00
390.22	0.00
390.42	0.00
390.61	0.00
390.81	0.00
391.00	0.00
391.19	0.00
391.39	0.00
391.58	0.00
391.78	0.00
391.97	0.00
392.16	0.00
392.36	0.00
392.55	0.00
392.75	0.00
392.94	0.00
393.13	0.00
393.33	0.00
393.52	0.00
393.71	0.00
393.91	0.00
394.10	0.00
394.29	0.00
394.49	0.00
394.68	0.00
394.88	0.00
395.07	0.00
395.26	0.00
395.46	0.00
395.65	0.00
395.84	0.00
396.04	0.00
396.23	0.00
396.42	0.00
396.62	0.00
396.81	0.00
397.00	0.00
397.19	0.00
397.39	0.00
397.58	0.00
397.77	0.00
397.97	0.00
398.16	0.00
398.35	0.00
398.55	0.00
398.74	0.00
398.93	0.00
399.12	0.00
399.32	0.00
399.51	0.00
399.70	0.00
399.90	0.00
400.09	0.00
400.28	0.00
400.47	0.00
400.67	0.00
400.86	0.00
401.05	0.00
401.24	0.00
401.44	0.00
401.63	0.00
401.82	0.00
402.01	0.00
402.21	0.00
402.40	0.00
402.59	0.00
402.78	0.00
402.97	0.00
403.17	0.00
403.36	0.00
403.55	0.00
403.74	0.00
403.93	0.00
404.13	0.00
404.32	0.00
404.51	0.00
404.70	0.00
404.89	0.00
405.09	0.00
405.28	0.00
405.47	0.00
405.66	0.00
405.85	0.00
406.05	0.00
406.24	0.00
406.43	0.00
406.62	0.00
406.81	0.00
407.00	0.00
407.20	0.00
407.39	0.00
407.58	0.00
407.77	0.00
407.96	0.00
408.15	0.00
408.34	0.00
408.54	0.00
408.73	0.00
408.92	0.00
409.11	0.00
409.30	0.00
409.49	0.00
409.68	0.00
409.87	0.00
410.07	0.00
410.26	0.00
410.45	0.00
410.64	0.00
410.83	0.00
411.02	0.00
411.21	0.00
411.40	0.00
411.59	0.00
411.78	0.00
411.98	0.00
412.17	0.00
412.36	0.00
412.55	0.00
412.74	0.00
412.93	0.00
413.12	0.00
413.31	0.00
413.50	0.00
413.69	0.00
413.88	0.00
414.07	0.00
414.26	0.00
414.45	0.00
414.64	0.00
414.83	0.00
415.02	0.00
415.22	0.00
415.41	0.00
415.60	0.00
415.79	0.00
415.98	0.00
416.17	0.00
416.36	0.00
416.55	0.00
416.74	0.00
416.93	0.00
417.12	0.00
417.31	0.00
417.50	0.00
417.69	0.00
417.88	0.00
418.07	0.00
418.26	0.00
418.45	0.00
418.64	0.00
418.83	0.00
419.02	0.00
419.21	0.00
419.39	0.00
419.58	0.00
419.77	0.00
419.96	0.00
420.15	0.00
420.34	0.00
420.53	0.00
420.72	0.00
420.91	0.00
421.10	0.00
421.29	0.00
421.48	0.00
421.67	0.00
421.86	0.00
422.05	0.00
422.24	0.00
422.43	0.00
422.61	0.00
422.80	0.00
422.99	0.00
423.18	0.00
423.37	0.00
423.56	0.00
423.75	0.00
423.94	0.00
424.13	0.00
424.32	0.00
424.50	0.00
424.69	0.00
424.88	0.00
425.07	0.00
425.26	0.00
425.45	0.00
425.64	0.00
425.83	0.00
426.01	0.00
426.20	0.00
426.39	0.00
426.58	0.00
426.77	0.00
426.96	0.00
427.15	0.00
427.33	0.00
427.52	0.00
427.71	0.00
427.90	0.00
428.09	0.00
428.28	0.00
428.46	0.00
428.65	0.00
428.84	0.00
429.03	0.00
429.22	0.00
429.40	0.00
429.59	0.00
429.78	0.00
429.97	0.00
430.16	0.00
430.34	0.00
430.53	0.00
430.72	0.00
430.91	0.00
431.10	0.00
431.28	0.00
431.47	0.00
431.66	0.00
431.85	0.00
432.03	0.00
432.22	0.00
432.41	0.00
432.60	0.00
432.79	0.00
432.97	0.00
433.16	0.00
433.35	0.00
433.54	0.00
433.72	0.00
433.91	0.00
434.10	0.00
434.28	0.00
434.47	0.00
434.66	0.00
434.85	0.00
435.03	0.00
435.22	0.00
435.41	0.00
435.59	0.00
435.78	0.00
435.97	0.00
436.16	0.00
436.34	0.00
436.53	0.00
436.72	0.00
436.90	7.02
437.09	0.00
437.28	0.00
437.46	0.00
437.65	0.00
437.84	0.00
438.02	0.00
438.21	0.00
438.40	0.00
438.58	0.00
438.77	0.00
438.96	0.00
439.14	0.00
439.33	0.00
439.52	0.00
439.70	0.00
439.89	0.00
440.08	0.00
440.26	0.00
440.45	0.00
440.63	0.00
440.82	0.00
441.01	0.00
441.19	0.00
441.38	0.00
441.57	0.00
441.75	0.00
441.94	39.79
442.12	0.00
442.31	0.00
442.50	0.00
442.68	0.00
442.87	0.00
443.05	0.00
443.24	0.00
443.43	0.00
443.61	0.00
443.80	0.00
443.98	0.00
444.17	0.00
444.35	0.00
444.54	0.00
444.73	0.00
444.91	0.00
445.10	0.00
445.28	0.00
445.47	0.00
445.65	0.00
445.84	0.00
446.02	0.00
446.21	0.00
446.39	0.00
446.58	0.00
446.77	0.00
446.95	0.00
447.14	4.68
447.32	0.00
447.51	0.00
447.69	0.00
447.88	0.00
448.06	0.00
448.25	0.00
448.43	0.00
448.62	0.00
448.80	0.00
448.99	0.00
449.17	0.00
449.36	0.00
449.54	0.00
449.73	0.00
449.91	0.00
450.10	0.00
450.28	25.75
450.46	56.17
450.65	0.00
450.83	53.83
451.02	0.00
451.20	0.00
451.39	0.00
451.57	0.00
451.76	21.06
451.94	0.00
452.13	0.00
452.31	25.75
452.49	0.00
452.68	0.00
452.86	0.00
453.05	67.88
453.23	0.00
453.42	0.00
453.60	0.00
453.78	0.00
453.97	0.00
454.15	0.00
454.34	0.00
454.52	0.00
454.70	35.11
454.89	58.51
455.07	0.00
455.26	0.00
455.44	72.56
455.62	0.00
455.81	0.00
455.99	0.00
456.17	0.00
456.36	0.00
456.54	0.00
456.73	30.43
456.91	0.00
457.09	0.00
457.28	84.26
457.46	0.00
457.64	14.04
457.83	0.00
458.01	0.00
458.19	0.00
458.38	2.34
458.56	0.00
458.74	0.00
458.93	0.00
459.11	0.00
459.29	0.00
459.48	0.00
459.66	53.83
459.84	0.00
460.03	49.15
460.21	0.00
460.39	0.00
460.57	30.43
460.76	0.00
460.94	0.00
461.12	0.00
461.31	11.70
461.49	0.00
461.67	0.00
461.85	0.00
462.04	0.00
462.22	603.86
462.40	0.00
462.59	0.00
462.77	0.00
462.95	11.70
463.13	0.00
463.32	0.00
463.50	0.00
463.68	0.00
463.86	0.00
464.05	0.00
464.23	0.00
464.41	0.00
464.59	0.00
464.78	0.00
464.96	0.00
465.14	0.00
465.32	0.00
465.50	0.00
465.69	0.00
465.87	0.00
466.05	7.02
466.23	0.00
466.41	0.00
466.60	21.06
466.78	0.00
466.96	0.00
467.14	0.00
467.32	0.00
467.51	0.00
467.69	0.00
467.87	49.15
468.05	0.00
468.23	30.43
468.41	0.00
468.60	0.00
468.78	0.00
468.96	28.09
469.14	14.04
469.32	32.77
469.50	0.00
469.69	4.68
469.87	0.00
470.05	0.00
470.23	0.00
470.41	21.06
470.59	0.00
470.77	0.00
470.95	0.00
471.14	0.00
471.32	0.00
471.50	30.43
471.68	21.06
471.86	30.43
472.04	39.79
472.22	0.00
472.40	0.00
472.58	0.00
472.77	16.38
472.95	0.00
473.13	9.36
473.31	11.70
473.49	0.00
473.67	0.00
473.85	4.68
474.03	14.04
474.21	21.06
474.39	63.19
474.57	70.22
474.75	9.36
474.93	0.00
475.12	65.54
475.30	0.00
475.48	0.00
475.66	0.00
475.84	16.38
476.02	16.38
476.20	16.38
476.38	0.00
476.56	95.96
476.74	0.00
476.92	63.19
477.10	0.00
477.28	0.00
477.46	0.00
477.64	46.81
477.82	2.34
478.00	16.38
478.18	46.81
478.36	0.00
478.54	0.00
478.72	0.00
478.90	37.45
479.08	53.83
479.26	79.58
479.44	21.06
479.62	70.22
479.80	131.07
479.98	53.83
480.16	65.54
480.34	11.70
480.52	0.00
480.70	28.09
480.88	42.13
481.06	44.47
481.24	37.45
481.41	91.28
481.59	77.24
481.77	51.49
481.95	84.26
482.13	124.05
482.31	9.36
482.49	53.83
482.67	74.90
482.85	194.26
483.03	65.54
483.21	84.26
483.39	28.09
483.57	107.66
483.74	168.52
483.92	72.56
484.10	79.58
484.28	170.86
484.46	138.09
484.64	56.17
484.82	63.19
485.00	37.45
485.18	21.06
485.35	25.75
485.53	44.47
485.71	0.00
485.89	14.04
486.07	60.85
486.25	79.58
486.43	56.17
486.61	117.03
486.78	147.45
486.96	35.11
487.14	93.62
487.32	131.07
487.50	161.50
487.68	149.79
487.85	163.84
488.03	124.05
488.21	182.56
488.39	152.13
488.57	138.09
488.75	60.85
488.92	454.06
489.10	166.18
489.28	182.56
489.46	100.64
489.64	128.73
489.81	131.07
489.99	163.84
490.17	156.82
490.35	229.37
490.53	212.99
490.70	175.54
490.88	182.56
491.06	88.94
491.24	187.24
491.41	168.52
491.59	119.37
491.77	86.60
491.95	119.37
492.13	117.03
492.30	105.32
492.48	156.82
492.66	201.29
492.84	126.39
493.01	65.54
493.19	110.01
493.37	191.92
493.54	177.88
493.72	159.16
493.90	128.73
494.08	168.52
494.25	238.73
494.43	173.20
494.61	215.33
494.79	161.50
494.96	138.09
495.14	222.35
495.32	177.88
495.49	173.20
495.67	201.29
495.85	166.18
496.02	140.43
496.20	220.01
496.38	135.75
496.55	154.48
496.73	236.39
496.91	112.35
497.09	170.86
497.26	236.39
497.44	149.79
497.62	161.50
497.79	175.54
497.97	149.79
498.14	126.39
498.32	154.48
498.50	243.42
498.67	215.33
498.85	220.01
499.03	243.42
499.20	201.29
499.38	273.84
499.56	220.01
499.73	163.84
499.91	212.99
500.08	217.67
500.26	198.95
500.44	138.09
500.61	145.11
500.79	154.48
500.97	224.69
501.14	203.63
501.32	255.12
501.49	276.18
501.67	100.64
501.84	220.01
502.02	187.24
502.20	194.26
502.37	266.82
502.55	191.92
502.72	227.03
502.90	236.39
503.07	245.76
503.25	208.31
503.43	142.77
503.60	175.54
503.78	252.78
503.95	224.69
504.13	198.95
504.30	142.77
504.48	308.95
504.65	285.55
504.83	208.31
505.01	210.65
505.18	238.73
505.36	215.33
505.53	217.67
505.71	252.78
505.88	177.88
506.06	308.95
506.23	180.22
506.41	271.50
506.58	287.89
506.76	287.89
506.93	266.82
507.11	257.46
507.28	198.95
507.46	255.12
507.63	229.37
507.81	184.90
507.98	264.48
508.16	161.50
508.33	297.25
508.50	269.16
508.68	220.01
508.85	311.29
509.03	191.92
509.20	273.84
509.38	215.33
509.55	287.89
509.73	266.82
509.90	236.39
510.08	208.31
510.25	306.61
510.42	194.26
510.60	210.65
510.77	220.01
510.95	344.06
511.12	245.76
511.30	234.05
511.47	306.61
511.64	278.52
511.82	269.16
511.99	222.35
512.17	278.52
512.34	252.78
512.51	266.82
512.69	290.23
512.86	313.63
513.04	259.80
513.21	276.18
513.38	212.99
513.56	264.48
513.73	166.18
513.90	168.52
514.08	194.26
514.25	191.92
514.43	273.84
514.60	189.58
514.77	330.02
514.95	264.48
515.12	198.95
515.29	257.46
515.47	255.12
515.64	250.44
515.81	313.63
515.99	257.46
516.16	168.52
516.33	205.97
516.51	191.92
516.68	145.11
516.85	170.86
517.03	189.58
517.20	264.48
517.37	231.71
517.54	250.44
517.72	299.59
517.89	208.31
518.06	220.01
518.24	269.16
518.41	133.41
518.58	308.95
518.75	208.31
518.93	175.54
519.10	264.48
519.27	243.42
519.45	252.78
519.62	318.31
519.79	330.02
519.96	245.76
520.14	297.25
520.31	353.42
520.48	297.25
520.65	292.57
520.83	290.23
521.00	304.27
521.17	280.86
521.34	297.25
521.52	294.91
521.69	227.03
521.86	334.70
522.03	264.48
522.20	372.15
522.38	297.25
522.55	264.48
522.72	229.37
522.89	355.76
523.07	381.51
523.24	327.68
523.41	248.10
523.58	290.23
523.75	322.99
523.92	241.08
524.10	365.12
524.27	287.89
524.44	266.82
524.61	351.08
524.78	271.50
524.96	346.40
525.13	334.70
525.30	315.97
525.47	421.30
525.64	341.72
525.81	276.18
525.98	224.69
526.16	187.24
526.33	222.35
526.50	203.63
526.67	189.58
526.84	243.42
527.01	175.54
527.18	313.63
527.36	269.16
527.53	292.57
527.70	348.74
527.87	304.27
528.04	372.15
528.21	294.91
528.38	358.10
528.55	322.99
528.72	390.87
528.89	421.30
529.07	360.44
529.24	278.52
529.41	353.42
529.58	369.80
529.75	313.63
529.92	334.70
530.09	360.44
530.26	301.93
530.43	400.23
530.60	292.57
530.77	365.12
530.94	435.34
531.11	245.76
531.28	334.70
531.46	304.27
531.63	325.33
531.80	348.74
531.97	337.04
532.14	285.55
532.31	301.93
532.48	311.29
532.65	306.61
532.82	285.55
532.99	330.02
533.16	320.65
533.33	395.55
533.50	346.40
533.67	229.37
533.84	433.00
534.01	372.15
534.18	311.29
534.35	234.05
534.52	451.72
534.69	381.51
534.86	470.45
535.03	353.42
535.20	318.31
535.37	449.38
535.54	414.27
535.71	234.05
535.88	374.49
536.05	388.53
536.22	395.55
536.38	290.23
536.55	346.40
536.72	334.70
536.89	381.51
537.06	294.91
537.23	339.38
537.40	372.15
537.57	393.21
537.74	334.70
537.91	301.93
538.08	369.80
538.25	313.63
538.42	369.80
538.59	311.29
538.75	285.55
538.92	341.72
539.09	334.70
539.26	320.65
539.43	365.12
539.60	372.15
539.77	308.95
539.94	355.76
540.11	306.61
540.28	322.99
540.44	306.61
540.61	222.35
540.78	299.59
540.95	299.59
541.12	400.23
541.29	255.12
541.46	379.17
541.62	379.17
541.79	365.12
541.96	327.68
542.13	280.86
542.30	311.29
542.47	433.00
542.63	294.91
542.80	308.95
542.97	355.76
543.14	365.12
543.31	327.68
543.48	222.35
543.64	458.74
543.81	337.04
543.98	339.38
544.15	292.57
544.32	388.53
544.48	304.27
544.65	372.15
544.82	348.74
544.99	339.38
545.16	320.65
545.32	259.80
545.49	341.72
545.66	280.86
545.83	313.63
546.00	294.91
546.16	255.12
546.33	346.40
546.50	390.87
546.67	423.64
546.83	379.17
547.00	407.25
547.17	266.82
547.34	372.15
547.50	299.59
547.67	369.80
547.84	407.25
548.00	337.04
548.17	386.19
548.34	351.08
548.51	409.59
548.67	414.27
548.84	315.97
549.01	330.02
549.18	404.91
549.34	423.64
549.51	337.04
549.68	449.38
549.84	353.42
550.01	346.40
550.18	540.66
550.34	418.96
550.51	351.08
550.68	386.19
550.84	287.89
551.01	348.74
551.18	381.51
551.34	337.04
551.51	290.23
551.68	332.36
551.84	341.72
552.01	327.68
552.18	334.70
552.34	301.93
552.51	318.31
552.68	355.76
552.84	299.59
553.01	271.50
553.18	369.80
553.34	411.93
553.51	367.46
553.67	409.59
553.84	409.59
554.01	409.59
554.17	341.72
554.34	332.36
554.51	393.21
554.67	346.40
554.84	397.89
555.00	341.72
555.17	376.83
555.33	360.44
555.50	379.17
555.67	297.25
555.83	297.25
556.00	435.34
556.16	540.66
556.33	372.15
556.50	325.33
556.66	292.57
556.83	297.25
556.99	287.89
557.16	341.72
557.32	320.65
557.49	332.36
557.65	320.65
557.82	341.72
557.98	318.31
558.15	311.29
558.32	311.29
558.48	301.93
558.65	262.14
558.81	304.27
558.98	290.23
559.14	365.12
559.31	313.63
559.47	374.49
559.64	297.25
559.80	337.04
559.97	332.36
560.13	346.40
560.30	297.25
560.46	362.78
560.63	362.78
560.79	376.83
560.96	358.10
561.12	306.61
561.29	330.02
561.45	322.99
561.61	430.66
561.78	320.65
561.94	351.08
562.11	330.02
562.27	290.23
562.44	217.67
562.60	355.76
562.77	353.42
562.93	430.66
563.10	339.38
563.26	283.20
563.42	339.38
563.59	269.16
563.75	334.70
563.92	411.93
564.08	248.10
564.24	358.10
564.41	538.32
564.57	308.95
564.74	332.36
564.90	402.57
565.07	397.89
565.23	348.74
565.39	276.18
565.56	315.97
565.72	283.20
565.88	297.25
566.05	372.15
566.21	318.31
566.38	287.89
566.54	365.12
566.70	390.87
566.87	334.70
567.03	308.95
567.19	322.99
567.36	390.87
567.52	287.89
567.68	355.76
567.85	297.25
568.01	346.40
568.17	304.27
568.34	313.63
568.50	299.59
568.66	334.70
568.83	437.68
568.99	266.82
569.15	287.89
569.32	322.99
569.48	407.25
569.64	292.57
569.81	325.33
569.97	339.38
570.13	334.70
570.30	304.27
570.46	280.86
570.62	224.69
570.78	273.84
570.95	285.55
571.11	411.93
571.27	388.53
571.43	252.78
571.60	344.06
571.76	330.02
571.92	222.35
572.09	351.08
572.25	339.38
572.41	409.59
572.57	348.74
572.74	337.04
572.90	313.63
573.06	360.44
573.22	311.29
573.38	433.00
573.55	332.36
573.71	290.23
573.87	348.74
574.03	311.29
574.20	297.25
574.36	372.15
574.52	339.38
574.68	285.55
574.84	283.20
575.01	276.18
575.17	393.21
575.33	332.36
575.49	257.46
575.65	287.89
575.82	308.95
575.98	409.59
576.14	311.29
576.30	287.89
576.46	285.55
576.62	318.31
576.79	386.19
576.95	322.99
577.11	318.31
577.27	248.10
577.43	339.38
577.59	383.85
577.75	234.05
577.92	280.86
578.08	250.44
578.24	301.93
578.40	376.83
578.56	355.76
578.72	351.08
578.88	374.49
579.04	250.44
579.21	315.97
579.37	330.02
579.53	304.27
579.69	390.87
579.85	313.63
580.01	383.85
580.17	393.21
580.33	330.02
580.49	297.25
580.65	294.91
580.82	245.76
580.98	369.80
581.14	273.84
581.30	360.44
581.46	362.78
581.62	397.89
581.78	341.72
581.94	285.55
582.10	313.63
582.26	278.52
582.42	339.38
582.58	409.59
582.74	334.70
582.90	313.63
583.06	278.52
583.22	264.48
583.38	315.97
583.54	346.40
583.70	308.95
583.86	315.97
584.02	224.69
584.18	404.91
584.34	376.83
584.50	262.14
584.66	252.78
584.82	311.29
584.98	280.86
585.14	348.74
585.30	454.06
585.46	376.83
585.62	215.33
585.78	308.95
585.94	332.36
586.10	355.76
586.26	351.08
586.42	386.19
586.58	369.80
586.74	283.20
586.90	318.31
587.06	318.31
587.22	278.52
587.38	313.63
587.54	320.65
587.70	334.70
587.86	248.10
588.02	297.25
588.18	325.33
588.34	308.95
588.49	220.01
588.65	269.16
588.81	255.12
588.97	196.60
589.13	208.31
589.29	301.93
589.45	276.18
589.61	311.29
589.77	334.70
589.93	299.59
590.08	276.18
590.24	210.65
590.40	255.12
590.56	353.42
590.72	292.57
590.88	280.86
591.04	276.18
591.20	290.23
591.35	318.31
591.51	243.42
591.67	271.50
591.83	231.71
591.99	198.95
592.15	341.72
592.31	330.02
592.46	222.35
592.62	290.23
592.78	283.20
592.94	322.99
593.10	344.06
593.26	362.78
593.41	332.36
593.57	369.80
593.73	273.84
593.89	297.25
594.05	320.65
594.20	301.93
594.36	365.12
594.52	332.36
594.68	304.27
594.84	322.99
594.99	297.25
595.15	339.38
595.31	322.99
595.47	280.86
595.62	257.46
595.78	315.97
595.94	344.06
596.10	315.97
596.25	306.61
596.41	313.63
596.57	341.72
596.73	276.18
596.88	365.12
597.04	222.35
597.20	318.31
597.36	290.23
597.51	290.23
597.67	294.91
597.83	255.12
597.99	325.33
598.14	306.61
598.30	311.29
598.46	229.37
598.61	337.04
598.77	278.52
598.93	278.52
599.09	257.46
599.24	365.12
599.40	341.72
599.56	205.97
599.71	222.35
599.87	276.18
600.03	297.25
600.18	280.86
600.34	276.18
600.50	234.05
600.65	212.99
600.81	348.74
600.97	220.01
601.12	248.10
601.28	390.87
601.44	273.84
601.59	212.99
601.75	252.78
601.91	243.42
602.06	287.89
602.22	416.62
602.37	355.76
602.53	187.24
602.69	332.36
602.84	248.10
603.00	203.63
603.16	313.63
603.31	166.18
603.47	273.84
603.62	264.48
603.78	257.46
603.94	236.39
604.09	374.49
604.25	285.55
604.40	234.05
604.56	299.59
604.71	280.86
604.87	194.26
605.03	269.16
605.18	266.82
605.34	315.97
605.49	273.84
605.65	266.82
605.80	285.55
605.96	315.97
606.12	285.55
606.27	358.10
606.43	337.04
606.58	332.36
606.74	327.68
606.89	278.52
607.05	299.59
607.20	334.70
607.36	269.16
607.51	180.22
607.67	299.59
607.82	266.82
607.98	376.83
608.13	297.25
608.29	234.05
608.44	301.93
608.60	276.18
608.75	337.04
608.91	229.37
609.06	320.65
609.22	245.76
609.37	243.42
609.53	189.58
609.68	250.44
609.84	208.31
609.99	257.46
610.15	262.14
610.30	262.14
610.46	266.82
610.61	308.95
610.76	273.84
610.92	330.02
611.07	220.01
611.23	273.84
611.38	287.89
611.54	283.20
611.69	205.97
611.84	168.52
612.00	177.88
612.15	159.16
612.31	194.26
612.46	278.52
612.62	189.58
612.77	257.46
612.92	330.02
613.08	344.06
613.23	257.46
613.39	234.05
613.54	241.08
613.69	159.16
613.85	292.57
614.00	231.71
614.15	273.84
614.31	215.33
614.46	315.97
614.62	222.35
614.77	252.78
614.92	205.97
615.08	248.10
615.23	212.99
615.38	208.31
615.54	208.31
615.69	205.97
615.84	126.39
616.00	208.31
616.15	196.60
616.30	238.73
616.46	203.63
616.61	154.48
616.76	304.27
616.92	161.50
617.07	241.08
617.22	205.97
617.37	145.11
617.53	222.35
617.68	229.37
617.83	264.48
617.99	220.01
618.14	257.46
618.29	227.03
618.45	159.16
618.60	152.13
618.75	250.44
618.90	173.20
619.06	234.05
619.21	236.39
619.36	175.54
619.51	156.82
619.67	262.14
619.82	191.92
619.97	236.39
620.12	313.63
620.28	273.84
620.43	241.08
620.58	217.67
620.73	210.65
620.89	182.56
621.04	138.09
621.19	212.99
621.34	259.80
621.49	201.29
621.65	180.22
621.80	145.11
621.95	140.43
622.10	184.90
622.25	231.71
622.41	154.48
622.56	166.18
622.71	133.41
622.86	215.33
623.01	152.13
623.16	257.46
623.32	212.99
623.47	205.97
623.62	220.01
623.77	201.29
623.92	227.03
624.07	138.09
624.23	142.77
624.38	191.92
624.53	227.03
624.68	198.95
624.83	215.33
624.98	189.58
625.13	184.90
625.29	147.45
625.44	215.33
625.59	236.39
625.74	140.43
625.89	215.33
626.04	212.99
626.19	191.92
626.34	241.08
626.49	229.37
626.65	105.32
626.80	196.60
626.95	220.01
627.10	100.64
627.25	227.03
627.40	196.60
627.55	93.62
627.70	131.07
627.85	196.60
628.00	191.92
628.15	138.09
628.30	170.86
628.45	135.75
628.60	189.58
628.76	205.97
628.91	77.24
629.06	236.39
629.21	110.01
629.36	222.35
629.51	187.24
629.66	224.69
629.81	184.90
629.96	156.82
630.11	161.50
630.26	184.90
630.41	138.09
630.56	222.35
630.71	93.62
630.86	159.16
631.01	131.07
631.16	100.64
631.31	187.24
631.46	142.77
631.61	180.22
631.76	142.77
631.91	121.71
632.06	201.29
632.21	152.13
632.36	191.92
632.51	112.35
632.66	201.29
632.81	236.39
632.96	149.79
633.10	166.18
633.25	205.97
633.40	65.54
633.55	175.54
633.70	114.69
633.85	145.11
634.00	152.13
634.15	100.64
634.30	145.11
634.45	128.73
634.60	205.97
634.75	229.37
634.90	149.79
635.05	142.77
635.19	168.52
635.34	149.79
635.49	135.75
635.64	133.41
635.79	128.73
635.94	175.54
636.09	135.75
636.24	170.86
636.39	191.92
636.53	198.95
636.68	124.05
636.83	224.69
636.98	224.69
637.13	121.71
637.28	198.95
637.43	245.76
637.57	243.42
637.72	210.65
637.87	159.16
638.02	205.97
638.17	152.13
638.32	203.63
638.46	227.03
638.61	177.88
638.76	147.45
638.91	227.03
639.06	107.66
639.20	175.54
639.35	198.95
639.50	126.39
639.65	285.55
639.80	191.92
639.94	222.35
640.09	245.76
640.24	203.63
640.39	191.92
640.54	121.71
640.68	114.69
640.83	166.18
640.98	159.16
641.13	107.66
641.27	201.29
641.42	102.98
641.57	102.98
641.72	196.60
641.86	173.20
642.01	135.75
642.16	243.42
642.31	107.66
642.45	215.33
642.60	243.42
642.75	142.77
642.90	117.03
643.04	131.07
643.19	156.82
643.34	119.37
643.48	107.66
643.63	170.86
643.78	215.33
643.93	245.76
644.07	107.66
644.22	131.07
644.37	168.52
644.51	110.01
644.66	93.62
644.81	163.84
644.95	126.39
645.10	102.98
645.25	28.09
645.39	177.88
645.54	93.62
645.69	138.09
645.83	79.58
645.98	196.60
646.13	140.43
646.27	173.20
646.42	124.05
646.57	140.43
646.71	138.09
646.86	65.54
647.00	95.96
647.15	147.45
647.30	133.41
647.44	163.84
647.59	100.64
647.74	84.26
647.88	114.69
648.03	102.98
648.17	112.35
648.32	77.24
648.47	170.86
648.61	149.79
648.76	140.43
648.90	100.64
649.05	44.47
649.20	72.56
649.34	28.09
649.49	131.07
649.63	135.75
649.78	30.43
649.92	126.39
650.07	100.64
650.21	28.09
650.36	138.09
650.51	128.73
650.65	187.24
650.80	91.28
650.94	133.41
651.09	79.58
651.23	49.15
651.38	98.30
651.52	187.24
651.67	79.58
651.81	100.64
651.96	168.52
652.10	95.96
652.25	124.05
652.39	124.05
652.54	126.39
652.68	95.96
652.83	128.73
652.97	0.00
653.12	65.54
653.26	163.84
653.41	201.29
653.55	124.05
653.70	140.43
653.84	110.01
653.99	135.75
654.13	135.75
654.27	79.58
654.42	91.28
654.56	79.58
654.71	114.69
654.85	98.30
655.00	86.60
655.14	60.85
655.29	56.17
655.43	121.71
655.57	63.19
655.72	0.00
655.86	51.49
656.01	65.54
656.15	18.72
656.30	72.56
656.44	28.09
656.58	0.00
656.73	84.26
656.87	23.41
657.01	77.24
657.16	149.79
657.30	128.73
657.45	138.09
657.59	72.56
657.73	140.43
657.88	128.73
658.02	124.05
658.16	112.35
658.31	161.50
658.45	173.20
658.60	65.54
658.74	126.39
658.88	37.45
659.03	114.69
659.17	86.60
659.31	88.94
659.46	84.26
659.60	142.77
659.74	79.58
659.89	95.96
660.03	88.94
660.17	168.52
660.32	114.69
660.46	140.43
660.60	100.64
660.74	88.94
660.89	117.03
661.03	42.13
661.17	95.96
661.32	91.28
661.46	124.05
661.60	16.38
661.74	86.60
661.89	138.09
662.03	95.96
662.17	88.94
662.31	58.51
662.46	205.97
662.60	88.94
662.74	60.85
662.88	79.58
663.03	58.51
663.17	21.06
663.31	93.62
663.45	98.30
663.60	21.06
663.74	65.54
663.88	95.96
664.02	112.35
664.17	39.79
664.31	18.72
664.45	81.92
664.59	93.62
664.73	102.98
664.88	128.73
665.02	65.54
665.16	14.04
665.30	135.75
665.44	86.60
665.59	194.26
665.73	49.15
665.87	0.00
666.01	44.47
666.15	53.83
666.29	70.22
666.44	131.07
666.58	131.07
666.72	98.30
666.86	91.28
667.00	119.37
667.14	37.45
667.28	95.96
667.43	65.54
667.57	93.62
667.71	91.28
667.85	135.75
667.99	14.04
668.13	105.32
668.27	37.45
668.41	93.62
668.56	135.75
668.70	93.62
668.84	0.00
668.98	86.60
669.12	28.09
669.26	84.26
669.40	166.18
669.54	114.69
669.68	65.54
669.82	21.06
669.96	14.04
670.10	88.94
670.25	37.45
670.39	114.69
670.53	81.92
670.67	56.17
670.81	102.98
670.95	177.88
671.09	105.32
671.23	98.30
671.37	100.64
671.51	35.11
671.65	77.24
671.79	21.06
671.93	0.00
672.07	119.37
672.21	25.75
672.35	58.51
672.49	84.26
672.63	37.45
672.77	44.47
672.91	7.02
673.05	81.92
673.19	11.70
673.33	44.47
673.47	86.60
673.61	0.00
673.75	88.94
673.89	46.81
674.03	18.72
674.17	7.02
674.31	37.45
674.45	0.00
674.59	77.24
674.73	0.00
674.87	77.24
675.01	95.96
675.15	86.60
675.29	37.45
675.43	107.66
675.56	72.56
675.70	39.79
675.84	98.30
675.98	56.17
676.12	39.79
676.26	32.77
676.40	0.00
676.54	30.43
676.68	100.64
676.82	49.15
676.96	39.79
677.10	93.62
677.23	53.83
677.37	0.00
677.51	0.00
677.65	194.26
677.79	0.00
677.93	0.00
678.07	0.00
678.21	0.00
678.34	14.04
678.48	60.85
678.62	60.85
678.76	7.02
678.90	44.47
679.04	37.45
679.18	0.00
679.31	0.00
679.45	0.00
679.59	93.62
679.73	51.49
679.87	0.00
680.00	77.24
680.14	0.00
680.28	58.51
680.42	0.00
680.56	0.00
680.70	0.00
680.83	16.38
680.97	4.68
681.11	0.00
681.25	51.49
681.39	0.00
681.52	16.38
681.66	9.36
681.80	44.47
681.94	0.00
682.07	0.00
682.21	58.51
682.35	0.00
682.49	46.81
682.62	0.00
682.76	0.00
682.90	0.00
683.04	58.51
683.17	2.34
683.31	0.00
683.45	0.00
683.59	11.70
683.72	67.88
683.86	23.41
684.00	0.00
684.13	51.49
684.27	0.00
684.41	39.79
684.55	30.43
684.68	25.75
684.82	0.00
684.96	63.19
685.09	0.00
685.23	0.00
685.37	0.00
685.50	9.36
685.64	25.75
685.78	18.72
685.91	0.00
686.05	0.00
686.19	0.00
686.32	0.00
686.46	0.00
686.60	0.00
686.73	14.04
686.87	0.00
687.01	0.00
687.14	0.00
687.28	0.00
687.42	0.00
687.55	0.00
687.69	0.00
687.82	0.00
687.96	0.00
688.10	0.00
688.23	0.00
688.37	0.00
688.50	0.00
688.64	0.00
688.78	0.00
688.91	0.00
689.05	0.00
689.18	0.00
689.32	0.00
689.46	0.00
689.59	0.00
689.73	0.00
689.86	0.00
690.00	0.00
690.13	0.00
690.27	0.00
690.41	0.00
690.54	0.00
690.68	0.00
690.81	0.00
690.95	0.00
691.08	0.00
691.22	0.00
691.35	0.00
691.49	0.00
691.62	0.00
691.76	0.00
691.89	0.00
692.03	0.00
692.16	0.00
692.30	0.00
692.43	0.00
692.57	0.00
692.70	0.00
692.84	0.00
692.97	0.00
693.11	0.00
693.24	0.00
693.38	0.00
693.51	0.00
693.65	0.00
693.78	0.00
693.92	0.00
694.05	0.00
694.19	0.00
694.32	0.00
694.45	0.00
694.59	0.00
694.72	0.00
694.86	0.00
694.99	0.00
695.13	0.00
695.26	0.00
695.39	0.00
695.53	0.00
695.66	0.00
695.80	0.00
695.93	0.00
696.07	0.00
696.20	0.00
696.33	0.00
696.47	0.00
696.60	0.00
696.73	0.00
696.87	0.00
697.00	0.00
697.14	0.00
697.27	0.00
697.40	0.00
697.54	0.00
697.67	0.00
697.80	0.00
697.94	0.00
698.07	0.00
698.21	0.00
698.34	0.00
698.47	0.00
698.61	0.00
698.74	0.00
698.87	0.00
699.01	0.00
699.14	0.00
699.27	2.34
699.40	77.24
699.54	0.00
699.67	0.00
699.80	0.00
699.94	0.00
700.07	0.00
700.20	0.00
700.34	0.00
700.47	0.00
700.60	0.00
700.73	0.00
700.87	0.00
701.00	0.00
701.13	0.00
701.26	0.00
701.40	0.00
701.53	0.00
701.66	0.00
701.79	0.00
701.93	0.00
702.06	18.72
702.19	0.00
702.32	0.00
702.46	0.00
702.59	0.00
702.72	0.00
702.85	0.00
702.99	0.00
703.12	0.00
703.25	0.00
703.38	0.00
703.51	0.00
703.65	0.00
703.78	0.00
703.91	0.00
704.04	0.00
704.17	0.00
704.31	0.00
704.44	0.00
704.57	0.00
704.70	0.00
704.83	0.00
704.96	0.00
705.10	0.00
705.23	0.00
>>>>>End Processed Spectral Data<<<<<
