SpectraSuite Data File
++++++++++++++++++++++++++++++++++++
Date: Mon Oct 07 15:00:57 GMT-05:00 2013
User: price-jones
Dark Spectrum Present: No
Reference Spectrum Present: No
Number of Sampled Component Spectra: 1
Spectrometers: USB2+H05261
Integration Time (usec): 10000000 (USB2+H05261)
Spectra Averaged: 1 (USB2+H05261)
Boxcar Smoothing: 0 (USB2+H05261)
Correct for Electrical Dark: No (USB2+H05261)
Strobe/Lamp Enabled: No (USB2+H05261)
Correct for Detector Non-linearity: No (USB2+H05261)
Correct for Stray Light: No (USB2+H05261)
Number of Pixels in Processed Spectrum: 2048
>>>>>Begin Processed Spectral Data<<<<<
365.73	0.00
365.92	0.00
366.12	0.00
366.32	0.00
366.52	0.00
366.72	5954.32
366.91	3094.19
367.11	5668.78
367.31	4704.48
367.51	5650.05
367.70	6443.49
367.90	8842.54
368.10	6141.57
368.30	6445.84
368.49	3365.69
368.69	8105.28
368.89	5584.52
369.09	3653.58
369.28	5186.63
369.48	3070.78
369.68	4381.48
369.87	5980.07
370.07	3836.14
370.27	8685.73
370.47	6054.97
370.66	4610.86
370.86	7117.57
371.06	10010.47
371.25	12704.43
371.45	5392.59
371.65	8772.33
371.84	4517.23
372.04	3911.04
372.24	6197.74
372.44	5104.71
372.63	6754.79
372.83	11346.92
373.03	5753.04
373.22	4503.19
373.42	4716.18
373.62	5699.20
373.81	6963.09
374.01	9022.77
374.21	8409.54
374.40	5343.44
374.60	9469.81
374.79	5720.27
374.99	5502.60
375.19	6897.56
375.38	7529.50
375.58	6413.07
375.78	8915.10
375.97	7934.42
376.17	12624.85
376.37	5760.06
376.56	7108.21
376.76	4671.71
376.95	4657.67
377.15	7583.34
377.35	7124.59
377.54	7246.30
377.74	4580.43
377.93	4961.94
378.13	6672.87
378.33	8863.61
378.52	5966.03
378.72	8985.32
378.91	8081.87
379.11	5144.50
379.31	5231.10
379.50	3747.20
379.70	8879.99
379.89	8805.10
380.09	5053.22
380.28	4030.40
380.48	6057.31
380.68	4816.82
380.87	3929.76
381.07	6883.52
381.26	9439.38
381.46	4142.75
381.65	7520.14
381.85	5254.50
382.04	7929.74
382.24	7431.20
382.43	5774.10
382.63	4358.08
382.83	5554.09
383.02	8512.53
383.22	9760.03
383.41	4344.03
383.61	6263.27
383.80	9542.36
384.00	5961.34
384.19	5163.22
384.39	6466.90
384.58	5441.75
384.78	7265.02
384.97	6787.55
385.17	5839.64
385.36	5093.01
385.56	8013.99
385.75	3840.82
385.95	5867.72
386.14	8248.05
386.34	5177.26
386.53	6743.08
386.72	4978.32
386.92	9427.68
387.11	7360.98
387.31	7548.23
387.50	4550.00
387.70	4086.58
387.89	6256.25
388.09	4629.58
388.28	4362.76
388.48	4109.98
388.67	8278.47
388.86	5603.24
389.06	5565.79
389.25	7007.56
389.45	6733.72
389.64	5832.62
389.84	9053.19
390.03	7503.76
390.22	6443.49
390.42	5268.55
390.61	4344.03
390.81	3653.58
391.00	5923.90
391.19	8968.93
391.39	5636.01
391.58	7632.49
391.78	6008.16
391.97	6541.80
392.16	4152.11
392.36	9427.68
392.55	9013.40
392.75	6043.26
392.94	4973.64
393.13	7845.48
393.33	4091.26
393.52	5067.26
393.71	10022.17
393.91	6438.81
394.10	4217.65
394.29	4826.18
394.49	5025.13
394.68	7019.27
394.88	9041.49
395.07	8697.43
395.26	6249.23
395.46	6040.92
395.65	8875.31
395.84	7239.28
396.04	15054.33
396.23	6019.86
396.42	5287.27
396.62	7122.25
396.81	7056.72
397.00	6176.67
397.19	6553.50
397.39	5472.17
397.58	9643.01
397.77	5446.43
397.97	6134.54
398.16	5919.21
398.35	7824.41
398.55	4528.94
398.74	6162.63
398.93	8690.41
399.12	5268.55
399.32	7707.38
399.51	5816.23
399.70	7782.28
399.90	7166.72
400.09	7098.84
400.28	9032.13
400.47	5448.77
400.67	8201.24
400.86	6392.00
401.05	7744.83
401.24	8999.36
401.44	8173.15
401.63	8161.45
401.82	9280.22
402.01	4755.97
402.21	7119.91
402.40	6986.50
402.59	5657.07
402.78	5607.92
402.97	5685.16
403.17	6677.55
403.36	7246.30
403.55	5914.53
403.74	5708.57
403.93	5841.98
404.13	9434.70
404.32	5093.01
404.51	5418.34
404.70	8472.74
404.89	5799.85
405.09	12004.61
405.28	6162.63
405.47	4566.39
405.66	8006.97
405.85	8968.93
406.05	6452.86
406.24	6237.53
406.43	7171.40
406.62	7913.35
406.81	13462.76
407.00	9296.61
407.20	6937.35
407.39	6448.18
407.58	5888.79
407.77	7758.88
407.96	10207.08
408.15	8786.37
408.34	7875.90
408.54	7250.98
408.73	7108.21
408.92	6792.23
409.11	8681.05
409.30	9802.16
409.49	4999.38
409.68	6139.23
409.87	7129.27
410.07	5158.54
410.26	7279.07
410.45	6218.80
410.64	5352.81
410.83	6775.85
411.02	5757.72
411.21	8222.30
411.40	8912.76
411.59	6314.77
411.78	5825.59
411.98	6888.20
412.17	4997.04
412.36	5898.15
412.55	6064.33
412.74	8486.78
412.93	11953.12
413.12	5542.39
413.31	9511.94
413.50	7892.29
413.69	6541.80
413.88	10562.84
414.07	7527.16
414.26	7346.94
414.45	5727.29
414.64	7939.10
414.83	8217.62
415.02	7850.16
415.22	8805.10
415.41	10452.83
415.60	5865.38
415.79	6731.38
415.98	10745.40
416.17	7169.06
416.36	7190.13
416.55	5818.57
416.74	8575.72
416.93	9926.21
417.12	6890.54
417.31	6754.79
417.50	6729.04
417.69	12138.02
417.88	7236.94
418.07	5327.06
418.26	6597.97
418.45	6684.57
418.64	11627.78
418.83	8152.09
419.02	7990.59
419.21	7517.80
419.39	7543.55
419.58	5853.68
419.77	5954.32
419.96	9966.00
420.15	11583.31
420.34	7267.36
420.53	8035.06
420.72	9816.21
420.91	8177.83
421.10	7470.99
421.29	7829.09
421.48	8931.48
421.67	9888.76
421.86	6506.69
422.05	7122.25
422.24	6888.20
422.43	8060.80
422.61	5383.23
422.80	6902.24
422.99	7527.16
423.18	6492.65
423.37	11171.38
423.56	8676.37
423.75	8973.61
423.94	5453.45
424.13	6981.82
424.32	6094.76
424.50	6731.38
424.69	7115.23
424.88	11080.10
425.07	6621.38
425.26	8631.90
425.45	9104.68
425.64	6005.81
425.83	6780.53
426.01	10560.50
426.20	8318.26
426.39	7007.56
426.58	6368.60
426.77	7995.27
426.96	8943.19
427.15	8362.73
427.33	6366.26
427.52	7822.07
427.71	7665.25
427.90	8226.98
428.09	6745.42
428.28	5734.31
428.46	6841.39
428.65	8933.82
428.84	6518.39
429.03	12020.99
429.22	6628.40
429.40	5554.09
429.59	5345.78
429.78	10120.48
429.97	6871.81
430.16	6136.88
430.34	6825.00
430.53	6338.17
430.72	6796.92
430.91	9802.16
431.10	5633.67
431.28	7515.46
431.47	9486.19
431.66	8634.24
431.85	6375.62
432.03	7478.01
432.22	14670.48
432.41	7356.30
432.60	11332.87
432.79	6204.76
432.97	7864.20
433.16	6918.62
433.35	5994.11
433.54	6679.89
433.72	9226.39
433.91	9811.53
434.10	6747.76
434.28	8205.92
434.47	6860.11
434.66	10272.61
434.85	6939.69
435.03	8070.17
435.22	12142.70
435.41	12931.46
435.59	9444.06
435.78	8732.54
435.97	6796.92
436.16	10080.69
436.34	7618.44
436.53	8879.99
436.72	11185.42
436.90	9839.61
437.09	9050.85
437.28	8229.32
437.46	7325.88
437.65	9797.48
437.84	9750.67
438.02	8863.61
438.21	9579.81
438.40	6946.71
438.58	6024.54
438.77	8479.76
438.96	8329.97
439.14	6399.02
439.33	10211.76
439.52	7449.93
439.70	8180.17
439.89	10387.30
440.08	8826.16
440.26	8564.02
440.45	12875.29
440.63	9151.49
440.82	8575.72
441.01	8910.42
441.19	7861.86
441.38	7929.74
441.57	8121.66
441.75	11789.28
441.94	11777.58
442.12	8571.04
442.31	7868.88
442.50	7957.82
442.68	7899.31
442.87	8720.84
443.05	7941.44
443.24	8957.23
443.43	10258.57
443.61	12318.24
443.80	8753.60
443.98	7520.14
444.17	8023.36
444.35	11105.84
444.54	8145.06
444.73	8013.99
444.91	12060.78
445.10	6773.51
445.28	7346.94
445.47	9090.64
445.65	8741.90
445.84	7489.71
446.02	8872.97
446.21	7754.19
446.39	7894.63
446.58	9593.86
446.77	7698.02
446.95	8252.73
447.14	9968.34
447.32	13034.44
447.51	8659.98
447.69	9418.32
447.88	9060.21
448.06	13455.74
448.25	9774.08
448.43	7133.95
448.62	6920.96
448.80	9453.42
448.99	10927.96
449.17	7686.32
449.36	7648.87
449.54	10675.18
449.73	7166.72
449.91	10183.67
450.10	7894.63
450.28	15777.55
450.46	14782.82
450.65	11529.48
450.83	9675.77
451.02	8676.37
451.20	9095.32
451.39	8798.07
451.57	8388.48
451.76	7824.41
451.94	8730.20
452.13	10452.83
452.31	11796.30
452.49	10111.11
452.68	6766.49
452.86	9795.14
453.05	13907.46
453.23	8858.93
453.42	6813.30
453.60	8575.72
453.78	9984.73
453.97	7164.38
454.15	7049.69
454.34	7716.75
454.52	7536.52
454.70	12903.37
454.89	10815.62
455.07	7714.41
455.26	10394.32
455.44	11211.17
455.62	8208.26
455.81	9673.43
455.99	10366.23
456.17	10693.91
456.36	8650.62
456.54	8451.67
456.73	8203.58
456.91	8079.53
457.09	10104.09
457.28	11992.90
457.46	9212.35
457.64	11910.99
457.83	8613.17
458.01	7899.31
458.19	9919.19
458.38	8161.45
458.56	9954.30
458.74	7007.56
458.93	10061.96
459.11	11658.21
459.29	7660.57
459.48	10794.55
459.66	14448.13
459.84	11527.14
460.03	20531.18
460.21	11676.93
460.39	9008.72
460.57	12582.72
460.76	10181.33
460.94	9336.40
461.12	14155.56
461.31	12964.23
461.49	9095.32
461.67	8580.40
461.85	9958.98
462.04	8833.18
462.22	29785.66
462.40	10132.18
462.59	12594.42
462.77	8163.79
462.95	9895.78
463.13	7124.59
463.32	11824.39
463.50	9760.03
463.68	10544.11
463.86	9799.82
464.05	8690.41
464.23	12629.53
464.41	11171.38
464.59	8114.64
464.78	8425.93
464.96	7204.17
465.14	9980.04
465.32	8070.17
465.50	11190.10
465.69	10988.82
465.87	7265.02
466.05	10834.34
466.23	6902.24
466.41	8772.33
466.60	8865.95
466.78	9535.34
466.96	11999.93
467.14	10094.73
467.32	12404.84
467.51	10721.99
467.69	10902.22
467.87	13975.34
468.05	9355.12
468.23	14831.97
468.41	11845.45
468.60	8751.26
468.78	10061.96
468.96	12865.92
469.14	10897.53
469.32	6825.00
469.50	7499.08
469.69	10801.57
469.87	9776.42
470.05	9767.06
470.23	9081.28
470.41	7459.29
470.59	8016.33
470.77	10139.20
470.95	9535.34
471.14	12475.06
471.32	9247.46
471.50	13844.27
471.68	9535.34
471.86	10434.11
472.04	8093.57
472.22	9771.74
472.40	7353.96
472.58	8205.92
472.77	7627.81
472.95	9423.00
473.13	15389.02
473.31	13202.96
473.49	7414.82
473.67	8109.96
473.85	11459.26
474.03	11510.75
474.21	10136.86
474.39	13338.71
474.57	14630.69
474.75	10677.52
474.93	8489.12
475.12	7442.90
475.30	8896.38
475.48	9586.83
475.66	10253.89
475.84	9802.16
476.02	9596.20
476.20	11871.20
476.38	10076.01
476.56	16917.39
476.74	9554.07
476.92	9387.89
477.10	9884.08
477.28	11913.33
477.46	9507.26
477.64	11644.17
477.82	10008.13
478.00	9589.17
478.18	10492.62
478.36	9844.29
478.54	8629.56
478.72	9462.79
478.90	10024.51
479.08	11248.61
479.26	10333.47
479.44	9525.98
479.62	8308.90
479.80	9748.33
479.98	8393.16
480.16	9317.67
480.34	12697.41
480.52	9135.11
480.70	11960.14
480.88	8957.23
481.06	8573.38
481.24	9245.12
481.41	9612.58
481.59	12025.67
481.77	11033.29
481.95	9865.36
482.13	15522.43
482.31	10956.05
482.49	8975.95
482.67	12222.28
482.85	12760.60
483.03	11800.98
483.21	11410.11
483.39	9689.82
483.57	10525.39
483.74	14967.73
483.92	10736.04
484.10	8823.82
484.28	13619.58
484.46	18050.21
484.64	10099.41
484.82	10960.73
485.00	9935.57
485.18	10930.30
485.35	11365.64
485.53	7960.16
485.71	13872.36
485.89	7503.76
486.07	9643.01
486.25	17680.41
486.43	12631.87
486.61	12758.26
486.78	12556.97
486.96	8990.00
487.14	10670.50
487.32	10523.05
487.50	10169.63
487.68	13352.76
487.85	9376.19
488.03	12769.96
488.21	15307.10
488.39	11082.44
488.57	13179.56
488.75	10399.00
488.92	39878.05
489.10	12226.96
489.28	17326.99
489.46	9764.72
489.64	11864.18
489.81	12006.95
489.99	13624.26
490.17	11407.77
490.35	20800.34
490.53	11325.85
490.70	10061.96
490.88	14146.20
491.06	10871.79
491.24	13579.79
491.41	16191.83
491.59	13043.81
491.77	10150.90
491.95	10214.10
492.13	10452.83
492.30	12407.18
492.48	11557.57
492.66	12367.39
492.84	10712.63
493.01	12891.67
493.19	11288.40
493.37	17394.86
493.54	14382.59
493.72	13771.71
493.90	11585.65
494.08	11272.02
494.25	14127.47
494.43	13420.63
494.61	11906.31
494.79	10611.99
494.96	10696.25
495.14	14253.86
495.32	11798.64
495.49	13027.42
495.67	13366.80
495.85	11775.24
496.02	11164.36
496.20	15293.06
496.38	14340.46
496.55	13156.15
496.73	14321.74
496.91	11421.81
497.09	14813.25
497.26	12751.24
497.44	12652.94
497.62	12578.04
497.79	12741.88
497.97	14061.94
498.14	14466.85
498.32	13886.40
498.50	13987.04
498.67	11896.94
498.85	13493.19
499.03	12631.87
499.20	13177.22
499.38	13352.76
499.56	13231.05
499.73	18808.54
499.91	15337.53
500.08	15543.50
500.26	12791.03
500.44	11901.62
500.61	14019.81
500.79	11962.48
500.97	14867.08
501.14	17130.38
501.32	13851.29
501.49	16994.63
501.67	13144.45
501.84	14293.65
502.02	11314.15
502.20	18724.29
502.37	14567.49
502.55	12767.62
502.72	13013.38
502.90	15435.83
503.07	14022.15
503.25	14670.48
503.43	11255.64
503.60	12421.22
503.78	14270.25
503.95	13121.04
504.13	12638.89
504.30	15426.47
504.48	16542.91
504.65	17717.86
504.83	15679.25
505.01	12634.21
505.18	14068.96
505.36	13729.58
505.53	13282.54
505.71	12500.80
505.88	17839.56
506.06	13551.70
506.23	13399.57
506.41	12861.24
506.58	15044.96
506.76	14249.18
506.93	12882.31
507.11	15073.05
507.28	11669.91
507.46	12556.97
507.63	14281.95
507.81	11840.77
507.98	13540.00
508.16	13589.15
508.33	13584.47
508.50	15566.90
508.68	14071.30
508.85	14012.79
509.03	12674.00
509.20	13111.68
509.38	15356.25
509.55	16781.64
509.73	16545.25
509.90	17788.07
510.08	12465.69
510.25	16105.23
510.42	12369.73
510.60	13860.65
510.77	15826.70
510.95	16917.39
511.12	13156.15
511.30	15908.62
511.47	15782.23
511.64	19487.30
511.82	13422.97
511.99	13647.66
512.17	13432.33
512.34	12039.72
512.51	12748.90
512.69	13146.79
512.86	17757.64
513.04	12580.38
513.21	14466.85
513.38	12547.61
513.56	12627.19
513.73	12919.76
513.90	11756.51
514.08	11845.45
514.25	15040.28
514.43	15044.96
514.60	11981.20
514.77	12730.17
514.95	14764.10
515.12	12276.11
515.29	14890.49
515.47	14768.78
515.64	14347.48
515.81	13816.18
515.99	18361.50
516.16	15183.06
516.33	16468.01
516.51	11997.59
516.68	11103.50
516.85	12571.02
517.03	12922.10
517.20	15702.65
517.37	14967.73
517.54	15943.73
517.72	13027.42
517.89	10991.16
518.06	11566.93
518.24	19428.79
518.41	19323.46
518.58	15669.89
518.75	12423.56
518.93	14169.60
519.10	14464.51
519.27	13081.25
519.45	14689.20
519.62	14827.29
519.79	15548.18
519.96	12161.42
520.14	14665.80
520.31	17614.87
520.48	14211.73
520.65	14925.60
520.83	16016.29
521.00	15936.71
521.17	17336.35
521.34	13626.60
521.52	15129.22
521.69	14532.39
521.86	14239.82
522.03	16395.45
522.20	19302.40
522.38	13338.71
522.55	15208.80
522.72	12018.65
522.89	17015.69
523.07	20390.75
523.24	14483.24
523.41	13867.67
523.58	14052.58
523.75	14068.96
523.92	13254.45
524.10	15587.97
524.27	14644.73
524.44	13722.56
524.61	18328.74
524.78	13453.40
524.96	16439.92
525.13	15311.78
525.30	18324.05
525.47	17090.59
525.64	15112.84
525.81	15288.38
525.98	15234.55
526.16	13319.99
526.33	12599.10
526.50	11910.99
526.67	11800.98
526.84	12004.61
527.01	12498.46
527.18	15679.25
527.36	14759.42
527.53	12666.98
527.70	17905.10
527.87	14478.55
528.04	19903.92
528.21	13254.45
528.38	17671.04
528.55	18480.87
528.72	19101.11
528.89	21177.17
529.07	14995.81
529.24	14949.00
529.41	19630.07
529.58	15367.96
529.75	14090.02
529.92	16666.95
530.09	15159.65
530.26	17495.50
530.43	16084.16
530.60	15044.96
530.77	15293.06
530.94	17287.20
531.11	16755.90
531.28	14122.79
531.46	13544.68
531.63	15403.07
531.80	16042.03
531.97	16655.25
532.14	14686.86
532.31	15358.60
532.48	15428.81
532.65	15290.72
532.82	12781.67
532.99	14029.17
533.16	14560.47
533.33	14878.79
533.50	14361.53
533.67	12798.05
533.84	16262.04
534.01	15330.51
534.18	14349.82
534.35	15049.64
534.52	15609.03
534.69	21788.05
534.86	15154.97
535.03	14307.69
535.20	14331.10
535.37	18118.09
535.54	15658.18
535.71	14693.88
535.88	19594.96
536.05	14235.14
536.22	16383.75
536.38	14099.39
536.55	15721.38
536.72	17790.41
536.89	12762.94
537.06	13741.29
537.23	13465.10
537.40	13877.04
537.57	13762.35
537.74	17317.62
537.91	16634.19
538.08	14991.13
538.25	16376.73
538.42	14129.81
538.59	15550.52
538.75	14345.14
538.92	15037.94
539.09	17542.32
539.26	14125.13
539.43	18651.73
539.60	15185.40
539.77	16212.89
539.94	14590.90
540.11	16145.02
540.28	19328.14
540.44	18665.77
540.61	14272.59
540.78	14078.32
540.95	13036.78
541.12	20130.95
541.29	13771.71
541.46	19754.12
541.62	15695.63
541.79	13334.03
541.96	13158.49
542.13	14375.57
542.30	13207.64
542.47	17287.20
542.63	14190.67
542.80	15971.82
542.97	18150.85
543.14	14523.02
543.31	16432.90
543.48	14677.50
543.64	16393.11
543.81	15269.66
543.98	13336.37
544.15	12835.50
544.32	14462.17
544.48	14719.63
544.65	14258.54
544.82	13441.70
544.99	14506.64
545.16	18066.60
545.32	13767.03
545.49	15941.39
545.66	14913.89
545.83	13394.89
546.00	12641.23
546.16	13951.93
546.33	14279.61
546.50	14534.73
546.67	18448.10
546.83	17238.05
547.00	15461.58
547.17	12844.86
547.34	12650.60
547.50	14703.25
547.67	14560.47
547.84	13308.29
548.00	16847.18
548.17	13577.45
548.34	14139.18
548.51	19761.14
548.67	17907.44
548.84	14480.89
549.01	15833.72
549.18	15616.05
549.34	16081.82
549.51	15480.30
549.68	15969.48
549.84	14796.87
550.01	12629.53
550.18	31763.41
550.34	23381.95
550.51	15452.22
550.68	21027.37
550.84	13458.08
551.01	14991.13
551.18	17020.38
551.34	14953.68
551.51	14417.70
551.68	14534.73
551.84	17231.02
552.01	13259.13
552.18	14153.22
552.34	14937.30
552.51	15225.18
552.68	16793.34
552.84	13722.56
553.01	15400.72
553.18	17736.58
553.34	14003.43
553.51	12669.32
553.67	16578.01
553.84	20973.54
554.01	16788.66
554.17	16531.20
554.34	13242.75
554.51	16468.01
554.67	18157.88
554.84	17088.25
555.00	15929.69
555.17	15697.97
555.33	17673.39
555.50	15468.60
555.67	15882.88
555.83	12624.85
556.00	14909.21
556.16	37446.23
556.33	15419.45
556.50	14759.42
556.66	14583.88
556.83	13378.50
556.99	13554.04
557.16	15190.08
557.32	13359.78
557.49	13650.00
557.65	13446.38
557.82	13369.14
557.98	14750.06
558.15	13008.70
558.32	14235.14
558.48	13064.87
558.65	13921.51
558.81	15901.60
558.98	13191.26
559.14	16116.93
559.31	14738.35
559.47	16484.39
559.64	13160.83
559.80	16669.30
559.97	12533.57
560.13	14403.66
560.30	12079.50
560.46	13474.46
560.63	13750.65
560.79	14670.48
560.96	14972.41
561.12	13114.02
561.29	15463.92
561.45	13640.64
561.61	14398.98
561.78	25820.79
561.94	13870.01
562.11	13118.70
562.27	14878.79
562.44	12828.48
562.60	14164.92
562.77	14071.30
562.93	22462.12
563.10	15300.08
563.26	14185.99
563.42	17383.16
563.59	14810.91
563.75	12475.06
563.92	18162.56
564.08	15449.88
564.24	16823.77
564.41	20343.94
564.57	12198.87
564.74	12971.25
564.90	14834.32
565.07	15927.35
565.23	15950.75
565.39	12863.58
565.56	15033.26
565.72	12603.78
565.88	13879.38
566.05	13107.00
566.21	13380.84
566.38	15241.57
566.54	14647.07
566.70	13261.48
566.87	12617.83
567.03	11332.87
567.19	14001.08
567.36	15477.96
567.52	13266.16
567.68	15723.72
567.85	15634.78
568.01	13245.09
568.17	11386.71
568.34	13315.31
568.50	17530.61
568.66	11932.05
568.83	22913.84
568.99	12437.61
569.15	15967.13
569.32	13263.82
569.48	13397.23
569.64	12210.57
569.81	13804.48
569.97	12512.50
570.13	15300.08
570.30	12805.07
570.46	12898.69
570.62	13090.62
570.78	13158.49
570.95	10876.47
571.11	18764.07
571.27	18635.35
571.43	11480.33
571.60	15815.00
571.76	12421.22
571.92	13514.25
572.09	12847.20
572.25	13397.23
572.41	13692.13
572.57	13310.63
572.74	19351.55
572.90	15887.56
573.06	14193.01
573.22	15145.61
573.38	16856.54
573.55	16091.18
573.71	16301.83
573.87	15634.78
574.03	11845.45
574.20	12903.37
574.36	16704.40
574.52	12470.37
574.68	12313.56
574.84	14792.19
575.01	12870.61
575.17	14871.76
575.33	12409.52
575.49	16189.49
575.65	16327.58
575.82	15826.70
575.98	20386.07
576.14	13329.35
576.30	12889.33
576.46	13195.94
576.62	13841.93
576.79	14473.87
576.95	17214.64
577.11	12079.50
577.27	11477.99
577.43	17041.44
577.59	17507.21
577.75	14731.33
577.92	12784.01
578.08	12414.20
578.24	11566.93
578.40	16283.11
578.56	16989.95
578.72	17523.59
578.88	15295.40
579.04	12587.40
579.21	14443.45
579.37	13067.21
579.53	12730.17
579.69	16697.38
579.85	11183.08
580.01	14743.03
580.17	12079.50
580.33	12491.44
580.49	13710.86
580.65	14789.85
580.82	13275.52
580.98	12135.68
581.14	12079.50
581.30	16734.83
581.46	13462.76
581.62	16372.05
581.78	12053.76
581.94	14824.95
582.10	10726.68
582.26	12791.03
582.42	11871.20
582.58	14511.32
582.74	12531.23
582.90	13673.41
583.06	14216.41
583.22	13717.88
583.38	11920.35
583.54	11377.34
583.70	17366.78
583.86	13769.37
584.02	12774.64
584.18	17584.44
584.34	12093.55
584.50	13380.84
584.66	12280.79
584.82	11073.07
584.98	13369.14
585.14	12528.89
585.30	16358.00
585.46	12884.65
585.62	10665.82
585.78	12329.94
585.94	14434.08
586.10	13071.89
586.26	13174.88
586.42	18256.18
586.58	14516.00
586.74	12788.69
586.90	13174.88
587.06	14148.54
587.22	13500.21
587.38	11445.22
587.54	11742.47
587.70	15992.88
587.86	15508.39
588.02	12140.36
588.18	13734.26
588.34	14349.82
588.49	9298.95
588.65	11913.33
588.81	11227.55
588.97	9275.54
589.13	11543.52
589.29	12627.19
589.45	16053.73
589.61	12603.78
589.77	16175.44
589.93	11695.66
590.08	11454.58
590.24	10899.87
590.40	12580.38
590.56	14846.02
590.72	12418.88
590.88	10455.17
591.04	13275.52
591.20	11550.54
591.35	17446.35
591.51	12360.37
591.67	10462.19
591.83	11875.88
591.99	14017.47
592.15	15220.50
592.31	13743.63
592.46	12166.10
592.62	15019.22
592.78	11052.01
592.94	11019.24
593.10	10813.28
593.26	10359.21
593.41	13657.03
593.57	12613.15
593.73	11339.90
593.89	14691.54
594.05	12304.20
594.20	11103.50
594.36	15896.92
594.52	11178.40
594.68	11246.27
594.84	15215.82
594.99	17053.14
595.15	13549.36
595.31	14766.44
595.47	17212.30
595.62	12121.63
595.78	11843.11
595.94	11976.52
596.10	15887.56
596.25	13055.51
596.41	14761.76
596.57	11129.25
596.73	11262.66
596.88	12322.92
597.04	13020.40
597.20	10799.23
597.36	12725.49
597.51	10988.82
597.67	10977.11
597.83	11707.36
597.99	14604.94
598.14	12917.42
598.30	15374.98
598.46	11651.19
598.61	15939.05
598.77	13483.83
598.93	10803.91
599.09	12119.29
599.24	13146.79
599.40	15700.31
599.56	12367.39
599.71	12379.09
599.87	11756.51
600.03	12482.08
600.18	12140.36
600.34	14045.55
600.50	11129.25
600.65	10216.44
600.81	14855.38
600.97	10953.71
601.12	12042.06
601.28	15805.64
601.44	12463.35
601.59	10317.08
601.75	12718.47
601.91	11328.19
602.06	13373.82
602.22	22302.96
602.37	13577.45
602.53	11744.81
602.69	13586.81
602.84	10190.69
603.00	11765.87
603.16	14078.32
603.31	14808.57
603.47	13493.19
603.62	9385.55
603.78	12798.05
603.94	13247.43
604.09	12042.06
604.25	13858.31
604.40	13540.00
604.56	11047.33
604.71	12271.43
604.87	10939.66
605.03	12095.89
605.18	12786.35
605.34	15655.84
605.49	11798.64
605.65	11227.55
605.80	9612.58
605.96	12093.55
606.12	13532.98
606.27	14581.54
606.43	11815.02
606.58	14113.43
606.74	12065.46
606.89	11927.37
607.05	14317.06
607.20	11999.93
607.36	13334.03
607.51	11473.31
607.67	12322.92
607.82	12519.53
607.98	16592.06
608.13	12938.48
608.29	11487.35
608.44	15592.65
608.60	12346.33
608.75	15749.46
608.91	13888.74
609.06	14953.68
609.22	14466.85
609.37	10139.20
609.53	10850.72
609.68	11201.80
609.84	9668.75
609.99	10132.18
610.15	13336.37
610.30	13177.22
610.46	15171.35
610.61	12833.16
610.76	11805.66
610.92	13727.24
611.07	10317.08
611.23	20051.37
611.38	14581.54
611.54	10052.60
611.69	10375.59
611.84	10930.30
612.00	10473.90
612.15	10604.97
612.31	10815.62
612.46	10611.99
612.62	9240.44
612.77	15087.09
612.92	13319.99
613.08	15793.94
613.23	13277.86
613.39	11606.72
613.54	10052.60
613.69	10045.58
613.85	10583.90
614.00	10637.73
614.15	11302.45
614.31	10017.49
614.46	13502.55
614.62	10399.00
614.77	15133.90
614.92	9846.63
615.08	13111.68
615.23	12475.06
615.38	11508.41
615.54	10436.45
615.69	11410.11
615.84	9114.05
616.00	10792.21
616.15	9905.15
616.30	11185.42
616.46	11014.56
616.61	9605.56
616.76	12645.91
616.92	11712.04
617.07	10242.18
617.22	9912.17
617.37	10541.77
617.53	12037.38
617.68	10846.04
617.83	11190.10
617.99	14555.79
618.14	16627.17
618.29	14485.58
618.45	11477.99
618.60	10473.90
618.75	9741.31
618.90	9067.24
619.06	11492.03
619.21	17371.46
619.36	15435.83
619.51	10146.22
619.67	10530.07
619.82	10293.68
619.97	12339.30
620.12	13036.78
620.28	12205.89
620.43	11286.06
620.58	12641.23
620.73	12088.87
620.89	11775.24
621.04	12248.02
621.19	16901.01
621.34	10143.88
621.49	9495.55
621.65	12559.31
621.80	9060.21
621.95	10211.76
622.10	12894.01
622.25	8844.88
622.41	9259.16
622.56	11234.57
622.71	11887.58
622.86	14291.31
623.01	10391.98
623.16	15335.19
623.32	9245.12
623.47	12608.47
623.62	10705.61
623.77	10871.79
623.92	10602.63
624.07	9970.68
624.23	10703.27
624.38	9064.89
624.53	11061.37
624.68	13027.42
624.83	15396.04
624.98	11875.88
625.13	10092.39
625.29	9373.85
625.44	10817.96
625.59	11316.49
625.74	12121.63
625.89	15197.10
626.04	8746.58
626.19	9827.91
626.34	10321.76
626.49	12585.06
626.65	9188.94
626.80	9675.77
626.95	12116.95
627.10	8837.86
627.25	10977.11
627.40	9151.49
627.55	12262.07
627.70	9151.49
627.85	12580.38
628.00	10106.43
628.15	9420.66
628.30	11112.86
628.45	8861.27
628.60	10122.82
628.76	10836.68
628.91	9404.27
629.06	10874.13
629.21	9631.30
629.36	13544.68
629.51	7775.26
629.66	11377.34
629.81	9425.34
629.96	11674.59
630.11	12746.56
630.26	11477.99
630.41	9717.90
630.56	11630.12
630.71	7693.34
630.86	9090.64
631.01	8168.47
631.16	9518.96
631.31	14836.66
631.46	13905.12
631.61	10155.58
631.76	11499.05
631.91	10150.90
632.06	12432.93
632.21	12095.89
632.36	11969.50
632.51	10169.63
632.66	10223.46
632.81	9647.69
632.96	10663.48
633.10	11000.52
633.25	15389.02
633.40	10789.87
633.55	10565.18
633.70	9504.92
633.85	10466.88
634.00	7819.73
634.15	9022.77
634.30	11328.19
634.45	10630.71
634.60	9832.59
634.75	8184.85
634.90	8725.52
635.05	10263.25
635.19	10399.00
635.34	9315.33
635.49	11403.09
635.64	9011.06
635.79	9240.44
635.94	11564.59
636.09	12898.69
636.24	11122.23
636.39	9741.31
636.53	12255.04
636.68	8655.30
636.83	10427.09
636.98	13844.27
637.13	8678.71
637.28	11150.31
637.43	14913.89
637.57	11618.42
637.72	14253.86
637.87	11625.44
638.02	8311.24
638.17	9680.46
638.32	12056.10
638.46	10106.43
638.61	15580.95
638.76	8634.24
638.91	8753.60
639.06	7864.20
639.20	13860.65
639.35	11957.80
639.50	9013.40
639.65	15440.51
639.80	9624.28
639.94	12685.70
640.09	14572.18
640.24	13479.15
640.39	11442.88
640.54	11012.22
640.68	9834.93
640.83	12821.45
640.98	8802.75
641.13	8879.99
641.27	8320.60
641.42	8781.69
641.57	13109.34
641.72	10132.18
641.86	9614.92
642.01	9020.42
642.16	12643.57
642.31	9387.89
642.45	15325.83
642.60	13458.08
642.75	8774.67
642.90	12723.15
643.04	8870.63
643.19	8779.35
643.34	9673.43
643.48	10420.06
643.63	9219.37
643.78	14272.59
643.93	15211.14
644.07	10061.96
644.22	9240.44
644.37	7438.22
644.51	12177.81
644.66	11204.14
644.81	9404.27
644.95	13565.74
645.10	8360.39
645.25	8079.53
645.39	13296.58
645.54	8521.89
645.69	15087.09
645.83	7665.25
645.98	17312.94
646.13	8772.33
646.27	11992.90
646.42	7372.69
646.57	8524.23
646.71	8592.11
646.86	8465.72
647.00	10162.61
647.15	12072.48
647.30	7721.43
647.44	8842.54
647.59	7779.94
647.74	7201.83
647.88	10864.77
648.03	7028.63
648.17	12407.18
648.32	7356.30
648.47	11080.10
648.61	9036.81
648.76	8418.91
648.90	8418.91
649.05	9336.40
649.20	7606.74
649.34	7726.11
649.49	7318.86
649.63	9699.18
649.78	8805.10
649.92	8676.37
650.07	10399.00
650.21	7733.13
650.36	11960.14
650.51	8493.80
650.65	14129.81
650.80	9081.28
650.94	8187.19
651.09	8882.33
651.23	8383.80
651.38	8313.58
651.52	8561.68
651.67	8765.31
651.81	10459.85
651.96	13802.14
652.10	12479.74
652.25	9558.75
652.39	11473.31
652.54	10338.15
652.68	9923.87
652.83	11140.95
652.97	9816.21
653.12	10977.11
653.26	8121.66
653.41	11662.89
653.55	10370.91
653.70	7669.94
653.84	8212.94
653.99	8805.10
654.13	7541.21
654.27	9392.57
654.42	8409.54
654.56	9104.68
654.71	12163.76
654.85	7349.28
655.00	7318.86
655.14	8992.34
655.29	7019.27
655.43	10993.50
655.57	9348.10
655.72	6764.15
655.86	9956.64
656.01	9635.99
656.15	8074.85
656.30	14038.53
656.44	7733.13
656.58	6960.75
656.73	8753.60
656.87	7148.00
657.01	8786.37
657.16	14141.52
657.30	10932.64
657.45	13799.80
657.59	9912.17
657.73	7461.63
657.88	9114.05
658.02	18743.01
658.16	8535.93
658.31	9095.32
658.45	8489.12
658.60	6649.46
658.74	8980.64
658.88	7543.55
659.03	7630.15
659.17	7578.65
659.31	7459.29
659.46	8116.98
659.60	10427.09
659.74	8418.91
659.89	8477.42
660.03	8507.85
660.17	14572.18
660.32	10525.39
660.46	10366.23
660.60	8671.68
660.74	10705.61
660.89	9556.41
661.03	6923.30
661.17	7700.36
661.32	7878.24
661.46	9011.06
661.60	7920.37
661.74	10200.05
661.89	11850.13
662.03	10352.19
662.17	8362.73
662.31	9600.88
662.46	10888.17
662.60	9540.02
662.74	8135.70
662.88	11131.59
663.03	8538.27
663.17	7136.29
663.31	9144.47
663.45	9703.86
663.60	7871.22
663.74	6771.17
663.88	6050.28
664.02	9334.06
664.17	7360.98
664.31	7316.51
664.45	9575.13
664.59	8325.29
664.73	8713.81
664.88	11351.60
665.02	6953.73
665.16	8168.47
665.30	13345.73
665.44	9312.99
665.59	12013.97
665.73	9668.75
665.87	8868.29
666.01	8599.13
666.15	7494.40
666.29	6719.68
666.44	13259.13
666.58	15328.17
666.72	6853.09
666.86	7751.85
667.00	11075.42
667.14	8950.21
667.28	9879.40
667.43	8833.18
667.57	9233.41
667.71	10424.75
667.85	9465.13
667.99	9989.41
668.13	8208.26
668.27	10389.64
668.41	10310.06
668.56	8594.45
668.70	13048.49
668.84	8105.28
668.98	9994.09
669.12	6008.16
669.26	9202.99
669.40	16634.19
669.54	9661.73
669.68	11756.51
669.82	7026.29
669.96	8999.36
670.10	10239.84
670.25	11227.55
670.39	10820.30
670.53	7953.14
670.67	10537.09
670.81	6551.16
670.95	9914.51
671.09	8290.18
671.23	12833.16
671.37	11449.90
671.51	8575.72
671.65	10370.91
671.79	7716.75
671.93	9563.43
672.07	15492.01
672.21	10466.88
672.35	8131.02
672.49	7765.90
672.63	11115.20
672.77	9523.64
672.91	9657.05
673.05	8793.39
673.19	9261.50
673.33	6841.39
673.47	14871.76
673.61	8695.09
673.75	7140.97
673.89	6803.94
674.03	10387.30
674.17	7955.48
674.31	9284.91
674.45	10054.94
674.59	9486.19
674.73	8290.18
674.87	9912.17
675.01	10583.90
675.15	7976.55
675.29	12004.61
675.43	11213.51
675.56	13874.70
675.70	12449.31
675.84	8315.92
675.98	9696.84
676.12	5905.17
676.26	8203.58
676.40	6113.48
676.54	8156.77
676.68	7571.63
676.82	11257.98
676.96	6375.62
677.10	9390.23
677.23	7316.51
677.37	6174.33
677.51	8430.61
677.65	16116.93
677.79	6984.16
677.93	6822.66
678.07	7534.18
678.21	6298.38
678.34	6782.87
678.48	6333.49
678.62	9092.98
678.76	5427.70
678.90	8718.50
679.04	8299.54
679.18	6520.73
679.31	6438.81
679.45	6267.95
679.59	8601.47
679.73	8432.95
679.87	5729.63
680.00	8910.42
680.14	8304.22
680.28	9547.05
680.42	7288.43
680.56	9764.72
680.70	6464.56
680.83	9097.66
680.97	6377.96
681.11	6665.85
681.25	10349.85
681.39	7496.74
681.52	8877.65
681.66	8339.33
681.80	9507.26
681.94	6169.65
682.07	7517.80
682.21	8898.72
682.35	5996.45
682.49	6134.54
682.62	10724.33
682.76	6092.41
682.90	7063.74
683.04	9163.20
683.17	9174.90
683.31	6768.83
683.45	9874.72
683.59	11868.86
683.72	10586.24
683.86	9006.38
684.00	6562.86
684.13	11176.06
684.27	9689.82
684.41	9041.49
684.55	7728.45
684.68	7536.52
684.82	6052.63
684.96	7115.23
685.09	8226.98
685.23	5795.17
685.37	6097.10
685.50	10478.58
685.64	10787.53
685.78	5603.24
685.91	9467.47
686.05	10799.23
686.19	8271.45
686.32	7815.05
686.46	8114.64
686.60	4355.74
686.73	14438.76
686.87	9998.77
687.01	5137.48
687.14	4388.50
687.28	5989.43
687.42	6494.99
687.55	6684.57
687.69	11492.03
687.82	5434.72
687.96	6958.41
688.10	10284.31
688.23	6394.34
688.37	11857.15
688.50	8540.61
688.64	8629.56
688.78	5486.22
688.91	6085.39
689.05	6375.62
689.18	4891.72
689.32	6567.54
689.46	5799.85
689.59	7789.30
689.73	9542.36
689.86	4884.70
690.00	6640.10
690.13	5689.84
690.27	5252.16
690.41	8077.19
690.54	11370.32
690.68	7957.82
690.81	6422.43
690.95	6881.18
691.08	7808.03
691.22	5916.87
691.35	6593.29
691.49	4919.81
691.62	6757.13
691.76	5460.47
691.89	7330.56
692.03	5069.60
692.16	4847.25
692.30	7700.36
692.43	6916.28
692.57	5298.97
692.70	4807.46
692.84	8344.01
692.97	5486.22
693.11	4929.17
693.24	6672.87
693.38	5268.55
693.51	6038.58
693.65	9364.48
693.78	5937.94
693.92	5324.72
694.05	8156.77
694.19	4638.94
694.32	7487.37
694.45	5963.68
694.59	5387.91
694.72	5973.05
694.86	6246.89
694.99	8315.92
695.13	5856.02
695.26	7302.47
695.39	6623.72
695.53	14090.02
695.66	7405.46
695.80	10010.47
695.93	5383.23
696.07	6174.33
696.20	7028.63
696.33	4531.28
696.47	5799.85
696.60	5966.03
696.73	7192.47
696.87	5212.37
697.00	12152.06
697.14	6389.66
697.27	6925.65
697.40	14473.87
697.54	5771.76
697.67	7272.04
697.80	7435.88
697.94	5769.42
698.07	6848.41
698.21	5804.53
698.34	8732.54
698.47	4915.12
698.61	5109.39
698.74	5423.02
698.87	9369.16
699.01	6649.46
699.14	5607.92
699.27	8685.73
699.40	21221.64
699.54	6047.94
699.67	5270.89
699.80	4854.27
699.94	5430.04
700.07	5060.24
700.20	4713.84
700.34	6719.68
700.47	3943.80
700.60	4919.81
700.73	6174.33
700.87	10586.24
701.00	5902.83
701.13	5617.29
701.26	6672.87
701.40	6033.90
701.53	5254.50
701.66	4500.85
701.79	6464.56
701.93	6265.61
702.06	11241.59
702.19	5753.04
702.32	9331.72
702.46	5790.49
702.59	4627.24
702.72	4124.02
702.85	6270.30
702.99	4770.01
703.12	9500.23
703.25	5231.10
703.38	5458.13
703.51	8997.02
703.65	4861.29
703.78	5540.05
703.91	7337.58
704.04	9231.07
704.17	6274.98
704.31	3620.81
704.44	4880.02
704.57	5729.63
704.70	6171.99
704.83	5963.68
704.96	6122.84
705.10	6850.75
705.23	5785.80
>>>>>End Processed Spectral Data<<<<<
