SpectraSuite Data File
++++++++++++++++++++++++++++++++++++
Date: Mon Oct 07 15:00:01 GMT-05:00 2013
User: price-jones
Dark Spectrum Present: No
Reference Spectrum Present: No
Number of Sampled Component Spectra: 1
Spectrometers: USB2+H05261
Integration Time (usec): 100000 (USB2+H05261)
Spectra Averaged: 1 (USB2+H05261)
Boxcar Smoothing: 0 (USB2+H05261)
Correct for Electrical Dark: No (USB2+H05261)
Strobe/Lamp Enabled: No (USB2+H05261)
Correct for Detector Non-linearity: No (USB2+H05261)
Correct for Stray Light: No (USB2+H05261)
Number of Pixels in Processed Spectrum: 2048
>>>>>Begin Processed Spectral Data<<<<<
365.73	0.00
365.92	0.00
366.12	0.00
366.32	0.00
366.52	0.00
366.72	0.00
366.91	0.00
367.11	0.00
367.31	0.00
367.51	0.00
367.70	0.00
367.90	0.00
368.10	0.00
368.30	0.00
368.49	0.00
368.69	0.00
368.89	0.00
369.09	0.00
369.28	0.00
369.48	0.00
369.68	0.00
369.87	0.00
370.07	0.00
370.27	0.00
370.47	0.00
370.66	0.00
370.86	0.00
371.06	0.00
371.25	0.00
371.45	0.00
371.65	0.00
371.84	0.00
372.04	0.00
372.24	0.00
372.44	0.00
372.63	0.00
372.83	0.00
373.03	0.00
373.22	0.00
373.42	0.00
373.62	0.00
373.81	0.00
374.01	0.00
374.21	0.00
374.40	0.00
374.60	0.00
374.79	0.00
374.99	0.00
375.19	0.00
375.38	0.00
375.58	0.00
375.78	0.00
375.97	0.00
376.17	0.00
376.37	0.00
376.56	0.00
376.76	0.00
376.95	0.00
377.15	0.00
377.35	0.00
377.54	0.00
377.74	0.00
377.93	0.00
378.13	0.00
378.33	0.00
378.52	0.00
378.72	0.00
378.91	0.00
379.11	0.00
379.31	0.00
379.50	0.00
379.70	0.00
379.89	0.00
380.09	0.00
380.28	0.00
380.48	0.00
380.68	0.00
380.87	0.00
381.07	0.00
381.26	0.00
381.46	0.00
381.65	0.00
381.85	0.00
382.04	0.00
382.24	0.00
382.43	0.00
382.63	0.00
382.83	0.00
383.02	0.00
383.22	0.00
383.41	0.00
383.61	0.00
383.80	0.00
384.00	0.00
384.19	0.00
384.39	0.00
384.58	0.00
384.78	0.00
384.97	0.00
385.17	0.00
385.36	0.00
385.56	0.00
385.75	0.00
385.95	0.00
386.14	0.00
386.34	0.00
386.53	0.00
386.72	0.00
386.92	0.00
387.11	0.00
387.31	0.00
387.50	0.00
387.70	0.00
387.89	0.00
388.09	0.00
388.28	0.00
388.48	0.00
388.67	0.00
388.86	0.00
389.06	0.00
389.25	0.00
389.45	0.00
389.64	0.00
389.84	0.00
390.03	0.00
390.22	0.00
390.42	0.00
390.61	0.00
390.81	0.00
391.00	0.00
391.19	0.00
391.39	0.00
391.58	0.00
391.78	0.00
391.97	0.00
392.16	0.00
392.36	0.00
392.55	0.00
392.75	0.00
392.94	0.00
393.13	0.00
393.33	0.00
393.52	0.00
393.71	0.00
393.91	0.00
394.10	0.00
394.29	0.00
394.49	0.00
394.68	0.00
394.88	0.00
395.07	0.00
395.26	0.00
395.46	0.00
395.65	0.00
395.84	0.00
396.04	0.00
396.23	0.00
396.42	0.00
396.62	0.00
396.81	0.00
397.00	0.00
397.19	0.00
397.39	0.00
397.58	0.00
397.77	0.00
397.97	0.00
398.16	0.00
398.35	0.00
398.55	0.00
398.74	0.00
398.93	0.00
399.12	0.00
399.32	0.00
399.51	0.00
399.70	0.00
399.90	0.00
400.09	0.00
400.28	0.00
400.47	0.00
400.67	0.00
400.86	0.00
401.05	0.00
401.24	0.00
401.44	0.00
401.63	0.00
401.82	0.00
402.01	0.00
402.21	0.00
402.40	0.00
402.59	0.00
402.78	0.00
402.97	0.00
403.17	0.00
403.36	0.00
403.55	0.00
403.74	0.00
403.93	0.00
404.13	0.00
404.32	0.00
404.51	0.00
404.70	0.00
404.89	0.00
405.09	0.00
405.28	0.00
405.47	0.00
405.66	0.00
405.85	0.00
406.05	0.00
406.24	0.00
406.43	0.00
406.62	0.00
406.81	0.00
407.00	0.00
407.20	0.00
407.39	0.00
407.58	0.00
407.77	0.00
407.96	0.00
408.15	0.00
408.34	0.00
408.54	0.00
408.73	0.00
408.92	0.00
409.11	0.00
409.30	0.00
409.49	0.00
409.68	0.00
409.87	0.00
410.07	0.00
410.26	0.00
410.45	0.00
410.64	0.00
410.83	0.00
411.02	0.00
411.21	0.00
411.40	0.00
411.59	0.00
411.78	0.00
411.98	0.00
412.17	0.00
412.36	0.00
412.55	0.00
412.74	0.00
412.93	0.00
413.12	0.00
413.31	0.00
413.50	0.00
413.69	0.00
413.88	0.00
414.07	0.00
414.26	0.00
414.45	0.00
414.64	0.00
414.83	0.00
415.02	0.00
415.22	0.00
415.41	0.00
415.60	0.00
415.79	0.00
415.98	0.00
416.17	0.00
416.36	0.00
416.55	0.00
416.74	0.00
416.93	0.00
417.12	0.00
417.31	0.00
417.50	0.00
417.69	0.00
417.88	0.00
418.07	0.00
418.26	0.00
418.45	0.00
418.64	0.00
418.83	0.00
419.02	0.00
419.21	0.00
419.39	0.00
419.58	0.00
419.77	0.00
419.96	0.00
420.15	0.00
420.34	0.00
420.53	0.00
420.72	0.00
420.91	0.00
421.10	0.00
421.29	0.00
421.48	0.00
421.67	0.00
421.86	0.00
422.05	0.00
422.24	0.00
422.43	0.00
422.61	0.00
422.80	0.00
422.99	0.00
423.18	0.00
423.37	0.00
423.56	0.00
423.75	0.00
423.94	0.00
424.13	0.00
424.32	0.00
424.50	0.00
424.69	0.00
424.88	0.00
425.07	0.00
425.26	0.00
425.45	0.00
425.64	0.00
425.83	0.00
426.01	0.00
426.20	0.00
426.39	0.00
426.58	0.00
426.77	0.00
426.96	0.00
427.15	0.00
427.33	0.00
427.52	0.00
427.71	0.00
427.90	0.00
428.09	0.00
428.28	0.00
428.46	0.00
428.65	0.00
428.84	0.00
429.03	0.00
429.22	0.00
429.40	0.00
429.59	0.00
429.78	0.00
429.97	0.00
430.16	0.00
430.34	0.00
430.53	0.00
430.72	0.00
430.91	0.00
431.10	0.00
431.28	0.00
431.47	0.00
431.66	0.00
431.85	0.00
432.03	0.00
432.22	0.00
432.41	0.00
432.60	0.00
432.79	0.00
432.97	0.00
433.16	0.00
433.35	0.00
433.54	0.00
433.72	0.00
433.91	0.00
434.10	0.00
434.28	0.00
434.47	0.00
434.66	0.00
434.85	0.00
435.03	0.00
435.22	0.00
435.41	7.02
435.59	0.00
435.78	0.00
435.97	0.00
436.16	0.00
436.34	0.00
436.53	0.00
436.72	0.00
436.90	0.00
437.09	0.00
437.28	0.00
437.46	0.00
437.65	0.00
437.84	0.00
438.02	0.00
438.21	0.00
438.40	0.00
438.58	0.00
438.77	0.00
438.96	0.00
439.14	0.00
439.33	0.00
439.52	0.00
439.70	0.00
439.89	0.00
440.08	0.00
440.26	0.00
440.45	0.00
440.63	0.00
440.82	0.00
441.01	0.00
441.19	0.00
441.38	0.00
441.57	0.00
441.75	0.00
441.94	0.00
442.12	0.00
442.31	0.00
442.50	0.00
442.68	0.00
442.87	0.00
443.05	0.00
443.24	0.00
443.43	0.00
443.61	11.70
443.80	0.00
443.98	0.00
444.17	0.00
444.35	0.00
444.54	0.00
444.73	0.00
444.91	0.00
445.10	0.00
445.28	4.68
445.47	0.00
445.65	0.00
445.84	0.00
446.02	0.00
446.21	0.00
446.39	0.00
446.58	0.00
446.77	0.00
446.95	0.00
447.14	0.00
447.32	0.00
447.51	0.00
447.69	0.00
447.88	0.00
448.06	0.00
448.25	0.00
448.43	0.00
448.62	0.00
448.80	0.00
448.99	0.00
449.17	18.72
449.36	0.00
449.54	0.00
449.73	0.00
449.91	0.00
450.10	0.00
450.28	11.70
450.46	0.00
450.65	0.00
450.83	0.00
451.02	28.09
451.20	0.00
451.39	0.00
451.57	0.00
451.76	0.00
451.94	0.00
452.13	0.00
452.31	11.70
452.49	0.00
452.68	0.00
452.86	0.00
453.05	4.68
453.23	0.00
453.42	0.00
453.60	0.00
453.78	0.00
453.97	0.00
454.15	0.00
454.34	0.00
454.52	0.00
454.70	28.09
454.89	0.00
455.07	0.00
455.26	0.00
455.44	0.00
455.62	0.00
455.81	0.00
455.99	37.45
456.17	0.00
456.36	0.00
456.54	0.00
456.73	0.00
456.91	0.00
457.09	0.00
457.28	0.00
457.46	0.00
457.64	0.00
457.83	0.00
458.01	0.00
458.19	0.00
458.38	0.00
458.56	0.00
458.74	0.00
458.93	0.00
459.11	0.00
459.29	0.00
459.48	0.00
459.66	11.70
459.84	32.77
460.03	18.72
460.21	0.00
460.39	0.00
460.57	18.72
460.76	0.00
460.94	0.00
461.12	0.00
461.31	0.00
461.49	21.06
461.67	0.00
461.85	0.00
462.04	0.00
462.22	582.79
462.40	21.06
462.59	9.36
462.77	0.00
462.95	0.00
463.13	0.00
463.32	42.13
463.50	0.00
463.68	0.00
463.86	0.00
464.05	4.68
464.23	0.00
464.41	0.00
464.59	0.00
464.78	0.00
464.96	0.00
465.14	28.09
465.32	0.00
465.50	0.00
465.69	98.30
465.87	0.00
466.05	49.15
466.23	2.34
466.41	11.70
466.60	0.00
466.78	0.00
466.96	70.22
467.14	0.00
467.32	14.04
467.51	0.00
467.69	0.00
467.87	0.00
468.05	21.06
468.23	74.90
468.41	0.00
468.60	4.68
468.78	23.41
468.96	0.00
469.14	0.00
469.32	0.00
469.50	0.00
469.69	25.75
469.87	0.00
470.05	0.00
470.23	0.00
470.41	11.70
470.59	0.00
470.77	2.34
470.95	46.81
471.14	0.00
471.32	2.34
471.50	58.51
471.68	0.00
471.86	35.11
472.04	35.11
472.22	0.00
472.40	0.00
472.58	0.00
472.77	0.00
472.95	14.04
473.13	86.60
473.31	81.92
473.49	0.00
473.67	0.00
473.85	9.36
474.03	11.70
474.21	0.00
474.39	102.98
474.57	18.72
474.75	58.51
474.93	14.04
475.12	0.00
475.30	0.00
475.48	39.79
475.66	4.68
475.84	14.04
476.02	0.00
476.20	65.54
476.38	0.00
476.56	88.94
476.74	9.36
476.92	35.11
477.10	0.00
477.28	16.38
477.46	35.11
477.64	84.26
477.82	72.56
478.00	81.92
478.18	32.77
478.36	2.34
478.54	0.00
478.72	0.00
478.90	0.00
479.08	18.72
479.26	30.43
479.44	0.00
479.62	0.00
479.80	37.45
479.98	39.79
480.16	23.41
480.34	100.64
480.52	0.00
480.70	4.68
480.88	0.00
481.06	0.00
481.24	32.77
481.41	0.00
481.59	84.26
481.77	9.36
481.95	72.56
482.13	39.79
482.31	0.00
482.49	25.75
482.67	152.13
482.85	114.69
483.03	37.45
483.21	114.69
483.39	0.00
483.57	25.75
483.74	81.92
483.92	53.83
484.10	65.54
484.28	0.00
484.46	140.43
484.64	49.15
484.82	53.83
485.00	126.39
485.18	7.02
485.35	14.04
485.53	67.88
485.71	11.70
485.89	0.00
486.07	0.00
486.25	95.96
486.43	35.11
486.61	63.19
486.78	58.51
486.96	44.47
487.14	25.75
487.32	117.03
487.50	42.13
487.68	107.66
487.85	112.35
488.03	117.03
488.21	121.71
488.39	56.17
488.57	112.35
488.75	0.00
488.92	421.30
489.10	79.58
489.28	201.29
489.46	65.54
489.64	138.09
489.81	95.96
489.99	105.32
490.17	72.56
490.35	187.24
490.53	154.48
490.70	79.58
490.88	170.86
491.06	110.01
491.24	107.66
491.41	93.62
491.59	65.54
491.77	39.79
491.95	0.00
492.13	152.13
492.30	145.11
492.48	173.20
492.66	140.43
492.84	168.52
493.01	257.46
493.19	112.35
493.37	138.09
493.54	168.52
493.72	121.71
493.90	126.39
494.08	88.94
494.25	112.35
494.43	210.65
494.61	149.79
494.79	100.64
494.96	121.71
495.14	184.90
495.32	205.97
495.49	187.24
495.67	248.10
495.85	114.69
496.02	271.50
496.20	210.65
496.38	184.90
496.55	210.65
496.73	196.60
496.91	131.07
497.09	264.48
497.26	217.67
497.44	170.86
497.62	224.69
497.79	187.24
497.97	145.11
498.14	168.52
498.32	217.67
498.50	177.88
498.67	245.76
498.85	210.65
499.03	126.39
499.20	236.39
499.38	142.77
499.56	177.88
499.73	224.69
499.91	180.22
500.08	229.37
500.26	154.48
500.44	177.88
500.61	161.50
500.79	124.05
500.97	117.03
501.14	222.35
501.32	170.86
501.49	229.37
501.67	191.92
501.84	236.39
502.02	182.56
502.20	330.02
502.37	217.67
502.55	142.77
502.72	198.95
502.90	271.50
503.07	208.31
503.25	156.82
503.43	145.11
503.60	156.82
503.78	177.88
503.95	184.90
504.13	140.43
504.30	262.14
504.48	264.48
504.65	266.82
504.83	222.35
505.01	191.92
505.18	152.13
505.36	196.60
505.53	278.52
505.71	264.48
505.88	280.86
506.06	182.56
506.23	262.14
506.41	224.69
506.58	231.71
506.76	187.24
506.93	241.08
507.11	220.01
507.28	224.69
507.46	273.84
507.63	182.56
507.81	229.37
507.98	177.88
508.16	229.37
508.33	159.16
508.50	248.10
508.68	266.82
508.85	203.63
509.03	269.16
509.20	266.82
509.38	266.82
509.55	142.77
509.73	227.03
509.90	271.50
510.08	198.95
510.25	250.44
510.42	264.48
510.60	170.86
510.77	229.37
510.95	212.99
511.12	175.54
511.30	271.50
511.47	189.58
511.64	318.31
511.82	229.37
511.99	201.29
512.17	238.73
512.34	128.73
512.51	243.42
512.69	227.03
512.86	299.59
513.04	220.01
513.21	205.97
513.38	177.88
513.56	266.82
513.73	196.60
513.90	215.33
514.08	220.01
514.25	250.44
514.43	278.52
514.60	229.37
514.77	189.58
514.95	280.86
515.12	205.97
515.29	308.95
515.47	255.12
515.64	271.50
515.81	255.12
515.99	285.55
516.16	255.12
516.33	126.39
516.51	203.63
516.68	152.13
516.85	168.52
517.03	177.88
517.20	217.67
517.37	229.37
517.54	264.48
517.72	231.71
517.89	166.18
518.06	140.43
518.24	238.73
518.41	229.37
518.58	322.99
518.75	290.23
518.93	252.78
519.10	198.95
519.27	264.48
519.45	271.50
519.62	236.39
519.79	236.39
519.96	212.99
520.14	208.31
520.31	290.23
520.48	212.99
520.65	196.60
520.83	308.95
521.00	245.76
521.17	243.42
521.34	177.88
521.52	177.88
521.69	245.76
521.86	287.89
522.03	292.57
522.20	313.63
522.38	285.55
522.55	308.95
522.72	304.27
522.89	297.25
523.07	341.72
523.24	257.46
523.41	404.91
523.58	224.69
523.75	245.76
523.92	332.36
524.10	276.18
524.27	255.12
524.44	332.36
524.61	308.95
524.78	208.31
524.96	332.36
525.13	334.70
525.30	362.78
525.47	341.72
525.64	297.25
525.81	273.84
525.98	318.31
526.16	278.52
526.33	117.03
526.50	126.39
526.67	170.86
526.84	234.05
527.01	257.46
527.18	196.60
527.36	327.68
527.53	315.97
527.70	379.17
527.87	353.42
528.04	358.10
528.21	196.60
528.38	269.16
528.55	318.31
528.72	346.40
528.89	299.59
529.07	353.42
529.24	252.78
529.41	287.89
529.58	231.71
529.75	301.93
529.92	278.52
530.09	365.12
530.26	325.33
530.43	322.99
530.60	400.23
530.77	299.59
530.94	390.87
531.11	306.61
531.28	308.95
531.46	341.72
531.63	308.95
531.80	266.82
531.97	308.95
532.14	264.48
532.31	252.78
532.48	285.55
532.65	262.14
532.82	283.20
532.99	273.84
533.16	297.25
533.33	360.44
533.50	276.18
533.67	234.05
533.84	280.86
534.01	280.86
534.18	283.20
534.35	224.69
534.52	306.61
534.69	276.18
534.86	301.93
535.03	241.08
535.20	337.04
535.37	416.62
535.54	402.57
535.71	348.74
535.88	423.64
536.05	315.97
536.22	437.68
536.38	315.97
536.55	353.42
536.72	294.91
536.89	191.92
537.06	299.59
537.23	372.15
537.40	280.86
537.57	257.46
537.74	285.55
537.91	311.29
538.08	257.46
538.25	308.95
538.42	330.02
538.59	294.91
538.75	273.84
538.92	255.12
539.09	280.86
539.26	215.33
539.43	358.10
539.60	400.23
539.77	346.40
539.94	325.33
540.11	273.84
540.28	351.08
540.44	360.44
540.61	322.99
540.78	325.33
540.95	269.16
541.12	388.53
541.29	280.86
541.46	381.51
541.62	379.17
541.79	259.80
541.96	276.18
542.13	257.46
542.30	362.78
542.47	381.51
542.63	250.44
542.80	299.59
542.97	346.40
543.14	351.08
543.31	285.55
543.48	327.68
543.64	320.65
543.81	376.83
543.98	304.27
544.15	262.14
544.32	243.42
544.48	379.17
544.65	234.05
544.82	299.59
544.99	341.72
545.16	421.30
545.32	388.53
545.49	332.36
545.66	393.21
545.83	292.57
546.00	339.38
546.16	353.42
546.33	292.57
546.50	332.36
546.67	278.52
546.83	313.63
547.00	322.99
547.17	245.76
547.34	313.63
547.50	332.36
547.67	290.23
547.84	292.57
548.00	273.84
548.17	411.93
548.34	243.42
548.51	386.19
548.67	271.50
548.84	273.84
549.01	360.44
549.18	409.59
549.34	344.06
549.51	315.97
549.68	339.38
549.84	287.89
550.01	332.36
550.18	507.90
550.34	339.38
550.51	306.61
550.68	386.19
550.84	285.55
551.01	278.52
551.18	313.63
551.34	276.18
551.51	250.44
551.68	395.55
551.84	379.17
552.01	252.78
552.18	393.21
552.34	346.40
552.51	297.25
552.68	341.72
552.84	287.89
553.01	276.18
553.18	334.70
553.34	376.83
553.51	367.46
553.67	379.17
553.84	383.85
554.01	407.25
554.17	416.62
554.34	341.72
554.51	325.33
554.67	353.42
554.84	322.99
555.00	358.10
555.17	402.57
555.33	372.15
555.50	297.25
555.67	409.59
555.83	344.06
556.00	327.68
556.16	444.70
556.33	367.46
556.50	358.10
556.66	283.20
556.83	252.78
556.99	339.38
557.16	358.10
557.32	348.74
557.49	320.65
557.65	379.17
557.82	353.42
557.98	351.08
558.15	308.95
558.32	297.25
558.48	248.10
558.65	283.20
558.81	280.86
558.98	322.99
559.14	315.97
559.31	269.16
559.47	308.95
559.64	294.91
559.80	322.99
559.97	283.20
560.13	348.74
560.30	264.48
560.46	287.89
560.63	369.80
560.79	308.95
560.96	280.86
561.12	241.08
561.29	278.52
561.45	262.14
561.61	301.93
561.78	409.59
561.94	252.78
562.11	301.93
562.27	320.65
562.44	358.10
562.60	290.23
562.77	334.70
562.93	402.57
563.10	355.76
563.26	318.31
563.42	388.53
563.59	330.02
563.75	304.27
563.92	372.15
564.08	299.59
564.24	362.78
564.41	355.76
564.57	365.12
564.74	308.95
564.90	280.86
565.07	266.82
565.23	341.72
565.39	217.67
565.56	269.16
565.72	245.76
565.88	306.61
566.05	306.61
566.21	292.57
566.38	222.35
566.54	318.31
566.70	311.29
566.87	191.92
567.03	348.74
567.19	308.95
567.36	283.20
567.52	360.44
567.68	290.23
567.85	320.65
568.01	245.76
568.17	306.61
568.34	292.57
568.50	346.40
568.66	271.50
568.83	355.76
568.99	320.65
569.15	325.33
569.32	252.78
569.48	229.37
569.64	285.55
569.81	292.57
569.97	229.37
570.13	308.95
570.30	290.23
570.46	280.86
570.62	283.20
570.78	273.84
570.95	236.39
571.11	332.36
571.27	269.16
571.43	269.16
571.60	313.63
571.76	318.31
571.92	273.84
572.09	395.55
572.25	245.76
572.41	215.33
572.57	297.25
572.74	311.29
572.90	290.23
573.06	322.99
573.22	266.82
573.38	311.29
573.55	243.42
573.71	306.61
573.87	325.33
574.03	229.37
574.20	271.50
574.36	341.72
574.52	346.40
574.68	231.71
574.84	346.40
575.01	383.85
575.17	304.27
575.33	250.44
575.49	255.12
575.65	290.23
575.82	346.40
575.98	411.93
576.14	297.25
576.30	271.50
576.46	287.89
576.62	353.42
576.79	353.42
576.95	362.78
577.11	271.50
577.27	334.70
577.43	351.08
577.59	325.33
577.75	266.82
577.92	301.93
578.08	259.80
578.24	278.52
578.40	278.52
578.56	353.42
578.72	299.59
578.88	264.48
579.04	311.29
579.21	285.55
579.37	252.78
579.53	276.18
579.69	334.70
579.85	273.84
580.01	325.33
580.17	351.08
580.33	271.50
580.49	304.27
580.65	273.84
580.82	287.89
580.98	320.65
581.14	175.54
581.30	273.84
581.46	365.12
581.62	313.63
581.78	294.91
581.94	351.08
582.10	250.44
582.26	290.23
582.42	313.63
582.58	386.19
582.74	388.53
582.90	287.89
583.06	297.25
583.22	330.02
583.38	339.38
583.54	299.59
583.70	402.57
583.86	315.97
584.02	245.76
584.18	294.91
584.34	245.76
584.50	315.97
584.66	276.18
584.82	306.61
584.98	355.76
585.14	292.57
585.30	360.44
585.46	315.97
585.62	241.08
585.78	259.80
585.94	262.14
586.10	315.97
586.26	346.40
586.42	330.02
586.58	318.31
586.74	318.31
586.90	334.70
587.06	287.89
587.22	255.12
587.38	262.14
587.54	276.18
587.70	344.06
587.86	315.97
588.02	266.82
588.18	259.80
588.34	290.23
588.49	222.35
588.65	138.09
588.81	184.90
588.97	222.35
589.13	248.10
589.29	229.37
589.45	299.59
589.61	210.65
589.77	245.76
589.93	285.55
590.08	280.86
590.24	276.18
590.40	318.31
590.56	381.51
590.72	234.05
590.88	212.99
591.04	318.31
591.20	273.84
591.35	365.12
591.51	325.33
591.67	229.37
591.83	315.97
591.99	276.18
592.15	301.93
592.31	351.08
592.46	294.91
592.62	255.12
592.78	280.86
592.94	231.71
593.10	231.71
593.26	187.24
593.41	278.52
593.57	304.27
593.73	276.18
593.89	332.36
594.05	330.02
594.20	301.93
594.36	308.95
594.52	301.93
594.68	203.63
594.84	318.31
594.99	301.93
595.15	330.02
595.31	346.40
595.47	287.89
595.62	283.20
595.78	299.59
595.94	255.12
596.10	259.80
596.25	294.91
596.41	332.36
596.57	243.42
596.73	322.99
596.88	224.69
597.04	308.95
597.20	217.67
597.36	252.78
597.51	304.27
597.67	269.16
597.83	236.39
597.99	252.78
598.14	257.46
598.30	262.14
598.46	220.01
598.61	259.80
598.77	248.10
598.93	245.76
599.09	217.67
599.24	285.55
599.40	264.48
599.56	208.31
599.71	243.42
599.87	276.18
600.03	252.78
600.18	339.38
600.34	245.76
600.50	273.84
600.65	301.93
600.81	229.37
600.97	304.27
601.12	306.61
601.28	315.97
601.44	184.90
601.59	196.60
601.75	285.55
601.91	173.20
602.06	278.52
602.22	362.78
602.37	215.33
602.53	250.44
602.69	348.74
602.84	327.68
603.00	313.63
603.16	299.59
603.31	292.57
603.47	330.02
603.62	294.91
603.78	322.99
603.94	287.89
604.09	285.55
604.25	243.42
604.40	234.05
604.56	285.55
604.71	229.37
604.87	241.08
605.03	255.12
605.18	229.37
605.34	280.86
605.49	236.39
605.65	248.10
605.80	227.03
605.96	220.01
606.12	292.57
606.27	334.70
606.43	313.63
606.58	351.08
606.74	236.39
606.89	297.25
607.05	402.57
607.20	238.73
607.36	266.82
607.51	229.37
607.67	276.18
607.82	259.80
607.98	315.97
608.13	236.39
608.29	238.73
608.44	245.76
608.60	259.80
608.75	365.12
608.91	299.59
609.06	241.08
609.22	327.68
609.37	315.97
609.53	264.48
609.68	203.63
609.84	217.67
609.99	210.65
610.15	215.33
610.30	245.76
610.46	269.16
610.61	278.52
610.76	168.52
610.92	264.48
611.07	170.86
611.23	252.78
611.38	236.39
611.54	266.82
611.69	149.79
611.84	140.43
612.00	184.90
612.15	243.42
612.31	224.69
612.46	250.44
612.62	248.10
612.77	294.91
612.92	262.14
613.08	313.63
613.23	224.69
613.39	227.03
613.54	236.39
613.69	241.08
613.85	196.60
614.00	159.16
614.15	198.95
614.31	248.10
614.46	170.86
614.62	175.54
614.77	205.97
614.92	248.10
615.08	220.01
615.23	266.82
615.38	222.35
615.54	205.97
615.69	217.67
615.84	234.05
616.00	248.10
616.15	107.66
616.30	154.48
616.46	243.42
616.61	189.58
616.76	257.46
616.92	184.90
617.07	187.24
617.22	166.18
617.37	280.86
617.53	227.03
617.68	191.92
617.83	170.86
617.99	212.99
618.14	257.46
618.29	124.05
618.45	245.76
618.60	212.99
618.75	205.97
618.90	241.08
619.06	243.42
619.21	245.76
619.36	245.76
619.51	210.65
619.67	220.01
619.82	210.65
619.97	243.42
620.12	236.39
620.28	135.75
620.43	166.18
620.58	245.76
620.73	283.20
620.89	170.86
621.04	217.67
621.19	241.08
621.34	243.42
621.49	145.11
621.65	252.78
621.80	259.80
621.95	166.18
622.10	126.39
622.25	159.16
622.41	156.82
622.56	72.56
622.71	205.97
622.86	189.58
623.01	220.01
623.16	175.54
623.32	163.84
623.47	152.13
623.62	91.28
623.77	152.13
623.92	163.84
624.07	119.37
624.23	168.52
624.38	95.96
624.53	163.84
624.68	161.50
624.83	191.92
624.98	145.11
625.13	156.82
625.29	126.39
625.44	161.50
625.59	224.69
625.74	177.88
625.89	177.88
626.04	154.48
626.19	166.18
626.34	238.73
626.49	215.33
626.65	196.60
626.80	205.97
626.95	149.79
627.10	154.48
627.25	220.01
627.40	149.79
627.55	133.41
627.70	163.84
627.85	189.58
628.00	189.58
628.15	184.90
628.30	184.90
628.45	163.84
628.60	145.11
628.76	252.78
628.91	208.31
629.06	142.77
629.21	180.22
629.36	189.58
629.51	156.82
629.66	191.92
629.81	175.54
629.96	170.86
630.11	152.13
630.26	154.48
630.41	173.20
630.56	152.13
630.71	124.05
630.86	229.37
631.01	93.62
631.16	117.03
631.31	135.75
631.46	91.28
631.61	93.62
631.76	114.69
631.91	210.65
632.06	203.63
632.21	107.66
632.36	159.16
632.51	110.01
632.66	184.90
632.81	191.92
632.96	93.62
633.10	184.90
633.25	259.80
633.40	175.54
633.55	224.69
633.70	142.77
633.85	149.79
634.00	142.77
634.15	241.08
634.30	25.75
634.45	208.31
634.60	154.48
634.75	100.64
634.90	88.94
635.05	105.32
635.19	194.26
635.34	63.19
635.49	98.30
635.64	72.56
635.79	138.09
635.94	215.33
636.09	182.56
636.24	138.09
636.39	243.42
636.53	149.79
636.68	163.84
636.83	140.43
636.98	231.71
637.13	142.77
637.28	135.75
637.43	210.65
637.57	222.35
637.72	234.05
637.87	257.46
638.02	245.76
638.17	121.71
638.32	168.52
638.46	142.77
638.61	180.22
638.76	149.79
638.91	191.92
639.06	152.13
639.20	177.88
639.35	121.71
639.50	161.50
639.65	166.18
639.80	215.33
639.94	203.63
640.09	238.73
640.24	220.01
640.39	163.84
640.54	227.03
640.68	229.37
640.83	163.84
640.98	98.30
641.13	149.79
641.27	72.56
641.42	72.56
641.57	234.05
641.72	191.92
641.86	102.98
642.01	189.58
642.16	114.69
642.31	140.43
642.45	126.39
642.60	180.22
642.75	16.38
642.90	201.29
643.04	177.88
643.19	133.41
643.34	49.15
643.48	77.24
643.63	88.94
643.78	170.86
643.93	184.90
644.07	170.86
644.22	159.16
644.37	72.56
644.51	175.54
644.66	147.45
644.81	149.79
644.95	182.56
645.10	182.56
645.25	81.92
645.39	98.30
645.54	102.98
645.69	210.65
645.83	88.94
645.98	215.33
646.13	98.30
646.27	119.37
646.42	60.85
646.57	182.56
646.71	138.09
646.86	142.77
647.00	81.92
647.15	173.20
647.30	79.58
647.44	49.15
647.59	107.66
647.74	63.19
647.88	154.48
648.03	93.62
648.17	182.56
648.32	77.24
648.47	86.60
648.61	30.43
648.76	114.69
648.90	91.28
649.05	121.71
649.20	72.56
649.34	98.30
649.49	58.51
649.63	63.19
649.78	91.28
649.92	79.58
650.07	124.05
650.21	42.13
650.36	138.09
650.51	124.05
650.65	100.64
650.80	114.69
650.94	79.58
651.09	105.32
651.23	124.05
651.38	37.45
651.52	117.03
651.67	100.64
651.81	135.75
651.96	152.13
652.10	117.03
652.25	159.16
652.39	105.32
652.54	49.15
652.68	98.30
652.83	152.13
652.97	128.73
653.12	84.26
653.26	119.37
653.41	182.56
653.55	114.69
653.70	51.49
653.84	60.85
653.99	60.85
654.13	25.75
654.27	91.28
654.42	58.51
654.56	42.13
654.71	102.98
654.85	88.94
655.00	56.17
655.14	72.56
655.29	39.79
655.43	84.26
655.57	53.83
655.72	0.00
655.86	0.00
656.01	77.24
656.15	51.49
656.30	152.13
656.44	11.70
656.58	30.43
656.73	60.85
656.87	56.17
657.01	98.30
657.16	121.71
657.30	124.05
657.45	86.60
657.59	166.18
657.73	53.83
657.88	107.66
658.02	184.90
658.16	72.56
658.31	128.73
658.45	121.71
658.60	46.81
658.74	135.75
658.88	79.58
659.03	91.28
659.17	0.00
659.31	18.72
659.46	112.35
659.60	119.37
659.74	74.90
659.89	28.09
660.03	35.11
660.17	114.69
660.32	126.39
660.46	126.39
660.60	39.79
660.74	58.51
660.89	91.28
661.03	25.75
661.17	11.70
661.32	58.51
661.46	35.11
661.60	72.56
661.74	86.60
661.89	138.09
662.03	42.13
662.17	105.32
662.31	81.92
662.46	159.16
662.60	131.07
662.74	112.35
662.88	140.43
663.03	65.54
663.17	95.96
663.31	30.43
663.45	112.35
663.60	30.43
663.74	28.09
663.88	74.90
664.02	37.45
664.17	53.83
664.31	60.85
664.45	70.22
664.59	95.96
664.73	95.96
664.88	107.66
665.02	28.09
665.16	93.62
665.30	124.05
665.44	70.22
665.59	110.01
665.73	63.19
665.87	105.32
666.01	98.30
666.15	72.56
666.29	93.62
666.44	135.75
666.58	86.60
666.72	79.58
666.86	67.88
667.00	65.54
667.14	35.11
667.28	0.00
667.43	107.66
667.57	53.83
667.71	65.54
667.85	98.30
667.99	77.24
668.13	30.43
668.27	65.54
668.41	39.79
668.56	63.19
668.70	0.00
668.84	53.83
668.98	2.34
669.12	0.00
669.26	0.00
669.40	156.82
669.54	119.37
669.68	154.48
669.82	25.75
669.96	100.64
670.10	39.79
670.25	35.11
670.39	51.49
670.53	16.38
670.67	67.88
670.81	39.79
670.95	4.68
671.09	35.11
671.23	16.38
671.37	16.38
671.51	102.98
671.65	21.06
671.79	0.00
671.93	110.01
672.07	138.09
672.21	84.26
672.35	114.69
672.49	95.96
672.63	25.75
672.77	25.75
672.91	53.83
673.05	53.83
673.19	39.79
673.33	0.00
673.47	60.85
673.61	7.02
673.75	0.00
673.89	18.72
674.03	49.15
674.17	32.77
674.31	39.79
674.45	65.54
674.59	9.36
674.73	35.11
674.87	67.88
675.01	0.00
675.15	25.75
675.29	28.09
675.43	79.58
675.56	0.00
675.70	91.28
675.84	51.49
675.98	0.00
676.12	0.00
676.26	23.41
676.40	9.36
676.54	16.38
676.68	0.00
676.82	79.58
676.96	25.75
677.10	42.13
677.23	16.38
677.37	35.11
677.51	0.00
677.65	98.30
677.79	0.00
677.93	0.00
678.07	0.00
678.21	0.00
678.34	11.70
678.48	0.00
678.62	0.00
678.76	0.00
678.90	0.00
679.04	25.75
679.18	0.00
679.31	0.00
679.45	0.00
679.59	44.47
679.73	0.00
679.87	0.00
680.00	0.00
680.14	2.34
680.28	0.00
680.42	0.00
680.56	32.77
680.70	0.00
680.83	7.02
680.97	65.54
681.11	0.00
681.25	0.00
681.39	0.00
681.52	7.02
681.66	37.45
681.80	0.00
681.94	0.00
682.07	0.00
682.21	0.00
682.35	0.00
682.49	0.00
682.62	4.68
682.76	0.00
682.90	0.00
683.04	0.00
683.17	35.11
683.31	16.38
683.45	58.51
683.59	7.02
683.72	28.09
683.86	4.68
684.00	0.00
684.13	51.49
684.27	0.00
684.41	0.00
684.55	0.00
684.68	32.77
684.82	0.00
684.96	0.00
685.09	0.00
685.23	0.00
685.37	0.00
685.50	0.00
685.64	0.00
685.78	0.00
685.91	16.38
686.05	7.02
686.19	0.00
686.32	0.00
686.46	0.00
686.60	0.00
686.73	11.70
686.87	0.00
687.01	0.00
687.14	0.00
687.28	0.00
687.42	0.00
687.55	2.34
687.69	0.00
687.82	0.00
687.96	0.00
688.10	0.00
688.23	0.00
688.37	0.00
688.50	0.00
688.64	0.00
688.78	0.00
688.91	0.00
689.05	0.00
689.18	0.00
689.32	0.00
689.46	0.00
689.59	0.00
689.73	0.00
689.86	0.00
690.00	0.00
690.13	0.00
690.27	0.00
690.41	0.00
690.54	0.00
690.68	0.00
690.81	0.00
690.95	0.00
691.08	0.00
691.22	0.00
691.35	0.00
691.49	0.00
691.62	0.00
691.76	0.00
691.89	4.68
692.03	0.00
692.16	0.00
692.30	0.00
692.43	0.00
692.57	0.00
692.70	0.00
692.84	0.00
692.97	0.00
693.11	0.00
693.24	0.00
693.38	0.00
693.51	0.00
693.65	0.00
693.78	0.00
693.92	0.00
694.05	0.00
694.19	0.00
694.32	0.00
694.45	0.00
694.59	0.00
694.72	0.00
694.86	0.00
694.99	9.36
695.13	0.00
695.26	0.00
695.39	0.00
695.53	28.09
695.66	0.00
695.80	0.00
695.93	0.00
696.07	0.00
696.20	0.00
696.33	0.00
696.47	0.00
696.60	0.00
696.73	0.00
696.87	0.00
697.00	37.45
697.14	0.00
697.27	0.00
697.40	0.00
697.54	0.00
697.67	0.00
697.80	0.00
697.94	0.00
698.07	0.00
698.21	0.00
698.34	0.00
698.47	0.00
698.61	0.00
698.74	0.00
698.87	0.00
699.01	0.00
699.14	0.00
699.27	0.00
699.40	25.75
699.54	0.00
699.67	0.00
699.80	0.00
699.94	0.00
700.07	0.00
700.20	0.00
700.34	0.00
700.47	0.00
700.60	0.00
700.73	0.00
700.87	0.00
701.00	0.00
701.13	0.00
701.26	0.00
701.40	0.00
701.53	0.00
701.66	0.00
701.79	0.00
701.93	0.00
702.06	0.00
702.19	0.00
702.32	0.00
702.46	0.00
702.59	0.00
702.72	0.00
702.85	0.00
702.99	0.00
703.12	0.00
703.25	0.00
703.38	0.00
703.51	0.00
703.65	0.00
703.78	0.00
703.91	0.00
704.04	0.00
704.17	0.00
704.31	0.00
704.44	0.00
704.57	0.00
704.70	0.00
704.83	0.00
704.96	0.00
705.10	0.00
705.23	0.00
>>>>>End Processed Spectral Data<<<<<
