SpectraSuite Data File
++++++++++++++++++++++++++++++++++++
Date: Mon Oct 07 15:00:01 GMT-05:00 2013
User: price-jones
Dark Spectrum Present: No
Reference Spectrum Present: No
Number of Sampled Component Spectra: 1
Spectrometers: USB2+H05261
Integration Time (usec): 100000 (USB2+H05261)
Spectra Averaged: 1 (USB2+H05261)
Boxcar Smoothing: 0 (USB2+H05261)
Correct for Electrical Dark: No (USB2+H05261)
Strobe/Lamp Enabled: No (USB2+H05261)
Correct for Detector Non-linearity: No (USB2+H05261)
Correct for Stray Light: No (USB2+H05261)
Number of Pixels in Processed Spectrum: 2048
>>>>>Begin Processed Spectral Data<<<<<
365.73	0.00
365.92	0.00
366.12	0.00
366.32	0.00
366.52	0.00
366.72	0.00
366.91	0.00
367.11	0.00
367.31	0.00
367.51	0.00
367.70	0.00
367.90	0.00
368.10	0.00
368.30	0.00
368.49	0.00
368.69	0.00
368.89	0.00
369.09	0.00
369.28	0.00
369.48	0.00
369.68	0.00
369.87	0.00
370.07	0.00
370.27	0.00
370.47	0.00
370.66	0.00
370.86	0.00
371.06	0.00
371.25	0.00
371.45	0.00
371.65	0.00
371.84	0.00
372.04	0.00
372.24	0.00
372.44	0.00
372.63	0.00
372.83	0.00
373.03	0.00
373.22	0.00
373.42	0.00
373.62	0.00
373.81	0.00
374.01	0.00
374.21	0.00
374.40	0.00
374.60	0.00
374.79	0.00
374.99	0.00
375.19	0.00
375.38	0.00
375.58	0.00
375.78	0.00
375.97	0.00
376.17	0.00
376.37	0.00
376.56	0.00
376.76	0.00
376.95	0.00
377.15	0.00
377.35	0.00
377.54	0.00
377.74	0.00
377.93	0.00
378.13	0.00
378.33	0.00
378.52	0.00
378.72	0.00
378.91	0.00
379.11	0.00
379.31	0.00
379.50	0.00
379.70	0.00
379.89	0.00
380.09	0.00
380.28	0.00
380.48	0.00
380.68	0.00
380.87	0.00
381.07	0.00
381.26	0.00
381.46	0.00
381.65	0.00
381.85	0.00
382.04	0.00
382.24	0.00
382.43	0.00
382.63	0.00
382.83	0.00
383.02	0.00
383.22	0.00
383.41	0.00
383.61	0.00
383.80	0.00
384.00	0.00
384.19	0.00
384.39	0.00
384.58	0.00
384.78	0.00
384.97	0.00
385.17	0.00
385.36	0.00
385.56	0.00
385.75	0.00
385.95	0.00
386.14	0.00
386.34	0.00
386.53	0.00
386.72	0.00
386.92	0.00
387.11	0.00
387.31	0.00
387.50	0.00
387.70	0.00
387.89	0.00
388.09	0.00
388.28	0.00
388.48	0.00
388.67	0.00
388.86	0.00
389.06	0.00
389.25	0.00
389.45	0.00
389.64	0.00
389.84	0.00
390.03	0.00
390.22	0.00
390.42	0.00
390.61	0.00
390.81	0.00
391.00	0.00
391.19	0.00
391.39	0.00
391.58	0.00
391.78	0.00
391.97	0.00
392.16	0.00
392.36	0.00
392.55	0.00
392.75	0.00
392.94	0.00
393.13	0.00
393.33	0.00
393.52	0.00
393.71	0.00
393.91	0.00
394.10	0.00
394.29	0.00
394.49	0.00
394.68	0.00
394.88	0.00
395.07	0.00
395.26	0.00
395.46	0.00
395.65	0.00
395.84	0.00
396.04	0.00
396.23	0.00
396.42	0.00
396.62	0.00
396.81	0.00
397.00	0.00
397.19	0.00
397.39	0.00
397.58	0.00
397.77	0.00
397.97	0.00
398.16	0.00
398.35	0.00
398.55	0.00
398.74	0.00
398.93	0.00
399.12	0.00
399.32	0.00
399.51	0.00
399.70	0.00
399.90	0.00
400.09	0.00
400.28	0.00
400.47	0.00
400.67	0.00
400.86	0.00
401.05	0.00
401.24	0.00
401.44	0.00
401.63	0.00
401.82	0.00
402.01	0.00
402.21	0.00
402.40	0.00
402.59	0.00
402.78	0.00
402.97	0.00
403.17	0.00
403.36	0.00
403.55	0.00
403.74	0.00
403.93	0.00
404.13	0.00
404.32	0.00
404.51	0.00
404.70	0.00
404.89	0.00
405.09	0.00
405.28	0.00
405.47	0.00
405.66	0.00
405.85	0.00
406.05	0.00
406.24	0.00
406.43	0.00
406.62	0.00
406.81	0.00
407.00	0.00
407.20	0.00
407.39	0.00
407.58	0.00
407.77	0.00
407.96	0.00
408.15	0.00
408.34	0.00
408.54	0.00
408.73	0.00
408.92	0.00
409.11	0.00
409.30	0.00
409.49	0.00
409.68	0.00
409.87	0.00
410.07	0.00
410.26	0.00
410.45	0.00
410.64	0.00
410.83	0.00
411.02	0.00
411.21	0.00
411.40	0.00
411.59	0.00
411.78	0.00
411.98	0.00
412.17	0.00
412.36	0.00
412.55	0.00
412.74	0.00
412.93	0.00
413.12	0.00
413.31	0.00
413.50	0.00
413.69	0.00
413.88	0.00
414.07	0.00
414.26	0.00
414.45	0.00
414.64	0.00
414.83	0.00
415.02	0.00
415.22	0.00
415.41	0.00
415.60	0.00
415.79	0.00
415.98	0.00
416.17	0.00
416.36	0.00
416.55	0.00
416.74	0.00
416.93	0.00
417.12	0.00
417.31	0.00
417.50	0.00
417.69	0.00
417.88	0.00
418.07	0.00
418.26	0.00
418.45	0.00
418.64	0.00
418.83	0.00
419.02	0.00
419.21	0.00
419.39	0.00
419.58	0.00
419.77	0.00
419.96	0.00
420.15	0.00
420.34	0.00
420.53	0.00
420.72	0.00
420.91	0.00
421.10	0.00
421.29	0.00
421.48	0.00
421.67	0.00
421.86	0.00
422.05	0.00
422.24	0.00
422.43	0.00
422.61	0.00
422.80	0.00
422.99	0.00
423.18	0.00
423.37	0.00
423.56	0.00
423.75	0.00
423.94	0.00
424.13	0.00
424.32	0.00
424.50	0.00
424.69	0.00
424.88	0.00
425.07	0.00
425.26	0.00
425.45	0.00
425.64	0.00
425.83	0.00
426.01	0.00
426.20	0.00
426.39	0.00
426.58	0.00
426.77	0.00
426.96	0.00
427.15	0.00
427.33	0.00
427.52	0.00
427.71	0.00
427.90	0.00
428.09	0.00
428.28	0.00
428.46	0.00
428.65	0.00
428.84	0.00
429.03	0.00
429.22	0.00
429.40	0.00
429.59	0.00
429.78	0.00
429.97	0.00
430.16	0.00
430.34	0.00
430.53	0.00
430.72	0.00
430.91	0.00
431.10	0.00
431.28	0.00
431.47	0.00
431.66	0.00
431.85	0.00
432.03	0.00
432.22	0.00
432.41	0.00
432.60	0.00
432.79	0.00
432.97	0.00
433.16	0.00
433.35	0.00
433.54	0.00
433.72	0.00
433.91	0.00
434.10	0.00
434.28	0.00
434.47	0.00
434.66	0.00
434.85	0.00
435.03	0.00
435.22	0.00
435.41	0.00
435.59	0.00
435.78	0.00
435.97	0.00
436.16	0.00
436.34	0.00
436.53	0.00
436.72	0.00
436.90	0.00
437.09	0.00
437.28	0.00
437.46	0.00
437.65	0.00
437.84	0.00
438.02	0.00
438.21	0.00
438.40	0.00
438.58	0.00
438.77	0.00
438.96	0.00
439.14	0.00
439.33	0.00
439.52	0.00
439.70	0.00
439.89	0.00
440.08	0.00
440.26	0.00
440.45	0.00
440.63	0.00
440.82	0.00
441.01	0.00
441.19	0.00
441.38	0.00
441.57	0.00
441.75	4.68
441.94	0.00
442.12	0.00
442.31	0.00
442.50	0.00
442.68	0.00
442.87	0.00
443.05	0.00
443.24	0.00
443.43	0.00
443.61	0.00
443.80	0.00
443.98	0.00
444.17	0.00
444.35	53.83
444.54	0.00
444.73	0.00
444.91	0.00
445.10	0.00
445.28	0.00
445.47	0.00
445.65	0.00
445.84	0.00
446.02	0.00
446.21	0.00
446.39	0.00
446.58	0.00
446.77	0.00
446.95	0.00
447.14	30.43
447.32	35.11
447.51	0.00
447.69	0.00
447.88	0.00
448.06	23.41
448.25	0.00
448.43	0.00
448.62	0.00
448.80	0.00
448.99	0.00
449.17	0.00
449.36	0.00
449.54	0.00
449.73	0.00
449.91	0.00
450.10	0.00
450.28	4.68
450.46	0.00
450.65	0.00
450.83	0.00
451.02	0.00
451.20	0.00
451.39	0.00
451.57	32.77
451.76	0.00
451.94	0.00
452.13	0.00
452.31	0.00
452.49	0.00
452.68	0.00
452.86	0.00
453.05	28.09
453.23	0.00
453.42	0.00
453.60	0.00
453.78	0.00
453.97	0.00
454.15	0.00
454.34	0.00
454.52	0.00
454.70	0.00
454.89	0.00
455.07	0.00
455.26	0.00
455.44	18.72
455.62	0.00
455.81	0.00
455.99	0.00
456.17	65.54
456.36	0.00
456.54	0.00
456.73	0.00
456.91	0.00
457.09	0.00
457.28	0.00
457.46	0.00
457.64	0.00
457.83	0.00
458.01	0.00
458.19	0.00
458.38	0.00
458.56	0.00
458.74	0.00
458.93	7.02
459.11	0.00
459.29	0.00
459.48	0.00
459.66	0.00
459.84	0.00
460.03	67.88
460.21	0.00
460.39	0.00
460.57	0.00
460.76	0.00
460.94	0.00
461.12	4.68
461.31	30.43
461.49	0.00
461.67	0.00
461.85	0.00
462.04	0.00
462.22	606.20
462.40	0.00
462.59	0.00
462.77	0.00
462.95	0.00
463.13	0.00
463.32	23.41
463.50	0.00
463.68	0.00
463.86	0.00
464.05	0.00
464.23	0.00
464.41	14.04
464.59	0.00
464.78	7.02
464.96	0.00
465.14	0.00
465.32	0.00
465.50	0.00
465.69	0.00
465.87	0.00
466.05	2.34
466.23	0.00
466.41	0.00
466.60	0.00
466.78	0.00
466.96	0.00
467.14	0.00
467.32	0.00
467.51	0.00
467.69	0.00
467.87	0.00
468.05	32.77
468.23	7.02
468.41	14.04
468.60	2.34
468.78	0.00
468.96	0.00
469.14	0.00
469.32	0.00
469.50	0.00
469.69	0.00
469.87	25.75
470.05	0.00
470.23	21.06
470.41	7.02
470.59	0.00
470.77	0.00
470.95	28.09
471.14	21.06
471.32	0.00
471.50	49.15
471.68	4.68
471.86	30.43
472.04	9.36
472.22	0.00
472.40	0.00
472.58	0.00
472.77	0.00
472.95	0.00
473.13	98.30
473.31	0.00
473.49	0.00
473.67	0.00
473.85	67.88
474.03	0.00
474.21	0.00
474.39	0.00
474.57	42.13
474.75	9.36
474.93	0.00
475.12	0.00
475.30	53.83
475.48	0.00
475.66	0.00
475.84	21.06
476.02	0.00
476.20	18.72
476.38	16.38
476.56	32.77
476.74	18.72
476.92	0.00
477.10	30.43
477.28	0.00
477.46	0.00
477.64	72.56
477.82	49.15
478.00	14.04
478.18	0.00
478.36	0.00
478.54	51.49
478.72	0.00
478.90	28.09
479.08	63.19
479.26	72.56
479.44	0.00
479.62	25.75
479.80	0.00
479.98	25.75
480.16	0.00
480.34	28.09
480.52	23.41
480.70	0.00
480.88	0.00
481.06	0.00
481.24	102.98
481.41	9.36
481.59	79.58
481.77	21.06
481.95	84.26
482.13	88.94
482.31	58.51
482.49	0.00
482.67	58.51
482.85	95.96
483.03	121.71
483.21	32.77
483.39	107.66
483.57	7.02
483.74	145.11
483.92	46.81
484.10	42.13
484.28	119.37
484.46	100.64
484.64	32.77
484.82	72.56
485.00	0.00
485.18	53.83
485.35	63.19
485.53	21.06
485.71	60.85
485.89	32.77
486.07	25.75
486.25	49.15
486.43	119.37
486.61	138.09
486.78	79.58
486.96	42.13
487.14	74.90
487.32	39.79
487.50	93.62
487.68	93.62
487.85	53.83
488.03	110.01
488.21	91.28
488.39	74.90
488.57	189.58
488.75	79.58
488.92	437.68
489.10	163.84
489.28	227.03
489.46	70.22
489.64	177.88
489.81	145.11
489.99	154.48
490.17	140.43
490.35	208.31
490.53	70.22
490.70	133.41
490.88	168.52
491.06	126.39
491.24	161.50
491.41	182.56
491.59	95.96
491.77	98.30
491.95	63.19
492.13	184.90
492.30	23.41
492.48	128.73
492.66	112.35
492.84	95.96
493.01	201.29
493.19	177.88
493.37	210.65
493.54	180.22
493.72	212.99
493.90	170.86
494.08	135.75
494.25	210.65
494.43	163.84
494.61	243.42
494.79	117.03
494.96	86.60
495.14	114.69
495.32	100.64
495.49	114.69
495.67	180.22
495.85	182.56
496.02	184.90
496.20	173.20
496.38	205.97
496.55	173.20
496.73	266.82
496.91	124.05
497.09	117.03
497.26	177.88
497.44	241.08
497.62	154.48
497.79	210.65
497.97	175.54
498.14	161.50
498.32	154.48
498.50	215.33
498.67	250.44
498.85	131.07
499.03	241.08
499.20	177.88
499.38	248.10
499.56	208.31
499.73	292.57
499.91	191.92
500.08	140.43
500.26	189.58
500.44	194.26
500.61	217.67
500.79	142.77
500.97	142.77
501.14	191.92
501.32	222.35
501.49	266.82
501.67	191.92
501.84	175.54
502.02	156.82
502.20	271.50
502.37	248.10
502.55	166.18
502.72	252.78
502.90	269.16
503.07	180.22
503.25	229.37
503.43	229.37
503.60	156.82
503.78	194.26
503.95	259.80
504.13	271.50
504.30	210.65
504.48	222.35
504.65	271.50
504.83	248.10
505.01	168.52
505.18	245.76
505.36	276.18
505.53	215.33
505.71	250.44
505.88	238.73
506.06	189.58
506.23	271.50
506.41	198.95
506.58	189.58
506.76	243.42
506.93	198.95
507.11	224.69
507.28	152.13
507.46	142.77
507.63	241.08
507.81	194.26
507.98	238.73
508.16	194.26
508.33	269.16
508.50	257.46
508.68	224.69
508.85	215.33
509.03	224.69
509.20	175.54
509.38	234.05
509.55	278.52
509.73	229.37
509.90	278.52
510.08	238.73
510.25	271.50
510.42	182.56
510.60	238.73
510.77	299.59
510.95	243.42
511.12	220.01
511.30	257.46
511.47	287.89
511.64	332.36
511.82	248.10
511.99	161.50
512.17	222.35
512.34	196.60
512.51	154.48
512.69	182.56
512.86	287.89
513.04	175.54
513.21	168.52
513.38	318.31
513.56	262.14
513.73	313.63
513.90	212.99
514.08	238.73
514.25	262.14
514.43	184.90
514.60	210.65
514.77	257.46
514.95	229.37
515.12	259.80
515.29	243.42
515.47	262.14
515.64	264.48
515.81	259.80
515.99	301.93
516.16	276.18
516.33	163.84
516.51	152.13
516.68	105.32
516.85	175.54
517.03	138.09
517.20	301.93
517.37	243.42
517.54	271.50
517.72	241.08
517.89	119.37
518.06	121.71
518.24	358.10
518.41	301.93
518.58	205.97
518.75	159.16
518.93	241.08
519.10	198.95
519.27	217.67
519.45	313.63
519.62	262.14
519.79	344.06
519.96	315.97
520.14	252.78
520.31	262.14
520.48	212.99
520.65	285.55
520.83	320.65
521.00	346.40
521.17	313.63
521.34	257.46
521.52	283.20
521.69	238.73
521.86	259.80
522.03	297.25
522.20	311.29
522.38	203.63
522.55	234.05
522.72	245.76
522.89	367.46
523.07	386.19
523.24	360.44
523.41	306.61
523.58	341.72
523.75	227.03
523.92	297.25
524.10	222.35
524.27	304.27
524.44	245.76
524.61	351.08
524.78	227.03
524.96	248.10
525.13	287.89
525.30	271.50
525.47	311.29
525.64	283.20
525.81	259.80
525.98	222.35
526.16	128.73
526.33	180.22
526.50	187.24
526.67	191.92
526.84	269.16
527.01	175.54
527.18	243.42
527.36	203.63
527.53	292.57
527.70	330.02
527.87	294.91
528.04	337.04
528.21	271.50
528.38	341.72
528.55	327.68
528.72	454.06
528.89	334.70
529.07	301.93
529.24	353.42
529.41	264.48
529.58	322.99
529.75	379.17
529.92	341.72
530.09	322.99
530.26	269.16
530.43	358.10
530.60	294.91
530.77	308.95
530.94	308.95
531.11	301.93
531.28	259.80
531.46	292.57
531.63	360.44
531.80	322.99
531.97	304.27
532.14	271.50
532.31	292.57
532.48	308.95
532.65	313.63
532.82	229.37
532.99	294.91
533.16	327.68
533.33	346.40
533.50	339.38
533.67	245.76
533.84	304.27
534.01	332.36
534.18	236.39
534.35	327.68
534.52	299.59
534.69	358.10
534.86	325.33
535.03	351.08
535.20	374.49
535.37	418.96
535.54	308.95
535.71	308.95
535.88	383.85
536.05	297.25
536.22	320.65
536.38	227.03
536.55	283.20
536.72	318.31
536.89	250.44
537.06	358.10
537.23	318.31
537.40	297.25
537.57	332.36
537.74	299.59
537.91	332.36
538.08	339.38
538.25	374.49
538.42	313.63
538.59	299.59
538.75	278.52
538.92	383.85
539.09	292.57
539.26	257.46
539.43	346.40
539.60	365.12
539.77	341.72
539.94	313.63
540.11	276.18
540.28	353.42
540.44	330.02
540.61	191.92
540.78	278.52
540.95	325.33
541.12	318.31
541.29	327.68
541.46	425.98
541.62	327.68
541.79	269.16
541.96	306.61
542.13	348.74
542.30	315.97
542.47	330.02
542.63	283.20
542.80	334.70
542.97	400.23
543.14	250.44
543.31	367.46
543.48	297.25
543.64	365.12
543.81	243.42
543.98	318.31
544.15	294.91
544.32	376.83
544.48	393.21
544.65	276.18
544.82	311.29
544.99	322.99
545.16	362.78
545.32	266.82
545.49	346.40
545.66	297.25
545.83	334.70
546.00	402.57
546.16	301.93
546.33	369.80
546.50	252.78
546.67	372.15
546.83	421.30
547.00	311.29
547.17	337.04
547.34	266.82
547.50	313.63
547.67	365.12
547.84	308.95
548.00	290.23
548.17	250.44
548.34	346.40
548.51	299.59
548.67	327.68
548.84	421.30
549.01	397.89
549.18	383.85
549.34	428.32
549.51	290.23
549.68	318.31
549.84	337.04
550.01	344.06
550.18	442.36
550.34	496.19
550.51	283.20
550.68	451.72
550.84	285.55
551.01	297.25
551.18	365.12
551.34	297.25
551.51	269.16
551.68	294.91
551.84	383.85
552.01	355.76
552.18	318.31
552.34	238.73
552.51	285.55
552.68	379.17
552.84	332.36
553.01	330.02
553.18	332.36
553.34	262.14
553.51	322.99
553.67	355.76
553.84	393.21
554.01	383.85
554.17	292.57
554.34	325.33
554.51	421.30
554.67	360.44
554.84	423.64
555.00	344.06
555.17	360.44
555.33	388.53
555.50	313.63
555.67	374.49
555.83	346.40
556.00	414.27
556.16	444.70
556.33	327.68
556.50	191.92
556.66	220.01
556.83	374.49
556.99	278.52
557.16	330.02
557.32	376.83
557.49	402.57
557.65	273.84
557.82	266.82
557.98	325.33
558.15	353.42
558.32	330.02
558.48	262.14
558.65	304.27
558.81	383.85
558.98	325.33
559.14	301.93
559.31	210.65
559.47	362.78
559.64	236.39
559.80	334.70
559.97	271.50
560.13	297.25
560.30	283.20
560.46	248.10
560.63	351.08
560.79	414.27
560.96	358.10
561.12	339.38
561.29	301.93
561.45	292.57
561.61	308.95
561.78	381.51
561.94	243.42
562.11	271.50
562.27	365.12
562.44	292.57
562.60	358.10
562.77	360.44
562.93	402.57
563.10	297.25
563.26	353.42
563.42	299.59
563.59	369.80
563.75	308.95
563.92	388.53
564.08	320.65
564.24	325.33
564.41	409.59
564.57	290.23
564.74	259.80
564.90	287.89
565.07	285.55
565.23	353.42
565.39	210.65
565.56	388.53
565.72	332.36
565.88	278.52
566.05	353.42
566.21	255.12
566.38	379.17
566.54	339.38
566.70	313.63
566.87	318.31
567.03	255.12
567.19	386.19
567.36	376.83
567.52	337.04
567.68	301.93
567.85	318.31
568.01	301.93
568.17	280.86
568.34	311.29
568.50	276.18
568.66	210.65
568.83	402.57
568.99	224.69
569.15	353.42
569.32	334.70
569.48	325.33
569.64	322.99
569.81	231.71
569.97	348.74
570.13	402.57
570.30	234.05
570.46	180.22
570.62	313.63
570.78	315.97
570.95	255.12
571.11	365.12
571.27	397.89
571.43	231.71
571.60	320.65
571.76	241.08
571.92	337.04
572.09	358.10
572.25	264.48
572.41	227.03
572.57	283.20
572.74	397.89
572.90	381.51
573.06	433.00
573.22	306.61
573.38	393.21
573.55	355.76
573.71	301.93
573.87	290.23
574.03	358.10
574.20	330.02
574.36	365.12
574.52	255.12
574.68	308.95
574.84	365.12
575.01	341.72
575.17	238.73
575.33	234.05
575.49	409.59
575.65	358.10
575.82	369.80
575.98	372.15
576.14	306.61
576.30	344.06
576.46	294.91
576.62	297.25
576.79	294.91
576.95	287.89
577.11	273.84
577.27	234.05
577.43	355.76
577.59	365.12
577.75	379.17
577.92	262.14
578.08	355.76
578.24	330.02
578.40	346.40
578.56	325.33
578.72	313.63
578.88	397.89
579.04	372.15
579.21	322.99
579.37	276.18
579.53	266.82
579.69	306.61
579.85	276.18
580.01	278.52
580.17	271.50
580.33	217.67
580.49	238.73
580.65	362.78
580.82	276.18
580.98	269.16
581.14	294.91
581.30	353.42
581.46	320.65
581.62	264.48
581.78	238.73
581.94	294.91
582.10	257.46
582.26	290.23
582.42	276.18
582.58	327.68
582.74	306.61
582.90	320.65
583.06	353.42
583.22	339.38
583.38	276.18
583.54	271.50
583.70	381.51
583.86	311.29
584.02	273.84
584.18	299.59
584.34	315.97
584.50	400.23
584.66	294.91
584.82	325.33
584.98	327.68
585.14	311.29
585.30	344.06
585.46	346.40
585.62	259.80
585.78	238.73
585.94	404.91
586.10	280.86
586.26	407.25
586.42	271.50
586.58	308.95
586.74	245.76
586.90	337.04
587.06	299.59
587.22	297.25
587.38	287.89
587.54	273.84
587.70	334.70
587.86	217.67
588.02	339.38
588.18	250.44
588.34	315.97
588.49	245.76
588.65	271.50
588.81	184.90
588.97	212.99
589.13	191.92
589.29	266.82
589.45	280.86
589.61	355.76
589.77	374.49
589.93	222.35
590.08	250.44
590.24	252.78
590.40	283.20
590.56	245.76
590.72	315.97
590.88	245.76
591.04	234.05
591.20	201.29
591.35	299.59
591.51	339.38
591.67	238.73
591.83	191.92
591.99	332.36
592.15	294.91
592.31	283.20
592.46	299.59
592.62	376.83
592.78	311.29
592.94	224.69
593.10	255.12
593.26	224.69
593.41	334.70
593.57	374.49
593.73	273.84
593.89	224.69
594.05	273.84
594.20	262.14
594.36	276.18
594.52	292.57
594.68	280.86
594.84	259.80
594.99	318.31
595.15	320.65
595.31	344.06
595.47	348.74
595.62	334.70
595.78	353.42
595.94	297.25
596.10	299.59
596.25	276.18
596.41	278.52
596.57	229.37
596.73	276.18
596.88	257.46
597.04	259.80
597.20	212.99
597.36	262.14
597.51	318.31
597.67	262.14
597.83	250.44
597.99	294.91
598.14	287.89
598.30	332.36
598.46	278.52
598.61	311.29
598.77	250.44
598.93	308.95
599.09	294.91
599.24	241.08
599.40	222.35
599.56	262.14
599.71	259.80
599.87	163.84
600.03	290.23
600.18	290.23
600.34	259.80
600.50	222.35
600.65	248.10
600.81	322.99
600.97	280.86
601.12	234.05
601.28	287.89
601.44	341.72
601.59	229.37
601.75	236.39
601.91	301.93
602.06	245.76
602.22	238.73
602.37	334.70
602.53	292.57
602.69	131.07
602.84	184.90
603.00	250.44
603.16	166.18
603.31	308.95
603.47	252.78
603.62	220.01
603.78	227.03
603.94	276.18
604.09	180.22
604.25	168.52
604.40	337.04
604.56	301.93
604.71	362.78
604.87	255.12
605.03	315.97
605.18	203.63
605.34	273.84
605.49	250.44
605.65	243.42
605.80	210.65
605.96	224.69
606.12	212.99
606.27	259.80
606.43	250.44
606.58	215.33
606.74	325.33
606.89	294.91
607.05	320.65
607.20	227.03
607.36	301.93
607.51	243.42
607.67	257.46
607.82	227.03
607.98	308.95
608.13	222.35
608.29	220.01
608.44	402.57
608.60	257.46
608.75	271.50
608.91	285.55
609.06	231.71
609.22	313.63
609.37	243.42
609.53	205.97
609.68	205.97
609.84	276.18
609.99	271.50
610.15	201.29
610.30	255.12
610.46	259.80
610.61	257.46
610.76	269.16
610.92	201.29
611.07	135.75
611.23	311.29
611.38	220.01
611.54	175.54
611.69	292.57
611.84	217.67
612.00	294.91
612.15	257.46
612.31	222.35
612.46	276.18
612.62	205.97
612.77	212.99
612.92	229.37
613.08	311.29
613.23	217.67
613.39	243.42
613.54	280.86
613.69	266.82
613.85	238.73
614.00	201.29
614.15	255.12
614.31	234.05
614.46	297.25
614.62	257.46
614.77	259.80
614.92	145.11
615.08	262.14
615.23	280.86
615.38	283.20
615.54	238.73
615.69	180.22
615.84	201.29
616.00	250.44
616.15	236.39
616.30	215.33
616.46	250.44
616.61	189.58
616.76	187.24
616.92	189.58
617.07	189.58
617.22	119.37
617.37	180.22
617.53	147.45
617.68	191.92
617.83	180.22
617.99	280.86
618.14	205.97
618.29	198.95
618.45	163.84
618.60	189.58
618.75	128.73
618.90	138.09
619.06	210.65
619.21	229.37
619.36	229.37
619.51	220.01
619.67	187.24
619.82	175.54
619.97	170.86
620.12	182.56
620.28	266.82
620.43	159.16
620.58	229.37
620.73	177.88
620.89	252.78
621.04	245.76
621.19	299.59
621.34	149.79
621.49	131.07
621.65	229.37
621.80	255.12
621.95	236.39
622.10	255.12
622.25	156.82
622.41	198.95
622.56	81.92
622.71	208.31
622.86	194.26
623.01	121.71
623.16	236.39
623.32	86.60
623.47	170.86
623.62	252.78
623.77	152.13
623.92	196.60
624.07	173.20
624.23	198.95
624.38	198.95
624.53	102.98
624.68	184.90
624.83	238.73
624.98	114.69
625.13	142.77
625.29	152.13
625.44	145.11
625.59	205.97
625.74	189.58
625.89	238.73
626.04	170.86
626.19	163.84
626.34	182.56
626.49	222.35
626.65	166.18
626.80	145.11
626.95	243.42
627.10	114.69
627.25	180.22
627.40	210.65
627.55	210.65
627.70	166.18
627.85	152.13
628.00	177.88
628.15	175.54
628.30	180.22
628.45	138.09
628.60	102.98
628.76	128.73
628.91	180.22
629.06	182.56
629.21	285.55
629.36	220.01
629.51	93.62
629.66	119.37
629.81	98.30
629.96	252.78
630.11	191.92
630.26	175.54
630.41	140.43
630.56	142.77
630.71	67.88
630.86	105.32
631.01	117.03
631.16	208.31
631.31	210.65
631.46	147.45
631.61	138.09
631.76	154.48
631.91	182.56
632.06	227.03
632.21	187.24
632.36	168.52
632.51	119.37
632.66	114.69
632.81	124.05
632.96	152.13
633.10	114.69
633.25	276.18
633.40	180.22
633.55	177.88
633.70	177.88
633.85	74.90
634.00	95.96
634.15	119.37
634.30	95.96
634.45	166.18
634.60	173.20
634.75	107.66
634.90	215.33
635.05	182.56
635.19	156.82
635.34	84.26
635.49	227.03
635.64	149.79
635.79	145.11
635.94	189.58
636.09	212.99
636.24	142.77
636.39	121.71
636.53	210.65
636.68	102.98
636.83	187.24
636.98	257.46
637.13	177.88
637.28	163.84
637.43	220.01
637.57	133.41
637.72	208.31
637.87	159.16
638.02	170.86
638.17	105.32
638.32	175.54
638.46	128.73
638.61	203.63
638.76	117.03
638.91	105.32
639.06	215.33
639.20	182.56
639.35	135.75
639.50	177.88
639.65	159.16
639.80	135.75
639.94	177.88
640.09	154.48
640.24	161.50
640.39	184.90
640.54	180.22
640.68	184.90
640.83	168.52
640.98	105.32
641.13	156.82
641.27	107.66
641.42	175.54
641.57	77.24
641.72	140.43
641.86	156.82
642.01	138.09
642.16	243.42
642.31	98.30
642.45	175.54
642.60	187.24
642.75	110.01
642.90	79.58
643.04	149.79
643.19	147.45
643.34	159.16
643.48	175.54
643.63	149.79
643.78	194.26
643.93	140.43
644.07	180.22
644.22	145.11
644.37	180.22
644.51	177.88
644.66	149.79
644.81	86.60
644.95	227.03
645.10	147.45
645.25	100.64
645.39	124.05
645.54	77.24
645.69	205.97
645.83	135.75
645.98	159.16
646.13	117.03
646.27	119.37
646.42	77.24
646.57	133.41
646.71	133.41
646.86	35.11
647.00	114.69
647.15	175.54
647.30	117.03
647.44	32.77
647.59	117.03
647.74	65.54
647.88	91.28
648.03	100.64
648.17	184.90
648.32	88.94
648.47	114.69
648.61	107.66
648.76	114.69
648.90	91.28
649.05	91.28
649.20	46.81
649.34	74.90
649.49	95.96
649.63	154.48
649.78	37.45
649.92	32.77
650.07	105.32
650.21	135.75
650.36	142.77
650.51	152.13
650.65	227.03
650.80	84.26
650.94	70.22
651.09	74.90
651.23	37.45
651.38	77.24
651.52	102.98
651.67	53.83
651.81	93.62
651.96	128.73
652.10	138.09
652.25	98.30
652.39	128.73
652.54	67.88
652.68	67.88
652.83	102.98
652.97	110.01
653.12	140.43
653.26	65.54
653.41	100.64
653.55	77.24
653.70	46.81
653.84	37.45
653.99	21.06
654.13	74.90
654.27	126.39
654.42	25.75
654.56	9.36
654.71	126.39
654.85	84.26
655.00	86.60
655.14	35.11
655.29	86.60
655.43	56.17
655.57	72.56
655.72	60.85
655.86	63.19
656.01	16.38
656.15	16.38
656.30	102.98
656.44	112.35
656.58	32.77
656.73	70.22
656.87	79.58
657.01	25.75
657.16	91.28
657.30	119.37
657.45	121.71
657.59	81.92
657.73	88.94
657.88	51.49
658.02	147.45
658.16	156.82
658.31	72.56
658.45	58.51
658.60	28.09
658.74	102.98
658.88	46.81
659.03	28.09
659.17	107.66
659.31	74.90
659.46	67.88
659.60	117.03
659.74	72.56
659.89	77.24
660.03	72.56
660.17	135.75
660.32	74.90
660.46	147.45
660.60	98.30
660.74	60.85
660.89	102.98
661.03	91.28
661.17	42.13
661.32	0.00
661.46	88.94
661.60	65.54
661.74	58.51
661.89	114.69
662.03	65.54
662.17	114.69
662.31	100.64
662.46	4.68
662.60	114.69
662.74	100.64
662.88	107.66
663.03	74.90
663.17	67.88
663.31	51.49
663.45	79.58
663.60	35.11
663.74	0.00
663.88	18.72
664.02	18.72
664.17	53.83
664.31	0.00
664.45	25.75
664.59	0.00
664.73	44.47
664.88	124.05
665.02	18.72
665.16	126.39
665.30	81.92
665.44	53.83
665.59	42.13
665.73	88.94
665.87	60.85
666.01	100.64
666.15	88.94
666.29	0.00
666.44	93.62
666.58	65.54
666.72	126.39
666.86	70.22
667.00	91.28
667.14	35.11
667.28	74.90
667.43	32.77
667.57	46.81
667.71	25.75
667.85	105.32
667.99	51.49
668.13	53.83
668.27	4.68
668.41	95.96
668.56	7.02
668.70	44.47
668.84	42.13
668.98	135.75
669.12	4.68
669.26	51.49
669.40	159.16
669.54	81.92
669.68	152.13
669.82	23.41
669.96	46.81
670.10	35.11
670.25	84.26
670.39	32.77
670.53	21.06
670.67	131.07
670.81	56.17
670.95	9.36
671.09	0.00
671.23	53.83
671.37	2.34
671.51	74.90
671.65	32.77
671.79	32.77
671.93	95.96
672.07	53.83
672.21	117.03
672.35	16.38
672.49	0.00
672.63	23.41
672.77	16.38
672.91	11.70
673.05	91.28
673.19	53.83
673.33	0.00
673.47	91.28
673.61	46.81
673.75	9.36
673.89	65.54
674.03	42.13
674.17	93.62
674.31	35.11
674.45	65.54
674.59	65.54
674.73	28.09
674.87	70.22
675.01	0.00
675.15	49.15
675.29	7.02
675.43	0.00
675.56	37.45
675.70	100.64
675.84	25.75
675.98	25.75
676.12	65.54
676.26	0.00
676.40	42.13
676.54	0.00
676.68	0.00
676.82	65.54
676.96	49.15
677.10	46.81
677.23	0.00
677.37	7.02
677.51	4.68
677.65	51.49
677.79	28.09
677.93	0.00
678.07	0.00
678.21	0.00
678.34	0.00
678.48	0.00
678.62	9.36
678.76	0.00
678.90	60.85
679.04	44.47
679.18	0.00
679.31	0.00
679.45	28.09
679.59	11.70
679.73	0.00
679.87	0.00
680.00	0.00
680.14	0.00
680.28	32.77
680.42	2.34
680.56	63.19
680.70	0.00
680.83	42.13
680.97	0.00
681.11	0.00
681.25	18.72
681.39	0.00
681.52	0.00
681.66	25.75
681.80	0.00
681.94	0.00
682.07	2.34
682.21	42.13
682.35	0.00
682.49	0.00
682.62	74.90
682.76	9.36
682.90	0.00
683.04	35.11
683.17	4.68
683.31	11.70
683.45	0.00
683.59	28.09
683.72	0.00
683.86	0.00
684.00	0.00
684.13	51.49
684.27	9.36
684.41	16.38
684.55	0.00
684.68	0.00
684.82	0.00
684.96	0.00
685.09	0.00
685.23	0.00
685.37	0.00
685.50	4.68
685.64	30.43
685.78	2.34
685.91	0.00
686.05	14.04
686.19	35.11
686.32	0.00
686.46	0.00
686.60	0.00
686.73	0.00
686.87	0.00
687.01	0.00
687.14	0.00
687.28	0.00
687.42	0.00
687.55	0.00
687.69	0.00
687.82	0.00
687.96	0.00
688.10	0.00
688.23	0.00
688.37	0.00
688.50	0.00
688.64	0.00
688.78	0.00
688.91	0.00
689.05	0.00
689.18	11.70
689.32	0.00
689.46	0.00
689.59	0.00
689.73	0.00
689.86	0.00
690.00	0.00
690.13	0.00
690.27	0.00
690.41	0.00
690.54	0.00
690.68	0.00
690.81	0.00
690.95	0.00
691.08	0.00
691.22	0.00
691.35	0.00
691.49	0.00
691.62	0.00
691.76	0.00
691.89	0.00
692.03	0.00
692.16	0.00
692.30	0.00
692.43	0.00
692.57	0.00
692.70	0.00
692.84	14.04
692.97	0.00
693.11	0.00
693.24	0.00
693.38	0.00
693.51	0.00
693.65	0.00
693.78	0.00
693.92	0.00
694.05	0.00
694.19	0.00
694.32	0.00
694.45	0.00
694.59	0.00
694.72	0.00
694.86	0.00
694.99	0.00
695.13	0.00
695.26	0.00
695.39	0.00
695.53	28.09
695.66	0.00
695.80	0.00
695.93	0.00
696.07	0.00
696.20	0.00
696.33	0.00
696.47	0.00
696.60	0.00
696.73	0.00
696.87	0.00
697.00	0.00
697.14	0.00
697.27	0.00
697.40	39.79
697.54	0.00
697.67	0.00
697.80	0.00
697.94	0.00
698.07	0.00
698.21	0.00
698.34	0.00
698.47	0.00
698.61	0.00
698.74	0.00
698.87	0.00
699.01	0.00
699.14	0.00
699.27	0.00
699.40	0.00
699.54	0.00
699.67	0.00
699.80	0.00
699.94	0.00
700.07	0.00
700.20	0.00
700.34	0.00
700.47	0.00
700.60	0.00
700.73	0.00
700.87	0.00
701.00	0.00
701.13	0.00
701.26	0.00
701.40	0.00
701.53	0.00
701.66	0.00
701.79	0.00
701.93	0.00
702.06	0.00
702.19	0.00
702.32	0.00
702.46	0.00
702.59	0.00
702.72	0.00
702.85	0.00
702.99	0.00
703.12	0.00
703.25	0.00
703.38	0.00
703.51	0.00
703.65	0.00
703.78	0.00
703.91	0.00
704.04	0.00
704.17	0.00
704.31	0.00
704.44	0.00
704.57	0.00
704.70	0.00
704.83	0.00
704.96	0.00
705.10	0.00
705.23	0.00
>>>>>End Processed Spectral Data<<<<<
