SpectraSuite Data File
++++++++++++++++++++++++++++++++++++
Date: Mon Oct 07 15:00:01 GMT-05:00 2013
User: price-jones
Dark Spectrum Present: No
Reference Spectrum Present: No
Number of Sampled Component Spectra: 1
Spectrometers: USB2+H05261
Integration Time (usec): 100000 (USB2+H05261)
Spectra Averaged: 1 (USB2+H05261)
Boxcar Smoothing: 0 (USB2+H05261)
Correct for Electrical Dark: No (USB2+H05261)
Strobe/Lamp Enabled: No (USB2+H05261)
Correct for Detector Non-linearity: No (USB2+H05261)
Correct for Stray Light: No (USB2+H05261)
Number of Pixels in Processed Spectrum: 2048
>>>>>Begin Processed Spectral Data<<<<<
365.73	0.00
365.92	0.00
366.12	0.00
366.32	0.00
366.52	0.00
366.72	0.00
366.91	0.00
367.11	0.00
367.31	0.00
367.51	0.00
367.70	0.00
367.90	0.00
368.10	0.00
368.30	0.00
368.49	0.00
368.69	0.00
368.89	0.00
369.09	0.00
369.28	0.00
369.48	0.00
369.68	0.00
369.87	0.00
370.07	0.00
370.27	0.00
370.47	0.00
370.66	0.00
370.86	0.00
371.06	0.00
371.25	0.00
371.45	0.00
371.65	0.00
371.84	0.00
372.04	0.00
372.24	0.00
372.44	0.00
372.63	0.00
372.83	0.00
373.03	0.00
373.22	0.00
373.42	0.00
373.62	0.00
373.81	0.00
374.01	0.00
374.21	0.00
374.40	0.00
374.60	0.00
374.79	0.00
374.99	0.00
375.19	0.00
375.38	0.00
375.58	0.00
375.78	0.00
375.97	0.00
376.17	0.00
376.37	0.00
376.56	0.00
376.76	0.00
376.95	0.00
377.15	0.00
377.35	0.00
377.54	0.00
377.74	0.00
377.93	0.00
378.13	0.00
378.33	0.00
378.52	0.00
378.72	0.00
378.91	0.00
379.11	0.00
379.31	0.00
379.50	0.00
379.70	0.00
379.89	0.00
380.09	0.00
380.28	0.00
380.48	0.00
380.68	0.00
380.87	0.00
381.07	0.00
381.26	0.00
381.46	0.00
381.65	0.00
381.85	0.00
382.04	0.00
382.24	0.00
382.43	0.00
382.63	0.00
382.83	0.00
383.02	0.00
383.22	0.00
383.41	0.00
383.61	0.00
383.80	0.00
384.00	0.00
384.19	0.00
384.39	0.00
384.58	0.00
384.78	0.00
384.97	0.00
385.17	0.00
385.36	0.00
385.56	0.00
385.75	0.00
385.95	0.00
386.14	0.00
386.34	0.00
386.53	0.00
386.72	0.00
386.92	0.00
387.11	0.00
387.31	0.00
387.50	0.00
387.70	0.00
387.89	0.00
388.09	0.00
388.28	0.00
388.48	0.00
388.67	0.00
388.86	0.00
389.06	0.00
389.25	0.00
389.45	0.00
389.64	0.00
389.84	0.00
390.03	0.00
390.22	0.00
390.42	0.00
390.61	0.00
390.81	0.00
391.00	0.00
391.19	0.00
391.39	0.00
391.58	0.00
391.78	0.00
391.97	0.00
392.16	0.00
392.36	0.00
392.55	0.00
392.75	0.00
392.94	0.00
393.13	0.00
393.33	0.00
393.52	0.00
393.71	0.00
393.91	0.00
394.10	0.00
394.29	0.00
394.49	0.00
394.68	0.00
394.88	0.00
395.07	0.00
395.26	0.00
395.46	0.00
395.65	0.00
395.84	0.00
396.04	0.00
396.23	0.00
396.42	0.00
396.62	0.00
396.81	0.00
397.00	0.00
397.19	0.00
397.39	0.00
397.58	0.00
397.77	0.00
397.97	0.00
398.16	0.00
398.35	0.00
398.55	0.00
398.74	0.00
398.93	0.00
399.12	0.00
399.32	0.00
399.51	0.00
399.70	0.00
399.90	0.00
400.09	0.00
400.28	0.00
400.47	0.00
400.67	0.00
400.86	0.00
401.05	0.00
401.24	0.00
401.44	0.00
401.63	0.00
401.82	0.00
402.01	0.00
402.21	0.00
402.40	0.00
402.59	0.00
402.78	0.00
402.97	0.00
403.17	0.00
403.36	0.00
403.55	0.00
403.74	0.00
403.93	0.00
404.13	0.00
404.32	0.00
404.51	0.00
404.70	0.00
404.89	0.00
405.09	0.00
405.28	0.00
405.47	0.00
405.66	0.00
405.85	0.00
406.05	0.00
406.24	0.00
406.43	0.00
406.62	0.00
406.81	0.00
407.00	0.00
407.20	0.00
407.39	0.00
407.58	0.00
407.77	0.00
407.96	0.00
408.15	0.00
408.34	0.00
408.54	0.00
408.73	0.00
408.92	0.00
409.11	0.00
409.30	0.00
409.49	0.00
409.68	0.00
409.87	0.00
410.07	0.00
410.26	0.00
410.45	0.00
410.64	0.00
410.83	0.00
411.02	0.00
411.21	0.00
411.40	0.00
411.59	0.00
411.78	0.00
411.98	0.00
412.17	0.00
412.36	0.00
412.55	0.00
412.74	0.00
412.93	0.00
413.12	0.00
413.31	0.00
413.50	0.00
413.69	0.00
413.88	0.00
414.07	0.00
414.26	0.00
414.45	0.00
414.64	0.00
414.83	0.00
415.02	0.00
415.22	0.00
415.41	0.00
415.60	0.00
415.79	0.00
415.98	0.00
416.17	0.00
416.36	0.00
416.55	0.00
416.74	0.00
416.93	0.00
417.12	0.00
417.31	0.00
417.50	0.00
417.69	0.00
417.88	0.00
418.07	0.00
418.26	0.00
418.45	0.00
418.64	0.00
418.83	0.00
419.02	0.00
419.21	0.00
419.39	0.00
419.58	0.00
419.77	0.00
419.96	0.00
420.15	0.00
420.34	0.00
420.53	0.00
420.72	0.00
420.91	0.00
421.10	0.00
421.29	0.00
421.48	0.00
421.67	0.00
421.86	0.00
422.05	0.00
422.24	0.00
422.43	0.00
422.61	0.00
422.80	0.00
422.99	0.00
423.18	0.00
423.37	0.00
423.56	0.00
423.75	0.00
423.94	0.00
424.13	0.00
424.32	0.00
424.50	0.00
424.69	0.00
424.88	0.00
425.07	0.00
425.26	0.00
425.45	0.00
425.64	0.00
425.83	0.00
426.01	0.00
426.20	0.00
426.39	0.00
426.58	0.00
426.77	0.00
426.96	0.00
427.15	0.00
427.33	0.00
427.52	0.00
427.71	0.00
427.90	0.00
428.09	0.00
428.28	0.00
428.46	0.00
428.65	0.00
428.84	0.00
429.03	0.00
429.22	0.00
429.40	0.00
429.59	0.00
429.78	0.00
429.97	0.00
430.16	0.00
430.34	0.00
430.53	0.00
430.72	0.00
430.91	0.00
431.10	0.00
431.28	0.00
431.47	0.00
431.66	0.00
431.85	0.00
432.03	0.00
432.22	0.00
432.41	0.00
432.60	0.00
432.79	0.00
432.97	0.00
433.16	0.00
433.35	0.00
433.54	0.00
433.72	0.00
433.91	0.00
434.10	0.00
434.28	0.00
434.47	0.00
434.66	0.00
434.85	0.00
435.03	0.00
435.22	0.00
435.41	0.00
435.59	0.00
435.78	0.00
435.97	0.00
436.16	0.00
436.34	0.00
436.53	0.00
436.72	0.00
436.90	0.00
437.09	0.00
437.28	0.00
437.46	0.00
437.65	0.00
437.84	0.00
438.02	0.00
438.21	0.00
438.40	0.00
438.58	0.00
438.77	0.00
438.96	0.00
439.14	0.00
439.33	0.00
439.52	0.00
439.70	0.00
439.89	0.00
440.08	0.00
440.26	0.00
440.45	0.00
440.63	0.00
440.82	0.00
441.01	0.00
441.19	0.00
441.38	0.00
441.57	0.00
441.75	0.00
441.94	0.00
442.12	0.00
442.31	0.00
442.50	0.00
442.68	0.00
442.87	0.00
443.05	0.00
443.24	0.00
443.43	0.00
443.61	0.00
443.80	0.00
443.98	0.00
444.17	0.00
444.35	0.00
444.54	0.00
444.73	0.00
444.91	0.00
445.10	0.00
445.28	0.00
445.47	0.00
445.65	0.00
445.84	0.00
446.02	0.00
446.21	0.00
446.39	0.00
446.58	0.00
446.77	0.00
446.95	0.00
447.14	0.00
447.32	0.00
447.51	0.00
447.69	0.00
447.88	0.00
448.06	0.00
448.25	0.00
448.43	0.00
448.62	0.00
448.80	0.00
448.99	0.00
449.17	0.00
449.36	0.00
449.54	0.00
449.73	0.00
449.91	0.00
450.10	0.00
450.28	39.79
450.46	56.17
450.65	0.00
450.83	0.00
451.02	0.00
451.20	0.00
451.39	0.00
451.57	0.00
451.76	0.00
451.94	0.00
452.13	0.00
452.31	0.00
452.49	0.00
452.68	0.00
452.86	0.00
453.05	0.00
453.23	0.00
453.42	0.00
453.60	0.00
453.78	0.00
453.97	0.00
454.15	0.00
454.34	7.02
454.52	0.00
454.70	25.75
454.89	0.00
455.07	0.00
455.26	0.00
455.44	0.00
455.62	0.00
455.81	4.68
455.99	0.00
456.17	0.00
456.36	0.00
456.54	0.00
456.73	0.00
456.91	0.00
457.09	0.00
457.28	0.00
457.46	0.00
457.64	0.00
457.83	0.00
458.01	0.00
458.19	0.00
458.38	0.00
458.56	0.00
458.74	0.00
458.93	0.00
459.11	23.41
459.29	0.00
459.48	0.00
459.66	30.43
459.84	0.00
460.03	58.51
460.21	0.00
460.39	0.00
460.57	0.00
460.76	0.00
460.94	21.06
461.12	0.00
461.31	32.77
461.49	30.43
461.67	14.04
461.85	0.00
462.04	0.00
462.22	587.47
462.40	46.81
462.59	7.02
462.77	0.00
462.95	0.00
463.13	0.00
463.32	0.00
463.50	0.00
463.68	0.00
463.86	0.00
464.05	4.68
464.23	0.00
464.41	0.00
464.59	0.00
464.78	0.00
464.96	0.00
465.14	0.00
465.32	0.00
465.50	23.41
465.69	0.00
465.87	0.00
466.05	0.00
466.23	0.00
466.41	0.00
466.60	0.00
466.78	0.00
466.96	30.43
467.14	0.00
467.32	49.15
467.51	0.00
467.69	11.70
467.87	0.00
468.05	0.00
468.23	37.45
468.41	16.38
468.60	77.24
468.78	44.47
468.96	0.00
469.14	0.00
469.32	0.00
469.50	0.00
469.69	0.00
469.87	0.00
470.05	0.00
470.23	0.00
470.41	18.72
470.59	0.00
470.77	0.00
470.95	0.00
471.14	16.38
471.32	7.02
471.50	25.75
471.68	0.00
471.86	0.00
472.04	0.00
472.22	0.00
472.40	0.00
472.58	0.00
472.77	0.00
472.95	0.00
473.13	0.00
473.31	0.00
473.49	0.00
473.67	25.75
473.85	49.15
474.03	79.58
474.21	35.11
474.39	0.00
474.57	18.72
474.75	9.36
474.93	74.90
475.12	7.02
475.30	0.00
475.48	86.60
475.66	4.68
475.84	35.11
476.02	0.00
476.20	0.00
476.38	35.11
476.56	70.22
476.74	0.00
476.92	30.43
477.10	0.00
477.28	0.00
477.46	25.75
477.64	56.17
477.82	14.04
478.00	9.36
478.18	46.81
478.36	51.49
478.54	18.72
478.72	0.00
478.90	37.45
479.08	63.19
479.26	32.77
479.44	0.00
479.62	0.00
479.80	56.17
479.98	0.00
480.16	0.00
480.34	65.54
480.52	7.02
480.70	74.90
480.88	14.04
481.06	0.00
481.24	39.79
481.41	18.72
481.59	7.02
481.77	28.09
481.95	0.00
482.13	65.54
482.31	86.60
482.49	44.47
482.67	39.79
482.85	67.88
483.03	18.72
483.21	95.96
483.39	23.41
483.57	23.41
483.74	84.26
483.92	131.07
484.10	0.00
484.28	63.19
484.46	140.43
484.64	88.94
484.82	72.56
485.00	46.81
485.18	51.49
485.35	51.49
485.53	0.00
485.71	28.09
485.89	7.02
486.07	28.09
486.25	86.60
486.43	23.41
486.61	110.01
486.78	84.26
486.96	51.49
487.14	37.45
487.32	114.69
487.50	117.03
487.68	74.90
487.85	0.00
488.03	70.22
488.21	138.09
488.39	77.24
488.57	32.77
488.75	63.19
488.92	461.09
489.10	142.77
489.28	117.03
489.46	128.73
489.64	163.84
489.81	86.60
489.99	84.26
490.17	187.24
490.35	224.69
490.53	98.30
490.70	107.66
490.88	145.11
491.06	91.28
491.24	117.03
491.41	248.10
491.59	147.45
491.77	93.62
491.95	107.66
492.13	98.30
492.30	117.03
492.48	159.16
492.66	203.63
492.84	124.05
493.01	210.65
493.19	117.03
493.37	184.90
493.54	222.35
493.72	227.03
493.90	147.45
494.08	182.56
494.25	131.07
494.43	88.94
494.61	159.16
494.79	227.03
494.96	100.64
495.14	187.24
495.32	189.58
495.49	173.20
495.67	159.16
495.85	227.03
496.02	175.54
496.20	208.31
496.38	196.60
496.55	121.71
496.73	168.52
496.91	154.48
497.09	175.54
497.26	131.07
497.44	154.48
497.62	203.63
497.79	119.37
497.97	180.22
498.14	220.01
498.32	210.65
498.50	173.20
498.67	177.88
498.85	248.10
499.03	180.22
499.20	175.54
499.38	231.71
499.56	191.92
499.73	234.05
499.91	238.73
500.08	224.69
500.26	102.98
500.44	102.98
500.61	238.73
500.79	159.16
500.97	222.35
501.14	208.31
501.32	166.18
501.49	203.63
501.67	140.43
501.84	196.60
502.02	198.95
502.20	196.60
502.37	196.60
502.55	262.14
502.72	161.50
502.90	264.48
503.07	217.67
503.25	145.11
503.43	201.29
503.60	163.84
503.78	191.92
503.95	140.43
504.13	133.41
504.30	269.16
504.48	250.44
504.65	191.92
504.83	236.39
505.01	121.71
505.18	198.95
505.36	271.50
505.53	273.84
505.71	222.35
505.88	238.73
506.06	210.65
506.23	180.22
506.41	201.29
506.58	220.01
506.76	175.54
506.93	238.73
507.11	266.82
507.28	133.41
507.46	217.67
507.63	212.99
507.81	224.69
507.98	245.76
508.16	201.29
508.33	175.54
508.50	236.39
508.68	212.99
508.85	311.29
509.03	189.58
509.20	250.44
509.38	318.31
509.55	301.93
509.73	243.42
509.90	255.12
510.08	245.76
510.25	236.39
510.42	248.10
510.60	147.45
510.77	252.78
510.95	301.93
511.12	344.06
511.30	276.18
511.47	224.69
511.64	297.25
511.82	276.18
511.99	245.76
512.17	236.39
512.34	161.50
512.51	234.05
512.69	220.01
512.86	369.80
513.04	229.37
513.21	212.99
513.38	262.14
513.56	271.50
513.73	196.60
513.90	220.01
514.08	245.76
514.25	334.70
514.43	234.05
514.60	269.16
514.77	220.01
514.95	269.16
515.12	241.08
515.29	252.78
515.47	227.03
515.64	278.52
515.81	210.65
515.99	320.65
516.16	292.57
516.33	191.92
516.51	259.80
516.68	135.75
516.85	168.52
517.03	177.88
517.20	278.52
517.37	308.95
517.54	278.52
517.72	266.82
517.89	201.29
518.06	222.35
518.24	264.48
518.41	332.36
518.58	283.20
518.75	266.82
518.93	276.18
519.10	280.86
519.27	208.31
519.45	283.20
519.62	315.97
519.79	285.55
519.96	203.63
520.14	264.48
520.31	262.14
520.48	299.59
520.65	255.12
520.83	318.31
521.00	262.14
521.17	203.63
521.34	271.50
521.52	276.18
521.69	245.76
521.86	280.86
522.03	271.50
522.20	325.33
522.38	210.65
522.55	238.73
522.72	224.69
522.89	250.44
523.07	266.82
523.24	241.08
523.41	297.25
523.58	266.82
523.75	273.84
523.92	353.42
524.10	271.50
524.27	397.89
524.44	271.50
524.61	330.02
524.78	243.42
524.96	278.52
525.13	327.68
525.30	341.72
525.47	327.68
525.64	339.38
525.81	266.82
525.98	231.71
526.16	276.18
526.33	163.84
526.50	161.50
526.67	180.22
526.84	297.25
527.01	325.33
527.18	234.05
527.36	238.73
527.53	294.91
527.70	367.46
527.87	304.27
528.04	362.78
528.21	278.52
528.38	301.93
528.55	308.95
528.72	341.72
528.89	346.40
529.07	348.74
529.24	280.86
529.41	311.29
529.58	367.46
529.75	271.50
529.92	311.29
530.09	353.42
530.26	400.23
530.43	351.08
530.60	348.74
530.77	311.29
530.94	369.80
531.11	283.20
531.28	315.97
531.46	322.99
531.63	341.72
531.80	299.59
531.97	234.05
532.14	271.50
532.31	306.61
532.48	372.15
532.65	320.65
532.82	229.37
532.99	294.91
533.16	280.86
533.33	294.91
533.50	337.04
533.67	292.57
533.84	299.59
534.01	294.91
534.18	271.50
534.35	337.04
534.52	372.15
534.69	365.12
534.86	334.70
535.03	320.65
535.20	266.82
535.37	372.15
535.54	346.40
535.71	313.63
535.88	374.49
536.05	306.61
536.22	318.31
536.38	339.38
536.55	337.04
536.72	372.15
536.89	283.20
537.06	339.38
537.23	269.16
537.40	395.55
537.57	255.12
537.74	358.10
537.91	280.86
538.08	341.72
538.25	416.62
538.42	311.29
538.59	332.36
538.75	308.95
538.92	327.68
539.09	341.72
539.26	337.04
539.43	294.91
539.60	276.18
539.77	320.65
539.94	269.16
540.11	266.82
540.28	330.02
540.44	411.93
540.61	322.99
540.78	299.59
540.95	362.78
541.12	325.33
541.29	287.89
541.46	421.30
541.62	362.78
541.79	292.57
541.96	294.91
542.13	341.72
542.30	339.38
542.47	330.02
542.63	315.97
542.80	271.50
542.97	257.46
543.14	231.71
543.31	372.15
543.48	297.25
543.64	358.10
543.81	400.23
543.98	304.27
544.15	229.37
544.32	332.36
544.48	388.53
544.65	330.02
544.82	280.86
544.99	418.96
545.16	337.04
545.32	259.80
545.49	344.06
545.66	325.33
545.83	318.31
546.00	351.08
546.16	266.82
546.33	332.36
546.50	351.08
546.67	351.08
546.83	360.44
547.00	322.99
547.17	266.82
547.34	222.35
547.50	320.65
547.67	315.97
547.84	315.97
548.00	290.23
548.17	383.85
548.34	252.78
548.51	348.74
548.67	362.78
548.84	369.80
549.01	276.18
549.18	372.15
549.34	369.80
549.51	313.63
549.68	376.83
549.84	306.61
550.01	353.42
550.18	486.83
550.34	442.36
550.51	325.33
550.68	360.44
550.84	332.36
551.01	332.36
551.18	327.68
551.34	311.29
551.51	393.21
551.68	411.93
551.84	393.21
552.01	339.38
552.18	325.33
552.34	318.31
552.51	360.44
552.68	325.33
552.84	315.97
553.01	318.31
553.18	388.53
553.34	322.99
553.51	383.85
553.67	245.76
553.84	341.72
554.01	346.40
554.17	273.84
554.34	346.40
554.51	379.17
554.67	435.34
554.84	456.40
555.00	308.95
555.17	299.59
555.33	367.46
555.50	259.80
555.67	374.49
555.83	344.06
556.00	320.65
556.16	552.37
556.33	311.29
556.50	334.70
556.66	351.08
556.83	320.65
556.99	285.55
557.16	358.10
557.32	278.52
557.49	306.61
557.65	353.42
557.82	334.70
557.98	220.01
558.15	276.18
558.32	224.69
558.48	252.78
558.65	273.84
558.81	299.59
558.98	259.80
559.14	341.72
559.31	299.59
559.47	330.02
559.64	280.86
559.80	341.72
559.97	245.76
560.13	353.42
560.30	294.91
560.46	367.46
560.63	421.30
560.79	348.74
560.96	341.72
561.12	353.42
561.29	330.02
561.45	311.29
561.61	287.89
561.78	411.93
561.94	285.55
562.11	231.71
562.27	273.84
562.44	285.55
562.60	304.27
562.77	294.91
562.93	346.40
563.10	372.15
563.26	320.65
563.42	341.72
563.59	264.48
563.75	290.23
563.92	231.71
564.08	330.02
564.24	435.34
564.41	482.15
564.57	322.99
564.74	330.02
564.90	374.49
565.07	376.83
565.23	318.31
565.39	325.33
565.56	315.97
565.72	255.12
565.88	346.40
566.05	276.18
566.21	280.86
566.38	332.36
566.54	327.68
566.70	322.99
566.87	365.12
567.03	339.38
567.19	311.29
567.36	414.27
567.52	280.86
567.68	341.72
567.85	386.19
568.01	220.01
568.17	243.42
568.34	280.86
568.50	344.06
568.66	304.27
568.83	365.12
568.99	234.05
569.15	308.95
569.32	299.59
569.48	234.05
569.64	212.99
569.81	294.91
569.97	341.72
570.13	348.74
570.30	301.93
570.46	287.89
570.62	313.63
570.78	287.89
570.95	285.55
571.11	341.72
571.27	344.06
571.43	245.76
571.60	383.85
571.76	292.57
571.92	255.12
572.09	266.82
572.25	322.99
572.41	250.44
572.57	299.59
572.74	376.83
572.90	292.57
573.06	351.08
573.22	320.65
573.38	337.04
573.55	290.23
573.71	337.04
573.87	372.15
574.03	304.27
574.20	273.84
574.36	322.99
574.52	304.27
574.68	269.16
574.84	341.72
575.01	334.70
575.17	327.68
575.33	325.33
575.49	325.33
575.65	358.10
575.82	278.52
575.98	365.12
576.14	351.08
576.30	341.72
576.46	327.68
576.62	344.06
576.79	355.76
576.95	355.76
577.11	287.89
577.27	304.27
577.43	346.40
577.59	273.84
577.75	325.33
577.92	280.86
578.08	351.08
578.24	294.91
578.40	287.89
578.56	376.83
578.72	322.99
578.88	358.10
579.04	266.82
579.21	367.46
579.37	257.46
579.53	283.20
579.69	337.04
579.85	217.67
580.01	330.02
580.17	308.95
580.33	264.48
580.49	287.89
580.65	278.52
580.82	285.55
580.98	259.80
581.14	250.44
581.30	290.23
581.46	266.82
581.62	367.46
581.78	308.95
581.94	327.68
582.10	255.12
582.26	294.91
582.42	330.02
582.58	351.08
582.74	287.89
582.90	362.78
583.06	264.48
583.22	311.29
583.38	294.91
583.54	271.50
583.70	325.33
583.86	379.17
584.02	320.65
584.18	351.08
584.34	308.95
584.50	299.59
584.66	337.04
584.82	362.78
584.98	372.15
585.14	311.29
585.30	285.55
585.46	292.57
585.62	252.78
585.78	318.31
585.94	292.57
586.10	351.08
586.26	332.36
586.42	358.10
586.58	337.04
586.74	245.76
586.90	318.31
587.06	290.23
587.22	245.76
587.38	191.92
587.54	348.74
587.70	259.80
587.86	301.93
588.02	241.08
588.18	259.80
588.34	231.71
588.49	203.63
588.65	280.86
588.81	184.90
588.97	117.03
589.13	205.97
589.29	234.05
589.45	248.10
589.61	264.48
589.77	255.12
589.93	255.12
590.08	215.33
590.24	311.29
590.40	278.52
590.56	290.23
590.72	304.27
590.88	283.20
591.04	294.91
591.20	250.44
591.35	301.93
591.51	276.18
591.67	259.80
591.83	294.91
591.99	318.31
592.15	297.25
592.31	231.71
592.46	238.73
592.62	299.59
592.78	241.08
592.94	287.89
593.10	320.65
593.26	276.18
593.41	271.50
593.57	402.57
593.73	245.76
593.89	341.72
594.05	252.78
594.20	234.05
594.36	257.46
594.52	241.08
594.68	166.18
594.84	290.23
594.99	344.06
595.15	269.16
595.31	301.93
595.47	203.63
595.62	252.78
595.78	327.68
595.94	280.86
596.10	271.50
596.25	339.38
596.41	304.27
596.57	299.59
596.73	334.70
596.88	250.44
597.04	341.72
597.20	280.86
597.36	236.39
597.51	306.61
597.67	231.71
597.83	234.05
597.99	334.70
598.14	271.50
598.30	327.68
598.46	285.55
598.61	266.82
598.77	315.97
598.93	231.71
599.09	255.12
599.24	297.25
599.40	271.50
599.56	241.08
599.71	299.59
599.87	257.46
600.03	276.18
600.18	194.26
600.34	304.27
600.50	287.89
600.65	238.73
600.81	325.33
600.97	266.82
601.12	330.02
601.28	297.25
601.44	259.80
601.59	224.69
601.75	224.69
601.91	299.59
602.06	266.82
602.22	372.15
602.37	234.05
602.53	304.27
602.69	308.95
602.84	241.08
603.00	276.18
603.16	334.70
603.31	304.27
603.47	308.95
603.62	191.92
603.78	255.12
603.94	238.73
604.09	297.25
604.25	264.48
604.40	299.59
604.56	257.46
604.71	248.10
604.87	325.33
605.03	346.40
605.18	231.71
605.34	308.95
605.49	234.05
605.65	269.16
605.80	243.42
605.96	283.20
606.12	269.16
606.27	257.46
606.43	243.42
606.58	313.63
606.74	322.99
606.89	215.33
607.05	243.42
607.20	215.33
607.36	222.35
607.51	187.24
607.67	238.73
607.82	304.27
607.98	318.31
608.13	280.86
608.29	276.18
608.44	215.33
608.60	203.63
608.75	339.38
608.91	201.29
609.06	308.95
609.22	264.48
609.37	292.57
609.53	222.35
609.68	222.35
609.84	152.13
609.99	166.18
610.15	187.24
610.30	220.01
610.46	290.23
610.61	198.95
610.76	196.60
610.92	215.33
611.07	271.50
611.23	245.76
611.38	236.39
611.54	217.67
611.69	243.42
611.84	88.94
612.00	227.03
612.15	259.80
612.31	252.78
612.46	196.60
612.62	184.90
612.77	301.93
612.92	278.52
613.08	278.52
613.23	287.89
613.39	229.37
613.54	166.18
613.69	149.79
613.85	245.76
614.00	182.56
614.15	337.04
614.31	189.58
614.46	278.52
614.62	257.46
614.77	252.78
614.92	177.88
615.08	238.73
615.23	250.44
615.38	173.20
615.54	205.97
615.69	252.78
615.84	156.82
616.00	201.29
616.15	161.50
616.30	285.55
616.46	147.45
616.61	255.12
616.76	234.05
616.92	159.16
617.07	166.18
617.22	252.78
617.37	168.52
617.53	236.39
617.68	276.18
617.83	217.67
617.99	198.95
618.14	266.82
618.29	243.42
618.45	220.01
618.60	212.99
618.75	156.82
618.90	184.90
619.06	212.99
619.21	250.44
619.36	327.68
619.51	229.37
619.67	177.88
619.82	163.84
619.97	210.65
620.12	262.14
620.28	280.86
620.43	205.97
620.58	182.56
620.73	222.35
620.89	201.29
621.04	248.10
621.19	149.79
621.34	191.92
621.49	198.95
621.65	217.67
621.80	231.71
621.95	180.22
622.10	196.60
622.25	194.26
622.41	227.03
622.56	170.86
622.71	184.90
622.86	224.69
623.01	205.97
623.16	152.13
623.32	86.60
623.47	159.16
623.62	100.64
623.77	210.65
623.92	177.88
624.07	149.79
624.23	128.73
624.38	128.73
624.53	208.31
624.68	201.29
624.83	212.99
624.98	210.65
625.13	74.90
625.29	138.09
625.44	117.03
625.59	98.30
625.74	135.75
625.89	166.18
626.04	156.82
626.19	138.09
626.34	117.03
626.49	128.73
626.65	198.95
626.80	203.63
626.95	215.33
627.10	133.41
627.25	95.96
627.40	67.88
627.55	142.77
627.70	135.75
627.85	201.29
628.00	198.95
628.15	147.45
628.30	173.20
628.45	205.97
628.60	166.18
628.76	238.73
628.91	102.98
629.06	189.58
629.21	163.84
629.36	184.90
629.51	191.92
629.66	166.18
629.81	95.96
629.96	212.99
630.11	133.41
630.26	135.75
630.41	182.56
630.56	110.01
630.71	159.16
630.86	84.26
631.01	142.77
631.16	196.60
631.31	198.95
631.46	220.01
631.61	203.63
631.76	128.73
631.91	138.09
632.06	229.37
632.21	119.37
632.36	198.95
632.51	194.26
632.66	201.29
632.81	72.56
632.96	201.29
633.10	159.16
633.25	243.42
633.40	201.29
633.55	124.05
633.70	121.71
633.85	170.86
634.00	135.75
634.15	154.48
634.30	156.82
634.45	138.09
634.60	161.50
634.75	145.11
634.90	121.71
635.05	194.26
635.19	114.69
635.34	77.24
635.49	84.26
635.64	163.84
635.79	161.50
635.94	98.30
636.09	105.32
636.24	124.05
636.39	145.11
636.53	124.05
636.68	145.11
636.83	133.41
636.98	189.58
637.13	30.43
637.28	170.86
637.43	189.58
637.57	152.13
637.72	180.22
637.87	177.88
638.02	184.90
638.17	133.41
638.32	117.03
638.46	156.82
638.61	191.92
638.76	126.39
638.91	95.96
639.06	142.77
639.20	133.41
639.35	184.90
639.50	166.18
639.65	168.52
639.80	154.48
639.94	126.39
640.09	159.16
640.24	257.46
640.39	128.73
640.54	189.58
640.68	114.69
640.83	156.82
640.98	117.03
641.13	189.58
641.27	168.52
641.42	86.60
641.57	269.16
641.72	175.54
641.86	152.13
642.01	121.71
642.16	110.01
642.31	168.52
642.45	243.42
642.60	168.52
642.75	100.64
642.90	166.18
643.04	140.43
643.19	58.51
643.34	100.64
643.48	117.03
643.63	149.79
643.78	175.54
643.93	234.05
644.07	142.77
644.22	81.92
644.37	215.33
644.51	182.56
644.66	191.92
644.81	142.77
644.95	175.54
645.10	128.73
645.25	180.22
645.39	184.90
645.54	173.20
645.69	203.63
645.83	121.71
645.98	147.45
646.13	105.32
646.27	163.84
646.42	77.24
646.57	0.00
646.71	154.48
646.86	124.05
647.00	135.75
647.15	91.28
647.30	102.98
647.44	100.64
647.59	135.75
647.74	138.09
647.88	117.03
648.03	145.11
648.17	117.03
648.32	98.30
648.47	112.35
648.61	72.56
648.76	98.30
648.90	0.00
649.05	95.96
649.20	70.22
649.34	39.79
649.49	58.51
649.63	84.26
649.78	70.22
649.92	184.90
650.07	168.52
650.21	117.03
650.36	177.88
650.51	93.62
650.65	205.97
650.80	51.49
650.94	86.60
651.09	112.35
651.23	110.01
651.38	0.00
651.52	60.85
651.67	95.96
651.81	110.01
651.96	194.26
652.10	93.62
652.25	180.22
652.39	100.64
652.54	98.30
652.68	107.66
652.83	149.79
652.97	30.43
653.12	81.92
653.26	168.52
653.41	156.82
653.55	140.43
653.70	86.60
653.84	53.83
653.99	161.50
654.13	86.60
654.27	91.28
654.42	2.34
654.56	163.84
654.71	234.05
654.85	91.28
655.00	117.03
655.14	117.03
655.29	58.51
655.43	133.41
655.57	18.72
655.72	0.00
655.86	25.75
656.01	84.26
656.15	0.00
656.30	117.03
656.44	74.90
656.58	37.45
656.73	84.26
656.87	28.09
657.01	49.15
657.16	110.01
657.30	135.75
657.45	98.30
657.59	42.13
657.73	46.81
657.88	88.94
658.02	163.84
658.16	63.19
658.31	53.83
658.45	65.54
658.60	121.71
658.74	110.01
658.88	58.51
659.03	32.77
659.17	63.19
659.31	88.94
659.46	175.54
659.60	88.94
659.74	51.49
659.89	0.00
660.03	30.43
660.17	131.07
660.32	154.48
660.46	14.04
660.60	18.72
660.74	56.17
660.89	95.96
661.03	32.77
661.17	74.90
661.32	44.47
661.46	91.28
661.60	105.32
661.74	81.92
661.89	77.24
662.03	105.32
662.17	46.81
662.31	11.70
662.46	7.02
662.60	88.94
662.74	128.73
662.88	81.92
663.03	86.60
663.17	67.88
663.31	32.77
663.45	30.43
663.60	58.51
663.74	110.01
663.88	53.83
664.02	84.26
664.17	28.09
664.31	105.32
664.45	93.62
664.59	121.71
664.73	124.05
664.88	170.86
665.02	58.51
665.16	7.02
665.30	100.64
665.44	84.26
665.59	60.85
665.73	72.56
665.87	30.43
666.01	28.09
666.15	100.64
666.29	53.83
666.44	131.07
666.58	72.56
666.72	11.70
666.86	60.85
667.00	72.56
667.14	35.11
667.28	154.48
667.43	72.56
667.57	114.69
667.71	67.88
667.85	32.77
667.99	60.85
668.13	72.56
668.27	112.35
668.41	98.30
668.56	93.62
668.70	63.19
668.84	0.00
668.98	39.79
669.12	9.36
669.26	154.48
669.40	110.01
669.54	138.09
669.68	175.54
669.82	112.35
669.96	70.22
670.10	42.13
670.25	133.41
670.39	117.03
670.53	58.51
670.67	37.45
670.81	67.88
670.95	117.03
671.09	93.62
671.23	147.45
671.37	74.90
671.51	28.09
671.65	72.56
671.79	32.77
671.93	18.72
672.07	170.86
672.21	53.83
672.35	46.81
672.49	28.09
672.63	77.24
672.77	14.04
672.91	44.47
673.05	9.36
673.19	7.02
673.33	11.70
673.47	79.58
673.61	32.77
673.75	0.00
673.89	0.00
674.03	95.96
674.17	93.62
674.31	70.22
674.45	121.71
674.59	46.81
674.73	23.41
674.87	32.77
675.01	28.09
675.15	51.49
675.29	91.28
675.43	37.45
675.56	159.16
675.70	0.00
675.84	0.00
675.98	46.81
676.12	23.41
676.26	42.13
676.40	0.00
676.54	0.00
676.68	16.38
676.82	46.81
676.96	0.00
677.10	4.68
677.23	4.68
677.37	0.00
677.51	0.00
677.65	42.13
677.79	2.34
677.93	0.00
678.07	0.00
678.21	58.51
678.34	0.00
678.48	16.38
678.62	77.24
678.76	0.00
678.90	23.41
679.04	28.09
679.18	0.00
679.31	0.00
679.45	51.49
679.59	53.83
679.73	25.75
679.87	0.00
680.00	51.49
680.14	0.00
680.28	51.49
680.42	0.00
680.56	0.00
680.70	53.83
680.83	0.00
680.97	0.00
681.11	0.00
681.25	30.43
681.39	0.00
681.52	18.72
681.66	63.19
681.80	14.04
681.94	0.00
682.07	28.09
682.21	84.26
682.35	39.79
682.49	0.00
682.62	0.00
682.76	0.00
682.90	0.00
683.04	0.00
683.17	0.00
683.31	0.00
683.45	0.00
683.59	44.47
683.72	0.00
683.86	9.36
684.00	0.00
684.13	25.75
684.27	0.00
684.41	0.00
684.55	4.68
684.68	0.00
684.82	0.00
684.96	0.00
685.09	0.00
685.23	0.00
685.37	7.02
685.50	0.00
685.64	23.41
685.78	0.00
685.91	0.00
686.05	0.00
686.19	0.00
686.32	0.00
686.46	0.00
686.60	0.00
686.73	0.00
686.87	0.00
687.01	0.00
687.14	0.00
687.28	0.00
687.42	0.00
687.55	0.00
687.69	0.00
687.82	0.00
687.96	0.00
688.10	0.00
688.23	0.00
688.37	0.00
688.50	2.34
688.64	0.00
688.78	0.00
688.91	0.00
689.05	0.00
689.18	0.00
689.32	0.00
689.46	0.00
689.59	0.00
689.73	0.00
689.86	0.00
690.00	0.00
690.13	0.00
690.27	0.00
690.41	0.00
690.54	0.00
690.68	0.00
690.81	0.00
690.95	0.00
691.08	0.00
691.22	0.00
691.35	0.00
691.49	0.00
691.62	0.00
691.76	0.00
691.89	0.00
692.03	0.00
692.16	0.00
692.30	0.00
692.43	0.00
692.57	0.00
692.70	0.00
692.84	0.00
692.97	0.00
693.11	0.00
693.24	0.00
693.38	0.00
693.51	0.00
693.65	0.00
693.78	0.00
693.92	0.00
694.05	0.00
694.19	0.00
694.32	0.00
694.45	0.00
694.59	0.00
694.72	0.00
694.86	0.00
694.99	0.00
695.13	0.00
695.26	0.00
695.39	0.00
695.53	0.00
695.66	0.00
695.80	0.00
695.93	0.00
696.07	0.00
696.20	0.00
696.33	0.00
696.47	0.00
696.60	0.00
696.73	0.00
696.87	0.00
697.00	7.02
697.14	0.00
697.27	0.00
697.40	77.24
697.54	0.00
697.67	0.00
697.80	0.00
697.94	0.00
698.07	0.00
698.21	0.00
698.34	0.00
698.47	0.00
698.61	0.00
698.74	0.00
698.87	0.00
699.01	0.00
699.14	0.00
699.27	0.00
699.40	0.00
699.54	0.00
699.67	0.00
699.80	0.00
699.94	0.00
700.07	0.00
700.20	0.00
700.34	0.00
700.47	0.00
700.60	0.00
700.73	0.00
700.87	0.00
701.00	0.00
701.13	0.00
701.26	0.00
701.40	0.00
701.53	0.00
701.66	0.00
701.79	0.00
701.93	0.00
702.06	0.00
702.19	0.00
702.32	0.00
702.46	0.00
702.59	0.00
702.72	0.00
702.85	0.00
702.99	0.00
703.12	0.00
703.25	0.00
703.38	0.00
703.51	0.00
703.65	0.00
703.78	0.00
703.91	0.00
704.04	0.00
704.17	0.00
704.31	0.00
704.44	0.00
704.57	0.00
704.70	0.00
704.83	0.00
704.96	0.00
705.10	0.00
705.23	0.00
>>>>>End Processed Spectral Data<<<<<
