SpectraSuite Data File
++++++++++++++++++++++++++++++++++++
Date: Mon Oct 07 15:01:07 GMT-05:00 2013
User: price-jones
Dark Spectrum Present: No
Reference Spectrum Present: No
Number of Sampled Component Spectra: 1
Spectrometers: USB2+H05261
Integration Time (usec): 10000000 (USB2+H05261)
Spectra Averaged: 1 (USB2+H05261)
Boxcar Smoothing: 0 (USB2+H05261)
Correct for Electrical Dark: No (USB2+H05261)
Strobe/Lamp Enabled: No (USB2+H05261)
Correct for Detector Non-linearity: No (USB2+H05261)
Correct for Stray Light: No (USB2+H05261)
Number of Pixels in Processed Spectrum: 2048
>>>>>Begin Processed Spectral Data<<<<<
365.73	0.00
365.92	0.00
366.12	0.00
366.32	0.00
366.52	0.00
366.72	5706.23
366.91	3038.02
367.11	5549.41
367.31	4835.55
367.51	5764.74
367.70	6494.99
367.90	8891.70
368.10	6164.97
368.30	6504.35
368.49	3433.57
368.69	8152.09
368.89	5647.71
369.09	3616.13
369.28	5245.14
369.48	3185.47
369.68	4521.92
369.87	5914.53
370.07	3922.74
370.27	8952.55
370.47	6136.88
370.66	4767.67
370.86	7108.21
371.06	10307.72
371.25	12751.24
371.45	5357.49
371.65	8973.61
371.84	4561.70
372.04	3740.18
372.24	6242.21
372.44	4990.02
372.63	6932.67
372.83	11246.27
373.03	5816.23
373.22	4463.40
373.42	4919.81
373.62	5675.80
373.81	7005.22
374.01	9043.83
374.21	8620.19
374.40	5481.53
374.60	9460.45
374.79	5724.95
374.99	5423.02
375.19	6686.91
375.38	7529.50
375.58	6394.34
375.78	8938.51
375.97	7899.31
376.17	12884.65
376.37	5748.36
376.56	7290.77
376.76	4690.43
376.95	4667.03
377.15	7864.20
377.35	7255.66
377.54	7211.19
377.74	4772.35
377.93	5067.26
378.13	6827.34
378.33	8884.67
378.52	5994.11
378.72	9097.66
378.91	8280.82
379.11	5224.08
379.31	5359.83
379.50	3822.09
379.70	8786.37
379.89	8753.60
380.09	5139.82
380.28	3927.42
380.48	6092.41
380.68	4664.69
380.87	3847.84
381.07	6745.42
381.26	9329.38
381.46	4070.19
381.65	7566.95
381.85	5254.50
382.04	7943.78
382.24	7438.22
382.43	5685.16
382.63	4358.08
382.83	5420.68
383.02	8746.58
383.22	9893.44
383.41	4461.06
383.61	6396.68
383.80	9490.87
384.00	6005.81
384.19	5219.39
384.39	6338.17
384.58	5446.43
384.78	7274.38
384.97	6726.70
385.17	5966.03
385.36	5172.58
385.56	8257.41
385.75	3789.33
385.95	5914.53
386.14	8180.17
386.34	5179.61
386.53	6731.38
386.72	4964.28
386.92	9788.12
387.11	7304.81
387.31	7494.40
387.50	4631.92
387.70	3971.89
387.89	6263.27
388.09	4662.35
388.28	4154.45
388.48	4056.15
388.67	8355.71
388.86	5799.85
389.06	5575.16
389.25	7033.31
389.45	6551.16
389.64	5877.09
389.84	9109.36
390.03	7440.56
390.22	6520.73
390.42	5540.05
390.61	4280.84
390.81	3747.20
391.00	6136.88
391.19	8662.32
391.39	5673.46
391.58	7702.70
391.78	6099.44
391.97	6705.63
392.16	4173.18
392.36	9673.43
392.55	9039.15
392.75	5956.66
392.94	4936.19
393.13	7906.33
393.33	4189.56
393.52	5125.77
393.71	10003.45
393.91	6197.74
394.10	4173.18
394.29	4873.00
394.49	4896.40
394.68	6918.62
394.88	9018.08
395.07	8802.75
395.26	6272.64
395.46	6097.10
395.65	8676.37
395.84	7246.30
396.04	15026.24
396.23	6094.76
396.42	4968.96
396.62	7023.95
396.81	7145.66
397.00	6356.90
397.19	6717.34
397.39	5518.98
397.58	9736.63
397.77	5451.11
397.97	6195.40
398.16	5989.43
398.35	8058.46
398.55	4648.30
398.74	6265.61
398.93	8816.80
399.12	5366.85
399.32	7688.66
399.51	5881.77
399.70	7976.55
399.90	7267.36
400.09	7356.30
400.28	9069.58
400.47	5568.13
400.67	8456.36
400.86	6389.66
401.05	7878.24
401.24	8971.27
401.44	8135.70
401.63	8205.92
401.82	9240.44
402.01	4765.33
402.21	6998.20
402.40	7016.93
402.59	5579.84
402.78	5561.11
402.97	5893.47
403.17	6656.48
403.36	7169.06
403.55	5912.19
403.74	5621.97
403.93	6099.44
404.13	9397.25
404.32	5130.45
404.51	5420.68
404.70	8655.30
404.89	5984.75
405.09	11843.11
405.28	6616.69
405.47	4526.60
405.66	7978.89
405.85	9013.40
406.05	6600.31
406.24	6176.67
406.43	7293.11
406.62	7873.56
406.81	13319.99
407.00	9221.71
407.20	6853.09
407.39	6307.74
407.58	5685.16
407.77	7911.01
407.96	10274.95
408.15	8896.38
408.34	7948.46
408.54	7473.33
408.73	7110.55
408.92	6663.51
409.11	8772.33
409.30	9778.76
409.49	5151.52
409.68	6153.27
409.87	7241.62
410.07	5219.39
410.26	7054.37
410.45	6307.74
410.64	5458.13
410.83	6630.74
411.02	5748.36
411.21	8418.91
411.40	8821.48
411.59	6406.05
411.78	5839.64
411.98	6944.37
412.17	5128.11
412.36	5970.71
412.55	6097.10
412.74	8528.91
412.93	11772.89
413.12	5720.27
413.31	9397.25
413.50	7798.66
413.69	6593.29
413.88	10780.51
414.07	7520.14
414.26	7204.17
414.45	5823.25
414.64	7850.16
414.83	8353.37
415.02	7868.88
415.22	8863.61
415.41	10450.49
415.60	5923.90
415.79	6740.74
415.98	10642.42
416.17	7262.68
416.36	7138.63
416.55	5980.07
416.74	8786.37
416.93	10017.49
417.12	6979.48
417.31	6841.39
417.50	6979.48
417.69	12067.80
417.88	7414.82
418.07	5303.65
418.26	6707.98
418.45	6773.51
418.64	11609.06
418.83	8128.68
419.02	7995.27
419.21	7449.93
419.39	7548.23
419.58	5820.91
419.77	5980.07
419.96	9942.60
420.15	11843.11
420.34	7339.92
420.53	8135.70
420.72	9720.24
420.91	8070.17
421.10	7440.56
421.29	8065.49
421.48	8819.14
421.67	9664.07
421.86	6567.54
422.05	7094.16
422.24	7007.56
422.43	8084.21
422.61	5418.34
422.80	6951.39
422.99	7545.89
423.18	6712.66
423.37	11274.36
423.56	8844.88
423.75	9076.60
423.94	5654.73
424.13	7066.08
424.32	6417.75
424.50	6743.08
424.69	7190.13
424.88	11154.99
425.07	6665.85
425.26	8435.29
425.45	9128.09
425.64	6090.07
425.83	6881.18
426.01	10590.92
426.20	8524.23
426.39	6881.18
426.58	6567.54
426.77	7850.16
426.96	8908.08
427.15	8442.31
427.33	6628.40
427.52	7779.94
427.71	7709.72
427.90	8065.49
428.09	6693.93
428.28	5795.17
428.46	6864.79
428.65	9219.37
428.84	6869.47
429.03	11943.75
429.22	6715.00
429.40	5657.07
429.59	5383.23
429.78	10017.49
429.97	7082.46
430.16	6459.88
430.34	6839.05
430.53	6321.79
430.72	6937.35
430.91	10125.16
431.10	5537.71
431.28	7396.09
431.47	9797.48
431.66	8725.52
431.85	6352.21
432.03	7536.52
432.22	14335.78
432.41	7527.16
432.60	11307.13
432.79	6277.32
432.97	7873.56
433.16	6888.20
433.35	6024.54
433.54	6551.16
433.72	9490.87
433.91	9701.52
434.10	6616.69
434.28	8245.71
434.47	7016.93
434.66	10216.44
434.85	7112.89
435.03	8086.55
435.22	12332.28
435.41	13217.01
435.59	9867.70
435.78	8826.16
435.97	6904.58
436.16	10422.41
436.34	7548.23
436.53	9048.51
436.72	11227.55
436.90	9966.00
437.09	9228.73
437.28	8194.22
437.46	7389.07
437.65	9909.83
437.84	9645.35
438.02	9221.71
438.21	9547.05
438.40	6963.09
438.58	6047.94
438.77	8727.86
438.96	8519.55
439.14	6499.67
439.33	10401.34
439.52	7522.48
439.70	8297.20
439.89	10532.41
440.08	8964.25
440.26	8678.71
440.45	12901.03
440.63	9301.29
440.82	8727.86
441.01	8868.29
441.19	8011.65
441.38	8009.31
441.57	8156.77
441.75	11999.93
441.94	11789.28
442.12	8919.78
442.31	8072.51
442.50	8198.90
442.68	8021.02
442.87	8423.59
443.05	8023.36
443.24	9111.71
443.43	10303.04
443.61	12531.23
443.80	8650.62
443.98	7536.52
444.17	8098.25
444.35	11187.76
444.54	8348.69
444.73	8255.07
444.91	12163.76
445.10	6911.60
445.28	7410.14
445.47	9322.35
445.65	8739.56
445.84	7555.25
446.02	8877.65
446.21	7925.05
446.39	8009.31
446.58	9884.08
446.77	7772.92
446.95	8533.59
447.14	10066.64
447.32	13404.25
447.51	8814.46
447.69	9493.21
447.88	9303.63
448.06	13469.78
448.25	9638.33
448.43	7382.05
448.62	6916.28
448.80	9558.75
448.99	10916.26
449.17	7566.95
449.36	7468.65
449.54	11044.99
449.73	7382.05
449.91	10361.55
450.10	8325.29
450.28	16070.12
450.46	14745.38
450.65	11508.41
450.83	9860.68
451.02	8819.14
451.20	9053.19
451.39	8816.80
451.57	8404.86
451.76	8051.44
451.94	8868.29
452.13	10347.51
452.31	12152.06
452.49	10274.95
452.68	6925.65
452.86	9905.15
453.05	14092.37
453.23	9067.24
453.42	6677.55
453.60	8741.90
453.78	10022.17
453.97	7356.30
454.15	7129.27
454.34	7857.18
454.52	7583.34
454.70	12999.34
454.89	11066.05
455.07	7791.64
455.26	10534.75
455.44	11370.32
455.62	8168.47
455.81	9736.63
455.99	10513.69
456.17	10626.03
456.36	8823.82
456.54	8547.64
456.73	8418.91
456.91	8058.46
457.09	10471.56
457.28	12257.39
457.46	9310.65
457.64	11744.81
457.83	8784.03
458.01	8013.99
458.19	9977.70
458.38	8451.67
458.56	10071.33
458.74	7009.90
458.93	10260.91
459.11	11861.84
459.29	7796.32
459.48	11037.97
459.66	14408.34
459.84	11279.04
460.03	20936.09
460.21	11602.04
460.39	8936.17
460.57	12758.26
460.76	10036.22
460.94	9390.23
461.12	14333.44
461.31	13139.77
461.49	9039.15
461.67	8748.92
461.85	10059.62
462.04	8912.76
462.22	35672.10
462.40	10422.41
462.59	12826.14
462.77	8210.60
462.95	10186.01
463.13	7236.94
463.32	11763.53
463.50	9987.07
463.68	10621.35
463.86	9671.09
464.05	8704.45
464.23	12751.24
464.41	11543.52
464.59	8210.60
464.78	8416.57
464.96	7428.86
465.14	10031.54
465.32	8243.37
465.50	10752.42
465.69	11105.84
465.87	7447.58
466.05	11021.58
466.23	7122.25
466.41	8835.52
466.60	8973.61
466.78	9327.03
466.96	12341.64
467.14	10363.89
467.32	12650.60
467.51	10675.18
467.69	11272.02
467.87	14129.81
468.05	9406.61
468.23	15044.96
468.41	12072.48
468.60	9022.77
468.78	10256.23
468.96	12720.81
469.14	10918.60
469.32	7126.93
469.50	7592.70
469.69	10942.00
469.87	9891.10
470.05	9891.10
470.23	9214.69
470.41	7527.16
470.59	8187.19
470.77	10115.80
470.95	9455.76
471.14	12933.80
471.32	9336.40
471.50	13830.23
471.68	9928.55
471.86	10778.17
472.04	8114.64
472.22	10001.11
472.40	7435.88
472.58	8112.30
472.77	7744.83
472.95	9563.43
473.13	15693.29
473.31	13202.96
473.49	7707.38
473.67	8098.25
473.85	11761.19
474.03	11473.31
474.21	10010.47
474.39	13458.08
474.57	14916.23
474.75	10883.49
474.93	8620.19
475.12	7590.36
475.30	8816.80
475.48	9874.72
475.66	9966.00
475.84	9774.08
476.02	9755.35
476.20	12116.95
476.38	10265.59
476.56	17341.03
476.74	9666.41
476.92	9668.75
477.10	10078.35
477.28	12299.52
477.46	9692.16
477.64	11417.13
477.82	10377.94
478.00	9598.54
478.18	10789.87
478.36	10223.46
478.54	8947.87
478.72	9542.36
478.90	9963.66
479.08	11515.44
479.26	10757.10
479.44	9624.28
479.62	8561.68
479.80	9825.57
479.98	8526.57
480.16	9308.31
480.34	12716.13
480.52	9266.18
480.70	12271.43
480.88	9259.16
481.06	8823.82
481.24	9441.72
481.41	10197.71
481.59	12271.43
481.77	10965.41
481.95	10251.55
482.13	15822.02
482.31	10890.51
482.49	9228.73
482.67	12477.40
482.85	12938.48
483.03	12131.00
483.21	11309.47
483.39	9991.75
483.57	10525.39
483.74	15180.71
483.92	10752.42
484.10	9144.47
484.28	13586.81
484.46	18223.41
484.64	10068.98
484.82	11143.29
485.00	10223.46
485.18	11138.61
485.35	11538.84
485.53	8241.03
485.71	14040.87
485.89	7730.79
486.07	9860.68
486.25	18071.28
486.43	12709.11
486.61	12879.97
486.78	12622.51
486.96	9032.13
487.14	10965.41
487.32	10773.49
487.50	10541.77
487.68	13537.66
487.85	9675.77
488.03	13006.36
488.21	15555.20
488.39	11452.24
488.57	13556.38
488.75	10574.54
488.92	36828.33
489.10	12449.31
489.28	17731.90
489.46	10193.03
489.64	12016.31
489.81	12154.40
489.99	14108.75
490.17	11712.04
490.35	20713.74
490.53	11503.73
490.70	10146.22
490.88	14375.57
491.06	11351.60
491.24	13958.96
491.41	16769.94
491.59	13530.64
491.77	10431.77
491.95	10586.24
492.13	10649.44
492.30	12683.36
492.48	11854.81
492.66	12482.08
492.84	10993.50
493.01	13114.02
493.19	11241.59
493.37	17738.92
493.54	14539.41
493.72	13848.95
493.90	11667.57
494.08	11552.88
494.25	14714.95
494.43	13811.50
494.61	11918.01
494.79	11185.42
494.96	10874.13
495.14	14370.89
495.32	12327.60
495.49	13378.50
495.67	13619.58
495.85	12512.50
496.02	11489.69
496.20	15267.31
496.38	14576.86
496.55	13191.26
496.73	14361.53
496.91	11838.43
497.09	15260.29
497.26	13060.19
497.44	12922.10
497.62	12903.37
497.79	13348.08
497.97	14572.18
498.14	14780.48
498.32	14253.86
498.50	14345.14
498.67	12140.36
498.85	13991.72
499.03	12999.34
499.20	13420.63
499.38	13427.65
499.56	13540.00
499.73	18904.51
499.91	15882.88
500.08	16009.26
500.26	13406.59
500.44	12241.00
500.61	14176.62
500.79	12271.43
500.97	15140.93
501.14	17451.03
501.32	14281.95
501.49	17109.32
501.67	13380.84
501.84	14590.90
502.02	11618.42
502.20	19339.85
502.37	15274.34
502.55	13053.17
502.72	13366.80
502.90	15992.88
503.07	14195.35
503.25	14801.55
503.43	11433.52
503.60	12713.79
503.78	14487.92
503.95	13296.58
504.13	12805.07
504.30	15976.50
504.48	16744.19
504.65	17631.26
504.83	16318.22
505.01	12896.35
505.18	14553.45
505.36	13987.04
505.53	13788.10
505.71	12819.11
505.88	17994.04
506.06	13788.10
506.23	13949.59
506.41	12875.29
506.58	15475.62
506.76	14813.25
506.93	13069.55
507.11	15683.93
507.28	12210.57
507.46	12744.22
507.63	14459.83
507.81	12273.77
507.98	14230.46
508.16	13961.30
508.33	14094.71
508.50	15770.53
508.68	14274.93
508.85	14551.11
509.03	13090.62
509.20	13116.36
509.38	15662.86
509.55	16985.27
509.73	16917.39
509.90	17940.21
510.08	12947.84
510.25	16697.38
510.42	12695.07
510.60	14153.22
510.77	16060.76
510.95	17114.00
511.12	13455.74
511.30	16460.99
511.47	16205.87
511.64	19955.41
511.82	13673.41
511.99	14043.21
512.17	13696.82
512.34	12486.76
512.51	13200.62
512.69	13497.87
512.86	17792.75
513.04	14230.46
513.21	14780.48
513.38	13060.19
513.56	13422.97
513.73	13404.25
513.90	12095.89
514.08	12315.90
514.25	14876.44
514.43	15356.25
514.60	12224.62
514.77	13289.56
514.95	15152.63
515.12	12655.28
515.29	15314.13
515.47	14956.02
515.64	14436.42
515.81	14134.50
515.99	18710.24
516.16	15658.18
516.33	16739.51
516.51	12362.71
516.68	11194.78
516.85	12875.29
517.03	13020.40
517.20	15941.39
517.37	15234.55
517.54	16032.67
517.72	13296.58
517.89	11199.46
518.06	12154.40
518.24	20149.67
518.41	19480.28
518.58	16264.38
518.75	12847.20
518.93	14899.85
519.10	14864.74
519.27	13317.65
519.45	15030.92
519.62	14993.47
519.79	15962.45
519.96	12358.03
520.14	15119.86
520.31	18017.44
520.48	14513.66
520.65	15143.27
520.83	16627.17
521.00	16327.58
521.17	17661.68
521.34	14045.55
521.52	15063.69
521.69	14759.42
521.86	14562.81
522.03	16664.61
522.20	19777.53
522.38	13619.58
522.55	15569.24
522.72	12351.01
522.89	17310.60
523.07	20823.75
523.24	14892.83
523.41	14354.51
523.58	14303.01
523.75	14588.56
523.92	13628.94
524.10	15978.84
524.27	15068.37
524.44	14078.32
524.61	18750.03
524.78	14043.21
524.96	16931.44
525.13	15658.18
525.30	18333.42
525.47	17652.32
525.64	15665.21
525.81	15749.46
525.98	15321.15
526.16	13851.29
526.33	13090.62
526.50	12133.34
526.67	11852.47
526.84	12194.19
527.01	12924.44
527.18	15964.79
527.36	15108.16
527.53	13088.28
527.70	18258.52
527.87	14724.31
528.04	20283.08
528.21	13678.09
528.38	18001.06
528.55	18555.77
528.72	19606.67
528.89	21371.43
529.07	15281.36
529.24	15473.28
529.41	20042.01
529.58	15569.24
529.75	14155.56
529.92	17039.10
530.09	15679.25
530.26	17928.50
530.43	16987.61
530.60	15651.16
530.77	15571.58
530.94	17544.66
531.11	16945.48
531.28	14824.95
531.46	13846.61
531.63	15765.85
531.80	16290.13
531.97	16678.66
532.14	14941.98
532.31	15950.75
532.48	15896.92
532.65	15761.17
532.82	12989.97
532.99	14244.50
533.16	15009.86
533.33	15044.96
533.50	14883.47
533.67	13336.37
533.84	16524.18
534.01	15634.78
534.18	14745.38
534.35	15723.72
534.52	16336.94
534.69	21914.44
534.86	15309.44
535.03	14909.21
535.20	14637.71
535.37	18735.99
535.54	16423.54
535.71	15049.64
535.88	19707.31
536.05	14651.75
536.22	17095.27
536.38	14516.00
536.55	15833.72
536.72	18436.40
536.89	13212.32
537.06	14132.15
537.23	13891.08
537.40	14537.07
537.57	13996.40
537.74	17877.01
537.91	17151.45
538.08	15295.40
538.25	16800.37
538.42	14001.08
538.59	15843.09
538.75	14932.62
538.92	15618.39
539.09	17965.95
539.26	14675.16
539.43	19190.05
539.60	15541.16
539.77	16552.27
539.94	14775.80
540.11	16423.54
540.28	19314.10
540.44	19150.26
540.61	14979.43
540.78	14314.72
540.95	13195.94
541.12	20084.14
541.29	14085.34
541.46	19953.07
541.62	16011.60
541.79	13764.69
541.96	13474.46
542.13	14618.99
542.30	13467.44
542.47	17771.69
542.63	14733.67
542.80	16201.19
542.97	18864.72
543.14	15061.35
543.31	16805.05
543.48	15108.16
543.64	16889.31
543.81	15658.18
543.98	13781.07
544.15	12996.99
544.32	14544.09
544.48	15091.77
544.65	14668.14
544.82	13970.66
544.99	14937.30
545.16	18497.25
545.32	14061.94
545.49	16306.51
545.66	15227.53
545.83	13582.13
546.00	12929.12
546.16	14181.31
546.33	14581.54
546.50	15126.88
546.67	18684.50
546.83	17848.93
547.00	15784.57
547.17	13193.60
547.34	13015.72
547.50	15012.20
547.67	15056.67
547.84	13792.78
548.00	17502.53
548.17	14190.67
548.34	14480.89
548.51	20037.33
548.67	18178.94
548.84	14813.25
549.01	16035.01
549.18	16362.69
549.34	16189.49
549.51	15676.91
549.68	16140.33
549.84	15272.00
550.01	12982.95
550.18	31814.90
550.34	23784.52
550.51	15939.05
550.68	20931.41
550.84	14085.34
551.01	15908.62
551.18	17603.17
551.34	15176.03
551.51	14665.80
551.68	14951.34
551.84	17233.36
552.01	13942.57
552.18	14553.45
552.34	15393.70
552.51	15414.77
552.68	16830.79
552.84	14162.58
553.01	15843.09
553.18	17919.14
553.34	14326.42
553.51	12975.93
553.67	16716.11
553.84	21216.96
554.01	17125.70
554.17	17123.36
554.34	13687.45
554.51	16802.71
554.67	18209.37
554.84	17547.00
555.00	16386.09
555.17	15859.47
555.33	17987.02
555.50	15826.70
555.67	16360.34
555.83	12833.16
556.00	15138.58
556.16	37694.33
556.33	16088.84
556.50	15253.27
556.66	15009.86
556.83	13914.48
556.99	14017.47
557.16	15316.47
557.32	13778.73
557.49	13970.66
557.65	13446.38
557.82	13745.97
557.98	15152.63
558.15	13420.63
558.32	14518.34
558.48	13799.80
558.65	13956.61
558.81	16397.79
558.98	13951.93
559.14	16746.53
559.31	15384.34
559.47	16854.20
559.64	13334.03
559.80	17352.73
559.97	12779.32
560.13	14892.83
560.30	12458.67
560.46	13944.91
560.63	14017.47
560.79	15227.53
560.96	15232.21
561.12	13392.55
561.29	15634.78
561.45	14157.90
561.61	14530.05
561.78	26125.06
561.94	14232.80
562.11	13811.50
562.27	15580.95
562.44	12851.88
562.60	14459.83
562.77	14108.75
562.93	22754.69
563.10	15400.72
563.26	14555.79
563.42	17703.81
563.59	15283.70
563.75	13027.42
563.92	18286.61
564.08	15473.28
564.24	17434.65
564.41	20730.12
564.57	12121.63
564.74	13364.46
564.90	15564.56
565.07	16388.43
565.23	16304.17
565.39	13137.43
565.56	15538.82
565.72	12784.01
565.88	14061.94
566.05	13474.46
566.21	13465.10
566.38	15868.83
566.54	14792.19
566.70	13479.15
566.87	12833.16
567.03	11747.15
567.19	14310.04
567.36	15613.71
567.52	13661.71
567.68	15779.89
567.85	15985.86
568.01	13479.15
568.17	12135.68
568.34	13848.95
568.50	17874.67
568.66	12180.15
568.83	23257.90
568.99	12606.13
569.15	16432.90
569.32	13619.58
569.48	13645.32
569.64	12212.92
569.81	14256.20
569.97	12851.88
570.13	15569.24
570.30	13277.86
570.46	13252.11
570.62	13659.37
570.78	13572.77
570.95	11288.40
571.11	18963.02
571.27	19246.23
571.43	11625.44
571.60	15906.28
571.76	12999.34
571.92	13898.10
572.09	13177.22
572.25	13502.55
572.41	14216.41
572.57	13949.59
572.74	19875.83
572.90	16226.93
573.06	14525.36
573.22	15634.78
573.38	17214.64
573.55	16423.54
573.71	16772.28
573.87	15964.79
574.03	12194.19
574.20	13268.50
574.36	17298.90
574.52	12821.45
574.68	13034.44
574.84	15286.04
575.01	13453.40
575.17	15405.41
575.33	13057.85
575.49	16556.95
575.65	16655.25
575.82	16482.05
575.98	20816.72
576.14	13813.84
576.30	13420.63
576.46	13605.53
576.62	14195.35
576.79	15283.70
576.95	17762.33
577.11	12575.70
577.27	11566.93
577.43	17319.96
577.59	17689.77
577.75	14916.23
577.92	13181.90
578.08	12517.18
578.24	11756.51
578.40	16861.22
578.56	17502.53
578.72	17755.30
578.88	15917.98
579.04	12854.22
579.21	14721.97
579.37	13404.25
579.53	12922.10
579.69	16879.94
579.85	11492.03
580.01	15044.96
580.17	12397.82
580.33	12676.34
580.49	14185.99
580.65	14963.04
580.82	13572.77
580.98	12421.22
581.14	12229.30
581.30	17041.44
581.46	13914.48
581.62	16776.96
581.78	12393.14
581.94	15126.88
582.10	11199.46
582.26	13078.91
582.42	12304.20
582.58	14984.11
582.74	12837.84
582.90	13830.23
583.06	14530.05
583.22	14050.24
583.38	12306.54
583.54	11735.45
583.70	17511.89
583.86	14216.41
584.02	13109.34
584.18	17755.30
584.34	12334.62
584.50	13647.66
584.66	12802.73
584.82	11506.07
584.98	13963.64
585.14	12903.37
585.30	16367.37
585.46	13130.41
585.62	11152.65
585.78	12636.55
585.94	14902.19
586.10	13238.07
586.26	13701.50
586.42	18586.19
586.58	14899.85
586.74	13177.22
586.90	13121.04
587.06	14569.83
587.22	13965.98
587.38	11632.46
587.54	12042.06
587.70	16318.22
587.86	15690.95
588.02	12138.02
588.18	14178.97
588.34	14644.73
588.49	9406.61
588.65	11866.52
588.81	11304.79
588.97	9799.82
589.13	11833.75
589.29	12999.34
589.45	16435.24
589.61	13008.70
589.77	16402.47
589.93	12128.66
590.08	11618.42
590.24	10733.70
590.40	12662.30
590.56	15016.88
590.72	12348.67
590.88	10768.80
591.04	13638.30
591.20	11517.78
591.35	17607.85
591.51	12779.32
591.67	10794.55
591.83	12081.85
591.99	14373.23
592.15	15482.64
592.31	13954.27
592.46	12360.37
592.62	15108.16
592.78	11562.25
592.94	11218.19
593.10	11075.42
593.26	10672.84
593.41	14221.10
593.57	12762.94
593.73	11456.92
593.89	14546.43
594.05	12215.26
594.20	11370.32
594.36	16212.89
594.52	11648.85
594.68	11644.17
594.84	15690.95
594.99	17326.99
595.15	14202.37
595.31	14728.99
595.47	17635.94
595.62	12313.56
595.78	12095.89
595.94	12304.20
596.10	15822.02
596.25	13432.33
596.41	15161.99
596.57	11372.66
596.73	11445.22
596.88	12610.81
597.04	13202.96
597.20	11096.48
597.36	13015.72
597.51	11321.17
597.67	11274.36
597.83	11763.53
597.99	15094.11
598.14	13261.48
598.30	16065.44
598.46	11768.21
598.61	15999.90
598.77	13575.11
598.93	11173.72
599.09	12568.68
599.24	13282.54
599.40	16128.63
599.56	12573.36
599.71	12650.60
599.87	12210.57
600.03	12999.34
600.18	12444.63
600.34	13961.30
600.50	11414.79
600.65	10544.11
600.81	15276.68
600.97	11417.13
601.12	12243.34
601.28	16500.78
601.44	12872.95
601.59	10796.89
601.75	12952.52
601.91	11634.80
602.06	13687.45
602.22	22412.97
602.37	13673.41
602.53	11976.52
602.69	13689.79
602.84	10473.90
603.00	11932.05
603.16	14513.66
603.31	14937.30
603.47	13682.77
603.62	9811.53
603.78	12812.09
603.94	13626.60
604.09	12358.03
604.25	14384.93
604.40	14141.52
604.56	11370.32
604.71	12657.62
604.87	11194.78
605.03	12358.03
605.18	13118.70
605.34	15934.37
605.49	12294.83
605.65	11360.96
605.80	9830.25
605.96	12894.01
606.12	13708.52
606.27	15133.90
606.43	12285.47
606.58	14319.40
606.74	12255.04
606.89	12444.63
607.05	14506.64
607.20	12411.86
607.36	13788.10
607.51	10415.38
607.67	12472.71
607.82	12823.80
607.98	16783.98
608.13	13308.29
608.29	11861.84
608.44	15756.49
608.60	12491.44
608.75	15957.77
608.91	14377.91
609.06	15129.22
609.22	14775.80
609.37	10452.83
609.53	11171.38
609.68	11754.17
609.84	9816.21
609.99	10413.04
610.15	13514.25
610.30	13584.47
610.46	15321.15
610.61	13144.45
610.76	11775.24
610.92	13806.82
611.07	10824.98
611.23	20446.92
611.38	14700.90
611.54	10167.29
611.69	10424.75
611.84	11463.94
612.00	10839.02
612.15	10721.99
612.31	11199.46
612.46	10913.92
612.62	9472.15
612.77	15133.90
612.92	13811.50
613.08	15950.75
613.23	13680.43
613.39	11761.19
613.54	10258.57
613.69	10120.48
613.85	10846.04
614.00	11042.65
614.15	11634.80
614.31	10270.27
614.46	13621.92
614.62	10832.00
614.77	15637.12
614.92	9968.34
615.08	12943.16
615.23	12837.84
615.38	11995.25
615.54	10668.16
615.69	11702.68
615.84	9415.98
616.00	11068.39
616.15	10064.30
616.30	11419.47
616.46	11220.53
616.61	9741.31
616.76	13053.17
616.92	12079.50
617.07	10417.72
617.22	10244.52
617.37	10834.34
617.53	12472.71
617.68	11255.64
617.83	11391.39
617.99	14710.27
618.14	16608.44
618.29	14778.14
618.45	11545.86
618.60	10824.98
618.75	10284.31
618.90	8968.93
619.06	12112.27
619.21	17802.11
619.36	15534.14
619.51	10317.08
619.67	10775.83
619.82	10637.73
619.97	12622.51
620.12	13284.88
620.28	12390.80
620.43	11300.11
620.58	12957.21
620.73	12411.86
620.89	11990.56
621.04	12299.52
621.19	17308.26
621.34	10310.06
621.49	9678.12
621.65	12732.51
621.80	9448.74
621.95	10487.94
622.10	12966.57
622.25	8957.23
622.41	9439.38
622.56	11548.20
622.71	12091.21
622.86	14562.81
623.01	10611.99
623.16	15548.18
623.32	9341.08
623.47	12847.20
623.62	10651.78
623.77	11042.65
623.92	10906.90
624.07	10160.27
624.23	10841.36
624.38	9715.56
624.53	11403.09
624.68	13364.46
624.83	15625.42
624.98	11962.48
625.13	10211.76
625.29	9336.40
625.44	10874.13
625.59	11513.10
625.74	12327.60
625.89	15470.94
626.04	8777.01
626.19	10010.47
626.34	10661.14
626.49	12999.34
626.65	9399.59
626.80	10015.15
626.95	12521.87
627.10	8858.93
627.25	11265.00
627.40	9483.85
627.55	12681.02
627.70	9474.49
627.85	12842.52
628.00	10513.69
628.15	9479.17
628.30	11487.35
628.45	8910.42
628.60	10314.74
628.76	10984.13
628.91	9579.81
629.06	11236.91
629.21	10022.17
629.36	13542.34
629.51	8051.44
629.66	11707.36
629.81	9617.26
629.96	11873.54
630.11	12737.20
630.26	11791.62
630.41	9860.68
630.56	11744.81
630.71	8018.68
630.86	9547.05
631.01	8201.24
631.16	9703.86
631.31	15286.04
631.46	14122.79
631.61	10396.66
631.76	11927.37
631.91	10319.42
632.06	12678.68
632.21	12020.99
632.36	11983.54
632.51	10106.43
632.66	10485.60
632.81	9685.14
632.96	10801.57
633.10	11356.28
633.25	15634.78
633.40	11150.31
633.55	11035.63
633.70	9561.09
633.85	10993.50
634.00	7983.57
634.15	9289.59
634.30	11569.27
634.45	10616.67
634.60	9741.31
634.75	8201.24
634.90	8695.09
635.05	10509.01
635.19	10843.70
635.34	9640.67
635.49	11653.53
635.64	9312.99
635.79	9542.36
635.94	11882.90
636.09	12805.07
636.24	11276.70
636.39	10008.13
636.53	12346.33
636.68	8769.99
636.83	10593.26
636.98	13652.34
637.13	9088.30
637.28	11304.79
637.43	15056.67
637.57	11545.86
637.72	14576.86
637.87	11527.14
638.02	8507.85
638.17	9930.89
638.32	12142.70
638.46	10452.83
638.61	15985.86
638.76	8950.21
638.91	9137.45
639.06	8170.81
639.20	14080.66
639.35	12231.64
639.50	9153.84
639.65	15688.61
639.80	9930.89
639.94	12685.70
640.09	15077.73
640.24	13806.82
640.39	11779.92
640.54	10995.84
640.68	10066.64
640.83	13109.34
640.98	9123.41
641.13	9345.76
641.27	8468.06
641.42	8943.19
641.57	13324.67
641.72	10132.18
641.86	10068.98
642.01	9231.07
642.16	12767.62
642.31	9423.00
642.45	15325.83
642.60	13563.40
642.75	9020.42
642.90	13132.75
643.04	9046.17
643.19	9132.77
643.34	9935.57
643.48	10647.10
643.63	9479.17
643.78	14558.13
643.93	15321.15
644.07	9926.21
644.22	9380.87
644.37	7698.02
644.51	12535.91
644.66	11473.31
644.81	9570.45
644.95	13610.22
645.10	8629.56
645.25	8397.84
645.39	13315.31
645.54	8905.74
645.69	15215.82
645.83	7878.24
645.98	17530.61
646.13	9013.40
646.27	12297.17
646.42	7494.40
646.57	8777.01
646.71	8905.74
646.86	8685.73
647.00	10377.94
647.15	12109.93
647.30	7763.56
647.44	9013.40
647.59	7955.48
647.74	7197.15
647.88	11110.52
648.03	7267.36
648.17	12435.27
648.32	7454.61
648.47	11084.78
648.61	9146.81
648.76	8451.67
648.90	8601.47
649.05	9458.10
649.20	7789.30
649.34	8121.66
649.49	7503.76
649.63	10010.47
649.78	8795.73
649.92	9034.47
650.07	10679.86
650.21	7985.91
650.36	12184.83
650.51	8648.28
650.65	14480.89
650.80	9191.28
650.94	8262.09
651.09	9001.70
651.23	8512.53
651.38	8819.14
651.52	8830.84
651.67	8847.22
651.81	10422.41
651.96	13760.01
652.10	12641.23
652.25	9495.55
652.39	11435.86
652.54	10469.22
652.68	10289.00
652.83	11302.45
652.97	10197.71
653.12	11295.43
653.26	8341.67
653.41	12102.91
653.55	10501.98
653.70	7943.78
653.84	8739.56
653.99	8894.04
654.13	7726.11
654.27	9635.99
654.42	8194.22
654.56	9062.55
654.71	12196.53
654.85	7496.74
655.00	7749.51
655.14	9291.93
655.29	7136.29
655.43	11325.85
655.57	9678.12
655.72	7281.41
655.86	9994.09
656.01	9687.48
656.15	8603.81
656.30	14200.03
656.44	8063.15
656.58	7222.89
656.73	8578.06
656.87	7208.85
657.01	8952.55
657.16	14258.54
657.30	10993.50
657.45	13706.18
657.59	9848.97
657.73	7482.69
657.88	9423.00
658.02	18979.40
658.16	8507.85
658.31	9226.39
658.45	8814.46
658.60	6726.70
658.74	9205.33
658.88	7536.52
659.03	7770.58
659.17	7735.47
659.31	7676.96
659.46	8203.58
659.60	10684.55
659.74	8526.57
659.89	8774.67
660.03	8510.19
660.17	14902.19
660.32	10672.84
660.46	10427.09
660.60	9020.42
660.74	10869.45
660.89	9764.72
661.03	7026.29
661.17	7866.54
661.32	8102.93
661.46	9064.89
661.60	8334.65
661.74	10422.41
661.89	12056.10
662.03	10441.13
662.17	8407.20
662.31	9958.98
662.46	10836.68
662.60	9790.46
662.74	8589.77
662.88	11171.38
663.03	8416.57
663.17	7164.38
663.31	9495.55
663.45	9743.65
663.60	8346.35
663.74	6981.82
663.88	6188.38
664.02	9462.79
664.17	7611.42
664.31	7447.58
664.45	9624.28
664.59	8559.34
664.73	8975.95
664.88	11545.86
665.02	7295.45
665.16	8271.45
665.30	13596.17
665.44	9448.74
665.59	12205.89
665.73	9638.33
665.87	8882.33
666.01	8723.18
666.15	7756.54
666.29	6707.98
666.44	13502.55
666.58	15449.88
666.72	7112.89
666.86	7845.48
667.00	11330.53
667.14	8992.34
667.28	10256.23
667.43	9116.39
667.57	9589.17
667.71	10469.22
667.85	9549.39
667.99	10078.35
668.13	8524.23
668.27	10544.11
668.41	10497.30
668.56	8732.54
668.70	13315.31
668.84	8365.07
668.98	10068.98
669.12	6136.88
669.26	9338.74
669.40	16847.18
669.54	9832.59
669.68	12123.98
669.82	7342.26
669.96	9142.13
670.10	10429.43
670.25	11199.46
670.39	10963.07
670.53	8294.86
670.67	10342.83
670.81	6630.74
670.95	10003.45
671.09	8446.99
671.23	13167.85
671.37	11618.42
671.51	8784.03
671.65	10827.32
671.79	7971.86
671.93	9540.02
672.07	15726.06
672.21	10714.97
672.35	8339.33
672.49	7939.10
672.63	11332.87
672.77	9724.93
672.91	9916.85
673.05	8882.33
673.19	9205.33
673.33	6977.14
673.47	14883.47
673.61	8751.26
673.75	7255.66
673.89	6803.94
674.03	10745.40
674.17	8250.39
674.31	9366.82
674.45	10448.15
674.59	9341.08
674.73	8444.65
674.87	10228.14
675.01	10729.02
675.15	8102.93
675.29	12131.00
675.43	11391.39
675.56	14237.48
675.70	12400.16
675.84	8659.98
675.98	9886.42
676.12	6148.59
676.26	8381.46
676.40	6230.51
676.54	8435.29
676.68	7803.35
676.82	11309.47
676.96	6656.48
677.10	9591.52
677.23	7295.45
677.37	6305.40
677.51	8549.98
677.65	16390.77
677.79	7218.21
677.93	6998.20
678.07	7637.17
678.21	6394.34
678.34	6855.43
678.48	6520.73
678.62	9247.46
678.76	5385.57
678.90	8713.81
679.04	8528.91
679.18	6846.07
679.31	6375.62
679.45	6576.91
679.59	8915.10
679.73	8379.12
679.87	5853.68
680.00	9025.11
680.14	8762.97
680.28	9500.23
680.42	7349.28
680.56	9816.21
680.70	6764.15
680.83	8929.14
680.97	6530.09
681.11	6949.05
681.25	10471.56
681.39	7655.89
681.52	8830.84
681.66	8397.84
681.80	9572.79
681.94	6272.64
682.07	7428.86
682.21	8875.31
682.35	6228.17
682.49	6504.35
682.62	10801.57
682.76	6113.48
682.90	7452.27
683.04	9502.58
683.17	9334.06
683.31	7152.68
683.45	10223.46
683.59	11964.82
683.72	10911.58
683.86	9011.06
684.00	6651.80
684.13	11386.71
684.27	9781.10
684.41	9083.62
684.55	7716.75
684.68	7534.18
684.82	6057.31
684.96	7255.66
685.09	8215.28
685.23	5802.19
685.37	6190.72
685.50	10384.96
685.64	10885.83
685.78	5865.38
685.91	9563.43
686.05	11101.16
686.19	8414.23
686.32	7892.29
686.46	8175.49
686.60	4472.76
686.73	14607.28
686.87	10387.30
687.01	5142.16
687.14	4540.64
687.28	6132.20
687.42	6567.54
687.55	6761.81
687.69	11721.40
687.82	5675.80
687.96	6956.07
688.10	10291.34
688.23	6389.66
688.37	11789.28
688.50	8603.81
688.64	8697.43
688.78	5661.76
688.91	6080.71
689.05	6429.45
689.18	5109.39
689.32	6541.80
689.46	6001.13
689.59	7864.20
689.73	9425.34
689.86	5116.41
690.00	6574.56
690.13	5696.86
690.27	5226.42
690.41	8021.02
690.54	11740.13
690.68	7936.76
690.81	6370.94
690.95	7103.53
691.08	7889.95
691.22	5940.28
691.35	6689.25
691.49	4858.95
691.62	6853.09
691.76	5504.94
691.89	7419.50
692.03	5167.90
692.16	4896.40
692.30	8070.17
692.43	7028.63
692.57	5481.53
692.70	4851.93
692.84	8463.38
692.97	5521.32
693.11	4940.87
693.24	6787.55
693.38	5205.35
693.51	6141.57
693.65	9090.64
693.78	6162.63
693.92	5518.98
694.05	8065.49
694.19	4741.93
694.32	7445.24
694.45	5839.64
694.59	5666.44
694.72	6003.47
694.86	6263.27
694.99	8369.76
695.13	5710.91
695.26	7218.21
695.39	6693.93
695.53	14295.99
695.66	7604.40
695.80	10008.13
695.93	5437.06
696.07	6129.86
696.20	7126.93
696.33	4655.33
696.47	5867.72
696.60	6146.25
696.73	7302.47
696.87	5093.01
697.00	11976.52
697.14	6452.86
697.27	6965.43
697.40	14623.67
697.54	5912.19
697.67	7311.83
697.80	7887.61
697.94	5970.71
698.07	7171.40
698.21	5804.53
698.34	9055.53
698.47	4917.47
698.61	5090.67
698.74	5336.42
698.87	9462.79
699.01	6984.16
699.14	5425.36
699.27	8847.22
699.40	21649.96
699.54	6059.65
699.67	5324.72
699.80	4865.97
699.94	5219.39
700.07	5284.93
700.20	4807.46
700.34	6817.98
700.47	4098.28
700.60	5015.77
700.73	6183.70
700.87	10494.96
701.00	5746.02
701.13	5696.86
701.26	6909.26
701.40	5959.00
701.53	5682.82
701.66	4550.00
701.79	6417.75
701.93	6401.37
702.06	11386.71
702.19	5982.41
702.32	9497.89
702.46	5790.49
702.59	4741.93
702.72	4208.28
702.85	6396.68
702.99	4730.22
703.12	9589.17
703.25	5235.78
703.38	5645.37
703.51	9036.81
703.65	4959.60
703.78	5554.09
703.91	7611.42
704.04	9383.21
704.17	6162.63
704.31	3882.95
704.44	4830.87
704.57	5767.08
704.70	6319.45
704.83	6076.03
704.96	6235.19
705.10	7002.88
705.23	5757.72
>>>>>End Processed Spectral Data<<<<<
