SpectraSuite Data File
++++++++++++++++++++++++++++++++++++
Date: Mon Oct 07 15:00:01 GMT-05:00 2013
User: price-jones
Dark Spectrum Present: No
Reference Spectrum Present: No
Number of Sampled Component Spectra: 1
Spectrometers: USB2+H05261
Integration Time (usec): 100000 (USB2+H05261)
Spectra Averaged: 1 (USB2+H05261)
Boxcar Smoothing: 0 (USB2+H05261)
Correct for Electrical Dark: No (USB2+H05261)
Strobe/Lamp Enabled: No (USB2+H05261)
Correct for Detector Non-linearity: No (USB2+H05261)
Correct for Stray Light: No (USB2+H05261)
Number of Pixels in Processed Spectrum: 2048
>>>>>Begin Processed Spectral Data<<<<<
365.73	0.00
365.92	0.00
366.12	0.00
366.32	0.00
366.52	0.00
366.72	0.00
366.91	0.00
367.11	0.00
367.31	0.00
367.51	0.00
367.70	0.00
367.90	0.00
368.10	0.00
368.30	0.00
368.49	0.00
368.69	0.00
368.89	0.00
369.09	0.00
369.28	0.00
369.48	0.00
369.68	0.00
369.87	0.00
370.07	0.00
370.27	0.00
370.47	0.00
370.66	0.00
370.86	0.00
371.06	0.00
371.25	0.00
371.45	0.00
371.65	0.00
371.84	0.00
372.04	0.00
372.24	0.00
372.44	0.00
372.63	0.00
372.83	0.00
373.03	0.00
373.22	0.00
373.42	0.00
373.62	0.00
373.81	0.00
374.01	0.00
374.21	0.00
374.40	0.00
374.60	0.00
374.79	0.00
374.99	0.00
375.19	0.00
375.38	0.00
375.58	0.00
375.78	0.00
375.97	0.00
376.17	0.00
376.37	0.00
376.56	0.00
376.76	0.00
376.95	0.00
377.15	0.00
377.35	0.00
377.54	0.00
377.74	0.00
377.93	0.00
378.13	0.00
378.33	0.00
378.52	0.00
378.72	0.00
378.91	0.00
379.11	0.00
379.31	0.00
379.50	0.00
379.70	0.00
379.89	0.00
380.09	0.00
380.28	0.00
380.48	0.00
380.68	0.00
380.87	0.00
381.07	0.00
381.26	0.00
381.46	0.00
381.65	0.00
381.85	0.00
382.04	0.00
382.24	0.00
382.43	0.00
382.63	0.00
382.83	0.00
383.02	0.00
383.22	0.00
383.41	0.00
383.61	0.00
383.80	0.00
384.00	0.00
384.19	0.00
384.39	0.00
384.58	0.00
384.78	0.00
384.97	0.00
385.17	0.00
385.36	0.00
385.56	0.00
385.75	0.00
385.95	0.00
386.14	0.00
386.34	0.00
386.53	0.00
386.72	0.00
386.92	0.00
387.11	0.00
387.31	0.00
387.50	0.00
387.70	0.00
387.89	0.00
388.09	0.00
388.28	0.00
388.48	0.00
388.67	0.00
388.86	0.00
389.06	0.00
389.25	0.00
389.45	0.00
389.64	0.00
389.84	0.00
390.03	0.00
390.22	0.00
390.42	0.00
390.61	0.00
390.81	0.00
391.00	0.00
391.19	0.00
391.39	0.00
391.58	0.00
391.78	0.00
391.97	0.00
392.16	0.00
392.36	0.00
392.55	0.00
392.75	0.00
392.94	0.00
393.13	0.00
393.33	0.00
393.52	0.00
393.71	0.00
393.91	0.00
394.10	0.00
394.29	0.00
394.49	0.00
394.68	0.00
394.88	0.00
395.07	0.00
395.26	0.00
395.46	0.00
395.65	0.00
395.84	0.00
396.04	0.00
396.23	0.00
396.42	0.00
396.62	0.00
396.81	0.00
397.00	0.00
397.19	0.00
397.39	0.00
397.58	0.00
397.77	0.00
397.97	0.00
398.16	0.00
398.35	0.00
398.55	0.00
398.74	0.00
398.93	0.00
399.12	0.00
399.32	0.00
399.51	0.00
399.70	0.00
399.90	0.00
400.09	0.00
400.28	0.00
400.47	0.00
400.67	0.00
400.86	0.00
401.05	0.00
401.24	0.00
401.44	0.00
401.63	0.00
401.82	0.00
402.01	0.00
402.21	0.00
402.40	0.00
402.59	0.00
402.78	0.00
402.97	0.00
403.17	0.00
403.36	0.00
403.55	0.00
403.74	0.00
403.93	0.00
404.13	0.00
404.32	0.00
404.51	0.00
404.70	0.00
404.89	0.00
405.09	0.00
405.28	0.00
405.47	0.00
405.66	0.00
405.85	0.00
406.05	0.00
406.24	0.00
406.43	0.00
406.62	0.00
406.81	0.00
407.00	0.00
407.20	0.00
407.39	0.00
407.58	0.00
407.77	0.00
407.96	0.00
408.15	0.00
408.34	0.00
408.54	0.00
408.73	0.00
408.92	0.00
409.11	0.00
409.30	0.00
409.49	0.00
409.68	0.00
409.87	0.00
410.07	0.00
410.26	0.00
410.45	0.00
410.64	0.00
410.83	0.00
411.02	0.00
411.21	0.00
411.40	0.00
411.59	0.00
411.78	0.00
411.98	0.00
412.17	0.00
412.36	0.00
412.55	0.00
412.74	0.00
412.93	0.00
413.12	0.00
413.31	0.00
413.50	0.00
413.69	0.00
413.88	0.00
414.07	0.00
414.26	0.00
414.45	0.00
414.64	0.00
414.83	0.00
415.02	0.00
415.22	0.00
415.41	0.00
415.60	0.00
415.79	0.00
415.98	0.00
416.17	0.00
416.36	0.00
416.55	0.00
416.74	0.00
416.93	0.00
417.12	0.00
417.31	0.00
417.50	0.00
417.69	0.00
417.88	0.00
418.07	0.00
418.26	0.00
418.45	0.00
418.64	0.00
418.83	0.00
419.02	0.00
419.21	0.00
419.39	0.00
419.58	0.00
419.77	0.00
419.96	0.00
420.15	0.00
420.34	0.00
420.53	0.00
420.72	0.00
420.91	0.00
421.10	0.00
421.29	0.00
421.48	0.00
421.67	0.00
421.86	0.00
422.05	0.00
422.24	0.00
422.43	0.00
422.61	0.00
422.80	0.00
422.99	0.00
423.18	0.00
423.37	0.00
423.56	0.00
423.75	0.00
423.94	0.00
424.13	0.00
424.32	0.00
424.50	0.00
424.69	0.00
424.88	0.00
425.07	0.00
425.26	0.00
425.45	0.00
425.64	0.00
425.83	0.00
426.01	0.00
426.20	0.00
426.39	0.00
426.58	0.00
426.77	0.00
426.96	0.00
427.15	0.00
427.33	0.00
427.52	0.00
427.71	0.00
427.90	0.00
428.09	0.00
428.28	0.00
428.46	0.00
428.65	0.00
428.84	0.00
429.03	0.00
429.22	0.00
429.40	0.00
429.59	0.00
429.78	0.00
429.97	0.00
430.16	0.00
430.34	0.00
430.53	0.00
430.72	0.00
430.91	0.00
431.10	0.00
431.28	0.00
431.47	0.00
431.66	0.00
431.85	0.00
432.03	0.00
432.22	0.00
432.41	0.00
432.60	0.00
432.79	0.00
432.97	0.00
433.16	0.00
433.35	0.00
433.54	0.00
433.72	0.00
433.91	0.00
434.10	0.00
434.28	0.00
434.47	0.00
434.66	0.00
434.85	0.00
435.03	0.00
435.22	0.00
435.41	0.00
435.59	0.00
435.78	0.00
435.97	0.00
436.16	0.00
436.34	0.00
436.53	0.00
436.72	0.00
436.90	0.00
437.09	0.00
437.28	0.00
437.46	0.00
437.65	0.00
437.84	0.00
438.02	0.00
438.21	0.00
438.40	0.00
438.58	0.00
438.77	0.00
438.96	0.00
439.14	0.00
439.33	0.00
439.52	0.00
439.70	0.00
439.89	0.00
440.08	0.00
440.26	0.00
440.45	0.00
440.63	0.00
440.82	0.00
441.01	0.00
441.19	0.00
441.38	0.00
441.57	0.00
441.75	0.00
441.94	0.00
442.12	0.00
442.31	0.00
442.50	0.00
442.68	0.00
442.87	0.00
443.05	0.00
443.24	0.00
443.43	0.00
443.61	0.00
443.80	0.00
443.98	0.00
444.17	0.00
444.35	0.00
444.54	0.00
444.73	0.00
444.91	0.00
445.10	0.00
445.28	0.00
445.47	0.00
445.65	0.00
445.84	0.00
446.02	0.00
446.21	0.00
446.39	0.00
446.58	0.00
446.77	0.00
446.95	0.00
447.14	0.00
447.32	49.15
447.51	0.00
447.69	0.00
447.88	0.00
448.06	67.88
448.25	0.00
448.43	0.00
448.62	0.00
448.80	0.00
448.99	0.00
449.17	0.00
449.36	0.00
449.54	0.00
449.73	0.00
449.91	0.00
450.10	0.00
450.28	77.24
450.46	0.00
450.65	0.00
450.83	0.00
451.02	0.00
451.20	0.00
451.39	0.00
451.57	0.00
451.76	0.00
451.94	0.00
452.13	0.00
452.31	28.09
452.49	0.00
452.68	0.00
452.86	0.00
453.05	0.00
453.23	0.00
453.42	0.00
453.60	0.00
453.78	0.00
453.97	0.00
454.15	0.00
454.34	0.00
454.52	0.00
454.70	16.38
454.89	0.00
455.07	0.00
455.26	0.00
455.44	11.70
455.62	0.00
455.81	0.00
455.99	9.36
456.17	0.00
456.36	0.00
456.54	0.00
456.73	0.00
456.91	0.00
457.09	0.00
457.28	14.04
457.46	0.00
457.64	28.09
457.83	0.00
458.01	0.00
458.19	2.34
458.38	0.00
458.56	0.00
458.74	0.00
458.93	0.00
459.11	0.00
459.29	0.00
459.48	37.45
459.66	46.81
459.84	0.00
460.03	28.09
460.21	0.00
460.39	0.00
460.57	44.47
460.76	0.00
460.94	0.00
461.12	56.17
461.31	0.00
461.49	0.00
461.67	0.00
461.85	0.00
462.04	0.00
462.22	592.16
462.40	95.96
462.59	39.79
462.77	4.68
462.95	0.00
463.13	0.00
463.32	0.00
463.50	0.00
463.68	0.00
463.86	0.00
464.05	0.00
464.23	0.00
464.41	0.00
464.59	0.00
464.78	0.00
464.96	0.00
465.14	0.00
465.32	0.00
465.50	58.51
465.69	18.72
465.87	0.00
466.05	0.00
466.23	0.00
466.41	0.00
466.60	0.00
466.78	37.45
466.96	0.00
467.14	0.00
467.32	11.70
467.51	0.00
467.69	0.00
467.87	63.19
468.05	0.00
468.23	58.51
468.41	35.11
468.60	0.00
468.78	9.36
468.96	0.00
469.14	9.36
469.32	0.00
469.50	0.00
469.69	0.00
469.87	0.00
470.05	0.00
470.23	0.00
470.41	0.00
470.59	0.00
470.77	11.70
470.95	0.00
471.14	0.00
471.32	0.00
471.50	49.15
471.68	4.68
471.86	79.58
472.04	0.00
472.22	0.00
472.40	0.00
472.58	0.00
472.77	0.00
472.95	0.00
473.13	63.19
473.31	0.00
473.49	0.00
473.67	0.00
473.85	30.43
474.03	0.00
474.21	0.00
474.39	42.13
474.57	63.19
474.75	37.45
474.93	46.81
475.12	0.00
475.30	0.00
475.48	42.13
475.66	0.00
475.84	7.02
476.02	0.00
476.20	49.15
476.38	0.00
476.56	65.54
476.74	30.43
476.92	0.00
477.10	42.13
477.28	30.43
477.46	98.30
477.64	37.45
477.82	39.79
478.00	7.02
478.18	25.75
478.36	2.34
478.54	0.00
478.72	60.85
478.90	0.00
479.08	42.13
479.26	37.45
479.44	0.00
479.62	0.00
479.80	70.22
479.98	18.72
480.16	0.00
480.34	4.68
480.52	0.00
480.70	30.43
480.88	65.54
481.06	49.15
481.24	119.37
481.41	11.70
481.59	21.06
481.77	0.00
481.95	88.94
482.13	105.32
482.31	0.00
482.49	0.00
482.67	91.28
482.85	128.73
483.03	100.64
483.21	81.92
483.39	88.94
483.57	58.51
483.74	98.30
483.92	53.83
484.10	28.09
484.28	140.43
484.46	168.52
484.64	114.69
484.82	42.13
485.00	16.38
485.18	37.45
485.35	30.43
485.53	0.00
485.71	46.81
485.89	25.75
486.07	0.00
486.25	140.43
486.43	95.96
486.61	53.83
486.78	58.51
486.96	4.68
487.14	53.83
487.32	67.88
487.50	67.88
487.68	124.05
487.85	65.54
488.03	102.98
488.21	142.77
488.39	91.28
488.57	145.11
488.75	0.00
488.92	461.09
489.10	145.11
489.28	133.41
489.46	0.00
489.64	77.24
489.81	98.30
489.99	131.07
490.17	182.56
490.35	252.78
490.53	79.58
490.70	60.85
490.88	86.60
491.06	131.07
491.24	224.69
491.41	191.92
491.59	93.62
491.77	49.15
491.95	177.88
492.13	25.75
492.30	152.13
492.48	91.28
492.66	117.03
492.84	159.16
493.01	117.03
493.19	147.45
493.37	208.31
493.54	98.30
493.72	189.58
493.90	138.09
494.08	152.13
494.25	198.95
494.43	140.43
494.61	201.29
494.79	105.32
494.96	175.54
495.14	124.05
495.32	124.05
495.49	177.88
495.67	124.05
495.85	124.05
496.02	128.73
496.20	205.97
496.38	203.63
496.55	88.94
496.73	215.33
496.91	212.99
497.09	220.01
497.26	58.51
497.44	222.35
497.62	222.35
497.79	135.75
497.97	154.48
498.14	208.31
498.32	215.33
498.50	224.69
498.67	138.09
498.85	210.65
499.03	114.69
499.20	241.08
499.38	145.11
499.56	163.84
499.73	250.44
499.91	220.01
500.08	266.82
500.26	161.50
500.44	159.16
500.61	149.79
500.79	100.64
500.97	198.95
501.14	166.18
501.32	152.13
501.49	255.12
501.67	234.05
501.84	163.84
502.02	163.84
502.20	231.71
502.37	184.90
502.55	189.58
502.72	121.71
502.90	215.33
503.07	170.86
503.25	241.08
503.43	201.29
503.60	182.56
503.78	212.99
503.95	252.78
504.13	231.71
504.30	224.69
504.48	290.23
504.65	322.99
504.83	280.86
505.01	215.33
505.18	266.82
505.36	177.88
505.53	205.97
505.71	262.14
505.88	330.02
506.06	227.03
506.23	231.71
506.41	203.63
506.58	210.65
506.76	320.65
506.93	142.77
507.11	196.60
507.28	208.31
507.46	180.22
507.63	236.39
507.81	180.22
507.98	149.79
508.16	208.31
508.33	168.52
508.50	220.01
508.68	227.03
508.85	196.60
509.03	222.35
509.20	241.08
509.38	231.71
509.55	238.73
509.73	170.86
509.90	259.80
510.08	220.01
510.25	245.76
510.42	320.65
510.60	217.67
510.77	231.71
510.95	311.29
511.12	283.20
511.30	264.48
511.47	245.76
511.64	341.72
511.82	212.99
511.99	238.73
512.17	248.10
512.34	236.39
512.51	215.33
512.69	264.48
512.86	266.82
513.04	220.01
513.21	262.14
513.38	243.42
513.56	243.42
513.73	196.60
513.90	210.65
514.08	198.95
514.25	201.29
514.43	203.63
514.60	156.82
514.77	175.54
514.95	308.95
515.12	231.71
515.29	227.03
515.47	224.69
515.64	322.99
515.81	266.82
515.99	231.71
516.16	266.82
516.33	142.77
516.51	140.43
516.68	110.01
516.85	208.31
517.03	156.82
517.20	250.44
517.37	248.10
517.54	220.01
517.72	234.05
517.89	177.88
518.06	241.08
518.24	154.48
518.41	250.44
518.58	184.90
518.75	133.41
518.93	262.14
519.10	191.92
519.27	306.61
519.45	222.35
519.62	266.82
519.79	257.46
519.96	212.99
520.14	318.31
520.31	365.12
520.48	273.84
520.65	273.84
520.83	278.52
521.00	264.48
521.17	362.78
521.34	217.67
521.52	278.52
521.69	301.93
521.86	184.90
522.03	294.91
522.20	273.84
522.38	198.95
522.55	271.50
522.72	156.82
522.89	234.05
523.07	365.12
523.24	208.31
523.41	294.91
523.58	271.50
523.75	285.55
523.92	257.46
524.10	376.83
524.27	278.52
524.44	191.92
524.61	311.29
524.78	262.14
524.96	315.97
525.13	327.68
525.30	348.74
525.47	306.61
525.64	299.59
525.81	337.04
525.98	245.76
526.16	266.82
526.33	266.82
526.50	215.33
526.67	222.35
526.84	208.31
527.01	259.80
527.18	229.37
527.36	290.23
527.53	252.78
527.70	327.68
527.87	231.71
528.04	313.63
528.21	259.80
528.38	330.02
528.55	346.40
528.72	353.42
528.89	346.40
529.07	259.80
529.24	266.82
529.41	337.04
529.58	306.61
529.75	294.91
529.92	304.27
530.09	369.80
530.26	285.55
530.43	437.68
530.60	332.36
530.77	292.57
530.94	344.06
531.11	315.97
531.28	301.93
531.46	294.91
531.63	330.02
531.80	287.89
531.97	255.12
532.14	264.48
532.31	278.52
532.48	276.18
532.65	259.80
532.82	229.37
532.99	271.50
533.16	271.50
533.33	400.23
533.50	334.70
533.67	241.08
533.84	367.46
534.01	320.65
534.18	292.57
534.35	327.68
534.52	290.23
534.69	234.05
534.86	294.91
535.03	290.23
535.20	266.82
535.37	362.78
535.54	423.64
535.71	285.55
535.88	409.59
536.05	301.93
536.22	290.23
536.38	217.67
536.55	299.59
536.72	360.44
536.89	259.80
537.06	330.02
537.23	358.10
537.40	280.86
537.57	271.50
537.74	362.78
537.91	383.85
538.08	292.57
538.25	320.65
538.42	315.97
538.59	353.42
538.75	362.78
538.92	259.80
539.09	390.87
539.26	217.67
539.43	278.52
539.60	311.29
539.77	304.27
539.94	339.38
540.11	320.65
540.28	327.68
540.44	313.63
540.61	311.29
540.78	367.46
540.95	276.18
541.12	365.12
541.29	276.18
541.46	325.33
541.62	304.27
541.79	241.08
541.96	285.55
542.13	348.74
542.30	322.99
542.47	437.68
542.63	320.65
542.80	313.63
542.97	383.85
543.14	238.73
543.31	388.53
543.48	276.18
543.64	325.33
543.81	353.42
543.98	308.95
544.15	280.86
544.32	423.64
544.48	259.80
544.65	318.31
544.82	393.21
544.99	348.74
545.16	393.21
545.32	311.29
545.49	404.91
545.66	278.52
545.83	301.93
546.00	278.52
546.16	299.59
546.33	327.68
546.50	311.29
546.67	313.63
546.83	367.46
547.00	201.29
547.17	334.70
547.34	313.63
547.50	339.38
547.67	292.57
547.84	353.42
548.00	320.65
548.17	250.44
548.34	348.74
548.51	390.87
548.67	433.00
548.84	330.02
549.01	348.74
549.18	454.06
549.34	334.70
549.51	348.74
549.68	348.74
549.84	313.63
550.01	341.72
550.18	430.66
550.34	416.62
550.51	348.74
550.68	388.53
550.84	311.29
551.01	264.48
551.18	341.72
551.34	355.76
551.51	287.89
551.68	351.08
551.84	372.15
552.01	379.17
552.18	257.46
552.34	320.65
552.51	283.20
552.68	334.70
552.84	374.49
553.01	205.97
553.18	285.55
553.34	369.80
553.51	353.42
553.67	262.14
553.84	358.10
554.01	418.96
554.17	374.49
554.34	280.86
554.51	390.87
554.67	301.93
554.84	374.49
555.00	383.85
555.17	299.59
555.33	346.40
555.50	278.52
555.67	255.12
555.83	306.61
556.00	271.50
556.16	578.11
556.33	341.72
556.50	325.33
556.66	299.59
556.83	248.10
556.99	315.97
557.16	318.31
557.32	297.25
557.49	322.99
557.65	290.23
557.82	362.78
557.98	322.99
558.15	332.36
558.32	318.31
558.48	278.52
558.65	243.42
558.81	283.20
558.98	339.38
559.14	355.76
559.31	266.82
559.47	322.99
559.64	318.31
559.80	308.95
559.97	318.31
560.13	290.23
560.30	381.51
560.46	332.36
560.63	397.89
560.79	320.65
560.96	318.31
561.12	339.38
561.29	266.82
561.45	344.06
561.61	273.84
561.78	423.64
561.94	315.97
562.11	322.99
562.27	376.83
562.44	271.50
562.60	365.12
562.77	414.27
562.93	458.74
563.10	332.36
563.26	341.72
563.42	320.65
563.59	325.33
563.75	337.04
563.92	404.91
564.08	304.27
564.24	332.36
564.41	416.62
564.57	245.76
564.74	367.46
564.90	325.33
565.07	332.36
565.23	170.86
565.39	292.57
565.56	360.44
565.72	266.82
565.88	362.78
566.05	294.91
566.21	220.01
566.38	278.52
566.54	346.40
566.70	337.04
566.87	290.23
567.03	271.50
567.19	344.06
567.36	322.99
567.52	271.50
567.68	318.31
567.85	299.59
568.01	262.14
568.17	283.20
568.34	283.20
568.50	327.68
568.66	255.12
568.83	341.72
568.99	212.99
569.15	400.23
569.32	297.25
569.48	395.55
569.64	292.57
569.81	217.67
569.97	217.67
570.13	297.25
570.30	276.18
570.46	297.25
570.62	280.86
570.78	287.89
570.95	189.58
571.11	348.74
571.27	390.87
571.43	292.57
571.60	224.69
571.76	273.84
571.92	301.93
572.09	203.63
572.25	313.63
572.41	348.74
572.57	334.70
572.74	397.89
572.90	334.70
573.06	344.06
573.22	400.23
573.38	425.98
573.55	381.51
573.71	351.08
573.87	369.80
574.03	390.87
574.20	252.78
574.36	348.74
574.52	262.14
574.68	313.63
574.84	313.63
575.01	287.89
575.17	264.48
575.33	257.46
575.49	273.84
575.65	320.65
575.82	313.63
575.98	334.70
576.14	318.31
576.30	283.20
576.46	262.14
576.62	308.95
576.79	334.70
576.95	404.91
577.11	322.99
577.27	212.99
577.43	294.91
577.59	269.16
577.75	367.46
577.92	334.70
578.08	308.95
578.24	306.61
578.40	299.59
578.56	351.08
578.72	271.50
578.88	330.02
579.04	388.53
579.21	348.74
579.37	346.40
579.53	252.78
579.69	337.04
579.85	292.57
580.01	348.74
580.17	315.97
580.33	292.57
580.49	255.12
580.65	327.68
580.82	362.78
580.98	290.23
581.14	280.86
581.30	393.21
581.46	259.80
581.62	278.52
581.78	264.48
581.94	308.95
582.10	313.63
582.26	322.99
582.42	262.14
582.58	297.25
582.74	346.40
582.90	330.02
583.06	360.44
583.22	325.33
583.38	327.68
583.54	320.65
583.70	465.77
583.86	353.42
584.02	322.99
584.18	367.46
584.34	290.23
584.50	294.91
584.66	257.46
584.82	327.68
584.98	205.97
585.14	266.82
585.30	351.08
585.46	280.86
585.62	332.36
585.78	395.55
585.94	301.93
586.10	360.44
586.26	280.86
586.42	337.04
586.58	360.44
586.74	320.65
586.90	189.58
587.06	266.82
587.22	273.84
587.38	280.86
587.54	327.68
587.70	283.20
587.86	311.29
588.02	215.33
588.18	245.76
588.34	297.25
588.49	227.03
588.65	245.76
588.81	231.71
588.97	166.18
589.13	208.31
589.29	236.39
589.45	283.20
589.61	299.59
589.77	259.80
589.93	304.27
590.08	259.80
590.24	322.99
590.40	236.39
590.56	266.82
590.72	229.37
590.88	264.48
591.04	304.27
591.20	299.59
591.35	294.91
591.51	215.33
591.67	285.55
591.83	311.29
591.99	327.68
592.15	369.80
592.31	287.89
592.46	198.95
592.62	325.33
592.78	283.20
592.94	269.16
593.10	280.86
593.26	210.65
593.41	257.46
593.57	255.12
593.73	325.33
593.89	290.23
594.05	280.86
594.20	208.31
594.36	304.27
594.52	166.18
594.68	196.60
594.84	292.57
594.99	362.78
595.15	255.12
595.31	292.57
595.47	290.23
595.62	203.63
595.78	255.12
595.94	315.97
596.10	234.05
596.25	245.76
596.41	313.63
596.57	269.16
596.73	280.86
596.88	287.89
597.04	266.82
597.20	292.57
597.36	386.19
597.51	299.59
597.67	264.48
597.83	311.29
597.99	278.52
598.14	271.50
598.30	250.44
598.46	315.97
598.61	285.55
598.77	337.04
598.93	341.72
599.09	280.86
599.24	238.73
599.40	313.63
599.56	287.89
599.71	220.01
599.87	271.50
600.03	325.33
600.18	262.14
600.34	163.84
600.50	276.18
600.65	276.18
600.81	376.83
600.97	212.99
601.12	330.02
601.28	386.19
601.44	351.08
601.59	133.41
601.75	283.20
601.91	215.33
602.06	276.18
602.22	334.70
602.37	264.48
602.53	283.20
602.69	234.05
602.84	306.61
603.00	283.20
603.16	229.37
603.31	287.89
603.47	271.50
603.62	280.86
603.78	269.16
603.94	315.97
604.09	238.73
604.25	280.86
604.40	362.78
604.56	294.91
604.71	278.52
604.87	210.65
605.03	252.78
605.18	301.93
605.34	285.55
605.49	269.16
605.65	243.42
605.80	224.69
605.96	222.35
606.12	259.80
606.27	252.78
606.43	306.61
606.58	327.68
606.74	315.97
606.89	194.26
607.05	322.99
607.20	191.92
607.36	255.12
607.51	386.19
607.67	285.55
607.82	243.42
607.98	266.82
608.13	285.55
608.29	245.76
608.44	264.48
608.60	241.08
608.75	294.91
608.91	315.97
609.06	299.59
609.22	353.42
609.37	173.20
609.53	313.63
609.68	241.08
609.84	180.22
609.99	252.78
610.15	248.10
610.30	266.82
610.46	346.40
610.61	315.97
610.76	210.65
610.92	234.05
611.07	194.26
611.23	313.63
611.38	215.33
611.54	227.03
611.69	215.33
611.84	278.52
612.00	173.20
612.15	205.97
612.31	142.77
612.46	234.05
612.62	212.99
612.77	273.84
612.92	191.92
613.08	234.05
613.23	222.35
613.39	287.89
613.54	189.58
613.69	269.16
613.85	189.58
614.00	222.35
614.15	259.80
614.31	227.03
614.46	243.42
614.62	184.90
614.77	236.39
614.92	208.31
615.08	269.16
615.23	198.95
615.38	278.52
615.54	217.67
615.69	227.03
615.84	119.37
616.00	262.14
616.15	74.90
616.30	194.26
616.46	250.44
616.61	175.54
616.76	227.03
616.92	159.16
617.07	280.86
617.22	304.27
617.37	184.90
617.53	236.39
617.68	210.65
617.83	255.12
617.99	308.95
618.14	292.57
618.29	238.73
618.45	224.69
618.60	168.52
618.75	208.31
618.90	189.58
619.06	191.92
619.21	250.44
619.36	292.57
619.51	175.54
619.67	220.01
619.82	180.22
619.97	224.69
620.12	177.88
620.28	283.20
620.43	196.60
620.58	203.63
620.73	231.71
620.89	215.33
621.04	163.84
621.19	283.20
621.34	177.88
621.49	224.69
621.65	264.48
621.80	159.16
621.95	152.13
622.10	276.18
622.25	161.50
622.41	156.82
622.56	191.92
622.71	273.84
622.86	238.73
623.01	180.22
623.16	238.73
623.32	187.24
623.47	191.92
623.62	126.39
623.77	236.39
623.92	177.88
624.07	140.43
624.23	149.79
624.38	84.26
624.53	224.69
624.68	170.86
624.83	156.82
624.98	198.95
625.13	32.77
625.29	152.13
625.44	163.84
625.59	180.22
625.74	112.35
625.89	173.20
626.04	175.54
626.19	182.56
626.34	234.05
626.49	257.46
626.65	212.99
626.80	189.58
626.95	189.58
627.10	58.51
627.25	166.18
627.40	107.66
627.55	217.67
627.70	77.24
627.85	227.03
628.00	156.82
628.15	191.92
628.30	269.16
628.45	121.71
628.60	152.13
628.76	234.05
628.91	140.43
629.06	135.75
629.21	191.92
629.36	187.24
629.51	117.03
629.66	189.58
629.81	112.35
629.96	198.95
630.11	250.44
630.26	149.79
630.41	149.79
630.56	243.42
630.71	98.30
630.86	67.88
631.01	189.58
631.16	98.30
631.31	117.03
631.46	173.20
631.61	152.13
631.76	180.22
631.91	231.71
632.06	175.54
632.21	180.22
632.36	203.63
632.51	138.09
632.66	163.84
632.81	135.75
632.96	194.26
633.10	177.88
633.25	166.18
633.40	159.16
633.55	161.50
633.70	117.03
633.85	131.07
634.00	184.90
634.15	173.20
634.30	138.09
634.45	215.33
634.60	170.86
634.75	79.58
634.90	128.73
635.05	170.86
635.19	126.39
635.34	250.44
635.49	201.29
635.64	173.20
635.79	180.22
635.94	220.01
636.09	205.97
636.24	138.09
636.39	149.79
636.53	227.03
636.68	124.05
636.83	121.71
636.98	149.79
637.13	159.16
637.28	212.99
637.43	346.40
637.57	140.43
637.72	212.99
637.87	152.13
638.02	212.99
638.17	60.85
638.32	131.07
638.46	166.18
638.61	259.80
638.76	102.98
638.91	84.26
639.06	119.37
639.20	222.35
639.35	234.05
639.50	222.35
639.65	212.99
639.80	262.14
639.94	191.92
640.09	180.22
640.24	215.33
640.39	194.26
640.54	135.75
640.68	220.01
640.83	147.45
640.98	105.32
641.13	81.92
641.27	198.95
641.42	154.48
641.57	198.95
641.72	170.86
641.86	163.84
642.01	126.39
642.16	234.05
642.31	173.20
642.45	278.52
642.60	177.88
642.75	205.97
642.90	201.29
643.04	117.03
643.19	53.83
643.34	114.69
643.48	126.39
643.63	152.13
643.78	131.07
643.93	175.54
644.07	147.45
644.22	217.67
644.37	53.83
644.51	117.03
644.66	175.54
644.81	208.31
644.95	77.24
645.10	95.96
645.25	107.66
645.39	145.11
645.54	63.19
645.69	243.42
645.83	145.11
645.98	138.09
646.13	110.01
646.27	131.07
646.42	93.62
646.57	135.75
646.71	93.62
646.86	114.69
647.00	131.07
647.15	84.26
647.30	102.98
647.44	131.07
647.59	79.58
647.74	86.60
647.88	180.22
648.03	0.00
648.17	121.71
648.32	117.03
648.47	191.92
648.61	84.26
648.76	107.66
648.90	156.82
649.05	131.07
649.20	131.07
649.34	77.24
649.49	180.22
649.63	102.98
649.78	67.88
649.92	117.03
650.07	84.26
650.21	0.00
650.36	95.96
650.51	105.32
650.65	121.71
650.80	194.26
650.94	65.54
651.09	102.98
651.23	46.81
651.38	49.15
651.52	60.85
651.67	107.66
651.81	135.75
651.96	91.28
652.10	131.07
652.25	112.35
652.39	81.92
652.54	117.03
652.68	72.56
652.83	168.52
652.97	100.64
653.12	173.20
653.26	126.39
653.41	119.37
653.55	93.62
653.70	88.94
653.84	98.30
653.99	100.64
654.13	70.22
654.27	135.75
654.42	91.28
654.56	77.24
654.71	98.30
654.85	93.62
655.00	86.60
655.14	74.90
655.29	4.68
655.43	112.35
655.57	63.19
655.72	35.11
655.86	46.81
656.01	67.88
656.15	86.60
656.30	88.94
656.44	16.38
656.58	25.75
656.73	110.01
656.87	95.96
657.01	81.92
657.16	114.69
657.30	166.18
657.45	117.03
657.59	100.64
657.73	119.37
657.88	119.37
658.02	173.20
658.16	107.66
658.31	131.07
658.45	46.81
658.60	93.62
658.74	56.17
658.88	95.96
659.03	32.77
659.17	65.54
659.31	140.43
659.46	18.72
659.60	88.94
659.74	49.15
659.89	145.11
660.03	107.66
660.17	180.22
660.32	84.26
660.46	124.05
660.60	147.45
660.74	128.73
660.89	86.60
661.03	63.19
661.17	23.41
661.32	95.96
661.46	77.24
661.60	84.26
661.74	81.92
661.89	70.22
662.03	93.62
662.17	46.81
662.31	93.62
662.46	28.09
662.60	74.90
662.74	100.64
662.88	107.66
663.03	154.48
663.17	0.00
663.31	91.28
663.45	114.69
663.60	21.06
663.74	25.75
663.88	49.15
664.02	119.37
664.17	11.70
664.31	60.85
664.45	138.09
664.59	60.85
664.73	65.54
664.88	72.56
665.02	23.41
665.16	51.49
665.30	88.94
665.44	0.00
665.59	88.94
665.73	58.51
665.87	88.94
666.01	0.00
666.15	42.13
666.29	44.47
666.44	184.90
666.58	154.48
666.72	86.60
666.86	77.24
667.00	79.58
667.14	91.28
667.28	77.24
667.43	84.26
667.57	121.71
667.71	131.07
667.85	51.49
667.99	46.81
668.13	65.54
668.27	81.92
668.41	25.75
668.56	74.90
668.70	91.28
668.84	46.81
668.98	44.47
669.12	0.00
669.26	39.79
669.40	84.26
669.54	140.43
669.68	140.43
669.82	0.00
669.96	63.19
670.10	72.56
670.25	119.37
670.39	53.83
670.53	0.00
670.67	58.51
670.81	23.41
670.95	114.69
671.09	11.70
671.23	67.88
671.37	86.60
671.51	0.00
671.65	32.77
671.79	0.00
671.93	42.13
672.07	121.71
672.21	18.72
672.35	14.04
672.49	0.00
672.63	56.17
672.77	119.37
672.91	21.06
673.05	53.83
673.19	25.75
673.33	14.04
673.47	121.71
673.61	72.56
673.75	25.75
673.89	0.00
674.03	91.28
674.17	98.30
674.31	35.11
674.45	88.94
674.59	0.00
674.73	23.41
674.87	18.72
675.01	67.88
675.15	0.00
675.29	37.45
675.43	58.51
675.56	18.72
675.70	100.64
675.84	21.06
675.98	74.90
676.12	11.70
676.26	46.81
676.40	42.13
676.54	98.30
676.68	0.00
676.82	0.00
676.96	46.81
677.10	51.49
677.23	46.81
677.37	7.02
677.51	53.83
677.65	63.19
677.79	0.00
677.93	77.24
678.07	23.41
678.21	30.43
678.34	28.09
678.48	0.00
678.62	4.68
678.76	0.00
678.90	11.70
679.04	49.15
679.18	7.02
679.31	0.00
679.45	0.00
679.59	0.00
679.73	7.02
679.87	0.00
680.00	37.45
680.14	32.77
680.28	0.00
680.42	0.00
680.56	0.00
680.70	18.72
680.83	81.92
680.97	28.09
681.11	0.00
681.25	16.38
681.39	49.15
681.52	25.75
681.66	0.00
681.80	0.00
681.94	0.00
682.07	0.00
682.21	23.41
682.35	0.00
682.49	0.00
682.62	74.90
682.76	0.00
682.90	21.06
683.04	14.04
683.17	0.00
683.31	7.02
683.45	60.85
683.59	77.24
683.72	60.85
683.86	0.00
684.00	44.47
684.13	63.19
684.27	0.00
684.41	0.00
684.55	0.00
684.68	0.00
684.82	0.00
684.96	0.00
685.09	0.00
685.23	0.00
685.37	0.00
685.50	0.00
685.64	9.36
685.78	0.00
685.91	2.34
686.05	0.00
686.19	30.43
686.32	0.00
686.46	0.00
686.60	0.00
686.73	0.00
686.87	0.00
687.01	0.00
687.14	0.00
687.28	0.00
687.42	0.00
687.55	0.00
687.69	0.00
687.82	0.00
687.96	0.00
688.10	0.00
688.23	0.00
688.37	0.00
688.50	0.00
688.64	0.00
688.78	0.00
688.91	0.00
689.05	0.00
689.18	0.00
689.32	16.38
689.46	0.00
689.59	0.00
689.73	0.00
689.86	0.00
690.00	0.00
690.13	0.00
690.27	0.00
690.41	0.00
690.54	0.00
690.68	0.00
690.81	0.00
690.95	0.00
691.08	0.00
691.22	0.00
691.35	0.00
691.49	0.00
691.62	0.00
691.76	0.00
691.89	0.00
692.03	0.00
692.16	0.00
692.30	0.00
692.43	0.00
692.57	0.00
692.70	0.00
692.84	0.00
692.97	0.00
693.11	0.00
693.24	0.00
693.38	0.00
693.51	0.00
693.65	0.00
693.78	0.00
693.92	0.00
694.05	0.00
694.19	0.00
694.32	0.00
694.45	0.00
694.59	0.00
694.72	0.00
694.86	0.00
694.99	0.00
695.13	0.00
695.26	0.00
695.39	0.00
695.53	0.00
695.66	0.00
695.80	0.00
695.93	0.00
696.07	0.00
696.20	0.00
696.33	0.00
696.47	0.00
696.60	0.00
696.73	0.00
696.87	0.00
697.00	0.00
697.14	0.00
697.27	0.00
697.40	63.19
697.54	0.00
697.67	0.00
697.80	0.00
697.94	0.00
698.07	0.00
698.21	0.00
698.34	0.00
698.47	0.00
698.61	0.00
698.74	0.00
698.87	49.15
699.01	0.00
699.14	0.00
699.27	0.00
699.40	7.02
699.54	0.00
699.67	0.00
699.80	0.00
699.94	0.00
700.07	0.00
700.20	0.00
700.34	0.00
700.47	0.00
700.60	0.00
700.73	0.00
700.87	0.00
701.00	0.00
701.13	0.00
701.26	0.00
701.40	0.00
701.53	0.00
701.66	0.00
701.79	0.00
701.93	0.00
702.06	0.00
702.19	0.00
702.32	0.00
702.46	0.00
702.59	0.00
702.72	0.00
702.85	0.00
702.99	0.00
703.12	0.00
703.25	0.00
703.38	0.00
703.51	0.00
703.65	0.00
703.78	0.00
703.91	0.00
704.04	0.00
704.17	0.00
704.31	0.00
704.44	0.00
704.57	0.00
704.70	0.00
704.83	0.00
704.96	0.00
705.10	0.00
705.23	0.00
>>>>>End Processed Spectral Data<<<<<
