SpectraSuite Data File
++++++++++++++++++++++++++++++++++++
Date: Mon Oct 07 15:00:00 GMT-05:00 2013
User: price-jones
Dark Spectrum Present: No
Reference Spectrum Present: No
Number of Sampled Component Spectra: 1
Spectrometers: USB2+H05261
Integration Time (usec): 100000 (USB2+H05261)
Spectra Averaged: 1 (USB2+H05261)
Boxcar Smoothing: 0 (USB2+H05261)
Correct for Electrical Dark: No (USB2+H05261)
Strobe/Lamp Enabled: No (USB2+H05261)
Correct for Detector Non-linearity: No (USB2+H05261)
Correct for Stray Light: No (USB2+H05261)
Number of Pixels in Processed Spectrum: 2048
>>>>>Begin Processed Spectral Data<<<<<
365.73	0.00
365.92	0.00
366.12	0.00
366.32	0.00
366.52	0.00
366.72	0.00
366.91	0.00
367.11	0.00
367.31	0.00
367.51	0.00
367.70	0.00
367.90	0.00
368.10	0.00
368.30	0.00
368.49	0.00
368.69	0.00
368.89	0.00
369.09	0.00
369.28	0.00
369.48	0.00
369.68	0.00
369.87	0.00
370.07	0.00
370.27	0.00
370.47	0.00
370.66	0.00
370.86	0.00
371.06	0.00
371.25	0.00
371.45	0.00
371.65	0.00
371.84	0.00
372.04	0.00
372.24	0.00
372.44	0.00
372.63	0.00
372.83	0.00
373.03	0.00
373.22	0.00
373.42	0.00
373.62	0.00
373.81	0.00
374.01	0.00
374.21	0.00
374.40	0.00
374.60	0.00
374.79	0.00
374.99	0.00
375.19	0.00
375.38	0.00
375.58	0.00
375.78	0.00
375.97	0.00
376.17	0.00
376.37	0.00
376.56	0.00
376.76	0.00
376.95	0.00
377.15	0.00
377.35	0.00
377.54	0.00
377.74	0.00
377.93	0.00
378.13	0.00
378.33	0.00
378.52	0.00
378.72	0.00
378.91	0.00
379.11	0.00
379.31	0.00
379.50	0.00
379.70	0.00
379.89	0.00
380.09	0.00
380.28	0.00
380.48	0.00
380.68	0.00
380.87	0.00
381.07	0.00
381.26	0.00
381.46	0.00
381.65	0.00
381.85	0.00
382.04	0.00
382.24	0.00
382.43	0.00
382.63	0.00
382.83	0.00
383.02	0.00
383.22	0.00
383.41	0.00
383.61	0.00
383.80	0.00
384.00	0.00
384.19	0.00
384.39	0.00
384.58	0.00
384.78	0.00
384.97	0.00
385.17	0.00
385.36	0.00
385.56	0.00
385.75	0.00
385.95	0.00
386.14	0.00
386.34	0.00
386.53	0.00
386.72	0.00
386.92	0.00
387.11	0.00
387.31	0.00
387.50	0.00
387.70	0.00
387.89	0.00
388.09	0.00
388.28	0.00
388.48	0.00
388.67	0.00
388.86	0.00
389.06	0.00
389.25	0.00
389.45	0.00
389.64	0.00
389.84	0.00
390.03	0.00
390.22	0.00
390.42	0.00
390.61	0.00
390.81	0.00
391.00	0.00
391.19	0.00
391.39	0.00
391.58	0.00
391.78	0.00
391.97	0.00
392.16	0.00
392.36	0.00
392.55	0.00
392.75	0.00
392.94	0.00
393.13	0.00
393.33	0.00
393.52	0.00
393.71	0.00
393.91	0.00
394.10	0.00
394.29	0.00
394.49	0.00
394.68	0.00
394.88	0.00
395.07	0.00
395.26	0.00
395.46	0.00
395.65	0.00
395.84	0.00
396.04	0.00
396.23	0.00
396.42	0.00
396.62	0.00
396.81	0.00
397.00	0.00
397.19	0.00
397.39	0.00
397.58	0.00
397.77	0.00
397.97	0.00
398.16	0.00
398.35	0.00
398.55	0.00
398.74	0.00
398.93	0.00
399.12	0.00
399.32	0.00
399.51	0.00
399.70	0.00
399.90	0.00
400.09	0.00
400.28	0.00
400.47	0.00
400.67	0.00
400.86	0.00
401.05	0.00
401.24	0.00
401.44	0.00
401.63	0.00
401.82	0.00
402.01	0.00
402.21	0.00
402.40	0.00
402.59	0.00
402.78	0.00
402.97	0.00
403.17	0.00
403.36	0.00
403.55	0.00
403.74	0.00
403.93	0.00
404.13	0.00
404.32	0.00
404.51	0.00
404.70	0.00
404.89	0.00
405.09	0.00
405.28	0.00
405.47	0.00
405.66	0.00
405.85	0.00
406.05	0.00
406.24	0.00
406.43	0.00
406.62	0.00
406.81	0.00
407.00	0.00
407.20	0.00
407.39	0.00
407.58	0.00
407.77	0.00
407.96	0.00
408.15	0.00
408.34	0.00
408.54	0.00
408.73	0.00
408.92	0.00
409.11	0.00
409.30	0.00
409.49	0.00
409.68	0.00
409.87	0.00
410.07	0.00
410.26	0.00
410.45	0.00
410.64	0.00
410.83	0.00
411.02	0.00
411.21	0.00
411.40	0.00
411.59	0.00
411.78	0.00
411.98	0.00
412.17	0.00
412.36	0.00
412.55	0.00
412.74	0.00
412.93	0.00
413.12	0.00
413.31	0.00
413.50	0.00
413.69	0.00
413.88	0.00
414.07	0.00
414.26	0.00
414.45	0.00
414.64	0.00
414.83	0.00
415.02	0.00
415.22	0.00
415.41	0.00
415.60	0.00
415.79	0.00
415.98	0.00
416.17	0.00
416.36	0.00
416.55	0.00
416.74	0.00
416.93	0.00
417.12	0.00
417.31	0.00
417.50	0.00
417.69	0.00
417.88	0.00
418.07	0.00
418.26	0.00
418.45	0.00
418.64	0.00
418.83	0.00
419.02	0.00
419.21	0.00
419.39	0.00
419.58	0.00
419.77	0.00
419.96	0.00
420.15	0.00
420.34	0.00
420.53	0.00
420.72	0.00
420.91	0.00
421.10	0.00
421.29	0.00
421.48	0.00
421.67	0.00
421.86	0.00
422.05	0.00
422.24	0.00
422.43	0.00
422.61	0.00
422.80	0.00
422.99	0.00
423.18	0.00
423.37	0.00
423.56	0.00
423.75	0.00
423.94	0.00
424.13	0.00
424.32	0.00
424.50	0.00
424.69	0.00
424.88	0.00
425.07	0.00
425.26	0.00
425.45	0.00
425.64	0.00
425.83	0.00
426.01	0.00
426.20	0.00
426.39	0.00
426.58	0.00
426.77	0.00
426.96	0.00
427.15	0.00
427.33	0.00
427.52	0.00
427.71	0.00
427.90	0.00
428.09	0.00
428.28	0.00
428.46	0.00
428.65	0.00
428.84	0.00
429.03	0.00
429.22	0.00
429.40	0.00
429.59	0.00
429.78	0.00
429.97	0.00
430.16	0.00
430.34	0.00
430.53	0.00
430.72	0.00
430.91	0.00
431.10	0.00
431.28	0.00
431.47	0.00
431.66	0.00
431.85	0.00
432.03	0.00
432.22	0.00
432.41	0.00
432.60	0.00
432.79	0.00
432.97	0.00
433.16	0.00
433.35	0.00
433.54	0.00
433.72	0.00
433.91	0.00
434.10	0.00
434.28	0.00
434.47	0.00
434.66	0.00
434.85	0.00
435.03	0.00
435.22	0.00
435.41	11.70
435.59	0.00
435.78	0.00
435.97	0.00
436.16	0.00
436.34	0.00
436.53	0.00
436.72	0.00
436.90	0.00
437.09	0.00
437.28	0.00
437.46	0.00
437.65	0.00
437.84	0.00
438.02	0.00
438.21	0.00
438.40	0.00
438.58	0.00
438.77	0.00
438.96	0.00
439.14	0.00
439.33	0.00
439.52	0.00
439.70	0.00
439.89	14.04
440.08	0.00
440.26	0.00
440.45	0.00
440.63	0.00
440.82	0.00
441.01	0.00
441.19	16.38
441.38	0.00
441.57	0.00
441.75	0.00
441.94	0.00
442.12	0.00
442.31	0.00
442.50	0.00
442.68	0.00
442.87	0.00
443.05	0.00
443.24	0.00
443.43	0.00
443.61	0.00
443.80	0.00
443.98	0.00
444.17	0.00
444.35	0.00
444.54	0.00
444.73	0.00
444.91	9.36
445.10	0.00
445.28	0.00
445.47	0.00
445.65	0.00
445.84	0.00
446.02	0.00
446.21	0.00
446.39	0.00
446.58	0.00
446.77	0.00
446.95	0.00
447.14	0.00
447.32	0.00
447.51	16.38
447.69	2.34
447.88	0.00
448.06	0.00
448.25	0.00
448.43	0.00
448.62	0.00
448.80	0.00
448.99	0.00
449.17	0.00
449.36	0.00
449.54	37.45
449.73	0.00
449.91	0.00
450.10	0.00
450.28	14.04
450.46	4.68
450.65	0.00
450.83	0.00
451.02	0.00
451.20	0.00
451.39	0.00
451.57	0.00
451.76	2.34
451.94	32.77
452.13	0.00
452.31	0.00
452.49	0.00
452.68	0.00
452.86	0.00
453.05	18.72
453.23	0.00
453.42	0.00
453.60	0.00
453.78	0.00
453.97	0.00
454.15	0.00
454.34	0.00
454.52	0.00
454.70	35.11
454.89	0.00
455.07	0.00
455.26	0.00
455.44	4.68
455.62	0.00
455.81	0.00
455.99	0.00
456.17	0.00
456.36	0.00
456.54	0.00
456.73	0.00
456.91	0.00
457.09	0.00
457.28	0.00
457.46	0.00
457.64	42.13
457.83	0.00
458.01	0.00
458.19	0.00
458.38	0.00
458.56	0.00
458.74	0.00
458.93	0.00
459.11	18.72
459.29	0.00
459.48	0.00
459.66	0.00
459.84	0.00
460.03	18.72
460.21	44.47
460.39	0.00
460.57	2.34
460.76	0.00
460.94	46.81
461.12	53.83
461.31	0.00
461.49	0.00
461.67	0.00
461.85	28.09
462.04	0.00
462.22	603.86
462.40	28.09
462.59	0.00
462.77	7.02
462.95	0.00
463.13	14.04
463.32	0.00
463.50	0.00
463.68	58.51
463.86	0.00
464.05	0.00
464.23	0.00
464.41	0.00
464.59	0.00
464.78	37.45
464.96	0.00
465.14	0.00
465.32	0.00
465.50	0.00
465.69	0.00
465.87	0.00
466.05	0.00
466.23	0.00
466.41	0.00
466.60	0.00
466.78	0.00
466.96	60.85
467.14	39.79
467.32	0.00
467.51	0.00
467.69	0.00
467.87	0.00
468.05	0.00
468.23	0.00
468.41	0.00
468.60	9.36
468.78	35.11
468.96	0.00
469.14	0.00
469.32	0.00
469.50	0.00
469.69	2.34
469.87	0.00
470.05	72.56
470.23	0.00
470.41	0.00
470.59	0.00
470.77	0.00
470.95	0.00
471.14	46.81
471.32	7.02
471.50	0.00
471.68	21.06
471.86	4.68
472.04	0.00
472.22	0.00
472.40	0.00
472.58	0.00
472.77	0.00
472.95	0.00
473.13	95.96
473.31	81.92
473.49	23.41
473.67	18.72
473.85	18.72
474.03	46.81
474.21	0.00
474.39	46.81
474.57	84.26
474.75	14.04
474.93	0.00
475.12	0.00
475.30	0.00
475.48	7.02
475.66	0.00
475.84	0.00
476.02	0.00
476.20	0.00
476.38	28.09
476.56	98.30
476.74	0.00
476.92	28.09
477.10	74.90
477.28	49.15
477.46	35.11
477.64	56.17
477.82	0.00
478.00	53.83
478.18	0.00
478.36	0.00
478.54	65.54
478.72	25.75
478.90	0.00
479.08	117.03
479.26	0.00
479.44	39.79
479.62	18.72
479.80	49.15
479.98	25.75
480.16	2.34
480.34	63.19
480.52	0.00
480.70	18.72
480.88	0.00
481.06	49.15
481.24	77.24
481.41	135.75
481.59	53.83
481.77	112.35
481.95	56.17
482.13	79.58
482.31	124.05
482.49	0.00
482.67	77.24
482.85	84.26
483.03	32.77
483.21	44.47
483.39	86.60
483.57	30.43
483.74	166.18
483.92	35.11
484.10	21.06
484.28	65.54
484.46	170.86
484.64	16.38
484.82	72.56
485.00	0.00
485.18	98.30
485.35	72.56
485.53	46.81
485.71	44.47
485.89	0.00
486.07	0.00
486.25	110.01
486.43	81.92
486.61	112.35
486.78	84.26
486.96	46.81
487.14	37.45
487.32	110.01
487.50	56.17
487.68	121.71
487.85	63.19
488.03	28.09
488.21	147.45
488.39	0.00
488.57	84.26
488.75	7.02
488.92	440.02
489.10	142.77
489.28	147.45
489.46	112.35
489.64	142.77
489.81	105.32
489.99	177.88
490.17	159.16
490.35	161.50
490.53	166.18
490.70	131.07
490.88	154.48
491.06	128.73
491.24	215.33
491.41	142.77
491.59	95.96
491.77	65.54
491.95	32.77
492.13	152.13
492.30	198.95
492.48	93.62
492.66	210.65
492.84	128.73
493.01	180.22
493.19	112.35
493.37	238.73
493.54	156.82
493.72	175.54
493.90	117.03
494.08	175.54
494.25	180.22
494.43	121.71
494.61	156.82
494.79	168.52
494.96	205.97
495.14	142.77
495.32	145.11
495.49	117.03
495.67	177.88
495.85	166.18
496.02	110.01
496.20	276.18
496.38	194.26
496.55	154.48
496.73	187.24
496.91	208.31
497.09	205.97
497.26	262.14
497.44	156.82
497.62	131.07
497.79	255.12
497.97	205.97
498.14	208.31
498.32	114.69
498.50	208.31
498.67	201.29
498.85	208.31
499.03	173.20
499.20	196.60
499.38	215.33
499.56	180.22
499.73	212.99
499.91	184.90
500.08	203.63
500.26	248.10
500.44	245.76
500.61	234.05
500.79	191.92
500.97	154.48
501.14	168.52
501.32	191.92
501.49	315.97
501.67	184.90
501.84	187.24
502.02	238.73
502.20	208.31
502.37	231.71
502.55	217.67
502.72	175.54
502.90	222.35
503.07	194.26
503.25	201.29
503.43	250.44
503.60	212.99
503.78	241.08
503.95	166.18
504.13	201.29
504.30	170.86
504.48	264.48
504.65	224.69
504.83	252.78
505.01	222.35
505.18	271.50
505.36	203.63
505.53	215.33
505.71	301.93
505.88	173.20
506.06	156.82
506.23	271.50
506.41	182.56
506.58	212.99
506.76	224.69
506.93	285.55
507.11	180.22
507.28	273.84
507.46	222.35
507.63	191.92
507.81	236.39
507.98	250.44
508.16	220.01
508.33	166.18
508.50	276.18
508.68	245.76
508.85	205.97
509.03	322.99
509.20	273.84
509.38	234.05
509.55	276.18
509.73	250.44
509.90	290.23
510.08	182.56
510.25	243.42
510.42	201.29
510.60	243.42
510.77	215.33
510.95	227.03
511.12	276.18
511.30	224.69
511.47	346.40
511.64	287.89
511.82	229.37
511.99	194.26
512.17	245.76
512.34	198.95
512.51	315.97
512.69	201.29
512.86	299.59
513.04	208.31
513.21	327.68
513.38	280.86
513.56	135.75
513.73	217.67
513.90	224.69
514.08	245.76
514.25	280.86
514.43	175.54
514.60	229.37
514.77	217.67
514.95	227.03
515.12	210.65
515.29	311.29
515.47	201.29
515.64	278.52
515.81	273.84
515.99	271.50
516.16	278.52
516.33	177.88
516.51	196.60
516.68	30.43
516.85	114.69
517.03	203.63
517.20	180.22
517.37	215.33
517.54	262.14
517.72	184.90
517.89	154.48
518.06	201.29
518.24	332.36
518.41	250.44
518.58	234.05
518.75	248.10
518.93	212.99
519.10	227.03
519.27	224.69
519.45	229.37
519.62	285.55
519.79	411.93
519.96	234.05
520.14	315.97
520.31	299.59
520.48	212.99
520.65	227.03
520.83	334.70
521.00	362.78
521.17	224.69
521.34	234.05
521.52	245.76
521.69	266.82
521.86	273.84
522.03	238.73
522.20	348.74
522.38	236.39
522.55	262.14
522.72	250.44
522.89	285.55
523.07	379.17
523.24	320.65
523.41	311.29
523.58	238.73
523.75	315.97
523.92	330.02
524.10	414.27
524.27	339.38
524.44	301.93
524.61	308.95
524.78	308.95
524.96	292.57
525.13	269.16
525.30	425.98
525.47	369.80
525.64	255.12
525.81	276.18
525.98	250.44
526.16	283.20
526.33	299.59
526.50	276.18
526.67	257.46
526.84	276.18
527.01	285.55
527.18	262.14
527.36	264.48
527.53	280.86
527.70	362.78
527.87	308.95
528.04	360.44
528.21	313.63
528.38	320.65
528.55	264.48
528.72	447.04
528.89	280.86
529.07	280.86
529.24	259.80
529.41	259.80
529.58	325.33
529.75	266.82
529.92	266.82
530.09	297.25
530.26	376.83
530.43	400.23
530.60	264.48
530.77	308.95
530.94	334.70
531.11	285.55
531.28	243.42
531.46	344.06
531.63	315.97
531.80	369.80
531.97	306.61
532.14	308.95
532.31	313.63
532.48	287.89
532.65	374.49
532.82	259.80
532.99	264.48
533.16	414.27
533.33	299.59
533.50	322.99
533.67	341.72
533.84	322.99
534.01	262.14
534.18	280.86
534.35	285.55
534.52	287.89
534.69	262.14
534.86	353.42
535.03	280.86
535.20	308.95
535.37	388.53
535.54	372.15
535.71	365.12
535.88	369.80
536.05	313.63
536.22	397.89
536.38	285.55
536.55	346.40
536.72	257.46
536.89	358.10
537.06	304.27
537.23	362.78
537.40	320.65
537.57	386.19
537.74	341.72
537.91	355.76
538.08	280.86
538.25	344.06
538.42	360.44
538.59	428.32
538.75	287.89
538.92	344.06
539.09	322.99
539.26	304.27
539.43	358.10
539.60	334.70
539.77	315.97
539.94	273.84
540.11	269.16
540.28	334.70
540.44	318.31
540.61	278.52
540.78	283.20
540.95	238.73
541.12	402.57
541.29	341.72
541.46	421.30
541.62	367.46
541.79	308.95
541.96	339.38
542.13	360.44
542.30	341.72
542.47	262.14
542.63	348.74
542.80	283.20
542.97	313.63
543.14	290.23
543.31	308.95
543.48	327.68
543.64	437.68
543.81	325.33
543.98	379.17
544.15	322.99
544.32	358.10
544.48	390.87
544.65	290.23
544.82	390.87
544.99	381.51
545.16	362.78
545.32	351.08
545.49	353.42
545.66	346.40
545.83	308.95
546.00	400.23
546.16	290.23
546.33	259.80
546.50	325.33
546.67	367.46
546.83	409.59
547.00	355.76
547.17	404.91
547.34	283.20
547.50	271.50
547.67	332.36
547.84	273.84
548.00	369.80
548.17	306.61
548.34	334.70
548.51	365.12
548.67	351.08
548.84	278.52
549.01	395.55
549.18	330.02
549.34	416.62
549.51	390.87
549.68	360.44
549.84	414.27
550.01	407.25
550.18	468.11
550.34	435.34
550.51	337.04
550.68	472.79
550.84	367.46
551.01	369.80
551.18	374.49
551.34	430.66
551.51	315.97
551.68	386.19
551.84	369.80
552.01	374.49
552.18	276.18
552.34	266.82
552.51	276.18
552.68	388.53
552.84	383.85
553.01	346.40
553.18	418.96
553.34	348.74
553.51	332.36
553.67	409.59
553.84	376.83
554.01	339.38
554.17	355.76
554.34	346.40
554.51	390.87
554.67	397.89
554.84	421.30
555.00	325.33
555.17	365.12
555.33	407.25
555.50	367.46
555.67	332.36
555.83	292.57
556.00	330.02
556.16	545.34
556.33	334.70
556.50	440.02
556.66	355.76
556.83	322.99
556.99	280.86
557.16	337.04
557.32	238.73
557.49	325.33
557.65	367.46
557.82	374.49
557.98	367.46
558.15	346.40
558.32	344.06
558.48	297.25
558.65	299.59
558.81	355.76
558.98	252.78
559.14	231.71
559.31	245.76
559.47	304.27
559.64	273.84
559.80	388.53
559.97	337.04
560.13	374.49
560.30	306.61
560.46	308.95
560.63	313.63
560.79	425.98
560.96	358.10
561.12	318.31
561.29	344.06
561.45	257.46
561.61	306.61
561.78	397.89
561.94	231.71
562.11	290.23
562.27	280.86
562.44	304.27
562.60	311.29
562.77	322.99
562.93	332.36
563.10	367.46
563.26	351.08
563.42	348.74
563.59	308.95
563.75	290.23
563.92	365.12
564.08	311.29
564.24	407.25
564.41	402.57
564.57	276.18
564.74	287.89
564.90	435.34
565.07	369.80
565.23	348.74
565.39	290.23
565.56	264.48
565.72	278.52
565.88	379.17
566.05	327.68
566.21	266.82
566.38	362.78
566.54	262.14
566.70	287.89
566.87	355.76
567.03	287.89
567.19	280.86
567.36	372.15
567.52	313.63
567.68	315.97
567.85	325.33
568.01	304.27
568.17	248.10
568.34	339.38
568.50	376.83
568.66	285.55
568.83	348.74
568.99	285.55
569.15	297.25
569.32	287.89
569.48	266.82
569.64	301.93
569.81	330.02
569.97	304.27
570.13	355.76
570.30	351.08
570.46	292.57
570.62	257.46
570.78	259.80
570.95	250.44
571.11	344.06
571.27	388.53
571.43	229.37
571.60	337.04
571.76	243.42
571.92	395.55
572.09	315.97
572.25	283.20
572.41	360.44
572.57	306.61
572.74	383.85
572.90	330.02
573.06	259.80
573.22	313.63
573.38	374.49
573.55	290.23
573.71	360.44
573.87	322.99
574.03	304.27
574.20	315.97
574.36	285.55
574.52	311.29
574.68	175.54
574.84	241.08
575.01	245.76
575.17	376.83
575.33	311.29
575.49	423.64
575.65	341.72
575.82	390.87
575.98	407.25
576.14	304.27
576.30	346.40
576.46	243.42
576.62	266.82
576.79	294.91
576.95	283.20
577.11	290.23
577.27	163.84
577.43	252.78
577.59	320.65
577.75	332.36
577.92	292.57
578.08	262.14
578.24	327.68
578.40	390.87
578.56	414.27
578.72	379.17
578.88	346.40
579.04	318.31
579.21	299.59
579.37	320.65
579.53	332.36
579.69	344.06
579.85	308.95
580.01	264.48
580.17	297.25
580.33	238.73
580.49	353.42
580.65	301.93
580.82	304.27
580.98	344.06
581.14	273.84
581.30	360.44
581.46	379.17
581.62	353.42
581.78	259.80
581.94	351.08
582.10	290.23
582.26	318.31
582.42	276.18
582.58	259.80
582.74	351.08
582.90	409.59
583.06	318.31
583.22	287.89
583.38	290.23
583.54	346.40
583.70	397.89
583.86	278.52
584.02	301.93
584.18	421.30
584.34	264.48
584.50	365.12
584.66	299.59
584.82	339.38
584.98	320.65
585.14	306.61
585.30	365.12
585.46	217.67
585.62	358.10
585.78	264.48
585.94	313.63
586.10	257.46
586.26	327.68
586.42	365.12
586.58	332.36
586.74	264.48
586.90	341.72
587.06	313.63
587.22	278.52
587.38	320.65
587.54	287.89
587.70	358.10
587.86	264.48
588.02	259.80
588.18	266.82
588.34	313.63
588.49	243.42
588.65	182.56
588.81	201.29
588.97	114.69
589.13	191.92
589.29	236.39
589.45	269.16
589.61	194.26
589.77	266.82
589.93	292.57
590.08	229.37
590.24	339.38
590.40	194.26
590.56	299.59
590.72	273.84
590.88	201.29
591.04	280.86
591.20	297.25
591.35	266.82
591.51	203.63
591.67	257.46
591.83	278.52
591.99	287.89
592.15	360.44
592.31	283.20
592.46	320.65
592.62	259.80
592.78	264.48
592.94	229.37
593.10	234.05
593.26	273.84
593.41	255.12
593.57	313.63
593.73	250.44
593.89	229.37
594.05	182.56
594.20	285.55
594.36	311.29
594.52	264.48
594.68	257.46
594.84	262.14
594.99	322.99
595.15	292.57
595.31	234.05
595.47	292.57
595.62	271.50
595.78	262.14
595.94	280.86
596.10	287.89
596.25	301.93
596.41	365.12
596.57	283.20
596.73	287.89
596.88	325.33
597.04	306.61
597.20	280.86
597.36	325.33
597.51	217.67
597.67	299.59
597.83	325.33
597.99	266.82
598.14	222.35
598.30	358.10
598.46	334.70
598.61	376.83
598.77	257.46
598.93	283.20
599.09	269.16
599.24	259.80
599.40	346.40
599.56	299.59
599.71	292.57
599.87	311.29
600.03	156.82
600.18	215.33
600.34	308.95
600.50	255.12
600.65	175.54
600.81	304.27
600.97	227.03
601.12	304.27
601.28	344.06
601.44	292.57
601.59	210.65
601.75	229.37
601.91	245.76
602.06	220.01
602.22	374.49
602.37	355.76
602.53	208.31
602.69	278.52
602.84	252.78
603.00	393.21
603.16	292.57
603.31	271.50
603.47	395.55
603.62	205.97
603.78	241.08
603.94	292.57
604.09	227.03
604.25	245.76
604.40	313.63
604.56	311.29
604.71	215.33
604.87	245.76
605.03	250.44
605.18	175.54
605.34	259.80
605.49	168.52
605.65	306.61
605.80	187.24
605.96	264.48
606.12	262.14
606.27	224.69
606.43	212.99
606.58	297.25
606.74	285.55
606.89	259.80
607.05	215.33
607.20	252.78
607.36	224.69
607.51	175.54
607.67	259.80
607.82	159.16
607.98	332.36
608.13	175.54
608.29	231.71
608.44	322.99
608.60	236.39
608.75	248.10
608.91	299.59
609.06	273.84
609.22	269.16
609.37	252.78
609.53	290.23
609.68	227.03
609.84	208.31
609.99	203.63
610.15	175.54
610.30	311.29
610.46	189.58
610.61	280.86
610.76	241.08
610.92	301.93
611.07	229.37
611.23	388.53
611.38	283.20
611.54	325.33
611.69	252.78
611.84	224.69
612.00	149.79
612.15	156.82
612.31	315.97
612.46	212.99
612.62	177.88
612.77	383.85
612.92	255.12
613.08	257.46
613.23	259.80
613.39	248.10
613.54	119.37
613.69	170.86
613.85	140.43
614.00	315.97
614.15	182.56
614.31	198.95
614.46	224.69
614.62	266.82
614.77	241.08
614.92	269.16
615.08	220.01
615.23	243.42
615.38	278.52
615.54	245.76
615.69	182.56
615.84	220.01
616.00	215.33
616.15	262.14
616.30	194.26
616.46	156.82
616.61	243.42
616.76	264.48
616.92	259.80
617.07	175.54
617.22	210.65
617.37	245.76
617.53	234.05
617.68	196.60
617.83	205.97
617.99	266.82
618.14	126.39
618.29	234.05
618.45	278.52
618.60	231.71
618.75	241.08
618.90	163.84
619.06	238.73
619.21	243.42
619.36	283.20
619.51	159.16
619.67	236.39
619.82	217.67
619.97	215.33
620.12	208.31
620.28	224.69
620.43	271.50
620.58	210.65
620.73	110.01
620.89	220.01
621.04	161.50
621.19	205.97
621.34	264.48
621.49	168.52
621.65	236.39
621.80	229.37
621.95	196.60
622.10	294.91
622.25	145.11
622.41	131.07
622.56	170.86
622.71	220.01
622.86	287.89
623.01	241.08
623.16	243.42
623.32	212.99
623.47	177.88
623.62	149.79
623.77	234.05
623.92	198.95
624.07	198.95
624.23	208.31
624.38	182.56
624.53	191.92
624.68	271.50
624.83	294.91
624.98	117.03
625.13	135.75
625.29	133.41
625.44	124.05
625.59	126.39
625.74	191.92
625.89	259.80
626.04	161.50
626.19	140.43
626.34	119.37
626.49	173.20
626.65	224.69
626.80	217.67
626.95	210.65
627.10	128.73
627.25	173.20
627.40	217.67
627.55	245.76
627.70	114.69
627.85	91.28
628.00	163.84
628.15	196.60
628.30	208.31
628.45	184.90
628.60	110.01
628.76	180.22
628.91	152.13
629.06	208.31
629.21	205.97
629.36	220.01
629.51	159.16
629.66	182.56
629.81	140.43
629.96	224.69
630.11	241.08
630.26	177.88
630.41	180.22
630.56	147.45
630.71	145.11
630.86	203.63
631.01	203.63
631.16	161.50
631.31	248.10
631.46	196.60
631.61	170.86
631.76	166.18
631.91	215.33
632.06	128.73
632.21	259.80
632.36	117.03
632.51	135.75
632.66	84.26
632.81	131.07
632.96	156.82
633.10	262.14
633.25	175.54
633.40	163.84
633.55	98.30
633.70	74.90
633.85	140.43
634.00	154.48
634.15	166.18
634.30	184.90
634.45	210.65
634.60	191.92
634.75	128.73
634.90	191.92
635.05	154.48
635.19	145.11
635.34	72.56
635.49	212.99
635.64	117.03
635.79	95.96
635.94	159.16
636.09	93.62
636.24	112.35
636.39	177.88
636.53	163.84
636.68	95.96
636.83	220.01
636.98	161.50
637.13	222.35
637.28	156.82
637.43	236.39
637.57	212.99
637.72	252.78
637.87	210.65
638.02	255.12
638.17	236.39
638.32	222.35
638.46	212.99
638.61	222.35
638.76	114.69
638.91	98.30
639.06	102.98
639.20	224.69
639.35	210.65
639.50	236.39
639.65	182.56
639.80	161.50
639.94	156.82
640.09	252.78
640.24	170.86
640.39	184.90
640.54	292.57
640.68	173.20
640.83	163.84
640.98	147.45
641.13	131.07
641.27	215.33
641.42	142.77
641.57	98.30
641.72	128.73
641.86	194.26
642.01	138.09
642.16	149.79
642.31	142.77
642.45	131.07
642.60	135.75
642.75	133.41
642.90	201.29
643.04	128.73
643.19	189.58
643.34	145.11
643.48	173.20
643.63	63.19
643.78	166.18
643.93	194.26
644.07	166.18
644.22	168.52
644.37	163.84
644.51	133.41
644.66	128.73
644.81	93.62
644.95	105.32
645.10	105.32
645.25	49.15
645.39	170.86
645.54	166.18
645.69	201.29
645.83	37.45
645.98	238.73
646.13	95.96
646.27	77.24
646.42	88.94
646.57	161.50
646.71	91.28
646.86	100.64
647.00	159.16
647.15	149.79
647.30	107.66
647.44	152.13
647.59	67.88
647.74	98.30
647.88	128.73
648.03	79.58
648.17	131.07
648.32	95.96
648.47	53.83
648.61	107.66
648.76	112.35
648.90	46.81
649.05	86.60
649.20	35.11
649.34	72.56
649.49	32.77
649.63	95.96
649.78	0.00
649.92	51.49
650.07	93.62
650.21	67.88
650.36	86.60
650.51	100.64
650.65	142.77
650.80	81.92
650.94	163.84
651.09	25.75
651.23	93.62
651.38	100.64
651.52	81.92
651.67	114.69
651.81	121.71
651.96	203.63
652.10	189.58
652.25	133.41
652.39	86.60
652.54	189.58
652.68	212.99
652.83	135.75
652.97	154.48
653.12	128.73
653.26	126.39
653.41	91.28
653.55	124.05
653.70	84.26
653.84	60.85
653.99	98.30
654.13	77.24
654.27	110.01
654.42	98.30
654.56	77.24
654.71	168.52
654.85	25.75
655.00	65.54
655.14	138.09
655.29	126.39
655.43	93.62
655.57	65.54
655.72	32.77
655.86	60.85
656.01	42.13
656.15	95.96
656.30	63.19
656.44	0.00
656.58	180.22
656.73	86.60
656.87	56.17
657.01	25.75
657.16	74.90
657.30	117.03
657.45	149.79
657.59	95.96
657.73	170.86
657.88	131.07
658.02	163.84
658.16	81.92
658.31	42.13
658.45	105.32
658.60	91.28
658.74	53.83
658.88	21.06
659.03	44.47
659.17	74.90
659.31	4.68
659.46	37.45
659.60	95.96
659.74	91.28
659.89	88.94
660.03	67.88
660.17	131.07
660.32	107.66
660.46	135.75
660.60	63.19
660.74	79.58
660.89	88.94
661.03	70.22
661.17	133.41
661.32	60.85
661.46	0.00
661.60	42.13
661.74	79.58
661.89	98.30
662.03	51.49
662.17	32.77
662.31	30.43
662.46	217.67
662.60	84.26
662.74	30.43
662.88	86.60
663.03	135.75
663.17	112.35
663.31	37.45
663.45	65.54
663.60	196.60
663.74	117.03
663.88	72.56
664.02	93.62
664.17	110.01
664.31	112.35
664.45	152.13
664.59	23.41
664.73	53.83
664.88	86.60
665.02	21.06
665.16	63.19
665.30	198.95
665.44	44.47
665.59	114.69
665.73	93.62
665.87	25.75
666.01	35.11
666.15	39.79
666.29	7.02
666.44	128.73
666.58	156.82
666.72	56.17
666.86	0.00
667.00	95.96
667.14	0.00
667.28	91.28
667.43	119.37
667.57	53.83
667.71	65.54
667.85	93.62
667.99	79.58
668.13	105.32
668.27	86.60
668.41	81.92
668.56	37.45
668.70	117.03
668.84	0.00
668.98	114.69
669.12	0.00
669.26	25.75
669.40	88.94
669.54	0.00
669.68	128.73
669.82	37.45
669.96	51.49
670.10	154.48
670.25	88.94
670.39	102.98
670.53	44.47
670.67	70.22
670.81	58.51
670.95	60.85
671.09	91.28
671.23	4.68
671.37	0.00
671.51	18.72
671.65	58.51
671.79	49.15
671.93	44.47
672.07	65.54
672.21	4.68
672.35	56.17
672.49	25.75
672.63	67.88
672.77	60.85
672.91	9.36
673.05	32.77
673.19	65.54
673.33	37.45
673.47	131.07
673.61	0.00
673.75	30.43
673.89	53.83
674.03	18.72
674.17	107.66
674.31	35.11
674.45	32.77
674.59	4.68
674.73	84.26
674.87	65.54
675.01	37.45
675.15	67.88
675.29	88.94
675.43	0.00
675.56	65.54
675.70	51.49
675.84	77.24
675.98	60.85
676.12	0.00
676.26	67.88
676.40	37.45
676.54	63.19
676.68	0.00
676.82	49.15
676.96	84.26
677.10	67.88
677.23	28.09
677.37	28.09
677.51	16.38
677.65	84.26
677.79	0.00
677.93	0.00
678.07	11.70
678.21	0.00
678.34	0.00
678.48	0.00
678.62	0.00
678.76	0.00
678.90	4.68
679.04	0.00
679.18	0.00
679.31	0.00
679.45	0.00
679.59	0.00
679.73	0.00
679.87	0.00
680.00	28.09
680.14	0.00
680.28	0.00
680.42	0.00
680.56	0.00
680.70	0.00
680.83	0.00
680.97	0.00
681.11	0.00
681.25	0.00
681.39	35.11
681.52	9.36
681.66	0.00
681.80	0.00
681.94	0.00
682.07	0.00
682.21	114.69
682.35	0.00
682.49	39.79
682.62	28.09
682.76	0.00
682.90	0.00
683.04	4.68
683.17	0.00
683.31	2.34
683.45	0.00
683.59	0.00
683.72	16.38
683.86	0.00
684.00	0.00
684.13	23.41
684.27	11.70
684.41	0.00
684.55	0.00
684.68	7.02
684.82	37.45
684.96	0.00
685.09	0.00
685.23	0.00
685.37	0.00
685.50	0.00
685.64	0.00
685.78	0.00
685.91	0.00
686.05	39.79
686.19	23.41
686.32	0.00
686.46	0.00
686.60	0.00
686.73	0.00
686.87	0.00
687.01	0.00
687.14	0.00
687.28	0.00
687.42	0.00
687.55	0.00
687.69	0.00
687.82	0.00
687.96	0.00
688.10	0.00
688.23	0.00
688.37	0.00
688.50	0.00
688.64	0.00
688.78	0.00
688.91	0.00
689.05	0.00
689.18	0.00
689.32	0.00
689.46	0.00
689.59	0.00
689.73	0.00
689.86	0.00
690.00	4.68
690.13	0.00
690.27	0.00
690.41	0.00
690.54	0.00
690.68	0.00
690.81	0.00
690.95	0.00
691.08	0.00
691.22	0.00
691.35	0.00
691.49	0.00
691.62	0.00
691.76	0.00
691.89	0.00
692.03	0.00
692.16	0.00
692.30	0.00
692.43	0.00
692.57	0.00
692.70	0.00
692.84	0.00
692.97	0.00
693.11	0.00
693.24	0.00
693.38	0.00
693.51	0.00
693.65	0.00
693.78	0.00
693.92	0.00
694.05	0.00
694.19	0.00
694.32	0.00
694.45	0.00
694.59	0.00
694.72	0.00
694.86	0.00
694.99	0.00
695.13	0.00
695.26	0.00
695.39	0.00
695.53	0.00
695.66	0.00
695.80	0.00
695.93	0.00
696.07	0.00
696.20	0.00
696.33	0.00
696.47	0.00
696.60	0.00
696.73	0.00
696.87	0.00
697.00	0.00
697.14	0.00
697.27	0.00
697.40	0.00
697.54	0.00
697.67	0.00
697.80	0.00
697.94	0.00
698.07	0.00
698.21	0.00
698.34	0.00
698.47	0.00
698.61	0.00
698.74	0.00
698.87	0.00
699.01	0.00
699.14	0.00
699.27	0.00
699.40	53.83
699.54	0.00
699.67	0.00
699.80	0.00
699.94	0.00
700.07	0.00
700.20	0.00
700.34	0.00
700.47	0.00
700.60	0.00
700.73	0.00
700.87	0.00
701.00	0.00
701.13	0.00
701.26	0.00
701.40	0.00
701.53	0.00
701.66	0.00
701.79	0.00
701.93	0.00
702.06	0.00
702.19	0.00
702.32	4.68
702.46	0.00
702.59	0.00
702.72	0.00
702.85	0.00
702.99	0.00
703.12	0.00
703.25	0.00
703.38	0.00
703.51	0.00
703.65	0.00
703.78	0.00
703.91	0.00
704.04	0.00
704.17	0.00
704.31	0.00
704.44	0.00
704.57	0.00
704.70	0.00
704.83	0.00
704.96	0.00
705.10	0.00
705.23	0.00
>>>>>End Processed Spectral Data<<<<<
