SpectraSuite Data File
++++++++++++++++++++++++++++++++++++
Date: Mon Oct 07 14:59:56 GMT-05:00 2013
User: price-jones
Dark Spectrum Present: No
Reference Spectrum Present: No
Number of Sampled Component Spectra: 1
Spectrometers: USB2+H05261
Integration Time (usec): 100000 (USB2+H05261)
Spectra Averaged: 1 (USB2+H05261)
Boxcar Smoothing: 0 (USB2+H05261)
Correct for Electrical Dark: No (USB2+H05261)
Strobe/Lamp Enabled: No (USB2+H05261)
Correct for Detector Non-linearity: No (USB2+H05261)
Correct for Stray Light: No (USB2+H05261)
Number of Pixels in Processed Spectrum: 2048
>>>>>Begin Processed Spectral Data<<<<<
365.73	0.00
365.92	0.00
366.12	0.00
366.32	0.00
366.52	0.00
366.72	0.00
366.91	0.00
367.11	0.00
367.31	0.00
367.51	0.00
367.70	0.00
367.90	0.00
368.10	0.00
368.30	0.00
368.49	0.00
368.69	0.00
368.89	0.00
369.09	0.00
369.28	0.00
369.48	0.00
369.68	0.00
369.87	0.00
370.07	0.00
370.27	0.00
370.47	0.00
370.66	0.00
370.86	0.00
371.06	0.00
371.25	0.00
371.45	0.00
371.65	0.00
371.84	0.00
372.04	0.00
372.24	0.00
372.44	0.00
372.63	0.00
372.83	0.00
373.03	0.00
373.22	0.00
373.42	0.00
373.62	0.00
373.81	0.00
374.01	0.00
374.21	0.00
374.40	0.00
374.60	0.00
374.79	0.00
374.99	0.00
375.19	0.00
375.38	0.00
375.58	0.00
375.78	0.00
375.97	0.00
376.17	0.00
376.37	0.00
376.56	0.00
376.76	0.00
376.95	0.00
377.15	0.00
377.35	0.00
377.54	0.00
377.74	0.00
377.93	0.00
378.13	0.00
378.33	0.00
378.52	0.00
378.72	0.00
378.91	0.00
379.11	0.00
379.31	0.00
379.50	0.00
379.70	0.00
379.89	0.00
380.09	0.00
380.28	0.00
380.48	0.00
380.68	0.00
380.87	0.00
381.07	0.00
381.26	0.00
381.46	0.00
381.65	0.00
381.85	0.00
382.04	0.00
382.24	0.00
382.43	0.00
382.63	0.00
382.83	0.00
383.02	0.00
383.22	0.00
383.41	0.00
383.61	0.00
383.80	0.00
384.00	0.00
384.19	0.00
384.39	0.00
384.58	0.00
384.78	0.00
384.97	0.00
385.17	0.00
385.36	0.00
385.56	0.00
385.75	0.00
385.95	0.00
386.14	0.00
386.34	0.00
386.53	0.00
386.72	0.00
386.92	0.00
387.11	0.00
387.31	0.00
387.50	0.00
387.70	0.00
387.89	0.00
388.09	0.00
388.28	0.00
388.48	0.00
388.67	0.00
388.86	0.00
389.06	0.00
389.25	0.00
389.45	0.00
389.64	0.00
389.84	0.00
390.03	0.00
390.22	0.00
390.42	0.00
390.61	0.00
390.81	0.00
391.00	0.00
391.19	0.00
391.39	0.00
391.58	0.00
391.78	0.00
391.97	0.00
392.16	0.00
392.36	0.00
392.55	0.00
392.75	0.00
392.94	0.00
393.13	0.00
393.33	0.00
393.52	0.00
393.71	0.00
393.91	0.00
394.10	0.00
394.29	0.00
394.49	0.00
394.68	0.00
394.88	0.00
395.07	0.00
395.26	0.00
395.46	0.00
395.65	0.00
395.84	0.00
396.04	0.00
396.23	0.00
396.42	0.00
396.62	0.00
396.81	0.00
397.00	0.00
397.19	0.00
397.39	0.00
397.58	0.00
397.77	0.00
397.97	0.00
398.16	0.00
398.35	0.00
398.55	0.00
398.74	0.00
398.93	0.00
399.12	0.00
399.32	0.00
399.51	0.00
399.70	0.00
399.90	0.00
400.09	0.00
400.28	0.00
400.47	0.00
400.67	0.00
400.86	0.00
401.05	0.00
401.24	0.00
401.44	0.00
401.63	0.00
401.82	0.00
402.01	0.00
402.21	0.00
402.40	0.00
402.59	0.00
402.78	0.00
402.97	0.00
403.17	0.00
403.36	0.00
403.55	0.00
403.74	0.00
403.93	0.00
404.13	0.00
404.32	0.00
404.51	0.00
404.70	0.00
404.89	0.00
405.09	0.00
405.28	0.00
405.47	0.00
405.66	0.00
405.85	0.00
406.05	0.00
406.24	0.00
406.43	0.00
406.62	0.00
406.81	0.00
407.00	0.00
407.20	0.00
407.39	0.00
407.58	0.00
407.77	0.00
407.96	0.00
408.15	0.00
408.34	0.00
408.54	0.00
408.73	0.00
408.92	0.00
409.11	0.00
409.30	0.00
409.49	0.00
409.68	0.00
409.87	0.00
410.07	0.00
410.26	0.00
410.45	0.00
410.64	0.00
410.83	0.00
411.02	0.00
411.21	0.00
411.40	0.00
411.59	0.00
411.78	0.00
411.98	0.00
412.17	0.00
412.36	0.00
412.55	0.00
412.74	0.00
412.93	0.00
413.12	0.00
413.31	0.00
413.50	0.00
413.69	0.00
413.88	0.00
414.07	0.00
414.26	0.00
414.45	0.00
414.64	0.00
414.83	0.00
415.02	0.00
415.22	0.00
415.41	0.00
415.60	0.00
415.79	0.00
415.98	0.00
416.17	0.00
416.36	0.00
416.55	0.00
416.74	0.00
416.93	0.00
417.12	0.00
417.31	0.00
417.50	0.00
417.69	0.00
417.88	0.00
418.07	0.00
418.26	0.00
418.45	0.00
418.64	0.00
418.83	0.00
419.02	0.00
419.21	0.00
419.39	0.00
419.58	0.00
419.77	0.00
419.96	0.00
420.15	0.00
420.34	0.00
420.53	0.00
420.72	0.00
420.91	0.00
421.10	0.00
421.29	0.00
421.48	0.00
421.67	0.00
421.86	0.00
422.05	0.00
422.24	0.00
422.43	0.00
422.61	0.00
422.80	0.00
422.99	0.00
423.18	0.00
423.37	0.00
423.56	0.00
423.75	0.00
423.94	0.00
424.13	0.00
424.32	0.00
424.50	0.00
424.69	0.00
424.88	0.00
425.07	0.00
425.26	0.00
425.45	0.00
425.64	0.00
425.83	0.00
426.01	0.00
426.20	0.00
426.39	0.00
426.58	0.00
426.77	0.00
426.96	0.00
427.15	0.00
427.33	0.00
427.52	0.00
427.71	0.00
427.90	0.00
428.09	0.00
428.28	0.00
428.46	0.00
428.65	0.00
428.84	0.00
429.03	0.00
429.22	0.00
429.40	0.00
429.59	0.00
429.78	0.00
429.97	0.00
430.16	0.00
430.34	0.00
430.53	0.00
430.72	0.00
430.91	0.00
431.10	0.00
431.28	0.00
431.47	0.00
431.66	0.00
431.85	0.00
432.03	0.00
432.22	0.00
432.41	0.00
432.60	0.00
432.79	0.00
432.97	0.00
433.16	0.00
433.35	0.00
433.54	0.00
433.72	0.00
433.91	0.00
434.10	0.00
434.28	0.00
434.47	0.00
434.66	0.00
434.85	0.00
435.03	0.00
435.22	0.00
435.41	0.00
435.59	0.00
435.78	0.00
435.97	0.00
436.16	0.00
436.34	0.00
436.53	0.00
436.72	0.00
436.90	0.00
437.09	0.00
437.28	0.00
437.46	0.00
437.65	0.00
437.84	0.00
438.02	0.00
438.21	0.00
438.40	0.00
438.58	0.00
438.77	0.00
438.96	0.00
439.14	0.00
439.33	0.00
439.52	0.00
439.70	0.00
439.89	0.00
440.08	0.00
440.26	0.00
440.45	4.68
440.63	0.00
440.82	0.00
441.01	0.00
441.19	0.00
441.38	0.00
441.57	0.00
441.75	0.00
441.94	0.00
442.12	0.00
442.31	0.00
442.50	0.00
442.68	0.00
442.87	0.00
443.05	0.00
443.24	0.00
443.43	0.00
443.61	0.00
443.80	0.00
443.98	0.00
444.17	0.00
444.35	0.00
444.54	0.00
444.73	0.00
444.91	0.00
445.10	0.00
445.28	0.00
445.47	0.00
445.65	0.00
445.84	0.00
446.02	0.00
446.21	0.00
446.39	0.00
446.58	0.00
446.77	0.00
446.95	0.00
447.14	0.00
447.32	0.00
447.51	0.00
447.69	0.00
447.88	0.00
448.06	16.38
448.25	0.00
448.43	0.00
448.62	0.00
448.80	0.00
448.99	0.00
449.17	0.00
449.36	0.00
449.54	11.70
449.73	9.36
449.91	0.00
450.10	0.00
450.28	0.00
450.46	86.60
450.65	21.06
450.83	0.00
451.02	0.00
451.20	0.00
451.39	0.00
451.57	2.34
451.76	0.00
451.94	0.00
452.13	0.00
452.31	0.00
452.49	0.00
452.68	0.00
452.86	0.00
453.05	0.00
453.23	0.00
453.42	0.00
453.60	0.00
453.78	0.00
453.97	0.00
454.15	0.00
454.34	0.00
454.52	0.00
454.70	23.41
454.89	0.00
455.07	7.02
455.26	0.00
455.44	0.00
455.62	0.00
455.81	0.00
455.99	0.00
456.17	11.70
456.36	0.00
456.54	0.00
456.73	0.00
456.91	0.00
457.09	7.02
457.28	14.04
457.46	0.00
457.64	9.36
457.83	0.00
458.01	0.00
458.19	0.00
458.38	0.00
458.56	0.00
458.74	0.00
458.93	14.04
459.11	9.36
459.29	0.00
459.48	0.00
459.66	0.00
459.84	0.00
460.03	149.79
460.21	2.34
460.39	0.00
460.57	0.00
460.76	0.00
460.94	0.00
461.12	56.17
461.31	0.00
461.49	23.41
461.67	0.00
461.85	2.34
462.04	39.79
462.22	517.26
462.40	25.75
462.59	14.04
462.77	0.00
462.95	0.00
463.13	0.00
463.32	7.02
463.50	4.68
463.68	0.00
463.86	0.00
464.05	0.00
464.23	74.90
464.41	0.00
464.59	0.00
464.78	0.00
464.96	0.00
465.14	28.09
465.32	0.00
465.50	0.00
465.69	7.02
465.87	0.00
466.05	16.38
466.23	0.00
466.41	0.00
466.60	0.00
466.78	0.00
466.96	0.00
467.14	0.00
467.32	0.00
467.51	0.00
467.69	0.00
467.87	35.11
468.05	0.00
468.23	14.04
468.41	44.47
468.60	0.00
468.78	0.00
468.96	16.38
469.14	16.38
469.32	14.04
469.50	0.00
469.69	14.04
469.87	0.00
470.05	18.72
470.23	0.00
470.41	0.00
470.59	0.00
470.77	21.06
470.95	0.00
471.14	51.49
471.32	65.54
471.50	37.45
471.68	0.00
471.86	9.36
472.04	0.00
472.22	0.00
472.40	16.38
472.58	0.00
472.77	0.00
472.95	0.00
473.13	11.70
473.31	67.88
473.49	0.00
473.67	0.00
473.85	0.00
474.03	25.75
474.21	25.75
474.39	0.00
474.57	65.54
474.75	0.00
474.93	0.00
475.12	9.36
475.30	4.68
475.48	0.00
475.66	88.94
475.84	0.00
476.02	60.85
476.20	51.49
476.38	67.88
476.56	131.07
476.74	0.00
476.92	14.04
477.10	0.00
477.28	9.36
477.46	0.00
477.64	23.41
477.82	25.75
478.00	37.45
478.18	7.02
478.36	0.00
478.54	14.04
478.72	4.68
478.90	88.94
479.08	11.70
479.26	70.22
479.44	77.24
479.62	21.06
479.80	46.81
479.98	35.11
480.16	21.06
480.34	67.88
480.52	23.41
480.70	91.28
480.88	37.45
481.06	4.68
481.24	77.24
481.41	65.54
481.59	95.96
481.77	70.22
481.95	0.00
482.13	175.54
482.31	86.60
482.49	25.75
482.67	173.20
482.85	170.86
483.03	46.81
483.21	25.75
483.39	0.00
483.57	0.00
483.74	42.13
483.92	86.60
484.10	46.81
484.28	65.54
484.46	138.09
484.64	102.98
484.82	25.75
485.00	65.54
485.18	56.17
485.35	114.69
485.53	0.00
485.71	63.19
485.89	18.72
486.07	35.11
486.25	128.73
486.43	49.15
486.61	147.45
486.78	102.98
486.96	16.38
487.14	142.77
487.32	21.06
487.50	110.01
487.68	105.32
487.85	65.54
488.03	51.49
488.21	100.64
488.39	49.15
488.57	72.56
488.75	72.56
488.92	372.15
489.10	145.11
489.28	156.82
489.46	161.50
489.64	114.69
489.81	159.16
489.99	124.05
490.17	170.86
490.35	250.44
490.53	140.43
490.70	93.62
490.88	227.03
491.06	152.13
491.24	145.11
491.41	140.43
491.59	147.45
491.77	114.69
491.95	149.79
492.13	72.56
492.30	131.07
492.48	128.73
492.66	131.07
492.84	210.65
493.01	243.42
493.19	60.85
493.37	184.90
493.54	156.82
493.72	196.60
493.90	147.45
494.08	44.47
494.25	140.43
494.43	227.03
494.61	182.56
494.79	58.51
494.96	182.56
495.14	187.24
495.32	222.35
495.49	166.18
495.67	173.20
495.85	173.20
496.02	234.05
496.20	191.92
496.38	161.50
496.55	217.67
496.73	217.67
496.91	248.10
497.09	220.01
497.26	236.39
497.44	168.52
497.62	210.65
497.79	107.66
497.97	159.16
498.14	182.56
498.32	201.29
498.50	217.67
498.67	273.84
498.85	163.84
499.03	273.84
499.20	189.58
499.38	248.10
499.56	173.20
499.73	273.84
499.91	231.71
500.08	234.05
500.26	168.52
500.44	177.88
500.61	142.77
500.79	173.20
500.97	257.46
501.14	203.63
501.32	203.63
501.49	208.31
501.67	161.50
501.84	194.26
502.02	229.37
502.20	236.39
502.37	191.92
502.55	177.88
502.72	250.44
502.90	243.42
503.07	259.80
503.25	231.71
503.43	149.79
503.60	194.26
503.78	184.90
503.95	245.76
504.13	142.77
504.30	290.23
504.48	220.01
504.65	259.80
504.83	229.37
505.01	234.05
505.18	194.26
505.36	273.84
505.53	189.58
505.71	337.04
505.88	248.10
506.06	301.93
506.23	315.97
506.41	166.18
506.58	285.55
506.76	273.84
506.93	147.45
507.11	215.33
507.28	175.54
507.46	238.73
507.63	294.91
507.81	140.43
507.98	269.16
508.16	205.97
508.33	238.73
508.50	297.25
508.68	276.18
508.85	257.46
509.03	318.31
509.20	184.90
509.38	278.52
509.55	252.78
509.73	208.31
509.90	278.52
510.08	252.78
510.25	255.12
510.42	271.50
510.60	212.99
510.77	341.72
510.95	376.83
511.12	215.33
511.30	198.95
511.47	299.59
511.64	337.04
511.82	308.95
511.99	269.16
512.17	255.12
512.34	255.12
512.51	222.35
512.69	283.20
512.86	243.42
513.04	320.65
513.21	212.99
513.38	238.73
513.56	189.58
513.73	224.69
513.90	198.95
514.08	194.26
514.25	208.31
514.43	332.36
514.60	196.60
514.77	273.84
514.95	278.52
515.12	241.08
515.29	250.44
515.47	433.00
515.64	315.97
515.81	236.39
515.99	358.10
516.16	217.67
516.33	257.46
516.51	231.71
516.68	93.62
516.85	163.84
517.03	238.73
517.20	320.65
517.37	322.99
517.54	315.97
517.72	280.86
517.89	262.14
518.06	294.91
518.24	287.89
518.41	355.76
518.58	252.78
518.75	266.82
518.93	166.18
519.10	283.20
519.27	257.46
519.45	248.10
519.62	262.14
519.79	283.20
519.96	278.52
520.14	280.86
520.31	278.52
520.48	203.63
520.65	297.25
520.83	322.99
521.00	252.78
521.17	262.14
521.34	252.78
521.52	290.23
521.69	294.91
521.86	355.76
522.03	337.04
522.20	285.55
522.38	245.76
522.55	287.89
522.72	182.56
522.89	311.29
523.07	433.00
523.24	287.89
523.41	339.38
523.58	255.12
523.75	330.02
523.92	362.78
524.10	259.80
524.27	301.93
524.44	339.38
524.61	341.72
524.78	278.52
524.96	315.97
525.13	280.86
525.30	320.65
525.47	351.08
525.64	365.12
525.81	264.48
525.98	304.27
526.16	283.20
526.33	236.39
526.50	276.18
526.67	231.71
526.84	236.39
527.01	238.73
527.18	315.97
527.36	369.80
527.53	280.86
527.70	297.25
527.87	292.57
528.04	325.33
528.21	234.05
528.38	353.42
528.55	433.00
528.72	411.93
528.89	376.83
529.07	318.31
529.24	337.04
529.41	451.72
529.58	236.39
529.75	358.10
529.92	327.68
530.09	318.31
530.26	320.65
530.43	322.99
530.60	330.02
530.77	327.68
530.94	463.43
531.11	313.63
531.28	266.82
531.46	320.65
531.63	381.51
531.80	332.36
531.97	360.44
532.14	379.17
532.31	348.74
532.48	315.97
532.65	374.49
532.82	262.14
532.99	290.23
533.16	315.97
533.33	322.99
533.50	330.02
533.67	362.78
533.84	337.04
534.01	351.08
534.18	390.87
534.35	243.42
534.52	390.87
534.69	425.98
534.86	311.29
535.03	322.99
535.20	344.06
535.37	433.00
535.54	388.53
535.71	231.71
535.88	402.57
536.05	369.80
536.22	386.19
536.38	325.33
536.55	339.38
536.72	414.27
536.89	273.84
537.06	266.82
537.23	248.10
537.40	416.62
537.57	278.52
537.74	337.04
537.91	339.38
538.08	348.74
538.25	390.87
538.42	381.51
538.59	353.42
538.75	297.25
538.92	386.19
539.09	365.12
539.26	287.89
539.43	388.53
539.60	304.27
539.77	440.02
539.94	353.42
540.11	283.20
540.28	276.18
540.44	360.44
540.61	297.25
540.78	236.39
540.95	285.55
541.12	362.78
541.29	339.38
541.46	512.58
541.62	365.12
541.79	393.21
541.96	287.89
542.13	355.76
542.30	337.04
542.47	358.10
542.63	306.61
542.80	339.38
542.97	362.78
543.14	355.76
543.31	367.46
543.48	322.99
543.64	367.46
543.81	372.15
543.98	311.29
544.15	355.76
544.32	318.31
544.48	325.33
544.65	353.42
544.82	372.15
544.99	325.33
545.16	351.08
545.32	308.95
545.49	411.93
545.66	325.33
545.83	266.82
546.00	346.40
546.16	388.53
546.33	334.70
546.50	367.46
546.67	433.00
546.83	313.63
547.00	330.02
547.17	320.65
547.34	311.29
547.50	362.78
547.67	315.97
547.84	365.12
548.00	397.89
548.17	337.04
548.34	332.36
548.51	390.87
548.67	404.91
548.84	388.53
549.01	337.04
549.18	355.76
549.34	353.42
549.51	269.16
549.68	372.15
549.84	332.36
550.01	348.74
550.18	564.07
550.34	381.51
550.51	397.89
550.68	423.64
550.84	318.31
551.01	341.72
551.18	477.47
551.34	386.19
551.51	313.63
551.68	322.99
551.84	367.46
552.01	332.36
552.18	351.08
552.34	355.76
552.51	362.78
552.68	416.62
552.84	346.40
553.01	355.76
553.18	414.27
553.34	306.61
553.51	212.99
553.67	435.34
553.84	325.33
554.01	365.12
554.17	355.76
554.34	458.74
554.51	407.25
554.67	430.66
554.84	327.68
555.00	416.62
555.17	418.96
555.33	400.23
555.50	421.30
555.67	411.93
555.83	367.46
556.00	407.25
556.16	528.96
556.33	407.25
556.50	351.08
556.66	362.78
556.83	339.38
556.99	290.23
557.16	390.87
557.32	346.40
557.49	374.49
557.65	358.10
557.82	306.61
557.98	351.08
558.15	283.20
558.32	287.89
558.48	278.52
558.65	334.70
558.81	273.84
558.98	315.97
559.14	369.80
559.31	362.78
559.47	313.63
559.64	362.78
559.80	315.97
559.97	381.51
560.13	362.78
560.30	362.78
560.46	330.02
560.63	404.91
560.79	393.21
560.96	245.76
561.12	292.57
561.29	320.65
561.45	292.57
561.61	390.87
561.78	465.77
561.94	381.51
562.11	290.23
562.27	334.70
562.44	348.74
562.60	313.63
562.77	320.65
562.93	477.47
563.10	292.57
563.26	358.10
563.42	315.97
563.59	355.76
563.75	318.31
563.92	325.33
564.08	339.38
564.24	320.65
564.41	301.93
564.57	320.65
564.74	423.64
564.90	299.59
565.07	327.68
565.23	325.33
565.39	353.42
565.56	318.31
565.72	325.33
565.88	278.52
566.05	304.27
566.21	322.99
566.38	362.78
566.54	351.08
566.70	376.83
566.87	287.89
567.03	280.86
567.19	259.80
567.36	369.80
567.52	351.08
567.68	344.06
567.85	409.59
568.01	353.42
568.17	255.12
568.34	311.29
568.50	388.53
568.66	280.86
568.83	435.34
568.99	301.93
569.15	444.70
569.32	355.76
569.48	276.18
569.64	301.93
569.81	238.73
569.97	292.57
570.13	348.74
570.30	332.36
570.46	311.29
570.62	315.97
570.78	311.29
570.95	264.48
571.11	287.89
571.27	416.62
571.43	320.65
571.60	362.78
571.76	444.70
571.92	404.91
572.09	299.59
572.25	278.52
572.41	280.86
572.57	330.02
572.74	353.42
572.90	330.02
573.06	252.78
573.22	416.62
573.38	376.83
573.55	330.02
573.71	367.46
573.87	325.33
574.03	402.57
574.20	339.38
574.36	379.17
574.52	320.65
574.68	313.63
574.84	322.99
575.01	287.89
575.17	416.62
575.33	294.91
575.49	367.46
575.65	264.48
575.82	264.48
575.98	348.74
576.14	346.40
576.30	337.04
576.46	330.02
576.62	423.64
576.79	360.44
576.95	381.51
577.11	262.14
577.27	266.82
577.43	395.55
577.59	308.95
577.75	278.52
577.92	273.84
578.08	287.89
578.24	243.42
578.40	369.80
578.56	369.80
578.72	320.65
578.88	283.20
579.04	411.93
579.21	330.02
579.37	449.38
579.53	315.97
579.69	381.51
579.85	334.70
580.01	325.33
580.17	327.68
580.33	262.14
580.49	320.65
580.65	440.02
580.82	379.17
580.98	271.50
581.14	313.63
581.30	367.46
581.46	271.50
581.62	388.53
581.78	383.85
581.94	273.84
582.10	383.85
582.26	330.02
582.42	322.99
582.58	315.97
582.74	332.36
582.90	330.02
583.06	374.49
583.22	365.12
583.38	313.63
583.54	287.89
583.70	400.23
583.86	442.36
584.02	313.63
584.18	351.08
584.34	280.86
584.50	278.52
584.66	337.04
584.82	257.46
584.98	362.78
585.14	348.74
585.30	325.33
585.46	365.12
585.62	327.68
585.78	334.70
585.94	234.05
586.10	390.87
586.26	290.23
586.42	409.59
586.58	369.80
586.74	376.83
586.90	299.59
587.06	311.29
587.22	367.46
587.38	325.33
587.54	301.93
587.70	257.46
587.86	234.05
588.02	315.97
588.18	304.27
588.34	304.27
588.49	217.67
588.65	217.67
588.81	250.44
588.97	229.37
589.13	189.58
589.29	215.33
589.45	234.05
589.61	301.93
589.77	266.82
589.93	229.37
590.08	290.23
590.24	297.25
590.40	332.36
590.56	322.99
590.72	322.99
590.88	292.57
591.04	308.95
591.20	386.19
591.35	313.63
591.51	325.33
591.67	306.61
591.83	320.65
591.99	276.18
592.15	402.57
592.31	322.99
592.46	285.55
592.62	327.68
592.78	315.97
592.94	292.57
593.10	273.84
593.26	212.99
593.41	252.78
593.57	262.14
593.73	287.89
593.89	250.44
594.05	280.86
594.20	285.55
594.36	313.63
594.52	285.55
594.68	334.70
594.84	313.63
594.99	306.61
595.15	308.95
595.31	311.29
595.47	351.08
595.62	313.63
595.78	386.19
595.94	238.73
596.10	315.97
596.25	325.33
596.41	290.23
596.57	259.80
596.73	304.27
596.88	287.89
597.04	320.65
597.20	315.97
597.36	304.27
597.51	262.14
597.67	318.31
597.83	227.03
597.99	248.10
598.14	348.74
598.30	243.42
598.46	355.76
598.61	297.25
598.77	315.97
598.93	287.89
599.09	332.36
599.24	320.65
599.40	271.50
599.56	273.84
599.71	341.72
599.87	255.12
600.03	264.48
600.18	248.10
600.34	367.46
600.50	276.18
600.65	255.12
600.81	278.52
600.97	273.84
601.12	306.61
601.28	325.33
601.44	330.02
601.59	304.27
601.75	395.55
601.91	278.52
602.06	283.20
602.22	376.83
602.37	259.80
602.53	332.36
602.69	245.76
602.84	264.48
603.00	313.63
603.16	386.19
603.31	362.78
603.47	248.10
603.62	234.05
603.78	318.31
603.94	287.89
604.09	325.33
604.25	344.06
604.40	306.61
604.56	198.95
604.71	332.36
604.87	290.23
605.03	311.29
605.18	243.42
605.34	367.46
605.49	341.72
605.65	269.16
605.80	255.12
605.96	264.48
606.12	234.05
606.27	301.93
606.43	304.27
606.58	276.18
606.74	259.80
606.89	248.10
607.05	301.93
607.20	229.37
607.36	269.16
607.51	304.27
607.67	276.18
607.82	264.48
607.98	334.70
608.13	294.91
608.29	280.86
608.44	311.29
608.60	215.33
608.75	264.48
608.91	266.82
609.06	306.61
609.22	224.69
609.37	229.37
609.53	306.61
609.68	234.05
609.84	205.97
609.99	189.58
610.15	243.42
610.30	264.48
610.46	271.50
610.61	187.24
610.76	315.97
610.92	337.04
611.07	269.16
611.23	301.93
611.38	259.80
611.54	294.91
611.69	252.78
611.84	243.42
612.00	229.37
612.15	177.88
612.31	231.71
612.46	252.78
612.62	259.80
612.77	215.33
612.92	243.42
613.08	290.23
613.23	196.60
613.39	234.05
613.54	168.52
613.69	163.84
613.85	168.52
614.00	259.80
614.15	250.44
614.31	198.95
614.46	255.12
614.62	243.42
614.77	236.39
614.92	315.97
615.08	166.18
615.23	224.69
615.38	248.10
615.54	229.37
615.69	245.76
615.84	217.67
616.00	198.95
616.15	304.27
616.30	175.54
616.46	196.60
616.61	126.39
616.76	252.78
616.92	182.56
617.07	175.54
617.22	220.01
617.37	191.92
617.53	210.65
617.68	259.80
617.83	215.33
617.99	299.59
618.14	245.76
618.29	278.52
618.45	208.31
618.60	184.90
618.75	208.31
618.90	241.08
619.06	210.65
619.21	287.89
619.36	278.52
619.51	250.44
619.67	283.20
619.82	234.05
619.97	210.65
620.12	229.37
620.28	215.33
620.43	285.55
620.58	304.27
620.73	250.44
620.89	224.69
621.04	280.86
621.19	330.02
621.34	173.20
621.49	215.33
621.65	189.58
621.80	224.69
621.95	159.16
622.10	273.84
622.25	210.65
622.41	205.97
622.56	201.29
622.71	184.90
622.86	201.29
623.01	128.73
623.16	287.89
623.32	198.95
623.47	196.60
623.62	231.71
623.77	259.80
623.92	161.50
624.07	152.13
624.23	152.13
624.38	147.45
624.53	184.90
624.68	175.54
624.83	257.46
624.98	138.09
625.13	215.33
625.29	133.41
625.44	208.31
625.59	250.44
625.74	231.71
625.89	252.78
626.04	236.39
626.19	166.18
626.34	241.08
626.49	91.28
626.65	191.92
626.80	231.71
626.95	119.37
627.10	182.56
627.25	248.10
627.40	194.26
627.55	161.50
627.70	163.84
627.85	227.03
628.00	250.44
628.15	234.05
628.30	259.80
628.45	93.62
628.60	142.77
628.76	133.41
628.91	217.67
629.06	126.39
629.21	224.69
629.36	180.22
629.51	205.97
629.66	142.77
629.81	131.07
629.96	208.31
630.11	241.08
630.26	198.95
630.41	93.62
630.56	191.92
630.71	184.90
630.86	180.22
631.01	140.43
631.16	112.35
631.31	203.63
631.46	215.33
631.61	168.52
631.76	212.99
631.91	110.01
632.06	170.86
632.21	180.22
632.36	285.55
632.51	222.35
632.66	234.05
632.81	187.24
632.96	189.58
633.10	154.48
633.25	166.18
633.40	177.88
633.55	224.69
633.70	170.86
633.85	170.86
634.00	14.04
634.15	156.82
634.30	156.82
634.45	198.95
634.60	236.39
634.75	203.63
634.90	241.08
635.05	81.92
635.19	201.29
635.34	196.60
635.49	173.20
635.64	112.35
635.79	154.48
635.94	187.24
636.09	201.29
636.24	189.58
636.39	161.50
636.53	201.29
636.68	58.51
636.83	147.45
636.98	210.65
637.13	159.16
637.28	208.31
637.43	231.71
637.57	208.31
637.72	217.67
637.87	215.33
638.02	210.65
638.17	142.77
638.32	269.16
638.46	159.16
638.61	234.05
638.76	128.73
638.91	161.50
639.06	126.39
639.20	227.03
639.35	173.20
639.50	147.45
639.65	273.84
639.80	215.33
639.94	154.48
640.09	208.31
640.24	194.26
640.39	255.12
640.54	112.35
640.68	191.92
640.83	173.20
640.98	177.88
641.13	161.50
641.27	161.50
641.42	100.64
641.57	250.44
641.72	121.71
641.86	135.75
642.01	98.30
642.16	163.84
642.31	184.90
642.45	147.45
642.60	147.45
642.75	142.77
642.90	184.90
643.04	119.37
643.19	177.88
643.34	135.75
643.48	142.77
643.63	131.07
643.78	154.48
643.93	142.77
644.07	196.60
644.22	149.79
644.37	112.35
644.51	196.60
644.66	138.09
644.81	138.09
644.95	138.09
645.10	184.90
645.25	149.79
645.39	262.14
645.54	184.90
645.69	112.35
645.83	131.07
645.98	159.16
646.13	152.13
646.27	187.24
646.42	194.26
646.57	114.69
646.71	124.05
646.86	107.66
647.00	72.56
647.15	152.13
647.30	53.83
647.44	163.84
647.59	128.73
647.74	77.24
647.88	182.56
648.03	42.13
648.17	135.75
648.32	77.24
648.47	135.75
648.61	147.45
648.76	77.24
648.90	126.39
649.05	98.30
649.20	0.00
649.34	16.38
649.49	49.15
649.63	145.11
649.78	79.58
649.92	81.92
650.07	114.69
650.21	117.03
650.36	154.48
650.51	67.88
650.65	184.90
650.80	131.07
650.94	56.17
651.09	184.90
651.23	56.17
651.38	56.17
651.52	126.39
651.67	117.03
651.81	102.98
651.96	191.92
652.10	191.92
652.25	140.43
652.39	102.98
652.54	138.09
652.68	131.07
652.83	147.45
652.97	210.65
653.12	191.92
653.26	161.50
653.41	184.90
653.55	102.98
653.70	32.77
653.84	93.62
653.99	166.18
654.13	81.92
654.27	117.03
654.42	84.26
654.56	180.22
654.71	98.30
654.85	79.58
655.00	74.90
655.14	117.03
655.29	126.39
655.43	124.05
655.57	93.62
655.72	46.81
655.86	107.66
656.01	16.38
656.15	58.51
656.30	121.71
656.44	23.41
656.58	145.11
656.73	44.47
656.87	70.22
657.01	70.22
657.16	112.35
657.30	154.48
657.45	163.84
657.59	51.49
657.73	121.71
657.88	124.05
658.02	220.01
658.16	184.90
658.31	93.62
658.45	93.62
658.60	65.54
658.74	58.51
658.88	154.48
659.03	25.75
659.17	98.30
659.31	105.32
659.46	46.81
659.60	65.54
659.74	168.52
659.89	100.64
660.03	86.60
660.17	163.84
660.32	65.54
660.46	65.54
660.60	0.00
660.74	187.24
660.89	63.19
661.03	44.47
661.17	79.58
661.32	112.35
661.46	119.37
661.60	39.79
661.74	98.30
661.89	161.50
662.03	98.30
662.17	163.84
662.31	124.05
662.46	168.52
662.60	124.05
662.74	117.03
662.88	65.54
663.03	93.62
663.17	112.35
663.31	0.00
663.45	79.58
663.60	74.90
663.74	95.96
663.88	84.26
664.02	72.56
664.17	51.49
664.31	79.58
664.45	70.22
664.59	145.11
664.73	105.32
664.88	133.41
665.02	70.22
665.16	95.96
665.30	65.54
665.44	173.20
665.59	4.68
665.73	70.22
665.87	74.90
666.01	100.64
666.15	58.51
666.29	0.00
666.44	159.16
666.58	145.11
666.72	100.64
666.86	44.47
667.00	128.73
667.14	51.49
667.28	88.94
667.43	58.51
667.57	145.11
667.71	119.37
667.85	49.15
667.99	100.64
668.13	107.66
668.27	119.37
668.41	58.51
668.56	63.19
668.70	131.07
668.84	18.72
668.98	124.05
669.12	88.94
669.26	51.49
669.40	241.08
669.54	35.11
669.68	128.73
669.82	53.83
669.96	79.58
670.10	131.07
670.25	56.17
670.39	0.00
670.53	0.00
670.67	67.88
670.81	0.00
670.95	100.64
671.09	126.39
671.23	56.17
671.37	91.28
671.51	46.81
671.65	126.39
671.79	53.83
671.93	102.98
672.07	191.92
672.21	81.92
672.35	28.09
672.49	39.79
672.63	84.26
672.77	18.72
672.91	28.09
673.05	63.19
673.19	102.98
673.33	67.88
673.47	98.30
673.61	63.19
673.75	0.00
673.89	30.43
674.03	72.56
674.17	100.64
674.31	46.81
674.45	0.00
674.59	72.56
674.73	21.06
674.87	56.17
675.01	28.09
675.15	102.98
675.29	117.03
675.43	147.45
675.56	121.71
675.70	21.06
675.84	0.00
675.98	46.81
676.12	0.00
676.26	37.45
676.40	11.70
676.54	11.70
676.68	4.68
676.82	37.45
676.96	9.36
677.10	42.13
677.23	25.75
677.37	0.00
677.51	79.58
677.65	149.79
677.79	0.00
677.93	0.00
678.07	0.00
678.21	0.00
678.34	56.17
678.48	0.00
678.62	93.62
678.76	9.36
678.90	51.49
679.04	0.00
679.18	11.70
679.31	9.36
679.45	0.00
679.59	0.00
679.73	53.83
679.87	0.00
680.00	67.88
680.14	0.00
680.28	16.38
680.42	0.00
680.56	42.13
680.70	46.81
680.83	121.71
680.97	0.00
681.11	58.51
681.25	35.11
681.39	0.00
681.52	0.00
681.66	51.49
681.80	25.75
681.94	0.00
682.07	30.43
682.21	4.68
682.35	0.00
682.49	0.00
682.62	63.19
682.76	0.00
682.90	0.00
683.04	70.22
683.17	39.79
683.31	0.00
683.45	16.38
683.59	0.00
683.72	23.41
683.86	0.00
684.00	0.00
684.13	58.51
684.27	25.75
684.41	72.56
684.55	0.00
684.68	2.34
684.82	0.00
684.96	0.00
685.09	14.04
685.23	0.00
685.37	0.00
685.50	0.00
685.64	23.41
685.78	0.00
685.91	0.00
686.05	21.06
686.19	0.00
686.32	0.00
686.46	0.00
686.60	0.00
686.73	0.00
686.87	0.00
687.01	0.00
687.14	0.00
687.28	0.00
687.42	0.00
687.55	0.00
687.69	16.38
687.82	0.00
687.96	0.00
688.10	35.11
688.23	0.00
688.37	0.00
688.50	25.75
688.64	0.00
688.78	0.00
688.91	0.00
689.05	0.00
689.18	0.00
689.32	18.72
689.46	0.00
689.59	0.00
689.73	9.36
689.86	0.00
690.00	0.00
690.13	46.81
690.27	0.00
690.41	0.00
690.54	0.00
690.68	0.00
690.81	0.00
690.95	0.00
691.08	0.00
691.22	0.00
691.35	0.00
691.49	0.00
691.62	0.00
691.76	0.00
691.89	0.00
692.03	0.00
692.16	0.00
692.30	0.00
692.43	0.00
692.57	0.00
692.70	0.00
692.84	0.00
692.97	0.00
693.11	0.00
693.24	0.00
693.38	0.00
693.51	0.00
693.65	0.00
693.78	0.00
693.92	0.00
694.05	0.00
694.19	0.00
694.32	0.00
694.45	0.00
694.59	0.00
694.72	0.00
694.86	0.00
694.99	0.00
695.13	0.00
695.26	0.00
695.39	11.70
695.53	0.00
695.66	0.00
695.80	0.00
695.93	0.00
696.07	0.00
696.20	0.00
696.33	0.00
696.47	0.00
696.60	0.00
696.73	0.00
696.87	0.00
697.00	0.00
697.14	0.00
697.27	0.00
697.40	28.09
697.54	0.00
697.67	0.00
697.80	0.00
697.94	0.00
698.07	0.00
698.21	0.00
698.34	0.00
698.47	0.00
698.61	0.00
698.74	0.00
698.87	0.00
699.01	0.00
699.14	0.00
699.27	0.00
699.40	0.00
699.54	0.00
699.67	0.00
699.80	0.00
699.94	0.00
700.07	0.00
700.20	0.00
700.34	0.00
700.47	0.00
700.60	0.00
700.73	0.00
700.87	0.00
701.00	0.00
701.13	0.00
701.26	0.00
701.40	0.00
701.53	0.00
701.66	0.00
701.79	0.00
701.93	0.00
702.06	0.00
702.19	0.00
702.32	0.00
702.46	0.00
702.59	0.00
702.72	0.00
702.85	0.00
702.99	0.00
703.12	0.00
703.25	0.00
703.38	0.00
703.51	0.00
703.65	0.00
703.78	0.00
703.91	0.00
704.04	0.00
704.17	0.00
704.31	0.00
704.44	0.00
704.57	0.00
704.70	0.00
704.83	0.00
704.96	0.00
705.10	0.00
705.23	0.00
>>>>>End Processed Spectral Data<<<<<
