SpectraSuite Data File
++++++++++++++++++++++++++++++++++++
Date: Mon Oct 07 14:59:59 GMT-05:00 2013
User: price-jones
Dark Spectrum Present: No
Reference Spectrum Present: No
Number of Sampled Component Spectra: 1
Spectrometers: USB2+H05261
Integration Time (usec): 100000 (USB2+H05261)
Spectra Averaged: 1 (USB2+H05261)
Boxcar Smoothing: 0 (USB2+H05261)
Correct for Electrical Dark: No (USB2+H05261)
Strobe/Lamp Enabled: No (USB2+H05261)
Correct for Detector Non-linearity: No (USB2+H05261)
Correct for Stray Light: No (USB2+H05261)
Number of Pixels in Processed Spectrum: 2048
>>>>>Begin Processed Spectral Data<<<<<
365.73	0.00
365.92	0.00
366.12	0.00
366.32	0.00
366.52	0.00
366.72	0.00
366.91	0.00
367.11	0.00
367.31	0.00
367.51	0.00
367.70	0.00
367.90	0.00
368.10	0.00
368.30	0.00
368.49	0.00
368.69	0.00
368.89	0.00
369.09	0.00
369.28	0.00
369.48	0.00
369.68	0.00
369.87	0.00
370.07	0.00
370.27	0.00
370.47	0.00
370.66	0.00
370.86	0.00
371.06	0.00
371.25	0.00
371.45	0.00
371.65	0.00
371.84	0.00
372.04	0.00
372.24	0.00
372.44	0.00
372.63	0.00
372.83	0.00
373.03	0.00
373.22	0.00
373.42	0.00
373.62	0.00
373.81	0.00
374.01	0.00
374.21	0.00
374.40	0.00
374.60	0.00
374.79	0.00
374.99	0.00
375.19	0.00
375.38	0.00
375.58	0.00
375.78	0.00
375.97	0.00
376.17	0.00
376.37	0.00
376.56	0.00
376.76	0.00
376.95	0.00
377.15	0.00
377.35	0.00
377.54	0.00
377.74	0.00
377.93	0.00
378.13	0.00
378.33	0.00
378.52	0.00
378.72	0.00
378.91	0.00
379.11	0.00
379.31	0.00
379.50	0.00
379.70	0.00
379.89	0.00
380.09	0.00
380.28	0.00
380.48	0.00
380.68	0.00
380.87	0.00
381.07	0.00
381.26	0.00
381.46	0.00
381.65	0.00
381.85	0.00
382.04	0.00
382.24	0.00
382.43	0.00
382.63	0.00
382.83	0.00
383.02	0.00
383.22	0.00
383.41	0.00
383.61	0.00
383.80	0.00
384.00	0.00
384.19	0.00
384.39	0.00
384.58	0.00
384.78	0.00
384.97	0.00
385.17	0.00
385.36	0.00
385.56	0.00
385.75	0.00
385.95	0.00
386.14	0.00
386.34	0.00
386.53	0.00
386.72	0.00
386.92	0.00
387.11	0.00
387.31	0.00
387.50	0.00
387.70	0.00
387.89	0.00
388.09	0.00
388.28	0.00
388.48	0.00
388.67	0.00
388.86	0.00
389.06	0.00
389.25	0.00
389.45	0.00
389.64	0.00
389.84	0.00
390.03	0.00
390.22	0.00
390.42	0.00
390.61	0.00
390.81	0.00
391.00	0.00
391.19	0.00
391.39	0.00
391.58	0.00
391.78	0.00
391.97	0.00
392.16	0.00
392.36	0.00
392.55	0.00
392.75	0.00
392.94	0.00
393.13	0.00
393.33	0.00
393.52	0.00
393.71	0.00
393.91	0.00
394.10	0.00
394.29	0.00
394.49	0.00
394.68	0.00
394.88	0.00
395.07	0.00
395.26	0.00
395.46	0.00
395.65	0.00
395.84	0.00
396.04	0.00
396.23	0.00
396.42	0.00
396.62	0.00
396.81	0.00
397.00	0.00
397.19	0.00
397.39	0.00
397.58	0.00
397.77	0.00
397.97	0.00
398.16	0.00
398.35	0.00
398.55	0.00
398.74	0.00
398.93	0.00
399.12	0.00
399.32	0.00
399.51	0.00
399.70	0.00
399.90	0.00
400.09	0.00
400.28	0.00
400.47	0.00
400.67	0.00
400.86	0.00
401.05	0.00
401.24	0.00
401.44	0.00
401.63	0.00
401.82	0.00
402.01	0.00
402.21	0.00
402.40	0.00
402.59	0.00
402.78	0.00
402.97	0.00
403.17	0.00
403.36	0.00
403.55	0.00
403.74	0.00
403.93	0.00
404.13	0.00
404.32	0.00
404.51	0.00
404.70	0.00
404.89	0.00
405.09	0.00
405.28	0.00
405.47	0.00
405.66	0.00
405.85	0.00
406.05	0.00
406.24	0.00
406.43	0.00
406.62	0.00
406.81	0.00
407.00	0.00
407.20	0.00
407.39	0.00
407.58	0.00
407.77	0.00
407.96	0.00
408.15	0.00
408.34	0.00
408.54	0.00
408.73	0.00
408.92	0.00
409.11	0.00
409.30	0.00
409.49	0.00
409.68	0.00
409.87	0.00
410.07	0.00
410.26	0.00
410.45	0.00
410.64	0.00
410.83	0.00
411.02	0.00
411.21	0.00
411.40	0.00
411.59	0.00
411.78	0.00
411.98	0.00
412.17	0.00
412.36	0.00
412.55	0.00
412.74	0.00
412.93	0.00
413.12	0.00
413.31	0.00
413.50	0.00
413.69	0.00
413.88	0.00
414.07	0.00
414.26	0.00
414.45	0.00
414.64	0.00
414.83	0.00
415.02	0.00
415.22	0.00
415.41	0.00
415.60	0.00
415.79	0.00
415.98	0.00
416.17	0.00
416.36	0.00
416.55	0.00
416.74	0.00
416.93	0.00
417.12	0.00
417.31	0.00
417.50	0.00
417.69	0.00
417.88	0.00
418.07	0.00
418.26	0.00
418.45	0.00
418.64	0.00
418.83	0.00
419.02	0.00
419.21	0.00
419.39	0.00
419.58	0.00
419.77	0.00
419.96	0.00
420.15	0.00
420.34	0.00
420.53	0.00
420.72	0.00
420.91	0.00
421.10	0.00
421.29	0.00
421.48	0.00
421.67	0.00
421.86	0.00
422.05	0.00
422.24	0.00
422.43	0.00
422.61	0.00
422.80	0.00
422.99	0.00
423.18	0.00
423.37	0.00
423.56	0.00
423.75	0.00
423.94	0.00
424.13	0.00
424.32	0.00
424.50	0.00
424.69	0.00
424.88	0.00
425.07	0.00
425.26	0.00
425.45	0.00
425.64	0.00
425.83	0.00
426.01	0.00
426.20	0.00
426.39	0.00
426.58	0.00
426.77	0.00
426.96	0.00
427.15	0.00
427.33	0.00
427.52	0.00
427.71	0.00
427.90	0.00
428.09	0.00
428.28	0.00
428.46	0.00
428.65	0.00
428.84	0.00
429.03	0.00
429.22	0.00
429.40	0.00
429.59	0.00
429.78	0.00
429.97	0.00
430.16	0.00
430.34	0.00
430.53	0.00
430.72	0.00
430.91	0.00
431.10	0.00
431.28	0.00
431.47	0.00
431.66	0.00
431.85	0.00
432.03	0.00
432.22	0.00
432.41	0.00
432.60	0.00
432.79	0.00
432.97	0.00
433.16	0.00
433.35	0.00
433.54	0.00
433.72	0.00
433.91	0.00
434.10	0.00
434.28	0.00
434.47	0.00
434.66	0.00
434.85	0.00
435.03	0.00
435.22	0.00
435.41	0.00
435.59	0.00
435.78	0.00
435.97	0.00
436.16	0.00
436.34	0.00
436.53	0.00
436.72	0.00
436.90	0.00
437.09	0.00
437.28	0.00
437.46	0.00
437.65	0.00
437.84	0.00
438.02	0.00
438.21	0.00
438.40	0.00
438.58	0.00
438.77	0.00
438.96	0.00
439.14	0.00
439.33	0.00
439.52	0.00
439.70	0.00
439.89	0.00
440.08	0.00
440.26	0.00
440.45	0.00
440.63	0.00
440.82	0.00
441.01	0.00
441.19	0.00
441.38	0.00
441.57	0.00
441.75	0.00
441.94	0.00
442.12	0.00
442.31	0.00
442.50	0.00
442.68	0.00
442.87	0.00
443.05	0.00
443.24	0.00
443.43	0.00
443.61	0.00
443.80	0.00
443.98	0.00
444.17	0.00
444.35	0.00
444.54	0.00
444.73	0.00
444.91	0.00
445.10	0.00
445.28	0.00
445.47	0.00
445.65	0.00
445.84	0.00
446.02	0.00
446.21	0.00
446.39	0.00
446.58	0.00
446.77	0.00
446.95	16.38
447.14	0.00
447.32	0.00
447.51	0.00
447.69	0.00
447.88	0.00
448.06	9.36
448.25	0.00
448.43	0.00
448.62	0.00
448.80	0.00
448.99	49.15
449.17	0.00
449.36	0.00
449.54	0.00
449.73	16.38
449.91	0.00
450.10	14.04
450.28	28.09
450.46	44.47
450.65	0.00
450.83	0.00
451.02	0.00
451.20	0.00
451.39	0.00
451.57	0.00
451.76	0.00
451.94	0.00
452.13	0.00
452.31	70.22
452.49	0.00
452.68	0.00
452.86	0.00
453.05	35.11
453.23	0.00
453.42	0.00
453.60	0.00
453.78	0.00
453.97	0.00
454.15	0.00
454.34	0.00
454.52	0.00
454.70	0.00
454.89	0.00
455.07	0.00
455.26	0.00
455.44	0.00
455.62	0.00
455.81	0.00
455.99	0.00
456.17	0.00
456.36	0.00
456.54	0.00
456.73	0.00
456.91	0.00
457.09	0.00
457.28	16.38
457.46	0.00
457.64	0.00
457.83	0.00
458.01	0.00
458.19	0.00
458.38	0.00
458.56	0.00
458.74	0.00
458.93	0.00
459.11	0.00
459.29	0.00
459.48	0.00
459.66	25.75
459.84	0.00
460.03	84.26
460.21	23.41
460.39	0.00
460.57	0.00
460.76	0.00
460.94	0.00
461.12	37.45
461.31	0.00
461.49	0.00
461.67	23.41
461.85	0.00
462.04	0.00
462.22	631.94
462.40	11.70
462.59	0.00
462.77	0.00
462.95	0.00
463.13	0.00
463.32	39.79
463.50	9.36
463.68	0.00
463.86	28.09
464.05	0.00
464.23	0.00
464.41	0.00
464.59	0.00
464.78	0.00
464.96	0.00
465.14	0.00
465.32	0.00
465.50	0.00
465.69	49.15
465.87	4.68
466.05	9.36
466.23	0.00
466.41	0.00
466.60	0.00
466.78	0.00
466.96	79.58
467.14	0.00
467.32	0.00
467.51	0.00
467.69	0.00
467.87	56.17
468.05	0.00
468.23	35.11
468.41	21.06
468.60	0.00
468.78	0.00
468.96	0.00
469.14	0.00
469.32	0.00
469.50	0.00
469.69	14.04
469.87	0.00
470.05	0.00
470.23	0.00
470.41	0.00
470.59	0.00
470.77	2.34
470.95	0.00
471.14	0.00
471.32	4.68
471.50	0.00
471.68	0.00
471.86	0.00
472.04	0.00
472.22	30.43
472.40	0.00
472.58	18.72
472.77	0.00
472.95	0.00
473.13	63.19
473.31	23.41
473.49	0.00
473.67	4.68
473.85	49.15
474.03	58.51
474.21	0.00
474.39	53.83
474.57	25.75
474.75	0.00
474.93	18.72
475.12	0.00
475.30	49.15
475.48	0.00
475.66	0.00
475.84	0.00
476.02	0.00
476.20	28.09
476.38	0.00
476.56	95.96
476.74	0.00
476.92	14.04
477.10	49.15
477.28	0.00
477.46	35.11
477.64	119.37
477.82	35.11
478.00	74.90
478.18	77.24
478.36	16.38
478.54	0.00
478.72	9.36
478.90	60.85
479.08	56.17
479.26	65.54
479.44	0.00
479.62	117.03
479.80	25.75
479.98	2.34
480.16	18.72
480.34	154.48
480.52	93.62
480.70	4.68
480.88	28.09
481.06	39.79
481.24	37.45
481.41	44.47
481.59	131.07
481.77	32.77
481.95	81.92
482.13	74.90
482.31	39.79
482.49	100.64
482.67	49.15
482.85	93.62
483.03	88.94
483.21	98.30
483.39	49.15
483.57	4.68
483.74	56.17
483.92	35.11
484.10	35.11
484.28	93.62
484.46	180.22
484.64	0.00
484.82	100.64
485.00	46.81
485.18	84.26
485.35	70.22
485.53	14.04
485.71	100.64
485.89	21.06
486.07	88.94
486.25	84.26
486.43	63.19
486.61	133.41
486.78	7.02
486.96	74.90
487.14	14.04
487.32	84.26
487.50	25.75
487.68	107.66
487.85	23.41
488.03	102.98
488.21	154.48
488.39	133.41
488.57	100.64
488.75	53.83
488.92	454.06
489.10	124.05
489.28	154.48
489.46	131.07
489.64	133.41
489.81	229.37
489.99	105.32
490.17	142.77
490.35	266.82
490.53	170.86
490.70	100.64
490.88	128.73
491.06	102.98
491.24	77.24
491.41	147.45
491.59	133.41
491.77	63.19
491.95	95.96
492.13	142.77
492.30	121.71
492.48	168.52
492.66	140.43
492.84	163.84
493.01	166.18
493.19	152.13
493.37	166.18
493.54	201.29
493.72	173.20
493.90	163.84
494.08	119.37
494.25	203.63
494.43	182.56
494.61	234.05
494.79	163.84
494.96	142.77
495.14	166.18
495.32	121.71
495.49	154.48
495.67	119.37
495.85	231.71
496.02	187.24
496.20	210.65
496.38	208.31
496.55	227.03
496.73	145.11
496.91	182.56
497.09	241.08
497.26	238.73
497.44	245.76
497.62	121.71
497.79	65.54
497.97	177.88
498.14	152.13
498.32	250.44
498.50	241.08
498.67	117.03
498.85	142.77
499.03	210.65
499.20	194.26
499.38	152.13
499.56	245.76
499.73	203.63
499.91	248.10
500.08	170.86
500.26	124.05
500.44	117.03
500.61	191.92
500.79	98.30
500.97	201.29
501.14	161.50
501.32	166.18
501.49	271.50
501.67	161.50
501.84	201.29
502.02	191.92
502.20	259.80
502.37	182.56
502.55	231.71
502.72	182.56
502.90	299.59
503.07	227.03
503.25	147.45
503.43	189.58
503.60	187.24
503.78	250.44
503.95	184.90
504.13	163.84
504.30	285.55
504.48	231.71
504.65	287.89
504.83	250.44
505.01	177.88
505.18	245.76
505.36	229.37
505.53	224.69
505.71	248.10
505.88	189.58
506.06	147.45
506.23	264.48
506.41	203.63
506.58	205.97
506.76	217.67
506.93	201.29
507.11	142.77
507.28	161.50
507.46	283.20
507.63	147.45
507.81	168.52
507.98	194.26
508.16	175.54
508.33	161.50
508.50	231.71
508.68	248.10
508.85	304.27
509.03	201.29
509.20	229.37
509.38	250.44
509.55	320.65
509.73	276.18
509.90	313.63
510.08	208.31
510.25	203.63
510.42	238.73
510.60	175.54
510.77	236.39
510.95	231.71
511.12	243.42
511.30	294.91
511.47	322.99
511.64	315.97
511.82	177.88
511.99	238.73
512.17	257.46
512.34	255.12
512.51	210.65
512.69	315.97
512.86	273.84
513.04	217.67
513.21	203.63
513.38	229.37
513.56	191.92
513.73	184.90
513.90	245.76
514.08	252.78
514.25	301.93
514.43	315.97
514.60	252.78
514.77	222.35
514.95	320.65
515.12	276.18
515.29	306.61
515.47	271.50
515.64	376.83
515.81	234.05
515.99	301.93
516.16	236.39
516.33	212.99
516.51	187.24
516.68	154.48
516.85	187.24
517.03	156.82
517.20	273.84
517.37	304.27
517.54	278.52
517.72	255.12
517.89	121.71
518.06	173.20
518.24	198.95
518.41	280.86
518.58	222.35
518.75	222.35
518.93	269.16
519.10	271.50
519.27	189.58
519.45	322.99
519.62	170.86
519.79	210.65
519.96	273.84
520.14	280.86
520.31	250.44
520.48	269.16
520.65	266.82
520.83	285.55
521.00	292.57
521.17	255.12
521.34	234.05
521.52	241.08
521.69	341.72
521.86	276.18
522.03	276.18
522.20	339.38
522.38	248.10
522.55	297.25
522.72	227.03
522.89	285.55
523.07	395.55
523.24	306.61
523.41	360.44
523.58	259.80
523.75	313.63
523.92	269.16
524.10	250.44
524.27	313.63
524.44	278.52
524.61	344.06
524.78	280.86
524.96	252.78
525.13	313.63
525.30	320.65
525.47	348.74
525.64	341.72
525.81	297.25
525.98	266.82
526.16	259.80
526.33	180.22
526.50	248.10
526.67	166.18
526.84	217.67
527.01	325.33
527.18	259.80
527.36	290.23
527.53	315.97
527.70	327.68
527.87	337.04
528.04	402.57
528.21	285.55
528.38	365.12
528.55	367.46
528.72	351.08
528.89	322.99
529.07	376.83
529.24	330.02
529.41	369.80
529.58	327.68
529.75	278.52
529.92	322.99
530.09	311.29
530.26	402.57
530.43	404.91
530.60	397.89
530.77	337.04
530.94	358.10
531.11	372.15
531.28	337.04
531.46	397.89
531.63	318.31
531.80	407.25
531.97	344.06
532.14	318.31
532.31	353.42
532.48	280.86
532.65	292.57
532.82	322.99
532.99	276.18
533.16	334.70
533.33	273.84
533.50	280.86
533.67	322.99
533.84	330.02
534.01	271.50
534.18	330.02
534.35	355.76
534.52	285.55
534.69	360.44
534.86	346.40
535.03	322.99
535.20	348.74
535.37	341.72
535.54	381.51
535.71	346.40
535.88	304.27
536.05	409.59
536.22	327.68
536.38	278.52
536.55	262.14
536.72	262.14
536.89	327.68
537.06	276.18
537.23	313.63
537.40	301.93
537.57	313.63
537.74	381.51
537.91	346.40
538.08	290.23
538.25	252.78
538.42	355.76
538.59	330.02
538.75	330.02
538.92	322.99
539.09	308.95
539.26	330.02
539.43	194.26
539.60	297.25
539.77	294.91
539.94	311.29
540.11	311.29
540.28	358.10
540.44	264.48
540.61	311.29
540.78	376.83
540.95	337.04
541.12	421.30
541.29	299.59
541.46	334.70
541.62	351.08
541.79	301.93
541.96	301.93
542.13	320.65
542.30	365.12
542.47	322.99
542.63	315.97
542.80	308.95
542.97	234.05
543.14	369.80
543.31	353.42
543.48	351.08
543.64	390.87
543.81	397.89
543.98	285.55
544.15	332.36
544.32	292.57
544.48	348.74
544.65	262.14
544.82	264.48
544.99	313.63
545.16	386.19
545.32	304.27
545.49	367.46
545.66	341.72
545.83	353.42
546.00	320.65
546.16	374.49
546.33	322.99
546.50	311.29
546.67	465.77
546.83	334.70
547.00	322.99
547.17	299.59
547.34	369.80
547.50	409.59
547.67	353.42
547.84	315.97
548.00	397.89
548.17	414.27
548.34	374.49
548.51	428.32
548.67	402.57
548.84	376.83
549.01	397.89
549.18	341.72
549.34	320.65
549.51	381.51
549.68	449.38
549.84	290.23
550.01	224.69
550.18	440.02
550.34	388.53
550.51	395.55
550.68	367.46
550.84	440.02
551.01	304.27
551.18	365.12
551.34	294.91
551.51	369.80
551.68	322.99
551.84	397.89
552.01	344.06
552.18	287.89
552.34	266.82
552.51	292.57
552.68	320.65
552.84	320.65
553.01	355.76
553.18	353.42
553.34	285.55
553.51	351.08
553.67	290.23
553.84	355.76
554.01	294.91
554.17	358.10
554.34	334.70
554.51	273.84
554.67	430.66
554.84	395.55
555.00	358.10
555.17	362.78
555.33	383.85
555.50	376.83
555.67	374.49
555.83	287.89
556.00	259.80
556.16	545.34
556.33	308.95
556.50	404.91
556.66	353.42
556.83	252.78
556.99	198.95
557.16	308.95
557.32	285.55
557.49	337.04
557.65	334.70
557.82	318.31
557.98	337.04
558.15	358.10
558.32	322.99
558.48	318.31
558.65	306.61
558.81	334.70
558.98	348.74
559.14	313.63
559.31	327.68
559.47	332.36
559.64	330.02
559.80	322.99
559.97	311.29
560.13	276.18
560.30	330.02
560.46	236.39
560.63	351.08
560.79	339.38
560.96	304.27
561.12	339.38
561.29	308.95
561.45	243.42
561.61	337.04
561.78	407.25
561.94	315.97
562.11	381.51
562.27	365.12
562.44	299.59
562.60	285.55
562.77	337.04
562.93	449.38
563.10	409.59
563.26	341.72
563.42	353.42
563.59	280.86
563.75	381.51
563.92	376.83
564.08	306.61
564.24	409.59
564.41	393.21
564.57	280.86
564.74	304.27
564.90	423.64
565.07	290.23
565.23	241.08
565.39	353.42
565.56	334.70
565.72	330.02
565.88	369.80
566.05	334.70
566.21	320.65
566.38	285.55
566.54	290.23
566.70	297.25
566.87	381.51
567.03	320.65
567.19	332.36
567.36	346.40
567.52	297.25
567.68	306.61
567.85	344.06
568.01	301.93
568.17	248.10
568.34	334.70
568.50	313.63
568.66	285.55
568.83	376.83
568.99	299.59
569.15	402.57
569.32	264.48
569.48	243.42
569.64	294.91
569.81	353.42
569.97	325.33
570.13	374.49
570.30	266.82
570.46	269.16
570.62	236.39
570.78	320.65
570.95	250.44
571.11	407.25
571.27	346.40
571.43	320.65
571.60	322.99
571.76	266.82
571.92	327.68
572.09	344.06
572.25	271.50
572.41	404.91
572.57	365.12
572.74	332.36
572.90	311.29
573.06	386.19
573.22	315.97
573.38	383.85
573.55	337.04
573.71	383.85
573.87	276.18
574.03	348.74
574.20	337.04
574.36	358.10
574.52	287.89
574.68	290.23
574.84	362.78
575.01	283.20
575.17	365.12
575.33	325.33
575.49	353.42
575.65	379.17
575.82	470.45
575.98	351.08
576.14	308.95
576.30	341.72
576.46	280.86
576.62	287.89
576.79	355.76
576.95	330.02
577.11	330.02
577.27	297.25
577.43	285.55
577.59	416.62
577.75	250.44
577.92	264.48
578.08	287.89
578.24	259.80
578.40	320.65
578.56	341.72
578.72	358.10
578.88	325.33
579.04	383.85
579.21	339.38
579.37	320.65
579.53	332.36
579.69	337.04
579.85	290.23
580.01	290.23
580.17	283.20
580.33	346.40
580.49	243.42
580.65	397.89
580.82	311.29
580.98	278.52
581.14	276.18
581.30	367.46
581.46	351.08
581.62	308.95
581.78	278.52
581.94	353.42
582.10	318.31
582.26	318.31
582.42	322.99
582.58	369.80
582.74	299.59
582.90	332.36
583.06	383.85
583.22	266.82
583.38	355.76
583.54	344.06
583.70	322.99
583.86	327.68
584.02	332.36
584.18	428.32
584.34	397.89
584.50	283.20
584.66	285.55
584.82	248.10
584.98	322.99
585.14	294.91
585.30	325.33
585.46	325.33
585.62	250.44
585.78	297.25
585.94	386.19
586.10	407.25
586.26	304.27
586.42	414.27
586.58	409.59
586.74	308.95
586.90	271.50
587.06	330.02
587.22	304.27
587.38	175.54
587.54	297.25
587.70	353.42
587.86	241.08
588.02	273.84
588.18	257.46
588.34	273.84
588.49	215.33
588.65	220.01
588.81	189.58
588.97	180.22
589.13	304.27
589.29	236.39
589.45	259.80
589.61	308.95
589.77	227.03
589.93	273.84
590.08	290.23
590.24	182.56
590.40	313.63
590.56	337.04
590.72	191.92
590.88	245.76
591.04	360.44
591.20	264.48
591.35	353.42
591.51	264.48
591.67	215.33
591.83	297.25
591.99	280.86
592.15	294.91
592.31	264.48
592.46	236.39
592.62	346.40
592.78	294.91
592.94	358.10
593.10	271.50
593.26	318.31
593.41	217.67
593.57	294.91
593.73	210.65
593.89	257.46
594.05	238.73
594.20	304.27
594.36	341.72
594.52	292.57
594.68	262.14
594.84	290.23
594.99	299.59
595.15	182.56
595.31	205.97
595.47	362.78
595.62	304.27
595.78	304.27
595.94	283.20
596.10	332.36
596.25	283.20
596.41	287.89
596.57	297.25
596.73	301.93
596.88	278.52
597.04	273.84
597.20	210.65
597.36	283.20
597.51	283.20
597.67	318.31
597.83	351.08
597.99	287.89
598.14	325.33
598.30	306.61
598.46	222.35
598.61	327.68
598.77	330.02
598.93	299.59
599.09	220.01
599.24	259.80
599.40	243.42
599.56	238.73
599.71	264.48
599.87	252.78
600.03	269.16
600.18	243.42
600.34	266.82
600.50	262.14
600.65	201.29
600.81	187.24
600.97	262.14
601.12	360.44
601.28	299.59
601.44	236.39
601.59	264.48
601.75	220.01
601.91	205.97
602.06	297.25
602.22	348.74
602.37	280.86
602.53	273.84
602.69	276.18
602.84	236.39
603.00	234.05
603.16	346.40
603.31	301.93
603.47	276.18
603.62	318.31
603.78	241.08
603.94	280.86
604.09	327.68
604.25	346.40
604.40	311.29
604.56	332.36
604.71	327.68
604.87	257.46
605.03	266.82
605.18	276.18
605.34	299.59
605.49	241.08
605.65	194.26
605.80	304.27
605.96	353.42
606.12	159.16
606.27	290.23
606.43	266.82
606.58	257.46
606.74	255.12
606.89	245.76
607.05	292.57
607.20	257.46
607.36	292.57
607.51	285.55
607.67	217.67
607.82	205.97
607.98	280.86
608.13	283.20
608.29	217.67
608.44	266.82
608.60	222.35
608.75	250.44
608.91	238.73
609.06	245.76
609.22	262.14
609.37	220.01
609.53	257.46
609.68	255.12
609.84	255.12
609.99	243.42
610.15	250.44
610.30	313.63
610.46	294.91
610.61	304.27
610.76	276.18
610.92	304.27
611.07	278.52
611.23	264.48
611.38	311.29
611.54	290.23
611.69	210.65
611.84	238.73
612.00	212.99
612.15	187.24
612.31	217.67
612.46	124.05
612.62	250.44
612.77	348.74
612.92	252.78
613.08	196.60
613.23	245.76
613.39	184.90
613.54	212.99
613.69	119.37
613.85	154.48
614.00	234.05
614.15	269.16
614.31	180.22
614.46	283.20
614.62	241.08
614.77	205.97
614.92	243.42
615.08	236.39
615.23	210.65
615.38	252.78
615.54	170.86
615.69	198.95
615.84	180.22
616.00	224.69
616.15	201.29
616.30	189.58
616.46	166.18
616.61	163.84
616.76	128.73
616.92	234.05
617.07	210.65
617.22	184.90
617.37	173.20
617.53	290.23
617.68	227.03
617.83	201.29
617.99	257.46
618.14	358.10
618.29	278.52
618.45	210.65
618.60	215.33
618.75	220.01
618.90	166.18
619.06	245.76
619.21	283.20
619.36	264.48
619.51	229.37
619.67	224.69
619.82	170.86
619.97	313.63
620.12	252.78
620.28	315.97
620.43	208.31
620.58	257.46
620.73	262.14
620.89	161.50
621.04	191.92
621.19	227.03
621.34	145.11
621.49	243.42
621.65	252.78
621.80	220.01
621.95	241.08
622.10	208.31
622.25	238.73
622.41	194.26
622.56	114.69
622.71	149.79
622.86	177.88
623.01	147.45
623.16	212.99
623.32	163.84
623.47	170.86
623.62	217.67
623.77	180.22
623.92	182.56
624.07	140.43
624.23	201.29
624.38	149.79
624.53	170.86
624.68	255.12
624.83	205.97
624.98	152.13
625.13	191.92
625.29	201.29
625.44	145.11
625.59	184.90
625.74	217.67
625.89	224.69
626.04	159.16
626.19	184.90
626.34	161.50
626.49	205.97
626.65	194.26
626.80	128.73
626.95	189.58
627.10	208.31
627.25	154.48
627.40	126.39
627.55	198.95
627.70	163.84
627.85	152.13
628.00	220.01
628.15	154.48
628.30	175.54
628.45	72.56
628.60	184.90
628.76	159.16
628.91	154.48
629.06	168.52
629.21	212.99
629.36	266.82
629.51	170.86
629.66	145.11
629.81	166.18
629.96	234.05
630.11	189.58
630.26	262.14
630.41	77.24
630.56	184.90
630.71	152.13
630.86	182.56
631.01	224.69
631.16	184.90
631.31	182.56
631.46	201.29
631.61	180.22
631.76	215.33
631.91	201.29
632.06	170.86
632.21	189.58
632.36	145.11
632.51	140.43
632.66	196.60
632.81	161.50
632.96	138.09
633.10	198.95
633.25	231.71
633.40	159.16
633.55	114.69
633.70	135.75
633.85	121.71
634.00	98.30
634.15	227.03
634.30	166.18
634.45	121.71
634.60	152.13
634.75	117.03
634.90	168.52
635.05	110.01
635.19	140.43
635.34	189.58
635.49	215.33
635.64	117.03
635.79	208.31
635.94	208.31
636.09	166.18
636.24	248.10
636.39	140.43
636.53	220.01
636.68	175.54
636.83	189.58
636.98	182.56
637.13	152.13
637.28	93.62
637.43	227.03
637.57	255.12
637.72	236.39
637.87	175.54
638.02	98.30
638.17	159.16
638.32	203.63
638.46	156.82
638.61	241.08
638.76	205.97
638.91	161.50
639.06	128.73
639.20	196.60
639.35	238.73
639.50	154.48
639.65	224.69
639.80	145.11
639.94	177.88
640.09	252.78
640.24	203.63
640.39	138.09
640.54	102.98
640.68	77.24
640.83	128.73
640.98	119.37
641.13	105.32
641.27	187.24
641.42	77.24
641.57	229.37
641.72	149.79
641.86	107.66
642.01	114.69
642.16	84.26
642.31	203.63
642.45	180.22
642.60	152.13
642.75	126.39
642.90	152.13
643.04	140.43
643.19	133.41
643.34	135.75
643.48	91.28
643.63	163.84
643.78	168.52
643.93	163.84
644.07	112.35
644.22	149.79
644.37	117.03
644.51	177.88
644.66	173.20
644.81	121.71
644.95	175.54
645.10	72.56
645.25	121.71
645.39	138.09
645.54	147.45
645.69	168.52
645.83	74.90
645.98	191.92
646.13	161.50
646.27	170.86
646.42	112.35
646.57	44.47
646.71	93.62
646.86	124.05
647.00	203.63
647.15	37.45
647.30	135.75
647.44	95.96
647.59	138.09
647.74	119.37
647.88	102.98
648.03	70.22
648.17	102.98
648.32	84.26
648.47	170.86
648.61	102.98
648.76	95.96
648.90	72.56
649.05	79.58
649.20	119.37
649.34	39.79
649.49	60.85
649.63	58.51
649.78	79.58
649.92	60.85
650.07	100.64
650.21	70.22
650.36	121.71
650.51	161.50
650.65	154.48
650.80	117.03
650.94	81.92
651.09	114.69
651.23	44.47
651.38	128.73
651.52	30.43
651.67	100.64
651.81	102.98
651.96	180.22
652.10	149.79
652.25	105.32
652.39	149.79
652.54	182.56
652.68	63.19
652.83	191.92
652.97	77.24
653.12	170.86
653.26	203.63
653.41	102.98
653.55	161.50
653.70	131.07
653.84	124.05
653.99	81.92
654.13	30.43
654.27	93.62
654.42	81.92
654.56	105.32
654.71	121.71
654.85	42.13
655.00	60.85
655.14	60.85
655.29	44.47
655.43	121.71
655.57	58.51
655.72	74.90
655.86	23.41
656.01	0.00
656.15	98.30
656.30	161.50
656.44	102.98
656.58	28.09
656.73	46.81
656.87	131.07
657.01	112.35
657.16	91.28
657.30	124.05
657.45	177.88
657.59	112.35
657.73	67.88
657.88	91.28
658.02	217.67
658.16	161.50
658.31	70.22
658.45	145.11
658.60	77.24
658.74	107.66
658.88	53.83
659.03	21.06
659.17	102.98
659.31	67.88
659.46	121.71
659.60	126.39
659.74	98.30
659.89	194.26
660.03	135.75
660.17	161.50
660.32	156.82
660.46	100.64
660.60	163.84
660.74	107.66
660.89	72.56
661.03	124.05
661.17	46.81
661.32	124.05
661.46	131.07
661.60	128.73
661.74	100.64
661.89	133.41
662.03	107.66
662.17	18.72
662.31	170.86
662.46	124.05
662.60	124.05
662.74	53.83
662.88	105.32
663.03	114.69
663.17	49.15
663.31	37.45
663.45	58.51
663.60	133.41
663.74	0.00
663.88	0.00
664.02	46.81
664.17	86.60
664.31	63.19
664.45	23.41
664.59	21.06
664.73	42.13
664.88	152.13
665.02	25.75
665.16	0.00
665.30	187.24
665.44	86.60
665.59	100.64
665.73	39.79
665.87	93.62
666.01	84.26
666.15	25.75
666.29	30.43
666.44	110.01
666.58	161.50
666.72	93.62
666.86	84.26
667.00	95.96
667.14	56.17
667.28	25.75
667.43	14.04
667.57	63.19
667.71	0.00
667.85	86.60
667.99	128.73
668.13	58.51
668.27	126.39
668.41	39.79
668.56	86.60
668.70	166.18
668.84	70.22
668.98	65.54
669.12	56.17
669.26	98.30
669.40	110.01
669.54	58.51
669.68	112.35
669.82	72.56
669.96	35.11
670.10	46.81
670.25	105.32
670.39	30.43
670.53	0.00
670.67	0.00
670.81	0.00
670.95	14.04
671.09	74.90
671.23	81.92
671.37	77.24
671.51	67.88
671.65	133.41
671.79	14.04
671.93	4.68
672.07	159.16
672.21	72.56
672.35	84.26
672.49	114.69
672.63	39.79
672.77	63.19
672.91	32.77
673.05	53.83
673.19	46.81
673.33	28.09
673.47	63.19
673.61	30.43
673.75	46.81
673.89	37.45
674.03	72.56
674.17	51.49
674.31	117.03
674.45	25.75
674.59	74.90
674.73	0.00
674.87	56.17
675.01	4.68
675.15	16.38
675.29	14.04
675.43	88.94
675.56	110.01
675.70	60.85
675.84	18.72
675.98	51.49
676.12	74.90
676.26	23.41
676.40	0.00
676.54	60.85
676.68	44.47
676.82	49.15
676.96	0.00
677.10	91.28
677.23	58.51
677.37	4.68
677.51	21.06
677.65	53.83
677.79	0.00
677.93	0.00
678.07	7.02
678.21	0.00
678.34	0.00
678.48	0.00
678.62	0.00
678.76	7.02
678.90	0.00
679.04	32.77
679.18	0.00
679.31	0.00
679.45	0.00
679.59	0.00
679.73	65.54
679.87	0.00
680.00	0.00
680.14	0.00
680.28	0.00
680.42	4.68
680.56	72.56
680.70	0.00
680.83	35.11
680.97	16.38
681.11	2.34
681.25	70.22
681.39	0.00
681.52	39.79
681.66	35.11
681.80	14.04
681.94	0.00
682.07	58.51
682.21	18.72
682.35	0.00
682.49	21.06
682.62	39.79
682.76	14.04
682.90	112.35
683.04	44.47
683.17	0.00
683.31	0.00
683.45	4.68
683.59	23.41
683.72	0.00
683.86	51.49
684.00	0.00
684.13	119.37
684.27	0.00
684.41	0.00
684.55	30.43
684.68	0.00
684.82	39.79
684.96	0.00
685.09	37.45
685.23	0.00
685.37	18.72
685.50	0.00
685.64	91.28
685.78	21.06
685.91	7.02
686.05	35.11
686.19	0.00
686.32	0.00
686.46	0.00
686.60	0.00
686.73	30.43
686.87	0.00
687.01	0.00
687.14	0.00
687.28	0.00
687.42	0.00
687.55	0.00
687.69	0.00
687.82	0.00
687.96	0.00
688.10	0.00
688.23	0.00
688.37	0.00
688.50	0.00
688.64	0.00
688.78	0.00
688.91	0.00
689.05	0.00
689.18	0.00
689.32	0.00
689.46	0.00
689.59	0.00
689.73	30.43
689.86	0.00
690.00	0.00
690.13	0.00
690.27	0.00
690.41	0.00
690.54	0.00
690.68	0.00
690.81	0.00
690.95	0.00
691.08	0.00
691.22	0.00
691.35	4.68
691.49	0.00
691.62	0.00
691.76	0.00
691.89	0.00
692.03	0.00
692.16	0.00
692.30	0.00
692.43	0.00
692.57	0.00
692.70	0.00
692.84	0.00
692.97	0.00
693.11	0.00
693.24	0.00
693.38	0.00
693.51	0.00
693.65	0.00
693.78	0.00
693.92	0.00
694.05	0.00
694.19	0.00
694.32	0.00
694.45	0.00
694.59	0.00
694.72	0.00
694.86	0.00
694.99	0.00
695.13	0.00
695.26	0.00
695.39	0.00
695.53	0.00
695.66	0.00
695.80	0.00
695.93	0.00
696.07	0.00
696.20	0.00
696.33	0.00
696.47	0.00
696.60	0.00
696.73	0.00
696.87	0.00
697.00	39.79
697.14	0.00
697.27	0.00
697.40	37.45
697.54	0.00
697.67	0.00
697.80	0.00
697.94	0.00
698.07	0.00
698.21	0.00
698.34	0.00
698.47	0.00
698.61	0.00
698.74	0.00
698.87	0.00
699.01	0.00
699.14	0.00
699.27	0.00
699.40	77.24
699.54	0.00
699.67	0.00
699.80	0.00
699.94	0.00
700.07	0.00
700.20	0.00
700.34	0.00
700.47	0.00
700.60	0.00
700.73	0.00
700.87	0.00
701.00	0.00
701.13	0.00
701.26	0.00
701.40	0.00
701.53	0.00
701.66	0.00
701.79	0.00
701.93	0.00
702.06	0.00
702.19	0.00
702.32	0.00
702.46	0.00
702.59	0.00
702.72	0.00
702.85	0.00
702.99	0.00
703.12	0.00
703.25	0.00
703.38	0.00
703.51	0.00
703.65	0.00
703.78	0.00
703.91	0.00
704.04	0.00
704.17	0.00
704.31	0.00
704.44	0.00
704.57	0.00
704.70	0.00
704.83	0.00
704.96	0.00
705.10	0.00
705.23	0.00
>>>>>End Processed Spectral Data<<<<<
