SpectraSuite Data File
++++++++++++++++++++++++++++++++++++
Date: Mon Oct 07 15:00:01 GMT-05:00 2013
User: price-jones
Dark Spectrum Present: No
Reference Spectrum Present: No
Number of Sampled Component Spectra: 1
Spectrometers: USB2+H05261
Integration Time (usec): 100000 (USB2+H05261)
Spectra Averaged: 1 (USB2+H05261)
Boxcar Smoothing: 0 (USB2+H05261)
Correct for Electrical Dark: No (USB2+H05261)
Strobe/Lamp Enabled: No (USB2+H05261)
Correct for Detector Non-linearity: No (USB2+H05261)
Correct for Stray Light: No (USB2+H05261)
Number of Pixels in Processed Spectrum: 2048
>>>>>Begin Processed Spectral Data<<<<<
365.73	0.00
365.92	0.00
366.12	0.00
366.32	0.00
366.52	0.00
366.72	0.00
366.91	0.00
367.11	0.00
367.31	0.00
367.51	0.00
367.70	0.00
367.90	0.00
368.10	0.00
368.30	0.00
368.49	0.00
368.69	0.00
368.89	0.00
369.09	0.00
369.28	0.00
369.48	0.00
369.68	0.00
369.87	0.00
370.07	0.00
370.27	0.00
370.47	0.00
370.66	0.00
370.86	0.00
371.06	0.00
371.25	0.00
371.45	0.00
371.65	0.00
371.84	0.00
372.04	0.00
372.24	0.00
372.44	0.00
372.63	0.00
372.83	0.00
373.03	0.00
373.22	0.00
373.42	0.00
373.62	0.00
373.81	0.00
374.01	0.00
374.21	0.00
374.40	0.00
374.60	0.00
374.79	0.00
374.99	0.00
375.19	0.00
375.38	0.00
375.58	0.00
375.78	0.00
375.97	0.00
376.17	0.00
376.37	0.00
376.56	0.00
376.76	0.00
376.95	0.00
377.15	0.00
377.35	0.00
377.54	0.00
377.74	0.00
377.93	0.00
378.13	0.00
378.33	0.00
378.52	0.00
378.72	0.00
378.91	0.00
379.11	0.00
379.31	0.00
379.50	0.00
379.70	0.00
379.89	0.00
380.09	0.00
380.28	0.00
380.48	0.00
380.68	0.00
380.87	0.00
381.07	0.00
381.26	0.00
381.46	0.00
381.65	0.00
381.85	0.00
382.04	0.00
382.24	0.00
382.43	0.00
382.63	0.00
382.83	0.00
383.02	0.00
383.22	0.00
383.41	0.00
383.61	0.00
383.80	0.00
384.00	0.00
384.19	0.00
384.39	0.00
384.58	0.00
384.78	0.00
384.97	0.00
385.17	0.00
385.36	0.00
385.56	0.00
385.75	0.00
385.95	0.00
386.14	0.00
386.34	0.00
386.53	0.00
386.72	0.00
386.92	0.00
387.11	0.00
387.31	0.00
387.50	0.00
387.70	0.00
387.89	0.00
388.09	0.00
388.28	0.00
388.48	0.00
388.67	0.00
388.86	0.00
389.06	0.00
389.25	0.00
389.45	0.00
389.64	0.00
389.84	0.00
390.03	0.00
390.22	0.00
390.42	0.00
390.61	0.00
390.81	0.00
391.00	0.00
391.19	0.00
391.39	0.00
391.58	0.00
391.78	0.00
391.97	0.00
392.16	0.00
392.36	0.00
392.55	0.00
392.75	0.00
392.94	0.00
393.13	0.00
393.33	0.00
393.52	0.00
393.71	0.00
393.91	0.00
394.10	0.00
394.29	0.00
394.49	0.00
394.68	0.00
394.88	0.00
395.07	0.00
395.26	0.00
395.46	0.00
395.65	0.00
395.84	0.00
396.04	0.00
396.23	0.00
396.42	0.00
396.62	0.00
396.81	0.00
397.00	0.00
397.19	0.00
397.39	0.00
397.58	0.00
397.77	0.00
397.97	0.00
398.16	0.00
398.35	0.00
398.55	0.00
398.74	0.00
398.93	0.00
399.12	0.00
399.32	0.00
399.51	0.00
399.70	0.00
399.90	0.00
400.09	0.00
400.28	0.00
400.47	0.00
400.67	0.00
400.86	0.00
401.05	0.00
401.24	0.00
401.44	0.00
401.63	0.00
401.82	0.00
402.01	0.00
402.21	0.00
402.40	0.00
402.59	0.00
402.78	0.00
402.97	0.00
403.17	0.00
403.36	0.00
403.55	0.00
403.74	0.00
403.93	0.00
404.13	0.00
404.32	0.00
404.51	0.00
404.70	0.00
404.89	0.00
405.09	0.00
405.28	0.00
405.47	0.00
405.66	0.00
405.85	0.00
406.05	0.00
406.24	0.00
406.43	0.00
406.62	0.00
406.81	0.00
407.00	0.00
407.20	0.00
407.39	0.00
407.58	0.00
407.77	0.00
407.96	0.00
408.15	0.00
408.34	0.00
408.54	0.00
408.73	0.00
408.92	0.00
409.11	0.00
409.30	0.00
409.49	0.00
409.68	0.00
409.87	0.00
410.07	0.00
410.26	0.00
410.45	0.00
410.64	0.00
410.83	0.00
411.02	0.00
411.21	0.00
411.40	0.00
411.59	0.00
411.78	0.00
411.98	0.00
412.17	0.00
412.36	0.00
412.55	0.00
412.74	0.00
412.93	0.00
413.12	0.00
413.31	0.00
413.50	0.00
413.69	0.00
413.88	0.00
414.07	0.00
414.26	0.00
414.45	0.00
414.64	0.00
414.83	0.00
415.02	0.00
415.22	0.00
415.41	0.00
415.60	0.00
415.79	0.00
415.98	0.00
416.17	0.00
416.36	0.00
416.55	0.00
416.74	0.00
416.93	0.00
417.12	0.00
417.31	0.00
417.50	0.00
417.69	0.00
417.88	0.00
418.07	0.00
418.26	0.00
418.45	0.00
418.64	0.00
418.83	0.00
419.02	0.00
419.21	0.00
419.39	0.00
419.58	0.00
419.77	0.00
419.96	0.00
420.15	0.00
420.34	0.00
420.53	0.00
420.72	0.00
420.91	0.00
421.10	0.00
421.29	0.00
421.48	0.00
421.67	0.00
421.86	0.00
422.05	0.00
422.24	0.00
422.43	0.00
422.61	0.00
422.80	0.00
422.99	0.00
423.18	0.00
423.37	0.00
423.56	0.00
423.75	0.00
423.94	0.00
424.13	0.00
424.32	0.00
424.50	0.00
424.69	0.00
424.88	0.00
425.07	0.00
425.26	0.00
425.45	0.00
425.64	0.00
425.83	0.00
426.01	0.00
426.20	0.00
426.39	0.00
426.58	0.00
426.77	0.00
426.96	0.00
427.15	0.00
427.33	0.00
427.52	0.00
427.71	0.00
427.90	0.00
428.09	0.00
428.28	0.00
428.46	0.00
428.65	0.00
428.84	0.00
429.03	0.00
429.22	0.00
429.40	0.00
429.59	0.00
429.78	0.00
429.97	0.00
430.16	0.00
430.34	0.00
430.53	0.00
430.72	0.00
430.91	0.00
431.10	0.00
431.28	0.00
431.47	0.00
431.66	0.00
431.85	0.00
432.03	0.00
432.22	0.00
432.41	0.00
432.60	0.00
432.79	0.00
432.97	0.00
433.16	0.00
433.35	0.00
433.54	0.00
433.72	0.00
433.91	0.00
434.10	0.00
434.28	0.00
434.47	0.00
434.66	0.00
434.85	0.00
435.03	0.00
435.22	0.00
435.41	0.00
435.59	0.00
435.78	0.00
435.97	0.00
436.16	46.81
436.34	0.00
436.53	0.00
436.72	35.11
436.90	0.00
437.09	0.00
437.28	0.00
437.46	0.00
437.65	0.00
437.84	0.00
438.02	0.00
438.21	0.00
438.40	0.00
438.58	0.00
438.77	0.00
438.96	0.00
439.14	0.00
439.33	0.00
439.52	0.00
439.70	0.00
439.89	16.38
440.08	0.00
440.26	0.00
440.45	0.00
440.63	0.00
440.82	0.00
441.01	0.00
441.19	0.00
441.38	0.00
441.57	0.00
441.75	0.00
441.94	0.00
442.12	0.00
442.31	0.00
442.50	0.00
442.68	0.00
442.87	0.00
443.05	0.00
443.24	0.00
443.43	0.00
443.61	32.77
443.80	0.00
443.98	0.00
444.17	0.00
444.35	0.00
444.54	0.00
444.73	0.00
444.91	0.00
445.10	0.00
445.28	0.00
445.47	0.00
445.65	0.00
445.84	0.00
446.02	0.00
446.21	0.00
446.39	0.00
446.58	0.00
446.77	0.00
446.95	0.00
447.14	0.00
447.32	0.00
447.51	0.00
447.69	16.38
447.88	0.00
448.06	0.00
448.25	0.00
448.43	0.00
448.62	0.00
448.80	0.00
448.99	0.00
449.17	0.00
449.36	0.00
449.54	0.00
449.73	0.00
449.91	0.00
450.10	0.00
450.28	72.56
450.46	0.00
450.65	0.00
450.83	0.00
451.02	0.00
451.20	0.00
451.39	0.00
451.57	0.00
451.76	0.00
451.94	0.00
452.13	0.00
452.31	0.00
452.49	0.00
452.68	0.00
452.86	0.00
453.05	37.45
453.23	0.00
453.42	0.00
453.60	0.00
453.78	0.00
453.97	16.38
454.15	0.00
454.34	0.00
454.52	0.00
454.70	0.00
454.89	21.06
455.07	0.00
455.26	0.00
455.44	39.79
455.62	0.00
455.81	0.00
455.99	0.00
456.17	0.00
456.36	0.00
456.54	0.00
456.73	0.00
456.91	0.00
457.09	0.00
457.28	0.00
457.46	0.00
457.64	0.00
457.83	0.00
458.01	0.00
458.19	0.00
458.38	0.00
458.56	0.00
458.74	0.00
458.93	0.00
459.11	0.00
459.29	0.00
459.48	0.00
459.66	0.00
459.84	0.00
460.03	58.51
460.21	37.45
460.39	0.00
460.57	70.22
460.76	0.00
460.94	0.00
461.12	0.00
461.31	0.00
461.49	0.00
461.67	0.00
461.85	0.00
462.04	0.00
462.22	550.03
462.40	0.00
462.59	51.49
462.77	0.00
462.95	39.79
463.13	0.00
463.32	9.36
463.50	51.49
463.68	4.68
463.86	0.00
464.05	0.00
464.23	0.00
464.41	0.00
464.59	0.00
464.78	4.68
464.96	0.00
465.14	0.00
465.32	0.00
465.50	0.00
465.69	4.68
465.87	0.00
466.05	23.41
466.23	0.00
466.41	0.00
466.60	28.09
466.78	0.00
466.96	0.00
467.14	0.00
467.32	91.28
467.51	0.00
467.69	0.00
467.87	37.45
468.05	0.00
468.23	0.00
468.41	4.68
468.60	0.00
468.78	0.00
468.96	16.38
469.14	0.00
469.32	0.00
469.50	0.00
469.69	28.09
469.87	0.00
470.05	0.00
470.23	0.00
470.41	0.00
470.59	0.00
470.77	0.00
470.95	28.09
471.14	0.00
471.32	0.00
471.50	51.49
471.68	0.00
471.86	0.00
472.04	0.00
472.22	0.00
472.40	0.00
472.58	0.00
472.77	0.00
472.95	0.00
473.13	105.32
473.31	0.00
473.49	0.00
473.67	0.00
473.85	79.58
474.03	32.77
474.21	0.00
474.39	67.88
474.57	53.83
474.75	0.00
474.93	44.47
475.12	0.00
475.30	9.36
475.48	58.51
475.66	0.00
475.84	0.00
476.02	0.00
476.20	11.70
476.38	0.00
476.56	163.84
476.74	23.41
476.92	0.00
477.10	0.00
477.28	0.00
477.46	7.02
477.64	0.00
477.82	0.00
478.00	56.17
478.18	49.15
478.36	0.00
478.54	0.00
478.72	0.00
478.90	0.00
479.08	46.81
479.26	0.00
479.44	21.06
479.62	0.00
479.80	0.00
479.98	14.04
480.16	67.88
480.34	84.26
480.52	4.68
480.70	72.56
480.88	25.75
481.06	0.00
481.24	7.02
481.41	28.09
481.59	81.92
481.77	114.69
481.95	25.75
482.13	159.16
482.31	86.60
482.49	25.75
482.67	25.75
482.85	70.22
483.03	74.90
483.21	93.62
483.39	42.13
483.57	58.51
483.74	93.62
483.92	35.11
484.10	44.47
484.28	58.51
484.46	154.48
484.64	32.77
484.82	95.96
485.00	156.82
485.18	25.75
485.35	16.38
485.53	0.00
485.71	65.54
485.89	0.00
486.07	86.60
486.25	84.26
486.43	112.35
486.61	86.60
486.78	23.41
486.96	124.05
487.14	70.22
487.32	88.94
487.50	74.90
487.68	142.77
487.85	142.77
488.03	180.22
488.21	140.43
488.39	53.83
488.57	7.02
488.75	65.54
488.92	477.47
489.10	126.39
489.28	126.39
489.46	72.56
489.64	142.77
489.81	95.96
489.99	114.69
490.17	86.60
490.35	215.33
490.53	119.37
490.70	37.45
490.88	74.90
491.06	142.77
491.24	114.69
491.41	91.28
491.59	79.58
491.77	42.13
491.95	25.75
492.13	56.17
492.30	198.95
492.48	135.75
492.66	149.79
492.84	79.58
493.01	145.11
493.19	156.82
493.37	177.88
493.54	271.50
493.72	163.84
493.90	128.73
494.08	177.88
494.25	161.50
494.43	140.43
494.61	79.58
494.79	100.64
494.96	147.45
495.14	173.20
495.32	79.58
495.49	159.16
495.67	124.05
495.85	156.82
496.02	170.86
496.20	121.71
496.38	170.86
496.55	189.58
496.73	180.22
496.91	201.29
497.09	285.55
497.26	147.45
497.44	135.75
497.62	145.11
497.79	135.75
497.97	128.73
498.14	191.92
498.32	131.07
498.50	222.35
498.67	138.09
498.85	159.16
499.03	189.58
499.20	184.90
499.38	212.99
499.56	126.39
499.73	252.78
499.91	194.26
500.08	217.67
500.26	212.99
500.44	187.24
500.61	217.67
500.79	124.05
500.97	217.67
501.14	262.14
501.32	170.86
501.49	252.78
501.67	229.37
501.84	243.42
502.02	163.84
502.20	276.18
502.37	243.42
502.55	131.07
502.72	191.92
502.90	194.26
503.07	245.76
503.25	210.65
503.43	187.24
503.60	149.79
503.78	170.86
503.95	205.97
504.13	95.96
504.30	283.20
504.48	287.89
504.65	215.33
504.83	325.33
505.01	259.80
505.18	166.18
505.36	229.37
505.53	236.39
505.71	236.39
505.88	231.71
506.06	229.37
506.23	194.26
506.41	231.71
506.58	266.82
506.76	241.08
506.93	222.35
507.11	166.18
507.28	177.88
507.46	311.29
507.63	269.16
507.81	175.54
507.98	238.73
508.16	222.35
508.33	257.46
508.50	262.14
508.68	227.03
508.85	220.01
509.03	245.76
509.20	205.97
509.38	205.97
509.55	292.57
509.73	285.55
509.90	227.03
510.08	212.99
510.25	210.65
510.42	234.05
510.60	142.77
510.77	241.08
510.95	304.27
511.12	201.29
511.30	313.63
511.47	227.03
511.64	234.05
511.82	297.25
511.99	229.37
512.17	182.56
512.34	175.54
512.51	170.86
512.69	205.97
512.86	241.08
513.04	252.78
513.21	250.44
513.38	156.82
513.56	180.22
513.73	140.43
513.90	266.82
514.08	273.84
514.25	264.48
514.43	191.92
514.60	273.84
514.77	262.14
514.95	266.82
515.12	215.33
515.29	299.59
515.47	245.76
515.64	304.27
515.81	255.12
515.99	273.84
516.16	224.69
516.33	189.58
516.51	184.90
516.68	191.92
516.85	196.60
517.03	198.95
517.20	229.37
517.37	290.23
517.54	271.50
517.72	175.54
517.89	107.66
518.06	182.56
518.24	287.89
518.41	210.65
518.58	245.76
518.75	187.24
518.93	248.10
519.10	238.73
519.27	224.69
519.45	292.57
519.62	250.44
519.79	217.67
519.96	245.76
520.14	297.25
520.31	236.39
520.48	234.05
520.65	210.65
520.83	301.93
521.00	327.68
521.17	264.48
521.34	255.12
521.52	198.95
521.69	238.73
521.86	255.12
522.03	301.93
522.20	252.78
522.38	231.71
522.55	220.01
522.72	224.69
522.89	297.25
523.07	308.95
523.24	301.93
523.41	264.48
523.58	292.57
523.75	358.10
523.92	271.50
524.10	358.10
524.27	301.93
524.44	301.93
524.61	322.99
524.78	330.02
524.96	243.42
525.13	245.76
525.30	351.08
525.47	308.95
525.64	332.36
525.81	252.78
525.98	227.03
526.16	276.18
526.33	222.35
526.50	191.92
526.67	212.99
526.84	271.50
527.01	149.79
527.18	311.29
527.36	264.48
527.53	294.91
527.70	365.12
527.87	351.08
528.04	271.50
528.21	294.91
528.38	376.83
528.55	353.42
528.72	381.51
528.89	407.25
529.07	437.68
529.24	374.49
529.41	313.63
529.58	346.40
529.75	330.02
529.92	287.89
530.09	285.55
530.26	294.91
530.43	304.27
530.60	266.82
530.77	292.57
530.94	386.19
531.11	322.99
531.28	301.93
531.46	304.27
531.63	346.40
531.80	285.55
531.97	353.42
532.14	276.18
532.31	252.78
532.48	262.14
532.65	297.25
532.82	283.20
532.99	280.86
533.16	248.10
533.33	381.51
533.50	327.68
533.67	299.59
533.84	299.59
534.01	271.50
534.18	322.99
534.35	297.25
534.52	266.82
534.69	231.71
534.86	337.04
535.03	341.72
535.20	294.91
535.37	360.44
535.54	386.19
535.71	383.85
535.88	294.91
536.05	280.86
536.22	262.14
536.38	327.68
536.55	301.93
536.72	266.82
536.89	318.31
537.06	271.50
537.23	257.46
537.40	365.12
537.57	376.83
537.74	271.50
537.91	311.29
538.08	311.29
538.25	376.83
538.42	311.29
538.59	320.65
538.75	315.97
538.92	299.59
539.09	318.31
539.26	322.99
539.43	348.74
539.60	334.70
539.77	330.02
539.94	306.61
540.11	259.80
540.28	304.27
540.44	273.84
540.61	215.33
540.78	280.86
540.95	276.18
541.12	395.55
541.29	327.68
541.46	271.50
541.62	327.68
541.79	278.52
541.96	325.33
542.13	325.33
542.30	308.95
542.47	367.46
542.63	320.65
542.80	330.02
542.97	278.52
543.14	372.15
543.31	264.48
543.48	231.71
543.64	264.48
543.81	341.72
543.98	346.40
544.15	250.44
544.32	416.62
544.48	285.55
544.65	283.20
544.82	330.02
544.99	348.74
545.16	315.97
545.32	271.50
545.49	360.44
545.66	449.38
545.83	234.05
546.00	287.89
546.16	339.38
546.33	386.19
546.50	358.10
546.67	341.72
546.83	367.46
547.00	411.93
547.17	215.33
547.34	311.29
547.50	362.78
547.67	308.95
547.84	271.50
548.00	308.95
548.17	306.61
548.34	306.61
548.51	374.49
548.67	351.08
548.84	381.51
549.01	325.33
549.18	351.08
549.34	390.87
549.51	315.97
549.68	362.78
549.84	308.95
550.01	311.29
550.18	461.09
550.34	482.15
550.51	327.68
550.68	346.40
550.84	259.80
551.01	311.29
551.18	362.78
551.34	332.36
551.51	372.15
551.68	339.38
551.84	346.40
552.01	325.33
552.18	320.65
552.34	250.44
552.51	339.38
552.68	330.02
552.84	306.61
553.01	299.59
553.18	397.89
553.34	322.99
553.51	355.76
553.67	414.27
553.84	386.19
554.01	322.99
554.17	348.74
554.34	318.31
554.51	273.84
554.67	322.99
554.84	390.87
555.00	322.99
555.17	360.44
555.33	334.70
555.50	383.85
555.67	299.59
555.83	337.04
556.00	308.95
556.16	613.22
556.33	348.74
556.50	362.78
556.66	362.78
556.83	308.95
556.99	344.06
557.16	290.23
557.32	341.72
557.49	304.27
557.65	379.17
557.82	327.68
557.98	308.95
558.15	322.99
558.32	292.57
558.48	315.97
558.65	283.20
558.81	315.97
558.98	304.27
559.14	362.78
559.31	332.36
559.47	383.85
559.64	236.39
559.80	390.87
559.97	273.84
560.13	341.72
560.30	271.50
560.46	318.31
560.63	383.85
560.79	271.50
560.96	358.10
561.12	327.68
561.29	367.46
561.45	372.15
561.61	332.36
561.78	404.91
561.94	330.02
562.11	212.99
562.27	315.97
562.44	358.10
562.60	386.19
562.77	334.70
562.93	379.17
563.10	276.18
563.26	355.76
563.42	334.70
563.59	292.57
563.75	273.84
563.92	372.15
564.08	280.86
564.24	337.04
564.41	449.38
564.57	271.50
564.74	236.39
564.90	285.55
565.07	339.38
565.23	442.36
565.39	334.70
565.56	313.63
565.72	262.14
565.88	318.31
566.05	418.96
566.21	306.61
566.38	245.76
566.54	318.31
566.70	407.25
566.87	327.68
567.03	259.80
567.19	332.36
567.36	311.29
567.52	322.99
567.68	255.12
567.85	313.63
568.01	306.61
568.17	271.50
568.34	241.08
568.50	313.63
568.66	276.18
568.83	358.10
568.99	334.70
569.15	297.25
569.32	236.39
569.48	341.72
569.64	311.29
569.81	280.86
569.97	304.27
570.13	255.12
570.30	341.72
570.46	222.35
570.62	273.84
570.78	168.52
570.95	252.78
571.11	374.49
571.27	360.44
571.43	248.10
571.60	285.55
571.76	297.25
571.92	351.08
572.09	325.33
572.25	339.38
572.41	231.71
572.57	320.65
572.74	360.44
572.90	313.63
573.06	297.25
573.22	315.97
573.38	339.38
573.55	341.72
573.71	339.38
573.87	348.74
574.03	306.61
574.20	325.33
574.36	334.70
574.52	355.76
574.68	278.52
574.84	241.08
575.01	294.91
575.17	348.74
575.33	308.95
575.49	344.06
575.65	196.60
575.82	313.63
575.98	337.04
576.14	224.69
576.30	222.35
576.46	318.31
576.62	325.33
576.79	379.17
576.95	337.04
577.11	259.80
577.27	243.42
577.43	346.40
577.59	325.33
577.75	313.63
577.92	262.14
578.08	341.72
578.24	325.33
578.40	337.04
578.56	327.68
578.72	369.80
578.88	280.86
579.04	245.76
579.21	297.25
579.37	287.89
579.53	252.78
579.69	283.20
579.85	238.73
580.01	346.40
580.17	332.36
580.33	320.65
580.49	266.82
580.65	294.91
580.82	393.21
580.98	276.18
581.14	318.31
581.30	325.33
581.46	269.16
581.62	351.08
581.78	294.91
581.94	264.48
582.10	271.50
582.26	320.65
582.42	205.97
582.58	362.78
582.74	292.57
582.90	276.18
583.06	341.72
583.22	367.46
583.38	301.93
583.54	301.93
583.70	344.06
583.86	440.02
584.02	304.27
584.18	402.57
584.34	348.74
584.50	278.52
584.66	271.50
584.82	287.89
584.98	262.14
585.14	234.05
585.30	320.65
585.46	290.23
585.62	294.91
585.78	301.93
585.94	250.44
586.10	271.50
586.26	390.87
586.42	379.17
586.58	330.02
586.74	255.12
586.90	299.59
587.06	306.61
587.22	327.68
587.38	191.92
587.54	238.73
587.70	304.27
587.86	351.08
588.02	332.36
588.18	325.33
588.34	252.78
588.49	262.14
588.65	224.69
588.81	234.05
588.97	154.48
589.13	224.69
589.29	280.86
589.45	299.59
589.61	227.03
589.77	341.72
589.93	313.63
590.08	327.68
590.24	367.46
590.40	287.89
590.56	271.50
590.72	173.20
590.88	320.65
591.04	262.14
591.20	229.37
591.35	255.12
591.51	292.57
591.67	299.59
591.83	208.31
591.99	177.88
592.15	301.93
592.31	334.70
592.46	248.10
592.62	294.91
592.78	241.08
592.94	245.76
593.10	273.84
593.26	243.42
593.41	222.35
593.57	311.29
593.73	266.82
593.89	255.12
594.05	292.57
594.20	222.35
594.36	252.78
594.52	248.10
594.68	280.86
594.84	238.73
594.99	306.61
595.15	280.86
595.31	360.44
595.47	255.12
595.62	320.65
595.78	250.44
595.94	287.89
596.10	318.31
596.25	369.80
596.41	299.59
596.57	266.82
596.73	437.68
596.88	278.52
597.04	278.52
597.20	290.23
597.36	269.16
597.51	273.84
597.67	250.44
597.83	250.44
597.99	332.36
598.14	353.42
598.30	264.48
598.46	257.46
598.61	353.42
598.77	322.99
598.93	205.97
599.09	283.20
599.24	241.08
599.40	341.72
599.56	332.36
599.71	269.16
599.87	231.71
600.03	304.27
600.18	255.12
600.34	248.10
600.50	241.08
600.65	238.73
600.81	304.27
600.97	196.60
601.12	140.43
601.28	177.88
601.44	187.24
601.59	245.76
601.75	262.14
601.91	222.35
602.06	227.03
602.22	334.70
602.37	241.08
602.53	290.23
602.69	273.84
602.84	306.61
603.00	245.76
603.16	245.76
603.31	224.69
603.47	292.57
603.62	187.24
603.78	313.63
603.94	201.29
604.09	313.63
604.25	297.25
604.40	308.95
604.56	252.78
604.71	315.97
604.87	287.89
605.03	269.16
605.18	266.82
605.34	294.91
605.49	212.99
605.65	248.10
605.80	198.95
605.96	353.42
606.12	292.57
606.27	313.63
606.43	276.18
606.58	231.71
606.74	341.72
606.89	278.52
607.05	344.06
607.20	243.42
607.36	259.80
607.51	245.76
607.67	189.58
607.82	227.03
607.98	292.57
608.13	259.80
608.29	379.17
608.44	339.38
608.60	112.35
608.75	292.57
608.91	276.18
609.06	322.99
609.22	292.57
609.37	278.52
609.53	154.48
609.68	173.20
609.84	170.86
609.99	231.71
610.15	234.05
610.30	318.31
610.46	252.78
610.61	283.20
610.76	210.65
610.92	250.44
611.07	241.08
611.23	358.10
611.38	231.71
611.54	215.33
611.69	208.31
611.84	191.92
612.00	252.78
612.15	166.18
612.31	280.86
612.46	205.97
612.62	257.46
612.77	360.44
612.92	212.99
613.08	299.59
613.23	262.14
613.39	241.08
613.54	198.95
613.69	184.90
613.85	245.76
614.00	257.46
614.15	210.65
614.31	159.16
614.46	271.50
614.62	194.26
614.77	194.26
614.92	149.79
615.08	264.48
615.23	187.24
615.38	191.92
615.54	175.54
615.69	257.46
615.84	215.33
616.00	222.35
616.15	149.79
616.30	217.67
616.46	217.67
616.61	117.03
616.76	215.33
616.92	119.37
617.07	184.90
617.22	198.95
617.37	194.26
617.53	182.56
617.68	180.22
617.83	177.88
617.99	196.60
618.14	308.95
618.29	229.37
618.45	276.18
618.60	180.22
618.75	131.07
618.90	231.71
619.06	187.24
619.21	255.12
619.36	269.16
619.51	212.99
619.67	210.65
619.82	248.10
619.97	266.82
620.12	175.54
620.28	285.55
620.43	266.82
620.58	231.71
620.73	252.78
620.89	217.67
621.04	102.98
621.19	266.82
621.34	147.45
621.49	196.60
621.65	177.88
621.80	163.84
621.95	236.39
622.10	189.58
622.25	128.73
622.41	142.77
622.56	208.31
622.71	212.99
622.86	262.14
623.01	191.92
623.16	229.37
623.32	227.03
623.47	168.52
623.62	184.90
623.77	201.29
623.92	156.82
624.07	205.97
624.23	248.10
624.38	161.50
624.53	191.92
624.68	191.92
624.83	227.03
624.98	131.07
625.13	142.77
625.29	86.60
625.44	175.54
625.59	102.98
625.74	212.99
625.89	182.56
626.04	245.76
626.19	159.16
626.34	187.24
626.49	203.63
626.65	229.37
626.80	119.37
626.95	161.50
627.10	196.60
627.25	121.71
627.40	126.39
627.55	102.98
627.70	182.56
627.85	203.63
628.00	152.13
628.15	173.20
628.30	175.54
628.45	102.98
628.60	98.30
628.76	166.18
628.91	175.54
629.06	198.95
629.21	161.50
629.36	140.43
629.51	124.05
629.66	187.24
629.81	147.45
629.96	161.50
630.11	140.43
630.26	180.22
630.41	229.37
630.56	187.24
630.71	91.28
630.86	187.24
631.01	147.45
631.16	191.92
631.31	166.18
631.46	175.54
631.61	140.43
631.76	152.13
631.91	201.29
632.06	161.50
632.21	147.45
632.36	220.01
632.51	79.58
632.66	140.43
632.81	102.98
632.96	95.96
633.10	112.35
633.25	189.58
633.40	198.95
633.55	86.60
633.70	126.39
633.85	126.39
634.00	102.98
634.15	86.60
634.30	163.84
634.45	191.92
634.60	135.75
634.75	142.77
634.90	138.09
635.05	198.95
635.19	182.56
635.34	152.13
635.49	182.56
635.64	98.30
635.79	65.54
635.94	138.09
636.09	182.56
636.24	135.75
636.39	145.11
636.53	196.60
636.68	131.07
636.83	114.69
636.98	175.54
637.13	156.82
637.28	145.11
637.43	201.29
637.57	205.97
637.72	262.14
637.87	194.26
638.02	140.43
638.17	168.52
638.32	161.50
638.46	170.86
638.61	259.80
638.76	131.07
638.91	163.84
639.06	145.11
639.20	152.13
639.35	217.67
639.50	217.67
639.65	198.95
639.80	117.03
639.94	201.29
640.09	259.80
640.24	245.76
640.39	210.65
640.54	124.05
640.68	72.56
640.83	161.50
640.98	112.35
641.13	95.96
641.27	88.94
641.42	145.11
641.57	220.01
641.72	77.24
641.86	156.82
642.01	166.18
642.16	215.33
642.31	117.03
642.45	149.79
642.60	173.20
642.75	77.24
642.90	163.84
643.04	112.35
643.19	95.96
643.34	147.45
643.48	138.09
643.63	154.48
643.78	201.29
643.93	161.50
644.07	91.28
644.22	100.64
644.37	93.62
644.51	95.96
644.66	154.48
644.81	98.30
644.95	121.71
645.10	44.47
645.25	72.56
645.39	147.45
645.54	126.39
645.69	156.82
645.83	100.64
645.98	149.79
646.13	74.90
646.27	119.37
646.42	88.94
646.57	126.39
646.71	21.06
646.86	128.73
647.00	110.01
647.15	189.58
647.30	128.73
647.44	95.96
647.59	98.30
647.74	95.96
647.88	205.97
648.03	44.47
648.17	42.13
648.32	30.43
648.47	220.01
648.61	81.92
648.76	105.32
648.90	70.22
649.05	60.85
649.20	72.56
649.34	0.00
649.49	72.56
649.63	72.56
649.78	0.00
649.92	91.28
650.07	128.73
650.21	81.92
650.36	156.82
650.51	117.03
650.65	67.88
650.80	63.19
650.94	30.43
651.09	98.30
651.23	56.17
651.38	131.07
651.52	105.32
651.67	39.79
651.81	128.73
651.96	114.69
652.10	161.50
652.25	105.32
652.39	142.77
652.54	131.07
652.68	63.19
652.83	135.75
652.97	102.98
653.12	79.58
653.26	14.04
653.41	126.39
653.55	16.38
653.70	79.58
653.84	114.69
653.99	65.54
654.13	37.45
654.27	135.75
654.42	77.24
654.56	126.39
654.71	241.08
654.85	119.37
655.00	121.71
655.14	119.37
655.29	14.04
655.43	32.77
655.57	65.54
655.72	0.00
655.86	7.02
656.01	9.36
656.15	4.68
656.30	93.62
656.44	0.00
656.58	65.54
656.73	63.19
656.87	65.54
657.01	63.19
657.16	177.88
657.30	74.90
657.45	112.35
657.59	65.54
657.73	138.09
657.88	70.22
658.02	107.66
658.16	105.32
658.31	72.56
658.45	102.98
658.60	84.26
658.74	58.51
658.88	119.37
659.03	28.09
659.17	60.85
659.31	0.00
659.46	46.81
659.60	114.69
659.74	28.09
659.89	100.64
660.03	114.69
660.17	156.82
660.32	107.66
660.46	70.22
660.60	77.24
660.74	152.13
660.89	224.69
661.03	51.49
661.17	79.58
661.32	42.13
661.46	100.64
661.60	42.13
661.74	84.26
661.89	163.84
662.03	51.49
662.17	95.96
662.31	91.28
662.46	149.79
662.60	166.18
662.74	56.17
662.88	117.03
663.03	121.71
663.17	53.83
663.31	117.03
663.45	110.01
663.60	114.69
663.74	37.45
663.88	25.75
664.02	37.45
664.17	86.60
664.31	63.19
664.45	112.35
664.59	35.11
664.73	95.96
664.88	74.90
665.02	79.58
665.16	35.11
665.30	154.48
665.44	44.47
665.59	107.66
665.73	145.11
665.87	88.94
666.01	93.62
666.15	81.92
666.29	72.56
666.44	93.62
666.58	72.56
666.72	110.01
666.86	112.35
667.00	56.17
667.14	44.47
667.28	44.47
667.43	70.22
667.57	77.24
667.71	91.28
667.85	25.75
667.99	117.03
668.13	102.98
668.27	32.77
668.41	7.02
668.56	35.11
668.70	100.64
668.84	46.81
668.98	128.73
669.12	25.75
669.26	79.58
669.40	131.07
669.54	84.26
669.68	107.66
669.82	95.96
669.96	63.19
670.10	119.37
670.25	84.26
670.39	74.90
670.53	91.28
670.67	32.77
670.81	79.58
670.95	77.24
671.09	7.02
671.23	72.56
671.37	156.82
671.51	9.36
671.65	46.81
671.79	7.02
671.93	159.16
672.07	91.28
672.21	98.30
672.35	79.58
672.49	2.34
672.63	35.11
672.77	44.47
672.91	37.45
673.05	46.81
673.19	42.13
673.33	0.00
673.47	142.77
673.61	0.00
673.75	42.13
673.89	0.00
674.03	86.60
674.17	2.34
674.31	11.70
674.45	0.00
674.59	42.13
674.73	9.36
674.87	18.72
675.01	51.49
675.15	0.00
675.29	63.19
675.43	9.36
675.56	156.82
675.70	72.56
675.84	0.00
675.98	86.60
676.12	0.00
676.26	0.00
676.40	0.00
676.54	0.00
676.68	7.02
676.82	16.38
676.96	67.88
677.10	70.22
677.23	0.00
677.37	44.47
677.51	25.75
677.65	95.96
677.79	0.00
677.93	0.00
678.07	0.00
678.21	0.00
678.34	30.43
678.48	0.00
678.62	44.47
678.76	0.00
678.90	28.09
679.04	32.77
679.18	0.00
679.31	0.00
679.45	0.00
679.59	37.45
679.73	2.34
679.87	44.47
680.00	0.00
680.14	93.62
680.28	70.22
680.42	14.04
680.56	0.00
680.70	0.00
680.83	0.00
680.97	11.70
681.11	11.70
681.25	7.02
681.39	23.41
681.52	0.00
681.66	32.77
681.80	23.41
681.94	0.00
682.07	0.00
682.21	63.19
682.35	0.00
682.49	0.00
682.62	0.00
682.76	53.83
682.90	25.75
683.04	28.09
683.17	32.77
683.31	0.00
683.45	16.38
683.59	63.19
683.72	37.45
683.86	0.00
684.00	0.00
684.13	0.00
684.27	7.02
684.41	14.04
684.55	18.72
684.68	0.00
684.82	0.00
684.96	0.00
685.09	23.41
685.23	0.00
685.37	9.36
685.50	0.00
685.64	9.36
685.78	0.00
685.91	35.11
686.05	0.00
686.19	0.00
686.32	0.00
686.46	0.00
686.60	0.00
686.73	0.00
686.87	0.00
687.01	0.00
687.14	0.00
687.28	0.00
687.42	0.00
687.55	0.00
687.69	0.00
687.82	0.00
687.96	0.00
688.10	0.00
688.23	0.00
688.37	0.00
688.50	0.00
688.64	0.00
688.78	0.00
688.91	0.00
689.05	0.00
689.18	0.00
689.32	0.00
689.46	0.00
689.59	0.00
689.73	0.00
689.86	0.00
690.00	0.00
690.13	0.00
690.27	0.00
690.41	0.00
690.54	16.38
690.68	0.00
690.81	0.00
690.95	0.00
691.08	0.00
691.22	0.00
691.35	0.00
691.49	0.00
691.62	0.00
691.76	0.00
691.89	0.00
692.03	0.00
692.16	0.00
692.30	0.00
692.43	0.00
692.57	0.00
692.70	0.00
692.84	0.00
692.97	0.00
693.11	0.00
693.24	0.00
693.38	0.00
693.51	0.00
693.65	0.00
693.78	0.00
693.92	0.00
694.05	0.00
694.19	0.00
694.32	0.00
694.45	0.00
694.59	0.00
694.72	0.00
694.86	0.00
694.99	0.00
695.13	0.00
695.26	0.00
695.39	0.00
695.53	0.00
695.66	0.00
695.80	0.00
695.93	0.00
696.07	0.00
696.20	0.00
696.33	0.00
696.47	0.00
696.60	0.00
696.73	0.00
696.87	0.00
697.00	0.00
697.14	0.00
697.27	0.00
697.40	0.00
697.54	0.00
697.67	0.00
697.80	0.00
697.94	0.00
698.07	0.00
698.21	0.00
698.34	0.00
698.47	0.00
698.61	0.00
698.74	0.00
698.87	0.00
699.01	0.00
699.14	0.00
699.27	0.00
699.40	53.83
699.54	0.00
699.67	0.00
699.80	0.00
699.94	0.00
700.07	0.00
700.20	0.00
700.34	0.00
700.47	0.00
700.60	0.00
700.73	0.00
700.87	0.00
701.00	0.00
701.13	0.00
701.26	0.00
701.40	0.00
701.53	0.00
701.66	0.00
701.79	0.00
701.93	0.00
702.06	0.00
702.19	0.00
702.32	0.00
702.46	0.00
702.59	0.00
702.72	0.00
702.85	0.00
702.99	0.00
703.12	0.00
703.25	0.00
703.38	0.00
703.51	0.00
703.65	0.00
703.78	0.00
703.91	0.00
704.04	0.00
704.17	0.00
704.31	0.00
704.44	0.00
704.57	0.00
704.70	0.00
704.83	0.00
704.96	0.00
705.10	0.00
705.23	0.00
>>>>>End Processed Spectral Data<<<<<
