SpectraSuite Data File
++++++++++++++++++++++++++++++++++++
Date: Mon Sep 30 18:11:52 GMT-05:00 2013
User: stostad
Dark Spectrum Present: No
Reference Spectrum Present: No
Number of Sampled Component Spectra: 1
Spectrometers: USB2+H05261
Integration Time (usec): 100000 (USB2+H05261)
Spectra Averaged: 1 (USB2+H05261)
Boxcar Smoothing: 0 (USB2+H05261)
Correct for Electrical Dark: No (USB2+H05261)
Strobe/Lamp Enabled: No (USB2+H05261)
Correct for Detector Non-linearity: No (USB2+H05261)
Correct for Stray Light: No (USB2+H05261)
Number of Pixels in Processed Spectrum: 2048
>>>>>Begin Processed Spectral Data<<<<<
365.73	161.50
365.92	161.50
366.12	161.50
366.32	84.26
366.52	39.79
366.72	81.92
366.91	0.00
367.11	0.00
367.31	0.00
367.51	0.00
367.70	11.70
367.90	0.00
368.10	23.41
368.30	21.06
368.49	0.00
368.69	72.56
368.89	0.00
369.09	28.09
369.28	72.56
369.48	0.00
369.68	51.49
369.87	46.81
370.07	91.28
370.27	60.85
370.47	86.60
370.66	138.09
370.86	166.18
371.06	163.84
371.25	208.31
371.45	145.11
371.65	189.58
371.84	107.66
372.04	163.84
372.24	212.99
372.44	194.26
372.63	220.01
372.83	236.39
373.03	231.71
373.22	198.95
373.42	220.01
373.62	220.01
373.81	133.41
374.01	194.26
374.21	266.82
374.40	231.71
374.60	234.05
374.79	147.45
374.99	250.44
375.19	250.44
375.38	257.46
375.58	224.69
375.78	304.27
375.97	231.71
376.17	222.35
376.37	287.89
376.56	276.18
376.76	224.69
376.95	198.95
377.15	287.89
377.35	234.05
377.54	201.29
377.74	229.37
377.93	229.37
378.13	222.35
378.33	266.82
378.52	243.42
378.72	320.65
378.91	262.14
379.11	227.03
379.31	175.54
379.50	198.95
379.70	191.92
379.89	182.56
380.09	236.39
380.28	236.39
380.48	220.01
380.68	203.63
380.87	180.22
381.07	166.18
381.26	262.14
381.46	182.56
381.65	222.35
381.85	159.16
382.04	222.35
382.24	177.88
382.43	117.03
382.63	194.26
382.83	156.82
383.02	205.97
383.22	205.97
383.41	264.48
383.61	205.97
383.80	224.69
384.00	227.03
384.19	294.91
384.39	229.37
384.58	175.54
384.78	217.67
384.97	248.10
385.17	215.33
385.36	248.10
385.56	177.88
385.75	252.78
385.95	196.60
386.14	250.44
386.34	224.69
386.53	266.82
386.72	201.29
386.92	241.08
387.11	243.42
387.31	205.97
387.50	175.54
387.70	180.22
387.89	215.33
388.09	180.22
388.28	236.39
388.48	145.11
388.67	285.55
388.86	205.97
389.06	250.44
389.25	311.29
389.45	217.67
389.64	250.44
389.84	337.04
390.03	360.44
390.22	212.99
390.42	287.89
390.61	245.76
390.81	224.69
391.00	210.65
391.19	280.86
391.39	262.14
391.58	362.78
391.78	252.78
391.97	346.40
392.16	292.57
392.36	273.84
392.55	252.78
392.75	147.45
392.94	175.54
393.13	194.26
393.33	231.71
393.52	168.52
393.71	290.23
393.91	215.33
394.10	229.37
394.29	252.78
394.49	294.91
394.68	245.76
394.88	290.23
395.07	290.23
395.26	311.29
395.46	259.80
395.65	299.59
395.84	283.20
396.04	229.37
396.23	262.14
396.42	152.13
396.62	292.57
396.81	276.18
397.00	283.20
397.19	255.12
397.39	241.08
397.58	449.38
397.77	294.91
397.97	292.57
398.16	311.29
398.35	325.33
398.55	290.23
398.74	330.02
398.93	318.31
399.12	220.01
399.32	234.05
399.51	231.71
399.70	376.83
399.90	238.73
400.09	255.12
400.28	372.15
400.47	353.42
400.67	297.25
400.86	360.44
401.05	285.55
401.24	381.51
401.44	383.85
401.63	266.82
401.82	334.70
402.01	299.59
402.21	280.86
402.40	360.44
402.59	250.44
402.78	287.89
402.97	290.23
403.17	348.74
403.36	351.08
403.55	348.74
403.74	325.33
403.93	358.10
404.13	320.65
404.32	334.70
404.51	381.51
404.70	402.57
404.89	346.40
405.09	369.80
405.28	388.53
405.47	362.78
405.66	299.59
405.85	264.48
406.05	325.33
406.24	283.20
406.43	269.16
406.62	334.70
406.81	362.78
407.00	416.62
407.20	320.65
407.39	308.95
407.58	353.42
407.77	372.15
407.96	339.38
408.15	348.74
408.34	362.78
408.54	404.91
408.73	315.97
408.92	381.51
409.11	348.74
409.30	339.38
409.49	395.55
409.68	388.53
409.87	330.02
410.07	362.78
410.26	320.65
410.45	285.55
410.64	262.14
410.83	353.42
411.02	372.15
411.21	390.87
411.40	351.08
411.59	339.38
411.78	388.53
411.98	451.72
412.17	372.15
412.36	365.12
412.55	346.40
412.74	390.87
412.93	416.62
413.12	330.02
413.31	437.68
413.50	313.63
413.69	351.08
413.88	440.02
414.07	320.65
414.26	353.42
414.45	346.40
414.64	463.43
414.83	367.46
415.02	411.93
415.22	449.38
415.41	430.66
415.60	332.36
415.79	348.74
415.98	468.11
416.17	339.38
416.36	435.34
416.55	341.72
416.74	430.66
416.93	362.78
417.12	285.55
417.31	367.46
417.50	362.78
417.69	435.34
417.88	362.78
418.07	416.62
418.26	411.93
418.45	360.44
418.64	407.25
418.83	292.57
419.02	416.62
419.21	411.93
419.39	421.30
419.58	334.70
419.77	369.80
419.96	395.55
420.15	479.81
420.34	351.08
420.53	454.06
420.72	463.43
420.91	416.62
421.10	454.06
421.29	390.87
421.48	318.31
421.67	440.02
421.86	395.55
422.05	374.49
422.24	369.80
422.43	381.51
422.61	423.64
422.80	383.85
422.99	379.17
423.18	376.83
423.37	339.38
423.56	461.09
423.75	386.19
423.94	402.57
424.13	374.49
424.32	344.06
424.50	477.47
424.69	465.77
424.88	376.83
425.07	362.78
425.26	386.19
425.45	442.36
425.64	330.02
425.83	346.40
426.01	500.87
426.20	353.42
426.39	372.15
426.58	386.19
426.77	290.23
426.96	330.02
427.15	402.57
427.33	334.70
427.52	353.42
427.71	418.96
427.90	404.91
428.09	393.21
428.28	322.99
428.46	372.15
428.65	322.99
428.84	390.87
429.03	367.46
429.22	383.85
429.40	313.63
429.59	320.65
429.78	311.29
429.97	285.55
430.16	308.95
430.34	372.15
430.53	381.51
430.72	383.85
430.91	390.87
431.10	360.44
431.28	416.62
431.47	390.87
431.66	463.43
431.85	358.10
432.03	358.10
432.22	425.98
432.41	358.10
432.60	444.70
432.79	395.55
432.97	435.34
433.16	395.55
433.35	390.87
433.54	348.74
433.72	344.06
433.91	416.62
434.10	379.17
434.28	430.66
434.47	355.76
434.66	425.98
434.85	496.19
435.03	484.49
435.22	580.45
435.41	643.65
435.59	613.22
435.78	468.11
435.97	447.04
436.16	477.47
436.34	465.77
436.53	423.64
436.72	449.38
436.90	500.87
437.09	496.19
437.28	479.81
437.46	388.53
437.65	496.19
437.84	418.96
438.02	374.49
438.21	442.36
438.40	433.00
438.58	409.59
438.77	386.19
438.96	423.64
439.14	374.49
439.33	470.45
439.52	442.36
439.70	477.47
439.89	482.15
440.08	454.06
440.26	425.98
440.45	500.87
440.63	498.53
440.82	568.75
441.01	507.90
441.19	395.55
441.38	461.09
441.57	482.15
441.75	496.19
441.94	393.21
442.12	477.47
442.31	423.64
442.50	397.89
442.68	524.28
442.87	447.04
443.05	477.47
443.24	552.37
443.43	489.17
443.61	521.94
443.80	517.26
443.98	442.36
444.17	393.21
444.35	468.11
444.54	514.92
444.73	449.38
444.91	514.92
445.10	461.09
445.28	433.00
445.47	449.38
445.65	479.81
445.84	437.68
446.02	545.34
446.21	482.15
446.39	531.30
446.58	543.00
446.77	475.13
446.95	451.72
447.14	571.09
447.32	489.17
447.51	528.96
447.69	479.81
447.88	416.62
448.06	543.00
448.25	552.37
448.43	458.74
448.62	461.09
448.80	519.60
448.99	528.96
449.17	498.53
449.36	550.03
449.54	503.22
449.73	510.24
449.91	493.85
450.10	484.49
450.28	596.84
450.46	566.41
450.65	573.43
450.83	519.60
451.02	475.13
451.20	470.45
451.39	514.92
451.57	519.60
451.76	545.34
451.94	503.22
452.13	524.28
452.31	540.66
452.49	475.13
452.68	449.38
452.86	437.68
453.05	524.28
453.23	519.60
453.42	484.49
453.60	519.60
453.78	505.56
453.97	500.87
454.15	543.00
454.34	468.11
454.52	451.72
454.70	561.73
454.89	512.58
455.07	498.53
455.26	538.32
455.44	521.94
455.62	496.19
455.81	505.56
455.99	510.24
456.17	528.96
456.36	458.74
456.54	568.75
456.73	578.11
456.91	517.26
457.09	505.56
457.28	489.17
457.46	528.96
457.64	514.92
457.83	531.30
458.01	528.96
458.19	547.69
458.38	500.87
458.56	512.58
458.74	519.60
458.93	449.38
459.11	524.28
459.29	524.28
459.48	554.71
459.66	554.71
459.84	550.03
460.03	533.64
460.21	521.94
460.39	477.47
460.57	517.26
460.76	512.58
460.94	538.32
461.12	608.54
461.31	538.32
461.49	535.98
461.67	622.58
461.85	596.84
462.04	589.82
462.22	767.70
462.40	662.37
462.59	582.79
462.77	566.41
462.95	528.96
463.13	545.34
463.32	566.41
463.50	531.30
463.68	582.79
463.86	498.53
464.05	472.79
464.23	599.18
464.41	547.69
464.59	514.92
464.78	557.05
464.96	479.81
465.14	479.81
465.32	477.47
465.50	571.09
465.69	559.39
465.87	498.53
466.05	540.66
466.23	524.28
466.41	538.32
466.60	547.69
466.78	496.19
466.96	517.26
467.14	550.03
467.32	573.43
467.51	554.71
467.69	475.13
467.87	578.11
468.05	533.64
468.23	587.47
468.41	498.53
468.60	571.09
468.78	533.64
468.96	521.94
469.14	596.84
469.32	615.56
469.50	514.92
469.69	507.90
469.87	491.51
470.05	470.45
470.23	512.58
470.41	573.43
470.59	498.53
470.77	578.11
470.95	615.56
471.14	521.94
471.32	550.03
471.50	615.56
471.68	575.77
471.86	568.75
472.04	554.71
472.22	564.07
472.40	524.28
472.58	606.20
472.77	545.34
472.95	547.69
473.13	655.35
473.31	587.47
473.49	533.64
473.67	594.50
473.85	531.30
474.03	615.56
474.21	603.86
474.39	571.09
474.57	704.50
474.75	543.00
474.93	533.64
475.12	554.71
475.30	578.11
475.48	531.30
475.66	512.58
475.84	603.86
476.02	524.28
476.20	629.60
476.38	573.43
476.56	634.29
476.74	521.94
476.92	599.18
477.10	601.52
477.28	692.80
477.46	653.01
477.64	671.73
477.82	638.97
478.00	690.46
478.18	585.13
478.36	697.48
478.54	573.43
478.72	606.20
478.90	592.16
479.08	629.60
479.26	636.63
479.44	655.35
479.62	568.75
479.80	685.78
479.98	559.39
480.16	585.13
480.34	699.82
480.52	608.54
480.70	540.66
480.88	660.03
481.06	622.58
481.24	594.50
481.41	739.61
481.59	697.48
481.77	671.73
481.95	706.84
482.13	713.86
482.31	617.90
482.49	662.37
482.67	688.12
482.85	634.29
483.03	690.46
483.21	669.39
483.39	669.39
483.57	571.09
483.74	681.10
483.92	713.86
484.10	643.65
484.28	814.51
484.46	807.48
484.64	662.37
484.82	734.93
485.00	692.80
485.18	702.16
485.35	739.61
485.53	620.24
485.71	617.90
485.89	580.45
486.07	636.63
486.25	685.78
486.43	697.48
486.61	739.61
486.78	763.01
486.96	711.52
487.14	720.88
487.32	802.80
487.50	741.95
487.68	763.01
487.85	767.70
488.03	786.42
488.21	772.38
488.39	807.48
488.57	748.97
488.75	770.04
488.92	1020.47
489.10	866.00
489.28	833.23
489.46	884.72
489.64	779.40
489.81	826.21
489.99	816.85
490.17	755.99
490.35	929.19
490.53	770.04
490.70	802.80
490.88	837.91
491.06	851.96
491.24	842.59
491.41	777.06
491.59	713.86
491.77	634.29
491.95	718.54
492.13	805.14
492.30	812.17
492.48	837.91
492.66	910.47
492.84	842.59
493.01	849.61
493.19	884.72
493.37	807.48
493.54	903.45
493.72	894.08
493.90	753.65
494.08	898.77
494.25	915.15
494.43	854.30
494.61	844.93
494.79	898.77
494.96	908.13
495.14	837.91
495.32	809.83
495.49	873.02
495.67	823.87
495.85	971.32
496.02	866.00
496.20	912.81
496.38	924.51
496.55	882.38
496.73	936.21
496.91	840.25
497.09	957.28
497.26	866.00
497.44	957.28
497.62	938.55
497.79	856.64
497.97	880.04
498.14	835.57
498.32	828.55
498.50	894.08
498.67	933.87
498.85	964.30
499.03	931.53
499.20	931.53
499.38	936.21
499.56	915.15
499.73	898.77
499.91	847.27
500.08	833.23
500.26	863.66
500.44	856.64
500.61	922.17
500.79	875.36
500.97	844.93
501.14	915.15
501.32	933.87
501.49	866.00
501.67	795.78
501.84	919.83
502.02	938.55
502.20	936.21
502.37	990.05
502.55	905.79
502.72	936.21
502.90	971.32
503.07	936.21
503.25	940.90
503.43	856.64
503.60	723.23
503.78	858.98
503.95	912.81
504.13	894.08
504.30	959.62
504.48	990.05
504.65	877.70
504.83	931.53
505.01	805.14
505.18	940.90
505.36	966.64
505.53	947.92
505.71	959.62
505.88	910.47
506.06	814.51
506.23	917.49
506.41	917.49
506.58	898.77
506.76	931.53
506.93	938.55
507.11	882.38
507.28	973.66
507.46	894.08
507.63	912.81
507.81	915.15
507.98	830.89
508.16	856.64
508.33	873.02
508.50	994.73
508.68	940.90
508.85	985.37
509.03	947.92
509.20	903.45
509.38	887.06
509.55	894.08
509.73	964.30
509.90	926.85
510.08	880.04
510.25	901.11
510.42	968.98
510.60	866.00
510.77	1036.86
510.95	1034.52
511.12	1034.52
511.30	950.26
511.47	1013.45
511.64	1076.65
511.82	968.98
511.99	952.60
512.17	990.05
512.34	891.74
512.51	947.92
512.69	950.26
512.86	1050.90
513.04	931.53
513.21	980.68
513.38	1001.75
513.56	849.61
513.73	1027.50
513.90	922.17
514.08	910.47
514.25	882.38
514.43	823.87
514.60	915.15
514.77	896.43
514.95	1011.11
515.12	959.62
515.29	1027.50
515.47	950.26
515.64	952.60
515.81	943.24
515.99	978.34
516.16	908.13
516.33	777.06
516.51	741.95
516.68	763.01
516.85	856.64
517.03	798.12
517.20	936.21
517.37	1025.15
517.54	940.90
517.72	910.47
517.89	830.89
518.06	823.87
518.24	945.58
518.41	938.55
518.58	971.32
518.75	917.49
518.93	954.94
519.10	924.51
519.27	919.83
519.45	971.32
519.62	1015.79
519.79	931.53
519.96	994.73
520.14	966.64
520.31	943.24
520.48	891.74
520.65	849.61
520.83	1027.50
521.00	950.26
521.17	973.66
521.34	954.94
521.52	968.98
521.69	1116.44
521.86	931.53
522.03	1029.84
522.20	987.71
522.38	924.51
522.55	901.11
522.72	947.92
522.89	966.64
523.07	1036.86
523.24	1032.18
523.41	973.66
523.58	999.41
523.75	966.64
523.92	929.19
524.10	1018.13
524.27	1067.28
524.44	891.74
524.61	952.60
524.78	1050.90
524.96	1055.58
525.13	954.94
525.30	994.73
525.47	1032.18
525.64	952.60
525.81	973.66
525.98	983.02
526.16	873.02
526.33	891.74
526.50	901.11
526.67	870.68
526.84	964.30
527.01	912.81
527.18	922.17
527.36	922.17
527.53	966.64
527.70	957.28
527.87	983.02
528.04	961.96
528.21	968.98
528.38	1034.52
528.55	1011.11
528.72	1032.18
528.89	1027.50
529.07	1029.84
529.24	1022.81
529.41	954.94
529.58	961.96
529.75	1041.54
529.92	983.02
530.09	1064.94
530.26	1013.45
530.43	1004.09
530.60	945.58
530.77	1083.67
530.94	1146.86
531.11	1011.11
531.28	966.64
531.46	1041.54
531.63	954.94
531.80	1001.75
531.97	1025.15
532.14	950.26
532.31	905.79
532.48	912.81
532.65	1034.52
532.82	926.85
532.99	966.64
533.16	933.87
533.33	1046.22
533.50	938.55
533.67	983.02
533.84	929.19
534.01	1001.75
534.18	905.79
534.35	1025.15
534.52	908.13
534.69	1020.47
534.86	1076.65
535.03	931.53
535.20	954.94
535.37	1097.71
535.54	978.34
535.71	1001.75
535.88	976.00
536.05	1029.84
536.22	1060.26
536.38	971.32
536.55	985.37
536.72	1008.77
536.89	1018.13
537.06	1018.13
537.23	1055.58
537.40	1067.28
537.57	1104.73
537.74	978.34
537.91	1039.20
538.08	1043.88
538.25	1123.46
538.42	1062.60
538.59	1055.58
538.75	990.05
538.92	917.49
539.09	1053.24
539.26	903.45
539.43	959.62
539.60	1062.60
539.77	1064.94
539.94	978.34
540.11	1050.90
540.28	1046.22
540.44	1043.88
540.61	1022.81
540.78	1062.60
540.95	1034.52
541.12	1088.35
541.29	1181.97
541.46	1210.06
541.62	1179.63
541.79	1212.40
541.96	1128.14
542.13	1090.69
542.30	1078.99
542.47	1149.20
542.63	1088.35
542.80	1043.88
542.97	1181.97
543.14	1029.84
543.31	1160.91
543.48	1156.22
543.64	1205.38
543.81	1193.67
543.98	1116.44
544.15	1167.93
544.32	1050.90
544.48	1111.75
544.65	1128.14
544.82	1174.95
544.99	1139.84
545.16	1191.33
545.32	1167.93
545.49	1406.66
545.66	1523.69
545.83	1369.21
546.00	1207.72
546.16	1118.78
546.33	1088.35
546.50	1015.79
546.67	1111.75
546.83	1071.97
547.00	1130.48
547.17	1020.47
547.34	952.60
547.50	1057.92
547.67	994.73
547.84	1029.84
548.00	1076.65
548.17	1074.31
548.34	1067.28
548.51	1018.13
548.67	1048.56
548.84	1036.86
549.01	1001.75
549.18	999.41
549.34	1046.22
549.51	1055.58
549.68	1013.45
549.84	1123.46
550.01	992.39
550.18	1074.31
550.34	1121.12
550.51	919.83
550.68	1062.60
550.84	992.39
551.01	950.26
551.18	1046.22
551.34	1029.84
551.51	1001.75
551.68	910.47
551.84	1022.81
552.01	973.66
552.18	992.39
552.34	915.15
552.51	936.21
552.68	1034.52
552.84	1074.31
553.01	1067.28
553.18	973.66
553.34	1104.73
553.51	1071.97
553.67	1006.43
553.84	1029.84
554.01	933.87
554.17	992.39
554.34	922.17
554.51	1004.09
554.67	961.96
554.84	976.00
555.00	994.73
555.17	894.08
555.33	968.98
555.50	987.71
555.67	1069.62
555.83	929.19
556.00	922.17
556.16	1107.07
556.33	926.85
556.50	987.71
556.66	1029.84
556.83	940.90
556.99	943.24
557.16	901.11
557.32	910.47
557.49	980.68
557.65	1011.11
557.82	1015.79
557.98	891.74
558.15	976.00
558.32	875.36
558.48	828.55
558.65	870.68
558.81	910.47
558.98	887.06
559.14	994.73
559.31	990.05
559.47	945.58
559.64	833.23
559.80	961.96
559.97	943.24
560.13	957.28
560.30	945.58
560.46	938.55
560.63	968.98
560.79	880.04
560.96	990.05
561.12	880.04
561.29	985.37
561.45	922.17
561.61	952.60
561.78	973.66
561.94	896.43
562.11	1001.75
562.27	910.47
562.44	924.51
562.60	910.47
562.77	898.77
562.93	971.32
563.10	912.81
563.26	931.53
563.42	894.08
563.59	926.85
563.75	898.77
563.92	863.66
564.08	983.02
564.24	983.02
564.41	1057.92
564.57	936.21
564.74	877.70
564.90	908.13
565.07	863.66
565.23	854.30
565.39	837.91
565.56	938.55
565.72	875.36
565.88	889.40
566.05	856.64
566.21	833.23
566.38	912.81
566.54	896.43
566.70	896.43
566.87	875.36
567.03	854.30
567.19	922.17
567.36	922.17
567.52	929.19
567.68	954.94
567.85	940.90
568.01	835.57
568.17	807.48
568.34	788.76
568.50	875.36
568.66	849.61
568.83	917.49
568.99	844.93
569.15	861.32
569.32	896.43
569.48	746.63
569.64	915.15
569.81	866.00
569.97	875.36
570.13	842.59
570.30	784.08
570.46	781.74
570.62	791.10
570.78	807.48
570.95	826.21
571.11	854.30
571.27	851.96
571.43	812.17
571.60	856.64
571.76	856.64
571.92	816.85
572.09	826.21
572.25	933.87
572.41	847.27
572.57	901.11
572.74	903.45
572.90	856.64
573.06	812.17
573.22	826.21
573.38	830.89
573.55	849.61
573.71	880.04
573.87	819.19
574.03	798.12
574.20	695.14
574.36	866.00
574.52	861.32
574.68	837.91
574.84	777.06
575.01	802.80
575.17	851.96
575.33	767.70
575.49	795.78
575.65	814.51
575.82	837.91
575.98	793.44
576.14	908.13
576.30	849.61
576.46	856.64
576.62	889.40
576.79	819.19
576.95	875.36
577.11	812.17
577.27	868.34
577.43	784.08
577.59	758.33
577.75	866.00
577.92	854.30
578.08	823.87
578.24	877.70
578.40	896.43
578.56	800.46
578.72	880.04
578.88	856.64
579.04	861.32
579.21	788.76
579.37	849.61
579.53	840.25
579.69	856.64
579.85	854.30
580.01	849.61
580.17	861.32
580.33	903.45
580.49	870.68
580.65	868.34
580.82	814.51
580.98	870.68
581.14	821.53
581.30	819.19
581.46	903.45
581.62	952.60
581.78	877.70
581.94	966.64
582.10	889.40
582.26	894.08
582.42	828.55
582.58	816.85
582.74	805.14
582.90	910.47
583.06	940.90
583.22	875.36
583.38	870.68
583.54	802.80
583.70	884.72
583.86	903.45
584.02	924.51
584.18	880.04
584.34	863.66
584.50	851.96
584.66	812.17
584.82	891.74
584.98	858.98
585.14	858.98
585.30	777.06
585.46	840.25
585.62	828.55
585.78	821.53
585.94	819.19
586.10	807.48
586.26	807.48
586.42	884.72
586.58	924.51
586.74	823.87
586.90	926.85
587.06	819.19
587.22	901.11
587.38	807.48
587.54	866.00
587.70	816.85
587.86	746.63
588.02	730.25
588.18	772.38
588.34	727.91
588.49	683.44
588.65	702.16
588.81	678.76
588.97	667.05
589.13	730.25
589.29	601.52
589.45	702.16
589.61	697.48
589.77	737.27
589.93	784.08
590.08	812.17
590.24	713.86
590.40	779.40
590.56	671.73
590.72	727.91
590.88	777.06
591.04	767.70
591.20	763.01
591.35	758.33
591.51	781.74
591.67	774.72
591.83	725.57
591.99	753.65
592.15	727.91
592.31	777.06
592.46	807.48
592.62	784.08
592.78	730.25
592.94	819.19
593.10	737.27
593.26	692.80
593.41	758.33
593.57	774.72
593.73	688.12
593.89	706.84
594.05	678.76
594.20	653.01
594.36	798.12
594.52	692.80
594.68	667.05
594.84	751.31
594.99	758.33
595.15	739.61
595.31	795.78
595.47	814.51
595.62	760.67
595.78	753.65
595.94	816.85
596.10	763.01
596.25	732.59
596.41	807.48
596.57	739.61
596.73	858.98
596.88	819.19
597.04	683.44
597.20	737.27
597.36	678.76
597.51	662.37
597.67	737.27
597.83	748.97
597.99	751.31
598.14	725.57
598.30	755.99
598.46	861.32
598.61	772.38
598.77	814.51
598.93	737.27
599.09	858.98
599.24	791.10
599.40	807.48
599.56	741.95
599.71	791.10
599.87	697.48
600.03	786.42
600.18	791.10
600.34	751.31
600.50	716.20
600.65	723.23
600.81	767.70
600.97	772.38
601.12	737.27
601.28	753.65
601.44	746.63
601.59	727.91
601.75	727.91
601.91	784.08
602.06	784.08
602.22	786.42
602.37	751.31
602.53	758.33
602.69	786.42
602.84	725.57
603.00	781.74
603.16	800.46
603.31	812.17
603.47	795.78
603.62	772.38
603.78	823.87
603.94	760.67
604.09	751.31
604.25	744.29
604.40	753.65
604.56	807.48
604.71	828.55
604.87	800.46
605.03	823.87
605.18	816.85
605.34	800.46
605.49	744.29
605.65	730.25
605.80	711.52
605.96	730.25
606.12	751.31
606.27	681.10
606.43	720.88
606.58	805.14
606.74	791.10
606.89	779.40
607.05	786.42
607.20	767.70
607.36	786.42
607.51	690.46
607.67	763.01
607.82	723.23
607.98	718.54
608.13	763.01
608.29	807.48
608.44	833.23
608.60	690.46
608.75	826.21
608.91	833.23
609.06	823.87
609.22	734.93
609.37	823.87
609.53	730.25
609.68	851.96
609.84	837.91
609.99	837.91
610.15	854.30
610.30	985.37
610.46	1130.48
610.61	1064.94
610.76	1203.04
610.92	1158.57
611.07	1114.10
611.23	1107.07
611.38	1053.24
611.54	924.51
611.69	844.93
611.84	891.74
612.00	798.12
612.15	828.55
612.31	835.57
612.46	826.21
612.62	798.12
612.77	805.14
612.92	828.55
613.08	823.87
613.23	795.78
613.39	767.70
613.54	753.65
613.69	798.12
613.85	823.87
614.00	819.19
614.15	777.06
614.31	727.91
614.46	774.72
614.62	760.67
614.77	727.91
614.92	807.48
615.08	770.04
615.23	779.40
615.38	798.12
615.54	685.78
615.69	667.05
615.84	671.73
616.00	674.07
616.15	610.88
616.30	685.78
616.46	702.16
616.61	678.76
616.76	702.16
616.92	748.97
617.07	774.72
617.22	723.23
617.37	744.29
617.53	699.82
617.68	690.46
617.83	737.27
617.99	802.80
618.14	809.83
618.29	699.82
618.45	690.46
618.60	739.61
618.75	697.48
618.90	725.57
619.06	688.12
619.21	739.61
619.36	744.29
619.51	685.78
619.67	770.04
619.82	683.44
619.97	664.71
620.12	690.46
620.28	737.27
620.43	727.91
620.58	734.93
620.73	720.88
620.89	713.86
621.04	734.93
621.19	751.31
621.34	669.39
621.49	631.94
621.65	664.71
621.80	692.80
621.95	650.67
622.10	706.84
622.25	571.09
622.41	582.79
622.56	650.67
622.71	624.92
622.86	746.63
623.01	636.63
623.16	669.39
623.32	753.65
623.47	704.50
623.62	706.84
623.77	655.35
623.92	594.50
624.07	758.33
624.23	678.76
624.38	720.88
624.53	634.29
624.68	643.65
624.83	624.92
624.98	638.97
625.13	613.22
625.29	573.43
625.44	582.79
625.59	660.03
625.74	683.44
625.89	608.54
626.04	617.90
626.19	688.12
626.34	653.01
626.49	636.63
626.65	596.84
626.80	543.00
626.95	594.50
627.10	667.05
627.25	564.07
627.40	615.56
627.55	592.16
627.70	617.90
627.85	678.76
628.00	592.16
628.15	629.60
628.30	716.20
628.45	655.35
628.60	589.82
628.76	617.90
628.91	580.45
629.06	657.69
629.21	594.50
629.36	643.65
629.51	592.16
629.66	592.16
629.81	627.26
629.96	631.94
630.11	737.27
630.26	683.44
630.41	655.35
630.56	592.16
630.71	641.31
630.86	638.97
631.01	573.43
631.16	655.35
631.31	603.86
631.46	622.58
631.61	589.82
631.76	545.34
631.91	512.58
632.06	641.31
632.21	657.69
632.36	610.88
632.51	543.00
632.66	643.65
632.81	615.56
632.96	606.20
633.10	564.07
633.25	704.50
633.40	566.41
633.55	582.79
633.70	660.03
633.85	561.73
634.00	535.98
634.15	528.96
634.30	538.32
634.45	559.39
634.60	601.52
634.75	568.75
634.90	552.37
635.05	606.20
635.19	545.34
635.34	510.24
635.49	601.52
635.64	550.03
635.79	533.64
635.94	547.69
636.09	592.16
636.24	676.41
636.39	620.24
636.53	585.13
636.68	573.43
636.83	638.97
636.98	795.78
637.13	559.39
637.28	580.45
637.43	615.56
637.57	571.09
637.72	552.37
637.87	645.99
638.02	571.09
638.17	610.88
638.32	603.86
638.46	638.97
638.61	674.07
638.76	627.26
638.91	620.24
639.06	592.16
639.20	624.92
639.35	566.41
639.50	524.28
639.65	575.77
639.80	592.16
639.94	580.45
640.09	641.31
640.24	601.52
640.39	564.07
640.54	535.98
640.68	587.47
640.83	627.26
640.98	545.34
641.13	543.00
641.27	517.26
641.42	571.09
641.57	627.26
641.72	554.71
641.86	603.86
642.01	683.44
642.16	641.31
642.31	557.05
642.45	631.94
642.60	568.75
642.75	575.77
642.90	657.69
643.04	545.34
643.19	573.43
643.34	491.51
643.48	564.07
643.63	704.50
643.78	645.99
643.93	676.41
644.07	545.34
644.22	575.77
644.37	482.15
644.51	512.58
644.66	592.16
644.81	507.90
644.95	540.66
645.10	578.11
645.25	517.26
645.39	557.05
645.54	507.90
645.69	528.96
645.83	465.77
645.98	592.16
646.13	543.00
646.27	582.79
646.42	519.60
646.57	559.39
646.71	414.27
646.86	505.56
647.00	561.73
647.15	601.52
647.30	456.40
647.44	489.17
647.59	564.07
647.74	531.30
647.88	496.19
648.03	519.60
648.17	521.94
648.32	521.94
648.47	482.15
648.61	505.56
648.76	517.26
648.90	559.39
649.05	552.37
649.20	470.45
649.34	496.19
649.49	491.51
649.63	561.73
649.78	594.50
649.92	573.43
650.07	557.05
650.21	496.19
650.36	533.64
650.51	531.30
650.65	543.00
650.80	559.39
650.94	465.77
651.09	493.85
651.23	545.34
651.38	521.94
651.52	456.40
651.67	521.94
651.81	564.07
651.96	585.13
652.10	599.18
652.25	557.05
652.39	582.79
652.54	512.58
652.68	540.66
652.83	566.41
652.97	561.73
653.12	594.50
653.26	594.50
653.41	568.75
653.55	528.96
653.70	535.98
653.84	535.98
653.99	524.28
654.13	538.32
654.27	521.94
654.42	498.53
654.56	489.17
654.71	578.11
654.85	440.02
655.00	540.66
655.14	514.92
655.29	521.94
655.43	498.53
655.57	407.25
655.72	358.10
655.86	507.90
656.01	489.17
656.15	428.32
656.30	528.96
656.44	496.19
656.58	498.53
656.73	512.58
656.87	510.24
657.01	503.22
657.16	568.75
657.30	535.98
657.45	486.83
657.59	531.30
657.73	500.87
657.88	561.73
658.02	582.79
658.16	505.56
658.31	526.62
658.45	507.90
658.60	484.49
658.74	547.69
658.88	470.45
659.03	519.60
659.17	484.49
659.31	578.11
659.46	470.45
659.60	465.77
659.74	552.37
659.89	484.49
660.03	552.37
660.17	557.05
660.32	517.26
660.46	514.92
660.60	475.13
660.74	491.51
660.89	489.17
661.03	524.28
661.17	519.60
661.32	496.19
661.46	557.05
661.60	538.32
661.74	496.19
661.89	589.82
662.03	601.52
662.17	479.81
662.31	564.07
662.46	517.26
662.60	608.54
662.74	517.26
662.88	510.24
663.03	545.34
663.17	531.30
663.31	519.60
663.45	561.73
663.60	503.22
663.74	484.49
663.88	454.06
664.02	484.49
664.17	500.87
664.31	475.13
664.45	442.36
664.59	409.59
664.73	533.64
664.88	543.00
665.02	479.81
665.16	545.34
665.30	482.15
665.44	512.58
665.59	524.28
665.73	458.74
665.87	470.45
666.01	437.68
666.15	550.03
666.29	472.79
666.44	505.56
666.58	507.90
666.72	470.45
666.86	461.09
667.00	475.13
667.14	533.64
667.28	500.87
667.43	458.74
667.57	533.64
667.71	430.66
667.85	447.04
667.99	505.56
668.13	484.49
668.27	510.24
668.41	475.13
668.56	517.26
668.70	510.24
668.84	489.17
668.98	461.09
669.12	484.49
669.26	421.30
669.40	521.94
669.54	493.85
669.68	538.32
669.82	402.57
669.96	519.60
670.10	482.15
670.25	477.47
670.39	472.79
670.53	404.91
670.67	381.51
670.81	397.89
670.95	482.15
671.09	435.34
671.23	465.77
671.37	512.58
671.51	503.22
671.65	451.72
671.79	451.72
671.93	486.83
672.07	465.77
672.21	458.74
672.35	454.06
672.49	456.40
672.63	449.38
672.77	390.87
672.91	526.62
673.05	416.62
673.19	475.13
673.33	379.17
673.47	475.13
673.61	428.32
673.75	418.96
673.89	470.45
674.03	465.77
674.17	421.30
674.31	444.70
674.45	440.02
674.59	484.49
674.73	461.09
674.87	435.34
675.01	428.32
675.15	376.83
675.29	414.27
675.43	475.13
675.56	491.51
675.70	463.43
675.84	395.55
675.98	463.43
676.12	372.15
676.26	580.45
676.40	390.87
676.54	491.51
676.68	491.51
676.82	418.96
676.96	407.25
677.10	519.60
677.23	475.13
677.37	435.34
677.51	461.09
677.65	566.41
677.79	437.68
677.93	404.91
678.07	472.79
678.21	479.81
678.34	358.10
678.48	437.68
678.62	500.87
678.76	397.89
678.90	397.89
679.04	430.66
679.18	461.09
679.31	367.46
679.45	416.62
679.59	430.66
679.73	484.49
679.87	376.83
680.00	496.19
680.14	367.46
680.28	484.49
680.42	383.85
680.56	442.36
680.70	454.06
680.83	421.30
680.97	411.93
681.11	440.02
681.25	365.12
681.39	411.93
681.52	388.53
681.66	414.27
681.80	484.49
681.94	318.31
682.07	430.66
682.21	374.49
682.35	428.32
682.49	367.46
682.62	409.59
682.76	423.64
682.90	386.19
683.04	428.32
683.17	369.80
683.31	344.06
683.45	390.87
683.59	435.34
683.72	454.06
683.86	383.85
684.00	395.55
684.13	367.46
684.27	461.09
684.41	437.68
684.55	409.59
684.68	416.62
684.82	273.84
684.96	372.15
685.09	351.08
685.23	365.12
685.37	334.70
685.50	402.57
685.64	423.64
685.78	395.55
685.91	365.12
686.05	383.85
686.19	409.59
686.32	285.55
686.46	266.82
686.60	273.84
686.73	360.44
686.87	287.89
687.01	227.03
687.14	311.29
687.28	245.76
687.42	315.97
687.55	344.06
687.69	353.42
687.82	318.31
687.96	346.40
688.10	397.89
688.23	355.76
688.37	341.72
688.50	346.40
688.64	351.08
688.78	344.06
688.91	311.29
689.05	304.27
689.18	201.29
689.32	269.16
689.46	248.10
689.59	299.59
689.73	339.38
689.86	266.82
690.00	341.72
690.13	325.33
690.27	210.65
690.41	313.63
690.54	390.87
690.68	306.61
690.81	315.97
690.95	365.12
691.08	346.40
691.22	386.19
691.35	304.27
691.49	337.04
691.62	358.10
691.76	344.06
691.89	390.87
692.03	285.55
692.16	245.76
692.30	374.49
692.43	325.33
692.57	318.31
692.70	360.44
692.84	313.63
692.97	353.42
693.11	318.31
693.24	264.48
693.38	301.93
693.51	280.86
693.65	311.29
693.78	306.61
693.92	266.82
694.05	344.06
694.19	273.84
694.32	332.36
694.45	318.31
694.59	306.61
694.72	299.59
694.86	313.63
694.99	346.40
695.13	325.33
695.26	348.74
695.39	325.33
695.53	376.83
695.66	339.38
695.80	308.95
695.93	285.55
696.07	227.03
696.20	372.15
696.33	334.70
696.47	390.87
696.60	292.57
696.73	332.36
696.87	297.25
697.00	320.65
697.14	339.38
697.27	327.68
697.40	367.46
697.54	252.78
697.67	339.38
697.80	318.31
697.94	322.99
698.07	306.61
698.21	306.61
698.34	362.78
698.47	259.80
698.61	315.97
698.74	194.26
698.87	287.89
699.01	269.16
699.14	294.91
699.27	308.95
699.40	454.06
699.54	287.89
699.67	287.89
699.80	255.12
699.94	269.16
700.07	285.55
700.20	280.86
700.34	278.52
700.47	297.25
700.60	280.86
700.73	313.63
700.87	311.29
701.00	285.55
701.13	334.70
701.26	318.31
701.40	294.91
701.53	334.70
701.66	276.18
701.79	297.25
701.93	241.08
702.06	332.36
702.19	269.16
702.32	308.95
702.46	304.27
702.59	231.71
702.72	238.73
702.85	311.29
702.99	212.99
703.12	365.12
703.25	285.55
703.38	285.55
703.51	353.42
703.65	266.82
703.78	318.31
703.91	292.57
704.04	220.01
704.17	355.76
704.31	283.20
704.44	318.31
704.57	280.86
704.70	280.86
704.83	299.59
704.96	306.61
705.10	294.91
705.23	292.57
>>>>>End Processed Spectral Data<<<<<
