SpectraSuite Data File
++++++++++++++++++++++++++++++++++++
Date: Mon Sep 30 18:11:52 GMT-05:00 2013
User: stostad
Dark Spectrum Present: No
Reference Spectrum Present: No
Number of Sampled Component Spectra: 1
Spectrometers: USB2+H05261
Integration Time (usec): 100000 (USB2+H05261)
Spectra Averaged: 1 (USB2+H05261)
Boxcar Smoothing: 0 (USB2+H05261)
Correct for Electrical Dark: No (USB2+H05261)
Strobe/Lamp Enabled: No (USB2+H05261)
Correct for Detector Non-linearity: No (USB2+H05261)
Correct for Stray Light: No (USB2+H05261)
Number of Pixels in Processed Spectrum: 2048
>>>>>Begin Processed Spectral Data<<<<<
365.73	170.86
365.92	170.86
366.12	170.86
366.32	9.36
366.52	0.00
366.72	28.09
366.91	0.00
367.11	0.00
367.31	0.00
367.51	7.02
367.70	0.00
367.90	16.38
368.10	53.83
368.30	0.00
368.49	0.00
368.69	65.54
368.89	51.49
369.09	9.36
369.28	124.05
369.48	9.36
369.68	0.00
369.87	77.24
370.07	39.79
370.27	70.22
370.47	74.90
370.66	217.67
370.86	201.29
371.06	250.44
371.25	280.86
371.45	250.44
371.65	259.80
371.84	222.35
372.04	243.42
372.24	250.44
372.44	278.52
372.63	248.10
372.83	266.82
373.03	220.01
373.22	287.89
373.42	243.42
373.62	334.70
373.81	278.52
374.01	287.89
374.21	227.03
374.40	248.10
374.60	304.27
374.79	301.93
374.99	287.89
375.19	411.93
375.38	320.65
375.58	341.72
375.78	327.68
375.97	341.72
376.17	386.19
376.37	327.68
376.56	285.55
376.76	308.95
376.95	285.55
377.15	386.19
377.35	369.80
377.54	301.93
377.74	320.65
377.93	299.59
378.13	390.87
378.33	386.19
378.52	290.23
378.72	325.33
378.91	346.40
379.11	231.71
379.31	280.86
379.50	360.44
379.70	362.78
379.89	358.10
380.09	306.61
380.28	280.86
380.48	325.33
380.68	257.46
380.87	330.02
381.07	278.52
381.26	278.52
381.46	297.25
381.65	194.26
381.85	236.39
382.04	269.16
382.24	252.78
382.43	301.93
382.63	203.63
382.83	299.59
383.02	372.15
383.22	273.84
383.41	262.14
383.61	248.10
383.80	297.25
384.00	325.33
384.19	393.21
384.39	294.91
384.58	341.72
384.78	379.17
384.97	297.25
385.17	245.76
385.36	269.16
385.56	376.83
385.75	299.59
385.95	337.04
386.14	299.59
386.34	351.08
386.53	339.38
386.72	290.23
386.92	341.72
387.11	344.06
387.31	355.76
387.50	325.33
387.70	327.68
387.89	273.84
388.09	273.84
388.28	238.73
388.48	292.57
388.67	283.20
388.86	379.17
389.06	411.93
389.25	402.57
389.45	341.72
389.64	306.61
389.84	416.62
390.03	355.76
390.22	433.00
390.42	362.78
390.61	411.93
390.81	337.04
391.00	386.19
391.19	447.04
391.39	470.45
391.58	397.89
391.78	365.12
391.97	418.96
392.16	367.46
392.36	311.29
392.55	351.08
392.75	311.29
392.94	220.01
393.13	266.82
393.33	297.25
393.52	245.76
393.71	341.72
393.91	346.40
394.10	386.19
394.29	369.80
394.49	400.23
394.68	482.15
394.88	390.87
395.07	503.22
395.26	435.34
395.46	400.23
395.65	503.22
395.84	353.42
396.04	491.51
396.23	306.61
396.42	325.33
396.62	301.93
396.81	330.02
397.00	362.78
397.19	437.68
397.39	444.70
397.58	535.98
397.77	489.17
397.97	500.87
398.16	496.19
398.35	486.83
398.55	505.56
398.74	571.09
398.93	580.45
399.12	500.87
399.32	566.41
399.51	521.94
399.70	643.65
399.90	571.09
400.09	578.11
400.28	505.56
400.47	461.09
400.67	653.01
400.86	512.58
401.05	594.50
401.24	627.26
401.44	671.73
401.63	559.39
401.82	629.60
402.01	573.43
402.21	620.24
402.40	526.62
402.59	561.73
402.78	554.71
402.97	521.94
403.17	552.37
403.36	617.90
403.55	678.76
403.74	589.82
403.93	627.26
404.13	601.52
404.32	559.39
404.51	662.37
404.70	582.79
404.89	578.11
405.09	631.94
405.28	573.43
405.47	575.77
405.66	592.16
405.85	533.64
406.05	491.51
406.24	599.18
406.43	613.22
406.62	587.47
406.81	660.03
407.00	543.00
407.20	552.37
407.39	610.88
407.58	564.07
407.77	615.56
407.96	566.41
408.15	662.37
408.34	620.24
408.54	587.47
408.73	613.22
408.92	631.94
409.11	571.09
409.30	617.90
409.49	580.45
409.68	470.45
409.87	554.71
410.07	571.09
410.26	617.90
410.45	638.97
410.64	636.63
410.83	638.97
411.02	615.56
411.21	631.94
411.40	676.41
411.59	674.07
411.78	596.84
411.98	688.12
412.17	631.94
412.36	678.76
412.55	681.10
412.74	641.31
412.93	671.73
413.12	617.90
413.31	723.23
413.50	702.16
413.69	650.67
413.88	620.24
414.07	695.14
414.26	643.65
414.45	716.20
414.64	645.99
414.83	793.44
415.02	713.86
415.22	695.14
415.41	699.82
415.60	638.97
415.79	763.01
415.98	772.38
416.17	660.03
416.36	730.25
416.55	634.29
416.74	671.73
416.93	692.80
417.12	739.61
417.31	678.76
417.50	627.26
417.69	753.65
417.88	634.29
418.07	723.23
418.26	716.20
418.45	643.65
418.64	753.65
418.83	723.23
419.02	755.99
419.21	650.67
419.39	734.93
419.58	676.41
419.77	653.01
419.96	699.82
420.15	760.67
420.34	772.38
420.53	695.14
420.72	765.36
420.91	770.04
421.10	753.65
421.29	748.97
421.48	755.99
421.67	781.74
421.86	763.01
422.05	727.91
422.24	725.57
422.43	692.80
422.61	744.29
422.80	781.74
422.99	744.29
423.18	739.61
423.37	760.67
423.56	690.46
423.75	772.38
423.94	734.93
424.13	629.60
424.32	699.82
424.50	688.12
424.69	723.23
424.88	765.36
425.07	765.36
425.26	746.63
425.45	725.57
425.64	667.05
425.83	676.41
426.01	809.83
426.20	669.39
426.39	730.25
426.58	592.16
426.77	608.54
426.96	585.13
427.15	699.82
427.33	739.61
427.52	786.42
427.71	671.73
427.90	645.99
428.09	704.50
428.28	620.24
428.46	744.29
428.65	634.29
428.84	704.50
429.03	739.61
429.22	559.39
429.40	514.92
429.59	531.30
429.78	547.69
429.97	486.83
430.16	524.28
430.34	479.81
430.53	498.53
430.72	491.51
430.91	627.26
431.10	730.25
431.28	861.32
431.47	915.15
431.66	844.93
431.85	683.44
432.03	730.25
432.22	753.65
432.41	713.86
432.60	842.59
432.79	812.17
432.97	774.72
433.16	746.63
433.35	662.37
433.54	608.54
433.72	653.01
433.91	650.67
434.10	758.33
434.28	788.76
434.47	823.87
434.66	800.46
434.85	692.80
435.03	802.80
435.22	1043.88
435.41	919.83
435.59	1013.45
435.78	880.04
435.97	837.91
436.16	947.92
436.34	894.08
436.53	793.44
436.72	884.72
436.90	858.98
437.09	821.53
437.28	760.67
437.46	692.80
437.65	748.97
437.84	737.27
438.02	681.10
438.21	770.04
438.40	683.44
438.58	812.17
438.77	760.67
438.96	746.63
439.14	739.61
439.33	800.46
439.52	784.08
439.70	849.61
439.89	828.55
440.08	716.20
440.26	774.72
440.45	873.02
440.63	788.76
440.82	936.21
441.01	875.36
441.19	905.79
441.38	947.92
441.57	915.15
441.75	959.62
441.94	980.68
442.12	924.51
442.31	945.58
442.50	938.55
442.68	971.32
442.87	957.28
443.05	823.87
443.24	945.58
443.43	940.90
443.61	1029.84
443.80	858.98
443.98	854.30
444.17	908.13
444.35	971.32
444.54	966.64
444.73	936.21
444.91	924.51
445.10	938.55
445.28	908.13
445.47	835.57
445.65	819.19
445.84	814.51
446.02	959.62
446.21	938.55
446.39	842.59
446.58	891.74
446.77	961.96
446.95	983.02
447.14	997.07
447.32	910.47
447.51	828.55
447.69	880.04
447.88	933.87
448.06	912.81
448.25	964.30
448.43	945.58
448.62	835.57
448.80	924.51
448.99	952.60
449.17	1001.75
449.36	929.19
449.54	940.90
449.73	1071.97
449.91	999.41
450.10	971.32
450.28	1086.01
450.46	1053.24
450.65	1067.28
450.83	992.39
451.02	887.06
451.20	980.68
451.39	973.66
451.57	1071.97
451.76	1006.43
451.94	933.87
452.13	908.13
452.31	936.21
452.49	910.47
452.68	926.85
452.86	922.17
453.05	901.11
453.23	926.85
453.42	973.66
453.60	952.60
453.78	992.39
453.97	983.02
454.15	875.36
454.34	971.32
454.52	854.30
454.70	990.05
454.89	1053.24
455.07	952.60
455.26	1060.26
455.44	1083.67
455.62	964.30
455.81	936.21
455.99	992.39
456.17	957.28
456.36	994.73
456.54	1027.50
456.73	1053.24
456.91	950.26
457.09	1071.97
457.28	1125.80
457.46	990.05
457.64	1069.62
457.83	889.40
458.01	992.39
458.19	1008.77
458.38	940.90
458.56	1064.94
458.74	947.92
458.93	964.30
459.11	999.41
459.29	926.85
459.48	1029.84
459.66	1062.60
459.84	1001.75
460.03	1050.90
460.21	1041.54
460.39	997.07
460.57	1090.69
460.76	1004.09
460.94	997.07
461.12	1032.18
461.31	1050.90
461.49	1046.22
461.67	1043.88
461.85	971.32
462.04	1006.43
462.22	1125.80
462.40	1104.73
462.59	1090.69
462.77	992.39
462.95	985.37
463.13	971.32
463.32	1018.13
463.50	1043.88
463.68	1039.20
463.86	1074.31
464.05	999.41
464.23	1011.11
464.41	976.00
464.59	947.92
464.78	1086.01
464.96	1027.50
465.14	917.49
465.32	1015.79
465.50	1015.79
465.69	1086.01
465.87	1025.15
466.05	1076.65
466.23	964.30
466.41	922.17
466.60	1046.22
466.78	994.73
466.96	1015.79
467.14	1018.13
467.32	1125.80
467.51	980.68
467.69	954.94
467.87	1011.11
468.05	1022.81
468.23	1011.11
468.41	997.07
468.60	1001.75
468.78	1074.31
468.96	1020.47
469.14	1055.58
469.32	992.39
469.50	1067.28
469.69	992.39
469.87	1001.75
470.05	997.07
470.23	968.98
470.41	954.94
470.59	1039.20
470.77	978.34
470.95	1001.75
471.14	1104.73
471.32	1013.45
471.50	1118.78
471.68	1100.05
471.86	1118.78
472.04	1135.16
472.22	1043.88
472.40	983.02
472.58	1006.43
472.77	1032.18
472.95	1064.94
473.13	1095.37
473.31	1011.11
473.49	966.64
473.67	1128.14
473.85	1167.93
474.03	1146.86
474.21	1050.90
474.39	1142.18
474.57	1144.52
474.75	1165.59
474.93	1093.03
475.12	1032.18
475.30	1067.28
475.48	1128.14
475.66	1064.94
475.84	1043.88
476.02	1004.09
476.20	1107.07
476.38	1067.28
476.56	1219.42
476.74	1008.77
476.92	1107.07
477.10	1097.71
477.28	1067.28
477.46	1151.54
477.64	1114.10
477.82	1165.59
478.00	1142.18
478.18	1238.14
478.36	1132.82
478.54	1207.72
478.72	1139.84
478.90	1252.19
479.08	1224.10
479.26	1107.07
479.44	1137.50
479.62	1261.55
479.80	1221.76
479.98	1174.95
480.16	1139.84
480.34	1238.14
480.52	1217.08
480.70	1224.10
480.88	1114.10
481.06	1231.12
481.24	1273.25
481.41	1266.23
481.59	1275.59
481.77	1322.40
481.95	1268.57
482.13	1308.36
482.31	1336.45
482.49	1348.15
482.67	1320.06
482.85	1247.51
483.03	1317.72
483.21	1259.21
483.39	1252.19
483.57	1219.42
483.74	1385.60
483.92	1291.98
484.10	1270.91
484.28	1320.06
484.46	1380.92
484.64	1371.55
484.82	1310.70
485.00	1310.70
485.18	1329.42
485.35	1270.91
485.53	1025.15
485.71	1121.12
485.89	1036.86
486.07	1266.23
486.25	1308.36
486.43	1289.64
486.61	1308.36
486.78	1324.74
486.96	1399.64
487.14	1399.64
487.32	1453.47
487.50	1458.15
487.68	1460.49
487.85	1390.28
488.03	1423.05
488.21	1439.43
488.39	1359.85
488.57	1371.55
488.75	1437.09
488.92	1727.32
489.10	1607.95
489.28	1558.80
489.46	1579.86
489.64	1577.52
489.81	1551.78
489.99	1528.37
490.17	1614.97
490.35	1638.38
490.53	1441.77
490.70	1586.88
490.88	1572.84
491.06	1579.86
491.24	1647.74
491.41	1568.16
491.59	1504.96
491.77	1394.96
491.95	1568.16
492.13	1645.40
492.30	1621.99
492.48	1743.70
492.66	1659.44
492.84	1666.46
493.01	1629.01
493.19	1572.84
493.37	1619.65
493.54	1619.65
493.72	1682.85
493.90	1659.44
494.08	1783.49
494.25	1647.74
494.43	1778.81
494.61	1842.00
494.79	1713.27
494.96	1713.27
495.14	1629.01
495.32	1497.94
495.49	1659.44
495.67	1750.72
495.85	1781.15
496.02	1823.28
496.20	1715.61
496.38	1753.06
496.55	1741.36
496.73	1839.66
496.91	1727.32
497.09	1818.60
497.26	1792.85
497.44	1764.76
497.62	1678.16
497.79	1767.10
497.97	1593.90
498.14	1654.76
498.32	1837.32
498.50	1767.10
498.67	1734.34
498.85	1750.72
499.03	1844.34
499.20	1842.00
499.38	1781.15
499.56	1720.29
499.73	1755.40
499.91	1739.02
500.08	1579.86
500.26	1629.01
500.44	1739.02
500.61	1746.04
500.79	1654.76
500.97	1764.76
501.14	1687.53
501.32	1612.63
501.49	1689.87
501.67	1671.14
501.84	1701.57
502.02	1689.87
502.20	1844.34
502.37	1680.50
502.55	1685.19
502.72	1694.55
502.90	1781.15
503.07	1680.50
503.25	1673.48
503.43	1652.42
503.60	1603.27
503.78	1673.48
503.95	1675.82
504.13	1739.02
504.30	1884.13
504.48	1872.43
504.65	1741.36
504.83	1830.30
505.01	1743.70
505.18	1834.98
505.36	1834.98
505.53	1741.36
505.71	1867.75
505.88	1907.54
506.06	1788.17
506.23	1776.47
506.41	1797.53
506.58	1816.26
506.76	1692.21
506.93	1842.00
507.11	1856.04
507.28	1788.17
507.46	1732.00
507.63	1753.06
507.81	1776.47
507.98	1764.76
508.16	1874.77
508.33	1778.81
508.50	1952.01
508.68	1947.33
508.85	1935.62
509.03	1820.94
509.20	1893.49
509.38	1806.89
509.55	1914.56
509.73	1827.96
509.90	1984.77
510.08	1886.47
510.25	1834.98
510.42	1813.92
510.60	1834.98
510.77	1834.98
510.95	1956.69
511.12	1907.54
511.30	1914.56
511.47	2005.84
511.64	2062.01
511.82	1870.09
511.99	1788.17
512.17	1764.76
512.34	1755.40
512.51	1685.19
512.69	1813.92
512.86	1884.13
513.04	1947.33
513.21	1825.62
513.38	1804.55
513.56	1760.08
513.73	1816.26
513.90	1666.46
514.08	1736.68
514.25	1867.75
514.43	1820.94
514.60	1771.79
514.77	1860.73
514.95	1790.51
515.12	1872.43
515.29	1755.40
515.47	1907.54
515.64	1844.34
515.81	1825.62
515.99	1860.73
516.16	1631.35
516.33	1561.14
516.51	1493.26
516.68	1547.09
516.85	1533.05
517.03	1476.88
517.20	1717.95
517.37	1825.62
517.54	1851.36
517.72	1809.23
517.89	1607.95
518.06	1600.93
518.24	1687.53
518.41	1722.63
518.58	1760.08
518.75	1783.49
518.93	1678.16
519.10	1717.95
519.27	1804.55
519.45	1870.09
519.62	1926.26
519.79	1851.36
519.96	1837.32
520.14	1830.30
520.31	1743.70
520.48	1816.26
520.65	1769.44
520.83	1977.75
521.00	1940.30
521.17	1851.36
521.34	1842.00
521.52	1809.23
521.69	1849.02
521.86	1888.81
522.03	1881.79
522.20	1834.98
522.38	1762.42
522.55	1823.28
522.72	1764.76
522.89	1839.66
523.07	1834.98
523.24	1900.52
523.41	1877.11
523.58	1816.26
523.75	2017.54
523.92	1806.89
524.10	1923.92
524.27	1944.99
524.44	1851.36
524.61	1963.71
524.78	1930.94
524.96	1827.96
525.13	1898.17
525.30	1959.03
525.47	1959.03
525.64	1902.86
525.81	1795.19
525.98	1750.72
526.16	1694.55
526.33	1584.54
526.50	1668.80
526.67	1659.44
526.84	1589.22
527.01	1830.30
527.18	1774.13
527.36	1893.49
527.53	1788.17
527.70	1949.67
527.87	1884.13
528.04	1923.92
528.21	1919.24
528.38	1846.68
528.55	1928.60
528.72	1937.96
528.89	1961.37
529.07	1842.00
529.24	1774.13
529.41	1757.74
529.58	1827.96
529.75	1760.08
529.92	1820.94
530.09	1933.28
530.26	1947.33
530.43	1907.54
530.60	1956.69
530.77	1919.24
530.94	1942.64
531.11	1874.77
531.28	1865.41
531.46	1884.13
531.63	1879.45
531.80	1863.07
531.97	1863.07
532.14	1781.15
532.31	1694.55
532.48	1629.01
532.65	1755.40
532.82	1865.41
532.99	1811.57
533.16	1886.47
533.33	1867.75
533.50	1867.75
533.67	1830.30
533.84	1804.55
534.01	1839.66
534.18	1851.36
534.35	1865.41
534.52	1776.47
534.69	1966.05
534.86	1863.07
535.03	1834.98
535.20	1858.39
535.37	2040.95
535.54	1968.39
535.71	1923.92
535.88	1893.49
536.05	1879.45
536.22	1884.13
536.38	1832.64
536.55	1788.17
536.72	1792.85
536.89	1764.76
537.06	1834.98
537.23	1867.75
537.40	1898.17
537.57	1987.11
537.74	1799.87
537.91	1820.94
538.08	1912.22
538.25	1980.09
538.42	1837.32
538.59	1788.17
538.75	1797.53
538.92	1834.98
539.09	1872.43
539.26	1788.17
539.43	1877.11
539.60	1884.13
539.77	1944.99
539.94	1865.41
540.11	1795.19
540.28	1799.87
540.44	1776.47
540.61	1832.64
540.78	1832.64
540.95	1961.37
541.12	1935.62
541.29	1895.83
541.46	1919.24
541.62	1975.41
541.79	2022.22
541.96	1874.77
542.13	1905.20
542.30	1909.88
542.47	1923.92
542.63	1956.69
542.80	1839.66
542.97	1795.19
543.14	1891.15
543.31	1811.57
543.48	1928.60
543.64	1973.07
543.81	1970.73
543.98	1923.92
544.15	1853.70
544.32	1811.57
544.48	1858.39
544.65	1994.14
544.82	1905.20
544.99	1860.73
545.16	1877.11
545.32	1959.03
545.49	2069.03
545.66	2317.13
545.83	2148.61
546.00	1991.80
546.16	1856.04
546.33	1966.05
546.50	1935.62
546.67	1989.46
546.83	1919.24
547.00	1741.36
547.17	1785.83
547.34	1671.14
547.50	1708.59
547.67	1732.00
547.84	1785.83
548.00	1834.98
548.17	1788.17
548.34	1813.92
548.51	1870.09
548.67	1846.68
548.84	1879.45
549.01	1753.06
549.18	1797.53
549.34	1846.68
549.51	1891.15
549.68	1825.62
549.84	1809.23
550.01	1811.57
550.18	1858.39
550.34	1827.96
550.51	1774.13
550.68	1825.62
550.84	1755.40
551.01	1816.26
551.18	1816.26
551.34	1879.45
551.51	1664.12
551.68	1799.87
551.84	1846.68
552.01	1624.33
552.18	1881.79
552.34	1776.47
552.51	1778.81
552.68	1706.25
552.84	1689.87
553.01	1760.08
553.18	1760.08
553.34	1755.40
553.51	1717.95
553.67	1746.04
553.84	1832.64
554.01	1680.50
554.17	1849.02
554.34	1757.74
554.51	1839.66
554.67	1858.39
554.84	1778.81
555.00	1746.04
555.17	1692.21
555.33	1792.85
555.50	1818.60
555.67	1631.35
555.83	1682.85
556.00	1767.10
556.16	1834.98
556.33	1680.50
556.50	1713.27
556.66	1722.63
556.83	1654.76
556.99	1603.27
557.16	1652.42
557.32	1748.38
557.49	1771.79
557.65	1593.90
557.82	1617.31
557.98	1750.72
558.15	1778.81
558.32	1591.56
558.48	1638.38
558.65	1612.63
558.81	1675.82
558.98	1586.88
559.14	1680.50
559.31	1652.42
559.47	1645.40
559.64	1624.33
559.80	1500.28
559.97	1640.72
560.13	1699.23
560.30	1664.12
560.46	1640.72
560.63	1579.86
560.79	1713.27
560.96	1703.91
561.12	1748.38
561.29	1568.16
561.45	1631.35
561.61	1659.44
561.78	1739.02
561.94	1551.78
562.11	1645.40
562.27	1589.22
562.44	1736.68
562.60	1614.97
562.77	1664.12
562.93	1710.93
563.10	1710.93
563.26	1724.97
563.42	1612.63
563.59	1530.71
563.75	1516.67
563.92	1724.97
564.08	1671.14
564.24	1640.72
564.41	1797.53
564.57	1502.62
564.74	1673.48
564.90	1551.78
565.07	1631.35
565.23	1626.67
565.39	1577.52
565.56	1455.81
565.72	1523.69
565.88	1563.48
566.05	1526.03
566.21	1619.65
566.38	1582.20
566.54	1591.56
566.70	1493.26
566.87	1722.63
567.03	1504.96
567.19	1568.16
567.36	1619.65
567.52	1530.71
567.68	1528.37
567.85	1472.20
568.01	1481.56
568.17	1441.77
568.34	1502.62
568.50	1533.05
568.66	1521.35
568.83	1558.80
568.99	1549.43
569.15	1533.05
569.32	1575.18
569.48	1437.09
569.64	1493.26
569.81	1502.62
569.97	1563.48
570.13	1448.79
570.30	1401.98
570.46	1500.28
570.62	1434.75
570.78	1455.81
570.95	1490.92
571.11	1490.92
571.27	1500.28
571.43	1523.69
571.60	1535.39
571.76	1493.26
571.92	1401.98
572.09	1514.33
572.25	1537.73
572.41	1472.20
572.57	1432.41
572.74	1502.62
572.90	1530.71
573.06	1476.88
573.22	1357.51
573.38	1528.37
573.55	1364.53
573.71	1474.54
573.87	1453.47
574.03	1476.88
574.20	1399.64
574.36	1469.86
574.52	1439.43
574.68	1376.24
574.84	1495.60
575.01	1345.81
575.17	1392.62
575.33	1394.96
575.49	1441.77
575.65	1446.45
575.82	1371.55
575.98	1427.73
576.14	1427.73
576.30	1474.54
576.46	1551.78
576.62	1420.71
576.79	1416.02
576.95	1467.52
577.11	1392.62
577.27	1404.32
577.43	1366.87
577.59	1392.62
577.75	1516.67
577.92	1317.72
578.08	1437.09
578.24	1474.54
578.40	1530.71
578.56	1476.88
578.72	1413.68
578.88	1418.36
579.04	1324.74
579.21	1486.24
579.37	1338.79
579.53	1453.47
579.69	1472.20
579.85	1383.26
580.01	1540.07
580.17	1458.15
580.33	1439.43
580.49	1427.73
580.65	1451.13
580.82	1416.02
580.98	1376.24
581.14	1385.60
581.30	1500.28
581.46	1441.77
581.62	1401.98
581.78	1432.41
581.94	1483.90
582.10	1530.71
582.26	1528.37
582.42	1444.11
582.58	1451.13
582.74	1458.15
582.90	1451.13
583.06	1521.35
583.22	1465.18
583.38	1425.39
583.54	1425.39
583.70	1544.75
583.86	1348.15
584.02	1451.13
584.18	1427.73
584.34	1493.26
584.50	1458.15
584.66	1437.09
584.82	1331.76
584.98	1385.60
585.14	1350.49
585.30	1387.94
585.46	1373.89
585.62	1387.94
585.78	1273.25
585.94	1462.83
586.10	1385.60
586.26	1420.71
586.42	1476.88
586.58	1467.52
586.74	1369.21
586.90	1411.34
587.06	1455.81
587.22	1357.51
587.38	1423.05
587.54	1352.83
587.70	1327.08
587.86	1289.64
588.02	1245.16
588.18	1219.42
588.34	1111.75
588.49	1102.39
588.65	1102.39
588.81	1123.46
588.97	1109.41
589.13	1121.12
589.29	1214.74
589.45	1111.75
589.61	1163.25
589.77	1233.46
589.93	1233.46
590.08	1200.69
590.24	1249.85
590.40	1188.99
590.56	1338.79
590.72	1266.23
590.88	1200.69
591.04	1259.21
591.20	1277.93
591.35	1310.70
591.51	1196.01
591.67	1240.48
591.83	1184.31
591.99	1219.42
592.15	1179.63
592.31	1303.68
592.46	1364.53
592.62	1256.87
592.78	1259.21
592.94	1320.06
593.10	1306.02
593.26	1242.82
593.41	1329.42
593.57	1231.12
593.73	1249.85
593.89	1198.35
594.05	1135.16
594.20	1219.42
594.36	1231.12
594.52	1263.89
594.68	1205.38
594.84	1249.85
594.99	1266.23
595.15	1273.25
595.31	1270.91
595.47	1259.21
595.62	1263.89
595.78	1327.08
595.94	1284.95
596.10	1322.40
596.25	1301.34
596.41	1228.78
596.57	1196.01
596.73	1200.69
596.88	1181.97
597.04	1252.19
597.20	1160.91
597.36	1296.66
597.51	1317.72
597.67	1275.59
597.83	1275.59
597.99	1254.53
598.14	1235.80
598.30	1273.25
598.46	1277.93
598.61	1306.02
598.77	1287.29
598.93	1219.42
599.09	1235.80
599.24	1275.59
599.40	1259.21
599.56	1270.91
599.71	1268.57
599.87	1270.91
600.03	1174.95
600.18	1261.55
600.34	1284.95
600.50	1219.42
600.65	1296.66
600.81	1217.08
600.97	1177.29
601.12	1177.29
601.28	1289.64
601.44	1210.06
601.59	1114.10
601.75	1179.63
601.91	1228.78
602.06	1172.61
602.22	1306.02
602.37	1210.06
602.53	1210.06
602.69	1163.25
602.84	1167.93
603.00	1254.53
603.16	1270.91
603.31	1226.44
603.47	1287.29
603.62	1266.23
603.78	1291.98
603.94	1289.64
604.09	1266.23
604.25	1170.27
604.40	1378.58
604.56	1308.36
604.71	1238.14
604.87	1174.95
605.03	1270.91
605.18	1329.42
605.34	1284.95
605.49	1231.12
605.65	1277.93
605.80	1181.97
605.96	1219.42
606.12	1259.21
606.27	1268.57
606.43	1191.33
606.58	1149.20
606.74	1191.33
606.89	1247.51
607.05	1266.23
607.20	1193.67
607.36	1130.48
607.51	1214.74
607.67	1191.33
607.82	1217.08
607.98	1273.25
608.13	1188.99
608.29	1224.10
608.44	1207.72
608.60	1170.27
608.75	1373.89
608.91	1247.51
609.06	1167.93
609.22	1219.42
609.37	1212.40
609.53	1249.85
609.68	1245.16
609.84	1362.19
609.99	1317.72
610.15	1301.34
610.30	1385.60
610.46	1516.67
610.61	1561.14
610.76	1570.50
610.92	1540.07
611.07	1643.06
611.23	1600.93
611.38	1437.09
611.54	1474.54
611.69	1336.45
611.84	1254.53
612.00	1277.93
612.15	1268.57
612.31	1313.04
612.46	1149.20
612.62	1324.74
612.77	1238.14
612.92	1224.10
613.08	1373.89
613.23	1263.89
613.39	1193.67
613.54	1233.46
613.69	1224.10
613.85	1238.14
614.00	1174.95
614.15	1252.19
614.31	1207.72
614.46	1259.21
614.62	1207.72
614.77	1254.53
614.92	1132.82
615.08	1247.51
615.23	1156.22
615.38	1170.27
615.54	1123.46
615.69	1074.31
615.84	1104.73
616.00	1109.41
616.15	1160.91
616.30	1086.01
616.46	1165.59
616.61	1081.33
616.76	1114.10
616.92	1097.71
617.07	1086.01
617.22	1137.50
617.37	1130.48
617.53	1170.27
617.68	1132.82
617.83	1254.53
617.99	1228.78
618.14	1064.94
618.29	1203.04
618.45	1167.93
618.60	1104.73
618.75	1088.35
618.90	1181.97
619.06	1149.20
619.21	1205.38
619.36	1125.80
619.51	1083.67
619.67	1116.44
619.82	1125.80
619.97	1104.73
620.12	1226.44
620.28	1090.69
620.43	1121.12
620.58	1142.18
620.73	1123.46
620.89	1078.99
621.04	1083.67
621.19	1125.80
621.34	1186.65
621.49	1121.12
621.65	1114.10
621.80	1022.81
621.95	1025.15
622.10	1090.69
622.25	1025.15
622.41	1104.73
622.56	978.34
622.71	1055.58
622.86	1116.44
623.01	1156.22
623.16	1090.69
623.32	1111.75
623.47	1184.31
623.62	1067.28
623.77	1074.31
623.92	1123.46
624.07	968.98
624.23	1123.46
624.38	1013.45
624.53	1043.88
624.68	1050.90
624.83	1078.99
624.98	1036.86
625.13	1008.77
625.29	1069.62
625.44	1027.50
625.59	1034.52
625.74	1064.94
625.89	1067.28
626.04	1137.50
626.19	917.49
626.34	1062.60
626.49	1086.01
626.65	1020.47
626.80	1011.11
626.95	945.58
627.10	964.30
627.25	903.45
627.40	926.85
627.55	889.40
627.70	877.70
627.85	957.28
628.00	1004.09
628.15	896.43
628.30	924.51
628.45	1048.56
628.60	929.19
628.76	999.41
628.91	961.96
629.06	866.00
629.21	896.43
629.36	999.41
629.51	903.45
629.66	1004.09
629.81	997.07
629.96	945.58
630.11	1053.24
630.26	1071.97
630.41	1025.15
630.56	1048.56
630.71	933.87
630.86	929.19
631.01	945.58
631.16	1008.77
631.31	1025.15
631.46	1102.39
631.61	936.21
631.76	1015.79
631.91	940.90
632.06	997.07
632.21	924.51
632.36	1029.84
632.51	987.71
632.66	971.32
632.81	945.58
632.96	931.53
633.10	1039.20
633.25	1013.45
633.40	901.11
633.55	1011.11
633.70	987.71
633.85	870.68
634.00	961.96
634.15	1004.09
634.30	910.47
634.45	1006.43
634.60	1043.88
634.75	938.55
634.90	978.34
635.05	1048.56
635.19	894.08
635.34	926.85
635.49	1018.13
635.64	961.96
635.79	957.28
635.94	973.66
636.09	938.55
636.24	943.24
636.39	971.32
636.53	947.92
636.68	990.05
636.83	1006.43
636.98	1008.77
637.13	896.43
637.28	992.39
637.43	968.98
637.57	849.61
637.72	917.49
637.87	1011.11
638.02	889.40
638.17	980.68
638.32	964.30
638.46	933.87
638.61	980.68
638.76	950.26
638.91	884.72
639.06	931.53
639.20	968.98
639.35	938.55
639.50	933.87
639.65	976.00
639.80	915.15
639.94	987.71
640.09	919.83
640.24	924.51
640.39	910.47
640.54	931.53
640.68	833.23
640.83	947.92
640.98	929.19
641.13	898.77
641.27	891.74
641.42	891.74
641.57	980.68
641.72	980.68
641.86	866.00
642.01	880.04
642.16	877.70
642.31	940.90
642.45	957.28
642.60	938.55
642.75	870.68
642.90	917.49
643.04	940.90
643.19	870.68
643.34	854.30
643.48	912.81
643.63	854.30
643.78	819.19
643.93	954.94
644.07	849.61
644.22	894.08
644.37	805.14
644.51	983.02
644.66	856.64
644.81	816.85
644.95	922.17
645.10	807.48
645.25	898.77
645.39	823.87
645.54	781.74
645.69	866.00
645.83	826.21
645.98	875.36
646.13	870.68
646.27	880.04
646.42	875.36
646.57	718.54
646.71	821.53
646.86	793.44
647.00	882.38
647.15	791.10
647.30	786.42
647.44	816.85
647.59	772.38
647.74	739.61
647.88	798.12
648.03	819.19
648.17	858.98
648.32	753.65
648.47	833.23
648.61	770.04
648.76	793.44
648.90	830.89
649.05	795.78
649.20	758.33
649.34	784.08
649.49	791.10
649.63	823.87
649.78	866.00
649.92	814.51
650.07	844.93
650.21	781.74
650.36	854.30
650.51	847.27
650.65	917.49
650.80	823.87
650.94	814.51
651.09	821.53
651.23	746.63
651.38	723.23
651.52	847.27
651.67	734.93
651.81	875.36
651.96	819.19
652.10	842.59
652.25	816.85
652.39	784.08
652.54	833.23
652.68	842.59
652.83	854.30
652.97	760.67
653.12	833.23
653.26	744.29
653.41	800.46
653.55	795.78
653.70	837.91
653.84	748.97
653.99	814.51
654.13	720.88
654.27	753.65
654.42	767.70
654.56	814.51
654.71	816.85
654.85	774.72
655.00	732.59
655.14	781.74
655.29	732.59
655.43	720.88
655.57	683.44
655.72	596.84
655.86	690.46
656.01	638.97
656.15	744.29
656.30	788.76
656.44	660.03
656.58	725.57
656.73	702.16
656.87	716.20
657.01	727.91
657.16	809.83
657.30	816.85
657.45	816.85
657.59	800.46
657.73	807.48
657.88	748.97
658.02	807.48
658.16	739.61
658.31	819.19
658.45	795.78
658.60	774.72
658.74	669.39
658.88	851.96
659.03	798.12
659.17	744.29
659.31	744.29
659.46	802.80
659.60	781.74
659.74	805.14
659.89	791.10
660.03	814.51
660.17	772.38
660.32	765.36
660.46	788.76
660.60	770.04
660.74	807.48
660.89	814.51
661.03	725.57
661.17	823.87
661.32	734.93
661.46	779.40
661.60	702.16
661.74	702.16
661.89	828.55
662.03	873.02
662.17	819.19
662.31	894.08
662.46	748.97
662.60	812.17
662.74	777.06
662.88	823.87
663.03	725.57
663.17	744.29
663.31	823.87
663.45	786.42
663.60	772.38
663.74	866.00
663.88	732.59
664.02	704.50
664.17	727.91
664.31	692.80
664.45	748.97
664.59	770.04
664.73	763.01
664.88	758.33
665.02	711.52
665.16	741.95
665.30	847.27
665.44	746.63
665.59	788.76
665.73	741.95
665.87	802.80
666.01	704.50
666.15	723.23
666.29	655.35
666.44	734.93
666.58	884.72
666.72	720.88
666.86	657.69
667.00	755.99
667.14	751.31
667.28	692.80
667.43	713.86
667.57	662.37
667.71	716.20
667.85	758.33
667.99	662.37
668.13	685.78
668.27	744.29
668.41	713.86
668.56	725.57
668.70	709.18
668.84	741.95
668.98	683.44
669.12	685.78
669.26	725.57
669.40	805.14
669.54	723.23
669.68	711.52
669.82	650.67
669.96	702.16
670.10	720.88
670.25	751.31
670.39	676.41
670.53	718.54
670.67	751.31
670.81	702.16
670.95	716.20
671.09	683.44
671.23	739.61
671.37	791.10
671.51	716.20
671.65	751.31
671.79	702.16
671.93	688.12
672.07	763.01
672.21	713.86
672.35	667.05
672.49	716.20
672.63	720.88
672.77	645.99
672.91	753.65
673.05	636.63
673.19	678.76
673.33	645.99
673.47	802.80
673.61	720.88
673.75	702.16
673.89	638.97
674.03	732.59
674.17	704.50
674.31	716.20
674.45	660.03
674.59	615.56
674.73	648.33
674.87	671.73
675.01	716.20
675.15	592.16
675.29	674.07
675.43	643.65
675.56	697.48
675.70	723.23
675.84	723.23
675.98	746.63
676.12	683.44
676.26	540.66
676.40	685.78
676.54	638.97
676.68	622.58
676.82	664.71
676.96	622.58
677.10	617.90
677.23	704.50
677.37	662.37
677.51	657.69
677.65	627.26
677.79	648.33
677.93	653.01
678.07	606.20
678.21	620.24
678.34	610.88
678.48	683.44
678.62	622.58
678.76	655.35
678.90	643.65
679.04	638.97
679.18	573.43
679.31	667.05
679.45	578.11
679.59	587.47
679.73	641.31
679.87	571.09
680.00	608.54
680.14	622.58
680.28	629.60
680.42	592.16
680.56	571.09
680.70	507.90
680.83	596.84
680.97	566.41
681.11	606.20
681.25	627.26
681.39	669.39
681.52	594.50
681.66	624.92
681.80	615.56
681.94	589.82
682.07	599.18
682.21	664.71
682.35	533.64
682.49	603.86
682.62	550.03
682.76	524.28
682.90	601.52
683.04	585.13
683.17	702.16
683.31	550.03
683.45	631.94
683.59	552.37
683.72	575.77
683.86	587.47
684.00	554.71
684.13	477.47
684.27	592.16
684.41	573.43
684.55	613.22
684.68	510.24
684.82	524.28
684.96	669.39
685.09	533.64
685.23	505.56
685.37	533.64
685.50	559.39
685.64	557.05
685.78	512.58
685.91	489.17
686.05	589.82
686.19	486.83
686.32	367.46
686.46	381.51
686.60	379.17
686.73	491.51
686.87	451.72
687.01	365.12
687.14	344.06
687.28	444.70
687.42	404.91
687.55	379.17
687.69	451.72
687.82	421.30
687.96	435.34
688.10	524.28
688.23	400.23
688.37	498.53
688.50	526.62
688.64	425.98
688.78	451.72
688.91	517.26
689.05	449.38
689.18	393.21
689.32	479.81
689.46	461.09
689.59	425.98
689.73	423.64
689.86	468.11
690.00	444.70
690.13	430.66
690.27	442.36
690.41	475.13
690.54	458.74
690.68	447.04
690.81	430.66
690.95	514.92
691.08	463.43
691.22	449.38
691.35	512.58
691.49	393.21
691.62	463.43
691.76	519.60
691.89	421.30
692.03	383.85
692.16	369.80
692.30	444.70
692.43	395.55
692.57	362.78
692.70	423.64
692.84	433.00
692.97	407.25
693.11	454.06
693.24	428.32
693.38	461.09
693.51	409.59
693.65	376.83
693.78	430.66
693.92	414.27
694.05	470.45
694.19	390.87
694.32	489.17
694.45	404.91
694.59	409.59
694.72	376.83
694.86	475.13
694.99	425.98
695.13	374.49
695.26	442.36
695.39	435.34
695.53	461.09
695.66	421.30
695.80	449.38
695.93	421.30
696.07	397.89
696.20	414.27
696.33	418.96
696.47	381.51
696.60	423.64
696.73	414.27
696.87	463.43
697.00	503.22
697.14	528.96
697.27	362.78
697.40	470.45
697.54	407.25
697.67	334.70
697.80	475.13
697.94	407.25
698.07	414.27
698.21	444.70
698.34	402.57
698.47	430.66
698.61	362.78
698.74	428.32
698.87	454.06
699.01	320.65
699.14	447.04
699.27	416.62
699.40	540.66
699.54	395.55
699.67	463.43
699.80	409.59
699.94	425.98
700.07	433.00
700.20	325.33
700.34	433.00
700.47	400.23
700.60	390.87
700.73	372.15
700.87	400.23
701.00	407.25
701.13	327.68
701.26	369.80
701.40	369.80
701.53	386.19
701.66	365.12
701.79	365.12
701.93	442.36
702.06	416.62
702.19	402.57
702.32	383.85
702.46	390.87
702.59	404.91
702.72	395.55
702.85	404.91
702.99	376.83
703.12	353.42
703.25	339.38
703.38	351.08
703.51	379.17
703.65	315.97
703.78	411.93
703.91	477.47
704.04	393.21
704.17	315.97
704.31	372.15
704.44	367.46
704.57	454.06
704.70	355.76
704.83	362.78
704.96	421.30
705.10	383.85
705.23	297.25
>>>>>End Processed Spectral Data<<<<<
