SpectraSuite Data File
++++++++++++++++++++++++++++++++++++
Date: Mon Sep 30 18:11:43 GMT-05:00 2013
User: stostad
Dark Spectrum Present: No
Reference Spectrum Present: No
Number of Sampled Component Spectra: 1
Spectrometers: USB2+H05261
Integration Time (usec): 100000 (USB2+H05261)
Spectra Averaged: 1 (USB2+H05261)
Boxcar Smoothing: 0 (USB2+H05261)
Correct for Electrical Dark: No (USB2+H05261)
Strobe/Lamp Enabled: No (USB2+H05261)
Correct for Detector Non-linearity: No (USB2+H05261)
Correct for Stray Light: No (USB2+H05261)
Number of Pixels in Processed Spectrum: 2048
>>>>>Begin Processed Spectral Data<<<<<
365.73	145.11
365.92	145.11
366.12	145.11
366.32	28.09
366.52	77.24
366.72	53.83
366.91	37.45
367.11	95.96
367.31	77.24
367.51	63.19
367.70	42.13
367.90	0.00
368.10	0.00
368.30	128.73
368.49	14.04
368.69	0.00
368.89	65.54
369.09	0.00
369.28	46.81
369.48	63.19
369.68	53.83
369.87	100.64
370.07	51.49
370.27	112.35
370.47	119.37
370.66	227.03
370.86	383.85
371.06	395.55
371.25	414.27
371.45	421.30
371.65	402.57
371.84	404.91
372.04	414.27
372.24	437.68
372.44	435.34
372.63	390.87
372.83	430.66
373.03	472.79
373.22	514.92
373.42	507.90
373.62	442.36
373.81	491.51
374.01	475.13
374.21	571.09
374.40	526.62
374.60	486.83
374.79	437.68
374.99	521.94
375.19	500.87
375.38	517.26
375.58	554.71
375.78	554.71
375.97	517.26
376.17	622.58
376.37	580.45
376.56	447.04
376.76	575.77
376.95	547.69
377.15	521.94
377.35	500.87
377.54	578.11
377.74	500.87
377.93	624.92
378.13	592.16
378.33	592.16
378.52	610.88
378.72	634.29
378.91	641.31
379.11	627.26
379.31	613.22
379.50	561.73
379.70	669.39
379.89	627.26
380.09	594.50
380.28	594.50
380.48	702.16
380.68	641.31
380.87	653.01
381.07	676.41
381.26	741.95
381.46	629.60
381.65	629.60
381.85	671.73
382.04	676.41
382.24	671.73
382.43	620.24
382.63	718.54
382.83	755.99
383.02	739.61
383.22	760.67
383.41	753.65
383.61	779.40
383.80	786.42
384.00	753.65
384.19	709.18
384.39	690.46
384.58	777.06
384.78	718.54
384.97	765.36
385.17	755.99
385.36	772.38
385.56	734.93
385.75	767.70
385.95	812.17
386.14	793.44
386.34	795.78
386.53	746.63
386.72	765.36
386.92	812.17
387.11	851.96
387.31	837.91
387.50	863.66
387.70	781.74
387.89	873.02
388.09	748.97
388.28	814.51
388.48	903.45
388.67	833.23
388.86	931.53
389.06	826.21
389.25	884.72
389.45	854.30
389.64	884.72
389.84	933.87
390.03	861.32
390.22	863.66
390.42	945.58
390.61	861.32
390.81	912.81
391.00	992.39
391.19	950.26
391.39	994.73
391.58	957.28
391.78	1083.67
391.97	1011.11
392.16	901.11
392.36	1020.47
392.55	1025.15
392.75	1057.92
392.94	971.32
393.13	1097.71
393.33	1043.88
393.52	980.68
393.71	1111.75
393.91	1097.71
394.10	1128.14
394.29	1153.88
394.49	1125.80
394.68	1102.39
394.88	1167.93
395.07	1118.78
395.26	1018.13
395.46	1097.71
395.65	1125.80
395.84	1212.40
396.04	1294.32
396.23	1200.69
396.42	1181.97
396.62	1235.80
396.81	1186.65
397.00	1249.85
397.19	1284.95
397.39	1247.51
397.58	1289.64
397.77	1266.23
397.97	1179.63
398.16	1301.34
398.35	1210.06
398.55	1341.13
398.74	1327.08
398.93	1383.26
399.12	1355.17
399.32	1350.49
399.51	1259.21
399.70	1418.36
399.90	1366.87
400.09	1380.92
400.28	1420.71
400.47	1320.06
400.67	1451.13
400.86	1441.77
401.05	1439.43
401.24	1479.22
401.44	1561.14
401.63	1486.24
401.82	1586.88
402.01	1600.93
402.21	1528.37
402.40	1537.73
402.59	1554.12
402.78	1565.82
402.97	1563.48
403.17	1624.33
403.36	1629.01
403.55	1584.54
403.74	1650.08
403.93	1708.59
404.13	1722.63
404.32	1762.42
404.51	1671.14
404.70	1715.61
404.89	1633.69
405.09	1804.55
405.28	1724.97
405.47	1743.70
405.66	1739.02
405.85	1748.38
406.05	1750.72
406.24	1881.79
406.43	1816.26
406.62	1902.86
406.81	1905.20
407.00	1944.99
407.20	1813.92
407.39	1895.83
407.58	1963.71
407.77	1975.41
407.96	2054.99
408.15	2054.99
408.34	2090.10
408.54	2012.86
408.73	2083.08
408.92	2127.55
409.11	2064.35
409.30	2059.67
409.49	2146.27
409.68	2150.95
409.87	2127.55
410.07	2134.57
410.26	2162.66
410.45	2172.02
410.64	2172.02
410.83	2223.51
411.02	2289.04
411.21	2289.04
411.40	2186.06
411.59	2406.07
411.78	2361.60
411.98	2345.22
412.17	2469.27
412.36	2480.97
412.55	2427.14
412.74	2462.24
412.93	2434.16
413.12	2473.95
413.31	2649.49
413.50	2520.76
413.69	2562.89
413.88	2621.40
414.07	2605.02
414.26	2722.04
414.45	2670.55
414.64	2752.47
414.83	2836.73
415.02	2792.26
415.22	2832.05
415.41	2977.16
415.60	2782.90
415.79	2883.54
415.98	2902.26
416.17	2850.77
416.36	2904.60
416.55	2935.03
416.74	3028.65
416.93	3073.12
417.12	3038.02
417.31	3103.55
417.50	3007.59
417.69	3089.51
417.88	3215.90
418.07	3246.32
418.26	3049.72
418.45	3103.55
418.64	3169.09
418.83	3293.13
419.02	3255.69
419.21	3297.81
419.39	3335.26
419.58	3330.58
419.77	3215.90
419.96	3449.95
420.15	3304.84
420.34	3339.94
420.53	3482.72
420.72	3445.27
420.91	3389.10
421.10	3499.10
421.29	3424.20
421.48	3449.95
421.67	3536.55
421.86	3440.59
422.05	3475.70
422.24	3316.54
422.43	3545.91
422.61	3676.98
422.80	3728.47
422.99	3751.88
423.18	3665.28
423.37	3684.00
423.56	3644.21
423.75	3637.19
423.94	3658.26
424.13	3461.65
424.32	3485.06
424.50	3599.74
424.69	3805.71
424.88	3805.71
425.07	3555.27
425.26	3667.62
425.45	3609.11
425.64	3716.77
425.83	3723.79
426.01	3702.73
426.20	3660.60
426.39	3831.46
426.58	3775.28
426.77	3857.20
426.96	3861.88
427.15	3655.92
427.33	3922.74
427.52	3770.60
427.71	3805.71
427.90	3829.12
428.09	3796.35
428.28	3861.88
428.46	3850.18
428.65	3833.80
428.84	3974.23
429.03	3918.06
429.22	3728.47
429.40	3794.01
429.59	3646.55
429.78	3688.68
429.97	3665.28
430.16	3691.02
430.34	3758.90
430.53	3929.76
430.72	3705.07
430.91	3684.00
431.10	3646.55
431.28	3824.44
431.47	3950.82
431.66	3992.95
431.85	3911.04
432.03	4051.47
432.22	4037.42
432.41	4046.79
432.60	4222.33
432.79	4180.20
432.97	4128.70
433.16	4056.15
433.35	4198.92
433.54	4273.82
433.72	4463.40
433.91	4243.39
434.10	4327.65
434.28	4376.80
434.47	4610.86
434.66	4580.43
434.85	4554.68
435.03	4671.71
435.22	4709.16
435.41	4903.42
435.59	4793.42
435.78	4767.67
435.97	4676.39
436.16	4678.73
436.34	4615.54
436.53	4718.52
436.72	4908.10
436.90	4774.69
437.09	4947.89
437.28	4873.00
437.46	4809.80
437.65	4994.70
437.84	4952.57
438.02	5053.22
438.21	4971.30
438.40	4987.68
438.58	5097.69
438.77	5284.93
438.96	5151.52
439.14	5287.27
439.33	5305.99
439.52	5345.78
439.70	5291.95
439.89	5458.13
440.08	5486.22
440.26	5572.82
440.45	5542.39
440.63	5526.00
440.82	5579.84
441.01	5666.44
441.19	5584.52
441.38	5837.30
441.57	5818.57
441.75	5816.23
441.94	5884.11
442.12	5839.64
442.31	5991.77
442.50	6019.86
442.68	5973.05
442.87	6029.22
443.05	6099.44
443.24	6127.52
443.43	6258.59
443.61	6223.48
443.80	6289.02
443.98	6080.71
444.17	5919.21
444.35	6141.57
444.54	6272.64
444.73	6204.76
444.91	6038.58
445.10	6169.65
445.28	6066.67
445.47	6026.88
445.65	6282.00
445.84	6120.50
446.02	6356.90
446.21	6136.88
446.39	6235.19
446.58	6340.51
446.77	6356.90
446.95	6003.47
447.14	6237.53
447.32	6431.79
447.51	6349.87
447.69	6310.08
447.88	6455.20
448.06	6296.04
448.25	6176.67
448.43	6317.11
448.62	6502.01
448.80	6284.34
448.99	6258.59
449.17	6380.30
449.36	6373.28
449.54	6675.21
449.73	6670.53
449.91	6621.38
450.10	6700.95
450.28	6654.14
450.46	6588.61
450.65	6602.65
450.83	6616.69
451.02	6588.61
451.20	6722.02
451.39	6810.96
451.57	6665.85
451.76	6726.70
451.94	6712.66
452.13	6738.40
452.31	6773.51
452.49	6715.00
452.68	6927.99
452.86	6719.68
453.05	6843.73
453.23	6899.90
453.42	6942.03
453.60	6808.62
453.78	6902.24
453.97	6789.89
454.15	6946.71
454.34	6995.86
454.52	6906.92
454.70	6988.84
454.89	7162.04
455.07	7066.08
455.26	7150.34
455.44	7166.72
455.62	7084.80
455.81	7178.42
455.99	7183.10
456.17	7248.64
456.36	7206.51
456.54	7258.00
456.73	7375.03
456.91	7482.69
457.09	7325.88
457.28	7595.04
457.46	7454.61
457.64	7468.65
457.83	7555.25
458.01	7445.24
458.19	7578.65
458.38	7508.44
458.56	7639.51
458.74	7616.10
458.93	7599.72
459.11	7714.41
459.29	7508.44
459.48	7695.68
459.66	7648.87
459.84	7925.05
460.03	7824.41
460.21	7784.62
460.39	7812.71
460.57	7861.86
460.76	7960.16
460.94	7901.65
461.12	7887.61
461.31	7974.21
461.49	8070.17
461.67	7826.75
461.85	8079.53
462.04	7955.48
462.22	8177.83
462.40	8255.07
462.59	8121.66
462.77	8276.13
462.95	8248.05
463.13	8278.47
463.32	8116.98
463.50	8362.73
463.68	8489.12
463.86	8318.26
464.05	8372.10
464.23	8294.86
464.41	8379.12
464.59	8367.42
464.78	8674.03
464.96	8395.50
465.14	8451.67
465.32	8423.59
465.50	8491.46
465.69	8578.06
465.87	8812.12
466.05	8549.98
466.23	8489.12
466.41	8594.45
466.60	8774.67
466.78	8585.08
466.96	8657.64
467.14	8650.62
467.32	8788.71
467.51	8936.17
467.69	8650.62
467.87	8823.82
468.05	8809.78
468.23	8798.07
468.41	8739.56
468.60	8725.52
468.78	8720.84
468.96	8559.34
469.14	9074.26
469.32	8938.51
469.50	8903.40
469.69	9104.68
469.87	9184.26
470.05	9104.68
470.23	9153.84
470.41	8968.93
470.59	9366.82
470.77	9104.68
470.95	9167.88
471.14	9348.10
471.32	9256.82
471.50	9334.06
471.68	9310.65
471.86	9467.47
472.04	9591.52
472.22	9558.75
472.40	9387.89
472.58	9270.86
472.77	9544.70
472.95	9678.12
473.13	9951.96
473.31	9497.89
473.49	9624.28
473.67	9441.72
473.85	9802.16
474.03	9872.38
474.21	9802.16
474.39	10066.64
474.57	9968.34
474.75	10162.61
474.93	10120.48
475.12	10064.30
475.30	10420.06
475.48	10317.08
475.66	10590.92
475.84	10492.62
476.02	10630.71
476.20	10764.12
476.38	10850.72
476.56	10815.62
476.74	11012.22
476.92	10785.19
477.10	10906.90
477.28	11115.20
477.46	11274.36
477.64	11033.29
477.82	11459.26
478.00	11698.00
478.18	11676.93
478.36	11604.38
478.54	11894.60
478.72	11728.42
478.90	11992.90
479.08	12226.96
479.26	12163.76
479.44	12355.69
479.62	12475.06
479.80	12388.46
479.98	12753.58
480.16	12751.24
480.34	12812.09
480.52	13242.75
480.70	13167.85
480.88	12922.10
481.06	13231.05
481.24	13245.09
481.41	13582.13
481.59	13844.27
481.77	13792.78
481.95	13968.32
482.13	14001.08
482.31	14036.19
482.49	14466.85
482.67	14600.26
482.85	14548.77
483.03	14614.30
483.21	14864.74
483.39	14885.81
483.57	15164.33
483.74	15637.12
483.92	15714.36
484.10	15246.25
484.28	15606.69
484.46	15854.79
484.64	16196.51
484.82	15971.82
485.00	16297.15
485.18	16601.42
485.35	16706.74
485.53	16723.13
485.71	16835.47
485.89	17106.98
486.07	17083.57
486.25	17610.19
486.43	17598.49
486.61	17539.97
486.78	18108.72
486.96	17942.55
487.14	18085.32
487.32	18040.85
487.50	18480.87
487.68	18663.43
487.85	18560.45
488.03	18925.57
488.21	19417.08
488.39	19115.16
488.57	19742.42
488.75	19583.26
488.92	20109.88
489.10	19941.36
489.28	19922.64
489.46	20212.87
489.64	19999.88
489.81	20414.15
489.99	20507.77
490.17	20372.02
490.35	20793.32
490.53	20945.45
490.70	20837.79
490.88	20828.43
491.06	21390.16
491.24	21212.28
491.41	21549.31
491.59	21333.98
491.77	21528.25
491.95	21968.27
492.13	21582.08
492.30	22127.42
492.48	22104.02
492.66	22501.91
492.84	22693.83
493.01	22754.69
493.19	22600.21
493.37	22925.55
493.54	22609.58
493.72	23257.90
493.90	23040.23
494.08	23325.78
494.25	23543.45
494.43	23527.06
494.61	23929.64
494.79	23826.65
494.96	23763.46
495.14	24336.89
495.32	24472.64
495.49	24084.11
495.67	24070.07
495.85	24517.11
496.02	24470.30
496.20	24608.39
496.38	25017.99
496.55	24662.22
496.73	25329.28
496.91	24900.96
497.09	25394.81
497.26	25324.60
497.44	25179.48
497.62	25504.82
497.79	25642.91
497.97	25532.90
498.14	26005.69
498.32	25914.41
498.50	25965.90
498.67	25825.47
498.85	26008.03
499.03	26286.56
499.20	26012.71
499.38	26171.87
499.56	26281.88
499.73	26335.71
499.91	26309.96
500.08	26436.35
500.26	26368.48
500.44	26862.33
500.61	27171.28
500.79	27047.23
500.97	26668.06
501.14	26665.72
501.32	26733.60
501.49	27159.58
501.67	27264.90
501.84	27056.59
502.02	27227.45
502.20	27110.43
502.37	27290.65
502.55	27374.91
502.72	27323.41
502.90	27536.40
503.07	27271.92
503.25	27400.65
503.43	27566.83
503.60	27903.87
503.78	27669.81
503.95	27716.62
504.13	27826.63
504.30	28077.07
504.48	27679.18
504.65	27807.90
504.83	28208.14
505.01	27718.96
505.18	27407.67
505.36	27953.02
505.53	28070.04
505.71	28219.84
505.88	28320.48
506.06	28196.43
506.23	28114.52
506.41	28144.94
506.58	28058.34
506.76	28067.70
506.93	28142.60
507.11	28575.60
507.28	28327.50
507.46	28130.90
507.63	27868.76
507.81	28458.57
507.98	28191.75
508.16	28367.29
508.33	28056.00
508.50	28519.43
508.68	28538.15
508.85	28210.48
509.03	27716.62
509.20	27878.12
509.38	28084.09
509.55	27878.12
509.73	27964.72
509.90	27927.27
510.08	27784.50
510.25	27978.76
510.42	27548.11
510.60	27452.14
510.77	27880.46
510.95	27433.42
511.12	27342.14
511.30	27302.35
511.47	27297.67
511.64	27328.10
511.82	27480.23
511.99	27161.92
512.17	27096.38
512.34	27044.89
512.51	27793.86
512.69	27594.92
512.86	27302.35
513.04	27438.10
513.21	27623.00
513.38	27276.60
513.56	27835.99
513.73	27410.01
513.90	27824.29
514.08	27835.99
514.25	27976.42
514.43	27669.81
514.60	27999.83
514.77	28154.30
514.95	28596.67
515.12	28371.97
515.29	28587.30
515.47	28957.11
515.64	28781.57
515.81	29139.67
515.99	29027.32
516.16	29591.39
516.33	29535.22
516.51	29687.36
516.68	29539.90
516.85	29942.47
517.03	30024.39
517.20	29970.56
517.37	30120.35
517.54	30314.62
517.72	30108.65
517.89	30473.78
518.06	30426.96
518.24	30916.14
518.41	30204.61
518.58	30866.98
518.75	30857.62
518.93	31225.09
519.10	31047.21
519.27	31477.86
519.45	31381.90
519.62	31641.70
519.79	31576.17
519.96	31552.76
520.14	31704.90
520.31	31536.38
520.48	31405.31
520.65	30934.86
520.83	31438.08
521.00	31461.48
521.17	31276.58
521.34	30899.75
521.52	30998.06
521.69	30572.08
521.86	30848.26
522.03	30649.32
522.20	30684.42
522.38	30265.47
522.55	30213.98
522.72	30153.12
522.89	30113.33
523.07	29954.18
523.24	29357.34
523.41	29338.62
523.58	28819.02
523.75	28854.12
523.92	29097.54
524.10	28842.42
524.27	28507.72
524.44	28601.35
524.61	28877.53
524.78	28701.99
524.96	28261.97
525.13	28601.35
525.30	28409.42
525.47	28872.85
525.64	28711.35
525.81	28437.51
525.98	28669.22
526.16	28463.25
526.33	28320.48
526.50	28533.47
526.67	28297.08
526.84	28584.96
527.01	28294.74
527.18	28627.09
527.36	28474.96
527.53	28203.46
527.70	28521.77
527.87	28357.93
528.04	28128.56
528.21	28379.00
528.38	28247.93
528.55	28093.45
528.72	27983.44
528.89	28528.79
529.07	28030.26
529.24	28144.94
529.41	28439.85
529.58	28751.14
529.75	29034.35
529.92	29022.64
530.09	28589.64
530.26	28922.00
530.43	29357.34
530.60	29207.55
530.77	28971.15
530.94	29603.10
531.11	29298.83
531.28	29584.37
531.46	29750.55
531.63	29722.46
531.80	29905.02
531.97	30127.38
532.14	30373.13
532.31	30520.59
532.48	30810.81
532.65	31285.94
532.82	30925.50
532.99	31412.33
533.16	31442.76
533.33	31658.09
533.50	31828.95
533.67	32250.24
533.84	32261.94
534.01	33053.05
534.18	33357.32
534.35	33677.97
534.52	33809.04
534.69	34553.33
534.86	34506.52
535.03	34759.30
535.20	34878.66
535.37	35496.56
535.54	35803.17
535.71	35622.95
535.88	36081.70
536.05	36329.80
536.22	37057.70
536.38	36917.27
536.55	36701.94
536.72	37188.77
536.89	37694.33
537.06	37886.25
537.23	38593.09
537.40	38611.82
537.57	38740.55
537.74	38995.67
537.91	39358.45
538.08	39702.51
538.25	39480.16
538.42	39892.09
538.59	40137.85
538.75	40231.47
538.92	40720.64
539.09	41001.50
539.26	40868.09
539.43	41027.25
539.60	41050.66
539.77	41539.83
539.94	41488.34
540.11	42288.80
540.28	42775.63
540.44	43019.05
540.61	42700.73
540.78	43030.75
540.95	42717.12
541.12	43082.24
541.29	43714.19
541.46	43976.33
541.62	44091.01
541.79	44280.60
541.96	44002.07
542.13	44217.40
542.30	44823.60
542.47	44484.22
542.63	44722.96
542.80	45134.89
542.97	44957.01
543.14	45717.68
543.31	45284.68
543.48	45757.47
543.64	46064.08
543.81	45930.67
543.98	45879.18
544.15	46153.02
544.32	45940.04
544.48	46487.72
544.65	46230.26
544.82	46841.14
544.99	46464.32
545.16	46410.48
545.32	46841.14
545.49	47709.48
545.66	47618.20
545.83	47297.55
546.00	47625.22
546.16	47274.14
546.33	46974.55
546.50	46892.63
546.67	47491.81
546.83	47047.11
547.00	47585.43
547.17	47421.59
547.34	47405.21
547.50	47334.99
547.67	47746.93
547.84	47494.15
548.00	47767.99
548.17	48208.01
548.34	48109.71
548.51	47920.13
548.67	47571.39
548.84	47995.03
549.01	47878.00
549.18	47856.93
549.34	47978.64
549.51	48051.20
549.68	48566.12
549.84	48271.21
550.01	48472.49
550.18	48219.72
550.34	48509.94
550.51	48259.51
550.68	48102.69
550.84	48193.97
551.01	48835.28
551.18	48671.44
551.34	48547.39
551.51	49045.93
551.68	48823.58
551.84	48626.97
552.01	48779.10
552.18	48648.03
552.34	48449.09
552.51	48809.53
552.68	49256.57
552.84	49104.44
553.01	49338.49
553.18	49071.67
553.34	49097.42
553.51	48947.62
553.67	49027.20
553.84	49411.05
554.01	49448.50
554.17	48851.66
554.34	49375.94
554.51	49544.46
554.67	49160.61
554.84	49420.41
555.00	49406.37
555.17	49460.20
555.33	49368.92
555.50	49113.80
555.67	49230.83
555.83	49048.27
556.00	49586.59
556.16	49436.80
556.33	49212.10
556.50	49404.03
556.66	49984.48
556.83	49619.36
556.99	49352.54
557.16	49584.25
557.32	50045.33
557.49	49766.81
557.65	49624.04
557.82	49631.06
557.98	49792.56
558.15	50014.91
558.32	49727.02
558.48	49439.14
558.65	49624.04
558.81	49626.38
558.98	49441.48
559.14	49815.96
559.31	49507.01
559.47	49448.50
559.64	50136.62
559.80	49446.16
559.97	49715.32
560.13	49462.54
560.30	49481.27
560.46	49708.30
560.63	49785.54
560.79	50066.40
560.96	49698.94
561.12	49790.22
561.29	49532.76
561.45	49188.70
561.61	49516.37
561.78	49167.63
561.94	49385.30
562.11	49539.78
562.27	49118.48
562.44	49244.87
562.60	49268.28
562.77	49062.31
562.93	49001.46
563.10	49825.32
563.26	48954.64
563.42	49048.27
563.59	48575.48
563.75	48619.95
563.92	48505.26
564.08	48362.49
564.24	48378.87
564.41	48243.12
564.57	48025.45
564.74	47674.37
564.90	47625.22
565.07	47510.53
565.23	47449.68
565.39	46937.10
565.56	46761.56
565.72	46485.38
565.88	46665.60
566.05	45853.44
566.21	45350.22
566.38	45390.01
566.54	44540.39
566.70	44715.93
566.87	43693.12
567.03	42433.91
567.19	42403.49
567.36	41851.12
567.52	41067.04
567.68	40825.96
567.85	39660.38
568.01	38801.40
568.17	37544.53
568.34	36800.24
568.50	35672.10
568.66	34607.16
568.83	33656.90
568.99	32519.40
569.15	31573.83
569.32	30295.89
569.48	29039.03
569.64	28503.04
569.81	27014.46
569.97	26087.61
570.13	24973.52
570.30	23997.51
570.46	23084.70
570.62	22317.01
570.78	21319.94
570.95	20699.70
571.11	20280.74
571.27	19763.48
571.43	19103.45
571.60	18679.82
571.76	17982.34
571.92	17963.61
572.09	17781.05
572.25	17198.26
572.41	17209.96
572.57	16968.88
572.74	17057.82
572.90	17006.33
573.06	16835.47
573.22	16933.78
573.38	17048.46
573.55	16730.15
573.71	16966.54
573.87	17057.82
574.03	16872.92
574.20	17193.58
574.36	17060.16
574.52	17226.34
574.68	17177.19
574.84	17638.28
575.01	17317.62
575.17	17387.84
575.33	17191.23
575.49	17345.71
575.65	17551.68
575.82	17544.66
575.98	17322.30
576.14	17273.15
576.30	17394.86
576.46	17694.45
576.62	17692.11
576.79	17741.26
576.95	17886.37
577.11	17884.03
577.27	17465.08
577.43	17802.11
577.59	18122.77
577.75	18382.57
577.92	18448.10
578.08	18434.06
578.24	18759.39
578.40	18867.06
578.56	18686.84
578.72	18728.97
578.88	19201.76
579.04	18932.59
579.21	18829.61
579.37	19091.75
579.53	18972.38
579.69	18892.80
579.85	19126.86
580.01	19206.44
580.17	18860.04
580.33	18743.01
580.49	18764.07
580.65	18417.68
580.82	18434.06
580.98	18047.87
581.14	17703.81
581.30	17516.57
581.46	17177.19
581.62	16875.26
581.78	16622.48
581.94	16161.40
582.10	15396.04
582.26	15286.04
582.42	14890.49
582.58	14630.69
582.74	14083.00
582.90	14104.07
583.06	13481.49
583.22	13312.97
583.38	12816.77
583.54	12765.28
583.70	12381.43
583.86	12194.19
584.02	11873.54
584.18	11997.59
584.34	11571.61
584.50	11658.21
584.66	11826.73
584.82	11447.56
584.98	11648.85
585.14	11412.45
585.30	11623.10
585.46	11620.76
585.62	11552.88
585.78	11714.38
585.94	11587.99
586.10	12009.29
586.26	12053.76
586.42	12306.54
586.58	12601.44
586.74	12669.32
586.90	12865.92
587.06	13043.81
587.22	13238.07
587.38	13275.52
587.54	13692.13
587.70	14092.37
587.86	14036.19
588.02	14324.08
588.18	14523.02
588.34	14736.01
588.49	15185.40
588.65	15349.23
588.81	15602.01
588.97	15985.86
589.13	16081.82
589.29	16528.86
589.45	16772.28
589.61	16809.73
589.77	17212.30
589.93	16893.99
590.08	17240.39
590.24	17771.69
590.40	17664.02
590.56	18026.81
590.72	18354.48
590.88	18270.22
591.04	18539.38
591.20	18703.22
591.35	18754.71
591.51	19250.91
591.67	19323.46
591.83	19789.23
591.99	19807.95
592.15	19990.52
592.31	20402.45
592.46	20645.87
592.62	21034.39
592.78	21212.28
592.94	21701.45
593.10	21869.97
593.26	22342.75
593.41	22719.58
593.57	22787.46
593.73	23143.22
593.89	24070.07
594.05	24058.37
594.20	24627.12
594.36	25055.43
594.52	25495.46
594.68	25876.96
594.84	26101.65
594.99	26895.10
595.15	26806.16
595.31	27414.69
595.47	27419.38
595.62	28144.94
595.78	28191.75
595.94	28648.16
596.10	29069.45
596.25	29797.36
596.41	30431.65
596.57	29874.60
596.73	30988.69
596.88	30862.30
597.04	30899.75
597.20	31480.21
597.36	31740.00
597.51	32243.22
597.67	32545.15
597.83	32741.75
597.99	33270.72
598.14	33050.70
598.30	33600.73
598.46	33956.49
598.61	33855.85
598.77	33872.23
598.93	34335.66
599.09	33930.75
599.24	34717.17
599.40	35082.29
599.56	35152.51
599.71	35770.41
599.87	36077.02
600.03	36259.58
600.18	36816.63
600.34	36627.04
600.50	37036.64
600.65	37434.53
600.81	37596.03
600.97	37500.06
601.12	37649.86
601.28	38270.10
601.44	38508.83
601.59	38665.65
601.75	39377.17
601.91	39330.36
602.06	39335.04
602.22	39859.32
602.37	40055.93
602.53	40451.48
602.69	40781.49
602.84	40755.75
603.00	41240.24
603.16	41769.20
603.31	41191.09
603.47	41446.21
603.62	41816.01
603.78	42213.90
603.94	42440.93
604.09	42845.85
604.25	43049.47
604.40	42426.89
604.56	42958.19
604.71	43213.31
604.87	43220.33
605.03	43058.84
605.18	43512.90
605.34	44182.29
605.49	43908.45
605.65	44165.91
605.80	44074.63
605.96	44699.55
606.12	45013.18
606.27	44715.93
606.43	44634.02
606.58	45111.49
606.74	45078.72
606.89	45539.80
607.05	45457.88
607.20	45249.58
607.36	45530.44
607.51	45600.66
607.67	45633.42
607.82	45914.29
607.98	45579.59
608.13	46099.19
608.29	46246.65
608.44	46164.73
608.60	45902.59
608.75	45984.51
608.91	45867.48
609.06	46391.76
609.22	46515.81
609.37	46529.85
609.53	46969.87
609.68	47428.62
609.84	47304.57
609.99	47634.58
610.15	47672.03
610.30	47487.13
610.46	47978.64
610.61	48065.24
610.76	48596.54
610.92	48439.73
611.07	48629.31
611.23	48624.63
611.38	49191.04
611.54	48863.36
611.69	49083.37
611.84	49329.13
612.00	49322.11
612.15	49256.57
612.31	49703.62
612.46	49373.60
612.62	49017.84
612.77	49738.72
612.92	50305.13
613.08	50485.36
613.23	50155.34
613.39	50389.39
613.54	50499.40
613.69	51267.09
613.85	50916.01
614.00	51105.60
614.15	50836.44
614.31	50972.19
614.46	51388.80
614.62	51068.15
614.77	51386.46
614.92	51290.50
615.08	51409.87
615.23	51643.92
615.38	51636.90
615.54	51367.74
615.69	51639.24
615.84	51716.48
616.00	51737.54
616.15	51566.68
616.30	51562.00
616.46	51639.24
616.61	51828.82
616.76	51466.04
616.92	51299.86
617.07	51428.59
617.22	51374.76
617.37	51789.03
617.53	52044.15
617.68	51838.18
617.83	51976.28
617.99	51892.02
618.14	51690.73
618.29	51758.61
618.45	51400.50
618.60	51236.67
618.75	51267.09
618.90	51435.61
619.06	51707.12
619.21	51877.97
619.36	51545.62
619.51	51636.90
619.67	51536.26
619.82	51739.88
619.97	51945.85
620.12	51526.89
620.28	51248.37
620.43	51377.10
620.58	51435.61
620.73	51402.85
620.89	51545.62
621.04	51311.56
621.19	51491.79
621.34	51248.37
621.49	50918.35
621.65	51227.31
621.80	51288.16
621.95	50934.74
622.10	51129.00
622.25	50798.99
622.41	51035.38
622.56	50890.27
622.71	50780.26
622.86	50593.02
623.01	50719.41
623.16	50717.07
623.32	50754.52
623.47	51164.11
623.62	51131.34
623.77	50997.93
623.92	50955.80
624.07	50892.61
624.23	50791.97
624.38	50820.05
624.53	50614.08
624.68	50658.56
624.83	50429.18
624.98	50389.39
625.13	50646.85
625.29	50883.25
625.44	50717.07
625.59	50887.93
625.74	50171.72
625.89	50618.77
626.04	50342.58
626.19	50167.04
626.34	50054.70
626.49	50124.91
626.65	49792.56
626.80	50527.48
626.95	49673.19
627.10	50050.02
627.25	50188.11
627.40	50106.19
627.55	49619.36
627.70	50124.91
627.85	50248.96
628.00	50028.95
628.15	50017.25
628.30	49975.12
628.45	50148.32
628.60	49883.84
628.76	49968.10
628.91	50298.11
629.06	49822.98
629.21	49776.17
629.36	49600.63
629.51	49867.45
629.66	50024.27
629.81	49834.69
629.96	49965.76
630.11	49862.77
630.26	49853.41
630.41	49794.90
630.56	49872.14
630.71	49776.17
630.86	49429.77
631.01	49425.09
631.16	49495.31
631.31	49474.24
631.46	49715.32
631.61	49830.01
631.76	49595.95
631.91	49979.80
632.06	50059.38
632.21	49698.94
632.36	50120.23
632.51	49780.85
632.66	49682.55
632.81	49502.33
632.96	49467.22
633.10	49354.88
633.25	49467.22
633.40	49382.96
633.55	49588.93
633.70	49343.17
633.85	49413.39
634.00	49542.12
634.15	49516.37
634.30	49247.21
634.45	49439.14
634.60	49619.36
634.75	49509.35
634.90	49521.05
635.05	49621.70
635.19	49303.38
635.34	49684.89
635.49	49310.41
635.64	49333.81
635.79	49338.49
635.94	49935.33
636.09	49563.18
636.24	49340.83
636.39	49207.42
636.53	49666.17
636.68	49254.23
636.83	49497.65
636.98	49572.55
637.13	48992.09
637.28	49333.81
637.43	48729.95
637.57	48992.09
637.72	48776.76
637.87	48786.13
638.02	48935.92
638.17	49366.58
638.32	48858.68
638.46	49153.59
638.61	48935.92
638.76	48804.85
638.91	48795.49
639.06	48739.32
639.20	48512.28
639.35	48641.01
639.50	48910.17
639.65	48217.38
639.80	48495.90
639.94	48680.80
640.09	48961.67
640.24	48619.95
640.39	48467.81
640.54	48938.26
640.68	48608.25
640.83	48250.14
640.98	48332.06
641.13	48083.97
641.27	48673.78
641.42	47995.03
641.57	48224.40
641.72	48074.60
641.86	48067.58
642.01	48154.18
642.16	48643.35
642.31	48488.88
642.45	48704.21
642.60	48025.45
642.75	48236.10
642.90	48392.92
643.04	48147.16
643.19	48119.07
643.34	48446.75
643.48	47756.29
643.63	48098.01
643.78	48339.08
643.93	48065.24
644.07	48215.04
644.22	48053.54
644.37	47915.45
644.51	48090.99
644.66	48278.23
644.81	47962.26
644.95	48257.17
645.10	48474.84
645.25	48500.58
645.39	47899.06
645.54	48135.46
645.69	47594.79
645.83	48257.17
645.98	47927.15
646.13	48046.52
646.27	47833.53
646.42	47669.69
646.57	47878.00
646.71	47885.02
646.86	47969.28
647.00	47873.32
647.15	48105.03
647.30	48079.28
647.44	47725.86
647.59	48158.86
647.74	47653.31
647.88	47690.76
648.03	47393.51
648.17	47283.50
648.32	47669.69
648.47	47870.98
648.61	46934.76
648.76	47988.00
648.90	47440.32
649.05	47735.23
649.20	47784.38
649.34	47082.22
649.49	47665.01
649.63	47594.79
649.78	47571.39
649.92	47646.29
650.07	47503.51
650.21	47285.84
650.36	47114.98
650.51	46534.53
650.65	46885.61
650.80	47356.06
650.94	47065.83
651.09	47028.38
651.23	47026.04
651.38	47302.23
651.52	47428.62
651.67	47239.03
651.81	46927.74
651.96	46396.44
652.10	46756.88
652.25	46717.09
652.39	47019.02
652.54	46527.51
652.68	46419.84
652.83	46904.34
652.97	46703.05
653.12	46529.85
653.26	46176.43
653.41	46354.31
653.55	46246.65
653.70	46864.55
653.84	46834.12
653.99	46986.25
654.13	46714.75
654.27	46410.48
654.42	46536.87
654.56	46176.43
654.71	46770.93
654.85	46532.19
655.00	46419.84
655.14	46005.57
655.29	46061.74
655.43	46412.82
655.57	46033.66
655.72	45874.50
655.86	46227.92
656.01	45834.71
656.15	46101.53
656.30	46106.21
656.44	46064.08
656.58	45556.19
656.73	45701.30
656.87	45963.44
657.01	45823.01
657.16	45792.58
657.30	45537.46
657.45	45579.59
657.59	45532.78
657.73	45432.14
657.88	45745.77
658.02	45902.59
658.16	45879.18
658.31	46021.95
658.45	46068.76
658.60	45783.22
658.74	45954.08
658.88	45364.26
659.03	45036.59
659.17	45347.88
659.31	45052.97
659.46	44905.52
659.60	44996.80
659.74	44811.90
659.89	44678.49
660.03	45174.68
660.17	45116.17
660.32	45144.25
660.46	45003.82
660.60	45031.91
660.74	44891.48
660.89	44821.26
661.03	44177.61
661.17	44573.16
661.32	44580.18
661.46	44774.45
661.60	44332.09
661.74	44615.29
661.89	44334.43
662.03	44381.24
662.17	43866.32
662.31	44514.65
662.46	44327.41
662.60	44236.12
662.74	44076.97
662.88	44252.51
663.03	43981.01
663.17	44039.52
663.31	43934.20
663.45	43873.34
663.60	43531.62
663.74	43491.83
663.88	43529.28
664.02	43370.13
664.17	44002.07
664.31	43236.72
664.45	43510.56
664.59	43636.95
664.73	43295.23
664.88	43269.48
665.02	43454.39
665.16	43569.07
665.30	43328.00
665.44	43363.11
665.59	43075.22
665.73	42679.67
665.87	42518.17
666.01	42337.95
666.15	42749.88
666.29	42843.51
666.44	42052.41
666.58	42059.43
666.72	42108.58
666.86	42246.67
667.00	42284.12
667.14	42307.52
667.28	42197.52
667.43	42447.96
667.57	42543.92
667.71	42225.60
667.85	42143.69
667.99	41354.93
668.13	41502.38
668.27	41352.58
668.41	41448.55
668.56	41024.91
668.70	41139.60
668.84	41340.88
668.98	40987.46
669.12	41525.78
669.26	41701.32
669.40	40905.54
669.54	41153.64
669.68	41251.94
669.82	40849.37
669.96	40931.29
670.10	41277.69
670.25	40835.33
670.39	40790.86
670.53	40175.30
670.67	39974.01
670.81	40208.06
670.95	40236.15
671.09	40018.48
671.23	39711.87
671.37	39983.37
671.51	39990.39
671.65	39793.79
671.79	40046.57
671.93	39723.57
672.07	39718.89
672.21	39728.25
672.35	39185.25
672.49	39688.46
672.63	40009.12
672.77	39103.33
672.91	39061.20
673.05	39168.87
673.19	38890.34
673.33	38595.43
673.47	38562.67
673.61	37855.82
673.75	38518.20
673.89	38513.52
674.03	38305.21
674.17	38459.68
674.31	38227.97
674.45	38653.95
674.59	38153.07
674.73	38284.14
674.87	38071.15
675.01	38284.14
675.15	38047.75
675.29	38033.71
675.43	37895.61
675.56	37940.08
675.70	37663.90
675.84	37392.40
675.98	36079.36
676.12	37366.65
676.26	37331.54
676.40	36896.20
676.54	36821.31
676.68	36676.19
676.82	35922.54
676.96	36488.95
677.10	36287.67
677.23	36198.73
677.37	36205.75
677.51	35585.50
677.65	35358.47
677.79	35515.29
677.93	35370.18
678.07	35325.71
678.21	34660.99
678.34	34712.49
678.48	34618.86
678.62	34881.00
678.76	34071.18
678.90	34403.53
679.04	34756.96
679.18	34766.32
679.31	34338.00
679.45	34452.69
679.59	34181.18
679.73	33996.28
679.87	33750.52
680.00	33919.04
680.14	33476.68
680.28	33661.58
680.42	33188.80
680.56	33214.54
680.70	33308.16
680.83	32903.25
680.97	32765.16
681.11	33048.36
681.25	33006.23
681.39	33088.15
681.52	32528.77
681.66	32374.29
681.80	32430.46
681.94	32074.70
682.07	32308.76
682.21	31955.33
682.35	32147.26
682.49	31580.85
682.62	31299.98
682.76	31267.22
682.90	31206.36
683.04	31157.21
683.17	30820.17
683.31	30859.96
683.45	30565.06
683.59	30501.86
683.72	30071.20
683.86	30167.16
684.00	30281.85
684.13	29961.20
684.27	29975.24
684.41	29895.66
684.55	30057.16
684.68	29872.26
684.82	29905.02
684.96	29745.87
685.09	29603.10
685.23	29645.23
685.37	29366.70
685.50	29802.04
685.64	29315.21
685.78	29420.53
685.91	29373.72
686.05	29092.86
686.19	28889.23
686.32	29305.85
686.46	28879.87
686.60	28432.83
686.73	29095.20
686.87	28793.27
687.01	29036.69
687.14	28783.91
687.28	28322.82
687.42	28610.71
687.55	28411.76
687.69	28308.78
687.82	28233.88
687.96	27997.49
688.10	27871.10
688.23	27903.87
688.37	27819.61
688.50	27770.46
688.64	28091.11
688.78	27714.28
688.91	27651.09
689.05	27489.59
689.18	27545.76
689.32	27484.91
689.46	27150.21
689.59	27611.30
689.73	27559.81
689.86	27239.15
690.00	26803.82
690.13	27199.37
690.27	26927.86
690.41	27199.37
690.54	26534.65
690.68	26483.16
690.81	27012.12
690.95	26817.86
691.08	26480.82
691.22	26429.33
691.35	26742.96
691.49	26426.99
691.62	26490.18
691.76	27019.14
691.89	26324.01
692.03	26267.83
692.16	25869.94
692.30	25933.14
692.43	26253.79
692.57	26026.76
692.70	25647.59
692.84	25600.78
692.97	25450.99
693.11	25137.35
693.24	25064.80
693.38	25020.33
693.51	25163.10
693.65	25015.65
693.78	24889.26
693.92	25303.53
694.05	24903.30
694.19	25022.67
694.32	24989.90
694.45	25184.16
694.59	24720.74
694.72	24987.56
694.86	24851.81
694.99	24772.23
695.13	24645.84
695.26	24514.77
695.39	24126.24
695.53	24133.26
695.66	24123.90
695.80	23814.95
695.93	23838.36
696.07	23726.01
696.20	23693.24
696.33	23744.73
696.47	23344.50
696.60	23274.29
696.73	23487.28
696.87	23819.63
697.00	23812.61
697.14	23473.23
697.27	23339.82
697.40	23171.30
697.54	23105.77
697.67	22773.41
697.80	22405.95
697.94	22405.95
698.07	22415.31
698.21	22073.59
698.34	22899.80
698.47	22312.33
698.61	22302.96
698.74	22181.26
698.87	21921.46
699.01	21923.80
699.14	21823.16
699.27	22127.42
699.40	22288.92
699.54	21687.40
699.67	21254.40
699.80	21448.67
699.94	21343.35
700.07	21593.78
700.20	21092.91
700.34	21144.40
700.47	21291.85
700.60	21102.27
700.73	21202.91
700.87	20568.63
701.00	20524.16
701.13	20638.84
701.26	20695.02
701.40	20856.51
701.53	20634.16
701.66	20278.40
701.79	20257.34
701.93	20594.37
702.06	20425.86
702.19	19948.39
702.32	20372.02
702.46	20126.27
702.59	19777.53
702.72	19763.48
702.85	20236.27
702.99	19665.18
703.12	19831.36
703.25	19243.88
703.38	19302.40
703.51	19075.37
703.65	19325.80
703.78	19094.09
703.91	18672.79
704.04	19016.85
704.17	18841.31
704.31	18972.38
704.44	18963.02
704.57	18855.36
704.70	18656.41
704.83	18649.39
704.96	18768.76
705.10	18462.15
705.23	18391.93
>>>>>End Processed Spectral Data<<<<<
