SpectraSuite Data File
++++++++++++++++++++++++++++++++++++
Date: Mon Sep 30 18:11:51 GMT-05:00 2013
User: stostad
Dark Spectrum Present: No
Reference Spectrum Present: No
Number of Sampled Component Spectra: 1
Spectrometers: USB2+H05261
Integration Time (usec): 100000 (USB2+H05261)
Spectra Averaged: 1 (USB2+H05261)
Boxcar Smoothing: 0 (USB2+H05261)
Correct for Electrical Dark: No (USB2+H05261)
Strobe/Lamp Enabled: No (USB2+H05261)
Correct for Detector Non-linearity: No (USB2+H05261)
Correct for Stray Light: No (USB2+H05261)
Number of Pixels in Processed Spectrum: 2048
>>>>>Begin Processed Spectral Data<<<<<
365.73	175.54
365.92	175.54
366.12	175.54
366.32	21.06
366.52	14.04
366.72	14.04
366.91	0.00
367.11	39.79
367.31	53.83
367.51	49.15
367.70	18.72
367.90	14.04
368.10	0.00
368.30	0.00
368.49	28.09
368.69	56.17
368.89	0.00
369.09	0.00
369.28	44.47
369.48	39.79
369.68	84.26
369.87	58.51
370.07	88.94
370.27	44.47
370.47	91.28
370.66	264.48
370.86	290.23
371.06	294.91
371.25	304.27
371.45	294.91
371.65	278.52
371.84	280.86
372.04	320.65
372.24	320.65
372.44	304.27
372.63	318.31
372.83	327.68
373.03	330.02
373.22	294.91
373.42	388.53
373.62	409.59
373.81	360.44
374.01	332.36
374.21	292.57
374.40	346.40
374.60	369.80
374.79	402.57
374.99	421.30
375.19	337.04
375.38	351.08
375.58	437.68
375.78	369.80
375.97	454.06
376.17	435.34
376.37	407.25
376.56	367.46
376.76	440.02
376.95	337.04
377.15	421.30
377.35	454.06
377.54	489.17
377.74	437.68
377.93	451.72
378.13	421.30
378.33	468.11
378.52	388.53
378.72	414.27
378.91	402.57
379.11	369.80
379.31	351.08
379.50	369.80
379.70	418.96
379.89	500.87
380.09	442.36
380.28	348.74
380.48	433.00
380.68	416.62
380.87	372.15
381.07	348.74
381.26	425.98
381.46	351.08
381.65	404.91
381.85	367.46
382.04	299.59
382.24	353.42
382.43	341.72
382.63	306.61
382.83	283.20
383.02	390.87
383.22	388.53
383.41	315.97
383.61	369.80
383.80	390.87
384.00	440.02
384.19	451.72
384.39	423.64
384.58	418.96
384.78	416.62
384.97	456.40
385.17	393.21
385.36	397.89
385.56	447.04
385.75	346.40
385.95	407.25
386.14	421.30
386.34	425.98
386.53	400.23
386.72	409.59
386.92	456.40
387.11	447.04
387.31	442.36
387.50	472.79
387.70	395.55
387.89	433.00
388.09	388.53
388.28	470.45
388.48	379.17
388.67	458.74
388.86	440.02
389.06	489.17
389.25	491.51
389.45	561.73
389.64	521.94
389.84	545.34
390.03	521.94
390.22	482.15
390.42	543.00
390.61	547.69
390.81	535.98
391.00	566.41
391.19	589.82
391.39	559.39
391.58	514.92
391.78	505.56
391.97	514.92
392.16	397.89
392.36	433.00
392.55	393.21
392.75	372.15
392.94	306.61
393.13	318.31
393.33	318.31
393.52	339.38
393.71	458.74
393.91	498.53
394.10	512.58
394.29	465.77
394.49	557.05
394.68	566.41
394.88	587.47
395.07	543.00
395.26	578.11
395.46	491.51
395.65	550.03
395.84	458.74
396.04	526.62
396.23	440.02
396.42	425.98
396.62	383.85
396.81	409.59
397.00	477.47
397.19	566.41
397.39	573.43
397.58	650.67
397.77	638.97
397.97	622.58
398.16	669.39
398.35	685.78
398.55	636.63
398.74	720.88
398.93	751.31
399.12	699.82
399.32	786.42
399.51	711.52
399.70	805.14
399.90	697.48
400.09	777.06
400.28	777.06
400.47	788.76
400.67	828.55
400.86	777.06
401.05	847.27
401.24	830.89
401.44	805.14
401.63	779.40
401.82	807.48
402.01	830.89
402.21	833.23
402.40	739.61
402.59	755.99
402.78	802.80
402.97	662.37
403.17	826.21
403.36	823.87
403.55	856.64
403.74	770.04
403.93	760.67
404.13	781.74
404.32	760.67
404.51	795.78
404.70	912.81
404.89	807.48
405.09	788.76
405.28	716.20
405.47	741.95
405.66	802.80
405.85	784.08
406.05	772.38
406.24	748.97
406.43	833.23
406.62	770.04
406.81	866.00
407.00	898.77
407.20	868.34
407.39	802.80
407.58	777.06
407.77	819.19
407.96	882.38
408.15	849.61
408.34	821.53
408.54	931.53
408.73	868.34
408.92	915.15
409.11	917.49
409.30	835.57
409.49	748.97
409.68	786.42
409.87	779.40
410.07	805.14
410.26	851.96
410.45	844.93
410.64	903.45
410.83	901.11
411.02	959.62
411.21	983.02
411.40	933.87
411.59	905.79
411.78	961.96
411.98	912.81
412.17	917.49
412.36	931.53
412.55	926.85
412.74	926.85
412.93	889.40
413.12	945.58
413.31	1029.84
413.50	985.37
413.69	950.26
413.88	1001.75
414.07	856.64
414.26	983.02
414.45	910.47
414.64	919.83
414.83	987.71
415.02	912.81
415.22	1032.18
415.41	1048.56
415.60	978.34
415.79	1039.20
415.98	1181.97
416.17	978.34
416.36	1048.56
416.55	933.87
416.74	957.28
416.93	959.62
417.12	976.00
417.31	983.02
417.50	1048.56
417.69	1036.86
417.88	1032.18
418.07	945.58
418.26	1032.18
418.45	999.41
418.64	1076.65
418.83	1034.52
419.02	1069.62
419.21	1027.50
419.39	1057.92
419.58	1006.43
419.77	978.34
419.96	1107.07
420.15	1078.99
420.34	1067.28
420.53	978.34
420.72	1135.16
420.91	1067.28
421.10	1036.86
421.29	1137.50
421.48	1055.58
421.67	1043.88
421.86	1064.94
422.05	971.32
422.24	926.85
422.43	903.45
422.61	1034.52
422.80	1032.18
422.99	1053.24
423.18	971.32
423.37	1043.88
423.56	1020.47
423.75	1027.50
423.94	971.32
424.13	905.79
424.32	908.13
424.50	1102.39
424.69	1015.79
424.88	1043.88
425.07	1043.88
425.26	1020.47
425.45	898.77
425.64	983.02
425.83	1034.52
426.01	1097.71
426.20	1067.28
426.39	952.60
426.58	863.66
426.77	849.61
426.96	917.49
427.15	1008.77
427.33	961.96
427.52	1067.28
427.71	1015.79
427.90	954.94
428.09	945.58
428.28	985.37
428.46	880.04
428.65	957.28
428.84	908.13
429.03	994.73
429.22	910.47
429.40	821.53
429.59	741.95
429.78	823.87
429.97	725.57
430.16	814.51
430.34	826.21
430.53	760.67
430.72	851.96
430.91	919.83
431.10	999.41
431.28	1118.78
431.47	1130.48
431.66	1057.92
431.85	1100.05
432.03	1022.81
432.22	985.37
432.41	1043.88
432.60	1245.16
432.79	1207.72
432.97	1156.22
433.16	997.07
433.35	1001.75
433.54	931.53
433.72	961.96
433.91	915.15
434.10	1078.99
434.28	1064.94
434.47	1095.37
434.66	1011.11
434.85	1128.14
435.03	1196.01
435.22	1252.19
435.41	1355.17
435.59	1170.27
435.78	1174.95
435.97	1205.38
436.16	1224.10
436.34	1109.41
436.53	1151.54
436.72	1174.95
436.90	1160.91
437.09	1191.33
437.28	994.73
437.46	1170.27
437.65	1069.62
437.84	987.71
438.02	964.30
438.21	1027.50
438.40	1053.24
438.58	1128.14
438.77	1128.14
438.96	1170.27
439.14	1196.01
439.33	1156.22
439.52	1184.31
439.70	1184.31
439.89	1212.40
440.08	1125.80
440.26	1186.65
440.45	1289.64
440.63	1282.61
440.82	1188.99
441.01	1228.78
441.19	1217.08
441.38	1359.85
441.57	1270.91
441.75	1291.98
441.94	1261.55
442.12	1282.61
442.31	1345.81
442.50	1357.51
442.68	1345.81
442.87	1245.16
443.05	1245.16
443.24	1282.61
443.43	1341.13
443.61	1394.96
443.80	1376.24
443.98	1249.85
444.17	1301.34
444.35	1472.20
444.54	1413.68
444.73	1320.06
444.91	1249.85
445.10	1310.70
445.28	1198.35
445.47	1291.98
445.65	1247.51
445.84	1350.49
446.02	1357.51
446.21	1284.95
446.39	1270.91
446.58	1331.76
446.77	1413.68
446.95	1378.58
447.14	1411.34
447.32	1430.07
447.51	1299.00
447.69	1359.85
447.88	1277.93
448.06	1430.07
448.25	1341.13
448.43	1259.21
448.62	1224.10
448.80	1331.76
448.99	1350.49
449.17	1420.71
449.36	1341.13
449.54	1394.96
449.73	1453.47
449.91	1509.65
450.10	1453.47
450.28	1481.56
450.46	1448.79
450.65	1554.12
450.83	1493.26
451.02	1390.28
451.20	1294.32
451.39	1446.45
451.57	1420.71
451.76	1458.15
451.94	1434.75
452.13	1460.49
452.31	1392.62
452.49	1256.87
452.68	1266.23
452.86	1245.16
453.05	1362.19
453.23	1380.92
453.42	1371.55
453.60	1437.09
453.78	1357.51
453.97	1432.41
454.15	1329.42
454.34	1294.32
454.52	1348.15
454.70	1369.21
454.89	1444.11
455.07	1458.15
455.26	1420.71
455.44	1509.65
455.62	1392.62
455.81	1406.66
455.99	1376.24
456.17	1495.60
456.36	1467.52
456.54	1453.47
456.73	1465.18
456.91	1469.86
457.09	1460.49
457.28	1514.33
457.46	1366.87
457.64	1486.24
457.83	1355.17
458.01	1359.85
458.19	1483.90
458.38	1481.56
458.56	1453.47
458.74	1474.54
458.93	1476.88
459.11	1455.81
459.29	1364.53
459.48	1425.39
459.66	1500.28
459.84	1448.79
460.03	1472.20
460.21	1514.33
460.39	1540.07
460.57	1497.94
460.76	1472.20
460.94	1488.58
461.12	1596.25
461.31	1547.09
461.49	1453.47
461.67	1448.79
461.85	1554.12
462.04	1474.54
462.22	1561.14
462.40	1582.20
462.59	1568.16
462.77	1537.73
462.95	1497.94
463.13	1376.24
463.32	1577.52
463.50	1458.15
463.68	1467.52
463.86	1479.22
464.05	1469.86
464.23	1380.92
464.41	1413.68
464.59	1462.83
464.78	1490.92
464.96	1502.62
465.14	1458.15
465.32	1432.41
465.50	1514.33
465.69	1519.01
465.87	1544.75
466.05	1413.68
466.23	1301.34
466.41	1348.15
466.60	1385.60
466.78	1434.75
466.96	1446.45
467.14	1563.48
467.32	1528.37
467.51	1572.84
467.69	1511.99
467.87	1387.94
468.05	1404.32
468.23	1540.07
468.41	1437.09
468.60	1437.09
468.78	1427.73
468.96	1519.01
469.14	1409.00
469.32	1460.49
469.50	1476.88
469.69	1451.13
469.87	1423.05
470.05	1399.64
470.23	1394.96
470.41	1359.85
470.59	1455.81
470.77	1376.24
470.95	1453.47
471.14	1493.26
471.32	1537.73
471.50	1586.88
471.68	1579.86
471.86	1600.93
472.04	1444.11
472.22	1586.88
472.40	1556.46
472.58	1511.99
472.77	1519.01
472.95	1420.71
473.13	1579.86
473.31	1603.27
473.49	1479.22
473.67	1430.07
473.85	1591.56
474.03	1523.69
474.21	1526.03
474.39	1638.38
474.57	1645.40
474.75	1568.16
474.93	1542.41
475.12	1481.56
475.30	1610.29
475.48	1509.65
475.66	1535.39
475.84	1497.94
476.02	1535.39
476.20	1598.59
476.38	1577.52
476.56	1624.33
476.74	1673.48
476.92	1701.57
477.10	1638.38
477.28	1757.74
477.46	1708.59
477.64	1753.06
477.82	1708.59
478.00	1692.21
478.18	1626.67
478.36	1724.97
478.54	1717.95
478.72	1673.48
478.90	1781.15
479.08	1921.58
479.26	1870.09
479.44	1799.87
479.62	1701.57
479.80	1804.55
479.98	1783.49
480.16	1771.79
480.34	1834.98
480.52	1832.64
480.70	1874.77
480.88	1827.96
481.06	1863.07
481.24	1813.92
481.41	1825.62
481.59	1942.64
481.77	1900.52
481.95	1891.15
482.13	1905.20
482.31	1916.90
482.49	1825.62
482.67	2005.84
482.85	1870.09
483.03	1926.26
483.21	2022.22
483.39	2005.84
483.57	1820.94
483.74	1959.03
483.92	1909.88
484.10	1973.07
484.28	1947.33
484.46	2012.86
484.64	2024.56
484.82	1987.11
485.00	1926.26
485.18	1863.07
485.35	1799.87
485.53	1664.12
485.71	1582.20
485.89	1511.99
486.07	1699.23
486.25	1895.83
486.43	2012.86
486.61	1867.75
486.78	1888.81
486.96	1987.11
487.14	2078.40
487.32	2062.01
487.50	2071.37
487.68	2221.17
487.85	2211.81
488.03	2174.36
488.21	2113.50
488.39	2083.08
488.57	2019.88
488.75	2062.01
488.92	2335.85
489.10	2242.23
489.28	2303.09
489.46	2314.79
489.64	2331.17
489.81	2258.62
489.99	2370.96
490.17	2359.26
490.35	2424.80
490.53	2296.07
490.70	2368.62
490.88	2352.24
491.06	2204.78
491.24	2305.43
491.41	2312.45
491.59	1996.48
491.77	2090.10
491.95	2239.89
492.13	2363.94
492.30	2300.75
492.48	2499.69
492.66	2485.65
492.84	2483.31
493.01	2420.11
493.19	2284.36
493.37	2408.41
493.54	2314.79
493.72	2356.92
493.90	2490.33
494.08	2558.21
494.25	2539.48
494.43	2466.92
494.61	2492.67
494.79	2480.97
494.96	2551.18
495.14	2502.03
495.32	2394.37
495.49	2490.33
495.67	2457.56
495.85	2567.57
496.02	2633.10
496.20	2626.08
496.38	2530.12
496.55	2619.06
496.73	2715.02
496.91	2665.87
497.09	2693.96
497.26	2736.09
497.44	2597.99
497.62	2637.78
497.79	2471.61
497.97	2392.03
498.14	2541.82
498.32	2656.51
498.50	2642.46
498.67	2675.23
498.85	2621.40
499.03	2548.84
499.20	2663.53
499.38	2658.85
499.56	2633.10
499.73	2644.81
499.91	2551.18
500.08	2562.89
500.26	2478.63
500.44	2586.29
500.61	2640.12
500.79	2513.74
500.97	2492.67
501.14	2455.22
501.32	2417.77
501.49	2516.08
501.67	2441.18
501.84	2537.14
502.02	2600.34
502.20	2583.95
502.37	2635.44
502.55	2586.29
502.72	2675.23
502.90	2806.30
503.07	2686.94
503.25	2450.54
503.43	2401.39
503.60	2340.54
503.78	2429.48
503.95	2469.27
504.13	2626.08
504.30	2679.91
504.48	2679.91
504.65	2663.53
504.83	2649.49
505.01	2684.59
505.18	2668.21
505.36	2668.21
505.53	2722.04
505.71	2759.49
505.88	2780.56
506.06	2738.43
506.23	2677.57
506.41	2733.75
506.58	2759.49
506.76	2682.25
506.93	2722.04
507.11	2626.08
507.28	2612.04
507.46	2630.76
507.63	2562.89
507.81	2504.37
507.98	2635.44
508.16	2780.56
508.33	2717.36
508.50	2794.60
508.68	2761.83
508.85	2867.16
509.03	2764.17
509.20	2806.30
509.38	2668.21
509.55	2647.15
509.73	2654.17
509.90	2761.83
510.08	2766.51
510.25	2806.30
510.42	2574.59
510.60	2675.23
510.77	2729.06
510.95	2939.71
511.12	2832.05
511.30	2836.73
511.47	2794.60
511.64	2850.77
511.82	2654.17
511.99	2658.85
512.17	2785.24
512.34	2649.49
512.51	2623.74
512.69	2628.42
512.86	2794.60
513.04	2700.98
513.21	2724.38
513.38	2700.98
513.56	2518.42
513.73	2649.49
513.90	2626.08
514.08	2773.53
514.25	2782.90
514.43	2724.38
514.60	2682.25
514.77	2724.38
514.95	2712.68
515.12	2635.44
515.29	2738.43
515.47	2843.75
515.64	2752.47
515.81	2696.30
515.99	2637.78
516.16	2438.84
516.33	2286.70
516.51	2291.38
516.68	2104.14
516.85	2232.87
517.03	2291.38
517.20	2590.97
517.37	2633.10
517.54	2729.06
517.72	2677.57
517.89	2307.77
518.06	2263.30
518.24	2413.09
518.41	2621.40
518.58	2729.06
518.75	2576.93
518.93	2546.50
519.10	2504.37
519.27	2609.70
519.45	2869.50
519.62	2850.77
519.79	2724.38
519.96	2712.68
520.14	2616.72
520.31	2527.78
520.48	2654.17
520.65	2658.85
520.83	2754.81
521.00	2771.19
521.17	2785.24
521.34	2668.21
521.52	2609.70
521.69	2794.60
521.86	2668.21
522.03	2579.27
522.20	2656.51
522.38	2595.65
522.55	2651.83
522.72	2616.72
522.89	2614.38
523.07	2782.90
523.24	2754.81
523.41	2731.41
523.58	2836.73
523.75	2906.95
523.92	2810.98
524.10	2787.58
524.27	2686.94
524.44	2703.32
524.61	2679.91
524.78	2892.90
524.96	2726.72
525.13	2619.06
525.30	2850.77
525.47	2864.82
525.64	2818.00
525.81	2761.83
525.98	2544.16
526.16	2396.71
526.33	2370.96
526.50	2417.77
526.67	2321.81
526.84	2612.04
527.01	2588.63
527.18	2626.08
527.36	2579.27
527.53	2710.34
527.70	2731.41
527.87	2665.87
528.04	2675.23
528.21	2700.98
528.38	2862.48
528.55	2885.88
528.72	2853.11
528.89	2991.20
529.07	2853.11
529.24	2717.36
529.41	2605.02
529.58	2708.00
529.75	2665.87
529.92	2630.76
530.09	2637.78
530.26	2808.64
530.43	2740.77
530.60	2832.05
530.77	2834.39
530.94	2920.99
531.11	2799.28
531.28	2773.53
531.46	2850.77
531.63	2684.59
531.80	2775.88
531.97	2729.06
532.14	2628.42
532.31	2455.22
532.48	2490.33
532.65	2443.52
532.82	2530.12
532.99	2677.57
533.16	2775.88
533.33	2626.08
533.50	2668.21
533.67	2569.91
533.84	2600.34
534.01	2668.21
534.18	2789.92
534.35	2731.41
534.52	2686.94
534.69	2794.60
534.86	2780.56
535.03	2740.77
535.20	2855.45
535.37	2780.56
535.54	2803.96
535.71	2778.22
535.88	2775.88
536.05	2605.02
536.22	2640.12
536.38	2572.25
536.55	2539.48
536.72	2562.89
536.89	2544.16
537.06	2789.92
537.23	2724.38
537.40	2698.64
537.57	2803.96
537.74	2700.98
537.91	2708.00
538.08	2686.94
538.25	2553.52
538.42	2612.04
538.59	2705.66
538.75	2743.11
538.92	2642.46
539.09	2682.25
539.26	2609.70
539.43	2651.83
539.60	2544.16
539.77	2593.31
539.94	2644.81
540.11	2567.57
540.28	2612.04
540.44	2602.68
540.61	2754.81
540.78	2637.78
540.95	2668.21
541.12	2789.92
541.29	2740.77
541.46	2747.79
541.62	2780.56
541.79	2757.15
541.96	2712.68
542.13	2628.42
542.30	2729.06
542.47	2647.15
542.63	2588.63
542.80	2668.21
542.97	2715.02
543.14	2647.15
543.31	2628.42
543.48	2738.43
543.64	2916.31
543.81	2818.00
543.98	2789.92
544.15	2649.49
544.32	2672.89
544.48	2663.53
544.65	2768.85
544.82	2815.66
544.99	2722.04
545.16	2661.19
545.32	2757.15
545.49	3126.96
545.66	3028.65
545.83	2960.78
546.00	2787.58
546.16	2677.57
546.33	2689.28
546.50	2710.34
546.67	2808.64
546.83	2672.89
547.00	2679.91
547.17	2619.06
547.34	2464.58
547.50	2457.56
547.67	2574.59
547.84	2560.55
548.00	2771.19
548.17	2649.49
548.34	2679.91
548.51	2693.96
548.67	2630.76
548.84	2670.55
549.01	2555.86
549.18	2583.95
549.34	2574.59
549.51	2588.63
549.68	2642.46
549.84	2581.61
550.01	2518.42
550.18	2656.51
550.34	2715.02
550.51	2670.55
550.68	2527.78
550.84	2469.27
551.01	2548.84
551.18	2417.77
551.34	2509.05
551.51	2551.18
551.68	2731.41
551.84	2614.38
552.01	2555.86
552.18	2555.86
552.34	2434.16
552.51	2487.99
552.68	2581.61
552.84	2565.23
553.01	2495.01
553.18	2572.25
553.34	2588.63
553.51	2609.70
553.67	2614.38
553.84	2693.96
554.01	2513.74
554.17	2480.97
554.34	2513.74
554.51	2574.59
554.67	2668.21
554.84	2551.18
555.00	2487.99
555.17	2509.05
555.33	2506.71
555.50	2473.95
555.67	2466.92
555.83	2445.86
556.00	2469.27
556.16	2548.84
556.33	2427.14
556.50	2466.92
556.66	2473.95
556.83	2471.61
556.99	2406.07
557.16	2422.45
557.32	2464.58
557.49	2541.82
557.65	2441.18
557.82	2537.14
557.98	2380.32
558.15	2310.11
558.32	2242.23
558.48	2251.60
558.65	2298.41
558.81	2401.39
558.98	2401.39
559.14	2431.82
559.31	2392.03
559.47	2455.22
559.64	2253.94
559.80	2347.56
559.97	2511.39
560.13	2464.58
560.30	2438.84
560.46	2415.43
560.63	2492.67
560.79	2441.18
560.96	2499.69
561.12	2352.24
561.29	2204.78
561.45	2300.75
561.61	2319.47
561.78	2429.48
561.94	2314.79
562.11	2352.24
562.27	2298.41
562.44	2345.22
562.60	2321.81
562.77	2373.30
562.93	2434.16
563.10	2289.04
563.26	2359.26
563.42	2363.94
563.59	2303.09
563.75	2298.41
563.92	2361.60
564.08	2317.13
564.24	2338.20
564.41	2417.77
564.57	2396.71
564.74	2410.75
564.90	2319.47
565.07	2228.19
565.23	2225.85
565.39	2207.13
565.56	2069.03
565.72	2162.66
565.88	2181.38
566.05	2211.81
566.21	2204.78
566.38	2272.66
566.54	2195.42
566.70	2282.02
566.87	2172.02
567.03	2260.96
567.19	2246.91
567.36	2303.09
567.52	2188.40
567.68	2267.98
567.85	2090.10
568.01	2153.29
568.17	2073.71
568.34	2120.53
568.50	2080.74
568.66	2174.36
568.83	2237.55
568.99	2188.40
569.15	2141.59
569.32	2120.53
569.48	2150.95
569.64	2230.53
569.81	2209.47
569.97	2179.04
570.13	2132.23
570.30	1973.07
570.46	2033.93
570.62	2038.61
570.78	2045.63
570.95	2118.18
571.11	2136.91
571.27	2129.89
571.43	2139.25
571.60	2221.17
571.76	2167.34
571.92	2127.55
572.09	2113.50
572.25	2202.44
572.41	2069.03
572.57	2094.78
572.74	2118.18
572.90	2143.93
573.06	2129.89
573.22	2054.99
573.38	2064.35
573.55	2066.69
573.71	2127.55
573.87	2033.93
574.03	2052.65
574.20	2101.80
574.36	1926.26
574.52	2001.16
574.68	2026.90
574.84	1987.11
575.01	2031.58
575.17	1994.14
575.33	1961.37
575.49	2045.63
575.65	2029.24
575.82	2015.20
575.98	2090.10
576.14	2012.86
576.30	2036.27
576.46	2108.82
576.62	2033.93
576.79	2134.57
576.95	2008.18
577.11	2069.03
577.27	2010.52
577.43	2008.18
577.59	2040.95
577.75	1926.26
577.92	2040.95
578.08	1942.64
578.24	1928.60
578.40	1998.82
578.56	2085.42
578.72	2120.53
578.88	2087.76
579.04	1996.48
579.21	2059.67
579.37	2003.50
579.53	2132.23
579.69	2115.84
579.85	2052.65
580.01	2099.46
580.17	1944.99
580.33	2017.54
580.49	2087.76
580.65	1980.09
580.82	2010.52
580.98	2071.37
581.14	1989.46
581.30	2094.78
581.46	2017.54
581.62	2127.55
581.78	2052.65
581.94	2066.69
582.10	2078.40
582.26	2127.55
582.42	2017.54
582.58	2094.78
582.74	2062.01
582.90	2115.84
583.06	2005.84
583.22	1959.03
583.38	2115.84
583.54	1994.14
583.70	2150.95
583.86	2010.52
584.02	2076.06
584.18	2073.71
584.34	2132.23
584.50	2078.40
584.66	2043.29
584.82	2022.22
584.98	2108.82
585.14	1980.09
585.30	2022.22
585.46	2062.01
585.62	1818.60
585.78	1907.54
585.94	1954.35
586.10	2001.16
586.26	2029.24
586.42	2031.58
586.58	2064.35
586.74	2108.82
586.90	1987.11
587.06	1961.37
587.22	1989.46
587.38	1907.54
587.54	1874.77
587.70	1930.94
587.86	1886.47
588.02	1844.34
588.18	1788.17
588.34	1753.06
588.49	1502.62
588.65	1519.01
588.81	1629.01
588.97	1584.54
589.13	1626.67
589.29	1584.54
589.45	1675.82
589.61	1692.21
589.77	1834.98
589.93	1743.70
590.08	1785.83
590.24	1769.44
590.40	1769.44
590.56	1734.34
590.72	1813.92
590.88	1778.81
591.04	1776.47
591.20	1717.95
591.35	1790.51
591.51	1701.57
591.67	1722.63
591.83	1764.76
591.99	1739.02
592.15	1867.75
592.31	1813.92
592.46	1816.26
592.62	1774.13
592.78	1685.19
592.94	1802.21
593.10	1888.81
593.26	1778.81
593.41	1853.70
593.57	1722.63
593.73	1736.68
593.89	1638.38
594.05	1741.36
594.20	1636.03
594.36	1734.34
594.52	1629.01
594.68	1753.06
594.84	1757.74
594.99	1771.79
595.15	1820.94
595.31	1727.32
595.47	1753.06
595.62	1710.93
595.78	1785.83
595.94	1837.32
596.10	1657.10
596.25	1713.27
596.41	1732.00
596.57	1757.74
596.73	1685.19
596.88	1739.02
597.04	1708.59
597.20	1741.36
597.36	1640.72
597.51	1741.36
597.67	1774.13
597.83	1689.87
597.99	1781.15
598.14	1813.92
598.30	1795.19
598.46	1699.23
598.61	1764.76
598.77	1804.55
598.93	1717.95
599.09	1813.92
599.24	1867.75
599.40	1802.21
599.56	1717.95
599.71	1858.39
599.87	1783.49
600.03	1776.47
600.18	1724.97
600.34	1732.00
600.50	1696.89
600.65	1888.81
600.81	1834.98
600.97	1797.53
601.12	1671.14
601.28	1785.83
601.44	1750.72
601.59	1678.16
601.75	1708.59
601.91	1769.44
602.06	1724.97
602.22	1769.44
602.37	1806.89
602.53	1795.19
602.69	1834.98
602.84	1863.07
603.00	1827.96
603.16	1849.02
603.31	1741.36
603.47	1863.07
603.62	1720.29
603.78	1746.04
603.94	1764.76
604.09	1748.38
604.25	1837.32
604.40	1785.83
604.56	1799.87
604.71	1727.32
604.87	1696.89
605.03	1671.14
605.18	1750.72
605.34	1804.55
605.49	1769.44
605.65	1710.93
605.80	1727.32
605.96	1802.21
606.12	1746.04
606.27	1746.04
606.43	1706.25
606.58	1806.89
606.74	1769.44
606.89	1696.89
607.05	1806.89
607.20	1727.32
607.36	1692.21
607.51	1692.21
607.67	1636.03
607.82	1732.00
607.98	1652.42
608.13	1631.35
608.29	1734.34
608.44	1706.25
608.60	1708.59
608.75	1739.02
608.91	1652.42
609.06	1769.44
609.22	1739.02
609.37	1722.63
609.53	1764.76
609.68	1757.74
609.84	1799.87
609.99	1802.21
610.15	1834.98
610.30	1940.30
610.46	2031.58
610.61	2045.63
610.76	2111.16
610.92	2120.53
611.07	2092.44
611.23	2064.35
611.38	1881.79
611.54	1769.44
611.69	1741.36
611.84	1699.23
612.00	1727.32
612.15	1769.44
612.31	1806.89
612.46	1682.85
612.62	1767.10
612.77	1771.79
612.92	1687.53
613.08	1732.00
613.23	1710.93
613.39	1636.03
613.54	1708.59
613.69	1591.56
613.85	1626.67
614.00	1715.61
614.15	1710.93
614.31	1760.08
614.46	1680.50
614.62	1652.42
614.77	1535.39
614.92	1631.35
615.08	1661.78
615.23	1636.03
615.38	1586.88
615.54	1631.35
615.69	1624.33
615.84	1593.90
616.00	1589.22
616.15	1652.42
616.30	1607.95
616.46	1530.71
616.61	1563.48
616.76	1619.65
616.92	1540.07
617.07	1689.87
617.22	1542.41
617.37	1568.16
617.53	1572.84
617.68	1610.29
617.83	1631.35
617.99	1638.38
618.14	1682.85
618.29	1561.14
618.45	1509.65
618.60	1472.20
618.75	1572.84
618.90	1467.52
619.06	1497.94
619.21	1607.95
619.36	1593.90
619.51	1486.24
619.67	1540.07
619.82	1526.03
619.97	1579.86
620.12	1570.50
620.28	1593.90
620.43	1521.35
620.58	1577.52
620.73	1565.82
620.89	1600.93
621.04	1577.52
621.19	1650.08
621.34	1556.46
621.49	1467.52
621.65	1511.99
621.80	1516.67
621.95	1584.54
622.10	1540.07
622.25	1558.80
622.41	1493.26
622.56	1526.03
622.71	1519.01
622.86	1533.05
623.01	1399.64
623.16	1563.48
623.32	1455.81
623.47	1507.30
623.62	1483.90
623.77	1511.99
623.92	1448.79
624.07	1535.39
624.23	1432.41
624.38	1444.11
624.53	1519.01
624.68	1516.67
624.83	1364.53
624.98	1423.05
625.13	1411.34
625.29	1385.60
625.44	1348.15
625.59	1441.77
625.74	1362.19
625.89	1451.13
626.04	1474.54
626.19	1486.24
626.34	1425.39
626.49	1409.00
626.65	1439.43
626.80	1448.79
626.95	1423.05
627.10	1296.66
627.25	1280.27
627.40	1210.06
627.55	1392.62
627.70	1331.76
627.85	1287.29
628.00	1357.51
628.15	1359.85
628.30	1313.04
628.45	1341.13
628.60	1299.00
628.76	1427.73
628.91	1284.95
629.06	1366.87
629.21	1310.70
629.36	1331.76
629.51	1306.02
629.66	1338.79
629.81	1259.21
629.96	1369.21
630.11	1523.69
630.26	1455.81
630.41	1392.62
630.56	1401.98
630.71	1397.30
630.86	1341.13
631.01	1273.25
631.16	1369.21
631.31	1413.68
631.46	1341.13
631.61	1299.00
631.76	1336.45
631.91	1362.19
632.06	1371.55
632.21	1401.98
632.36	1387.94
632.51	1446.45
632.66	1310.70
632.81	1329.42
632.96	1310.70
633.10	1348.15
633.25	1439.43
633.40	1334.11
633.55	1357.51
633.70	1277.93
633.85	1289.64
634.00	1254.53
634.15	1320.06
634.30	1348.15
634.45	1390.28
634.60	1303.68
634.75	1310.70
634.90	1273.25
635.05	1320.06
635.19	1315.38
635.34	1228.78
635.49	1294.32
635.64	1289.64
635.79	1270.91
635.94	1334.11
636.09	1299.00
636.24	1221.76
636.39	1280.27
636.53	1327.08
636.68	1228.78
636.83	1299.00
636.98	1338.79
637.13	1245.16
637.28	1390.28
637.43	1376.24
637.57	1385.60
637.72	1352.83
637.87	1348.15
638.02	1399.64
638.17	1313.04
638.32	1338.79
638.46	1252.19
638.61	1252.19
638.76	1275.59
638.91	1334.11
639.06	1259.21
639.20	1348.15
639.35	1336.45
639.50	1357.51
639.65	1369.21
639.80	1181.97
639.94	1320.06
640.09	1376.24
640.24	1348.15
640.39	1352.83
640.54	1212.40
640.68	1313.04
640.83	1240.48
640.98	1287.29
641.13	1233.46
641.27	1256.87
641.42	1247.51
641.57	1200.69
641.72	1273.25
641.86	1252.19
642.01	1270.91
642.16	1259.21
642.31	1310.70
642.45	1268.57
642.60	1331.76
642.75	1268.57
642.90	1200.69
643.04	1291.98
643.19	1198.35
643.34	1231.12
643.48	1240.48
643.63	1184.31
643.78	1334.11
643.93	1287.29
644.07	1212.40
644.22	1256.87
644.37	1259.21
644.51	1191.33
644.66	1287.29
644.81	1226.44
644.95	1196.01
645.10	1221.76
645.25	1196.01
645.39	1170.27
645.54	1104.73
645.69	1224.10
645.83	1181.97
645.98	1163.25
646.13	1179.63
646.27	1132.82
646.42	1093.03
646.57	1121.12
646.71	1121.12
646.86	1128.14
647.00	1111.75
647.15	1167.93
647.30	1118.78
647.44	1067.28
647.59	1121.12
647.74	1090.69
647.88	1151.54
648.03	1086.01
648.17	1093.03
648.32	1217.08
648.47	1100.05
648.61	1109.41
648.76	1090.69
648.90	1151.54
649.05	1062.60
649.20	1107.07
649.34	1083.67
649.49	1083.67
649.63	1163.25
649.78	1093.03
649.92	1167.93
650.07	1203.04
650.21	1214.74
650.36	1107.07
650.51	1224.10
650.65	1203.04
650.80	1102.39
650.94	1060.26
651.09	1048.56
651.23	992.39
651.38	1036.86
651.52	1043.88
651.67	1004.09
651.81	1156.22
651.96	1137.50
652.10	1207.72
652.25	1153.88
652.39	1132.82
652.54	1149.20
652.68	1078.99
652.83	1151.54
652.97	1151.54
653.12	1093.03
653.26	1123.46
653.41	1125.80
653.55	1116.44
653.70	1078.99
653.84	1074.31
653.99	1102.39
654.13	1095.37
654.27	1011.11
654.42	978.34
654.56	1074.31
654.71	1062.60
654.85	1032.18
655.00	1078.99
655.14	1083.67
655.29	1018.13
655.43	940.90
655.57	912.81
655.72	786.42
655.86	917.49
656.01	919.83
656.15	992.39
656.30	978.34
656.44	943.24
656.58	950.26
656.73	1041.54
656.87	1018.13
657.01	1109.41
657.16	1053.24
657.30	1055.58
657.45	1078.99
657.59	1107.07
657.73	1153.88
657.88	1090.69
658.02	1158.57
658.16	1074.31
658.31	1001.75
658.45	964.30
658.60	1062.60
658.74	1139.84
658.88	1071.97
659.03	1114.10
659.17	1053.24
659.31	1053.24
659.46	1128.14
659.60	1111.75
659.74	1118.78
659.89	1020.47
660.03	1125.80
660.17	1142.18
660.32	1158.57
660.46	1118.78
660.60	1081.33
660.74	1041.54
660.89	1069.62
661.03	950.26
661.17	1102.39
661.32	1139.84
661.46	1107.07
661.60	1102.39
661.74	1069.62
661.89	1050.90
662.03	994.73
662.17	1078.99
662.31	1144.52
662.46	1039.20
662.60	1088.35
662.74	1055.58
662.88	1071.97
663.03	1046.22
663.17	1041.54
663.31	1102.39
663.45	1032.18
663.60	940.90
663.74	1018.13
663.88	1053.24
664.02	971.32
664.17	1027.50
664.31	1036.86
664.45	1100.05
664.59	1004.09
664.73	1013.45
664.88	1048.56
665.02	1018.13
665.16	1029.84
665.30	1036.86
665.44	1060.26
665.59	1064.94
665.73	1034.52
665.87	943.24
666.01	924.51
666.15	957.28
666.29	1032.18
666.44	1015.79
666.58	1015.79
666.72	1053.24
666.86	1001.75
667.00	1015.79
667.14	1020.47
667.28	1004.09
667.43	1076.65
667.57	1114.10
667.71	1090.69
667.85	985.37
667.99	1006.43
668.13	1034.52
668.27	1027.50
668.41	1025.15
668.56	990.05
668.70	1069.62
668.84	978.34
668.98	954.94
669.12	973.66
669.26	915.15
669.40	997.07
669.54	971.32
669.68	985.37
669.82	945.58
669.96	952.60
670.10	891.74
670.25	1015.79
670.39	915.15
670.53	971.32
670.67	929.19
670.81	938.55
670.95	938.55
671.09	922.17
671.23	957.28
671.37	971.32
671.51	1008.77
671.65	992.39
671.79	943.24
671.93	933.87
672.07	1006.43
672.21	999.41
672.35	997.07
672.49	887.06
672.63	999.41
672.77	819.19
672.91	917.49
673.05	905.79
673.19	812.17
673.33	1013.45
673.47	959.62
673.61	968.98
673.75	847.27
673.89	873.02
674.03	959.62
674.17	882.38
674.31	931.53
674.45	877.70
674.59	940.90
674.73	908.13
674.87	910.47
675.01	1008.77
675.15	910.47
675.29	929.19
675.43	952.60
675.56	954.94
675.70	961.96
675.84	830.89
675.98	917.49
676.12	819.19
676.26	908.13
676.40	844.93
676.54	917.49
676.68	891.74
676.82	957.28
676.96	896.43
677.10	912.81
677.23	950.26
677.37	903.45
677.51	936.21
677.65	976.00
677.79	774.72
677.93	816.85
678.07	847.27
678.21	795.78
678.34	887.06
678.48	800.46
678.62	884.72
678.76	882.38
678.90	858.98
679.04	915.15
679.18	826.21
679.31	847.27
679.45	847.27
679.59	809.83
679.73	793.44
679.87	730.25
680.00	812.17
680.14	793.44
680.28	812.17
680.42	812.17
680.56	777.06
680.70	753.65
680.83	938.55
680.97	887.06
681.11	802.80
681.25	716.20
681.39	709.18
681.52	788.76
681.66	847.27
681.80	732.59
681.94	847.27
682.07	823.87
682.21	856.64
682.35	826.21
682.49	877.70
682.62	858.98
682.76	758.33
682.90	777.06
683.04	718.54
683.17	777.06
683.31	826.21
683.45	755.99
683.59	781.74
683.72	770.04
683.86	730.25
684.00	702.16
684.13	791.10
684.27	781.74
684.41	737.27
684.55	734.93
684.68	781.74
684.82	706.84
684.96	683.44
685.09	737.27
685.23	638.97
685.37	777.06
685.50	709.18
685.64	763.01
685.78	650.67
685.91	676.41
686.05	709.18
686.19	610.88
686.32	489.17
686.46	472.79
686.60	414.27
686.73	606.20
686.87	547.69
687.01	402.57
687.14	454.06
687.28	479.81
687.42	510.24
687.55	596.84
687.69	608.54
687.82	606.20
687.96	603.86
688.10	643.65
688.23	617.90
688.37	601.52
688.50	585.13
688.64	578.11
688.78	477.47
688.91	531.30
689.05	547.69
689.18	507.90
689.32	528.96
689.46	540.66
689.59	554.71
689.73	582.79
689.86	538.32
690.00	638.97
690.13	559.39
690.27	575.77
690.41	582.79
690.54	681.10
690.68	573.43
690.81	620.24
690.95	585.13
691.08	531.30
691.22	594.50
691.35	589.82
691.49	552.37
691.62	559.39
691.76	627.26
691.89	512.58
692.03	613.22
692.16	535.98
692.30	547.69
692.43	454.06
692.57	547.69
692.70	557.05
692.84	531.30
692.97	587.47
693.11	622.58
693.24	568.75
693.38	470.45
693.51	512.58
693.65	505.56
693.78	552.37
693.92	500.87
694.05	538.32
694.19	472.79
694.32	552.37
694.45	465.77
694.59	580.45
694.72	510.24
694.86	606.20
694.99	580.45
695.13	543.00
695.26	547.69
695.39	538.32
695.53	582.79
695.66	533.64
695.80	561.73
695.93	486.83
696.07	545.34
696.20	496.19
696.33	566.41
696.47	589.82
696.60	601.52
696.73	510.24
696.87	580.45
697.00	674.07
697.14	540.66
697.27	606.20
697.40	603.86
697.54	521.94
697.67	535.98
697.80	547.69
697.94	477.47
698.07	561.73
698.21	613.22
698.34	519.60
698.47	430.66
698.61	519.60
698.74	500.87
698.87	477.47
699.01	510.24
699.14	489.17
699.27	512.58
699.40	596.84
699.54	526.62
699.67	493.85
699.80	442.36
699.94	454.06
700.07	465.77
700.20	435.34
700.34	510.24
700.47	477.47
700.60	451.72
700.73	416.62
700.87	498.53
701.00	489.17
701.13	505.56
701.26	475.13
701.40	477.47
701.53	397.89
701.66	465.77
701.79	528.96
701.93	425.98
702.06	519.60
702.19	444.70
702.32	465.77
702.46	526.62
702.59	395.55
702.72	447.04
702.85	472.79
702.99	477.47
703.12	517.26
703.25	440.02
703.38	524.28
703.51	442.36
703.65	479.81
703.78	447.04
703.91	491.51
704.04	510.24
704.17	505.56
704.31	500.87
704.44	428.32
704.57	463.43
704.70	543.00
704.83	442.36
704.96	404.91
705.10	484.49
705.23	437.68
>>>>>End Processed Spectral Data<<<<<
