SpectraSuite Data File
++++++++++++++++++++++++++++++++++++
Date: Mon Sep 30 18:11:44 GMT-05:00 2013
User: stostad
Dark Spectrum Present: No
Reference Spectrum Present: No
Number of Sampled Component Spectra: 1
Spectrometers: USB2+H05261
Integration Time (usec): 100000 (USB2+H05261)
Spectra Averaged: 1 (USB2+H05261)
Boxcar Smoothing: 0 (USB2+H05261)
Correct for Electrical Dark: No (USB2+H05261)
Strobe/Lamp Enabled: No (USB2+H05261)
Correct for Detector Non-linearity: No (USB2+H05261)
Correct for Stray Light: No (USB2+H05261)
Number of Pixels in Processed Spectrum: 2048
>>>>>Begin Processed Spectral Data<<<<<
365.73	163.84
365.92	163.84
366.12	163.84
366.32	60.85
366.52	70.22
366.72	25.75
366.91	21.06
367.11	4.68
367.31	35.11
367.51	30.43
367.70	42.13
367.90	37.45
368.10	39.79
368.30	0.00
368.49	35.11
368.69	58.51
368.89	0.00
369.09	11.70
369.28	46.81
369.48	46.81
369.68	84.26
369.87	70.22
370.07	0.00
370.27	77.24
370.47	131.07
370.66	313.63
370.86	416.62
371.06	435.34
371.25	430.66
371.45	325.33
371.65	425.98
371.84	376.83
372.04	437.68
372.24	442.36
372.44	418.96
372.63	491.51
372.83	477.47
373.03	433.00
373.22	521.94
373.42	395.55
373.62	454.06
373.81	498.53
374.01	596.84
374.21	484.49
374.40	575.77
374.60	531.30
374.79	571.09
374.99	552.37
375.19	568.75
375.38	484.49
375.58	559.39
375.78	547.69
375.97	545.34
376.17	566.41
376.37	545.34
376.56	589.82
376.76	613.22
376.95	533.64
377.15	667.05
377.35	599.18
377.54	580.45
377.74	568.75
377.93	636.63
378.13	638.97
378.33	624.92
378.52	543.00
378.72	650.67
378.91	608.54
379.11	561.73
379.31	669.39
379.50	634.29
379.70	608.54
379.89	582.79
380.09	653.01
380.28	589.82
380.48	585.13
380.68	676.41
380.87	557.05
381.07	716.20
381.26	641.31
381.46	723.23
381.65	653.01
381.85	662.37
382.04	748.97
382.24	706.84
382.43	741.95
382.63	653.01
382.83	704.50
383.02	725.57
383.22	737.27
383.41	730.25
383.61	760.67
383.80	697.48
384.00	709.18
384.19	702.16
384.39	746.63
384.58	781.74
384.78	753.65
384.97	830.89
385.17	772.38
385.36	791.10
385.56	727.91
385.75	720.88
385.95	788.76
386.14	826.21
386.34	732.59
386.53	819.19
386.72	744.29
386.92	755.99
387.11	767.70
387.31	870.68
387.50	814.51
387.70	774.72
387.89	835.57
388.09	840.25
388.28	959.62
388.48	826.21
388.67	828.55
388.86	844.93
389.06	882.38
389.25	933.87
389.45	898.77
389.64	889.40
389.84	950.26
390.03	809.83
390.22	884.72
390.42	940.90
390.61	898.77
390.81	912.81
391.00	966.64
391.19	994.73
391.39	959.62
391.58	931.53
391.78	905.79
391.97	1027.50
392.16	1025.15
392.36	1090.69
392.55	940.90
392.75	1111.75
392.94	1071.97
393.13	1081.33
393.33	1011.11
393.52	1034.52
393.71	1046.22
393.91	1046.22
394.10	1093.03
394.29	1090.69
394.49	1071.97
394.68	1029.84
394.88	1081.33
395.07	1142.18
395.26	1149.20
395.46	1224.10
395.65	1207.72
395.84	1207.72
396.04	1217.08
396.23	1266.23
396.42	1233.46
396.62	1207.72
396.81	1238.14
397.00	1188.99
397.19	1249.85
397.39	1210.06
397.58	1310.70
397.77	1238.14
397.97	1315.38
398.16	1203.04
398.35	1434.75
398.55	1338.79
398.74	1336.45
398.93	1371.55
399.12	1343.47
399.32	1317.72
399.51	1373.89
399.70	1352.83
399.90	1383.26
400.09	1336.45
400.28	1455.81
400.47	1233.46
400.67	1409.00
400.86	1533.05
401.05	1460.49
401.24	1500.28
401.44	1455.81
401.63	1570.50
401.82	1519.01
402.01	1465.18
402.21	1486.24
402.40	1519.01
402.59	1551.78
402.78	1488.58
402.97	1554.12
403.17	1605.61
403.36	1603.27
403.55	1657.10
403.74	1612.63
403.93	1666.46
404.13	1643.06
404.32	1739.02
404.51	1659.44
404.70	1624.33
404.89	1666.46
405.09	1872.43
405.28	1757.74
405.47	1842.00
405.66	1891.15
405.85	1923.92
406.05	1708.59
406.24	1816.26
406.43	1825.62
406.62	1884.13
406.81	1977.75
407.00	1863.07
407.20	1774.13
407.39	2019.88
407.58	1968.39
407.77	2045.63
407.96	2036.27
408.15	1991.80
408.34	2047.97
408.54	2052.65
408.73	2001.16
408.92	2057.33
409.11	2179.04
409.30	1982.43
409.49	2085.42
409.68	2099.46
409.87	2136.91
410.07	2186.06
410.26	2176.70
410.45	2225.85
410.64	2272.66
410.83	2176.70
411.02	2209.47
411.21	2228.19
411.40	2188.40
411.59	2347.56
411.78	2300.75
411.98	2389.69
412.17	2223.51
412.36	2298.41
412.55	2457.56
412.74	2487.99
412.93	2464.58
413.12	2422.45
413.31	2581.61
413.50	2640.12
413.69	2588.63
413.88	2647.15
414.07	2626.08
414.26	2651.83
414.45	2710.34
414.64	2670.55
414.83	2848.43
415.02	2743.11
415.22	2822.69
415.41	3002.91
415.60	2764.17
415.79	2888.22
415.98	2888.22
416.17	3045.04
416.36	3059.08
416.55	2850.77
416.74	3054.40
416.93	3033.33
417.12	3059.08
417.31	3122.27
417.50	2913.97
417.69	3204.19
417.88	3176.11
418.07	3082.49
418.26	3201.85
418.45	3176.11
418.64	3321.22
418.83	3265.05
419.02	3255.69
419.21	3349.31
419.39	3290.79
419.58	3272.07
419.77	3349.31
419.96	3407.82
420.15	3433.57
420.34	3386.76
420.53	3325.90
420.72	3583.36
420.91	3412.50
421.10	3496.76
421.29	3585.70
421.48	3365.69
421.67	3515.48
421.86	3454.63
422.05	3456.97
422.24	3637.19
422.43	3485.06
422.61	3644.21
422.80	3538.89
422.99	3496.76
423.18	3655.92
423.37	3599.74
423.56	3634.85
423.75	3723.79
423.94	3765.92
424.13	3466.33
424.32	3581.02
424.50	3754.22
424.69	3789.33
424.88	3740.18
425.07	3688.68
425.26	3576.34
425.45	3641.87
425.64	3756.56
425.83	3620.81
426.01	3644.21
426.20	3737.84
426.39	3812.73
426.58	3623.15
426.77	3646.55
426.96	3733.15
427.15	4021.04
427.33	3810.39
427.52	3889.97
427.71	3899.33
427.90	3885.29
428.09	3812.73
428.28	3927.42
428.46	3976.57
428.65	3889.97
428.84	3925.08
429.03	3939.12
429.22	3779.97
429.40	3847.84
429.59	3850.18
429.78	3850.18
429.97	3679.32
430.16	3667.62
430.34	3791.67
430.53	3684.00
430.72	3810.39
430.91	3775.28
431.10	3950.82
431.28	3978.91
431.47	3918.06
431.66	3934.44
431.85	3948.48
432.03	3939.12
432.22	4262.12
432.41	4241.05
432.60	4161.47
432.79	4154.45
432.97	4086.58
433.16	4299.56
433.35	4311.27
433.54	4341.69
433.72	4287.86
433.91	4318.29
434.10	4435.32
434.28	4351.06
434.47	4383.82
434.66	4306.59
434.85	4547.66
435.03	4711.50
435.22	4723.20
435.41	4954.91
435.59	4915.12
435.78	4837.89
435.97	4718.52
436.16	4737.24
436.34	4664.69
436.53	4809.80
436.72	4837.89
436.90	4741.93
437.09	4720.86
437.28	4788.74
437.46	4837.89
437.65	5001.72
437.84	5107.05
438.02	4980.66
438.21	5039.17
438.40	4999.38
438.58	5116.41
438.77	5132.79
438.96	5095.35
439.14	5256.84
439.33	5369.19
439.52	5315.36
439.70	5441.75
439.89	5383.23
440.08	5397.28
440.26	5547.07
440.45	5600.90
440.63	5600.90
440.82	5659.42
441.01	5682.82
441.19	5724.95
441.38	5942.62
441.57	5863.04
441.75	5905.17
441.94	5846.66
442.12	6026.88
442.31	5959.00
442.50	6071.35
442.68	5982.41
442.87	6106.46
443.05	5996.45
443.24	6043.26
443.43	6054.97
443.61	6029.22
443.80	6338.17
443.98	5879.43
444.17	5937.94
444.35	6064.33
444.54	6225.82
444.73	6377.96
444.91	6251.57
445.10	6094.76
445.28	6183.70
445.47	6181.35
445.65	6045.60
445.84	6141.57
446.02	6085.39
446.21	6267.95
446.39	6244.55
446.58	6289.02
446.77	6359.24
446.95	6183.70
447.14	6221.14
447.32	6473.92
447.51	6455.20
447.69	6157.95
447.88	6340.51
448.06	6293.70
448.25	6492.65
448.43	6476.26
448.62	6296.04
448.80	6546.48
448.99	6370.94
449.17	6399.02
449.36	6279.66
449.54	6541.80
449.73	6548.82
449.91	6640.10
450.10	6579.25
450.28	6642.44
450.46	6516.05
450.65	6668.19
450.83	6619.04
451.02	6703.29
451.20	6705.63
451.39	6710.32
451.57	6715.00
451.76	6698.61
451.94	6707.98
452.13	6792.23
452.31	6736.06
452.49	6792.23
452.68	6717.34
452.86	6911.60
453.05	7040.33
453.23	6977.14
453.42	6848.41
453.60	6972.46
453.78	7021.61
453.97	6836.70
454.15	6927.99
454.34	6913.94
454.52	7007.56
454.70	7094.16
454.89	6951.39
455.07	6991.18
455.26	7187.79
455.44	7190.13
455.62	7063.74
455.81	7262.68
455.99	7204.17
456.17	7192.47
456.36	7297.79
456.54	7332.90
456.73	7400.77
456.91	7522.48
457.09	7468.65
457.28	7524.82
457.46	7398.43
457.64	7503.76
457.83	7548.23
458.01	7562.27
458.19	7442.90
458.38	7449.93
458.56	7779.94
458.74	7749.51
458.93	7510.78
459.11	7705.04
459.29	7672.28
459.48	7639.51
459.66	7627.81
459.84	7709.72
460.03	7995.27
460.21	7740.15
460.39	7829.09
460.57	7786.96
460.76	7892.29
460.94	7953.14
461.12	7850.16
461.31	8028.04
461.49	8039.74
461.67	7995.27
461.85	8163.79
462.04	8058.46
462.22	8180.17
462.40	8238.69
462.59	8294.86
462.77	8203.58
462.95	8203.58
463.13	8184.85
463.32	8430.61
463.50	8372.10
463.68	8468.06
463.86	8498.49
464.05	8465.72
464.23	8372.10
464.41	8402.52
464.59	8215.28
464.78	8355.71
464.96	8411.89
465.14	8425.93
465.32	8540.61
465.50	8769.99
465.69	8627.21
465.87	8650.62
466.05	8606.15
466.23	8601.47
466.41	8641.26
466.60	8816.80
466.78	8737.22
466.96	8699.77
467.14	8472.74
467.32	8655.30
467.51	8938.51
467.69	8587.43
467.87	8706.79
468.05	8688.07
468.23	8861.27
468.41	8723.18
468.60	8837.86
468.78	8919.78
468.96	8879.99
469.14	8891.70
469.32	8987.66
469.50	8966.59
469.69	9085.96
469.87	9060.21
470.05	9254.48
470.23	9069.58
470.41	8879.99
470.59	9266.18
470.77	9095.32
470.95	9207.67
471.14	9123.41
471.32	9186.60
471.50	9366.82
471.68	9102.34
471.86	9479.17
472.04	9320.01
472.22	9533.00
472.40	9121.07
472.58	9458.10
472.77	9481.51
472.95	9472.15
473.13	9811.53
473.31	9427.68
473.49	9664.07
473.67	9525.98
473.85	9565.77
474.03	9947.28
474.21	9851.31
474.39	9944.94
474.57	9996.43
474.75	10125.16
474.93	10267.93
475.12	10228.14
475.30	10548.79
475.48	10506.66
475.66	10471.56
475.84	10391.98
476.02	10647.10
476.20	10490.28
476.38	10558.16
476.56	10899.87
476.74	11131.59
476.92	10892.85
477.10	10757.10
477.28	11166.70
477.46	10960.73
477.64	11337.56
477.82	11384.37
478.00	11676.93
478.18	11534.16
478.36	11749.49
478.54	11648.85
478.72	11812.68
478.90	12023.33
479.08	12056.10
479.26	12327.60
479.44	12229.30
479.62	12594.42
479.80	12556.97
479.98	12659.96
480.16	12755.92
480.34	12758.26
480.52	13011.04
480.70	13055.51
480.88	13146.79
481.06	13235.73
481.24	13476.80
481.41	13472.12
481.59	13650.00
481.77	13944.91
481.95	13717.88
482.13	14104.07
482.31	14059.60
482.49	14281.95
482.67	14466.85
482.85	14560.47
483.03	14813.25
483.21	14974.75
483.39	15517.75
483.57	15281.36
483.74	15358.60
483.92	15669.89
484.10	15255.61
484.28	15840.75
484.46	15630.10
484.64	16163.74
484.82	16025.65
485.00	16177.78
485.18	16788.66
485.35	16709.08
485.53	16863.56
485.71	16662.27
485.89	17268.47
486.07	17137.40
486.25	17252.09
486.43	17708.49
486.61	17696.79
486.78	17867.65
486.96	17776.37
487.14	17820.84
487.32	18335.76
487.50	18317.03
487.68	18590.88
487.85	18373.21
488.03	18986.43
488.21	19187.71
488.39	19009.83
488.57	19140.90
488.75	19419.42
488.92	19831.36
489.10	19901.58
489.28	19578.58
489.46	19995.20
489.64	20098.18
489.81	20311.17
489.99	20458.62
490.17	21041.42
490.35	20994.61
490.53	20917.37
490.70	21109.29
490.88	21048.44
491.06	21336.32
491.24	21509.52
491.41	21664.00
491.59	21563.36
491.77	21642.93
491.95	21825.50
492.13	22094.66
492.30	22071.25
492.48	22438.72
492.66	22370.84
492.84	22558.08
493.01	22239.77
493.19	22625.96
493.37	22916.19
493.54	22775.75
493.72	23166.62
493.90	23260.24
494.08	23321.10
494.25	23761.12
494.43	23580.90
494.61	23536.43
494.79	23438.12
494.96	23709.63
495.14	23807.93
495.32	24065.39
495.49	24247.95
495.67	24400.08
495.85	24556.90
496.02	24439.87
496.20	24355.61
496.38	24486.68
496.55	24840.11
496.73	25401.83
496.91	25158.42
497.09	25338.64
497.26	25420.56
497.44	25149.06
497.62	25235.66
497.79	25511.84
497.97	25654.61
498.14	25652.27
498.32	25427.58
498.50	25722.49
498.67	25710.78
498.85	25825.47
499.03	26611.89
499.20	26033.78
499.38	26331.03
499.56	26424.65
499.73	25909.73
499.91	26441.03
500.08	26689.13
500.26	26295.92
500.44	26719.56
500.61	26871.69
500.79	26909.14
500.97	26972.33
501.14	26951.27
501.32	26771.05
501.49	27145.53
501.67	27297.67
501.84	27281.28
502.02	27349.16
502.20	27325.75
502.37	27185.32
502.55	27344.48
502.72	27358.52
502.90	27522.36
503.07	27335.12
503.25	27662.79
503.43	27417.04
503.60	27639.39
503.78	27662.79
503.95	27391.29
504.13	27461.51
504.30	27737.69
504.48	27737.69
504.65	28058.34
504.83	28264.31
505.01	28374.31
505.18	28023.23
505.36	28266.65
505.53	28095.79
505.71	28460.91
505.88	28283.03
506.06	27901.53
506.23	28374.31
506.41	27864.08
506.58	28264.31
506.76	28252.61
506.93	28240.90
507.11	28114.52
507.28	28584.96
507.46	28290.06
507.63	28011.53
507.81	28423.47
507.98	27810.25
508.16	28442.19
508.33	28044.30
508.50	28402.40
508.68	28217.50
508.85	28496.02
509.03	27978.76
509.20	27946.00
509.38	27960.04
509.55	28212.82
509.73	28215.16
509.90	27835.99
510.08	27819.61
510.25	27587.89
510.42	27372.57
510.60	27482.57
510.77	27704.92
510.95	27501.29
511.12	27608.96
511.30	27442.78
511.47	27218.09
511.64	26920.84
511.82	27562.15
511.99	27072.98
512.17	27182.98
512.34	27084.68
512.51	27452.14
512.69	27510.66
512.86	27367.88
513.04	27601.94
513.21	27316.39
513.38	27304.69
513.56	27555.13
513.73	27126.81
513.90	27931.95
514.08	28020.89
514.25	28348.57
514.43	27871.10
514.60	27812.59
514.77	27747.05
514.95	28552.20
515.12	28470.28
515.29	28465.60
515.47	28952.43
515.64	29041.37
515.81	29081.16
515.99	28980.51
516.16	29362.02
516.33	29443.94
516.51	29783.32
516.68	29738.85
516.85	29872.26
517.03	30188.23
517.20	29982.26
517.37	29975.24
517.54	30160.14
517.72	30513.56
517.89	30225.68
518.06	30651.66
518.24	30242.06
518.41	30829.54
518.58	30827.20
518.75	30845.92
518.93	30838.90
519.10	31314.03
519.27	31101.04
519.45	31035.50
519.62	31405.31
519.79	31246.15
519.96	31662.77
520.14	31545.74
520.31	31152.53
520.48	31285.94
520.65	31325.73
520.83	31386.58
521.00	31517.65
521.17	31477.86
521.34	31344.45
521.52	31276.58
521.69	30534.63
521.86	30941.88
522.03	30377.81
522.20	30551.01
522.38	30436.33
522.55	30260.79
522.72	30052.48
522.89	29853.53
523.07	29914.39
523.24	29081.16
523.41	29240.31
523.58	28697.31
523.75	29036.69
523.92	28727.74
524.10	28835.40
524.27	28575.60
524.44	28580.28
524.61	28240.90
524.78	28407.08
524.96	28500.70
525.13	28350.91
525.30	28428.15
525.47	28751.14
525.64	28720.71
525.81	28655.18
525.98	28519.43
526.16	28374.31
526.33	28254.95
526.50	28570.92
526.67	28276.01
526.84	28362.61
527.01	28233.88
527.18	28409.42
527.36	28711.35
527.53	28191.75
527.70	28212.82
527.87	28182.39
528.04	28250.27
528.21	28503.04
528.38	28322.82
528.55	28147.28
528.72	28025.57
528.89	28268.99
529.07	28079.41
529.24	28266.65
529.41	28650.50
529.58	28421.13
529.75	28559.22
529.92	28987.53
530.09	28779.23
530.26	29041.37
530.43	29125.63
530.60	28856.46
530.77	29582.03
530.94	29439.26
531.11	29350.32
531.28	29514.16
531.46	29982.26
531.63	29788.00
531.80	29743.53
531.97	30462.07
532.14	30281.85
532.31	30981.67
532.48	30850.60
532.65	31075.29
532.82	31070.61
532.99	31665.11
533.16	31241.47
533.33	31861.71
533.50	32095.77
533.67	31887.46
533.84	31969.38
534.01	32608.34
534.18	33172.41
534.35	34085.22
534.52	33916.70
534.69	34195.23
534.86	34529.92
535.03	34405.88
535.20	35058.88
535.37	35215.70
535.54	35950.63
535.71	35842.96
535.88	36259.58
536.05	36514.70
536.22	36786.20
536.38	36961.74
536.55	36872.80
536.72	37258.99
536.89	37511.77
537.06	37586.66
537.23	38539.26
537.40	38417.55
537.57	38628.20
537.74	38607.14
537.91	39203.97
538.08	39428.66
538.25	39292.91
538.42	40027.84
538.59	40423.39
538.75	40332.11
538.92	40549.78
539.09	40886.82
539.26	41010.87
539.43	40854.05
539.60	41352.58
539.77	41411.10
539.94	41902.61
540.11	42260.71
540.28	42667.97
540.44	43091.60
540.61	42656.26
540.78	43072.88
540.95	43225.01
541.12	43140.75
541.29	43529.28
541.46	43526.94
541.62	43861.64
541.79	44205.70
541.96	44343.79
542.13	44271.23
542.30	44715.93
542.47	44919.56
542.63	44596.57
542.80	44577.84
542.97	45284.68
543.14	45390.01
543.31	45745.77
543.48	45546.82
543.64	46258.35
543.81	45841.73
543.98	46256.01
544.15	46419.84
544.32	45979.82
544.48	46576.66
544.65	46014.93
544.82	46227.92
544.99	46340.27
545.16	46862.21
545.32	46689.01
545.49	47276.48
545.66	47379.46
545.83	47049.45
546.00	47012.00
546.16	47157.11
546.33	47171.16
546.50	47065.83
546.67	47828.85
546.83	47208.61
547.00	47470.75
547.17	46941.78
547.34	47395.85
547.50	47650.97
547.67	47723.52
547.84	47838.21
548.00	47863.96
548.17	48247.80
548.34	48268.87
548.51	48116.73
548.67	48051.20
548.84	47922.47
549.01	47587.77
549.18	47906.08
549.34	48144.82
549.51	48292.27
549.68	48212.70
549.84	48519.31
550.01	48755.70
550.18	48739.32
550.34	48521.65
550.51	48076.94
550.68	48303.98
550.84	48378.87
551.01	48498.24
551.18	48371.85
551.34	48832.94
551.51	49001.46
551.68	48823.58
551.84	48706.55
552.01	48725.27
552.18	48823.58
552.34	48692.50
552.51	48954.64
552.68	48685.48
552.84	48999.12
553.01	49104.44
553.18	49277.64
553.34	49125.50
553.51	48540.37
553.67	48610.59
553.84	49366.58
554.01	49184.02
554.17	49153.59
554.34	49102.10
554.51	49507.01
554.67	49521.05
554.84	49312.75
555.00	49205.08
555.17	48996.77
555.33	49198.06
555.50	49050.61
555.67	49034.22
555.83	49177.00
556.00	49734.04
556.16	49911.92
556.33	49511.69
556.50	49682.55
556.66	49565.52
556.83	49357.22
556.99	49507.01
557.16	49453.18
557.32	49708.30
557.49	49797.24
557.65	49572.55
557.82	49801.92
557.98	49787.88
558.15	49996.18
558.32	49748.09
558.48	49191.04
558.65	49492.97
558.81	49485.95
558.98	49333.81
559.14	49591.27
559.31	49712.98
559.47	50059.38
559.64	50052.36
559.80	50038.31
559.97	49457.86
560.13	49420.41
560.30	49462.54
560.46	49588.93
560.63	49584.25
560.79	49853.41
560.96	50024.27
561.12	49392.33
561.29	49794.90
561.45	49509.35
561.61	49144.23
561.78	49324.45
561.94	49397.01
562.11	49439.14
562.27	49057.63
562.44	49263.60
562.60	49116.14
562.77	49160.61
562.93	48940.60
563.10	49214.44
563.26	48971.03
563.42	49179.34
563.59	49045.93
563.75	48271.21
563.92	48671.44
564.08	48392.92
564.24	48299.30
564.41	48149.50
564.57	48098.01
564.74	47391.17
564.90	47826.51
565.07	47559.69
565.23	47122.01
565.39	46799.01
565.56	46497.08
565.72	46351.97
565.88	46649.22
566.05	45940.04
566.21	45689.60
566.38	45137.23
566.54	44828.28
566.70	44219.74
566.87	43805.47
567.03	42480.72
567.19	42518.17
567.36	41504.72
567.52	41141.94
567.68	40442.12
567.85	39400.58
568.01	38967.58
568.17	37546.87
568.34	36964.08
568.50	35325.71
568.66	34719.51
568.83	33813.72
568.99	32556.85
569.15	31290.62
569.32	30335.68
569.48	29312.87
569.64	28783.91
569.81	27070.64
569.97	25844.20
570.13	25202.89
570.30	23653.45
570.46	22981.72
570.62	22132.11
570.78	21359.73
570.95	20758.21
571.11	20383.73
571.27	19377.30
571.43	19108.13
571.60	18780.46
571.76	17958.93
571.92	17900.42
572.09	17551.68
572.25	17397.20
572.41	16968.88
572.57	17006.33
572.74	16999.31
572.90	16989.95
573.06	16875.26
573.22	16652.91
573.38	16819.09
573.55	16812.07
573.71	17153.79
573.87	16809.73
574.03	17036.76
574.20	17128.04
574.36	17106.98
574.52	17109.32
574.68	17298.90
574.84	17238.05
575.01	17219.32
575.17	17577.42
575.33	17355.07
575.49	17334.01
575.65	17270.81
575.82	17109.32
575.98	17561.04
576.14	17563.38
576.30	17820.84
576.46	17642.96
576.62	17750.62
576.79	17783.39
576.95	17722.54
577.11	17972.97
577.27	17846.58
577.43	17926.16
577.59	18253.84
577.75	18019.78
577.92	18328.74
578.08	18387.25
578.24	18644.71
578.40	18476.19
578.56	18721.95
578.72	18796.84
578.88	18822.59
579.04	18731.31
579.21	18998.13
579.37	18878.76
579.53	19023.87
579.69	19061.32
579.85	19058.98
580.01	18988.77
580.17	18878.76
580.33	18618.96
580.49	18906.85
580.65	18459.81
580.82	18160.22
580.98	17813.82
581.14	17694.45
581.30	17448.69
581.46	17083.57
581.62	17020.38
581.78	16556.95
581.94	16238.64
582.10	15587.97
582.26	15215.82
582.42	14806.23
582.58	14317.06
582.74	13994.06
582.90	13703.84
583.06	13572.77
583.22	13172.54
583.38	13121.04
583.54	12868.27
583.70	12475.06
583.86	12341.64
584.02	11974.18
584.18	12016.31
584.34	11705.02
584.50	11805.66
584.66	11569.27
584.82	11335.21
584.98	11419.47
585.14	11414.79
585.30	11630.12
585.46	11552.88
585.62	11602.04
585.78	11747.15
585.94	11662.89
586.10	11868.86
586.26	11833.75
586.42	12276.11
586.58	12594.42
586.74	12444.63
586.90	12830.82
587.06	12910.40
587.22	13301.26
587.38	13397.23
587.54	13652.34
587.70	13973.00
587.86	14087.68
588.02	13949.59
588.18	14366.21
588.34	14932.62
588.49	15180.71
588.65	15393.70
588.81	15815.00
588.97	16027.99
589.13	16065.44
589.29	16432.90
589.45	16318.22
589.61	16552.27
589.77	17048.46
589.93	16996.97
590.08	17310.60
590.24	17612.53
590.40	17657.00
590.56	17984.68
590.72	18132.13
590.88	18202.35
591.04	18375.55
591.20	18508.96
591.35	18909.19
591.51	19051.96
591.67	19089.41
591.83	19585.60
591.99	19957.75
592.15	20170.74
592.31	20547.56
592.46	20278.40
592.62	20959.50
592.78	21544.63
592.94	21579.74
593.10	21806.77
593.26	22609.58
593.41	22899.80
593.57	22801.50
593.73	23239.18
593.89	23995.17
594.05	23992.83
594.20	24737.12
594.36	25256.72
594.52	25628.87
594.68	25652.27
594.84	25907.39
594.99	26434.01
595.15	26689.13
595.31	27082.34
595.47	27356.18
595.62	27828.97
595.78	28191.75
595.94	29043.71
596.10	29369.04
596.25	29404.15
596.41	29455.64
596.57	30113.33
596.73	30459.73
596.88	30817.83
597.04	31225.09
597.20	31072.95
597.36	31508.29
597.51	31901.50
597.67	32444.51
597.83	32383.65
597.99	32877.51
598.14	33745.84
598.30	33809.04
598.46	33139.65
598.61	34244.38
598.77	33802.02
598.93	34043.09
599.09	34625.89
599.24	34983.99
599.40	35339.75
599.56	35145.48
599.71	35735.30
599.87	36266.60
600.03	36367.24
600.18	36350.86
600.34	36563.85
600.50	36657.47
600.65	37083.45
600.81	37787.95
600.97	37638.15
601.12	37649.86
601.28	38340.32
601.44	38494.79
601.59	38515.86
601.75	39145.46
601.91	39496.54
602.06	40076.99
602.22	40142.53
602.37	40285.30
602.53	40072.31
602.69	40790.86
602.84	40732.34
603.00	40725.32
603.16	41223.86
603.31	41588.98
603.47	41862.82
603.62	41715.37
603.78	42169.43
603.94	42508.81
604.09	43016.71
604.25	43002.66
604.40	42878.61
604.56	42932.45
604.71	43466.09
604.87	43136.07
605.03	43381.83
605.18	43702.48
605.34	43583.12
605.49	43800.79
605.65	44165.91
605.80	44311.02
605.96	44692.53
606.12	44959.35
606.27	45057.65
606.43	44608.27
606.58	45132.55
606.74	44982.76
606.89	45160.64
607.05	44949.99
607.20	45558.53
607.36	45418.10
607.51	45619.38
607.67	45748.11
607.82	45666.19
607.98	45694.28
608.13	45584.27
608.29	45558.53
608.44	46050.04
608.60	45914.29
608.75	45804.28
608.91	46216.22
609.06	46087.49
609.22	46504.10
609.37	46340.27
609.53	46754.54
609.68	46794.33
609.84	47330.31
609.99	47430.96
610.15	47442.66
610.30	47917.79
610.46	47611.18
610.61	48151.84
610.76	48519.31
610.92	48594.20
611.07	48507.60
611.23	48507.60
611.38	48989.75
611.54	49045.93
611.69	48837.62
611.84	49120.82
612.00	49125.50
612.15	49130.19
612.31	49937.67
612.46	49235.51
612.62	49556.16
612.77	49387.64
612.92	50185.77
613.08	49804.26
613.23	50010.23
613.39	50380.03
613.54	50295.77
613.69	50883.25
613.85	50677.28
614.00	51117.30
614.15	50726.43
614.31	50520.46
614.46	50955.80
614.62	50651.53
614.77	50871.54
614.92	51274.12
615.08	51482.42
615.23	51700.09
615.38	51583.07
615.54	51199.22
615.69	51295.18
615.84	51746.90
616.00	51955.21
616.15	51828.82
616.30	51585.41
616.46	51716.48
616.61	51391.14
616.76	51885.00
616.92	51325.61
617.07	51508.17
617.22	51606.47
617.37	51461.36
617.53	51503.49
617.68	51821.80
617.83	51821.80
617.99	51585.41
618.14	51494.13
618.29	51648.60
618.45	51697.75
618.60	51222.62
618.75	51227.31
618.90	51334.97
619.06	51491.79
619.21	51082.19
619.36	51868.61
619.51	51796.06
619.67	51664.99
619.82	51709.46
619.97	51674.35
620.12	51356.03
620.28	51311.56
620.43	51543.28
620.58	51220.28
620.73	51086.87
620.89	51320.93
621.04	50857.50
621.19	51386.46
621.34	51360.72
621.49	51042.40
621.65	50967.51
621.80	51283.48
621.95	50976.87
622.10	51079.85
622.25	51166.45
622.41	50775.58
622.56	50894.95
622.71	50958.14
622.86	50475.99
623.01	50672.60
623.16	51004.95
623.32	50518.12
623.47	50890.27
623.62	51124.32
623.77	51100.92
623.92	50869.20
624.07	50679.62
624.23	50628.13
624.38	50726.43
624.53	50511.10
624.68	50623.45
624.83	50412.80
624.98	50415.14
625.13	50398.76
625.29	50536.85
625.44	50333.22
625.59	50506.42
625.74	50110.87
625.89	50316.84
626.04	49970.44
626.19	49869.79
626.34	50251.30
626.49	49909.58
626.65	49801.92
626.80	49972.78
626.95	49717.66
627.10	50101.51
627.25	50160.02
627.40	50120.23
627.55	50075.76
627.70	49858.09
627.85	49876.82
628.00	49954.05
628.15	50138.96
628.30	50108.53
628.45	49851.07
628.60	49649.78
628.76	49656.81
628.91	49827.66
629.06	49640.42
629.21	49801.92
629.36	49799.58
629.51	49691.91
629.66	49750.43
629.81	49308.07
629.96	49773.83
630.11	49855.75
630.26	49621.70
630.41	50298.11
630.56	49071.67
630.71	49626.38
630.86	49336.15
631.01	49418.07
631.16	49530.42
631.31	49247.21
631.46	49261.26
631.61	49624.04
631.76	49460.20
631.91	50012.57
632.06	49996.18
632.21	49741.06
632.36	49991.50
632.51	49305.73
632.66	49223.81
632.81	49411.05
632.96	49298.70
633.10	49275.30
633.25	49499.99
633.40	49289.34
633.55	49481.27
633.70	49148.91
633.85	49212.10
634.00	49420.41
634.15	49279.98
634.30	49364.24
634.45	49251.89
634.60	49258.91
634.75	49303.38
634.90	48961.67
635.05	49284.66
635.19	49277.64
635.34	49661.49
635.49	49202.74
635.64	49549.14
635.79	49415.73
635.94	49610.00
636.09	49434.45
636.24	49177.00
636.39	48947.62
636.53	49499.99
636.68	49207.42
636.83	49289.34
636.98	48959.33
637.13	48650.38
637.28	49041.24
637.43	48912.52
637.57	48870.39
637.72	48837.62
637.87	48762.72
638.02	49043.59
638.17	48992.09
638.32	49064.65
638.46	49132.53
638.61	48809.53
638.76	48774.42
638.91	48725.27
639.06	48725.27
639.20	48729.95
639.35	48594.20
639.50	48545.05
639.65	48898.47
639.80	48177.59
639.94	48802.51
640.09	48889.11
640.24	48638.67
640.39	48804.85
640.54	48423.34
640.68	48584.84
640.83	48044.18
640.98	48158.86
641.13	48315.68
641.27	48273.55
641.42	48519.31
641.57	48238.44
641.72	48072.26
641.86	48034.81
642.01	48226.74
642.16	48369.51
642.31	48086.31
642.45	48666.76
642.60	48329.72
642.75	48236.10
642.90	48477.18
643.04	48109.71
643.19	47765.65
643.34	47824.17
643.48	47756.29
643.63	48154.18
643.78	47646.29
643.93	48233.76
644.07	48280.57
644.22	47655.65
644.37	48011.41
644.51	47831.19
644.66	48098.01
644.81	47859.27
644.95	48364.83
645.10	48179.93
645.25	48341.42
645.39	48093.33
645.54	47964.60
645.69	47615.86
645.83	47442.66
645.98	47938.85
646.13	48144.82
646.27	47889.70
646.42	47496.49
646.57	48161.20
646.71	47931.83
646.86	48020.77
647.00	47489.47
647.15	47931.83
647.30	47657.99
647.44	47590.11
647.59	47662.67
647.74	47503.51
647.88	47688.42
648.03	47229.67
648.17	47510.53
648.32	47505.85
648.47	47180.52
648.61	47234.35
648.76	47295.21
648.90	47283.50
649.05	47327.97
649.20	47512.88
649.34	47274.14
649.49	47159.45
649.63	47803.10
649.78	47367.76
649.92	47196.90
650.07	47519.90
650.21	47112.64
650.36	46789.65
650.51	46628.15
650.65	47613.52
650.80	46955.83
650.94	46642.20
651.09	47021.36
651.23	46827.10
651.38	47213.29
651.52	46862.21
651.67	47124.35
651.81	47063.49
651.96	46909.02
652.10	47234.35
652.25	46829.44
652.39	46768.58
652.54	46894.97
652.68	46501.76
652.83	46855.18
652.97	46583.68
653.12	46403.46
653.26	46146.00
653.41	46298.14
653.55	46525.17
653.70	46815.40
653.84	47044.77
653.99	46665.60
654.13	46424.53
654.27	46302.82
654.42	45860.46
654.56	46204.52
654.71	46710.07
654.85	45968.12
655.00	46408.14
655.14	45862.80
655.29	45895.56
655.43	46099.19
655.57	45975.14
655.72	45661.51
655.86	46157.70
656.01	46033.66
656.15	46150.68
656.30	45928.33
656.44	46040.68
656.58	45727.05
656.73	45748.11
656.87	45612.36
657.01	45418.10
657.16	45771.52
657.30	45425.12
657.45	45359.58
657.59	45598.32
657.73	45347.88
657.88	45708.32
658.02	45586.61
658.16	45680.24
658.31	45933.01
658.45	45947.06
658.60	45701.30
658.74	45673.21
658.88	45411.07
659.03	44828.28
659.17	44739.34
659.31	45291.71
659.46	44800.19
659.60	44816.58
659.74	45059.99
659.89	44945.31
660.03	45272.98
660.17	45205.11
660.32	44734.66
660.46	45043.61
660.60	44699.55
660.74	45024.89
660.89	44554.44
661.03	44285.28
661.17	44514.65
661.32	44182.29
661.46	44622.31
661.60	44456.14
661.74	44257.19
661.89	43973.98
662.03	44002.07
662.17	43934.20
662.31	44011.43
662.46	44079.31
662.60	44287.62
662.74	43838.23
662.88	44189.31
663.03	44334.43
663.17	44238.47
663.31	43873.34
663.45	43889.73
663.60	44065.27
663.74	43353.74
663.88	43615.88
664.02	42981.60
664.17	43405.23
664.31	43597.16
664.45	42955.85
664.59	43201.61
664.73	43435.66
664.88	43264.80
665.02	43255.44
665.16	43447.36
665.30	42946.49
665.44	42756.91
665.59	42614.13
665.73	42127.30
665.87	42284.12
666.01	42244.33
666.15	42618.81
666.29	42579.03
666.44	42188.16
666.58	42078.15
666.72	42253.69
666.86	41977.51
667.00	42246.67
667.14	42012.62
667.28	42529.87
667.43	41759.84
667.57	42642.22
667.71	42185.82
667.85	41605.36
667.99	41677.92
668.13	41057.68
668.27	41523.44
668.41	41418.12
668.56	41612.38
668.70	40992.14
668.84	41242.58
668.98	41486.00
669.12	41186.41
669.26	41120.87
669.40	41001.50
669.54	41432.16
669.68	41226.20
669.82	41170.02
669.96	41048.32
670.10	41146.62
670.25	40474.88
670.39	40580.21
670.53	40360.20
670.67	39826.56
670.81	39887.41
670.95	39674.42
671.09	39615.91
671.23	39480.16
671.37	40030.18
671.51	39990.39
671.65	39957.63
671.79	40020.82
671.93	39866.34
672.07	39866.34
672.21	39405.26
672.35	39096.31
672.49	39522.29
672.63	39117.37
672.77	39316.32
672.91	39086.95
673.05	38281.80
673.19	38841.19
673.33	38707.78
673.47	38136.69
673.61	38302.87
673.75	38763.95
673.89	38171.80
674.03	37989.24
674.17	37989.24
674.31	38286.48
674.45	38162.43
674.59	38424.57
674.73	38284.14
674.87	38103.92
675.01	37949.45
675.15	37916.68
675.29	37912.00
675.43	37581.98
675.56	37778.59
675.70	37759.86
675.84	37591.34
675.98	36067.66
676.12	37120.90
676.26	37184.09
676.40	37179.41
676.54	36699.60
676.68	36488.95
676.82	36194.04
676.96	36339.16
677.10	36163.62
677.23	36383.63
677.37	35461.46
677.51	35601.89
677.65	35644.02
677.79	35564.44
677.93	35346.77
678.07	35093.99
678.21	34668.02
678.34	35042.50
678.48	34312.25
678.62	34433.96
678.76	34096.92
678.90	34270.12
679.04	34663.33
679.18	34272.46
679.31	34160.12
679.45	34029.05
679.59	33769.25
679.73	34293.53
679.87	33773.93
680.00	33638.18
680.14	33411.15
680.28	33415.83
680.42	32999.21
680.56	32861.12
680.70	33139.65
680.83	33120.92
680.97	32435.14
681.11	32531.11
681.25	32833.04
681.39	32818.99
681.52	32603.66
681.66	32652.81
681.80	32063.00
681.94	32329.82
682.07	32072.36
682.21	32332.16
682.35	31716.60
682.49	31342.11
682.62	31035.50
682.76	31175.94
682.90	30986.35
683.04	31063.59
683.17	31070.61
683.31	30827.20
683.45	30445.69
683.59	30614.21
683.72	30551.01
683.86	30412.92
684.00	30080.56
684.13	30129.72
684.27	29909.71
684.41	30015.03
684.55	29954.18
684.68	29551.60
684.82	29710.76
684.96	30033.75
685.09	29434.58
685.23	29551.60
685.37	29340.96
685.50	29336.27
685.64	29383.09
685.78	29064.77
685.91	29376.06
686.05	28940.72
686.19	28924.34
686.32	29010.94
686.46	28379.00
686.60	28552.20
686.73	28774.55
686.87	28531.13
687.01	28952.43
687.14	28814.34
687.28	28395.38
687.42	28285.37
687.55	28229.20
687.69	28547.51
687.82	28425.81
687.96	27826.63
688.10	27833.65
688.23	27566.83
688.37	27569.17
688.50	27534.06
688.64	27707.26
688.78	27358.52
688.91	27920.25
689.05	27789.18
689.18	27571.51
689.32	26960.63
689.46	27082.34
689.59	27080.00
689.73	26988.72
689.86	27208.73
690.00	26962.97
690.13	27108.08
690.27	27166.60
690.41	26551.04
690.54	26623.59
690.68	26352.09
690.81	26609.55
690.95	26256.13
691.08	26679.77
691.22	26382.52
691.35	26338.05
691.49	26328.69
691.62	26263.15
691.76	26244.43
691.89	26375.50
692.03	26106.34
692.16	26031.44
692.30	26068.89
692.43	26043.14
692.57	25652.27
692.70	25504.82
692.84	25589.08
692.97	25493.12
693.11	24973.52
693.24	24879.89
693.38	24795.64
693.51	25310.55
693.65	24573.28
693.78	25095.22
693.92	24994.58
694.05	25256.72
694.19	25062.46
694.32	24589.67
694.45	24896.28
694.59	25074.16
694.72	24341.57
694.86	24599.03
694.99	24861.17
695.13	24783.93
695.26	24671.59
695.39	24168.37
695.53	24343.91
695.66	23821.97
695.80	23789.20
695.93	23976.45
696.07	23393.65
696.20	23534.09
696.33	23679.20
696.47	23438.12
696.60	23501.32
696.73	23573.88
696.87	23545.79
697.00	23356.21
697.14	23129.17
697.27	23183.01
697.40	23260.24
697.54	23201.73
697.67	22778.09
697.80	22635.32
697.94	22363.82
698.07	22574.47
698.21	22309.99
698.34	22356.80
698.47	22342.75
698.61	22026.78
698.74	22457.44
698.87	22160.19
699.01	21584.42
699.14	21701.45
699.27	21982.31
699.40	22010.40
699.54	21561.02
699.67	21317.60
699.80	21469.73
699.94	21331.64
700.07	21425.26
700.20	21495.48
700.34	21053.12
700.47	21069.50
700.60	20655.23
700.73	20870.56
700.87	20919.71
701.00	20526.50
701.13	20404.79
701.26	20170.74
701.40	20395.43
701.53	20692.68
701.66	20313.51
701.79	20177.76
701.93	20334.57
702.06	20173.08
702.19	20285.42
702.32	20116.90
702.46	20215.21
702.59	19939.02
702.72	19784.55
702.85	19573.90
702.99	19618.37
703.12	19468.58
703.25	19501.34
703.38	19225.16
703.51	19115.16
703.65	18981.74
703.78	18998.13
703.91	18810.89
704.04	19068.34
704.17	18735.99
704.31	19140.90
704.44	18787.48
704.57	18567.47
704.70	18663.43
704.83	18574.49
704.96	18647.05
705.10	18579.17
705.23	18251.50
>>>>>End Processed Spectral Data<<<<<
