SpectraSuite Data File
++++++++++++++++++++++++++++++++++++
Date: Mon Sep 30 18:11:39 GMT-05:00 2013
User: stostad
Dark Spectrum Present: No
Reference Spectrum Present: No
Number of Sampled Component Spectra: 1
Spectrometers: USB2+H05261
Integration Time (usec): 100000 (USB2+H05261)
Spectra Averaged: 1 (USB2+H05261)
Boxcar Smoothing: 0 (USB2+H05261)
Correct for Electrical Dark: No (USB2+H05261)
Strobe/Lamp Enabled: No (USB2+H05261)
Correct for Detector Non-linearity: No (USB2+H05261)
Correct for Stray Light: No (USB2+H05261)
Number of Pixels in Processed Spectrum: 2048
>>>>>Begin Processed Spectral Data<<<<<
365.73	138.09
365.92	138.09
366.12	138.09
366.32	51.49
366.52	79.58
366.72	93.62
366.91	67.88
367.11	32.77
367.31	18.72
367.51	0.00
367.70	0.00
367.90	44.47
368.10	7.02
368.30	30.43
368.49	0.00
368.69	37.45
368.89	0.00
369.09	21.06
369.28	0.00
369.48	72.56
369.68	0.00
369.87	67.88
370.07	25.75
370.27	117.03
370.47	128.73
370.66	315.97
370.86	299.59
371.06	313.63
371.25	367.46
371.45	283.20
371.65	386.19
371.84	325.33
372.04	358.10
372.24	327.68
372.44	334.70
372.63	386.19
372.83	428.32
373.03	332.36
373.22	400.23
373.42	484.49
373.62	435.34
373.81	362.78
374.01	388.53
374.21	491.51
374.40	451.72
374.60	510.24
374.79	428.32
374.99	423.64
375.19	479.81
375.38	496.19
375.58	442.36
375.78	505.56
375.97	416.62
376.17	540.66
376.37	547.69
376.56	437.68
376.76	505.56
376.95	407.25
377.15	533.64
377.35	528.96
377.54	461.09
377.74	381.51
377.93	531.30
378.13	447.04
378.33	440.02
378.52	547.69
378.72	521.94
378.91	505.56
379.11	552.37
379.31	510.24
379.50	540.66
379.70	456.40
379.89	493.85
380.09	514.92
380.28	524.28
380.48	510.24
380.68	521.94
380.87	484.49
381.07	484.49
381.26	500.87
381.46	622.58
381.65	587.47
381.85	603.86
382.04	554.71
382.24	561.73
382.43	575.77
382.63	514.92
382.83	592.16
383.02	587.47
383.22	697.48
383.41	568.75
383.61	564.07
383.80	638.97
384.00	587.47
384.19	561.73
384.39	599.18
384.58	587.47
384.78	617.90
384.97	620.24
385.17	566.41
385.36	617.90
385.56	622.58
385.75	648.33
385.95	601.52
386.14	634.29
386.34	650.67
386.53	664.71
386.72	601.52
386.92	713.86
387.11	685.78
387.31	634.29
387.50	692.80
387.70	653.01
387.89	671.73
388.09	667.05
388.28	741.95
388.48	613.22
388.67	732.59
388.86	671.73
389.06	718.54
389.25	709.18
389.45	739.61
389.64	713.86
389.84	711.52
390.03	767.70
390.22	716.20
390.42	711.52
390.61	760.67
390.81	676.41
391.00	741.95
391.19	842.59
391.39	774.72
391.58	723.23
391.78	772.38
391.97	770.04
392.16	800.46
392.36	814.51
392.55	952.60
392.75	791.10
392.94	779.40
393.13	809.83
393.33	816.85
393.52	765.36
393.71	926.85
393.91	863.66
394.10	830.89
394.29	910.47
394.49	858.98
394.68	908.13
394.88	868.34
395.07	919.83
395.26	950.26
395.46	882.38
395.65	905.79
395.84	856.64
396.04	931.53
396.23	903.45
396.42	994.73
396.62	1043.88
396.81	938.55
397.00	863.66
397.19	1018.13
397.39	968.98
397.58	1020.47
397.77	994.73
397.97	994.73
398.16	961.96
398.35	961.96
398.55	1032.18
398.74	1027.50
398.93	1125.80
399.12	1020.47
399.32	1130.48
399.51	1046.22
399.70	1123.46
399.90	1015.79
400.09	1090.69
400.28	1107.07
400.47	1144.52
400.67	1228.78
400.86	1181.97
401.05	1053.24
401.24	1181.97
401.44	1172.61
401.63	1214.74
401.82	1226.44
402.01	1198.35
402.21	1165.59
402.40	1167.93
402.59	1228.78
402.78	1245.16
402.97	1249.85
403.17	1284.95
403.36	1343.47
403.55	1432.41
403.74	1268.57
403.93	1233.46
404.13	1392.62
404.32	1369.21
404.51	1338.79
404.70	1416.02
404.89	1364.53
405.09	1448.79
405.28	1432.41
405.47	1437.09
405.66	1444.11
405.85	1380.92
406.05	1432.41
406.24	1467.52
406.43	1488.58
406.62	1523.69
406.81	1535.39
407.00	1479.22
407.20	1568.16
407.39	1558.80
407.58	1554.12
407.77	1544.75
407.96	1621.99
408.15	1729.66
408.34	1678.16
408.54	1603.27
408.73	1572.84
408.92	1643.06
409.11	1685.19
409.30	1582.20
409.49	1631.35
409.68	1673.48
409.87	1748.38
410.07	1877.11
410.26	1743.70
410.45	1788.17
410.64	1849.02
410.83	1788.17
411.02	1905.20
411.21	1900.52
411.40	1809.23
411.59	1816.26
411.78	1825.62
411.98	1816.26
412.17	1907.54
412.36	1994.14
412.55	1996.48
412.74	2043.29
412.93	2052.65
413.12	2050.31
413.31	2129.89
413.50	2066.69
413.69	2181.38
413.88	2113.50
414.07	2263.30
414.26	2207.13
414.45	2214.15
414.64	2190.74
414.83	2230.53
415.02	2284.36
415.22	2305.43
415.41	2272.66
415.60	2279.68
415.79	2335.85
415.98	2382.67
416.17	2424.80
416.36	2434.16
416.55	2392.03
416.74	2562.89
416.93	2459.90
417.12	2434.16
417.31	2525.44
417.50	2518.42
417.69	2612.04
417.88	2609.70
418.07	2588.63
418.26	2478.63
418.45	2630.76
418.64	2745.45
418.83	2612.04
419.02	2649.49
419.21	2679.91
419.39	2782.90
419.58	2658.85
419.77	2614.38
419.96	2682.25
420.15	2689.28
420.34	2708.00
420.53	2738.43
420.72	2904.60
420.91	2792.26
421.10	2792.26
421.29	2918.65
421.48	2839.07
421.67	2942.05
421.86	2782.90
422.05	2949.08
422.24	2827.37
422.43	2909.29
422.61	2869.50
422.80	2991.20
422.99	3059.08
423.18	2899.92
423.37	3054.40
423.56	2972.48
423.75	3028.65
423.94	2932.69
424.13	2857.79
424.32	2827.37
424.50	2944.39
424.69	2935.03
424.88	3002.91
425.07	2932.69
425.26	2867.16
425.45	3014.61
425.64	3070.78
425.83	2895.24
426.01	3019.29
426.20	3098.87
426.39	2986.52
426.58	2965.46
426.77	3028.65
426.96	3077.80
427.15	2995.89
427.33	3033.33
427.52	3056.74
427.71	3075.46
427.90	3098.87
428.09	3056.74
428.28	3138.66
428.46	3166.74
428.65	3211.22
428.84	3236.96
429.03	3220.58
429.22	3169.09
429.40	3089.51
429.59	3155.04
429.78	3066.10
429.97	2923.33
430.16	3030.99
430.34	3009.93
430.53	3094.19
430.72	3112.91
430.91	3105.89
431.10	3101.21
431.28	3218.24
431.47	3105.89
431.66	3178.45
431.85	3030.99
432.03	3379.73
432.22	3506.12
432.41	3260.37
432.60	3356.33
432.79	3281.43
432.97	3496.76
433.16	3410.16
433.35	3405.48
433.54	3356.33
433.72	3691.02
433.91	3419.52
434.10	3515.48
434.28	3651.24
434.47	3578.68
434.66	3646.55
434.85	3620.81
435.03	3719.11
435.22	3843.16
435.41	4119.34
435.59	3962.53
435.78	3836.14
435.97	3864.22
436.16	3796.35
436.34	3871.25
436.53	3824.44
436.72	3941.46
436.90	4044.45
437.09	3929.76
437.28	3880.61
437.46	4004.66
437.65	3896.99
437.84	4131.05
438.02	3988.27
438.21	4105.30
438.40	3955.51
438.58	4212.96
438.77	4222.33
438.96	4208.28
439.14	4077.21
439.33	4294.88
439.52	4196.58
439.70	4252.75
439.89	4414.25
440.08	4344.03
440.26	4348.72
440.45	4367.44
440.63	4528.94
440.82	4542.98
441.01	4542.98
441.19	4664.69
441.38	4652.98
441.57	4603.83
441.75	4681.07
441.94	4971.30
442.12	4718.52
442.31	4903.42
442.50	4779.37
442.68	4737.24
442.87	4917.47
443.05	4903.42
443.24	5015.77
443.43	4880.02
443.61	5048.54
443.80	5081.30
443.98	4844.91
444.17	4800.44
444.35	4952.57
444.54	5071.94
444.73	5046.20
444.91	5284.93
445.10	4978.32
445.28	5081.30
445.47	4908.10
445.65	4964.28
445.84	5226.42
446.02	4945.55
446.21	5020.45
446.39	4851.93
446.58	5001.72
446.77	5064.92
446.95	5067.26
447.14	5043.85
447.32	5287.27
447.51	5032.15
447.69	5081.30
447.88	5114.07
448.06	5207.69
448.25	5111.73
448.43	5210.03
448.62	5153.86
448.80	5181.95
448.99	5184.29
449.17	5221.74
449.36	5144.50
449.54	5305.99
449.73	5228.76
449.91	5401.96
450.10	5268.55
450.28	5416.00
450.46	5399.62
450.65	5446.43
450.83	5394.93
451.02	5294.29
451.20	5446.43
451.39	5313.02
451.57	5308.34
451.76	5420.68
451.94	5406.64
452.13	5474.51
452.31	5462.81
452.49	5378.55
452.68	5488.56
452.86	5661.76
453.05	5526.00
453.23	5682.82
453.42	5568.13
453.60	5420.68
453.78	5481.53
453.97	5535.37
454.15	5596.22
454.34	5612.60
454.52	5628.99
454.70	5710.91
454.89	5621.97
455.07	5776.44
455.26	5795.17
455.44	5935.60
455.62	5790.49
455.81	5867.72
455.99	5841.98
456.17	5785.80
456.36	5919.21
456.54	6115.82
456.73	5959.00
456.91	5888.79
457.09	5996.45
457.28	6012.84
457.46	5966.03
457.64	5947.30
457.83	6104.12
458.01	6012.84
458.19	6179.01
458.38	6197.74
458.56	6132.20
458.74	6087.73
458.93	6150.93
459.11	6160.29
459.29	6209.44
459.48	6115.82
459.66	6174.33
459.84	6345.19
460.03	6370.94
460.21	6331.15
460.39	6333.49
460.57	6363.92
460.76	6370.94
460.94	6387.32
461.12	6406.05
461.31	6443.49
461.49	6443.49
461.67	6389.66
461.85	6389.66
462.04	6436.47
462.22	6532.44
462.40	6682.23
462.59	6422.43
462.77	6607.33
462.95	6768.83
463.13	6511.37
463.32	6644.78
463.50	6787.55
463.68	6918.62
463.86	6623.72
464.05	6677.55
464.23	6607.33
464.41	6729.04
464.59	6541.80
464.78	6775.85
464.96	6864.79
465.14	6920.96
465.32	6764.15
465.50	6942.03
465.69	6967.77
465.87	6846.07
466.05	6965.43
466.23	6967.77
466.41	6930.33
466.60	7077.78
466.78	6977.14
466.96	6977.14
467.14	7052.03
467.32	7059.06
467.51	7061.40
467.69	6995.86
467.87	7077.78
468.05	6956.07
468.23	7052.03
468.41	6979.48
468.60	7047.35
468.78	7082.46
468.96	7019.27
469.14	7236.94
469.32	7288.43
469.50	7164.38
469.69	7148.00
469.87	7297.79
470.05	7267.36
470.23	7311.83
470.41	7405.46
470.59	7332.90
470.77	7145.66
470.95	7351.62
471.14	7435.88
471.32	7173.74
471.50	7335.24
471.68	7339.92
471.86	7506.10
472.04	7611.42
472.22	7620.78
472.40	7281.41
472.58	7576.31
472.77	7611.42
472.95	7815.05
473.13	7854.84
473.31	7522.48
473.49	7478.01
473.67	7527.16
473.85	7742.49
474.03	7903.99
474.21	7969.52
474.39	8084.21
474.57	8084.21
474.75	8114.64
474.93	8086.55
475.12	8088.89
475.30	8360.39
475.48	8526.57
475.66	8449.33
475.84	8292.52
476.02	8418.91
476.20	8521.89
476.38	8737.22
476.56	8891.70
476.74	8905.74
476.92	8807.44
477.10	8744.24
477.28	8840.20
477.46	8865.95
477.64	8837.86
477.82	9118.73
478.00	9235.75
478.18	9401.93
478.36	9563.43
478.54	9500.23
478.72	9542.36
478.90	9785.78
479.08	9713.22
479.26	9778.76
479.44	9643.01
479.62	10106.43
479.80	9980.04
479.98	10080.69
480.16	10281.97
480.34	10228.14
480.52	10331.12
480.70	10417.72
480.88	10342.83
481.06	10588.58
481.24	10546.45
481.41	10705.61
481.59	10918.60
481.77	11044.99
481.95	11190.10
482.13	11131.59
482.31	11213.51
482.49	11552.88
482.67	11475.65
482.85	11803.32
483.03	11737.79
483.21	11843.11
483.39	11929.71
483.57	12093.55
483.74	12311.22
483.92	12468.03
484.10	12313.56
484.28	12500.80
484.46	12676.34
484.64	12828.48
484.82	12762.94
485.00	12737.20
485.18	13312.97
485.35	12877.63
485.53	13144.45
485.71	13217.01
485.89	13521.27
486.07	13764.69
486.25	13713.20
486.43	13724.90
486.61	14026.83
486.78	14209.39
486.96	14101.73
487.14	14382.59
487.32	14211.73
487.50	14485.58
487.68	14696.22
487.85	14785.16
488.03	15339.87
488.21	15159.65
488.39	15171.35
488.57	15403.07
488.75	15571.58
488.92	15836.06
489.10	15681.59
489.28	15534.14
489.46	16049.05
489.64	16032.67
489.81	16098.20
489.99	16374.39
490.17	16116.93
490.35	16500.78
490.53	16210.55
490.70	16638.87
490.88	16664.61
491.06	16720.79
491.24	16589.72
491.41	16889.31
491.59	17233.36
491.77	17291.88
491.95	17624.23
492.13	17322.30
492.30	17659.34
492.48	17469.76
492.66	17570.40
492.84	18078.30
493.01	17881.69
493.19	17975.31
493.37	18200.01
493.54	18061.91
493.72	18370.86
493.90	18202.35
494.08	18642.37
494.25	18789.82
494.43	18754.71
494.61	18799.18
494.79	18773.44
494.96	18609.60
495.14	19147.92
495.32	19330.48
495.49	19243.88
495.67	19005.15
495.85	19264.95
496.02	19435.81
496.20	19552.84
496.38	19583.26
496.55	19623.05
496.73	20163.72
496.91	19817.32
497.09	19768.16
497.26	20060.73
497.44	19974.13
497.62	20016.26
497.79	20470.33
497.97	20402.45
498.14	20577.99
498.32	20400.11
498.50	20262.02
498.67	20500.75
498.85	20645.87
499.03	20915.03
499.20	20517.14
499.38	20900.98
499.56	20645.87
499.73	20999.29
499.91	20840.13
500.08	21142.06
500.26	20931.41
500.44	21104.61
500.61	21179.51
500.79	20947.79
500.97	21270.79
501.14	21706.13
501.32	21280.15
501.49	21425.26
501.67	21371.43
501.84	21352.71
502.02	21483.78
502.20	21242.70
502.37	21673.36
502.55	21411.22
502.72	21467.39
502.90	21769.32
503.07	21436.97
503.25	22045.51
503.43	21614.85
503.60	22026.78
503.78	21731.87
503.95	21935.50
504.13	21865.28
504.30	21886.35
504.48	21862.94
504.65	21949.54
504.83	22089.98
505.01	21982.31
505.18	21844.22
505.36	22389.56
505.53	21937.84
505.71	22342.75
505.88	22331.05
506.06	22122.74
506.23	22270.20
506.41	22050.19
506.58	22333.39
506.76	22008.06
506.93	22279.56
507.11	22045.51
507.28	22675.11
507.46	22272.54
507.63	22242.11
507.81	22349.78
507.98	22038.48
508.16	22307.65
508.33	22436.38
508.50	22457.44
508.68	22300.62
508.85	22295.94
509.03	22054.87
509.20	22059.55
509.38	21970.61
509.55	22216.36
509.73	21876.99
509.90	21977.63
510.08	22118.06
510.25	21855.92
510.42	21839.54
510.60	21804.43
510.77	21664.00
510.95	21727.19
511.12	21455.69
511.30	21514.20
511.47	21832.52
511.64	21551.65
511.82	21696.77
511.99	21350.37
512.17	21472.07
512.34	21401.86
512.51	21813.79
512.69	21804.43
512.86	21511.86
513.04	21956.57
513.21	21778.68
513.38	21532.93
513.56	21811.45
513.73	21605.49
513.90	22073.59
514.08	21886.35
514.25	22160.19
514.43	21977.63
514.60	22089.98
514.77	22139.13
514.95	22595.53
515.12	22487.87
515.29	22602.55
515.47	22672.77
515.64	23234.50
515.81	22902.14
515.99	23040.23
516.16	23496.64
516.33	23480.25
516.51	23456.85
516.68	22995.76
516.85	23676.86
517.03	23428.76
517.20	23648.77
517.37	23964.75
517.54	23955.38
517.72	23718.99
517.89	23807.93
518.06	24381.36
518.24	24453.92
518.41	24414.13
518.58	24547.54
518.75	24566.26
518.93	24519.45
519.10	24486.68
519.27	24781.59
519.45	24634.14
519.62	24636.48
519.79	24826.06
519.96	24620.10
520.14	24819.04
520.31	24809.68
520.48	24734.78
520.65	24748.82
520.83	24484.34
521.00	24835.42
521.17	24819.04
521.34	24538.18
521.52	24313.48
521.69	23985.81
521.86	24205.82
522.03	24261.99
522.20	24353.27
522.38	24004.53
522.55	23714.31
522.72	24020.92
522.89	23513.02
523.07	23625.37
523.24	23119.81
523.41	23110.45
523.58	22768.73
523.75	23222.80
523.92	22845.97
524.10	22682.13
524.27	22534.68
524.44	22710.22
524.61	22309.99
524.78	22445.74
524.96	22265.52
525.13	22328.71
525.30	22499.57
525.47	22632.98
525.64	22691.49
525.81	22314.67
525.98	22810.86
526.16	22373.18
526.33	22464.46
526.50	22691.49
526.67	22349.78
526.84	22373.18
527.01	22085.30
527.18	22539.36
527.36	22366.16
527.53	22061.89
527.70	22356.80
527.87	22614.26
528.04	22307.65
528.21	22148.49
528.38	22225.73
528.55	22267.86
528.72	22157.85
528.89	22115.72
529.07	22019.76
529.24	22368.50
529.41	22630.64
529.58	22792.14
529.75	22558.08
529.92	22384.88
530.09	22799.16
530.26	22530.00
530.43	22721.92
530.60	22663.41
530.77	22785.12
530.94	22972.36
531.11	23094.07
531.28	23339.82
531.46	23704.95
531.63	23288.33
531.80	23634.73
531.97	23875.80
532.14	24159.01
532.31	23880.49
532.48	24357.96
532.65	24357.96
532.82	24301.78
532.99	24453.92
533.16	24999.26
533.33	25055.43
533.50	25022.67
533.67	25680.36
533.84	25593.76
534.01	25429.92
534.18	26111.02
534.35	26841.26
534.52	26614.23
534.69	26930.20
534.86	27292.99
535.03	27103.40
535.20	27740.03
535.37	27807.90
535.54	28208.14
535.71	28231.54
535.88	28210.48
536.05	28744.12
536.22	29060.09
536.38	29048.39
536.55	29078.82
536.72	29359.68
536.89	29727.14
537.06	29799.70
537.23	30237.38
537.40	30307.60
537.57	30127.38
537.74	30675.06
537.91	30913.80
538.08	31229.77
538.25	31534.04
538.42	31669.79
538.59	32037.25
538.75	31775.11
538.92	31896.82
539.09	32416.42
539.26	32432.80
539.43	32479.61
539.60	32821.33
539.77	32840.06
539.94	33415.83
540.11	33638.18
540.28	33570.30
540.44	34017.35
540.61	34153.10
540.78	34258.42
540.95	33795.00
541.12	34433.96
541.29	34473.75
541.46	34167.14
541.62	34998.03
541.79	35072.93
541.96	35096.33
542.13	35314.00
542.30	35351.45
542.47	35323.36
542.63	35552.74
542.80	35449.75
542.97	36388.31
543.14	36336.82
543.31	36449.16
543.48	35976.37
543.64	36280.64
543.81	36776.84
543.98	36907.91
544.15	36598.96
544.32	36687.90
544.48	36823.65
544.65	36842.37
544.82	36821.31
544.99	36896.20
545.16	37404.10
545.32	37598.37
545.49	38061.79
545.66	38464.36
545.83	37771.57
546.00	37954.13
546.16	37614.75
546.33	37720.07
546.50	37825.40
546.67	38132.01
546.83	37736.46
547.00	37851.14
547.17	37694.33
547.34	37715.39
547.50	38014.98
547.67	38239.67
547.84	38398.83
548.00	38623.52
548.17	38565.01
548.34	38431.60
548.51	38511.17
548.67	38368.40
548.84	38660.97
549.01	38501.81
549.18	38071.15
549.34	38113.28
549.51	38667.99
549.68	38473.73
549.84	38169.46
550.01	38883.32
550.18	38583.73
550.34	38792.04
550.51	38380.10
550.68	38780.34
550.84	38780.34
551.01	39075.24
551.18	38895.02
551.34	39079.92
551.51	39473.13
551.68	39054.18
551.84	39199.29
552.01	39000.35
552.18	38974.60
552.34	39180.57
552.51	39171.21
552.68	39295.25
552.84	39487.18
553.01	39304.62
553.18	39402.92
553.34	39700.17
553.51	39292.91
553.67	39250.78
553.84	39541.01
554.01	39573.78
554.17	39295.25
554.34	39817.19
554.51	39419.30
554.67	39335.04
554.84	39730.59
555.00	39566.76
555.17	39367.81
555.33	39414.62
555.50	39328.02
555.67	39328.02
555.83	39789.11
556.00	39447.39
556.16	40030.18
556.33	39669.74
556.50	40121.46
556.66	39735.27
556.83	39559.73
556.99	40100.40
557.16	39756.34
557.32	40191.68
557.49	39957.63
557.65	39681.44
557.82	39835.92
557.98	39814.85
558.15	39920.18
558.32	39878.05
558.48	39175.89
558.65	39775.06
558.81	39711.87
558.98	39578.46
559.14	39868.69
559.31	39800.81
559.47	39924.86
559.64	40343.81
559.80	40076.99
559.97	39997.41
560.13	39459.09
560.30	39438.03
560.46	39990.39
560.63	39955.29
560.79	39875.71
560.96	40020.82
561.12	39840.60
561.29	39749.32
561.45	39555.05
561.61	39730.59
561.78	40271.26
561.94	39505.90
562.11	39655.70
562.27	39695.49
562.44	39414.62
562.60	39271.85
562.77	39842.94
562.93	39419.30
563.10	39515.26
563.26	39241.42
563.42	39613.57
563.59	39395.90
563.75	38796.72
563.92	38857.57
564.08	38663.31
564.24	38653.95
564.41	38616.50
564.57	38293.50
564.74	37610.07
564.90	37867.53
565.07	37869.87
565.23	37736.46
565.39	37113.87
565.56	37097.49
565.72	36809.61
565.88	36346.18
566.05	36510.02
566.21	35608.91
566.38	35587.85
566.54	35534.01
566.70	35152.51
566.87	34328.64
567.03	33783.29
567.19	33591.37
567.36	32222.16
567.52	32369.61
567.68	31927.25
567.85	30888.05
568.01	30513.56
568.17	29638.20
568.34	28709.01
568.50	27859.40
568.66	26696.15
568.83	26155.49
568.99	24940.75
569.15	24739.46
569.32	23707.29
569.48	22668.09
569.64	22195.30
569.81	21282.49
569.97	20273.72
570.13	19604.33
570.30	18637.69
570.46	18125.11
570.62	17666.36
570.78	16929.09
570.95	16276.09
571.11	15772.87
571.27	15538.82
571.43	15129.22
571.60	14853.04
571.76	14164.92
571.92	14057.26
572.09	13617.24
572.25	13888.74
572.41	13806.82
572.57	13429.99
572.74	13586.81
572.90	13336.37
573.06	13153.81
573.22	13275.52
573.38	13427.65
573.55	13460.42
573.71	13544.68
573.87	13224.03
574.03	13303.60
574.20	13586.81
574.36	13708.52
574.52	13703.84
574.68	13635.96
574.84	13731.92
575.01	13682.77
575.17	13710.86
575.33	13474.46
575.49	13696.82
575.65	13795.12
575.82	13696.82
575.98	13652.34
576.14	13591.49
576.30	13855.97
576.46	13991.72
576.62	14012.79
576.79	13795.12
576.95	13860.65
577.11	14101.73
577.27	13973.00
577.43	13940.23
577.59	14181.31
577.75	14452.81
577.92	14298.33
578.08	14649.41
578.24	14539.41
578.40	14696.22
578.56	14609.62
578.72	14712.61
578.88	14970.07
579.04	14719.63
579.21	14951.34
579.37	14949.00
579.53	15234.55
579.69	14780.48
579.85	15016.88
580.01	15117.52
580.17	14616.65
580.33	15012.20
580.49	14626.01
580.65	14436.42
580.82	14303.01
580.98	13865.33
581.14	13799.80
581.30	13675.75
581.46	13404.25
581.62	13242.75
581.78	13090.62
581.94	12519.53
582.10	12226.96
582.26	12205.89
582.42	11763.53
582.58	11295.43
582.74	11126.91
582.90	10899.87
583.06	10810.93
583.22	10473.90
583.38	10087.71
583.54	9982.38
583.70	9968.34
583.86	9703.86
584.02	9427.68
584.18	9610.24
584.34	9390.23
584.50	9057.87
584.66	9165.54
584.82	9025.11
584.98	9114.05
585.14	9235.75
585.30	9341.08
585.46	9158.52
585.62	9282.56
585.78	9289.59
585.94	9420.66
586.10	9383.21
586.26	9483.85
586.42	9788.12
586.58	10160.27
586.74	10106.43
586.90	10106.43
587.06	10534.75
587.22	10366.23
587.38	10752.42
587.54	10930.30
587.70	10951.37
587.86	11021.58
588.02	11342.24
588.18	11412.45
588.34	11698.00
588.49	11864.18
588.65	12201.21
588.81	12379.09
588.97	12559.31
589.13	12615.49
589.29	12732.51
589.45	13107.00
589.61	13348.08
589.77	13373.82
589.93	13582.13
590.08	13366.80
590.24	13783.41
590.40	14120.45
590.56	14188.33
590.72	14394.29
590.88	14375.57
591.04	14457.49
591.20	14462.17
591.35	14941.98
591.51	14909.21
591.67	15023.90
591.83	15281.36
591.99	15688.61
592.15	15625.42
592.31	15772.87
592.46	16465.67
592.62	16217.57
592.78	16662.27
592.94	17062.51
593.10	17001.65
593.26	17486.14
593.41	17921.48
593.57	18026.81
593.73	18129.79
593.89	18555.77
594.05	18822.59
594.20	19187.71
594.36	19454.53
594.52	19796.25
594.68	20034.99
594.84	19836.04
594.99	20685.65
595.15	20919.71
595.31	21357.39
595.47	21612.51
595.62	21764.64
595.78	21895.71
595.94	22375.52
596.10	22864.69
596.25	22665.75
596.41	23201.73
596.57	22998.10
596.73	23580.90
596.88	23812.61
597.04	24636.48
597.20	24479.66
597.36	24430.51
597.51	24898.62
597.67	24601.37
597.83	25001.60
597.99	25317.57
598.14	26050.16
598.30	25907.39
598.46	26281.88
598.61	26356.77
598.77	26228.04
598.93	26616.57
599.09	26508.91
599.24	27082.34
599.40	27152.55
599.56	27445.12
599.71	27850.03
599.87	28041.96
600.03	27889.82
600.18	28407.08
600.34	28662.20
600.50	28657.52
600.65	29132.65
600.81	28648.16
600.97	29149.03
601.12	29542.24
601.28	29832.47
601.44	29883.96
601.59	30471.43
601.75	30258.45
601.91	31016.78
602.06	31028.48
602.22	31262.54
602.37	31096.36
602.53	31475.52
602.69	31564.46
602.84	31566.81
603.00	31707.24
603.16	32020.87
603.31	31924.91
603.47	32299.39
603.62	32620.05
603.78	32898.57
603.94	33125.60
604.09	33118.58
604.25	33525.83
604.40	33509.45
604.56	33464.98
604.71	33600.73
604.87	33972.88
605.03	33802.02
605.18	33689.67
605.34	33713.08
605.49	34277.15
605.65	34515.88
605.80	34431.62
605.96	34979.31
606.12	34944.20
606.27	35498.91
606.43	34789.72
606.58	35140.80
606.74	34972.28
606.89	35253.15
607.05	35180.59
607.20	35484.86
607.36	35508.27
607.51	35814.88
607.67	35220.38
607.82	35611.25
607.98	35583.16
608.13	36238.51
608.29	35625.29
608.44	35751.68
608.60	35723.60
608.75	36175.32
608.91	35885.09
609.06	36112.13
609.22	36210.43
609.37	36051.27
609.53	36624.70
609.68	36552.15
609.84	36933.65
609.99	37294.10
610.15	37223.88
610.30	37888.59
610.46	38167.12
610.61	37794.97
610.76	38148.39
610.92	38176.48
611.07	38710.12
611.23	38820.13
611.38	38876.30
611.54	39021.41
611.69	39033.11
611.84	38932.47
612.00	39463.77
612.15	38944.17
612.31	39105.67
612.46	39466.11
612.62	39278.87
612.77	39454.41
612.92	39924.86
613.08	39746.98
613.23	39948.26
613.39	39971.67
613.54	40203.38
613.69	40299.34
613.85	40512.33
614.00	40835.33
614.15	40715.96
614.31	40678.51
614.46	40744.05
614.62	41099.81
614.77	41071.72
614.92	40863.41
615.08	41130.23
615.23	41574.94
615.38	41202.79
615.54	40823.62
615.69	41109.17
615.84	41394.71
616.00	41546.85
616.15	41720.05
616.30	41265.99
616.46	41675.58
616.61	41345.56
616.76	41509.40
616.92	41448.55
617.07	41525.78
617.22	41675.58
617.37	41432.16
617.53	41661.54
617.68	41607.70
617.83	41198.11
617.99	41462.59
618.14	42171.77
618.29	42017.30
618.45	41443.87
618.60	41235.56
618.75	41322.16
618.90	41624.09
619.06	41464.93
619.21	41153.64
619.36	42096.88
619.51	41652.17
619.67	41783.24
619.82	41745.80
619.97	41331.52
620.12	41322.16
620.28	41097.47
620.43	40935.97
620.58	40797.88
620.73	41268.33
620.89	41352.58
621.04	40889.16
621.19	40664.47
621.34	40734.68
621.49	40966.40
621.65	40701.92
621.80	41024.91
621.95	41233.22
622.10	40900.86
622.25	40919.59
622.41	40825.96
622.56	40582.55
622.71	40542.76
622.86	40591.91
623.01	40217.43
623.16	40542.76
623.32	40367.22
623.47	40568.51
623.62	40959.38
623.77	40793.20
623.92	40662.13
624.07	40383.60
624.23	40308.71
624.38	40079.33
624.53	40187.00
624.68	40458.50
624.83	40072.31
624.98	39849.96
625.13	40116.78
625.29	40416.37
625.44	40245.51
625.59	40196.36
625.74	40149.55
625.89	40233.81
626.04	39723.57
626.19	39632.29
626.34	40215.08
626.49	39676.76
626.65	39299.94
626.80	39866.34
626.95	39765.70
627.10	39356.11
627.25	39643.99
627.40	39676.76
627.55	39445.05
627.70	39351.43
627.85	39756.34
628.00	39807.83
628.15	39271.85
628.30	39573.78
628.45	39276.53
628.60	39119.71
628.76	39421.64
628.91	39112.69
629.06	38871.62
629.21	39817.19
629.36	39548.03
629.51	39222.70
629.66	39332.70
629.81	39173.55
629.96	39386.54
630.11	39463.77
630.26	39641.65
630.41	39473.13
630.56	39264.83
630.71	39030.77
630.86	38873.96
631.01	38759.27
631.16	39084.61
631.31	38937.15
631.46	39028.43
631.61	39370.15
631.76	39412.28
631.91	39351.43
632.06	39290.57
632.21	39335.04
632.36	39533.99
632.51	38890.34
632.66	38859.91
632.81	38775.66
632.96	39021.41
633.10	39367.81
633.25	39089.29
633.40	38518.20
633.55	38993.32
633.70	38808.42
633.85	38555.64
634.00	39152.48
634.15	38869.28
634.30	38859.91
634.45	39021.41
634.60	39044.82
634.75	38899.70
634.90	38511.17
635.05	39082.27
635.19	38628.20
635.34	39384.19
635.49	38951.20
635.64	38672.67
635.79	39063.54
635.94	38529.90
636.09	39122.05
636.24	38553.30
636.39	38719.48
636.53	38780.34
636.68	38770.97
636.83	38656.29
636.98	38731.18
637.13	37935.40
637.28	38506.49
637.43	38450.32
637.57	38148.39
637.72	38220.95
637.87	38546.28
638.02	38398.83
638.17	38745.23
638.32	38316.91
638.46	38600.12
638.61	38223.29
638.76	38316.91
638.91	38333.29
639.06	38450.32
639.20	38328.61
639.35	38157.75
639.50	38199.88
639.65	38249.03
639.80	38256.06
639.94	38614.16
640.09	38139.03
640.24	37855.82
640.39	38216.27
640.54	37867.53
640.68	37844.12
640.83	37766.88
640.98	37785.61
641.13	37422.83
641.27	37689.65
641.42	37619.43
641.57	37642.84
641.72	37750.50
641.86	37553.90
642.01	37556.24
642.16	37441.55
642.31	37919.02
642.45	38129.67
642.60	37839.44
642.75	38052.43
642.90	37909.66
643.04	37855.82
643.19	37530.49
643.34	37982.21
643.48	37249.63
643.63	37263.67
643.78	37256.65
643.93	37429.85
644.07	37687.31
644.22	37055.36
644.37	37366.65
644.51	37572.62
644.66	37425.17
644.81	37230.90
644.95	37656.88
645.10	37673.26
645.25	37926.04
645.39	37457.93
645.54	37448.57
645.69	37867.53
645.83	37511.77
645.98	37244.94
646.13	37546.87
646.27	37308.14
646.42	36907.91
646.57	37216.86
646.71	37474.32
646.86	37345.59
647.00	37006.21
647.15	37078.77
647.30	37258.99
647.44	37415.80
647.59	36926.63
647.74	36964.08
647.88	37301.12
648.03	36720.66
648.17	36779.18
648.32	36596.62
648.47	37287.07
648.61	36978.12
648.76	36896.20
648.90	36680.88
649.05	37043.66
649.20	36912.59
649.34	36788.54
649.49	37003.87
649.63	37116.22
649.78	37010.89
649.92	36851.73
650.07	37046.00
650.21	36575.55
650.36	36725.35
650.51	36156.60
650.65	36631.72
650.80	36692.58
650.94	36357.88
651.09	36196.38
651.23	36772.16
651.38	36591.94
651.52	36065.31
651.67	36500.65
651.81	36708.96
651.96	36266.60
652.10	36250.22
652.25	35948.29
652.39	36306.39
652.54	36367.24
652.68	35864.03
652.83	36098.08
652.97	36542.78
653.12	36449.16
653.26	36163.62
653.41	35526.99
653.55	35770.41
653.70	36336.82
653.84	36170.64
653.99	35882.75
654.13	36259.58
654.27	35957.65
654.42	36240.86
654.56	36142.55
654.71	35665.08
654.85	35686.15
655.00	35562.10
655.14	35508.27
655.29	36067.66
655.43	35842.96
655.57	35498.91
655.72	35482.52
655.86	35679.13
656.01	35180.59
656.15	35967.01
656.30	35646.36
656.44	35583.16
656.58	35468.48
656.73	35337.41
656.87	35505.93
657.01	35534.01
657.16	35548.06
657.30	35449.75
657.45	35297.62
657.59	35545.72
657.73	34944.20
657.88	35309.32
658.02	35658.06
658.16	35400.60
658.31	35597.21
658.45	35344.43
658.60	35290.60
658.74	35384.22
658.88	34794.40
659.03	34448.00
659.17	34885.68
659.31	34738.23
659.46	34354.38
659.60	34649.29
659.74	34466.73
659.89	34848.24
660.03	34377.79
660.17	34583.76
660.32	34637.59
660.46	34663.33
660.60	34548.65
660.74	34838.87
660.89	34754.61
661.03	33968.19
661.17	34089.90
661.32	34277.15
661.46	34164.80
661.60	34143.74
661.74	34192.89
661.89	34101.61
662.03	34199.91
662.17	33996.28
662.31	33715.42
662.46	33914.36
662.60	34127.35
662.74	33528.17
662.88	33963.51
663.03	33551.58
663.17	33989.26
663.31	33509.45
663.45	33897.98
663.60	33516.47
663.74	33490.73
663.88	33572.64
664.02	33603.07
664.17	33500.09
664.31	33397.10
664.45	33130.28
664.59	33338.59
664.73	33376.04
664.88	33434.55
665.02	33029.64
665.16	33572.64
665.30	33113.90
665.44	32957.08
665.59	32835.38
665.73	32627.07
665.87	32500.68
666.01	32393.01
666.15	32510.04
666.29	32098.11
666.44	32285.35
666.58	32074.70
666.72	31960.02
666.86	32355.57
667.00	32016.19
667.14	32332.16
667.28	32659.84
667.43	32175.34
667.57	32467.91
667.71	32561.53
667.85	31840.65
667.99	31819.58
668.13	31749.37
668.27	31742.35
668.41	31927.25
668.56	31227.43
668.70	31723.62
668.84	31611.28
668.98	31131.47
669.12	31346.79
669.26	31433.39
669.40	31648.72
669.54	31379.56
669.68	31040.18
669.82	31328.07
669.96	30946.56
670.10	31098.70
670.25	31077.63
670.39	30766.34
670.53	30707.83
670.67	30192.91
670.81	30642.29
670.95	30637.61
671.09	30457.39
671.23	30466.75
671.37	30590.80
671.51	30799.11
671.65	30649.32
671.79	30352.07
671.93	29982.26
672.07	30099.29
672.21	30101.63
672.35	30223.34
672.49	29818.42
672.63	30263.13
672.77	29619.48
672.91	29675.65
673.05	29535.22
673.19	29401.81
673.33	29298.83
673.47	29476.71
673.61	29427.56
673.75	28996.90
673.89	28765.18
674.03	29198.18
674.17	29198.18
674.31	29319.89
674.45	29111.58
674.59	29078.82
674.73	29099.88
674.87	29209.89
675.01	28704.33
675.15	28486.66
675.29	28697.31
675.43	28311.12
675.56	28353.25
675.70	28292.40
675.84	28184.73
675.98	27590.24
676.12	28311.12
676.26	28030.26
676.40	27899.19
676.54	27885.14
676.68	27835.99
676.82	27620.66
676.96	27648.75
677.10	27807.90
677.23	27147.87
677.37	27236.81
677.51	27115.11
677.65	26979.36
677.79	26796.79
677.93	26590.83
678.07	26710.19
678.21	26466.78
678.34	26728.92
678.48	26445.71
678.62	26052.50
678.76	26405.92
678.90	25891.01
679.04	26122.72
679.18	26169.53
679.31	26066.55
679.45	25923.77
679.59	25612.48
679.73	25687.38
679.87	25607.80
680.00	25507.16
680.14	25273.10
680.28	25373.75
680.42	25127.99
680.56	25022.67
680.70	25181.82
680.83	24676.27
680.97	25036.71
681.11	24795.64
681.25	24444.56
681.39	24615.41
681.52	24624.78
681.66	24180.07
681.80	24311.14
681.94	23988.15
682.07	23981.13
682.21	24161.35
682.35	23852.40
682.49	23737.71
682.62	23620.69
682.76	23484.94
682.90	23459.19
683.04	23428.76
683.17	23197.05
683.31	22682.13
683.45	22913.84
683.59	23073.00
683.72	23262.58
683.86	22831.93
684.00	22396.59
684.13	22553.40
684.27	22401.27
684.41	22864.69
684.55	22480.85
684.68	22368.50
684.82	22359.14
684.96	22211.68
685.09	22178.92
685.23	22277.22
685.37	21869.97
685.50	22015.08
685.64	21888.69
685.78	22099.34
685.91	21853.58
686.05	21977.63
686.19	21736.56
686.32	21568.04
686.46	21680.38
686.60	21504.84
686.73	21848.90
686.87	22125.08
687.01	21788.05
687.14	21556.33
687.28	21553.99
687.42	21256.75
687.55	21184.19
687.69	21514.20
687.82	21128.02
687.96	21216.96
688.10	20891.62
688.23	20765.23
688.37	20772.25
688.50	20556.93
688.64	20854.17
688.78	20767.57
688.91	20386.07
689.05	20526.50
689.18	20659.91
689.32	20320.53
689.46	20666.93
689.59	20362.66
689.73	20383.73
689.86	20390.75
690.00	20372.02
690.13	20360.32
690.27	20446.92
690.41	20194.14
690.54	19662.84
690.68	19927.32
690.81	20184.78
690.95	19927.32
691.08	19491.98
691.22	19878.17
691.35	19730.72
691.49	19606.67
691.62	19697.95
691.76	19569.22
691.89	19920.30
692.03	19468.58
692.16	19606.67
692.30	19419.42
692.43	19372.61
692.57	19044.94
692.70	19094.09
692.84	18911.53
692.97	19122.18
693.11	18934.93
693.24	19112.81
693.38	18494.91
693.51	18518.32
693.65	18845.99
693.78	18487.89
693.92	18750.03
694.05	18569.81
694.19	18445.76
694.32	18689.18
694.45	18370.86
694.59	18700.88
694.72	18867.06
694.86	18796.84
694.99	18551.09
695.13	17937.87
695.26	18274.90
695.39	17799.77
695.53	18284.26
695.66	17853.61
695.80	17848.93
695.93	17823.18
696.07	17530.61
696.20	17743.60
696.33	17448.69
696.47	17310.60
696.60	17680.41
696.73	17652.32
696.87	17668.70
697.00	17287.20
697.14	17525.93
697.27	17167.83
697.40	17348.05
697.54	17394.86
697.67	16947.82
697.80	16833.13
697.94	16676.32
698.07	16594.40
698.21	16592.06
698.34	16624.83
698.47	16793.34
698.61	16343.96
698.74	16491.41
698.87	16407.16
699.01	16168.42
699.14	16358.00
699.27	16334.60
699.40	16379.07
699.54	16137.99
699.67	16121.61
699.80	16067.78
699.94	15941.39
700.07	15941.39
700.20	15580.95
700.34	15939.05
700.47	15604.35
700.60	15459.24
700.73	15342.21
700.87	15379.66
701.00	15176.03
701.13	15440.51
701.26	15503.71
701.40	15552.86
701.53	15150.29
701.66	15028.58
701.79	15108.16
701.93	14977.09
702.06	14988.79
702.19	14808.57
702.32	14977.09
702.46	14923.26
702.59	14813.25
702.72	14860.06
702.85	14576.86
702.99	14679.84
703.12	14359.19
703.25	14090.02
703.38	14134.50
703.51	14370.89
703.65	14143.86
703.78	13916.83
703.91	14106.41
704.04	14207.05
704.17	14040.87
704.31	14001.08
704.44	13635.96
704.57	13902.78
704.70	13673.41
704.83	14040.87
704.96	13783.41
705.10	13713.20
705.23	13584.47
>>>>>End Processed Spectral Data<<<<<
