SpectraSuite Data File
++++++++++++++++++++++++++++++++++++
Date: Mon Sep 30 18:11:40 GMT-05:00 2013
User: stostad
Dark Spectrum Present: No
Reference Spectrum Present: No
Number of Sampled Component Spectra: 1
Spectrometers: USB2+H05261
Integration Time (usec): 100000 (USB2+H05261)
Spectra Averaged: 1 (USB2+H05261)
Boxcar Smoothing: 0 (USB2+H05261)
Correct for Electrical Dark: No (USB2+H05261)
Strobe/Lamp Enabled: No (USB2+H05261)
Correct for Detector Non-linearity: No (USB2+H05261)
Correct for Stray Light: No (USB2+H05261)
Number of Pixels in Processed Spectrum: 2048
>>>>>Begin Processed Spectral Data<<<<<
365.73	138.09
365.92	138.09
366.12	138.09
366.32	98.30
366.52	39.79
366.72	56.17
366.91	14.04
367.11	16.38
367.31	21.06
367.51	51.49
367.70	0.00
367.90	28.09
368.10	37.45
368.30	30.43
368.49	0.00
368.69	0.00
368.89	42.13
369.09	42.13
369.28	39.79
369.48	0.00
369.68	30.43
369.87	63.19
370.07	28.09
370.27	170.86
370.47	173.20
370.66	198.95
370.86	280.86
371.06	402.57
371.25	383.85
371.45	308.95
371.65	402.57
371.84	365.12
372.04	344.06
372.24	400.23
372.44	454.06
372.63	376.83
372.83	465.77
373.03	435.34
373.22	418.96
373.42	470.45
373.62	486.83
373.81	395.55
374.01	451.72
374.21	414.27
374.40	425.98
374.60	486.83
374.79	463.43
374.99	456.40
375.19	496.19
375.38	493.85
375.58	519.60
375.78	521.94
375.97	510.24
376.17	540.66
376.37	543.00
376.56	533.64
376.76	461.09
376.95	461.09
377.15	484.49
377.35	451.72
377.54	550.03
377.74	568.75
377.93	465.77
378.13	479.81
378.33	557.05
378.52	496.19
378.72	503.22
378.91	538.32
379.11	496.19
379.31	526.62
379.50	636.63
379.70	545.34
379.89	571.09
380.09	498.53
380.28	505.56
380.48	519.60
380.68	482.15
380.87	514.92
381.07	587.47
381.26	564.07
381.46	545.34
381.65	608.54
381.85	582.79
382.04	624.92
382.24	596.84
382.43	594.50
382.63	571.09
382.83	599.18
383.02	650.67
383.22	500.87
383.41	634.29
383.61	554.71
383.80	653.01
384.00	580.45
384.19	674.07
384.39	622.58
384.58	578.11
384.78	709.18
384.97	709.18
385.17	601.52
385.36	667.05
385.56	538.32
385.75	575.77
385.95	648.33
386.14	636.63
386.34	636.63
386.53	669.39
386.72	650.67
386.92	706.84
387.11	730.25
387.31	678.76
387.50	732.59
387.70	615.56
387.89	763.01
388.09	683.44
388.28	631.94
388.48	592.16
388.67	816.85
388.86	716.20
389.06	758.33
389.25	774.72
389.45	772.38
389.64	690.46
389.84	807.48
390.03	812.17
390.22	772.38
390.42	767.70
390.61	819.19
390.81	716.20
391.00	748.97
391.19	844.93
391.39	716.20
391.58	826.21
391.78	753.65
391.97	889.40
392.16	847.27
392.36	880.04
392.55	748.97
392.75	819.19
392.94	830.89
393.13	861.32
393.33	919.83
393.52	882.38
393.71	926.85
393.91	931.53
394.10	880.04
394.29	880.04
394.49	912.81
394.68	964.30
394.88	938.55
395.07	957.28
395.26	903.45
395.46	910.47
395.65	954.94
395.84	959.62
396.04	1008.77
396.23	971.32
396.42	1018.13
396.62	971.32
396.81	924.51
397.00	971.32
397.19	1081.33
397.39	1104.73
397.58	1090.69
397.77	997.07
397.97	1018.13
398.16	1053.24
398.35	1064.94
398.55	1114.10
398.74	1076.65
398.93	1153.88
399.12	1142.18
399.32	1165.59
399.51	1114.10
399.70	987.71
399.90	1104.73
400.09	1144.52
400.28	1259.21
400.47	1156.22
400.67	1214.74
400.86	1193.67
401.05	1174.95
401.24	1256.87
401.44	1247.51
401.63	1282.61
401.82	1310.70
402.01	1125.80
402.21	1181.97
402.40	1291.98
402.59	1240.48
402.78	1275.59
402.97	1289.64
403.17	1343.47
403.36	1385.60
403.55	1324.74
403.74	1502.62
403.93	1465.18
404.13	1495.60
404.32	1458.15
404.51	1469.86
404.70	1406.66
404.89	1420.71
405.09	1409.00
405.28	1467.52
405.47	1467.52
405.66	1394.96
405.85	1511.99
406.05	1469.86
406.24	1533.05
406.43	1425.39
406.62	1547.09
406.81	1549.43
407.00	1586.88
407.20	1561.14
407.39	1535.39
407.58	1621.99
407.77	1699.23
407.96	1654.76
408.15	1729.66
408.34	1717.95
408.54	1727.32
408.73	1701.57
408.92	1739.02
409.11	1689.87
409.30	1781.15
409.49	1790.51
409.68	1757.74
409.87	1769.44
410.07	1856.04
410.26	1757.74
410.45	1851.36
410.64	1844.34
410.83	1865.41
411.02	1846.68
411.21	1881.79
411.40	1893.49
411.59	1937.96
411.78	1973.07
411.98	1966.05
412.17	2036.27
412.36	2031.58
412.55	2026.90
412.74	2087.76
412.93	2092.44
413.12	2052.65
413.31	2225.85
413.50	2167.34
413.69	2242.23
413.88	2157.97
414.07	2263.30
414.26	2258.62
414.45	2314.79
414.64	2286.70
414.83	2265.64
415.02	2438.84
415.22	2429.48
415.41	2424.80
415.60	2436.50
415.79	2392.03
415.98	2478.63
416.17	2347.56
416.36	2499.69
416.55	2434.16
416.74	2532.46
416.93	2518.42
417.12	2616.72
417.31	2647.15
417.50	2485.65
417.69	2644.81
417.88	2588.63
418.07	2808.64
418.26	2670.55
418.45	2750.13
418.64	2661.19
418.83	2717.36
419.02	2698.64
419.21	2829.71
419.39	2803.96
419.58	2780.56
419.77	2796.94
419.96	2743.11
420.15	2773.53
420.34	2848.43
420.53	2906.95
420.72	2874.18
420.91	2846.09
421.10	2857.79
421.29	2963.12
421.48	2932.69
421.67	3014.61
421.86	3005.25
422.05	3042.70
422.24	2878.86
422.43	2935.03
422.61	2918.65
422.80	3155.04
422.99	3061.42
423.18	2970.14
423.37	3033.33
423.56	3159.72
423.75	2986.52
423.94	3049.72
424.13	2904.60
424.32	2925.67
424.50	3148.02
424.69	3215.90
424.88	3159.72
425.07	3066.10
425.26	3045.04
425.45	3136.32
425.64	3110.57
425.83	3166.74
426.01	3204.19
426.20	3201.85
426.39	3091.85
426.58	3082.49
426.77	3176.11
426.96	3232.28
427.15	3143.34
427.33	3176.11
427.52	3159.72
427.71	3162.06
427.90	3098.87
428.09	3229.94
428.28	3274.41
428.46	3225.26
428.65	3220.58
428.84	3192.49
429.03	3255.69
429.22	3061.42
429.40	3201.85
429.59	3255.69
429.78	2984.18
429.97	3159.72
430.16	3077.80
430.34	3187.81
430.53	3131.64
430.72	3185.47
430.91	3222.92
431.10	3148.02
431.28	3183.13
431.47	3372.71
431.66	3229.94
431.85	3243.98
432.03	3382.07
432.22	3508.46
432.41	3428.88
432.60	3538.89
432.79	3543.57
432.97	3536.55
433.16	3435.91
433.35	3651.24
433.54	3667.62
433.72	3695.71
433.91	3613.79
434.10	3665.28
434.28	3583.36
434.47	3763.58
434.66	3758.90
434.85	3803.37
435.03	3978.91
435.22	4112.32
435.41	4149.77
435.59	4156.79
435.78	3981.25
435.97	3885.29
436.16	4028.06
436.34	3871.25
436.53	3962.53
436.72	4147.43
436.90	4025.72
437.09	4154.45
437.28	4067.85
437.46	4042.11
437.65	4128.70
437.84	4098.28
438.02	4145.09
438.21	4273.82
438.40	4128.70
438.58	4177.86
438.77	4404.89
438.96	4201.26
439.14	4344.03
439.33	4491.49
439.52	4372.12
439.70	4386.16
439.89	4472.76
440.08	4484.47
440.26	4550.00
440.45	4568.73
440.63	4587.45
440.82	4718.52
441.01	4678.73
441.19	4734.90
441.38	4887.04
441.57	4755.97
441.75	4802.78
441.94	4966.62
442.12	4924.49
442.31	5181.95
442.50	5027.47
442.68	4891.72
442.87	5081.30
443.05	4973.64
443.24	5088.32
443.43	5069.60
443.61	5303.65
443.80	5317.70
443.98	5118.75
444.17	4975.98
444.35	5214.71
444.54	5219.39
444.73	5228.76
444.91	5217.05
445.10	5249.82
445.28	5203.01
445.47	5118.75
445.65	5139.82
445.84	5151.52
446.02	5350.46
446.21	5149.18
446.39	5104.71
446.58	5394.93
446.77	5275.57
446.95	5198.33
447.14	5235.78
447.32	5219.39
447.51	5240.46
447.69	5233.44
447.88	5352.81
448.06	5383.23
448.25	5404.30
448.43	5287.27
448.62	5352.81
448.80	5268.55
448.99	5329.40
449.17	5284.93
449.36	5331.74
449.54	5411.32
449.73	5458.13
449.91	5593.88
450.10	5582.18
450.28	5720.27
450.46	5605.58
450.65	5526.00
450.83	5521.32
451.02	5626.65
451.20	5724.95
451.39	5568.13
451.57	5556.43
451.76	5617.29
451.94	5579.84
452.13	5638.35
452.31	5708.57
452.49	5710.91
452.68	5724.95
452.86	5699.20
453.05	5785.80
453.23	5788.14
453.42	5762.40
453.60	5738.99
453.78	5738.99
453.97	5844.32
454.15	5893.47
454.34	5874.74
454.52	5877.09
454.70	6005.81
454.89	5888.79
455.07	5912.19
455.26	5982.41
455.44	6005.81
455.62	6012.84
455.81	5928.58
455.99	6202.42
456.17	6069.01
456.36	5877.09
456.54	6246.89
456.73	6155.61
456.91	6157.95
457.09	6317.11
457.28	6464.56
457.46	6326.47
457.64	6373.28
457.83	6242.21
458.01	6125.18
458.19	6431.79
458.38	6399.02
458.56	6436.47
458.74	6333.49
458.93	6335.83
459.11	6366.26
459.29	6438.81
459.48	6527.75
459.66	6417.75
459.84	6415.41
460.03	6640.10
460.21	6457.54
460.39	6635.42
460.57	6445.84
460.76	6487.96
460.94	6588.61
461.12	6682.23
461.31	6539.46
461.49	6621.38
461.67	6544.14
461.85	6836.70
462.04	6726.70
462.22	6827.34
462.40	6871.81
462.59	6911.60
462.77	6794.58
462.95	7002.88
463.13	6813.30
463.32	6864.79
463.50	7110.55
463.68	6853.09
463.86	6967.77
464.05	6935.01
464.23	7087.14
464.41	6991.18
464.59	6927.99
464.78	7098.84
464.96	7089.48
465.14	7012.24
465.32	7262.68
465.50	7248.64
465.69	7206.51
465.87	7145.66
466.05	7250.98
466.23	7162.04
466.41	7335.24
466.60	7220.55
466.78	6988.84
466.96	7150.34
467.14	7194.81
467.32	7304.81
467.51	7321.20
467.69	7077.78
467.87	7513.12
468.05	7372.69
468.23	7236.94
468.41	7492.05
468.60	7517.80
468.78	7489.71
468.96	7290.77
469.14	7311.83
469.32	7377.37
469.50	7431.20
469.69	7520.14
469.87	7683.98
470.05	7536.52
470.23	7590.36
470.41	7651.21
470.59	7627.81
470.77	7660.57
470.95	7836.11
471.14	7756.54
471.32	7300.13
471.50	7831.43
471.68	7782.28
471.86	7798.66
472.04	7868.88
472.22	7901.65
472.40	7641.85
472.58	7688.66
472.77	7882.92
472.95	7857.18
473.13	8175.49
473.31	7939.10
473.49	7992.93
473.67	8049.10
473.85	7885.26
474.03	8264.43
474.21	8264.43
474.39	8238.69
474.57	8395.50
474.75	8589.77
474.93	8580.40
475.12	8559.34
475.30	8655.30
475.48	8451.67
475.66	8718.50
475.84	8521.89
476.02	8910.42
476.20	8631.90
476.38	9006.38
476.56	9015.74
476.74	9036.81
476.92	8894.04
477.10	8912.76
477.28	9050.85
477.46	9298.95
477.64	9254.48
477.82	9331.72
478.00	9720.24
478.18	9568.11
478.36	9708.54
478.54	9860.68
478.72	9944.94
478.90	10047.92
479.08	9933.23
479.26	10391.98
479.44	10249.21
479.62	10368.57
479.80	10399.00
479.98	10586.24
480.16	10607.31
480.34	10698.59
480.52	10768.80
480.70	10937.32
480.88	10743.06
481.06	10963.07
481.24	10958.39
481.41	11206.48
481.59	11480.33
481.77	11449.90
481.95	11396.07
482.13	11665.23
482.31	11428.84
482.49	11808.00
482.67	11875.88
482.85	12322.92
483.03	12372.07
483.21	12409.52
483.39	12601.44
483.57	12442.29
483.74	12788.69
483.92	12917.42
484.10	12704.43
484.28	13078.91
484.46	13195.94
484.64	13650.00
484.82	13081.25
485.00	13341.05
485.18	13582.13
485.35	13666.39
485.53	13708.52
485.71	13865.33
485.89	14207.05
486.07	13963.64
486.25	14565.15
486.43	14244.50
486.61	14312.38
486.78	14534.73
486.96	14572.18
487.14	14890.49
487.32	14998.15
487.50	15103.48
487.68	15435.83
487.85	15445.20
488.03	15541.16
488.21	15522.43
488.39	15871.17
488.57	15934.37
488.75	16035.01
488.92	16446.94
489.10	16332.26
489.28	16526.52
489.46	16617.80
489.64	16285.45
489.81	16943.14
489.99	16830.79
490.17	16947.82
490.35	17224.00
490.53	17123.36
490.70	17331.67
490.88	17355.07
491.06	17549.34
491.24	17614.87
491.41	17806.80
491.59	17776.37
491.77	17689.77
491.95	17954.25
492.13	17980.00
492.30	17926.16
492.48	18417.68
492.66	18537.04
492.84	18359.16
493.01	18820.25
493.19	18754.71
493.37	18787.48
493.54	18895.14
493.72	19255.59
493.90	19271.97
494.08	19370.27
494.25	19225.16
494.43	19054.30
494.61	19370.27
494.79	19943.70
494.96	19662.84
495.14	19807.95
495.32	20044.35
495.49	19971.79
495.67	19873.49
495.85	20042.01
496.02	20250.32
496.20	20325.21
496.38	20613.10
496.55	20613.10
496.73	20790.98
496.91	20575.65
497.09	20807.36
497.26	20837.79
497.44	20751.19
497.62	21076.52
497.79	21188.87
497.97	21301.22
498.14	21422.92
498.32	21212.28
498.50	21301.22
498.67	21228.66
498.85	21514.20
499.03	21659.32
499.20	21654.64
499.38	21724.85
499.56	21671.02
499.73	21872.31
499.91	22092.32
500.08	21998.70
500.26	21937.84
500.44	22113.38
500.61	22045.51
500.79	21823.16
500.97	21825.50
501.14	22237.43
501.32	21837.20
501.49	22382.54
501.67	22211.68
501.84	22223.39
502.02	22604.89
502.20	22427.01
502.37	22373.18
502.55	22497.23
502.72	22616.60
502.90	22469.14
503.07	22576.81
503.25	22815.54
503.43	22742.99
503.60	22560.42
503.78	22822.56
503.95	22759.37
504.13	22817.88
504.30	22906.82
504.48	22803.84
504.65	23098.75
504.83	23227.48
505.01	22916.19
505.18	23129.17
505.36	23033.21
505.53	22977.04
505.71	23220.45
505.88	23407.70
506.06	23325.78
506.23	23339.82
506.41	23073.00
506.58	23159.60
506.76	22927.89
506.93	23454.51
507.11	23372.59
507.28	23302.37
507.46	23056.62
507.63	23232.16
507.81	23424.08
507.98	22946.61
508.16	23019.17
508.33	23405.36
508.50	23005.13
508.68	22838.95
508.85	23536.43
509.03	23009.81
509.20	23007.47
509.38	23101.09
509.55	22860.01
509.73	22834.27
509.90	23108.11
510.08	22682.13
510.25	22794.48
510.42	22609.58
510.60	22600.21
510.77	22544.04
510.95	22548.72
511.12	22890.44
511.30	22747.67
511.47	22408.29
511.64	22539.36
511.82	22417.65
511.99	22120.40
512.17	22501.91
512.34	22387.22
512.51	22504.25
512.69	22565.10
512.86	22443.40
513.04	22822.56
513.21	22424.67
513.38	22548.72
513.56	22508.93
513.73	22508.93
513.90	22632.98
514.08	22897.46
514.25	22984.06
514.43	23213.43
514.60	22932.57
514.77	23601.96
514.95	23583.24
515.12	23454.51
515.29	23463.87
515.47	24074.75
515.64	23974.11
515.81	23885.17
515.99	24046.66
516.16	24191.78
516.33	24493.71
516.51	24231.57
516.68	24725.42
516.85	24659.88
517.03	24793.29
517.20	24718.40
517.37	24608.39
517.54	24842.45
517.72	24938.41
517.89	25076.50
518.06	25127.99
518.24	25179.48
518.41	25233.32
518.58	24985.22
518.75	25135.01
518.93	25621.84
519.10	25603.12
519.27	25963.56
519.45	25654.61
519.62	25860.58
519.79	26022.08
519.96	25839.51
520.14	26225.70
520.31	25881.64
520.48	25731.85
520.65	25605.46
520.83	25525.88
521.00	25942.50
521.17	25731.85
521.34	25930.80
521.52	25783.34
521.69	25390.13
521.86	25516.52
522.03	25525.88
522.20	25198.21
522.38	25135.01
522.55	24954.79
522.72	24727.76
522.89	24797.98
523.07	24622.44
523.24	24088.79
523.41	24063.05
523.58	23742.39
523.75	23676.86
523.92	23534.09
524.10	23955.38
524.27	23365.57
524.44	23655.79
524.61	23489.62
524.78	23419.40
524.96	23293.01
525.13	23665.16
525.30	23229.82
525.47	23723.67
525.64	23250.88
525.81	23328.12
525.98	23433.44
526.16	23215.77
526.33	23414.72
526.50	23585.58
526.67	23133.86
526.84	23850.06
527.01	23152.58
527.18	23506.00
527.36	23370.25
527.53	23325.78
527.70	23538.77
527.87	23295.35
528.04	22991.08
528.21	23442.81
528.38	23269.61
528.55	23040.23
528.72	23274.29
528.89	23435.78
529.07	22991.08
529.24	23349.18
529.41	23278.97
529.58	23644.09
529.75	23824.31
529.92	23882.83
530.09	23934.32
530.26	23796.23
530.43	23683.88
530.60	24002.19
530.77	23992.83
530.94	24039.64
531.11	24584.99
531.28	24273.70
531.46	24439.87
531.63	24570.94
531.80	24716.06
531.97	24704.35
532.14	24861.17
532.31	25139.69
532.48	25085.86
532.65	25502.48
532.82	25689.72
532.99	25591.42
533.16	25685.04
533.33	25968.24
533.50	26499.55
533.67	26927.86
533.84	26822.54
534.01	26808.50
534.18	27300.01
534.35	27796.20
534.52	27449.80
534.69	27866.42
534.86	28327.50
535.03	28163.67
535.20	28552.20
535.37	28779.23
535.54	29149.03
535.71	29600.76
535.88	29823.11
536.05	30022.05
536.22	30012.69
536.38	30689.10
536.55	30429.30
536.72	30920.82
536.89	30698.47
537.06	31150.19
537.23	31386.58
537.40	31929.59
537.57	31906.18
537.74	31721.28
537.91	32484.30
538.08	32236.20
538.25	32215.13
538.42	32975.81
538.59	33046.02
538.75	33298.80
538.92	33387.74
539.09	33624.14
539.26	33652.22
539.43	33600.73
539.60	33869.89
539.77	33993.94
539.94	34623.54
540.11	34639.93
540.28	35281.24
540.44	34967.60
540.61	35639.34
540.78	35379.54
540.95	35461.46
541.12	35318.68
541.29	35803.17
541.46	36177.66
541.62	36334.48
541.79	36580.23
541.96	36690.24
542.13	36556.83
542.30	36774.50
542.47	36921.95
542.63	36926.63
542.80	37062.38
542.97	37689.65
543.14	37614.75
543.31	37909.66
543.48	37621.77
543.64	38586.07
543.81	38602.46
543.98	38136.69
544.15	38106.26
544.32	37944.76
544.48	38410.53
544.65	38122.65
544.82	38373.08
544.99	38387.13
545.16	38679.69
545.32	39131.42
545.49	39489.52
545.66	39615.91
545.83	39484.84
546.00	39531.65
546.16	39393.56
546.33	38761.61
546.50	38969.92
546.67	39475.48
546.83	38986.30
547.00	39871.03
547.17	39042.48
547.34	39402.92
547.50	39393.56
547.67	39594.84
547.84	39856.98
548.00	40339.13
548.17	40065.29
548.34	39688.46
548.51	40325.09
548.67	40264.24
548.84	39777.40
549.01	39824.22
549.18	39948.26
549.34	40528.72
549.51	40191.68
549.68	40182.32
549.84	40353.18
550.01	40208.06
550.18	40147.21
550.34	40491.27
550.51	40020.82
550.68	40390.62
550.84	40004.44
551.01	40329.77
551.18	40573.19
551.34	40357.86
551.51	40730.00
551.68	40832.99
551.84	40711.28
552.01	40081.67
552.18	40481.91
552.34	40362.54
552.51	41064.70
552.68	40861.07
552.84	40594.25
553.01	41092.79
553.18	41464.93
553.34	41223.86
553.51	40898.52
553.67	40601.27
553.84	40821.28
554.01	41202.79
554.17	41315.14
554.34	41289.39
554.51	41017.89
554.67	41083.42
554.84	41263.64
555.00	41160.66
555.17	41453.23
555.33	41249.60
555.50	40793.20
555.67	40987.46
555.83	41270.67
556.00	41439.18
556.16	41701.32
556.33	41411.10
556.50	40968.74
556.66	41413.44
556.83	41158.32
556.99	41486.00
557.16	41375.99
557.32	41654.51
557.49	41998.57
557.65	41399.40
557.82	42110.92
557.98	41855.80
558.15	41361.95
558.32	41624.09
558.48	41085.76
558.65	41439.18
558.81	41364.29
558.98	41415.78
559.14	41427.48
559.31	41794.95
559.47	41764.52
559.64	41518.76
559.80	41579.62
559.97	41823.03
560.13	40882.14
560.30	41457.91
560.46	41497.70
560.63	41596.00
560.79	41734.09
560.96	41516.42
561.12	41455.57
561.29	41904.95
561.45	41486.00
561.61	41111.51
561.78	41436.84
561.94	40971.08
562.11	41242.58
562.27	41317.48
562.44	41167.68
562.60	40821.28
562.77	41432.16
562.93	40825.96
563.10	40968.74
563.26	40573.19
563.42	41074.06
563.59	40739.36
563.75	39845.28
563.92	40048.91
564.08	40072.31
564.24	40280.62
564.41	39882.73
564.57	39622.93
564.74	39641.65
564.90	39658.04
565.07	39510.58
565.23	39014.39
565.39	38820.13
565.56	38614.16
565.72	38408.19
565.88	37921.36
566.05	37799.65
566.21	37507.08
566.38	37085.79
566.54	37067.06
566.70	36758.11
566.87	35934.24
567.03	35093.99
567.19	34965.26
567.36	34321.62
567.52	33776.27
567.68	33448.60
567.85	32460.89
568.01	31646.38
568.17	30780.39
568.34	30047.80
568.50	29273.08
568.66	27878.12
568.83	27468.53
568.99	26642.32
569.15	25223.95
569.32	24694.99
569.48	23569.19
569.64	23318.76
569.81	21942.52
569.97	21263.77
570.13	20477.35
570.30	19674.54
570.46	19037.92
570.62	18490.23
570.78	17530.61
570.95	17198.26
571.11	16837.81
571.27	16030.33
571.43	15543.50
571.60	15211.14
571.76	15044.96
571.92	14740.69
572.09	14537.07
572.25	14235.14
572.41	14279.61
572.57	13987.04
572.74	14211.73
572.90	13776.39
573.06	13752.99
573.22	14125.13
573.38	13877.04
573.55	13902.78
573.71	14003.43
573.87	13802.14
574.03	14115.77
574.20	14178.97
574.36	14022.15
574.52	14171.94
574.68	14010.45
574.84	14183.65
575.01	14157.90
575.17	14115.77
575.33	14106.41
575.49	13834.91
575.65	14338.12
575.82	14293.65
575.98	14141.52
576.14	14303.01
576.30	14506.64
576.46	14555.79
576.62	14560.47
576.79	14792.19
576.95	14813.25
577.11	14544.09
577.27	14977.09
577.43	14846.02
577.59	14726.65
577.75	14991.13
577.92	14995.81
578.08	15302.42
578.24	15562.22
578.40	15484.98
578.56	15665.21
578.72	15609.03
578.88	15822.02
579.04	15573.92
579.21	15667.55
579.37	15602.01
579.53	15812.66
579.69	15592.65
579.85	15779.89
580.01	15674.57
580.17	15484.98
580.33	15077.73
580.49	15445.20
580.65	15082.41
580.82	14972.41
580.98	14703.25
581.14	14373.23
581.30	14263.22
581.46	14001.08
581.62	13654.69
581.78	13341.05
581.94	13242.75
582.10	12912.74
582.26	12411.86
582.42	12163.76
582.58	11915.67
582.74	11728.42
582.90	11318.83
583.06	11063.71
583.22	10857.75
583.38	10670.50
583.54	10511.35
583.70	10239.84
583.86	10394.32
584.02	10054.94
584.18	9851.31
584.34	9715.56
584.50	9523.64
584.66	9537.68
584.82	9504.92
584.98	9490.87
585.14	9336.40
585.30	9502.58
585.46	9586.83
585.62	9692.16
585.78	9865.36
585.94	9951.96
586.10	9830.25
586.26	10148.56
586.42	10174.31
586.58	10382.62
586.74	10375.59
586.90	10789.87
587.06	11012.22
587.22	11115.20
587.38	11044.99
587.54	11419.47
587.70	11552.88
587.86	11536.50
588.02	11693.32
588.18	11988.22
588.34	12255.04
588.49	12360.37
588.65	12681.02
588.81	12861.24
588.97	13057.85
589.13	13319.99
589.29	13406.59
589.45	13467.44
589.61	13741.29
589.77	14071.30
589.93	13823.20
590.08	14178.97
590.24	14373.23
590.40	14691.54
590.56	14801.55
590.72	15007.52
590.88	14817.93
591.04	15227.53
591.20	15262.63
591.35	15424.13
591.51	15847.77
591.67	15901.60
591.83	15932.03
591.99	16339.28
592.15	16388.43
592.31	16638.87
592.46	16739.51
592.62	17301.24
592.78	17085.91
592.94	17614.87
593.10	18090.00
593.26	18520.66
593.41	18637.69
593.57	18803.86
593.73	18906.85
593.89	19522.41
594.05	19758.80
594.20	20135.63
594.36	20407.13
594.52	20924.39
594.68	21142.06
594.84	21319.94
594.99	21284.83
595.15	21710.81
595.31	22342.75
595.47	22415.31
595.62	22759.37
595.78	23040.23
595.94	23807.93
596.10	24053.69
596.25	23763.46
596.41	24336.89
596.57	24751.17
596.73	24765.21
596.88	25029.69
597.04	25415.88
597.20	25666.31
597.36	25387.79
597.51	26015.05
597.67	26338.05
597.83	26174.21
597.99	26532.31
598.14	26909.14
598.30	27372.57
598.46	27704.92
598.61	27754.07
598.77	27463.85
598.93	27550.45
599.09	27775.14
599.24	28615.39
599.40	28229.20
599.56	28671.56
599.71	28781.57
599.87	29193.50
600.03	29399.47
600.18	29888.64
600.34	29867.58
600.50	29804.38
600.65	30398.88
600.81	30309.94
600.97	30621.23
601.12	31103.38
601.28	31363.18
601.44	31440.42
601.59	31850.01
601.75	32170.66
601.91	32339.18
602.06	32046.62
602.22	32816.65
602.37	32842.40
602.53	32833.04
602.69	33053.05
602.84	33188.80
603.00	32893.89
603.16	33633.50
603.31	33523.49
603.47	33956.49
603.62	34181.18
603.78	34368.43
603.94	34190.55
604.09	34850.58
604.25	34890.37
604.40	35007.39
604.56	34738.23
604.71	35576.14
604.87	35136.12
605.03	35498.91
605.18	35442.73
605.34	35821.90
605.49	35651.04
605.65	35519.97
605.80	35981.06
605.96	36240.86
606.12	36470.23
606.27	36556.83
606.43	36285.33
606.58	36671.51
606.74	36657.47
606.89	36582.57
607.05	36720.66
607.20	36966.42
607.36	36837.69
607.51	36968.76
607.67	37378.36
607.82	37495.38
607.98	37605.39
608.13	37633.47
608.29	37649.86
608.44	37762.20
608.60	37460.27
608.75	37949.45
608.91	38218.61
609.06	38141.37
609.22	38216.27
609.37	38040.73
609.53	38848.21
609.68	38611.82
609.84	38333.29
609.99	39161.84
610.15	38958.22
610.30	39292.91
610.46	39433.35
610.61	39552.71
610.76	39997.41
610.92	40217.43
611.07	40247.85
611.23	40404.67
611.38	40273.60
611.54	41001.50
611.69	40533.40
611.84	40683.19
612.00	40816.60
612.15	40802.56
612.31	41427.48
612.46	41146.62
612.62	41179.39
612.77	41170.02
612.92	41614.72
613.08	41141.94
613.23	41731.75
613.39	41474.29
613.54	41869.84
613.69	42274.76
613.85	42162.41
614.00	42504.13
614.15	42607.11
614.31	42202.20
614.46	42553.28
614.62	42574.34
614.77	42291.14
614.92	42955.85
615.08	42843.51
615.23	42754.57
615.38	43082.24
615.54	43381.83
615.69	43159.48
615.84	42941.81
616.00	43421.62
616.15	43302.25
616.30	43688.44
616.46	43213.31
616.61	43379.49
616.76	43611.20
616.92	42777.97
617.07	43449.70
617.22	43400.55
617.37	43522.26
617.53	43353.74
617.68	43311.61
617.83	43147.78
617.99	43367.79
618.14	43281.19
618.29	43442.68
618.45	42944.15
618.60	42974.58
618.75	42937.13
618.90	43196.93
619.06	43065.86
619.21	43629.93
619.36	43782.06
619.51	43140.75
619.67	42691.37
619.82	43044.79
619.97	43278.85
620.12	43246.08
620.28	42876.27
620.43	43014.37
620.58	42246.67
620.73	42923.08
620.89	42813.08
621.04	42616.47
621.19	42380.08
621.34	42625.84
621.49	42665.63
621.65	42281.78
621.80	43058.84
621.95	42649.24
622.10	42649.24
622.25	42492.43
622.41	42700.73
622.56	42227.95
622.71	42452.64
622.86	42052.41
623.01	42429.23
623.16	42483.06
623.32	42206.88
623.47	42452.64
623.62	42375.40
623.77	42136.66
623.92	42735.84
624.07	42080.49
624.23	42007.94
624.38	41776.22
624.53	41844.10
624.68	41916.65
624.83	42026.66
624.98	41867.50
625.13	41874.52
625.29	42057.09
625.44	42206.88
625.59	42216.24
625.74	42043.04
625.89	41666.22
626.04	41640.47
626.19	41544.51
626.34	41495.36
626.49	41226.20
626.65	41043.63
626.80	41247.26
626.95	41408.76
627.10	41654.51
627.25	41858.14
627.40	41511.74
627.55	41282.37
627.70	41254.28
627.85	41481.31
628.00	41539.83
628.15	41439.18
628.30	41067.04
628.45	41144.28
628.60	40746.39
628.76	41132.57
628.91	40910.22
629.06	40797.88
629.21	40772.13
629.36	41202.79
629.51	40966.40
629.66	41345.56
629.81	40828.30
629.96	40790.86
630.11	41088.10
630.26	41418.12
630.41	41626.43
630.56	40685.53
630.71	40966.40
630.86	40514.67
631.01	40982.78
631.16	40741.71
631.31	40926.61
631.46	40603.61
631.61	40840.01
631.76	40802.56
631.91	40938.31
632.06	41275.35
632.21	41118.53
632.36	41366.63
632.51	40650.42
632.66	40776.81
632.81	40329.77
632.96	40538.08
633.10	40694.89
633.25	40517.01
633.40	40638.72
633.55	40832.99
633.70	40395.31
633.85	40914.90
634.00	40804.90
634.15	40376.58
634.30	40636.38
634.45	40446.80
634.60	40999.16
634.75	40676.17
634.90	40559.14
635.05	40371.90
635.19	40301.68
635.34	40942.99
635.49	40760.43
635.64	40891.50
635.79	40781.49
635.94	40360.20
636.09	40931.29
636.24	40306.37
636.39	40318.07
636.53	40765.11
636.68	40091.04
636.83	40474.88
636.98	40531.06
637.13	39929.54
637.28	40301.68
637.43	39688.46
637.57	40165.93
637.72	39990.39
637.87	40395.31
638.02	40032.52
638.17	40231.47
638.32	40348.50
638.46	40339.13
638.61	40268.92
638.76	40336.79
638.91	40020.82
639.06	39917.84
639.20	39763.36
639.35	39730.59
639.50	39707.19
639.65	39824.22
639.80	40032.52
639.94	40030.18
640.09	40058.27
640.24	39838.26
640.39	39615.91
640.54	39777.40
640.68	39798.47
640.83	39342.06
640.98	39622.93
641.13	39098.65
641.27	39718.89
641.42	39442.71
641.57	39550.37
641.72	39519.95
641.86	39189.93
642.01	39246.10
642.16	39461.43
642.31	39508.24
642.45	40030.18
642.60	39393.56
642.75	39583.14
642.90	39531.65
643.04	39203.97
643.19	39250.78
643.34	39239.08
643.48	39236.74
643.63	39358.45
643.78	38911.41
643.93	39332.70
644.07	39468.45
644.22	38955.88
644.37	39082.27
644.51	39292.91
644.66	39210.99
644.81	39009.71
644.95	39419.30
645.10	39587.82
645.25	39693.15
645.39	39402.92
645.54	39487.18
645.69	39629.95
645.83	39494.20
645.98	38747.57
646.13	38920.77
646.27	38958.22
646.42	38700.76
646.57	38876.30
646.71	39000.35
646.86	39321.00
647.00	39082.27
647.15	38822.47
647.30	39210.99
647.44	39098.65
647.59	39070.56
647.74	38249.03
647.88	39014.39
648.03	38803.74
648.17	38581.39
648.32	38480.75
648.47	38602.46
648.61	38689.06
648.76	38796.72
648.90	38621.18
649.05	39049.50
649.20	38714.80
649.34	38639.90
649.49	38363.72
649.63	38916.09
649.78	38836.51
649.92	38480.75
650.07	38773.31
650.21	38314.57
650.36	38394.15
650.51	37867.53
650.65	38003.28
650.80	38124.99
650.94	38377.76
651.09	37890.93
651.23	38054.77
651.38	38340.32
651.52	38476.07
651.67	38590.75
651.81	38195.20
651.96	38192.86
652.10	38223.29
652.25	38202.22
652.39	38000.94
652.54	38005.62
652.68	37647.52
652.83	37961.15
652.97	38103.92
653.12	37673.26
653.26	37553.90
653.41	38066.47
653.55	37722.41
653.70	38101.58
653.84	38000.94
653.99	38197.54
654.13	37469.64
654.27	37794.97
654.42	37694.33
654.56	37617.09
654.71	37404.10
654.85	37560.92
655.00	37181.75
655.14	37205.16
655.29	37071.75
655.43	37656.88
655.57	37202.82
655.72	37125.58
655.86	37275.37
656.01	37287.07
656.15	37350.27
656.30	37457.93
656.44	37453.25
656.58	37361.97
656.73	36947.70
656.87	37345.59
657.01	36964.08
657.16	36893.86
657.30	36828.33
657.45	37429.85
657.59	36992.17
657.73	37043.66
657.88	36982.80
658.02	36882.16
658.16	36975.78
658.31	37099.83
658.45	36758.11
658.60	37156.00
658.74	37034.30
658.88	37081.11
659.03	36713.64
659.17	36755.77
659.31	36437.46
659.46	36385.97
659.60	36549.81
659.74	36442.14
659.89	36339.16
660.03	36268.94
660.17	36662.15
660.32	36133.19
660.46	36470.23
660.60	36355.54
660.74	36350.86
660.89	36400.01
661.03	35927.22
661.17	35791.47
661.32	35606.57
661.46	35861.69
661.60	35576.14
661.74	36009.14
661.89	35725.94
662.03	35707.21
662.17	35438.05
662.31	35358.47
662.46	35622.95
662.60	35512.95
662.74	35730.62
662.88	35316.34
663.03	35330.39
663.17	35665.08
663.31	35377.20
663.45	35566.78
663.60	35571.46
663.74	35276.55
663.88	34946.54
664.02	34749.93
664.17	34909.09
664.31	35089.31
664.45	34962.92
664.59	35056.54
664.73	34726.53
664.88	35332.73
665.02	34698.44
665.16	34740.57
665.30	34904.41
665.44	34487.79
665.59	34597.80
665.73	34525.24
665.87	33640.52
666.01	34047.77
666.15	34265.44
666.29	34190.55
666.44	33773.93
666.58	33846.49
666.72	33846.49
666.86	34192.89
667.00	34169.48
667.14	34059.48
667.28	34277.15
667.43	33706.05
667.57	33963.51
667.71	33823.08
667.85	33500.09
667.99	33097.52
668.13	33294.12
668.27	33336.25
668.41	33228.59
668.56	33261.35
668.70	32975.81
668.84	32823.67
668.98	32655.15
669.12	32758.14
669.26	33310.50
669.40	32978.15
669.54	32755.80
669.68	32968.79
669.82	32760.48
669.96	32781.54
670.10	32341.52
670.25	32697.28
670.39	32292.37
670.53	32360.25
670.67	32116.83
670.81	31906.18
670.95	32023.21
671.09	31702.56
671.23	31948.31
671.37	32177.68
671.51	32107.47
671.65	32128.53
671.79	31903.84
671.93	31543.40
672.07	31431.05
672.21	31613.62
672.35	31512.97
672.49	31655.75
672.63	31538.72
672.77	31276.58
672.91	31288.28
673.05	30899.75
673.19	30953.58
673.33	30668.04
673.47	30607.19
673.61	30696.13
673.75	30944.22
673.89	30899.75
674.03	30237.38
674.17	30726.55
674.31	30562.72
674.45	30710.17
674.59	31077.63
674.73	30118.01
674.87	30309.94
675.01	30312.28
675.15	30431.65
675.29	30038.44
675.43	30038.44
675.56	30448.03
675.70	29549.26
675.84	29628.84
675.98	28945.41
676.12	29401.81
676.26	29394.79
676.40	29551.60
676.54	29050.73
676.68	29172.44
676.82	28685.61
676.96	28652.84
677.10	28840.08
677.23	28657.52
677.37	28149.62
677.51	28313.46
677.65	28538.15
677.79	28212.82
677.93	28158.99
678.07	27831.31
678.21	27545.76
678.34	27473.21
678.48	28013.87
678.62	27571.51
678.76	27049.57
678.90	27363.20
679.04	27229.79
679.18	27292.99
679.31	27297.67
679.45	27232.13
679.59	27157.24
679.73	27061.27
679.87	27168.94
680.00	26757.00
680.14	26419.97
680.28	26333.37
680.42	26335.71
680.56	26574.44
680.70	26221.02
680.83	26340.39
680.97	25902.71
681.11	26010.37
681.25	26094.63
681.39	25675.68
681.52	25729.51
681.66	25472.05
681.80	25502.48
681.94	25479.07
682.07	25619.50
682.21	25359.70
682.35	25415.88
682.49	25324.60
682.62	24772.23
682.76	24737.12
682.90	24716.06
683.04	24128.58
683.17	24210.50
683.31	23927.30
683.45	24149.65
683.59	23934.32
683.72	24058.37
683.86	24053.69
684.00	23939.00
684.13	23974.11
684.27	23463.87
684.41	23831.33
684.55	23482.59
684.68	23828.99
684.82	23786.86
684.96	23737.71
685.09	23414.72
685.23	23328.12
685.37	23386.63
685.50	22923.21
685.64	23201.73
685.78	22946.61
685.91	23124.49
686.05	22970.02
686.19	22871.72
686.32	23035.55
686.46	22398.93
686.60	22558.08
686.73	22733.62
686.87	22857.67
687.01	22803.84
687.14	22738.30
687.28	23037.89
687.42	22424.67
687.55	22146.15
687.69	22389.56
687.82	22188.28
687.96	21975.29
688.10	22195.30
688.23	21741.24
688.37	21607.83
688.50	21778.68
688.64	21975.29
688.78	21736.56
688.91	21441.65
689.05	21811.45
689.18	21453.35
689.32	21036.74
689.46	21245.04
689.59	21593.78
689.73	21191.21
689.86	21516.54
690.00	21240.36
690.13	21254.40
690.27	20992.26
690.41	21043.76
690.54	20659.91
690.68	20725.44
690.81	20908.01
690.95	20854.17
691.08	20807.36
691.22	20444.58
691.35	20685.65
691.49	20875.24
691.62	20727.78
691.76	20872.90
691.89	20800.34
692.03	20453.94
692.16	20379.04
692.30	20755.87
692.43	20641.18
692.57	20271.38
692.70	20304.15
692.84	20163.72
692.97	19854.76
693.11	19693.27
693.24	19796.25
693.38	19573.90
693.51	19953.07
693.65	19981.15
693.78	19623.05
693.92	19878.17
694.05	19798.59
694.19	19503.68
694.32	19824.34
694.45	19442.83
694.59	19601.99
694.72	19426.45
694.86	19503.68
694.99	19091.75
695.13	19147.92
695.26	19042.60
695.39	18796.84
695.53	19089.41
695.66	18813.23
695.80	18707.90
695.93	18499.59
696.07	18625.98
696.20	18644.71
696.33	18429.38
696.47	18387.25
696.60	18523.00
696.73	18284.26
696.87	18682.16
697.00	18389.59
697.14	18338.10
697.27	17977.65
697.40	18085.32
697.54	18099.36
697.67	17902.76
697.80	17827.86
697.94	17720.20
698.07	17692.11
698.21	17415.93
698.34	17682.75
698.47	17694.45
698.61	17462.74
698.74	17387.84
698.87	17163.15
699.01	17207.62
699.14	17135.06
699.27	17331.67
699.40	17628.92
699.54	17022.72
699.67	17050.80
699.80	16954.84
699.94	16908.03
700.07	16788.66
700.20	16362.69
700.34	16606.10
700.47	16725.47
700.60	16519.50
700.73	16140.33
700.87	16367.37
701.00	15976.50
701.13	15903.94
701.26	15906.28
701.40	16053.73
701.53	16079.48
701.66	16053.73
701.79	15845.43
701.93	16201.19
702.06	15655.84
702.19	15798.62
702.32	15831.38
702.46	15744.78
702.59	15660.52
702.72	15339.87
702.85	15389.02
702.99	15255.61
703.12	15279.02
703.25	15002.83
703.38	14979.43
703.51	15082.41
703.65	14869.42
703.78	14705.59
703.91	14527.71
704.04	14670.48
704.17	14874.10
704.31	14637.71
704.44	14745.38
704.57	14618.99
704.70	14551.11
704.83	14773.46
704.96	14555.79
705.10	14609.62
705.23	14361.53
>>>>>End Processed Spectral Data<<<<<
