SpectraSuite Data File
++++++++++++++++++++++++++++++++++++
Date: Mon Sep 30 18:11:50 GMT-05:00 2013
User: stostad
Dark Spectrum Present: No
Reference Spectrum Present: No
Number of Sampled Component Spectra: 1
Spectrometers: USB2+H05261
Integration Time (usec): 100000 (USB2+H05261)
Spectra Averaged: 1 (USB2+H05261)
Boxcar Smoothing: 0 (USB2+H05261)
Correct for Electrical Dark: No (USB2+H05261)
Strobe/Lamp Enabled: No (USB2+H05261)
Correct for Detector Non-linearity: No (USB2+H05261)
Correct for Stray Light: No (USB2+H05261)
Number of Pixels in Processed Spectrum: 2048
>>>>>Begin Processed Spectral Data<<<<<
365.73	79.58
365.92	79.58
366.12	79.58
366.32	44.47
366.52	0.00
366.72	74.90
366.91	53.83
367.11	18.72
367.31	21.06
367.51	37.45
367.70	42.13
367.90	0.00
368.10	0.00
368.30	4.68
368.49	28.09
368.69	0.00
368.89	0.00
369.09	65.54
369.28	102.98
369.48	100.64
369.68	58.51
369.87	7.02
370.07	86.60
370.27	110.01
370.47	86.60
370.66	259.80
370.86	278.52
371.06	257.46
371.25	280.86
371.45	264.48
371.65	351.08
371.84	187.24
372.04	287.89
372.24	250.44
372.44	313.63
372.63	372.15
372.83	339.38
373.03	266.82
373.22	330.02
373.42	346.40
373.62	358.10
373.81	280.86
374.01	292.57
374.21	294.91
374.40	346.40
374.60	320.65
374.79	395.55
374.99	341.72
375.19	456.40
375.38	381.51
375.58	423.64
375.78	409.59
375.97	418.96
376.17	456.40
376.37	374.49
376.56	337.04
376.76	458.74
376.95	447.04
377.15	484.49
377.35	421.30
377.54	433.00
377.74	400.23
377.93	454.06
378.13	470.45
378.33	491.51
378.52	423.64
378.72	358.10
378.91	421.30
379.11	423.64
379.31	278.52
379.50	367.46
379.70	395.55
379.89	500.87
380.09	440.02
380.28	381.51
380.48	369.80
380.68	461.09
380.87	402.57
381.07	416.62
381.26	444.70
381.46	341.72
381.65	376.83
381.85	325.33
382.04	337.04
382.24	334.70
382.43	339.38
382.63	332.36
382.83	346.40
383.02	383.85
383.22	358.10
383.41	337.04
383.61	355.76
383.80	365.12
384.00	440.02
384.19	402.57
384.39	402.57
384.58	313.63
384.78	440.02
384.97	444.70
385.17	447.04
385.36	409.59
385.56	397.89
385.75	327.68
385.95	402.57
386.14	430.66
386.34	367.46
386.53	346.40
386.72	313.63
386.92	409.59
387.11	510.24
387.31	435.34
387.50	386.19
387.70	482.15
387.89	491.51
388.09	367.46
388.28	409.59
388.48	318.31
388.67	479.81
388.86	472.79
389.06	400.23
389.25	535.98
389.45	512.58
389.64	510.24
389.84	475.13
390.03	498.53
390.22	444.70
390.42	500.87
390.61	496.19
390.81	545.34
391.00	620.24
391.19	568.75
391.39	514.92
391.58	442.36
391.78	533.64
391.97	496.19
392.16	437.68
392.36	430.66
392.55	372.15
392.75	348.74
392.94	365.12
393.13	304.27
393.33	372.15
393.52	414.27
393.71	538.32
393.91	500.87
394.10	404.91
394.29	477.47
394.49	561.73
394.68	629.60
394.88	547.69
395.07	540.66
395.26	561.73
395.46	531.30
395.65	606.20
395.84	463.43
396.04	458.74
396.23	416.62
396.42	346.40
396.62	418.96
396.81	367.46
397.00	521.94
397.19	550.03
397.39	521.94
397.58	753.65
397.77	585.13
397.97	592.16
398.16	695.14
398.35	720.88
398.55	688.12
398.74	725.57
398.93	770.04
399.12	681.10
399.32	704.50
399.51	667.05
399.70	791.10
399.90	802.80
400.09	753.65
400.28	800.46
400.47	741.95
400.67	861.32
400.86	753.65
401.05	851.96
401.24	821.53
401.44	847.27
401.63	875.36
401.82	821.53
402.01	840.25
402.21	763.01
402.40	819.19
402.59	704.50
402.78	718.54
402.97	781.74
403.17	734.93
403.36	903.45
403.55	774.72
403.74	868.34
403.93	805.14
404.13	704.50
404.32	774.72
404.51	861.32
404.70	830.89
404.89	758.33
405.09	851.96
405.28	791.10
405.47	788.76
405.66	786.42
405.85	741.95
406.05	812.17
406.24	767.70
406.43	830.89
406.62	858.98
406.81	847.27
407.00	786.42
407.20	755.99
407.39	763.01
407.58	847.27
407.77	877.70
407.96	901.11
408.15	910.47
408.34	877.70
408.54	933.87
408.73	887.06
408.92	870.68
409.11	880.04
409.30	805.14
409.49	716.20
409.68	795.78
409.87	763.01
410.07	823.87
410.26	842.59
410.45	858.98
410.64	929.19
410.83	894.08
411.02	952.60
411.21	973.66
411.40	901.11
411.59	887.06
411.78	938.55
411.98	940.90
412.17	919.83
412.36	887.06
412.55	908.13
412.74	971.32
412.93	901.11
413.12	901.11
413.31	1102.39
413.50	929.19
413.69	1081.33
413.88	919.83
414.07	877.70
414.26	976.00
414.45	1018.13
414.64	959.62
414.83	952.60
415.02	997.07
415.22	1036.86
415.41	1022.81
415.60	924.51
415.79	933.87
415.98	1029.84
416.17	954.94
416.36	1032.18
416.55	945.58
416.74	980.68
416.93	1032.18
417.12	940.90
417.31	1055.58
417.50	1055.58
417.69	947.92
417.88	1015.79
418.07	976.00
418.26	1004.09
418.45	945.58
418.64	1093.03
418.83	1015.79
419.02	980.68
419.21	1090.69
419.39	1008.77
419.58	947.92
419.77	959.62
419.96	1039.20
420.15	1125.80
420.34	1114.10
420.53	1109.41
420.72	1114.10
420.91	1078.99
421.10	1043.88
421.29	1050.90
421.48	990.05
421.67	1132.82
421.86	1013.45
422.05	1013.45
422.24	868.34
422.43	924.51
422.61	997.07
422.80	1060.26
422.99	1123.46
423.18	929.19
423.37	1081.33
423.56	1053.24
423.75	1022.81
423.94	1057.92
424.13	1050.90
424.32	971.32
424.50	1046.22
424.69	954.94
424.88	1053.24
425.07	1069.62
425.26	994.73
425.45	997.07
425.64	936.21
425.83	1029.84
426.01	1011.11
426.20	980.68
426.39	980.68
426.58	931.53
426.77	854.30
426.96	1013.45
427.15	952.60
427.33	990.05
427.52	1013.45
427.71	1018.13
427.90	1001.75
428.09	980.68
428.28	959.62
428.46	830.89
428.65	980.68
428.84	926.85
429.03	978.34
429.22	959.62
429.40	847.27
429.59	847.27
429.78	709.18
429.97	786.42
430.16	758.33
430.34	748.97
430.53	676.41
430.72	877.70
430.91	851.96
431.10	1032.18
431.28	1125.80
431.47	1135.16
431.66	1118.78
431.85	990.05
432.03	959.62
432.22	943.24
432.41	1020.47
432.60	1153.88
432.79	1139.84
432.97	1268.57
433.16	1139.84
433.35	978.34
433.54	812.17
433.72	919.83
433.91	1062.60
434.10	1015.79
434.28	1090.69
434.47	1111.75
434.66	1135.16
434.85	973.66
435.03	1083.67
435.22	1217.08
435.41	1378.58
435.59	1334.11
435.78	1247.51
435.97	1259.21
436.16	1207.72
436.34	1167.93
436.53	1137.50
436.72	1165.59
436.90	1100.05
437.09	1114.10
437.28	1174.95
437.46	1266.23
437.65	1071.97
437.84	1062.60
438.02	983.02
438.21	1069.62
438.40	1050.90
438.58	1123.46
438.77	1153.88
438.96	1200.69
439.14	1132.82
439.33	1179.63
439.52	1153.88
439.70	1123.46
439.89	1177.29
440.08	1149.20
440.26	1163.25
440.45	1233.46
440.63	1282.61
440.82	1268.57
441.01	1226.44
441.19	1174.95
441.38	1174.95
441.57	1376.24
441.75	1352.83
441.94	1373.89
442.12	1242.82
442.31	1294.32
442.50	1338.79
442.68	1350.49
442.87	1245.16
443.05	1238.14
443.24	1380.92
443.43	1423.05
443.61	1359.85
443.80	1254.53
443.98	1247.51
444.17	1219.42
444.35	1420.71
444.54	1373.89
444.73	1366.87
444.91	1221.76
445.10	1210.06
445.28	1156.22
445.47	1188.99
445.65	1210.06
445.84	1254.53
446.02	1352.83
446.21	1249.85
446.39	1207.72
446.58	1259.21
446.77	1242.82
446.95	1345.81
447.14	1397.30
447.32	1352.83
447.51	1385.60
447.69	1282.61
447.88	1364.53
448.06	1338.79
448.25	1394.96
448.43	1378.58
448.62	1280.27
448.80	1198.35
448.99	1315.38
449.17	1348.15
449.36	1390.28
449.54	1401.98
449.73	1409.00
449.91	1486.24
450.10	1460.49
450.28	1516.67
450.46	1500.28
450.65	1483.90
450.83	1427.73
451.02	1437.09
451.20	1392.62
451.39	1380.92
451.57	1350.49
451.76	1423.05
451.94	1343.47
452.13	1240.48
452.31	1430.07
452.49	1331.76
452.68	1404.32
452.86	1310.70
453.05	1261.55
453.23	1277.93
453.42	1345.81
453.60	1336.45
453.78	1430.07
453.97	1397.30
454.15	1327.08
454.34	1338.79
454.52	1315.38
454.70	1387.94
454.89	1434.75
455.07	1378.58
455.26	1476.88
455.44	1364.53
455.62	1334.11
455.81	1366.87
455.99	1397.30
456.17	1404.32
456.36	1467.52
456.54	1530.71
456.73	1441.77
456.91	1416.02
457.09	1572.84
457.28	1607.95
457.46	1343.47
457.64	1371.55
457.83	1343.47
458.01	1418.36
458.19	1448.79
458.38	1495.60
458.56	1497.94
458.74	1430.07
458.93	1425.39
459.11	1406.66
459.29	1299.00
459.48	1425.39
459.66	1404.32
459.84	1544.75
460.03	1497.94
460.21	1453.47
460.39	1526.03
460.57	1437.09
460.76	1495.60
460.94	1493.26
461.12	1469.86
461.31	1483.90
461.49	1460.49
461.67	1444.11
461.85	1490.92
462.04	1472.20
462.22	1636.03
462.40	1465.18
462.59	1444.11
462.77	1444.11
462.95	1476.88
463.13	1413.68
463.32	1448.79
463.50	1500.28
463.68	1516.67
463.86	1434.75
464.05	1476.88
464.23	1373.89
464.41	1413.68
464.59	1441.77
464.78	1462.83
464.96	1350.49
465.14	1432.41
465.32	1528.37
465.50	1577.52
465.69	1479.22
465.87	1434.75
466.05	1500.28
466.23	1394.96
466.41	1392.62
466.60	1504.96
466.78	1362.19
466.96	1476.88
467.14	1528.37
467.32	1437.09
467.51	1390.28
467.69	1451.13
467.87	1460.49
468.05	1474.54
468.23	1497.94
468.41	1507.30
468.60	1418.36
468.78	1411.34
468.96	1549.43
469.14	1554.12
469.32	1451.13
469.50	1394.96
469.69	1406.66
469.87	1413.68
470.05	1362.19
470.23	1460.49
470.41	1451.13
470.59	1465.18
470.77	1469.86
470.95	1565.82
471.14	1535.39
471.32	1540.07
471.50	1593.90
471.68	1572.84
471.86	1535.39
472.04	1589.22
472.22	1483.90
472.40	1427.73
472.58	1521.35
472.77	1500.28
472.95	1476.88
473.13	1631.35
473.31	1579.86
473.49	1462.83
473.67	1378.58
473.85	1612.63
474.03	1519.01
474.21	1551.78
474.39	1682.85
474.57	1582.20
474.75	1563.48
474.93	1603.27
475.12	1455.81
475.30	1570.50
475.48	1432.41
475.66	1577.52
475.84	1521.35
476.02	1533.05
476.20	1523.69
476.38	1488.58
476.56	1631.35
476.74	1558.80
476.92	1614.97
477.10	1689.87
477.28	1713.27
477.46	1708.59
477.64	1638.38
477.82	1717.95
478.00	1661.78
478.18	1692.21
478.36	1629.01
478.54	1582.20
478.72	1619.65
478.90	1860.73
479.08	1720.29
479.26	1802.21
479.44	1694.55
479.62	1703.91
479.80	1865.41
479.98	1816.26
480.16	1940.30
480.34	1818.60
480.52	1739.02
480.70	1884.13
480.88	1813.92
481.06	1867.75
481.24	1809.23
481.41	1877.11
481.59	2019.88
481.77	1968.39
481.95	1851.36
482.13	1952.01
482.31	1916.90
482.49	1933.28
482.67	1849.02
482.85	1898.17
483.03	1930.94
483.21	1947.33
483.39	1966.05
483.57	1968.39
483.74	1830.30
483.92	1825.62
484.10	1895.83
484.28	2001.16
484.46	2015.20
484.64	2031.58
484.82	2017.54
485.00	1905.20
485.18	1912.22
485.35	1818.60
485.53	1659.44
485.71	1605.61
485.89	1572.84
486.07	1818.60
486.25	2043.29
486.43	1980.09
486.61	1977.75
486.78	2001.16
486.96	1923.92
487.14	2005.84
487.32	2033.93
487.50	2059.67
487.68	2104.14
487.85	2122.87
488.03	2092.44
488.21	2127.55
488.39	2054.99
488.57	2111.16
488.75	2101.80
488.92	2434.16
489.10	2169.68
489.28	2392.03
489.46	2349.90
489.64	2188.40
489.81	2289.04
489.99	2356.92
490.17	2340.54
490.35	2396.71
490.53	2284.36
490.70	2162.66
490.88	2377.98
491.06	2356.92
491.24	2296.07
491.41	2277.34
491.59	2221.17
491.77	2157.97
491.95	2221.17
492.13	2312.45
492.30	2382.67
492.48	2513.74
492.66	2462.24
492.84	2368.62
493.01	2431.82
493.19	2312.45
493.37	2263.30
493.54	2298.41
493.72	2272.66
493.90	2394.37
494.08	2560.55
494.25	2422.45
494.43	2523.10
494.61	2616.72
494.79	2583.95
494.96	2642.46
495.14	2492.67
495.32	2417.77
495.49	2457.56
495.67	2513.74
495.85	2569.91
496.02	2633.10
496.20	2576.93
496.38	2583.95
496.55	2544.16
496.73	2651.83
496.91	2700.98
497.09	2626.08
497.26	2609.70
497.44	2576.93
497.62	2562.89
497.79	2527.78
497.97	2368.62
498.14	2424.80
498.32	2574.59
498.50	2628.42
498.67	2623.74
498.85	2569.91
499.03	2623.74
499.20	2602.68
499.38	2668.21
499.56	2649.49
499.73	2597.99
499.91	2480.97
500.08	2495.01
500.26	2490.33
500.44	2546.50
500.61	2626.08
500.79	2469.27
500.97	2342.88
501.14	2427.14
501.32	2457.56
501.49	2506.71
501.67	2506.71
501.84	2530.12
502.02	2509.05
502.20	2534.80
502.37	2525.44
502.55	2480.97
502.72	2590.97
502.90	2677.57
503.07	2677.57
503.25	2455.22
503.43	2361.60
503.60	2410.75
503.78	2469.27
503.95	2466.92
504.13	2654.17
504.30	2642.46
504.48	2661.19
504.65	2551.18
504.83	2541.82
505.01	2644.81
505.18	2658.85
505.36	2642.46
505.53	2626.08
505.71	2860.13
505.88	2792.26
506.06	2562.89
506.23	2736.09
506.41	2654.17
506.58	2665.87
506.76	2686.94
506.93	2588.63
507.11	2553.52
507.28	2633.10
507.46	2663.53
507.63	2565.23
507.81	2457.56
507.98	2654.17
508.16	2579.27
508.33	2607.36
508.50	2740.77
508.68	2832.05
508.85	2810.98
509.03	2871.84
509.20	2710.34
509.38	2609.70
509.55	2729.06
509.73	2661.19
509.90	2829.71
510.08	2612.04
510.25	2780.56
510.42	2796.94
510.60	2642.46
510.77	2738.43
510.95	2764.17
511.12	2754.81
511.30	2906.95
511.47	2780.56
511.64	2822.69
511.82	2766.51
511.99	2621.40
512.17	2670.55
512.34	2581.61
512.51	2499.69
512.69	2717.36
512.86	2841.41
513.04	2829.71
513.21	2689.28
513.38	2576.93
513.56	2651.83
513.73	2621.40
513.90	2623.74
514.08	2609.70
514.25	2682.25
514.43	2644.81
514.60	2731.41
514.77	2642.46
514.95	2693.96
515.12	2663.53
515.29	2640.12
515.47	2822.69
515.64	2810.98
515.81	2682.25
515.99	2705.66
516.16	2450.54
516.33	2200.10
516.51	2263.30
516.68	2272.66
516.85	2275.00
517.03	2356.92
517.20	2581.61
517.37	2593.31
517.54	2593.31
517.72	2651.83
517.89	2413.09
518.06	2174.36
518.24	2445.86
518.41	2583.95
518.58	2630.76
518.75	2619.06
518.93	2551.18
519.10	2640.12
519.27	2593.31
519.45	2642.46
519.62	2705.66
519.79	2883.54
519.96	2644.81
520.14	2562.89
520.31	2597.99
520.48	2600.34
520.65	2658.85
520.83	2775.88
521.00	2698.64
521.17	2726.72
521.34	2715.02
521.52	2810.98
521.69	2764.17
521.86	2796.94
522.03	2665.87
522.20	2724.38
522.38	2525.44
522.55	2642.46
522.72	2642.46
522.89	2541.82
523.07	2764.17
523.24	2703.32
523.41	2803.96
523.58	2771.19
523.75	2829.71
523.92	2832.05
524.10	2810.98
524.27	2836.73
524.44	2656.51
524.61	2696.30
524.78	2764.17
524.96	2722.04
525.13	2717.36
525.30	2836.73
525.47	2881.20
525.64	2836.73
525.81	2586.29
525.98	2602.68
526.16	2385.01
526.33	2359.26
526.50	2422.45
526.67	2263.30
526.84	2502.03
527.01	2654.17
527.18	2579.27
527.36	2736.09
527.53	2731.41
527.70	2822.69
527.87	2579.27
528.04	2670.55
528.21	2743.11
528.38	2773.53
528.55	2874.18
528.72	2916.31
528.89	2885.88
529.07	2818.00
529.24	2759.49
529.41	2752.47
529.58	2619.06
529.75	2614.38
529.92	2747.79
530.09	2754.81
530.26	2775.88
530.43	2822.69
530.60	2801.62
530.77	2792.26
530.94	2745.45
531.11	2909.29
531.28	2738.43
531.46	2764.17
531.63	2759.49
531.80	2656.51
531.97	2693.96
532.14	2668.21
532.31	2452.88
532.48	2525.44
532.65	2581.61
532.82	2562.89
532.99	2726.72
533.16	2808.64
533.33	2827.37
533.50	2719.70
533.67	2637.78
533.84	2581.61
534.01	2609.70
534.18	2750.13
534.35	2780.56
534.52	2719.70
534.69	2759.49
534.86	2736.09
535.03	2705.66
535.20	2708.00
535.37	2981.84
535.54	2761.83
535.71	2754.81
535.88	2693.96
536.05	2626.08
536.22	2675.23
536.38	2590.97
536.55	2588.63
536.72	2499.69
536.89	2597.99
537.06	2726.72
537.23	2815.66
537.40	2722.04
537.57	2665.87
537.74	2708.00
537.91	2876.52
538.08	2612.04
538.25	2717.36
538.42	2799.28
538.59	2675.23
538.75	2794.60
538.92	2747.79
539.09	2612.04
539.26	2642.46
539.43	2558.21
539.60	2729.06
539.77	2633.10
539.94	2558.21
540.11	2504.37
540.28	2553.52
540.44	2562.89
540.61	2511.39
540.78	2628.42
540.95	2637.78
541.12	2703.32
541.29	2696.30
541.46	2813.32
541.62	2712.68
541.79	2764.17
541.96	2560.55
542.13	2668.21
542.30	2740.77
542.47	2679.91
542.63	2640.12
542.80	2656.51
542.97	2745.45
543.14	2602.68
543.31	2705.66
543.48	2911.63
543.64	2874.18
543.81	2750.13
543.98	2752.47
544.15	2675.23
544.32	2663.53
544.48	2724.38
544.65	2710.34
544.82	2708.00
544.99	2729.06
545.16	2703.32
545.32	2778.22
545.49	2913.97
545.66	3169.09
545.83	2923.33
546.00	2778.22
546.16	2665.87
546.33	2719.70
546.50	2691.62
546.67	2722.04
546.83	2640.12
547.00	2565.23
547.17	2633.10
547.34	2553.52
547.50	2534.80
547.67	2623.74
547.84	2593.31
548.00	2595.65
548.17	2602.68
548.34	2583.95
548.51	2661.19
548.67	2726.72
548.84	2534.80
549.01	2670.55
549.18	2595.65
549.34	2597.99
549.51	2607.36
549.68	2466.92
549.84	2583.95
550.01	2492.67
550.18	2656.51
550.34	2565.23
550.51	2537.14
550.68	2562.89
550.84	2506.71
551.01	2555.86
551.18	2616.72
551.34	2490.33
551.51	2558.21
551.68	2520.76
551.84	2607.36
552.01	2539.48
552.18	2473.95
552.34	2394.37
552.51	2399.05
552.68	2520.76
552.84	2483.31
553.01	2560.55
553.18	2523.10
553.34	2539.48
553.51	2602.68
553.67	2656.51
553.84	2553.52
554.01	2520.76
554.17	2525.44
554.34	2541.82
554.51	2612.04
554.67	2574.59
554.84	2689.28
555.00	2473.95
555.17	2649.49
555.33	2600.34
555.50	2476.29
555.67	2434.16
555.83	2310.11
556.00	2406.07
556.16	2513.74
556.33	2370.96
556.50	2478.63
556.66	2377.98
556.83	2319.47
556.99	2368.62
557.16	2487.99
557.32	2532.46
557.49	2401.39
557.65	2455.22
557.82	2392.03
557.98	2370.96
558.15	2340.54
558.32	2359.26
558.48	2272.66
558.65	2312.45
558.81	2359.26
558.98	2420.11
559.14	2359.26
559.31	2457.56
559.47	2417.77
559.64	2342.88
559.80	2338.20
559.97	2314.79
560.13	2452.88
560.30	2448.20
560.46	2590.97
560.63	2466.92
560.79	2396.71
560.96	2314.79
561.12	2263.30
561.29	2284.36
561.45	2321.81
561.61	2338.20
561.78	2406.07
561.94	2436.50
562.11	2258.62
562.27	2242.23
562.44	2253.94
562.60	2237.55
562.77	2464.58
562.93	2457.56
563.10	2326.49
563.26	2232.87
563.42	2396.71
563.59	2286.70
563.75	2272.66
563.92	2270.32
564.08	2317.13
564.24	2303.09
564.41	2303.09
564.57	2284.36
564.74	2368.62
564.90	2155.63
565.07	2298.41
565.23	2197.76
565.39	2202.44
565.56	2148.61
565.72	2186.06
565.88	2242.23
566.05	2235.21
566.21	2286.70
566.38	2279.68
566.54	2211.81
566.70	2256.28
566.87	2202.44
567.03	2211.81
567.19	2230.53
567.36	2293.72
567.52	2176.70
567.68	2272.66
567.85	2188.40
568.01	2139.25
568.17	2113.50
568.34	2043.29
568.50	2214.15
568.66	2064.35
568.83	2244.57
568.99	2087.76
569.15	2305.43
569.32	2134.57
569.48	2118.18
569.64	2019.88
569.81	2127.55
569.97	2125.21
570.13	2195.42
570.30	2087.76
570.46	2064.35
570.62	1984.77
570.78	1947.33
570.95	2057.33
571.11	2146.27
571.27	2080.74
571.43	2036.27
571.60	2078.40
571.76	2176.70
571.92	2099.46
572.09	2059.67
572.25	2249.25
572.41	2146.27
572.57	2115.84
572.74	2073.71
572.90	2120.53
573.06	2085.42
573.22	2141.59
573.38	2202.44
573.55	2146.27
573.71	2024.56
573.87	2179.04
574.03	2148.61
574.20	2162.66
574.36	1996.48
574.52	2047.97
574.68	2054.99
574.84	1968.39
575.01	1912.22
575.17	2104.14
575.33	1966.05
575.49	1975.41
575.65	2031.58
575.82	1998.82
575.98	2045.63
576.14	2085.42
576.30	2136.91
576.46	2160.31
576.62	2108.82
576.79	2111.16
576.95	2050.31
577.11	1982.43
577.27	1961.37
577.43	2029.24
577.59	2083.08
577.75	2003.50
577.92	1886.47
578.08	1975.41
578.24	1865.41
578.40	2122.87
578.56	2106.48
578.72	2066.69
578.88	2113.50
579.04	2047.97
579.21	1973.07
579.37	2078.40
579.53	1987.11
579.69	2101.80
579.85	1987.11
580.01	2012.86
580.17	1954.35
580.33	1987.11
580.49	2050.31
580.65	2054.99
580.82	1989.46
580.98	2029.24
581.14	2122.87
581.30	2120.53
581.46	2052.65
581.62	2040.95
581.78	2122.87
581.94	2183.72
582.10	2172.02
582.26	2052.65
582.42	2083.08
582.58	2111.16
582.74	2043.29
582.90	2073.71
583.06	2076.06
583.22	2087.76
583.38	2012.86
583.54	2057.33
583.70	2223.51
583.86	2148.61
584.02	2176.70
584.18	2115.84
584.34	2001.16
584.50	2069.03
584.66	2066.69
584.82	2024.56
584.98	1947.33
585.14	1966.05
585.30	2076.06
585.46	1905.20
585.62	2033.93
585.78	1926.26
585.94	1980.09
586.10	2040.95
586.26	2024.56
586.42	2054.99
586.58	2069.03
586.74	1907.54
586.90	1949.67
587.06	1989.46
587.22	1996.48
587.38	2008.18
587.54	1816.26
587.70	1860.73
587.86	1881.79
588.02	1797.53
588.18	1783.49
588.34	1689.87
588.49	1603.27
588.65	1598.59
588.81	1589.22
588.97	1507.30
589.13	1589.22
589.29	1678.16
589.45	1671.14
589.61	1657.10
589.77	1659.44
589.93	1703.91
590.08	1842.00
590.24	1806.89
590.40	1776.47
590.56	1820.94
590.72	1771.79
590.88	1734.34
591.04	1743.70
591.20	1867.75
591.35	1781.15
591.51	1846.68
591.67	1692.21
591.83	1778.81
591.99	1846.68
592.15	1832.64
592.31	1813.92
592.46	1811.57
592.62	1853.70
592.78	1776.47
592.94	1732.00
593.10	1774.13
593.26	1905.20
593.41	1769.44
593.57	1741.36
593.73	1680.50
593.89	1650.08
594.05	1626.67
594.20	1617.31
594.36	1755.40
594.52	1689.87
594.68	1696.89
594.84	1675.82
594.99	1774.13
595.15	1851.36
595.31	1795.19
595.47	1797.53
595.62	1830.30
595.78	1767.10
595.94	1849.02
596.10	1792.85
596.25	1757.74
596.41	1713.27
596.57	1722.63
596.73	1900.52
596.88	1734.34
597.04	1769.44
597.20	1682.85
597.36	1741.36
597.51	1753.06
597.67	1755.40
597.83	1713.27
597.99	1741.36
598.14	1778.81
598.30	1710.93
598.46	1774.13
598.61	1813.92
598.77	1739.02
598.93	1844.34
599.09	1863.07
599.24	1799.87
599.40	1722.63
599.56	1842.00
599.71	1778.81
599.87	1680.50
600.03	1750.72
600.18	1764.76
600.34	1799.87
600.50	1739.02
600.65	1820.94
600.81	1785.83
600.97	1776.47
601.12	1769.44
601.28	1636.03
601.44	1767.10
601.59	1680.50
601.75	1694.55
601.91	1783.49
602.06	1795.19
602.22	1776.47
602.37	1727.32
602.53	1724.97
602.69	1739.02
602.84	1774.13
603.00	1739.02
603.16	1736.68
603.31	1783.49
603.47	1748.38
603.62	1715.61
603.78	1823.28
603.94	1820.94
604.09	1818.60
604.25	1783.49
604.40	1853.70
604.56	1750.72
604.71	1884.13
604.87	1785.83
605.03	1706.25
605.18	1820.94
605.34	1799.87
605.49	1650.08
605.65	1724.97
605.80	1689.87
605.96	1689.87
606.12	1771.79
606.27	1753.06
606.43	1710.93
606.58	1724.97
606.74	1748.38
606.89	1589.22
607.05	1724.97
607.20	1605.61
607.36	1600.93
607.51	1659.44
607.67	1624.33
607.82	1781.15
607.98	1750.72
608.13	1701.57
608.29	1699.23
608.44	1600.93
608.60	1652.42
608.75	1851.36
608.91	1617.31
609.06	1722.63
609.22	1724.97
609.37	1825.62
609.53	1739.02
609.68	1746.04
609.84	1788.17
609.99	1720.29
610.15	1865.41
610.30	1898.17
610.46	2057.33
610.61	2017.54
610.76	1998.82
610.92	2080.74
611.07	1930.94
611.23	1994.14
611.38	1980.09
611.54	1750.72
611.69	1849.02
611.84	1823.28
612.00	1699.23
612.15	1652.42
612.31	1736.68
612.46	1741.36
612.62	1863.07
612.77	1724.97
612.92	1736.68
613.08	1703.91
613.23	1734.34
613.39	1647.74
613.54	1724.97
613.69	1659.44
613.85	1694.55
614.00	1586.88
614.15	1680.50
614.31	1610.29
614.46	1661.78
614.62	1605.61
614.77	1596.25
614.92	1624.33
615.08	1600.93
615.23	1668.80
615.38	1614.97
615.54	1547.09
615.69	1500.28
615.84	1519.01
616.00	1584.54
616.15	1563.48
616.30	1540.07
616.46	1621.99
616.61	1575.18
616.76	1561.14
616.92	1591.56
617.07	1619.65
617.22	1621.99
617.37	1572.84
617.53	1626.67
617.68	1547.09
617.83	1633.69
617.99	1607.95
618.14	1685.19
618.29	1671.14
618.45	1666.46
618.60	1486.24
618.75	1516.67
618.90	1598.59
619.06	1547.09
619.21	1666.46
619.36	1603.27
619.51	1624.33
619.67	1516.67
619.82	1469.86
619.97	1523.69
620.12	1636.03
620.28	1504.96
620.43	1607.95
620.58	1633.69
620.73	1668.80
620.89	1554.12
621.04	1514.33
621.19	1561.14
621.34	1556.46
621.49	1528.37
621.65	1612.63
621.80	1516.67
621.95	1474.54
622.10	1479.22
622.25	1586.88
622.41	1434.75
622.56	1511.99
622.71	1453.47
622.86	1483.90
623.01	1652.42
623.16	1568.16
623.32	1472.20
623.47	1455.81
623.62	1549.43
623.77	1451.13
623.92	1458.15
624.07	1355.17
624.23	1483.90
624.38	1437.09
624.53	1345.81
624.68	1516.67
624.83	1453.47
624.98	1444.11
625.13	1420.71
625.29	1373.89
625.44	1404.32
625.59	1460.49
625.74	1500.28
625.89	1423.05
626.04	1263.89
626.19	1357.51
626.34	1547.09
626.49	1341.13
626.65	1406.66
626.80	1474.54
626.95	1453.47
627.10	1282.61
627.25	1376.24
627.40	1224.10
627.55	1310.70
627.70	1306.02
627.85	1324.74
628.00	1348.15
628.15	1317.72
628.30	1380.92
628.45	1401.98
628.60	1324.74
628.76	1409.00
628.91	1294.32
629.06	1439.43
629.21	1301.34
629.36	1474.54
629.51	1310.70
629.66	1366.87
629.81	1322.40
629.96	1355.17
630.11	1418.36
630.26	1413.68
630.41	1364.53
630.56	1376.24
630.71	1313.04
630.86	1320.06
631.01	1383.26
631.16	1324.74
631.31	1331.76
631.46	1343.47
631.61	1338.79
631.76	1259.21
631.91	1266.23
632.06	1434.75
632.21	1406.66
632.36	1397.30
632.51	1329.42
632.66	1390.28
632.81	1352.83
632.96	1306.02
633.10	1322.40
633.25	1364.53
633.40	1240.48
633.55	1331.76
633.70	1390.28
633.85	1336.45
634.00	1343.47
634.15	1348.15
634.30	1355.17
634.45	1406.66
634.60	1411.34
634.75	1427.73
634.90	1383.26
635.05	1259.21
635.19	1380.92
635.34	1238.14
635.49	1406.66
635.64	1284.95
635.79	1240.48
635.94	1306.02
636.09	1284.95
636.24	1434.75
636.39	1331.76
636.53	1380.92
636.68	1357.51
636.83	1376.24
636.98	1317.72
637.13	1336.45
637.28	1376.24
637.43	1357.51
637.57	1348.15
637.72	1331.76
637.87	1313.04
638.02	1315.38
638.17	1303.68
638.32	1284.95
638.46	1249.85
638.61	1343.47
638.76	1310.70
638.91	1242.82
639.06	1235.80
639.20	1345.81
639.35	1296.66
639.50	1343.47
639.65	1376.24
639.80	1184.31
639.94	1263.89
640.09	1334.11
640.24	1378.58
640.39	1233.46
640.54	1245.16
640.68	1315.38
640.83	1313.04
640.98	1282.61
641.13	1186.65
641.27	1296.66
641.42	1249.85
641.57	1231.12
641.72	1331.76
641.86	1228.78
642.01	1268.57
642.16	1256.87
642.31	1345.81
642.45	1177.29
642.60	1338.79
642.75	1219.42
642.90	1338.79
643.04	1263.89
643.19	1231.12
643.34	1266.23
643.48	1301.34
643.63	1404.32
643.78	1301.34
643.93	1212.40
644.07	1331.76
644.22	1210.06
644.37	1160.91
644.51	1221.76
644.66	1193.67
644.81	1210.06
644.95	1252.19
645.10	1231.12
645.25	1228.78
645.39	1151.54
645.54	1186.65
645.69	1196.01
645.83	1172.61
645.98	1186.65
646.13	1184.31
646.27	1179.63
646.42	1144.52
646.57	1153.88
646.71	1137.50
646.86	1109.41
647.00	1149.20
647.15	1170.27
647.30	1067.28
647.44	1090.69
647.59	1022.81
647.74	1132.82
647.88	1165.59
648.03	1027.50
648.17	1158.57
648.32	1090.69
648.47	1104.73
648.61	1100.05
648.76	1069.62
648.90	1048.56
649.05	1146.86
649.20	1093.03
649.34	1137.50
649.49	1160.91
649.63	1095.37
649.78	1165.59
649.92	1200.69
650.07	1090.69
650.21	1160.91
650.36	1174.95
650.51	1196.01
650.65	1263.89
650.80	1128.14
650.94	992.39
651.09	1116.44
651.23	1104.73
651.38	1069.62
651.52	1137.50
651.67	1111.75
651.81	1088.35
651.96	1132.82
652.10	1144.52
652.25	1179.63
652.39	1273.25
652.54	1184.31
652.68	1050.90
652.83	1130.48
652.97	1116.44
653.12	1111.75
653.26	1132.82
653.41	1149.20
653.55	1116.44
653.70	1076.65
653.84	1069.62
653.99	1102.39
654.13	1100.05
654.27	1097.71
654.42	1102.39
654.56	1050.90
654.71	1057.92
654.85	1064.94
655.00	999.41
655.14	1006.43
655.29	933.87
655.43	990.05
655.57	835.57
655.72	938.55
655.86	828.55
656.01	915.15
656.15	992.39
656.30	940.90
656.44	1043.88
656.58	1029.84
656.73	940.90
656.87	1018.13
657.01	1184.31
657.16	1114.10
657.30	1074.31
657.45	1057.92
657.59	1076.65
657.73	1064.94
657.88	1083.67
658.02	1210.06
658.16	1004.09
658.31	1020.47
658.45	1008.77
658.60	1022.81
658.74	1083.67
658.88	1078.99
659.03	1062.60
659.17	1088.35
659.31	1090.69
659.46	1067.28
659.60	1015.79
659.74	1060.26
659.89	1067.28
660.03	1069.62
660.17	1107.07
660.32	1060.26
660.46	1104.73
660.60	1088.35
660.74	1050.90
660.89	1121.12
661.03	1078.99
661.17	1217.08
661.32	1095.37
661.46	1020.47
661.60	1088.35
661.74	1151.54
661.89	1015.79
662.03	1078.99
662.17	1069.62
662.31	931.53
662.46	1048.56
662.60	1083.67
662.74	1029.84
662.88	994.73
663.03	1062.60
663.17	992.39
663.31	990.05
663.45	910.47
663.60	1015.79
663.74	1036.86
663.88	1011.11
664.02	933.87
664.17	959.62
664.31	1022.81
664.45	1076.65
664.59	1050.90
664.73	1057.92
664.88	1071.97
665.02	1074.31
665.16	968.98
665.30	1071.97
665.44	997.07
665.59	1011.11
665.73	1004.09
665.87	1011.11
666.01	971.32
666.15	954.94
666.29	1039.20
666.44	985.37
666.58	1121.12
666.72	919.83
666.86	997.07
667.00	1015.79
667.14	1001.75
667.28	957.28
667.43	964.30
667.57	1053.24
667.71	1104.73
667.85	1020.47
667.99	1018.13
668.13	1025.15
668.27	938.55
668.41	1015.79
668.56	1004.09
668.70	999.41
668.84	971.32
668.98	919.83
669.12	1018.13
669.26	990.05
669.40	905.79
669.54	983.02
669.68	922.17
669.82	1022.81
669.96	994.73
670.10	1018.13
670.25	992.39
670.39	994.73
670.53	952.60
670.67	964.30
670.81	950.26
670.95	926.85
671.09	870.68
671.23	1004.09
671.37	954.94
671.51	1034.52
671.65	945.58
671.79	922.17
671.93	915.15
672.07	1039.20
672.21	866.00
672.35	964.30
672.49	861.32
672.63	917.49
672.77	940.90
672.91	891.74
673.05	889.40
673.19	887.06
673.33	940.90
673.47	959.62
673.61	971.32
673.75	891.74
673.89	901.11
674.03	952.60
674.17	912.81
674.31	912.81
674.45	919.83
674.59	994.73
674.73	880.04
674.87	896.43
675.01	884.72
675.15	851.96
675.29	866.00
675.43	917.49
675.56	973.66
675.70	971.32
675.84	882.38
675.98	910.47
676.12	816.85
676.26	898.77
676.40	875.36
676.54	842.59
676.68	835.57
676.82	875.36
676.96	905.79
677.10	938.55
677.23	868.34
677.37	903.45
677.51	849.61
677.65	945.58
677.79	858.98
677.93	823.87
678.07	856.64
678.21	772.38
678.34	933.87
678.48	844.93
678.62	877.70
678.76	814.51
678.90	891.74
679.04	826.21
679.18	889.40
679.31	812.17
679.45	821.53
679.59	877.70
679.73	833.23
679.87	837.91
680.00	835.57
680.14	784.08
680.28	842.59
680.42	772.38
680.56	863.66
680.70	870.68
680.83	826.21
680.97	786.42
681.11	844.93
681.25	840.25
681.39	800.46
681.52	772.38
681.66	767.70
681.80	793.44
681.94	763.01
682.07	767.70
682.21	798.12
682.35	695.14
682.49	702.16
682.62	777.06
682.76	840.25
682.90	720.88
683.04	727.91
683.17	739.61
683.31	716.20
683.45	798.12
683.59	826.21
683.72	727.91
683.86	767.70
684.00	727.91
684.13	767.70
684.27	720.88
684.41	723.23
684.55	690.46
684.68	770.04
684.82	746.63
684.96	751.31
685.09	730.25
685.23	734.93
685.37	737.27
685.50	748.97
685.64	741.95
685.78	688.12
685.91	741.95
686.05	709.18
686.19	606.20
686.32	564.07
686.46	482.15
686.60	433.00
686.73	517.26
686.87	442.36
687.01	463.43
687.14	491.51
687.28	489.17
687.42	449.38
687.55	521.94
687.69	561.73
687.82	554.71
687.96	688.12
688.10	599.18
688.23	561.73
688.37	596.84
688.50	594.50
688.64	538.32
688.78	571.09
688.91	578.11
689.05	566.41
689.18	566.41
689.32	524.28
689.46	601.52
689.59	552.37
689.73	627.26
689.86	561.73
690.00	505.56
690.13	606.20
690.27	557.05
690.41	580.45
690.54	559.39
690.68	578.11
690.81	601.52
690.95	627.26
691.08	545.34
691.22	550.03
691.35	631.94
691.49	557.05
691.62	585.13
691.76	613.22
691.89	559.39
692.03	561.73
692.16	601.52
692.30	552.37
692.43	561.73
692.57	547.69
692.70	587.47
692.84	601.52
692.97	575.77
693.11	624.92
693.24	571.09
693.38	547.69
693.51	524.28
693.65	507.90
693.78	512.58
693.92	547.69
694.05	610.88
694.19	503.22
694.32	519.60
694.45	449.38
694.59	528.96
694.72	571.09
694.86	540.66
694.99	547.69
695.13	461.09
695.26	472.79
695.39	578.11
695.53	519.60
695.66	535.98
695.80	510.24
695.93	578.11
696.07	505.56
696.20	585.13
696.33	608.54
696.47	550.03
696.60	603.86
696.73	620.24
696.87	592.16
697.00	634.29
697.14	491.51
697.27	500.87
697.40	629.60
697.54	547.69
697.67	535.98
697.80	454.06
697.94	634.29
698.07	561.73
698.21	447.04
698.34	496.19
698.47	465.77
698.61	463.43
698.74	482.15
698.87	489.17
699.01	514.92
699.14	507.90
699.27	552.37
699.40	505.56
699.54	397.89
699.67	482.15
699.80	491.51
699.94	458.74
700.07	500.87
700.20	517.26
700.34	514.92
700.47	519.60
700.60	440.02
700.73	503.22
700.87	521.94
701.00	475.13
701.13	458.74
701.26	456.40
701.40	463.43
701.53	514.92
701.66	416.62
701.79	463.43
701.93	435.34
702.06	465.77
702.19	512.58
702.32	514.92
702.46	470.45
702.59	496.19
702.72	470.45
702.85	538.32
702.99	512.58
703.12	543.00
703.25	461.09
703.38	505.56
703.51	472.79
703.65	421.30
703.78	463.43
703.91	496.19
704.04	517.26
704.17	465.77
704.31	512.58
704.44	491.51
704.57	416.62
704.70	489.17
704.83	500.87
704.96	465.77
705.10	479.81
705.23	505.56
>>>>>End Processed Spectral Data<<<<<
