SpectraSuite Data File
++++++++++++++++++++++++++++++++++++
Date: Mon Sep 30 18:11:53 GMT-05:00 2013
User: stostad
Dark Spectrum Present: No
Reference Spectrum Present: No
Number of Sampled Component Spectra: 1
Spectrometers: USB2+H05261
Integration Time (usec): 100000 (USB2+H05261)
Spectra Averaged: 1 (USB2+H05261)
Boxcar Smoothing: 0 (USB2+H05261)
Correct for Electrical Dark: No (USB2+H05261)
Strobe/Lamp Enabled: No (USB2+H05261)
Correct for Detector Non-linearity: No (USB2+H05261)
Correct for Stray Light: No (USB2+H05261)
Number of Pixels in Processed Spectrum: 2048
>>>>>Begin Processed Spectral Data<<<<<
365.73	168.52
365.92	168.52
366.12	168.52
366.32	79.58
366.52	23.41
366.72	56.17
366.91	0.00
367.11	9.36
367.31	30.43
367.51	49.15
367.70	86.60
367.90	21.06
368.10	0.00
368.30	0.00
368.49	0.00
368.69	23.41
368.89	14.04
369.09	14.04
369.28	0.00
369.48	0.00
369.68	98.30
369.87	23.41
370.07	28.09
370.27	86.60
370.47	117.03
370.66	154.48
370.86	306.61
371.06	280.86
371.25	269.16
371.45	238.73
371.65	250.44
371.84	205.97
372.04	266.82
372.24	320.65
372.44	315.97
372.63	297.25
372.83	294.91
373.03	264.48
373.22	297.25
373.42	278.52
373.62	320.65
373.81	290.23
374.01	341.72
374.21	301.93
374.40	320.65
374.60	332.36
374.79	414.27
374.99	376.83
375.19	327.68
375.38	390.87
375.58	348.74
375.78	414.27
375.97	351.08
376.17	423.64
376.37	337.04
376.56	386.19
376.76	383.85
376.95	369.80
377.15	372.15
377.35	411.93
377.54	425.98
377.74	414.27
377.93	367.46
378.13	381.51
378.33	489.17
378.52	423.64
378.72	409.59
378.91	341.72
379.11	337.04
379.31	374.49
379.50	341.72
379.70	381.51
379.89	407.25
380.09	344.06
380.28	386.19
380.48	346.40
380.68	322.99
380.87	330.02
381.07	280.86
381.26	327.68
381.46	327.68
381.65	348.74
381.85	334.70
382.04	346.40
382.24	348.74
382.43	374.49
382.63	273.84
382.83	332.36
383.02	386.19
383.22	325.33
383.41	250.44
383.61	287.89
383.80	383.85
384.00	372.15
384.19	362.78
384.39	365.12
384.58	411.93
384.78	423.64
384.97	367.46
385.17	348.74
385.36	414.27
385.56	332.36
385.75	381.51
385.95	369.80
386.14	435.34
386.34	383.85
386.53	355.76
386.72	362.78
386.92	428.32
387.11	409.59
387.31	447.04
387.50	390.87
387.70	327.68
387.89	379.17
388.09	414.27
388.28	372.15
388.48	383.85
388.67	437.68
388.86	456.40
389.06	470.45
389.25	503.22
389.45	423.64
389.64	402.57
389.84	507.90
390.03	512.58
390.22	512.58
390.42	433.00
390.61	430.66
390.81	409.59
391.00	528.96
391.19	444.70
391.39	421.30
391.58	447.04
391.78	397.89
391.97	423.64
392.16	397.89
392.36	341.72
392.55	348.74
392.75	292.57
392.94	308.95
393.13	353.42
393.33	346.40
393.52	337.04
393.71	409.59
393.91	447.04
394.10	472.79
394.29	531.30
394.49	484.49
394.68	507.90
394.88	554.71
395.07	507.90
395.26	601.52
395.46	533.64
395.65	461.09
395.84	407.25
396.04	475.13
396.23	393.21
396.42	301.93
396.62	390.87
396.81	320.65
397.00	440.02
397.19	507.90
397.39	433.00
397.58	528.96
397.77	561.73
397.97	610.88
398.16	683.44
398.35	720.88
398.55	552.37
398.74	587.47
398.93	674.07
399.12	648.33
399.32	645.99
399.51	603.86
399.70	720.88
399.90	678.76
400.09	713.86
400.28	716.20
400.47	702.16
400.67	741.95
400.86	648.33
401.05	664.71
401.24	734.93
401.44	685.78
401.63	758.33
401.82	830.89
402.01	716.20
402.21	723.23
402.40	667.05
402.59	669.39
402.78	636.63
402.97	702.16
403.17	695.14
403.36	746.63
403.55	709.18
403.74	755.99
403.93	716.20
404.13	657.69
404.32	711.52
404.51	753.65
404.70	704.50
404.89	713.86
405.09	781.74
405.28	725.57
405.47	653.01
405.66	704.50
405.85	730.25
406.05	744.29
406.24	645.99
406.43	802.80
406.62	748.97
406.81	763.01
407.00	667.05
407.20	695.14
407.39	760.67
407.58	657.69
407.77	823.87
407.96	786.42
408.15	821.53
408.34	774.72
408.54	788.76
408.73	779.40
408.92	861.32
409.11	755.99
409.30	763.01
409.49	660.03
409.68	617.90
409.87	737.27
410.07	737.27
410.26	748.97
410.45	765.36
410.64	791.10
410.83	774.72
411.02	763.01
411.21	828.55
411.40	795.78
411.59	800.46
411.78	882.38
411.98	856.64
412.17	767.70
412.36	840.25
412.55	753.65
412.74	812.17
412.93	854.30
413.12	837.91
413.31	903.45
413.50	877.70
413.69	802.80
413.88	833.23
414.07	786.42
414.26	858.98
414.45	908.13
414.64	777.06
414.83	889.40
415.02	905.79
415.22	840.25
415.41	875.36
415.60	896.43
415.79	837.91
415.98	968.98
416.17	959.62
416.36	877.70
416.55	851.96
416.74	875.36
416.93	922.17
417.12	882.38
417.31	957.28
417.50	828.55
417.69	936.21
417.88	884.72
418.07	896.43
418.26	896.43
418.45	877.70
418.64	976.00
418.83	959.62
419.02	936.21
419.21	765.36
419.39	842.59
419.58	763.01
419.77	720.88
419.96	887.06
420.15	980.68
420.34	992.39
420.53	917.49
420.72	880.04
420.91	999.41
421.10	931.53
421.29	910.47
421.48	901.11
421.67	966.64
421.86	933.87
422.05	866.00
422.24	734.93
422.43	903.45
422.61	980.68
422.80	966.64
422.99	884.72
423.18	919.83
423.37	994.73
423.56	990.05
423.75	994.73
423.94	978.34
424.13	842.59
424.32	781.74
424.50	880.04
424.69	912.81
424.88	936.21
425.07	861.32
425.26	940.90
425.45	840.25
425.64	873.02
425.83	924.51
426.01	990.05
426.20	968.98
426.39	912.81
426.58	821.53
426.77	835.57
426.96	866.00
427.15	903.45
427.33	807.48
427.52	901.11
427.71	863.66
427.90	896.43
428.09	772.38
428.28	915.15
428.46	903.45
428.65	821.53
428.84	866.00
429.03	901.11
429.22	823.87
429.40	681.10
429.59	683.44
429.78	685.78
429.97	772.38
430.16	653.01
430.34	739.61
430.53	557.05
430.72	748.97
430.91	809.83
431.10	952.60
431.28	1090.69
431.47	1086.01
431.66	898.77
431.85	910.47
432.03	826.21
432.22	917.49
432.41	901.11
432.60	954.94
432.79	1036.86
432.97	924.51
433.16	844.93
433.35	873.02
433.54	688.12
433.72	868.34
433.91	887.06
434.10	964.30
434.28	966.64
434.47	1001.75
434.66	961.96
434.85	931.53
435.03	1055.58
435.22	1153.88
435.41	1188.99
435.59	1266.23
435.78	1064.94
435.97	1090.69
436.16	1095.37
436.34	1062.60
436.53	1027.50
436.72	1104.73
436.90	1046.22
437.09	1036.86
437.28	1004.09
437.46	990.05
437.65	1025.15
437.84	952.60
438.02	861.32
438.21	912.81
438.40	945.58
438.58	994.73
438.77	1025.15
438.96	978.34
439.14	1055.58
439.33	1055.58
439.52	1020.47
439.70	959.62
439.89	1029.84
440.08	945.58
440.26	919.83
440.45	1036.86
440.63	1149.20
440.82	1116.44
441.01	1118.78
441.19	1090.69
441.38	1076.65
441.57	1116.44
441.75	1062.60
441.94	1228.78
442.12	1210.06
442.31	1144.52
442.50	1174.95
442.68	1146.86
442.87	1163.25
443.05	1088.35
443.24	1231.12
443.43	1200.69
443.61	1146.86
443.80	1135.16
443.98	1118.78
444.17	1203.04
444.35	1167.93
444.54	1210.06
444.73	1259.21
444.91	1146.86
445.10	1074.31
445.28	1109.41
445.47	978.34
445.65	1123.46
445.84	1163.25
446.02	1207.72
446.21	1083.67
446.39	1156.22
446.58	1142.18
446.77	1118.78
446.95	1188.99
447.14	1188.99
447.32	1277.93
447.51	1231.12
447.69	1081.33
447.88	1100.05
448.06	1263.89
448.25	1184.31
448.43	1214.74
448.62	1205.38
448.80	1107.07
448.99	1219.42
449.17	1128.14
449.36	1170.27
449.54	1291.98
449.73	1160.91
449.91	1198.35
450.10	1317.72
450.28	1348.15
450.46	1383.26
450.65	1254.53
450.83	1322.40
451.02	1226.44
451.20	1287.29
451.39	1256.87
451.57	1167.93
451.76	1181.97
451.94	1174.95
452.13	1228.78
452.31	1242.82
452.49	1165.59
452.68	1149.20
452.86	1181.97
453.05	1118.78
453.23	1069.62
453.42	1228.78
453.60	1217.08
453.78	1263.89
453.97	1191.33
454.15	1128.14
454.34	1172.61
454.52	1170.27
454.70	1205.38
454.89	1252.19
455.07	1198.35
455.26	1217.08
455.44	1254.53
455.62	1247.51
455.81	1240.48
455.99	1313.04
456.17	1273.25
456.36	1301.34
456.54	1282.61
456.73	1306.02
456.91	1324.74
457.09	1303.68
457.28	1409.00
457.46	1240.48
457.64	1252.19
457.83	1186.65
458.01	1158.57
458.19	1329.42
458.38	1252.19
458.56	1324.74
458.74	1203.04
458.93	1266.23
459.11	1256.87
459.29	1231.12
459.48	1313.04
459.66	1397.30
459.84	1270.91
460.03	1315.38
460.21	1348.15
460.39	1256.87
460.57	1324.74
460.76	1355.17
460.94	1341.13
461.12	1268.57
461.31	1252.19
461.49	1387.94
461.67	1315.38
461.85	1355.17
462.04	1336.45
462.22	1409.00
462.40	1338.79
462.59	1378.58
462.77	1348.15
462.95	1329.42
463.13	1313.04
463.32	1310.70
463.50	1392.62
463.68	1252.19
463.86	1385.60
464.05	1327.08
464.23	1376.24
464.41	1364.53
464.59	1273.25
464.78	1338.79
464.96	1273.25
465.14	1240.48
465.32	1369.21
465.50	1390.28
465.69	1462.83
465.87	1336.45
466.05	1231.12
466.23	1179.63
466.41	1137.50
466.60	1217.08
466.78	1266.23
466.96	1268.57
467.14	1310.70
467.32	1355.17
467.51	1268.57
467.69	1317.72
467.87	1338.79
468.05	1299.00
468.23	1301.34
468.41	1329.42
468.60	1338.79
468.78	1317.72
468.96	1327.08
469.14	1385.60
469.32	1273.25
469.50	1263.89
469.69	1310.70
469.87	1334.11
470.05	1266.23
470.23	1294.32
470.41	1310.70
470.59	1217.08
470.77	1252.19
470.95	1338.79
471.14	1315.38
471.32	1324.74
471.50	1310.70
471.68	1385.60
471.86	1366.87
472.04	1299.00
472.22	1383.26
472.40	1270.91
472.58	1214.74
472.77	1273.25
472.95	1348.15
473.13	1348.15
473.31	1378.58
473.49	1362.19
473.67	1306.02
473.85	1385.60
474.03	1383.26
474.21	1401.98
474.39	1427.73
474.57	1474.54
474.75	1399.64
474.93	1418.36
475.12	1401.98
475.30	1378.58
475.48	1416.02
475.66	1425.39
475.84	1334.11
476.02	1357.51
476.20	1434.75
476.38	1413.68
476.56	1458.15
476.74	1430.07
476.92	1511.99
477.10	1465.18
477.28	1446.45
477.46	1474.54
477.64	1493.26
477.82	1514.33
478.00	1479.22
478.18	1521.35
478.36	1481.56
478.54	1366.87
478.72	1462.83
478.90	1540.07
479.08	1586.88
479.26	1591.56
479.44	1511.99
479.62	1514.33
479.80	1509.65
479.98	1645.40
480.16	1540.07
480.34	1565.82
480.52	1563.48
480.70	1614.97
480.88	1661.78
481.06	1537.73
481.24	1586.88
481.41	1689.87
481.59	1675.82
481.77	1717.95
481.95	1633.69
482.13	1729.66
482.31	1657.10
482.49	1724.97
482.67	1746.04
482.85	1666.46
483.03	1727.32
483.21	1631.35
483.39	1760.08
483.57	1659.44
483.74	1706.25
483.92	1813.92
484.10	1830.30
484.28	1661.78
484.46	1842.00
484.64	1781.15
484.82	1785.83
485.00	1685.19
485.18	1645.40
485.35	1586.88
485.53	1479.22
485.71	1401.98
485.89	1486.24
486.07	1441.77
486.25	1591.56
486.43	1788.17
486.61	1757.74
486.78	1717.95
486.96	1717.95
487.14	1874.77
487.32	1820.94
487.50	1886.47
487.68	1973.07
487.85	1844.34
488.03	1902.86
488.21	1743.70
488.39	1624.33
488.57	1767.10
488.75	1762.42
488.92	2141.59
489.10	2125.21
489.28	2139.25
489.46	1970.73
489.64	2010.52
489.81	2024.56
489.99	1956.69
490.17	1956.69
490.35	2115.84
490.53	1930.94
490.70	1954.35
490.88	1991.80
491.06	2071.37
491.24	2022.22
491.41	2029.24
491.59	1926.26
491.77	1930.94
491.95	1935.62
492.13	2029.24
492.30	2057.33
492.48	2092.44
492.66	2162.66
492.84	2200.10
493.01	2134.57
493.19	2052.65
493.37	2008.18
493.54	2132.23
493.72	2136.91
493.90	2258.62
494.08	2251.60
494.25	2211.81
494.43	2223.51
494.61	2214.15
494.79	2242.23
494.96	2221.17
495.14	2204.78
495.32	2069.03
495.49	2181.38
495.67	2298.41
495.85	2328.83
496.02	2251.60
496.20	2303.09
496.38	2296.07
496.55	2305.43
496.73	2195.42
496.91	2272.66
497.09	2340.54
497.26	2389.69
497.44	2361.60
497.62	2160.31
497.79	2094.78
497.97	2139.25
498.14	2113.50
498.32	2335.85
498.50	2230.53
498.67	2415.43
498.85	2230.53
499.03	2300.75
499.20	2284.36
499.38	2338.20
499.56	2265.64
499.73	2373.30
499.91	2169.68
500.08	2253.94
500.26	2200.10
500.44	2246.91
500.61	2207.13
500.79	2120.53
500.97	2150.95
501.14	2176.70
501.32	2181.38
501.49	2228.19
501.67	2108.82
501.84	2317.13
502.02	2296.07
502.20	2417.77
502.37	2139.25
502.55	2317.13
502.72	2328.83
502.90	2305.43
503.07	2319.47
503.25	2139.25
503.43	2071.37
503.60	2108.82
503.78	2029.24
503.95	2181.38
504.13	2267.98
504.30	2420.11
504.48	2363.94
504.65	2347.56
504.83	2282.02
505.01	2345.22
505.18	2413.09
505.36	2345.22
505.53	2434.16
505.71	2530.12
505.88	2403.73
506.06	2380.32
506.23	2392.03
506.41	2305.43
506.58	2263.30
506.76	2314.79
506.93	2265.64
507.11	2258.62
507.28	2326.49
507.46	2319.47
507.63	2267.98
507.81	2197.76
507.98	2148.61
508.16	2406.07
508.33	2368.62
508.50	2548.84
508.68	2441.18
508.85	2506.71
509.03	2377.98
509.20	2424.80
509.38	2363.94
509.55	2333.51
509.73	2321.81
509.90	2333.51
510.08	2345.22
510.25	2399.05
510.42	2368.62
510.60	2516.08
510.77	2382.67
510.95	2466.92
511.12	2490.33
511.30	2504.37
511.47	2473.95
511.64	2537.14
511.82	2289.04
511.99	2410.75
512.17	2167.34
512.34	2310.11
512.51	2225.85
512.69	2399.05
512.86	2394.37
513.04	2455.22
513.21	2403.73
513.38	2328.83
513.56	2209.47
513.73	2216.49
513.90	2256.28
514.08	2385.01
514.25	2277.34
514.43	2270.32
514.60	2305.43
514.77	2438.84
514.95	2349.90
515.12	2349.90
515.29	2464.58
515.47	2441.18
515.64	2303.09
515.81	2363.94
515.99	2345.22
516.16	2118.18
516.33	2083.08
516.51	1947.33
516.68	1905.20
516.85	2005.84
517.03	2005.84
517.20	2251.60
517.37	2392.03
517.54	2434.16
517.72	2349.90
517.89	2120.53
518.06	1975.41
518.24	2080.74
518.41	2298.41
518.58	2314.79
518.75	2153.29
518.93	2375.64
519.10	2218.83
519.27	2275.00
519.45	2326.49
519.62	2480.97
519.79	2349.90
519.96	2394.37
520.14	2345.22
520.31	2368.62
520.48	2312.45
520.65	2258.62
520.83	2410.75
521.00	2389.69
521.17	2399.05
521.34	2406.07
521.52	2319.47
521.69	2443.52
521.86	2436.50
522.03	2487.99
522.20	2326.49
522.38	2237.55
522.55	2345.22
522.72	2333.51
522.89	2382.67
523.07	2335.85
523.24	2370.96
523.41	2399.05
523.58	2555.86
523.75	2483.31
523.92	2518.42
524.10	2466.92
524.27	2513.74
524.44	2445.86
524.61	2417.77
524.78	2434.16
524.96	2466.92
525.13	2450.54
525.30	2448.20
525.47	2523.10
525.64	2434.16
525.81	2312.45
525.98	2221.17
526.16	2106.48
526.33	2069.03
526.50	2139.25
526.67	2097.12
526.84	2167.34
527.01	2197.76
527.18	2370.96
527.36	2333.51
527.53	2314.79
527.70	2284.36
527.87	2270.32
528.04	2326.49
528.21	2366.28
528.38	2495.01
528.55	2597.99
528.72	2537.14
528.89	2492.67
529.07	2441.18
529.24	2443.52
529.41	2373.30
529.58	2305.43
529.75	2434.16
529.92	2504.37
530.09	2476.29
530.26	2466.92
530.43	2553.52
530.60	2312.45
530.77	2448.20
530.94	2392.03
531.11	2441.18
531.28	2389.69
531.46	2396.71
531.63	2448.20
531.80	2307.77
531.97	2359.26
532.14	2293.72
532.31	2249.25
532.48	2157.97
532.65	2232.87
532.82	2368.62
532.99	2567.57
533.16	2354.58
533.33	2473.95
533.50	2422.45
533.67	2324.15
533.84	2377.98
534.01	2471.61
534.18	2448.20
534.35	2296.07
534.52	2392.03
534.69	2459.90
534.86	2359.26
535.03	2485.65
535.20	2434.16
535.37	2595.65
535.54	2436.50
535.71	2401.39
535.88	2399.05
536.05	2410.75
536.22	2389.69
536.38	2319.47
536.55	2244.57
536.72	2230.53
536.89	2265.64
537.06	2242.23
537.23	2441.18
537.40	2417.77
537.57	2539.48
537.74	2342.88
537.91	2340.54
538.08	2310.11
538.25	2382.67
538.42	2392.03
538.59	2377.98
538.75	2293.72
538.92	2373.30
539.09	2347.56
539.26	2263.30
539.43	2359.26
539.60	2296.07
539.77	2394.37
539.94	2279.68
540.11	2277.34
540.28	2265.64
540.44	2249.25
540.61	2239.89
540.78	2258.62
540.95	2326.49
541.12	2434.16
541.29	2434.16
541.46	2427.14
541.62	2441.18
541.79	2359.26
541.96	2452.88
542.13	2342.88
542.30	2420.11
542.47	2427.14
542.63	2354.58
542.80	2450.54
542.97	2452.88
543.14	2258.62
543.31	2300.75
543.48	2431.82
543.64	2492.67
543.81	2518.42
543.98	2457.56
544.15	2331.17
544.32	2387.35
544.48	2399.05
544.65	2485.65
544.82	2462.24
544.99	2476.29
545.16	2422.45
545.32	2382.67
545.49	2675.23
545.66	2778.22
545.83	2553.52
546.00	2438.84
546.16	2382.67
546.33	2450.54
546.50	2401.39
546.67	2558.21
546.83	2298.41
547.00	2356.92
547.17	2267.98
547.34	2300.75
547.50	2270.32
547.67	2282.02
547.84	2387.35
548.00	2410.75
548.17	2436.50
548.34	2394.37
548.51	2277.34
548.67	2368.62
548.84	2370.96
549.01	2296.07
549.18	2406.07
549.34	2319.47
549.51	2370.96
549.68	2314.79
549.84	2338.20
550.01	2356.92
550.18	2265.64
550.34	2415.43
550.51	2186.06
550.68	2265.64
550.84	2246.91
551.01	2179.04
551.18	2270.32
551.34	2242.23
551.51	2345.22
551.68	2300.75
551.84	2392.03
552.01	2342.88
552.18	2169.68
552.34	2146.27
552.51	2167.34
552.68	2200.10
552.84	2228.19
553.01	2279.68
553.18	2223.51
553.34	2221.17
553.51	2286.70
553.67	2282.02
553.84	2438.84
554.01	2298.41
554.17	2179.04
554.34	2195.42
554.51	2279.68
554.67	2375.64
554.84	2258.62
555.00	2218.83
555.17	2296.07
555.33	2202.44
555.50	2181.38
555.67	2387.35
555.83	2260.96
556.00	2195.42
556.16	2237.55
556.33	2207.13
556.50	2174.36
556.66	2113.50
556.83	2127.55
556.99	2169.68
557.16	2202.44
557.32	2176.70
557.49	2179.04
557.65	2258.62
557.82	2129.89
557.98	2139.25
558.15	2069.03
558.32	2062.01
558.48	1933.28
558.65	2001.16
558.81	2036.27
558.98	2160.31
559.14	2155.63
559.31	2113.50
559.47	2120.53
559.64	2059.67
559.80	2010.52
559.97	2026.90
560.13	2148.61
560.30	2106.48
560.46	2176.70
560.63	2139.25
560.79	2218.83
560.96	2101.80
561.12	2012.86
561.29	2024.56
561.45	1984.77
561.61	2080.74
561.78	2157.97
561.94	2092.44
562.11	1966.05
562.27	2076.06
562.44	2125.21
562.60	2209.47
562.77	2200.10
562.93	2169.68
563.10	2052.65
563.26	2015.20
563.42	2197.76
563.59	2029.24
563.75	2052.65
563.92	1994.14
564.08	2064.35
564.24	2146.27
564.41	2094.78
564.57	2015.20
564.74	2097.12
564.90	2120.53
565.07	2012.86
565.23	1970.73
565.39	1834.98
565.56	1916.90
565.72	2026.90
565.88	2010.52
566.05	1879.45
566.21	1952.01
566.38	2104.14
566.54	2001.16
566.70	2026.90
566.87	1944.99
567.03	2073.71
567.19	2024.56
567.36	2005.84
567.52	2017.54
567.68	1942.64
567.85	1888.81
568.01	1856.04
568.17	1860.73
568.34	1870.09
568.50	1886.47
568.66	1886.47
568.83	1902.86
568.99	1884.13
569.15	1944.99
569.32	1947.33
569.48	1916.90
569.64	1863.07
569.81	1764.76
569.97	1970.73
570.13	1895.83
570.30	1720.29
570.46	1748.38
570.62	1813.92
570.78	1839.66
570.95	1722.63
571.11	1900.52
571.27	1837.32
571.43	1839.66
571.60	1844.34
571.76	1893.49
571.92	1827.96
572.09	1935.62
572.25	1940.30
572.41	1870.09
572.57	1849.02
572.74	1898.17
572.90	1776.47
573.06	1886.47
573.22	1797.53
573.38	1874.77
573.55	1806.89
573.71	1834.98
573.87	1856.04
574.03	1783.49
574.20	1856.04
574.36	1739.02
574.52	1720.29
574.68	1830.30
574.84	1877.11
575.01	1734.34
575.17	1905.20
575.33	1844.34
575.49	1764.76
575.65	1753.06
575.82	1755.40
575.98	1746.04
576.14	1863.07
576.30	1846.68
576.46	1916.90
576.62	1846.68
576.79	1802.21
576.95	1849.02
577.11	1888.81
577.27	1710.93
577.43	1870.09
577.59	1785.83
577.75	1788.17
577.92	1668.80
578.08	1750.72
578.24	1799.87
578.40	1921.58
578.56	1914.56
578.72	1940.30
578.88	1893.49
579.04	1783.49
579.21	1839.66
579.37	1842.00
579.53	1865.41
579.69	1900.52
579.85	1966.05
580.01	1842.00
580.17	1853.70
580.33	1732.00
580.49	1886.47
580.65	1891.15
580.82	1806.89
580.98	1746.04
581.14	1849.02
581.30	1870.09
581.46	1818.60
581.62	1961.37
581.78	1750.72
581.94	1839.66
582.10	1856.04
582.26	1863.07
582.42	1748.38
582.58	1912.22
582.74	1834.98
582.90	1863.07
583.06	1811.57
583.22	1816.26
583.38	1816.26
583.54	1881.79
583.70	1895.83
583.86	1783.49
584.02	1823.28
584.18	1949.67
584.34	1837.32
584.50	1863.07
584.66	1769.44
584.82	1795.19
584.98	1727.32
585.14	1774.13
585.30	1659.44
585.46	1710.93
585.62	1781.15
585.78	1895.83
585.94	1776.47
586.10	1788.17
586.26	1774.13
586.42	1874.77
586.58	1884.13
586.74	1860.73
586.90	1804.55
587.06	1891.15
587.22	1827.96
587.38	1722.63
587.54	1743.70
587.70	1614.97
587.86	1657.10
588.02	1654.76
588.18	1577.52
588.34	1439.43
588.49	1378.58
588.65	1343.47
588.81	1378.58
588.97	1387.94
589.13	1420.71
589.29	1509.65
589.45	1378.58
589.61	1497.94
589.77	1444.11
589.93	1589.22
590.08	1577.52
590.24	1619.65
590.40	1582.20
590.56	1643.06
590.72	1579.86
590.88	1490.92
591.04	1462.83
591.20	1563.48
591.35	1598.59
591.51	1481.56
591.67	1516.67
591.83	1551.78
591.99	1530.71
592.15	1652.42
592.31	1586.88
592.46	1558.80
592.62	1600.93
592.78	1619.65
592.94	1664.12
593.10	1584.54
593.26	1678.16
593.41	1598.59
593.57	1570.50
593.73	1511.99
593.89	1481.56
594.05	1528.37
594.20	1554.12
594.36	1526.03
594.52	1500.28
594.68	1537.73
594.84	1474.54
594.99	1631.35
595.15	1593.90
595.31	1366.87
595.47	1598.59
595.62	1607.95
595.78	1621.99
595.94	1678.16
596.10	1570.50
596.25	1519.01
596.41	1533.05
596.57	1500.28
596.73	1533.05
596.88	1577.52
597.04	1631.35
597.20	1561.14
597.36	1600.93
597.51	1593.90
597.67	1607.95
597.83	1579.86
597.99	1612.63
598.14	1544.75
598.30	1558.80
598.46	1533.05
598.61	1586.88
598.77	1582.20
598.93	1675.82
599.09	1565.82
599.24	1668.80
599.40	1605.61
599.56	1607.95
599.71	1528.37
599.87	1570.50
600.03	1523.69
600.18	1568.16
600.34	1519.01
600.50	1605.61
600.65	1502.62
600.81	1640.72
600.97	1605.61
601.12	1495.60
601.28	1511.99
601.44	1511.99
601.59	1516.67
601.75	1542.41
601.91	1486.24
602.06	1502.62
602.22	1624.33
602.37	1617.31
602.53	1605.61
602.69	1586.88
602.84	1549.43
603.00	1584.54
603.16	1542.41
603.31	1586.88
603.47	1647.74
603.62	1561.14
603.78	1591.56
603.94	1633.69
604.09	1582.20
604.25	1568.16
604.40	1579.86
604.56	1451.13
604.71	1570.50
604.87	1490.92
605.03	1671.14
605.18	1472.20
605.34	1577.52
605.49	1526.03
605.65	1577.52
605.80	1526.03
605.96	1537.73
606.12	1488.58
606.27	1579.86
606.43	1549.43
606.58	1687.53
606.74	1509.65
606.89	1549.43
607.05	1537.73
607.20	1645.40
607.36	1561.14
607.51	1474.54
607.67	1549.43
607.82	1558.80
607.98	1502.62
608.13	1488.58
608.29	1549.43
608.44	1633.69
608.60	1556.46
608.75	1605.61
608.91	1603.27
609.06	1558.80
609.22	1661.78
609.37	1568.16
609.53	1561.14
609.68	1493.26
609.84	1617.31
609.99	1638.38
610.15	1692.21
610.30	1813.92
610.46	1891.15
610.61	1949.67
610.76	1797.53
610.92	1912.22
611.07	1905.20
611.23	1874.77
611.38	1713.27
611.54	1619.65
611.69	1640.72
611.84	1614.97
612.00	1621.99
612.15	1633.69
612.31	1551.78
612.46	1540.07
612.62	1556.46
612.77	1586.88
612.92	1474.54
613.08	1533.05
613.23	1540.07
613.39	1390.28
613.54	1530.71
613.69	1554.12
613.85	1577.52
614.00	1507.30
614.15	1542.41
614.31	1565.82
614.46	1547.09
614.62	1502.62
614.77	1565.82
614.92	1509.65
615.08	1490.92
615.23	1511.99
615.38	1511.99
615.54	1401.98
615.69	1378.58
615.84	1378.58
616.00	1397.30
616.15	1343.47
616.30	1348.15
616.46	1362.19
616.61	1483.90
616.76	1357.51
616.92	1441.77
617.07	1359.85
617.22	1416.02
617.37	1446.45
617.53	1362.19
617.68	1371.55
617.83	1401.98
617.99	1453.47
618.14	1488.58
618.29	1540.07
618.45	1432.41
618.60	1434.75
618.75	1364.53
618.90	1446.45
619.06	1303.68
619.21	1406.66
619.36	1357.51
619.51	1364.53
619.67	1467.52
619.82	1397.30
619.97	1355.17
620.12	1409.00
620.28	1411.34
620.43	1348.15
620.58	1444.11
620.73	1338.79
620.89	1413.68
621.04	1394.96
621.19	1439.43
621.34	1406.66
621.49	1329.42
621.65	1404.32
621.80	1409.00
621.95	1439.43
622.10	1294.32
622.25	1413.68
622.41	1420.71
622.56	1378.58
622.71	1432.41
622.86	1341.13
623.01	1291.98
623.16	1458.15
623.32	1385.60
623.47	1371.55
623.62	1420.71
623.77	1362.19
623.92	1331.76
624.07	1252.19
624.23	1313.04
624.38	1310.70
624.53	1373.89
624.68	1280.27
624.83	1303.68
624.98	1226.44
625.13	1177.29
625.29	1207.72
625.44	1263.89
625.59	1315.38
625.74	1348.15
625.89	1352.83
626.04	1235.80
626.19	1357.51
626.34	1270.91
626.49	1259.21
626.65	1306.02
626.80	1266.23
626.95	1235.80
627.10	1221.76
627.25	1116.44
627.40	1135.16
627.55	1242.82
627.70	1181.97
627.85	1238.14
628.00	1174.95
628.15	1196.01
628.30	1238.14
628.45	1163.25
628.60	1226.44
628.76	1221.76
628.91	1240.48
629.06	1181.97
629.21	1116.44
629.36	1240.48
629.51	1214.74
629.66	1203.04
629.81	1252.19
629.96	1191.33
630.11	1280.27
630.26	1238.14
630.41	1217.08
630.56	1224.10
630.71	1156.22
630.86	1242.82
631.01	1235.80
631.16	1132.82
631.31	1210.06
631.46	1184.31
631.61	1214.74
631.76	1156.22
631.91	1111.75
632.06	1254.53
632.21	1177.29
632.36	1123.46
632.51	1231.12
632.66	1296.66
632.81	1172.61
632.96	1186.65
633.10	1200.69
633.25	1270.91
633.40	1177.29
633.55	1107.07
633.70	1277.93
633.85	1132.82
634.00	1163.25
634.15	1217.08
634.30	1172.61
634.45	1205.38
634.60	1228.78
634.75	1240.48
634.90	1198.35
635.05	1109.41
635.19	1198.35
635.34	1151.54
635.49	1212.40
635.64	1130.48
635.79	1067.28
635.94	1203.04
636.09	1212.40
636.24	1231.12
636.39	1263.89
636.53	1231.12
636.68	1214.74
636.83	1104.73
636.98	1116.44
637.13	1109.41
637.28	1221.76
637.43	1193.67
637.57	1219.42
637.72	1238.14
637.87	1238.14
638.02	1266.23
638.17	1207.72
638.32	1207.72
638.46	1172.61
638.61	1196.01
638.76	1163.25
638.91	1193.67
639.06	1191.33
639.20	1142.18
639.35	1144.52
639.50	1123.46
639.65	1193.67
639.80	1153.88
639.94	1123.46
640.09	1174.95
640.24	1188.99
640.39	1184.31
640.54	1158.57
640.68	1135.16
640.83	1149.20
640.98	1116.44
641.13	1167.93
641.27	1111.75
641.42	1104.73
641.57	1181.97
641.72	1179.63
641.86	1245.16
642.01	1130.48
642.16	1186.65
642.31	1158.57
642.45	1177.29
642.60	1111.75
642.75	1200.69
642.90	1179.63
643.04	1076.65
643.19	1104.73
643.34	1165.59
643.48	1160.91
643.63	1188.99
643.78	1146.86
643.93	1158.57
644.07	1086.01
644.22	1132.82
644.37	1111.75
644.51	1104.73
644.66	1102.39
644.81	1041.54
644.95	1212.40
645.10	1086.01
645.25	1093.03
645.39	1186.65
645.54	1078.99
645.69	1006.43
645.83	964.30
645.98	1088.35
646.13	1027.50
646.27	1025.15
646.42	924.51
646.57	1043.88
646.71	976.00
646.86	1013.45
647.00	1004.09
647.15	1025.15
647.30	1039.20
647.44	1022.81
647.59	985.37
647.74	994.73
647.88	1102.39
648.03	976.00
648.17	1027.50
648.32	978.34
648.47	961.96
648.61	1006.43
648.76	929.19
648.90	931.53
649.05	978.34
649.20	973.66
649.34	1011.11
649.49	983.02
649.63	1032.18
649.78	1081.33
649.92	1034.52
650.07	1067.28
650.21	1011.11
650.36	1043.88
650.51	1139.84
650.65	978.34
650.80	1041.54
650.94	994.73
651.09	961.96
651.23	1027.50
651.38	926.85
651.52	954.94
651.67	1032.18
651.81	987.71
651.96	1071.97
652.10	1048.56
652.25	983.02
652.39	1041.54
652.54	1069.62
652.68	1069.62
652.83	1043.88
652.97	1053.24
653.12	931.53
653.26	1107.07
653.41	1029.84
653.55	983.02
653.70	997.07
653.84	1046.22
653.99	973.66
654.13	847.27
654.27	957.28
654.42	910.47
654.56	1011.11
654.71	976.00
654.85	882.38
655.00	961.96
655.14	922.17
655.29	917.49
655.43	905.79
655.57	842.59
655.72	856.64
655.86	763.01
656.01	856.64
656.15	847.27
656.30	978.34
656.44	943.24
656.58	936.21
656.73	851.96
656.87	912.81
657.01	896.43
657.16	957.28
657.30	957.28
657.45	985.37
657.59	1015.79
657.73	943.24
657.88	978.34
658.02	964.30
658.16	1027.50
658.31	1036.86
658.45	964.30
658.60	919.83
658.74	1067.28
658.88	966.64
659.03	968.98
659.17	905.79
659.31	945.58
659.46	943.24
659.60	940.90
659.74	931.53
659.89	945.58
660.03	1053.24
660.17	1039.20
660.32	1029.84
660.46	1001.75
660.60	957.28
660.74	940.90
660.89	1027.50
661.03	983.02
661.17	931.53
661.32	1011.11
661.46	945.58
661.60	983.02
661.74	985.37
661.89	936.21
662.03	1109.41
662.17	987.71
662.31	987.71
662.46	1060.26
662.60	997.07
662.74	947.92
662.88	915.15
663.03	854.30
663.17	938.55
663.31	915.15
663.45	966.64
663.60	847.27
663.74	976.00
663.88	840.25
664.02	884.72
664.17	875.36
664.31	966.64
664.45	898.77
664.59	978.34
664.73	943.24
664.88	936.21
665.02	973.66
665.16	931.53
665.30	936.21
665.44	1020.47
665.59	999.41
665.73	983.02
665.87	908.13
666.01	912.81
666.15	924.51
666.29	903.45
666.44	919.83
666.58	905.79
666.72	884.72
666.86	922.17
667.00	947.92
667.14	889.40
667.28	905.79
667.43	891.74
667.57	931.53
667.71	884.72
667.85	938.55
667.99	873.02
668.13	858.98
668.27	936.21
668.41	880.04
668.56	866.00
668.70	870.68
668.84	922.17
668.98	875.36
669.12	957.28
669.26	847.27
669.40	952.60
669.54	919.83
669.68	924.51
669.82	903.45
669.96	802.80
670.10	877.70
670.25	929.19
670.39	901.11
670.53	891.74
670.67	781.74
670.81	861.32
670.95	863.66
671.09	877.70
671.23	828.55
671.37	814.51
671.51	842.59
671.65	854.30
671.79	901.11
671.93	896.43
672.07	889.40
672.21	898.77
672.35	779.40
672.49	840.25
672.63	933.87
672.77	896.43
672.91	882.38
673.05	751.31
673.19	866.00
673.33	807.48
673.47	854.30
673.61	856.64
673.75	844.93
673.89	912.81
674.03	842.59
674.17	903.45
674.31	826.21
674.45	844.93
674.59	866.00
674.73	814.51
674.87	823.87
675.01	870.68
675.15	840.25
675.29	985.37
675.43	805.14
675.56	961.96
675.70	748.97
675.84	788.76
675.98	692.80
676.12	772.38
676.26	805.14
676.40	709.18
676.54	711.52
676.68	842.59
676.82	816.85
676.96	821.53
677.10	777.06
677.23	784.08
677.37	842.59
677.51	716.20
677.65	896.43
677.79	725.57
677.93	791.10
678.07	748.97
678.21	805.14
678.34	746.63
678.48	741.95
678.62	760.67
678.76	777.06
678.90	791.10
679.04	798.12
679.18	713.86
679.31	812.17
679.45	791.10
679.59	823.87
679.73	765.36
679.87	711.52
680.00	662.37
680.14	779.40
680.28	727.91
680.42	697.48
680.56	699.82
680.70	716.20
680.83	748.97
680.97	753.65
681.11	767.70
681.25	805.14
681.39	763.01
681.52	709.18
681.66	784.08
681.80	662.37
681.94	760.67
682.07	732.59
682.21	744.29
682.35	713.86
682.49	744.29
682.62	725.57
682.76	734.93
682.90	697.48
683.04	678.76
683.17	681.10
683.31	706.84
683.45	669.39
683.59	645.99
683.72	669.39
683.86	688.12
684.00	662.37
684.13	690.46
684.27	723.23
684.41	676.41
684.55	645.99
684.68	688.12
684.82	634.29
684.96	615.56
685.09	676.41
685.23	596.84
685.37	645.99
685.50	683.44
685.64	699.82
685.78	657.69
685.91	690.46
686.05	676.41
686.19	657.69
686.32	512.58
686.46	475.13
686.60	351.08
686.73	425.98
686.87	461.09
687.01	414.27
687.14	379.17
687.28	425.98
687.42	500.87
687.55	517.26
687.69	559.39
687.82	526.62
687.96	545.34
688.10	540.66
688.23	538.32
688.37	571.09
688.50	538.32
688.64	561.73
688.78	496.19
688.91	493.85
689.05	510.24
689.18	458.74
689.32	468.11
689.46	465.77
689.59	505.56
689.73	582.79
689.86	582.79
690.00	470.45
690.13	507.90
690.27	531.30
690.41	552.37
690.54	585.13
690.68	564.07
690.81	528.96
690.95	475.13
691.08	505.56
691.22	599.18
691.35	526.62
691.49	596.84
691.62	491.51
691.76	444.70
691.89	514.92
692.03	552.37
692.16	526.62
692.30	514.92
692.43	482.15
692.57	475.13
692.70	491.51
692.84	482.15
692.97	514.92
693.11	430.66
693.24	505.56
693.38	465.77
693.51	404.91
693.65	528.96
693.78	444.70
693.92	440.02
694.05	486.83
694.19	470.45
694.32	477.47
694.45	496.19
694.59	454.06
694.72	491.51
694.86	622.58
694.99	461.09
695.13	512.58
695.26	510.24
695.39	526.62
695.53	589.82
695.66	533.64
695.80	552.37
695.93	458.74
696.07	519.60
696.20	449.38
696.33	533.64
696.47	521.94
696.60	519.60
696.73	568.75
696.87	533.64
697.00	547.69
697.14	461.09
697.27	514.92
697.40	615.56
697.54	514.92
697.67	477.47
697.80	482.15
697.94	468.11
698.07	458.74
698.21	411.93
698.34	447.04
698.47	409.59
698.61	416.62
698.74	407.25
698.87	535.98
699.01	442.36
699.14	430.66
699.27	486.83
699.40	554.71
699.54	449.38
699.67	477.47
699.80	454.06
699.94	388.53
700.07	430.66
700.20	365.12
700.34	423.64
700.47	472.79
700.60	505.56
700.73	519.60
700.87	484.49
701.00	484.49
701.13	458.74
701.26	423.64
701.40	409.59
701.53	440.02
701.66	519.60
701.79	524.28
701.93	369.80
702.06	428.32
702.19	437.68
702.32	444.70
702.46	348.74
702.59	428.32
702.72	468.11
702.85	409.59
702.99	400.23
703.12	547.69
703.25	409.59
703.38	395.55
703.51	393.21
703.65	411.93
703.78	472.79
703.91	463.43
704.04	454.06
704.17	374.49
704.31	365.12
704.44	372.15
704.57	456.40
704.70	430.66
704.83	369.80
704.96	322.99
705.10	430.66
705.23	369.80
>>>>>End Processed Spectral Data<<<<<
