SpectraSuite Data File
++++++++++++++++++++++++++++++++++++
Date: Mon Sep 30 18:11:41 GMT-05:00 2013
User: stostad
Dark Spectrum Present: No
Reference Spectrum Present: No
Number of Sampled Component Spectra: 1
Spectrometers: USB2+H05261
Integration Time (usec): 100000 (USB2+H05261)
Spectra Averaged: 1 (USB2+H05261)
Boxcar Smoothing: 0 (USB2+H05261)
Correct for Electrical Dark: No (USB2+H05261)
Strobe/Lamp Enabled: No (USB2+H05261)
Correct for Detector Non-linearity: No (USB2+H05261)
Correct for Stray Light: No (USB2+H05261)
Number of Pixels in Processed Spectrum: 2048
>>>>>Begin Processed Spectral Data<<<<<
365.73	128.73
365.92	128.73
366.12	128.73
366.32	81.92
366.52	0.00
366.72	77.24
366.91	23.41
367.11	86.60
367.31	9.36
367.51	0.00
367.70	14.04
367.90	0.00
368.10	0.00
368.30	28.09
368.49	0.00
368.69	0.00
368.89	72.56
369.09	42.13
369.28	0.00
369.48	37.45
369.68	42.13
369.87	16.38
370.07	4.68
370.27	77.24
370.47	189.58
370.66	269.16
370.86	362.78
371.06	395.55
371.25	433.00
371.45	252.78
371.65	414.27
371.84	355.76
372.04	425.98
372.24	376.83
372.44	463.43
372.63	418.96
372.83	435.34
373.03	440.02
373.22	437.68
373.42	416.62
373.62	470.45
373.81	451.72
374.01	444.70
374.21	540.66
374.40	440.02
374.60	557.05
374.79	472.79
374.99	528.96
375.19	489.17
375.38	461.09
375.58	491.51
375.78	500.87
375.97	533.64
376.17	507.90
376.37	517.26
376.56	547.69
376.76	526.62
376.95	386.19
377.15	486.83
377.35	500.87
377.54	479.81
377.74	505.56
377.93	568.75
378.13	613.22
378.33	592.16
378.52	524.28
378.72	617.90
378.91	578.11
379.11	538.32
379.31	521.94
379.50	461.09
379.70	564.07
379.89	561.73
380.09	566.41
380.28	512.58
380.48	521.94
380.68	683.44
380.87	587.47
381.07	657.69
381.26	594.50
381.46	603.86
381.65	653.01
381.85	688.12
382.04	573.43
382.24	702.16
382.43	620.24
382.63	594.50
382.83	631.94
383.02	599.18
383.22	671.73
383.41	655.35
383.61	592.16
383.80	713.86
384.00	704.50
384.19	720.88
384.39	657.69
384.58	685.78
384.78	732.59
384.97	678.76
385.17	774.72
385.36	711.52
385.56	688.12
385.75	727.91
385.95	779.40
386.14	727.91
386.34	727.91
386.53	667.05
386.72	671.73
386.92	809.83
387.11	720.88
387.31	763.01
387.50	748.97
387.70	763.01
387.89	732.59
388.09	779.40
388.28	751.31
388.48	744.29
388.67	837.91
388.86	807.48
389.06	767.70
389.25	837.91
389.45	889.40
389.64	840.25
389.84	933.87
390.03	966.64
390.22	919.83
390.42	842.59
390.61	798.12
390.81	779.40
391.00	854.30
391.19	952.60
391.39	849.61
391.58	929.19
391.78	863.66
391.97	884.72
392.16	908.13
392.36	994.73
392.55	964.30
392.75	936.21
392.94	905.79
393.13	898.77
393.33	877.70
393.52	889.40
393.71	1025.15
393.91	887.06
394.10	940.90
394.29	1027.50
394.49	997.07
394.68	983.02
394.88	1048.56
395.07	1053.24
395.26	1032.18
395.46	1006.43
395.65	1018.13
395.84	1121.12
396.04	1057.92
396.23	1057.92
396.42	1020.47
396.62	1139.84
396.81	1137.50
397.00	1177.29
397.19	1076.65
397.39	1167.93
397.58	1118.78
397.77	1102.39
397.97	1158.57
398.16	1188.99
398.35	1177.29
398.55	1193.67
398.74	1179.63
398.93	1226.44
399.12	1142.18
399.32	1259.21
399.51	1268.57
399.70	1331.76
399.90	1369.21
400.09	1268.57
400.28	1252.19
400.47	1317.72
400.67	1294.32
400.86	1369.21
401.05	1327.08
401.24	1301.34
401.44	1343.47
401.63	1343.47
401.82	1313.04
402.01	1453.47
402.21	1479.22
402.40	1378.58
402.59	1453.47
402.78	1334.11
402.97	1416.02
403.17	1444.11
403.36	1528.37
403.55	1444.11
403.74	1533.05
403.93	1458.15
404.13	1586.88
404.32	1589.22
404.51	1563.48
404.70	1563.48
404.89	1542.41
405.09	1661.78
405.28	1659.44
405.47	1633.69
405.66	1671.14
405.85	1696.89
406.05	1666.46
406.24	1657.10
406.43	1722.63
406.62	1675.82
406.81	1802.21
407.00	1748.38
407.20	1724.97
407.39	1685.19
407.58	1844.34
407.77	1874.77
407.96	1722.63
408.15	1902.86
408.34	1867.75
408.54	1769.44
408.73	1816.26
408.92	1837.32
409.11	1872.43
409.30	1837.32
409.49	1823.28
409.68	1968.39
409.87	1944.99
410.07	1963.71
410.26	2062.01
410.45	1926.26
410.64	2064.35
410.83	2069.03
411.02	2076.06
411.21	2139.25
411.40	2101.80
411.59	2101.80
411.78	2174.36
411.98	2092.44
412.17	2204.78
412.36	2157.97
412.55	2275.00
412.74	2319.47
412.93	2230.53
413.12	2267.98
413.31	2513.74
413.50	2387.35
413.69	2399.05
413.88	2422.45
414.07	2356.92
414.26	2434.16
414.45	2469.27
414.64	2495.01
414.83	2527.78
415.02	2473.95
415.22	2581.61
415.41	2672.89
415.60	2693.96
415.79	2602.68
415.98	2665.87
416.17	2789.92
416.36	2642.46
416.55	2750.13
416.74	2780.56
416.93	2722.04
417.12	2726.72
417.31	2806.30
417.50	2820.35
417.69	2808.64
417.88	2867.16
418.07	2902.26
418.26	2836.73
418.45	2977.16
418.64	3122.27
418.83	3000.57
419.02	3019.29
419.21	2974.82
419.39	3012.27
419.58	3148.02
419.77	2988.86
419.96	3070.78
420.15	3117.59
420.34	3112.91
420.53	3194.83
420.72	3279.09
420.91	3208.87
421.10	3297.81
421.29	3325.90
421.48	3199.51
421.67	3157.38
421.86	3152.70
422.05	3293.13
422.24	3405.48
422.43	3295.47
422.61	3307.18
422.80	3419.52
422.99	3251.00
423.18	3361.01
423.37	3251.00
423.56	3435.91
423.75	3276.75
423.94	3365.69
424.13	3119.93
424.32	3220.58
424.50	3454.63
424.69	3480.38
424.88	3370.37
425.07	3346.97
425.26	3419.52
425.45	3382.07
425.64	3370.37
425.83	3361.01
426.01	3410.16
426.20	3456.97
426.39	3414.84
426.58	3318.88
426.77	3475.70
426.96	3538.89
427.15	3421.86
427.33	3513.14
427.52	3433.57
427.71	3494.42
427.90	3609.11
428.09	3653.58
428.28	3618.47
428.46	3602.08
428.65	3613.79
428.84	3662.94
429.03	3471.01
429.22	3478.04
429.40	3466.33
429.59	3524.85
429.78	3368.03
429.97	3180.79
430.16	3393.78
430.34	3473.36
430.53	3630.17
430.72	3492.08
430.91	3424.20
431.10	3524.85
431.28	3581.02
431.47	3665.28
431.66	3461.65
431.85	3669.96
432.03	3698.05
432.22	3896.99
432.41	3794.01
432.60	3918.06
432.79	3768.26
432.97	3875.93
433.16	3969.55
433.35	3934.44
433.54	3904.01
433.72	3941.46
433.91	3985.93
434.10	3981.25
434.28	3873.59
434.47	4149.77
434.66	4161.47
434.85	4348.72
435.03	4294.88
435.22	4498.51
435.41	4720.86
435.59	4489.15
435.78	4437.66
435.97	4210.62
436.16	4376.80
436.34	4337.01
436.53	4416.59
436.72	4463.40
436.90	4463.40
437.09	4390.84
437.28	4524.26
437.46	4512.55
437.65	4559.36
437.84	4662.35
438.02	4526.60
438.21	4610.86
438.40	4465.74
438.58	4751.29
438.77	4685.75
438.96	4755.97
439.14	4882.36
439.33	4851.93
439.52	4894.06
439.70	5055.56
439.89	4973.64
440.08	5195.99
440.26	4964.28
440.45	5193.65
440.63	5151.52
440.82	5008.75
441.01	5240.46
441.19	5298.97
441.38	5364.51
441.57	5373.87
441.75	5355.15
441.94	5427.70
442.12	5565.79
442.31	5500.26
442.50	5460.47
442.68	5411.32
442.87	5551.75
443.05	5528.35
443.24	5582.18
443.43	5591.54
443.61	5542.39
443.80	5762.40
443.98	5685.16
444.17	5392.59
444.35	5764.74
444.54	5753.04
444.73	5586.86
444.91	5748.36
445.10	5715.59
445.28	5715.59
445.47	5572.82
445.65	5785.80
445.84	5802.19
446.02	5605.58
446.21	5717.93
446.39	5806.87
446.58	5863.04
446.77	5816.23
446.95	5661.76
447.14	5783.46
447.32	5830.27
447.51	5844.32
447.69	5830.27
447.88	5870.06
448.06	5788.14
448.25	5741.33
448.43	5884.11
448.62	5757.72
448.80	5930.92
448.99	5591.54
449.17	6064.33
449.36	5919.21
449.54	6150.93
449.73	6083.05
449.91	6108.80
450.10	6087.73
450.28	6024.54
450.46	6263.27
450.65	6094.76
450.83	6216.46
451.02	6106.46
451.20	6157.95
451.39	6221.14
451.57	6230.51
451.76	6279.66
451.94	6167.31
452.13	6370.94
452.31	6221.14
452.49	6174.33
452.68	6375.62
452.86	6279.66
453.05	6375.62
453.23	6455.20
453.42	6244.55
453.60	6310.08
453.78	6164.97
453.97	6394.34
454.15	6366.26
454.34	6155.61
454.52	6445.84
454.70	6389.66
454.89	6340.51
455.07	6597.97
455.26	6574.56
455.44	6593.29
455.62	6511.37
455.81	6401.37
455.99	6747.76
456.17	6558.18
456.36	6574.56
456.54	6658.82
456.73	6684.57
456.91	6796.92
457.09	6895.22
457.28	6930.33
457.46	6832.02
457.64	6871.81
457.83	6841.39
458.01	6843.73
458.19	7023.95
458.38	6904.58
458.56	7087.14
458.74	6988.84
458.93	6853.09
459.11	7061.40
459.29	7045.01
459.48	7087.14
459.66	7094.16
459.84	7215.87
460.03	7225.23
460.21	7162.04
460.39	6972.46
460.57	7037.99
460.76	7318.86
460.94	7393.75
461.12	7262.68
461.31	7349.28
461.49	7370.35
461.67	7332.90
461.85	7566.95
462.04	7391.41
462.22	7730.79
462.40	7644.19
462.59	7602.06
462.77	7566.95
462.95	7454.61
463.13	7527.16
463.32	7775.26
463.50	7648.87
463.68	7660.57
463.86	7878.24
464.05	7672.28
464.23	7506.10
464.41	7707.38
464.59	7627.81
464.78	7726.11
464.96	7763.56
465.14	7686.32
465.32	7751.85
465.50	8159.11
465.69	7946.12
465.87	7861.86
466.05	7686.32
466.23	7882.92
466.41	8006.97
466.60	8219.96
466.78	8058.46
466.96	7908.67
467.14	7943.78
467.32	7995.27
467.51	7971.86
467.69	7922.71
467.87	7946.12
468.05	8152.09
468.23	8187.19
468.41	8072.51
468.60	7992.93
468.78	8243.37
468.96	7967.18
469.14	8070.17
469.32	8238.69
469.50	8163.79
469.69	8304.22
469.87	8400.18
470.05	8313.58
470.23	8304.22
470.41	8451.67
470.59	8505.51
470.77	8358.05
470.95	8540.61
471.14	8526.57
471.32	8299.54
471.50	8683.39
471.68	8566.36
471.86	8636.58
472.04	8559.34
472.22	8905.74
472.40	8435.29
472.58	8498.49
472.77	8561.68
472.95	8669.34
473.13	8999.36
473.31	8734.88
473.49	8821.48
473.67	8753.60
473.85	8994.68
474.03	9004.04
474.21	9149.15
474.39	9317.67
474.57	9359.80
474.75	9392.57
474.93	9408.95
475.12	9331.72
475.30	9523.64
475.48	9430.02
475.66	9600.88
475.84	9516.62
476.02	9706.20
476.20	9692.16
476.38	9767.06
476.56	10160.27
476.74	10181.33
476.92	9753.01
477.10	9870.04
477.28	10230.48
477.46	10080.69
477.64	10174.31
477.82	10417.72
478.00	10600.29
478.18	10532.41
478.36	10729.02
478.54	10672.84
478.72	10658.80
478.90	11105.84
479.08	11077.76
479.26	11183.08
479.44	11201.80
479.62	11545.86
479.80	11613.74
479.98	11583.31
480.16	11796.30
480.34	11763.53
480.52	11772.89
480.70	12109.93
480.88	12002.27
481.06	12163.76
481.24	12042.06
481.41	12458.67
481.59	12697.41
481.77	12540.59
481.95	12683.36
482.13	12638.89
482.31	13092.96
482.49	13123.38
482.67	13394.89
482.85	13537.66
483.03	13605.53
483.21	13701.50
483.39	13720.22
483.57	13806.82
483.74	14015.13
483.92	14200.03
484.10	14281.95
484.28	14363.87
484.46	14822.61
484.64	14979.43
484.82	14455.15
485.00	14801.55
485.18	15105.82
485.35	15227.53
485.53	15002.83
485.71	15208.80
485.89	15473.28
486.07	15735.42
486.25	15690.95
486.43	15782.23
486.61	16212.89
486.78	15990.54
486.96	16091.18
487.14	16601.42
487.32	16868.24
487.50	16844.84
487.68	17015.69
487.85	17209.96
488.03	17277.83
488.21	17378.48
488.39	17638.28
488.57	17804.46
488.75	17776.37
488.92	18104.04
489.10	18082.98
489.28	18113.41
489.46	18427.04
489.64	18473.85
489.81	18633.00
489.99	18735.99
490.17	18637.69
490.35	18899.83
490.53	18967.70
490.70	19278.99
490.88	18967.70
491.06	19571.56
491.24	19311.76
491.41	19536.45
491.59	19789.23
491.77	19620.71
491.95	20023.28
492.13	19775.19
492.30	20350.96
492.48	19985.83
492.66	20266.70
492.84	20449.26
493.01	20655.23
493.19	20524.16
493.37	20985.24
493.54	20734.81
493.72	21235.68
493.90	21207.59
494.08	21053.12
494.25	21516.54
494.43	21649.96
494.61	21692.08
494.79	21790.39
494.96	21745.92
495.14	21986.99
495.32	22305.31
495.49	22242.11
495.67	22033.80
495.85	22111.04
496.02	22469.14
496.20	22665.75
496.38	22551.06
496.55	22654.05
496.73	22752.35
496.91	22742.99
497.09	22778.09
497.26	22855.33
497.44	22864.69
497.62	23323.44
497.79	23527.06
497.97	23489.62
498.14	23583.24
498.32	23587.92
498.50	23604.30
498.67	23608.98
498.85	23578.56
499.03	24180.07
499.20	23997.51
499.38	23669.84
499.56	23915.59
499.73	24318.17
499.91	24088.79
500.08	24559.24
500.26	24283.06
500.44	24449.24
500.61	24348.59
500.79	24046.66
500.97	24297.10
501.14	24727.76
501.32	24851.81
501.49	24816.70
501.67	24601.37
501.84	24652.86
502.02	25102.25
502.20	24837.76
502.37	24788.61
502.55	24875.21
502.72	25048.41
502.90	24854.15
503.07	24819.04
503.25	24912.66
503.43	24996.92
503.60	25137.35
503.78	25032.03
503.95	24863.51
504.13	25212.25
504.30	25577.37
504.48	25186.50
504.65	25420.56
504.83	25245.02
505.01	25399.49
505.18	25188.85
505.36	25645.25
505.53	25546.95
505.71	25537.59
505.88	25621.84
506.06	25462.69
506.23	25823.13
506.41	25415.88
506.58	25663.97
506.76	25635.89
506.93	25448.64
507.11	25876.96
507.28	25865.26
507.46	25921.43
507.63	25282.47
507.81	25682.70
507.98	25668.66
508.16	25568.01
508.33	25745.89
508.50	25855.90
508.68	25617.16
508.85	25699.08
509.03	25579.71
509.20	25446.30
509.38	25546.95
509.55	25792.70
509.73	25771.64
509.90	25450.99
510.08	25432.26
510.25	25408.86
510.42	25317.57
510.60	25242.68
510.77	25008.62
510.95	25418.22
511.12	25137.35
511.30	24833.08
511.47	25184.16
511.64	24570.94
511.82	24629.46
511.99	24797.98
512.17	24858.83
512.34	24809.68
512.51	24788.61
512.69	25020.33
512.86	24891.60
513.04	24954.79
513.21	24872.87
513.38	25249.70
513.56	25170.12
513.73	25036.71
513.90	25102.25
514.08	25378.43
514.25	25832.49
514.43	25338.64
514.60	25156.08
514.77	25830.15
514.95	25891.01
515.12	25898.03
515.29	26183.57
515.47	26431.67
515.64	26300.60
515.81	26349.75
515.99	26473.80
516.16	27047.23
516.33	26852.97
516.51	27304.69
516.68	27122.13
516.85	26960.63
517.03	27445.12
517.20	27232.13
517.37	27559.81
517.54	27557.47
517.72	27789.18
517.89	27906.21
518.06	28046.64
518.24	28016.21
518.41	28114.52
518.58	28102.81
518.75	27796.20
518.93	28409.42
519.10	28126.22
519.27	28360.27
519.45	28481.98
519.62	28809.65
519.79	29057.75
519.96	28718.37
520.14	28900.94
520.31	28694.97
520.48	28802.63
520.65	28760.50
520.83	28566.24
521.00	28786.25
521.17	28629.43
521.34	28479.64
521.52	28690.29
521.69	27936.63
521.86	28037.28
522.03	28041.96
522.20	28056.00
522.38	27634.71
522.55	27388.95
522.72	27407.67
522.89	26920.84
523.07	27131.49
523.24	26867.01
523.41	26764.03
523.58	26122.72
523.75	26359.11
523.92	26214.00
524.10	26096.97
524.27	26092.29
524.44	26118.04
524.61	26237.41
524.78	25949.52
524.96	25874.62
525.13	25949.52
525.30	25928.45
525.47	25998.67
525.64	26017.40
525.81	25743.55
525.98	26214.00
526.16	25879.30
526.33	25523.54
526.50	25848.88
526.67	26134.42
526.84	25907.39
527.01	26024.42
527.18	26038.46
527.36	25532.90
527.53	26096.97
527.70	25785.68
527.87	25874.62
528.04	26019.74
528.21	26047.82
528.38	25717.81
528.55	25563.33
528.72	25837.17
528.89	25809.09
529.07	25869.94
529.24	25785.68
529.41	26071.23
529.58	26092.29
529.75	25893.35
529.92	26480.82
530.09	26513.59
530.26	26450.39
530.43	26335.71
530.60	26389.54
530.77	26541.68
530.94	26813.18
531.11	26923.18
531.28	26925.52
531.46	27552.79
531.63	27187.66
531.80	27508.32
531.97	27655.77
532.14	27725.99
532.31	27672.15
532.48	27920.25
532.65	28313.46
532.82	28360.27
532.99	28540.49
533.16	28844.76
533.33	29060.09
533.50	29097.54
533.67	29619.48
533.84	29476.71
534.01	30164.82
534.18	30230.36
534.35	30675.06
534.52	30586.12
534.69	31068.27
534.86	31337.43
535.03	31393.61
535.20	31742.35
535.37	31941.29
535.54	32533.45
535.71	32685.58
535.88	33160.71
536.05	33111.56
536.22	33132.62
536.38	33294.12
536.55	33820.74
536.72	33890.96
536.89	33855.85
537.06	34576.73
537.23	34995.69
537.40	34859.94
537.57	35517.63
537.74	35835.94
537.91	35842.96
538.08	36313.41
538.25	35835.94
538.42	36479.59
538.59	37179.41
538.75	37024.93
538.92	37158.34
539.09	37132.60
539.26	37170.05
539.43	37518.79
539.60	37574.96
539.77	37556.24
539.94	38052.43
540.11	38377.76
540.28	38352.02
540.44	39047.16
540.61	38946.51
540.78	39014.39
540.95	39391.22
541.12	39299.94
541.29	39496.54
541.46	39688.46
541.62	40205.72
541.79	40493.61
541.96	40313.39
542.13	40477.22
542.30	40746.39
542.47	40683.19
542.63	40879.80
542.80	41289.39
542.97	41247.26
543.14	41240.24
543.31	41497.70
543.48	41977.51
543.64	42195.18
543.81	42342.63
543.98	42195.18
544.15	42302.84
544.32	42073.47
544.48	42426.89
544.65	42136.66
544.82	42368.38
544.99	42377.74
545.16	42845.85
545.32	42829.46
545.49	43562.05
545.66	43613.54
545.83	43208.63
546.00	43796.10
546.16	43585.46
546.33	43255.44
546.50	42682.01
546.67	43838.23
546.83	43171.18
547.00	43412.26
547.17	43154.80
547.34	43313.95
547.50	43660.35
547.67	43796.10
547.84	43674.40
548.00	44191.65
548.17	44561.46
548.34	44067.61
548.51	43690.78
548.67	44186.97
548.84	44215.06
549.01	44055.90
549.18	43531.62
549.34	44505.29
549.51	44273.57
549.68	44652.74
549.84	44271.23
550.01	44339.11
550.18	44580.18
550.34	44451.45
550.51	44758.06
550.68	44828.28
550.84	44304.00
551.01	44924.24
551.18	44144.84
551.34	44671.46
551.51	45104.46
551.68	45343.20
551.84	45270.64
552.01	45083.40
552.18	45041.27
552.34	44266.55
552.51	45240.21
552.68	45223.83
552.84	44676.15
553.01	45207.45
553.18	45228.51
553.34	44985.10
553.51	45581.93
553.67	45422.78
553.84	45640.45
554.01	45567.89
554.17	45242.56
554.34	45801.94
554.51	45436.82
554.67	45528.10
554.84	45490.65
555.00	45502.35
555.17	45193.40
555.33	45773.86
555.50	45148.93
555.67	45390.01
555.83	45139.57
556.00	45738.75
556.16	46017.27
556.33	45668.53
556.50	45698.96
556.66	46017.27
556.83	45083.40
556.99	45364.26
557.16	45607.68
557.32	45869.82
557.49	45523.42
557.65	45958.76
557.82	45174.68
557.98	45900.25
558.15	45771.52
558.32	45462.57
558.48	45507.04
558.65	45539.80
558.81	45443.84
558.98	45340.86
559.14	45904.93
559.31	45546.82
559.47	45839.39
559.64	45666.19
559.80	45970.46
559.97	45294.05
560.13	45467.25
560.30	45287.03
560.46	45710.66
560.63	45698.96
560.79	46007.91
560.96	45954.08
561.12	46024.29
561.29	45727.05
561.45	45532.78
561.61	45933.01
561.78	45710.66
561.94	45092.76
562.11	45654.49
562.27	45574.91
562.44	45605.34
562.60	45764.49
562.77	45375.97
562.93	45195.74
563.10	45556.19
563.26	45120.85
563.42	45429.80
563.59	45055.31
563.75	44694.87
563.92	44285.28
564.08	44325.07
564.24	44903.18
564.41	44121.44
564.57	44020.80
564.74	44531.03
564.90	44016.11
565.07	43594.82
565.23	43037.77
565.39	43103.31
565.56	43269.48
565.72	42368.38
565.88	42014.96
566.05	41923.68
566.21	41741.11
566.38	41326.84
566.54	40795.54
566.70	40428.07
566.87	39655.70
567.03	38883.32
567.19	39365.47
567.36	38106.26
567.52	37804.33
567.68	36737.05
567.85	36025.53
568.01	35590.19
568.17	34211.61
568.34	33387.74
568.50	32547.49
568.66	31309.35
568.83	30583.78
568.99	29453.30
569.15	28549.85
569.32	27253.20
569.48	26459.76
569.64	25799.73
569.81	24812.02
569.97	23410.04
570.13	22501.91
570.30	21664.00
570.46	21013.33
570.62	20217.55
570.78	19461.55
570.95	18869.40
571.11	18642.37
571.27	18066.60
571.43	17425.29
571.60	16711.42
571.76	16575.67
571.92	16468.01
572.09	16208.21
572.25	15786.91
572.41	15571.58
572.57	15662.86
572.74	15674.57
572.90	15714.36
573.06	15262.63
573.22	15356.25
573.38	15480.30
573.55	15620.74
573.71	15604.35
573.87	15391.36
574.03	15557.54
574.20	15580.95
574.36	15634.78
574.52	15826.70
574.68	15779.89
574.84	16018.63
575.01	15920.32
575.17	15648.82
575.33	15906.28
575.49	15630.10
575.65	15627.76
575.82	15765.85
575.98	15817.34
576.14	16079.48
576.30	16133.31
576.46	16306.51
576.62	16294.81
576.79	16287.79
576.95	16292.47
577.11	16198.85
577.27	16130.97
577.43	16718.45
577.59	16489.07
577.75	16711.42
577.92	16601.42
578.08	16730.15
578.24	16938.46
578.40	16945.48
578.56	17270.81
578.72	17336.35
578.88	17455.72
579.04	17188.89
579.21	17261.45
579.37	17263.79
579.53	17312.94
579.69	17172.51
579.85	17598.49
580.01	17547.00
580.17	17242.73
580.33	17097.61
580.49	17006.33
580.65	16739.51
580.82	16416.52
580.98	16137.99
581.14	15922.66
581.30	15950.75
581.46	15524.77
581.62	15452.22
581.78	15225.18
581.94	14693.88
582.10	14207.05
582.26	14066.62
582.42	13380.84
582.58	13401.91
582.74	12828.48
582.90	12545.27
583.06	12674.00
583.22	12051.42
583.38	11864.18
583.54	11566.93
583.70	11634.80
583.86	11185.42
584.02	11073.07
584.18	11126.91
584.34	10724.33
584.50	10651.78
584.66	10665.82
584.82	10562.84
584.98	10478.58
585.14	10595.61
585.30	10490.28
585.46	10778.17
585.62	10834.34
585.78	10923.28
585.94	10703.27
586.10	10939.66
586.26	11052.01
586.42	11103.50
586.58	11499.05
586.74	11676.93
586.90	11719.06
587.06	12002.27
587.22	12063.12
587.38	12341.64
587.54	12599.10
587.70	12676.34
587.86	12947.84
588.02	13029.76
588.18	13540.00
588.34	13336.37
588.49	13769.37
588.65	13998.74
588.81	14300.67
588.97	14864.74
589.13	14792.19
589.29	14920.92
589.45	15208.80
589.61	15473.28
589.77	15529.45
589.93	15651.16
590.08	15836.06
590.24	16060.76
590.40	16229.27
590.56	16423.54
590.72	16465.67
590.88	16781.64
591.04	16788.66
591.20	17011.01
591.35	17254.43
591.51	17628.92
591.67	17352.73
591.83	17851.27
591.99	17998.72
592.15	18270.22
592.31	18864.72
592.46	18637.69
592.62	19007.49
592.78	19164.31
592.94	19728.38
593.10	19847.74
593.26	20472.67
593.41	20573.31
593.57	20870.56
593.73	21338.66
593.89	21738.90
594.05	22115.72
594.20	22312.33
594.36	22796.82
594.52	23096.41
594.68	23545.79
594.84	23836.02
594.99	24046.66
595.15	24243.27
595.31	24788.61
595.47	25081.18
595.62	25348.00
595.78	25659.29
595.94	26270.17
596.10	26618.91
596.25	26682.11
596.41	26995.74
596.57	27440.44
596.73	27847.69
596.88	28020.89
597.04	28030.26
597.20	28379.00
597.36	28577.94
597.51	29017.96
597.67	29415.85
597.83	29333.93
597.99	30181.21
598.14	29940.13
598.30	30286.53
598.46	30735.92
598.61	30691.44
598.77	30677.40
598.93	31002.74
599.09	31194.66
599.24	31599.57
599.40	32175.34
599.56	32128.53
599.71	32327.48
599.87	32795.59
600.03	32559.19
600.18	32879.85
600.34	33455.62
600.50	33460.30
600.65	33897.98
600.81	33696.69
600.97	34141.39
601.12	34726.53
601.28	35072.93
601.44	34904.41
601.59	35599.55
601.75	35646.36
601.91	35819.56
602.06	36500.65
602.22	36418.74
602.37	36385.97
602.53	36643.43
602.69	36655.13
602.84	36402.35
603.00	36809.61
603.16	37102.17
603.31	37890.93
603.47	37954.13
603.62	38576.71
603.78	38436.28
603.94	38677.35
604.09	39182.91
604.25	39065.88
604.40	38864.60
604.56	39157.16
604.71	39700.17
604.87	39215.68
605.03	39728.25
605.18	39477.82
605.34	39711.87
605.49	39859.32
605.65	39749.32
605.80	39974.01
605.96	40329.77
606.12	40924.27
606.27	40814.26
606.43	40491.27
606.58	41373.65
606.74	40814.26
606.89	40636.38
607.05	40765.11
607.20	41666.22
607.36	40889.16
607.51	41579.62
607.67	41179.39
607.82	41652.17
607.98	41481.31
608.13	42192.84
608.29	41565.57
608.44	41661.54
608.60	41743.45
608.75	42120.28
608.91	42674.99
609.06	41928.36
609.22	42139.00
609.37	42326.25
609.53	43033.09
609.68	43058.84
609.84	43012.02
609.99	43730.57
610.15	43236.72
610.30	43695.46
610.46	43826.53
610.61	44060.58
610.76	44416.35
610.92	44432.73
611.07	44406.98
611.23	44713.59
611.38	45055.31
611.54	45219.15
611.69	44786.15
611.84	45057.65
612.00	45647.47
612.15	45689.60
612.31	45434.48
612.46	45265.96
612.62	45558.53
612.77	45982.16
612.92	45986.85
613.08	45895.56
613.23	46286.43
613.39	46431.55
613.54	46703.05
613.69	47007.32
613.85	46728.80
614.00	47320.95
614.15	47250.74
614.31	46731.14
614.46	47311.59
614.62	47222.65
614.77	47583.09
614.92	47100.94
615.08	47501.17
615.23	48329.72
615.38	47571.39
615.54	47407.55
615.69	47730.54
615.84	47758.63
616.00	48329.72
616.15	48306.32
616.30	48170.57
616.46	47931.83
616.61	47866.30
616.76	48076.94
616.92	47594.79
617.07	47669.69
617.22	47955.24
617.37	47566.71
617.53	47908.43
617.68	47873.32
617.83	47650.97
617.99	47957.58
618.14	48308.66
618.29	47763.31
618.45	47660.33
618.60	47182.86
618.75	47519.90
618.90	47634.58
619.06	47714.16
619.21	47688.42
619.36	47845.23
619.51	47906.08
619.67	47594.79
619.82	47749.27
619.97	48114.39
620.12	47538.62
620.28	47311.59
620.43	47185.20
620.58	47391.17
620.73	47185.20
620.89	47250.74
621.04	47320.95
621.19	47323.29
621.34	47089.24
621.49	47037.75
621.65	46574.32
621.80	47550.32
621.95	46749.86
622.10	47227.33
622.25	47070.51
622.41	47274.14
622.56	47276.48
622.71	46679.64
622.86	46667.94
623.01	46939.44
623.16	46913.70
623.32	46593.04
623.47	46681.98
623.62	46993.28
623.77	47084.56
623.92	47306.91
624.07	46628.15
624.23	47124.35
624.38	46665.60
624.53	46855.18
624.68	46525.17
624.83	46630.49
624.98	46307.50
625.13	46454.95
625.29	46983.91
625.44	46454.95
625.59	46312.18
625.74	46017.27
625.89	46829.44
626.04	46536.87
626.19	46295.80
626.34	46457.29
626.49	46286.43
626.65	45949.40
626.80	46225.58
626.95	46017.27
627.10	45844.07
627.25	45642.79
627.40	45944.72
627.55	46478.36
627.70	45930.67
627.85	46094.51
628.00	45872.16
628.15	45909.61
628.30	45198.09
628.45	45797.26
628.60	45500.01
628.76	46160.05
628.91	45603.00
629.06	45560.87
629.21	45495.33
629.36	45942.38
629.51	45460.23
629.66	45834.71
629.81	46019.61
629.96	45603.00
630.11	45923.65
630.26	45659.17
630.41	45895.56
630.56	45839.39
630.71	45500.01
630.86	45813.65
631.01	45467.25
631.16	45614.70
631.31	45595.98
631.46	45228.51
631.61	45729.39
631.76	45668.53
631.91	46026.63
632.06	45509.38
632.21	45338.52
632.36	45382.99
632.51	45584.27
632.66	45153.62
632.81	45263.62
632.96	45265.96
633.10	45514.06
633.25	45113.83
633.40	45289.37
633.55	45516.40
633.70	45490.65
633.85	45291.71
634.00	45443.84
634.15	45387.67
634.30	45219.15
634.45	45750.45
634.60	45757.47
634.75	45195.74
634.90	45038.93
635.05	44875.09
635.19	45067.02
635.34	45251.92
635.49	45123.19
635.64	44949.99
635.79	45347.88
635.94	45228.51
636.09	45315.11
636.24	44697.21
636.39	45354.90
636.53	45394.69
636.68	45130.21
636.83	44575.50
636.98	45092.76
637.13	44392.94
637.28	45162.98
637.43	44662.10
637.57	44807.22
637.72	44591.89
637.87	44748.70
638.02	44992.12
638.17	44626.99
638.32	44861.05
638.46	45343.20
638.61	44875.09
638.76	44231.44
638.91	44952.33
639.06	44425.71
639.20	44430.39
639.35	44720.62
639.50	44147.18
639.65	44697.21
639.80	44488.90
639.94	44442.09
640.09	44470.18
640.24	44734.66
640.39	44718.28
640.54	44617.63
640.68	43753.97
640.83	43800.79
640.98	43805.47
641.13	43676.74
641.27	44395.28
641.42	44076.97
641.57	43959.94
641.72	44098.03
641.86	43999.73
642.01	43798.44
642.16	44144.84
642.31	44027.82
642.45	44638.70
642.60	43929.51
642.75	44502.95
642.90	44163.57
643.04	44135.48
643.19	43658.01
643.34	44041.86
643.48	43681.42
643.63	43452.05
643.78	44119.10
643.93	44062.93
644.07	43952.92
644.22	44020.80
644.37	43709.50
644.51	44039.52
644.66	43618.22
644.81	44044.20
644.95	44041.86
645.10	43559.71
645.25	43690.78
645.39	44126.12
645.54	44128.46
645.69	43676.74
645.83	43873.34
645.98	43618.22
646.13	44060.58
646.27	43213.31
646.42	43576.09
646.57	43672.06
646.71	43756.32
646.86	43807.81
647.00	43636.95
647.15	43285.87
647.30	43599.50
647.44	43882.70
647.59	43143.09
647.74	43356.08
647.88	43269.48
648.03	43690.78
648.17	43428.64
648.32	42696.05
648.47	42948.83
648.61	43217.99
648.76	43274.16
648.90	43005.00
649.05	43058.84
649.20	43452.05
649.34	43274.16
649.49	43370.13
649.63	43255.44
649.78	43271.82
649.92	42597.75
650.07	43105.65
650.21	42707.76
650.36	42436.25
650.51	42595.41
650.65	42817.76
650.80	43035.43
650.94	43026.07
651.09	42581.37
651.23	42347.31
651.38	42990.96
651.52	42766.27
651.67	42995.64
651.81	42555.62
651.96	42410.51
652.10	42644.56
652.25	42469.02
652.39	42298.16
652.54	42838.83
652.68	42284.12
652.83	42164.75
652.97	42351.99
653.12	42082.83
653.26	41895.59
653.41	42075.81
653.55	42249.01
653.70	42099.22
653.84	42139.00
653.99	42440.93
654.13	42188.16
654.27	42188.16
654.42	41846.44
654.56	42169.43
654.71	42408.17
654.85	42078.15
655.00	42000.91
655.14	41947.08
655.29	41853.46
655.43	41771.54
655.57	41834.74
655.72	41621.75
655.86	41820.69
656.01	41858.14
656.15	41453.23
656.30	42017.30
656.44	41661.54
656.58	41741.11
656.73	41949.42
656.87	41375.99
657.01	41134.92
657.16	41614.72
657.30	41549.19
657.45	41268.33
657.59	41603.02
657.73	41289.39
657.88	41488.34
658.02	41270.67
658.16	41614.72
658.31	41546.85
658.45	41851.12
658.60	41043.63
658.74	41401.74
658.88	41357.27
659.03	41184.07
659.17	40898.52
659.31	40954.69
659.46	40552.12
659.60	40634.04
659.74	41088.10
659.89	40739.36
660.03	40865.75
660.17	41067.04
660.32	40598.93
660.46	41181.73
660.60	40484.25
660.74	41289.39
660.89	40432.75
661.03	40109.76
661.17	40243.17
661.32	40278.28
661.46	40596.59
661.60	39917.84
661.74	40561.48
661.89	39428.66
662.03	40119.12
662.17	39463.77
662.31	39220.36
662.46	40062.95
662.60	39873.37
662.74	39531.65
662.88	39651.02
663.03	39611.23
663.17	39402.92
663.31	39337.38
663.45	39583.14
663.60	39643.99
663.74	39873.37
663.88	39030.77
664.02	39725.91
664.17	39782.09
664.31	39288.23
664.45	38810.76
664.59	39281.21
664.73	38422.23
664.88	39222.70
665.02	39220.36
665.16	39035.45
665.30	39133.76
665.44	39351.43
665.59	38422.23
665.73	38483.09
665.87	38169.46
666.01	38293.50
666.15	38726.50
666.29	38143.71
666.44	38176.48
666.58	37830.08
666.72	37738.80
666.86	37867.53
667.00	37909.66
667.14	37991.58
667.28	37975.19
667.43	38218.61
667.57	38309.89
667.71	38073.49
667.85	37862.85
667.99	37493.04
668.13	37324.52
668.27	37060.04
668.41	37523.47
668.56	36940.68
668.70	36765.14
668.84	37125.58
668.98	36980.46
669.12	36591.94
669.26	37284.73
669.40	36875.14
669.54	37123.24
669.68	37092.81
669.82	37006.21
669.96	36730.03
670.10	36481.93
670.25	36378.95
670.39	36659.81
670.53	36133.19
670.67	35934.24
670.81	36105.10
670.95	36212.77
671.09	36023.19
671.23	36163.62
671.37	36144.89
671.51	36187.02
671.65	35880.41
671.79	35821.90
671.93	35828.92
672.07	35747.00
672.21	35681.47
672.35	35227.40
672.49	34960.58
672.63	35365.49
672.77	35030.80
672.91	35330.39
673.05	34763.98
673.19	34466.73
673.33	34895.05
673.47	34389.49
673.61	34782.70
673.75	34534.60
673.89	34866.96
674.03	34448.00
674.17	34625.89
674.31	34792.06
674.45	34141.39
674.59	34223.31
674.73	34469.07
674.87	34515.88
675.01	34052.45
675.15	34099.26
675.29	34024.37
675.43	33853.51
675.56	33773.93
675.70	34087.56
675.84	33696.69
675.98	32620.05
676.12	33305.82
676.26	33034.32
676.40	33209.86
676.54	32657.49
676.68	33151.35
676.82	32678.56
676.96	32526.42
677.10	32418.76
677.23	31995.12
677.37	32273.65
677.51	31747.03
677.65	32182.37
677.79	31723.62
677.93	31651.06
678.07	31608.93
678.21	30906.77
678.34	31524.68
678.48	30831.88
678.62	30536.97
678.76	30710.17
678.90	30700.81
679.04	31180.62
679.18	30796.77
679.31	31295.30
679.45	30778.04
679.59	30946.56
679.73	30604.84
679.87	30520.59
680.00	30555.69
680.14	29907.37
680.28	29619.48
680.42	29579.69
680.56	29551.60
680.70	29757.57
680.83	29912.05
680.97	29366.70
681.11	29689.70
681.25	29230.95
681.39	29109.24
681.52	29509.47
681.66	28966.47
681.80	28762.84
681.94	28718.37
682.07	28783.91
682.21	28425.81
682.35	28121.54
682.49	28053.66
682.62	28051.32
682.76	27946.00
682.90	27964.72
683.04	27669.81
683.17	27456.82
683.31	27388.95
683.45	27555.13
683.59	27351.50
683.72	27267.24
683.86	27346.82
684.00	27255.54
684.13	27056.59
684.27	27061.27
684.41	26808.50
684.55	26843.60
684.68	26717.22
684.82	26391.88
684.96	26466.78
685.09	26504.23
685.23	26284.22
685.37	26143.78
685.50	25797.38
685.64	25862.92
685.78	25781.00
685.91	26204.64
686.05	26235.06
686.19	25841.85
686.32	25778.66
686.46	25413.54
686.60	25685.04
686.73	25750.57
686.87	25537.59
687.01	25895.69
687.14	25813.77
687.28	25832.49
687.42	25769.30
687.55	25348.00
687.69	25153.74
687.82	25275.45
687.96	24915.00
688.10	24650.52
688.23	24596.69
688.37	24905.64
688.50	25029.69
688.64	25017.99
688.78	24924.36
688.91	24805.00
689.05	24797.98
689.18	24542.86
689.32	24215.18
689.46	24238.59
689.59	24524.13
689.73	24563.92
689.86	24191.78
690.00	24437.53
690.13	24379.02
690.27	23828.99
690.41	23847.72
690.54	23655.79
690.68	23754.10
690.81	23744.73
690.95	23915.59
691.08	23824.31
691.22	23754.10
691.35	23468.55
691.49	23644.09
691.62	23396.00
691.76	23824.31
691.89	23377.27
692.03	23211.09
692.16	23087.04
692.30	22745.33
692.43	23192.37
692.57	23063.64
692.70	23009.81
692.84	22808.52
692.97	22466.80
693.11	22382.54
693.24	22293.60
693.38	22293.60
693.51	22391.91
693.65	22616.60
693.78	22139.13
693.92	22380.20
694.05	22522.98
694.19	22029.12
694.32	21958.91
694.45	22104.02
694.59	22040.82
694.72	21956.57
694.86	22026.78
694.99	21659.32
695.13	21996.35
695.26	21666.34
695.39	21795.07
695.53	21661.66
695.66	21654.64
695.80	21891.03
695.93	21160.78
696.07	21195.89
696.20	20891.62
696.33	20854.17
696.47	20840.13
696.60	20987.58
696.73	20725.44
696.87	21359.73
697.00	20917.37
697.14	20542.88
697.27	20526.50
697.40	20854.17
697.54	20430.54
697.67	20276.06
697.80	20098.18
697.94	20039.67
698.07	19880.51
698.21	19637.09
698.34	19988.18
698.47	19782.21
698.61	19489.64
698.74	19571.56
698.87	19522.41
699.01	19431.13
699.14	19524.75
699.27	19433.47
699.40	19585.60
699.54	19374.95
699.67	19058.98
699.80	19522.41
699.94	19192.39
700.07	18991.11
700.20	19040.26
700.34	19068.34
700.47	18668.11
700.60	19051.96
700.73	18864.72
700.87	18576.83
701.00	18576.83
701.13	18253.84
701.26	18368.52
701.40	18150.85
701.53	18214.05
701.66	18143.83
701.79	18310.01
701.93	17963.61
702.06	17914.46
702.19	17685.09
702.32	18120.43
702.46	17867.65
702.59	17968.29
702.72	17654.66
702.85	17713.17
702.99	17312.94
703.12	17352.73
703.25	17006.33
703.38	16910.37
703.51	17109.32
703.65	17074.21
703.78	16753.55
703.91	16662.27
704.04	16608.44
704.17	16706.74
704.31	16563.97
704.44	16519.50
704.57	16570.99
704.70	16791.00
704.83	16575.67
704.96	16751.21
705.10	16507.80
705.23	16594.40
>>>>>End Processed Spectral Data<<<<<
