SpectraSuite Data File
++++++++++++++++++++++++++++++++++++
Date: Mon Sep 30 18:11:51 GMT-05:00 2013
User: stostad
Dark Spectrum Present: No
Reference Spectrum Present: No
Number of Sampled Component Spectra: 1
Spectrometers: USB2+H05261
Integration Time (usec): 100000 (USB2+H05261)
Spectra Averaged: 1 (USB2+H05261)
Boxcar Smoothing: 0 (USB2+H05261)
Correct for Electrical Dark: No (USB2+H05261)
Strobe/Lamp Enabled: No (USB2+H05261)
Correct for Detector Non-linearity: No (USB2+H05261)
Correct for Stray Light: No (USB2+H05261)
Number of Pixels in Processed Spectrum: 2048
>>>>>Begin Processed Spectral Data<<<<<
365.73	93.62
365.92	93.62
366.12	93.62
366.32	56.17
366.52	0.00
366.72	37.45
366.91	49.15
367.11	53.83
367.31	63.19
367.51	0.00
367.70	0.00
367.90	16.38
368.10	70.22
368.30	44.47
368.49	46.81
368.69	18.72
368.89	72.56
369.09	21.06
369.28	37.45
369.48	79.58
369.68	0.00
369.87	16.38
370.07	0.00
370.27	117.03
370.47	140.43
370.66	294.91
370.86	294.91
371.06	315.97
371.25	374.49
371.45	290.23
371.65	351.08
371.84	355.76
372.04	276.18
372.24	369.80
372.44	344.06
372.63	341.72
372.83	404.91
373.03	327.68
373.22	278.52
373.42	283.20
373.62	440.02
373.81	390.87
374.01	334.70
374.21	379.17
374.40	315.97
374.60	404.91
374.79	369.80
374.99	344.06
375.19	407.25
375.38	409.59
375.58	355.76
375.78	362.78
375.97	372.15
376.17	468.11
376.37	407.25
376.56	388.53
376.76	433.00
376.95	411.93
377.15	440.02
377.35	440.02
377.54	552.37
377.74	484.49
377.93	437.68
378.13	418.96
378.33	425.98
378.52	475.13
378.72	444.70
378.91	407.25
379.11	332.36
379.31	355.76
379.50	308.95
379.70	449.38
379.89	374.49
380.09	365.12
380.28	484.49
380.48	425.98
380.68	428.32
380.87	383.85
381.07	348.74
381.26	423.64
381.46	386.19
381.65	437.68
381.85	376.83
382.04	355.76
382.24	344.06
382.43	318.31
382.63	306.61
382.83	313.63
383.02	397.89
383.22	395.55
383.41	322.99
383.61	358.10
383.80	358.10
384.00	407.25
384.19	465.77
384.39	397.89
384.58	442.36
384.78	421.30
384.97	461.09
385.17	386.19
385.36	407.25
385.56	447.04
385.75	348.74
385.95	484.49
386.14	512.58
386.34	475.13
386.53	456.40
386.72	407.25
386.92	430.66
387.11	411.93
387.31	458.74
387.50	400.23
387.70	444.70
387.89	418.96
388.09	430.66
388.28	402.57
388.48	428.32
388.67	484.49
388.86	451.72
389.06	550.03
389.25	507.90
389.45	533.64
389.64	547.69
389.84	552.37
390.03	470.45
390.22	557.05
390.42	538.32
390.61	554.71
390.81	571.09
391.00	592.16
391.19	617.90
391.39	505.56
391.58	547.69
391.78	547.69
391.97	512.58
392.16	395.55
392.36	472.79
392.55	365.12
392.75	322.99
392.94	297.25
393.13	395.55
393.33	416.62
393.52	456.40
393.71	550.03
393.91	519.60
394.10	510.24
394.29	500.87
394.49	599.18
394.68	645.99
394.88	617.90
395.07	601.52
395.26	543.00
395.46	634.29
395.65	608.54
395.84	528.96
396.04	491.51
396.23	458.74
396.42	407.25
396.62	465.77
396.81	479.81
397.00	535.98
397.19	620.24
397.39	561.73
397.58	664.71
397.77	681.10
397.97	695.14
398.16	730.25
398.35	725.57
398.55	699.82
398.74	805.14
398.93	807.48
399.12	730.25
399.32	800.46
399.51	856.64
399.70	791.10
399.90	791.10
400.09	716.20
400.28	788.76
400.47	798.12
400.67	833.23
400.86	870.68
401.05	851.96
401.24	887.06
401.44	763.01
401.63	826.21
401.82	889.40
402.01	819.19
402.21	861.32
402.40	887.06
402.59	805.14
402.78	730.25
402.97	770.04
403.17	819.19
403.36	840.25
403.55	959.62
403.74	910.47
403.93	741.95
404.13	760.67
404.32	723.23
404.51	851.96
404.70	910.47
404.89	875.36
405.09	858.98
405.28	821.53
405.47	917.49
405.66	779.40
405.85	842.59
406.05	774.72
406.24	802.80
406.43	840.25
406.62	842.59
406.81	903.45
407.00	823.87
407.20	788.76
407.39	842.59
407.58	863.66
407.77	912.81
407.96	861.32
408.15	915.15
408.34	908.13
408.54	957.28
408.73	929.19
408.92	910.47
409.11	884.72
409.30	905.79
409.49	786.42
409.68	786.42
409.87	828.55
410.07	870.68
410.26	858.98
410.45	905.79
410.64	896.43
410.83	1029.84
411.02	933.87
411.21	990.05
411.40	1027.50
411.59	889.40
411.78	922.17
411.98	915.15
412.17	954.94
412.36	983.02
412.55	983.02
412.74	1057.92
412.93	976.00
413.12	889.40
413.31	1074.31
413.50	1015.79
413.69	1039.20
413.88	1018.13
414.07	1011.11
414.26	931.53
414.45	994.73
414.64	1053.24
414.83	1067.28
415.02	1039.20
415.22	1050.90
415.41	1046.22
415.60	1015.79
415.79	1104.73
415.98	1165.59
416.17	1043.88
416.36	1048.56
416.55	1011.11
416.74	1004.09
416.93	1039.20
417.12	1008.77
417.31	1135.16
417.50	1064.94
417.69	1121.12
417.88	1027.50
418.07	1015.79
418.26	983.02
418.45	1064.94
418.64	1067.28
418.83	1083.67
419.02	1041.54
419.21	1121.12
419.39	1043.88
419.58	976.00
419.77	1093.03
419.96	1137.50
420.15	1097.71
420.34	1165.59
420.53	1102.39
420.72	1151.54
420.91	1137.50
421.10	1083.67
421.29	1067.28
421.48	1090.69
421.67	1172.61
421.86	1153.88
422.05	952.60
422.24	1027.50
422.43	1022.81
422.61	1100.05
422.80	1165.59
422.99	1088.35
423.18	1067.28
423.37	1132.82
423.56	1057.92
423.75	1100.05
423.94	1036.86
424.13	978.34
424.32	978.34
424.50	1064.94
424.69	1104.73
424.88	1224.10
425.07	1041.54
425.26	971.32
425.45	1034.52
425.64	952.60
425.83	1001.75
426.01	1114.10
426.20	1116.44
426.39	1008.77
426.58	898.77
426.77	938.55
426.96	943.24
427.15	1011.11
427.33	1027.50
427.52	1036.86
427.71	1076.65
427.90	1048.56
428.09	1100.05
428.28	966.64
428.46	971.32
428.65	966.64
428.84	1074.31
429.03	1029.84
429.22	866.00
429.40	828.55
429.59	835.57
429.78	873.02
429.97	774.72
430.16	875.36
430.34	737.27
430.53	734.93
430.72	746.63
430.91	945.58
431.10	985.37
431.28	1144.52
431.47	1207.72
431.66	1247.51
431.85	1078.99
432.03	957.28
432.22	980.68
432.41	1104.73
432.60	1151.54
432.79	1226.44
432.97	1177.29
433.16	1088.35
433.35	994.73
433.54	952.60
433.72	912.81
433.91	915.15
434.10	1064.94
434.28	1118.78
434.47	1172.61
434.66	1008.77
434.85	1095.37
435.03	1191.33
435.22	1357.51
435.41	1451.13
435.59	1310.70
435.78	1252.19
435.97	1268.57
436.16	1329.42
436.34	1240.48
436.53	1149.20
436.72	1095.37
436.90	1135.16
437.09	1097.71
437.28	1160.91
437.46	1224.10
437.65	1163.25
437.84	1095.37
438.02	978.34
438.21	1004.09
438.40	1095.37
438.58	1149.20
438.77	1039.20
438.96	1188.99
439.14	1238.14
439.33	1240.48
439.52	1291.98
439.70	1214.74
439.89	1259.21
440.08	1165.59
440.26	1203.04
440.45	1273.25
440.63	1329.42
440.82	1376.24
441.01	1247.51
441.19	1282.61
441.38	1345.81
441.57	1320.06
441.75	1416.02
441.94	1376.24
442.12	1387.94
442.31	1303.68
442.50	1397.30
442.68	1448.79
442.87	1376.24
443.05	1348.15
443.24	1390.28
443.43	1397.30
443.61	1561.14
443.80	1383.26
443.98	1401.98
444.17	1301.34
444.35	1540.07
444.54	1366.87
444.73	1416.02
444.91	1355.17
445.10	1259.21
445.28	1299.00
445.47	1322.40
445.65	1252.19
445.84	1334.11
446.02	1336.45
446.21	1359.85
446.39	1306.02
446.58	1406.66
446.77	1404.32
446.95	1462.83
447.14	1458.15
447.32	1509.65
447.51	1413.68
447.69	1301.34
447.88	1362.19
448.06	1296.66
448.25	1423.05
448.43	1345.81
448.62	1390.28
448.80	1458.15
448.99	1455.81
449.17	1369.21
449.36	1394.96
449.54	1472.20
449.73	1437.09
449.91	1444.11
450.10	1547.09
450.28	1547.09
450.46	1589.22
450.65	1472.20
450.83	1406.66
451.02	1390.28
451.20	1483.90
451.39	1516.67
451.57	1479.22
451.76	1526.03
451.94	1460.49
452.13	1455.81
452.31	1441.77
452.49	1294.32
452.68	1254.53
452.86	1404.32
453.05	1394.96
453.23	1406.66
453.42	1479.22
453.60	1570.50
453.78	1561.14
453.97	1334.11
454.15	1352.83
454.34	1425.39
454.52	1352.83
454.70	1380.92
454.89	1453.47
455.07	1425.39
455.26	1476.88
455.44	1490.92
455.62	1462.83
455.81	1537.73
455.99	1565.82
456.17	1481.56
456.36	1427.73
456.54	1465.18
456.73	1535.39
456.91	1577.52
457.09	1584.54
457.28	1542.41
457.46	1490.92
457.64	1502.62
457.83	1511.99
458.01	1465.18
458.19	1521.35
458.38	1420.71
458.56	1652.42
458.74	1481.56
458.93	1561.14
459.11	1568.16
459.29	1430.07
459.48	1493.26
459.66	1502.62
459.84	1474.54
460.03	1561.14
460.21	1638.38
460.39	1549.43
460.57	1556.46
460.76	1514.33
460.94	1568.16
461.12	1547.09
461.31	1537.73
461.49	1476.88
461.67	1584.54
461.85	1626.67
462.04	1547.09
462.22	1739.02
462.40	1565.82
462.59	1565.82
462.77	1570.50
462.95	1479.22
463.13	1490.92
463.32	1490.92
463.50	1514.33
463.68	1626.67
463.86	1582.20
464.05	1380.92
464.23	1467.52
464.41	1448.79
464.59	1493.26
464.78	1568.16
464.96	1481.56
465.14	1366.87
465.32	1598.59
465.50	1603.27
465.69	1603.27
465.87	1544.75
466.05	1460.49
466.23	1453.47
466.41	1441.77
466.60	1507.30
466.78	1469.86
466.96	1533.05
467.14	1584.54
467.32	1479.22
467.51	1474.54
467.69	1507.30
467.87	1528.37
468.05	1570.50
468.23	1647.74
468.41	1579.86
468.60	1483.90
468.78	1458.15
468.96	1537.73
469.14	1565.82
469.32	1607.95
469.50	1364.53
469.69	1544.75
469.87	1460.49
470.05	1444.11
470.23	1561.14
470.41	1378.58
470.59	1537.73
470.77	1549.43
470.95	1528.37
471.14	1607.95
471.32	1591.56
471.50	1645.40
471.68	1575.18
471.86	1687.53
472.04	1603.27
472.22	1689.87
472.40	1605.61
472.58	1490.92
472.77	1511.99
472.95	1579.86
473.13	1703.91
473.31	1626.67
473.49	1547.09
473.67	1549.43
473.85	1614.97
474.03	1596.25
474.21	1687.53
474.39	1678.16
474.57	1661.78
474.75	1593.90
474.93	1666.46
475.12	1643.06
475.30	1671.14
475.48	1671.14
475.66	1710.93
475.84	1617.31
476.02	1694.55
476.20	1516.67
476.38	1556.46
476.56	1692.21
476.74	1680.50
476.92	1706.25
477.10	1727.32
477.28	1741.36
477.46	1678.16
477.64	1736.68
477.82	1753.06
478.00	1767.10
478.18	1743.70
478.36	1739.02
478.54	1715.61
478.72	1706.25
478.90	1811.57
479.08	1795.19
479.26	1778.81
479.44	1926.26
479.62	1940.30
479.80	1884.13
479.98	1907.54
480.16	1900.52
480.34	1987.11
480.52	1930.94
480.70	1858.39
480.88	1823.28
481.06	1947.33
481.24	1877.11
481.41	1952.01
481.59	1909.88
481.77	1907.54
481.95	1872.43
482.13	1980.09
482.31	1966.05
482.49	1942.64
482.67	2080.74
482.85	1987.11
483.03	2052.65
483.21	2083.08
483.39	2047.97
483.57	2050.31
483.74	2047.97
483.92	2071.37
484.10	1888.81
484.28	2094.78
484.46	2097.12
484.64	2090.10
484.82	2104.14
485.00	2024.56
485.18	1968.39
485.35	1849.02
485.53	1647.74
485.71	1565.82
485.89	1727.32
486.07	1813.92
486.25	2031.58
486.43	1930.94
486.61	1998.82
486.78	1998.82
486.96	1994.14
487.14	2073.71
487.32	2239.89
487.50	2181.38
487.68	2267.98
487.85	2258.62
488.03	2228.19
488.21	2279.68
488.39	2136.91
488.57	2223.51
488.75	2209.47
488.92	2410.75
489.10	2462.24
489.28	2436.50
489.46	2349.90
489.64	2359.26
489.81	2377.98
489.99	2480.97
490.17	2410.75
490.35	2415.43
490.53	2441.18
490.70	2356.92
490.88	2504.37
491.06	2483.31
491.24	2375.64
491.41	2389.69
491.59	2132.23
491.77	2162.66
491.95	2239.89
492.13	2427.14
492.30	2443.52
492.48	2495.01
492.66	2483.31
492.84	2523.10
493.01	2487.99
493.19	2448.20
493.37	2413.09
493.54	2403.73
493.72	2485.65
493.90	2600.34
494.08	2698.64
494.25	2698.64
494.43	2614.38
494.61	2696.30
494.79	2675.23
494.96	2663.53
495.14	2569.91
495.32	2457.56
495.49	2483.31
495.67	2670.55
495.85	2764.17
496.02	2810.98
496.20	2740.77
496.38	2689.28
496.55	2668.21
496.73	2684.59
496.91	2761.83
497.09	2796.94
497.26	2731.41
497.44	2789.92
497.62	2677.57
497.79	2630.76
497.97	2520.76
498.14	2562.89
498.32	2677.57
498.50	2689.28
498.67	2705.66
498.85	2726.72
499.03	2750.13
499.20	2719.70
499.38	2640.12
499.56	2752.47
499.73	2754.81
499.91	2696.30
500.08	2597.99
500.26	2558.21
500.44	2740.77
500.61	2649.49
500.79	2612.04
500.97	2675.23
501.14	2677.57
501.32	2661.19
501.49	2647.15
501.67	2518.42
501.84	2595.65
502.02	2651.83
502.20	2712.68
502.37	2778.22
502.55	2768.85
502.72	2675.23
502.90	2761.83
503.07	2686.94
503.25	2656.51
503.43	2600.34
503.60	2490.33
503.78	2487.99
503.95	2497.35
504.13	2860.13
504.30	2785.24
504.48	2836.73
504.65	2750.13
504.83	2848.43
505.01	2724.38
505.18	2738.43
505.36	2913.97
505.53	2836.73
505.71	2846.09
505.88	2918.65
506.06	2841.41
506.23	2782.90
506.41	2733.75
506.58	2696.30
506.76	2775.88
506.93	2729.06
507.11	2708.00
507.28	2705.66
507.46	2663.53
507.63	2698.64
507.81	2693.96
507.98	2689.28
508.16	2836.73
508.33	2839.07
508.50	2890.56
508.68	2916.31
508.85	2850.77
509.03	2909.29
509.20	2712.68
509.38	2729.06
509.55	2773.53
509.73	2862.48
509.90	2862.48
510.08	2829.71
510.25	2834.39
510.42	2825.03
510.60	2740.77
510.77	2761.83
510.95	2951.42
511.12	2995.89
511.30	3000.57
511.47	3021.63
511.64	2857.79
511.82	2843.75
511.99	2722.04
512.17	2696.30
512.34	2846.09
512.51	2850.77
512.69	2799.28
512.86	2834.39
513.04	2942.05
513.21	2871.84
513.38	2895.24
513.56	2729.06
513.73	2689.28
513.90	2792.26
514.08	2803.96
514.25	2808.64
514.43	2759.49
514.60	2813.32
514.77	2857.79
514.95	2752.47
515.12	2700.98
515.29	2792.26
515.47	2920.99
515.64	2967.80
515.81	2963.12
515.99	2761.83
516.16	2619.06
516.33	2392.03
516.51	2282.02
516.68	2314.79
516.85	2272.66
517.03	2406.07
517.20	2672.89
517.37	2757.15
517.54	2841.41
517.72	2771.19
517.89	2359.26
518.06	2314.79
518.24	2530.12
518.41	2609.70
518.58	2801.62
518.75	2764.17
518.93	2747.79
519.10	2717.36
519.27	2766.51
519.45	2958.44
519.62	2850.77
519.79	2869.50
519.96	2782.90
520.14	2761.83
520.31	2745.45
520.48	2810.98
520.65	2820.35
520.83	3005.25
521.00	2913.97
521.17	2888.22
521.34	2696.30
521.52	2911.63
521.69	2946.73
521.86	2832.05
522.03	2862.48
522.20	2703.32
522.38	2665.87
522.55	2818.00
522.72	2799.28
522.89	2724.38
523.07	2813.32
523.24	2951.42
523.41	3016.95
523.58	2951.42
523.75	2928.01
523.92	3028.65
524.10	2899.92
524.27	2911.63
524.44	2916.31
524.61	2853.11
524.78	2792.26
524.96	2829.71
525.13	2839.07
525.30	2928.01
525.47	2932.69
525.64	2902.26
525.81	2693.96
525.98	2663.53
526.16	2637.78
526.33	2436.50
526.50	2436.50
526.67	2527.78
526.84	2539.48
527.01	2754.81
527.18	2759.49
527.36	2808.64
527.53	2874.18
527.70	2752.47
527.87	2738.43
528.04	2775.88
528.21	2897.58
528.38	2944.39
528.55	2874.18
528.72	2988.86
528.89	2970.14
529.07	2885.88
529.24	2815.66
529.41	2815.66
529.58	2689.28
529.75	2782.90
529.92	2806.30
530.09	2916.31
530.26	2925.67
530.43	2946.73
530.60	2925.67
530.77	2857.79
530.94	2916.31
531.11	2991.20
531.28	2846.09
531.46	2822.69
531.63	2944.39
531.80	2810.98
531.97	2778.22
532.14	2703.32
532.31	2553.52
532.48	2597.99
532.65	2637.78
532.82	2764.17
532.99	2834.39
533.16	2953.76
533.33	2825.03
533.50	2818.00
533.67	2693.96
533.84	2792.26
534.01	2808.64
534.18	2771.19
534.35	2871.84
534.52	2850.77
534.69	2759.49
534.86	2803.96
535.03	2998.23
535.20	2895.24
535.37	2944.39
535.54	2855.45
535.71	2848.43
535.88	2829.71
536.05	2909.29
536.22	2836.73
536.38	2684.59
536.55	2609.70
536.72	2668.21
536.89	2703.32
537.06	2778.22
537.23	2792.26
537.40	2960.78
537.57	2820.35
537.74	2796.94
537.91	2885.88
538.08	2904.60
538.25	2719.70
538.42	2724.38
538.59	2803.96
538.75	2703.32
538.92	2747.79
539.09	2712.68
539.26	2595.65
539.43	2715.02
539.60	2810.98
539.77	2689.28
539.94	2705.66
540.11	2626.08
540.28	2682.25
540.44	2644.81
540.61	2729.06
540.78	2738.43
540.95	2724.38
541.12	2696.30
541.29	2796.94
541.46	3007.59
541.62	2726.72
541.79	2806.30
541.96	2785.24
542.13	2848.43
542.30	2822.69
542.47	2747.79
542.63	2684.59
542.80	2689.28
542.97	2738.43
543.14	2637.78
543.31	2750.13
543.48	2981.84
543.64	2995.89
543.81	2967.80
543.98	3075.46
544.15	2803.96
544.32	2670.55
544.48	2684.59
544.65	2899.92
544.82	2878.86
544.99	2778.22
545.16	2904.60
545.32	2771.19
545.49	3201.85
545.66	3129.30
545.83	3112.91
546.00	2820.35
546.16	2787.58
546.33	2752.47
546.50	2787.58
546.67	2871.84
546.83	2822.69
547.00	2703.32
547.17	2455.22
547.34	2576.93
547.50	2686.94
547.67	2794.60
547.84	2619.06
548.00	2754.81
548.17	2799.28
548.34	2679.91
548.51	2733.75
548.67	2658.85
548.84	2822.69
549.01	2642.46
549.18	2698.64
549.34	2689.28
549.51	2698.64
549.68	2679.91
549.84	2672.89
550.01	2682.25
550.18	2803.96
550.34	2771.19
550.51	2698.64
550.68	2792.26
550.84	2703.32
551.01	2612.04
551.18	2698.64
551.34	2696.30
551.51	2766.51
551.68	2761.83
551.84	2729.06
552.01	2647.15
552.18	2649.49
552.34	2541.82
552.51	2605.02
552.68	2572.25
552.84	2626.08
553.01	2799.28
553.18	2504.37
553.34	2628.42
553.51	2693.96
553.67	2771.19
553.84	2644.81
554.01	2593.31
554.17	2708.00
554.34	2628.42
554.51	2595.65
554.67	2792.26
554.84	2738.43
555.00	2700.98
555.17	2661.19
555.33	2672.89
555.50	2593.31
555.67	2686.94
555.83	2609.70
556.00	2541.82
556.16	2719.70
556.33	2562.89
556.50	2466.92
556.66	2593.31
556.83	2504.37
556.99	2487.99
557.16	2525.44
557.32	2569.91
557.49	2443.52
557.65	2684.59
557.82	2602.68
557.98	2534.80
558.15	2434.16
558.32	2452.88
558.48	2328.83
558.65	2359.26
558.81	2321.81
558.98	2469.27
559.14	2459.90
559.31	2389.69
559.47	2389.69
559.64	2459.90
559.80	2431.82
559.97	2401.39
560.13	2530.12
560.30	2406.07
560.46	2546.50
560.63	2595.65
560.79	2546.50
560.96	2520.76
561.12	2401.39
561.29	2396.71
561.45	2359.26
561.61	2469.27
561.78	2443.52
561.94	2385.01
562.11	2370.96
562.27	2490.33
562.44	2495.01
562.60	2567.57
562.77	2560.55
562.93	2532.46
563.10	2370.96
563.26	2385.01
563.42	2473.95
563.59	2495.01
563.75	2375.64
563.92	2497.35
564.08	2487.99
564.24	2406.07
564.41	2527.78
564.57	2464.58
564.74	2377.98
564.90	2385.01
565.07	2352.24
565.23	2251.60
565.39	2282.02
565.56	2333.51
565.72	2253.94
565.88	2303.09
566.05	2321.81
566.21	2209.47
566.38	2354.58
566.54	2256.28
566.70	2422.45
566.87	2410.75
567.03	2408.41
567.19	2396.71
567.36	2487.99
567.52	2258.62
567.68	2349.90
567.85	2260.96
568.01	2230.53
568.17	2101.80
568.34	2078.40
568.50	2193.08
568.66	2251.60
568.83	2429.48
568.99	2146.27
569.15	2246.91
569.32	2303.09
569.48	2197.76
569.64	2174.36
569.81	2260.96
569.97	2214.15
570.13	2120.53
570.30	2132.23
570.46	2033.93
570.62	2012.86
570.78	2106.48
570.95	2104.14
571.11	2221.17
571.27	2237.55
571.43	2181.38
571.60	2317.13
571.76	2225.85
571.92	2249.25
572.09	2256.28
572.25	2263.30
572.41	2165.00
572.57	2188.40
572.74	2165.00
572.90	2242.23
573.06	2207.13
573.22	2115.84
573.38	2223.51
573.55	2188.40
573.71	2141.59
573.87	2179.04
574.03	2162.66
574.20	2183.72
574.36	2087.76
574.52	2069.03
574.68	2197.76
574.84	2078.40
575.01	2085.42
575.17	2141.59
575.33	2129.89
575.49	2188.40
575.65	2190.74
575.82	2094.78
575.98	2111.16
576.14	2209.47
576.30	2251.60
576.46	2183.72
576.62	2324.15
576.79	2204.78
576.95	2101.80
577.11	2176.70
577.27	2143.93
577.43	2139.25
577.59	2141.59
577.75	1989.46
577.92	2031.58
578.08	1935.62
578.24	2040.95
578.40	2078.40
578.56	2054.99
578.72	2179.04
578.88	2153.29
579.04	2069.03
579.21	2228.19
579.37	2122.87
579.53	2108.82
579.69	2141.59
579.85	2104.14
580.01	2193.08
580.17	1998.82
580.33	2157.97
580.49	2172.02
580.65	2113.50
580.82	2129.89
580.98	2197.76
581.14	2069.03
581.30	2253.94
581.46	2232.87
581.62	2150.95
581.78	2101.80
581.94	2197.76
582.10	2129.89
582.26	2342.88
582.42	2106.48
582.58	2148.61
582.74	2230.53
582.90	2094.78
583.06	2174.36
583.22	1989.46
583.38	2195.42
583.54	2122.87
583.70	2289.04
583.86	2272.66
584.02	2139.25
584.18	2230.53
584.34	2076.06
584.50	2080.74
584.66	2113.50
584.82	2045.63
584.98	2022.22
585.14	2132.23
585.30	2069.03
585.46	2036.27
585.62	2050.31
585.78	2043.29
585.94	2111.16
586.10	2029.24
586.26	2115.84
586.42	2111.16
586.58	2115.84
586.74	2076.06
586.90	2118.18
587.06	2026.90
587.22	2017.54
587.38	2005.84
587.54	2073.71
587.70	2031.58
587.86	1851.36
588.02	1937.96
588.18	1774.13
588.34	1694.55
588.49	1528.37
588.65	1582.20
588.81	1636.03
588.97	1629.01
589.13	1629.01
589.29	1715.61
589.45	1696.89
589.61	1795.19
589.77	1804.55
589.93	1844.34
590.08	1881.79
590.24	1837.32
590.40	1842.00
590.56	1877.11
590.72	1842.00
590.88	1750.72
591.04	1846.68
591.20	1839.66
591.35	1846.68
591.51	1771.79
591.67	1699.23
591.83	1753.06
591.99	1863.07
592.15	1937.96
592.31	1909.88
592.46	1853.70
592.62	1879.45
592.78	1900.52
592.94	1884.13
593.10	1851.36
593.26	1940.30
593.41	1874.77
593.57	1823.28
593.73	1856.04
593.89	1818.60
594.05	1703.91
594.20	1617.31
594.36	1825.62
594.52	1647.74
594.68	1774.13
594.84	1867.75
594.99	1926.26
595.15	1813.92
595.31	1797.53
595.47	1867.75
595.62	1727.32
595.78	1776.47
595.94	1837.32
596.10	1874.77
596.25	1921.58
596.41	1769.44
596.57	1774.13
596.73	1881.79
596.88	1804.55
597.04	1729.66
597.20	1762.42
597.36	1832.64
597.51	1834.98
597.67	1895.83
597.83	1907.54
597.99	1877.11
598.14	1860.73
598.30	1902.86
598.46	1902.86
598.61	1884.13
598.77	1921.58
598.93	1781.15
599.09	1909.88
599.24	1912.22
599.40	1877.11
599.56	1846.68
599.71	1844.34
599.87	1832.64
600.03	1898.17
600.18	1839.66
600.34	1788.17
600.50	1823.28
600.65	1867.75
600.81	1837.32
600.97	1820.94
601.12	1776.47
601.28	1778.81
601.44	1837.32
601.59	1825.62
601.75	1844.34
601.91	1741.36
602.06	1834.98
602.22	1830.30
602.37	1851.36
602.53	1806.89
602.69	1823.28
602.84	1811.57
603.00	1760.08
603.16	1888.81
603.31	1881.79
603.47	1785.83
603.62	1830.30
603.78	1813.92
603.94	1856.04
604.09	1898.17
604.25	1853.70
604.40	1912.22
604.56	1874.77
604.71	1874.77
604.87	1802.21
605.03	1727.32
605.18	1856.04
605.34	1802.21
605.49	1849.02
605.65	1867.75
605.80	1806.89
605.96	1790.51
606.12	1762.42
606.27	1923.92
606.43	1877.11
606.58	1853.70
606.74	1816.26
606.89	1732.00
607.05	1804.55
607.20	1732.00
607.36	1863.07
607.51	1774.13
607.67	1802.21
607.82	1734.34
607.98	1764.76
608.13	1788.17
608.29	1870.09
608.44	1839.66
608.60	1746.04
608.75	1783.49
608.91	1863.07
609.06	1795.19
609.22	1834.98
609.37	1853.70
609.53	1720.29
609.68	1783.49
609.84	1860.73
609.99	1811.57
610.15	1881.79
610.30	1991.80
610.46	2076.06
610.61	2186.06
610.76	2054.99
610.92	2087.76
611.07	2071.37
611.23	2167.34
611.38	2019.88
611.54	1888.81
611.69	1809.23
611.84	1767.10
612.00	1863.07
612.15	1893.49
612.31	1785.83
612.46	1771.79
612.62	1809.23
612.77	1750.72
612.92	1860.73
613.08	1717.95
613.23	1713.27
613.39	1806.89
613.54	1764.76
613.69	1806.89
613.85	1778.81
614.00	1778.81
614.15	1750.72
614.31	1614.97
614.46	1701.57
614.62	1675.82
614.77	1764.76
614.92	1799.87
615.08	1720.29
615.23	1736.68
615.38	1645.40
615.54	1685.19
615.69	1519.01
615.84	1636.03
616.00	1755.40
616.15	1544.75
616.30	1689.87
616.46	1556.46
616.61	1551.78
616.76	1659.44
616.92	1699.23
617.07	1664.12
617.22	1603.27
617.37	1668.80
617.53	1685.19
617.68	1699.23
617.83	1645.40
617.99	1689.87
618.14	1701.57
618.29	1657.10
618.45	1636.03
618.60	1671.14
618.75	1659.44
618.90	1535.39
619.06	1668.80
619.21	1694.55
619.36	1687.53
619.51	1579.86
619.67	1636.03
619.82	1535.39
619.97	1720.29
620.12	1729.66
620.28	1664.12
620.43	1509.65
620.58	1619.65
620.73	1547.09
620.89	1689.87
621.04	1652.42
621.19	1614.97
621.34	1647.74
621.49	1511.99
621.65	1556.46
621.80	1521.35
621.95	1589.22
622.10	1661.78
622.25	1563.48
622.41	1504.96
622.56	1528.37
622.71	1540.07
622.86	1621.99
623.01	1544.75
623.16	1526.03
623.32	1582.20
623.47	1467.52
623.62	1593.90
623.77	1481.56
623.92	1685.19
624.07	1479.22
624.23	1490.92
624.38	1479.22
624.53	1535.39
624.68	1591.56
624.83	1432.41
624.98	1479.22
625.13	1589.22
625.29	1528.37
625.44	1530.71
625.59	1483.90
625.74	1521.35
625.89	1530.71
626.04	1453.47
626.19	1500.28
626.34	1317.72
626.49	1521.35
626.65	1427.73
626.80	1467.52
626.95	1317.72
627.10	1446.45
627.25	1434.75
627.40	1263.89
627.55	1284.95
627.70	1320.06
627.85	1366.87
628.00	1535.39
628.15	1404.32
628.30	1401.98
628.45	1331.76
628.60	1383.26
628.76	1385.60
628.91	1401.98
629.06	1334.11
629.21	1336.45
629.36	1437.09
629.51	1390.28
629.66	1401.98
629.81	1385.60
629.96	1453.47
630.11	1521.35
630.26	1519.01
630.41	1535.39
630.56	1469.86
630.71	1341.13
630.86	1474.54
631.01	1434.75
631.16	1364.53
631.31	1371.55
631.46	1451.13
631.61	1427.73
631.76	1338.79
631.91	1303.68
632.06	1425.39
632.21	1355.17
632.36	1432.41
632.51	1432.41
632.66	1357.51
632.81	1387.94
632.96	1425.39
633.10	1352.83
633.25	1453.47
633.40	1366.87
633.55	1380.92
633.70	1327.08
633.85	1373.89
634.00	1249.85
634.15	1399.64
634.30	1390.28
634.45	1390.28
634.60	1390.28
634.75	1348.15
634.90	1413.68
635.05	1434.75
635.19	1373.89
635.34	1397.30
635.49	1373.89
635.64	1399.64
635.79	1404.32
635.94	1369.21
636.09	1362.19
636.24	1444.11
636.39	1357.51
636.53	1336.45
636.68	1439.43
636.83	1343.47
636.98	1329.42
637.13	1380.92
637.28	1451.13
637.43	1390.28
637.57	1364.53
637.72	1324.74
637.87	1387.94
638.02	1324.74
638.17	1376.24
638.32	1406.66
638.46	1308.36
638.61	1336.45
638.76	1357.51
638.91	1364.53
639.06	1259.21
639.20	1280.27
639.35	1366.87
639.50	1296.66
639.65	1359.85
639.80	1341.13
639.94	1423.05
640.09	1380.92
640.24	1355.17
640.39	1343.47
640.54	1331.76
640.68	1411.34
640.83	1317.72
640.98	1411.34
641.13	1268.57
641.27	1348.15
641.42	1317.72
641.57	1378.58
641.72	1404.32
641.86	1387.94
642.01	1406.66
642.16	1401.98
642.31	1338.79
642.45	1317.72
642.60	1331.76
642.75	1263.89
642.90	1362.19
643.04	1355.17
643.19	1287.29
643.34	1308.36
643.48	1224.10
643.63	1212.40
643.78	1366.87
643.93	1296.66
644.07	1270.91
644.22	1284.95
644.37	1151.54
644.51	1219.42
644.66	1334.11
644.81	1254.53
644.95	1233.46
645.10	1163.25
645.25	1205.38
645.39	1245.16
645.54	1224.10
645.69	1261.55
645.83	1198.35
645.98	1228.78
646.13	1198.35
646.27	1207.72
646.42	1167.93
646.57	1067.28
646.71	1203.04
646.86	1144.52
647.00	1137.50
647.15	1100.05
647.30	1153.88
647.44	1151.54
647.59	1144.52
647.74	1163.25
647.88	1181.97
648.03	1172.61
648.17	1315.38
648.32	1174.95
648.47	1153.88
648.61	1116.44
648.76	1090.69
648.90	1125.80
649.05	1128.14
649.20	1107.07
649.34	1064.94
649.49	1275.59
649.63	1224.10
649.78	1245.16
649.92	1242.82
650.07	1177.29
650.21	1203.04
650.36	1268.57
650.51	1160.91
650.65	1249.85
650.80	1167.93
650.94	1057.92
651.09	1041.54
651.23	1076.65
651.38	1104.73
651.52	1128.14
651.67	1196.01
651.81	1114.10
651.96	1231.12
652.10	1146.86
652.25	1123.46
652.39	1184.31
652.54	1149.20
652.68	1207.72
652.83	1219.42
652.97	1172.61
653.12	1102.39
653.26	1132.82
653.41	1123.46
653.55	1249.85
653.70	1128.14
653.84	1153.88
653.99	1224.10
654.13	1125.80
654.27	1013.45
654.42	1095.37
654.56	1064.94
654.71	1067.28
654.85	1146.86
655.00	1083.67
655.14	1060.26
655.29	1055.58
655.43	971.32
655.57	968.98
655.72	954.94
655.86	894.08
656.01	947.92
656.15	978.34
656.30	959.62
656.44	1015.79
656.58	1029.84
656.73	1057.92
656.87	1022.81
657.01	1088.35
657.16	1210.06
657.30	1074.31
657.45	1137.50
657.59	1111.75
657.73	1039.20
657.88	1163.25
658.02	1100.05
658.16	1102.39
658.31	1172.61
658.45	1057.92
658.60	1071.97
658.74	1118.78
658.88	1071.97
659.03	1193.67
659.17	1156.22
659.31	1123.46
659.46	1090.69
659.60	1135.16
659.74	1165.59
659.89	1125.80
660.03	1086.01
660.17	1067.28
660.32	1125.80
660.46	1135.16
660.60	1132.82
660.74	1221.76
660.89	1053.24
661.03	1128.14
661.17	1118.78
661.32	1097.71
661.46	1137.50
661.60	1069.62
661.74	1125.80
661.89	1235.80
662.03	1193.67
662.17	1153.88
662.31	1130.48
662.46	1179.63
662.60	1027.50
662.74	1062.60
662.88	1057.92
663.03	1022.81
663.17	1060.26
663.31	1093.03
663.45	1142.18
663.60	1086.01
663.74	1076.65
663.88	1086.01
664.02	1121.12
664.17	1015.79
664.31	1158.57
664.45	1071.97
664.59	1086.01
664.73	1064.94
664.88	1156.22
665.02	1109.41
665.16	1139.84
665.30	1097.71
665.44	1060.26
665.59	1118.78
665.73	1034.52
665.87	1043.88
666.01	1015.79
666.15	1130.48
666.29	1004.09
666.44	1137.50
666.58	1097.71
666.72	978.34
666.86	1057.92
667.00	1074.31
667.14	1004.09
667.28	1104.73
667.43	1036.86
667.57	987.71
667.71	1109.41
667.85	1025.15
667.99	1013.45
668.13	1036.86
668.27	1132.82
668.41	1081.33
668.56	1039.20
668.70	1053.24
668.84	1088.35
668.98	983.02
669.12	1004.09
669.26	1025.15
669.40	983.02
669.54	926.85
669.68	1088.35
669.82	1013.45
669.96	966.64
670.10	1025.15
670.25	1034.52
670.39	1036.86
670.53	990.05
670.67	954.94
670.81	973.66
670.95	1034.52
671.09	980.68
671.23	966.64
671.37	964.30
671.51	961.96
671.65	1006.43
671.79	898.77
671.93	943.24
672.07	1022.81
672.21	947.92
672.35	889.40
672.49	896.43
672.63	1069.62
672.77	999.41
672.91	959.62
673.05	992.39
673.19	985.37
673.33	985.37
673.47	990.05
673.61	933.87
673.75	882.38
673.89	976.00
674.03	1008.77
674.17	957.28
674.31	1008.77
674.45	1020.47
674.59	961.96
674.73	854.30
674.87	940.90
675.01	1032.18
675.15	884.72
675.29	952.60
675.43	964.30
675.56	922.17
675.70	1008.77
675.84	884.72
675.98	917.49
676.12	947.92
676.26	875.36
676.40	802.80
676.54	926.85
676.68	926.85
676.82	940.90
676.96	959.62
677.10	943.24
677.23	945.58
677.37	917.49
677.51	954.94
677.65	987.71
677.79	877.70
677.93	844.93
678.07	884.72
678.21	816.85
678.34	884.72
678.48	912.81
678.62	887.06
678.76	835.57
678.90	800.46
679.04	898.77
679.18	800.46
679.31	901.11
679.45	875.36
679.59	858.98
679.73	781.74
679.87	863.66
680.00	896.43
680.14	847.27
680.28	812.17
680.42	826.21
680.56	844.93
680.70	791.10
680.83	830.89
680.97	709.18
681.11	933.87
681.25	823.87
681.39	826.21
681.52	791.10
681.66	784.08
681.80	919.83
681.94	840.25
682.07	814.51
682.21	791.10
682.35	910.47
682.49	774.72
682.62	837.91
682.76	800.46
682.90	814.51
683.04	858.98
683.17	814.51
683.31	793.44
683.45	821.53
683.59	898.77
683.72	812.17
683.86	788.76
684.00	758.33
684.13	781.74
684.27	737.27
684.41	739.61
684.55	791.10
684.68	753.65
684.82	695.14
684.96	777.06
685.09	781.74
685.23	678.76
685.37	791.10
685.50	713.86
685.64	709.18
685.78	751.31
685.91	737.27
686.05	667.05
686.19	650.67
686.32	641.31
686.46	479.81
686.60	552.37
686.73	458.74
686.87	493.85
687.01	468.11
687.14	535.98
687.28	444.70
687.42	585.13
687.55	580.45
687.69	608.54
687.82	596.84
687.96	643.65
688.10	657.69
688.23	603.86
688.37	636.63
688.50	578.11
688.64	514.92
688.78	554.71
688.91	582.79
689.05	613.22
689.18	554.71
689.32	547.69
689.46	573.43
689.59	603.86
689.73	660.03
689.86	517.26
690.00	580.45
690.13	535.98
690.27	557.05
690.41	650.67
690.54	674.07
690.68	622.58
690.81	613.22
690.95	543.00
691.08	662.37
691.22	608.54
691.35	580.45
691.49	538.32
691.62	552.37
691.76	528.96
691.89	568.75
692.03	559.39
692.16	617.90
692.30	533.64
692.43	573.43
692.57	554.71
692.70	559.39
692.84	557.05
692.97	500.87
693.11	641.31
693.24	564.07
693.38	564.07
693.51	552.37
693.65	594.50
693.78	533.64
693.92	517.26
694.05	498.53
694.19	550.03
694.32	545.34
694.45	505.56
694.59	620.24
694.72	540.66
694.86	550.03
694.99	514.92
695.13	543.00
695.26	500.87
695.39	566.41
695.53	601.52
695.66	486.83
695.80	617.90
695.93	519.60
696.07	545.34
696.20	491.51
696.33	568.75
696.47	599.18
696.60	550.03
696.73	535.98
696.87	608.54
697.00	613.22
697.14	540.66
697.27	552.37
697.40	636.63
697.54	507.90
697.67	599.18
697.80	578.11
697.94	582.79
698.07	463.43
698.21	503.22
698.34	587.47
698.47	547.69
698.61	489.17
698.74	510.24
698.87	463.43
699.01	437.68
699.14	479.81
699.27	528.96
699.40	606.20
699.54	498.53
699.67	517.26
699.80	486.83
699.94	573.43
700.07	510.24
700.20	484.49
700.34	554.71
700.47	486.83
700.60	442.36
700.73	503.22
700.87	440.02
701.00	456.40
701.13	524.28
701.26	470.45
701.40	514.92
701.53	489.17
701.66	409.59
701.79	447.04
701.93	531.30
702.06	561.73
702.19	472.79
702.32	491.51
702.46	435.34
702.59	444.70
702.72	444.70
702.85	503.22
702.99	486.83
703.12	503.22
703.25	505.56
703.38	451.72
703.51	568.75
703.65	496.19
703.78	428.32
703.91	505.56
704.04	514.92
704.17	519.60
704.31	472.79
704.44	447.04
704.57	528.96
704.70	514.92
704.83	528.96
704.96	491.51
705.10	475.13
705.23	482.15
>>>>>End Processed Spectral Data<<<<<
