SpectraSuite Data File
++++++++++++++++++++++++++++++++++++
Date: Mon Sep 30 18:11:42 GMT-05:00 2013
User: stostad
Dark Spectrum Present: No
Reference Spectrum Present: No
Number of Sampled Component Spectra: 1
Spectrometers: USB2+H05261
Integration Time (usec): 100000 (USB2+H05261)
Spectra Averaged: 1 (USB2+H05261)
Boxcar Smoothing: 0 (USB2+H05261)
Correct for Electrical Dark: No (USB2+H05261)
Strobe/Lamp Enabled: No (USB2+H05261)
Correct for Detector Non-linearity: No (USB2+H05261)
Correct for Stray Light: No (USB2+H05261)
Number of Pixels in Processed Spectrum: 2048
>>>>>Begin Processed Spectral Data<<<<<
365.73	98.30
365.92	98.30
366.12	98.30
366.32	30.43
366.52	58.51
366.72	98.30
366.91	56.17
367.11	53.83
367.31	0.00
367.51	0.00
367.70	42.13
367.90	63.19
368.10	65.54
368.30	2.34
368.49	23.41
368.69	28.09
368.89	65.54
369.09	0.00
369.28	51.49
369.48	0.00
369.68	77.24
369.87	0.00
370.07	51.49
370.27	166.18
370.47	133.41
370.66	337.04
370.86	400.23
371.06	308.95
371.25	386.19
371.45	346.40
371.65	418.96
371.84	376.83
372.04	390.87
372.24	451.72
372.44	379.17
372.63	461.09
372.83	465.77
373.03	440.02
373.22	482.15
373.42	552.37
373.62	404.91
373.81	404.91
374.01	500.87
374.21	489.17
374.40	451.72
374.60	507.90
374.79	489.17
374.99	521.94
375.19	528.96
375.38	573.43
375.58	503.22
375.78	514.92
375.97	514.92
376.17	557.05
376.37	416.62
376.56	545.34
376.76	447.04
376.95	568.75
377.15	535.98
377.35	557.05
377.54	587.47
377.74	519.60
377.93	521.94
378.13	589.82
378.33	653.01
378.52	578.11
378.72	547.69
378.91	627.26
379.11	519.60
379.31	603.86
379.50	552.37
379.70	676.41
379.89	587.47
380.09	543.00
380.28	559.39
380.48	617.90
380.68	571.09
380.87	554.71
381.07	631.94
381.26	741.95
381.46	660.03
381.65	627.26
381.85	650.67
382.04	629.60
382.24	617.90
382.43	650.67
382.63	678.76
382.83	718.54
383.02	690.46
383.22	718.54
383.41	615.56
383.61	620.24
383.80	704.50
384.00	692.80
384.19	650.67
384.39	622.58
384.58	734.93
384.78	678.76
384.97	688.12
385.17	671.73
385.36	755.99
385.56	713.86
385.75	725.57
385.95	765.36
386.14	774.72
386.34	816.85
386.53	622.58
386.72	688.12
386.92	753.65
387.11	669.39
387.31	695.14
387.50	760.67
387.70	741.95
387.89	779.40
388.09	767.70
388.28	866.00
388.48	866.00
388.67	828.55
388.86	739.61
389.06	763.01
389.25	814.51
389.45	826.21
389.64	779.40
389.84	739.61
390.03	870.68
390.22	837.91
390.42	816.85
390.61	753.65
390.81	854.30
391.00	870.68
391.19	905.79
391.39	844.93
391.58	945.58
391.78	847.27
391.97	896.43
392.16	793.44
392.36	957.28
392.55	919.83
392.75	1018.13
392.94	976.00
393.13	959.62
393.33	954.94
393.52	929.19
393.71	1029.84
393.91	987.71
394.10	936.21
394.29	983.02
394.49	1013.45
394.68	1029.84
394.88	947.92
395.07	1074.31
395.26	1001.75
395.46	1057.92
395.65	1022.81
395.84	1025.15
396.04	1165.59
396.23	1137.50
396.42	1100.05
396.62	1118.78
396.81	1088.35
397.00	1109.41
397.19	1191.33
397.39	1186.65
397.58	1252.19
397.77	1090.69
397.97	1109.41
398.16	1123.46
398.35	1165.59
398.55	1200.69
398.74	1179.63
398.93	1226.44
399.12	1132.82
399.32	1294.32
399.51	1313.04
399.70	1317.72
399.90	1287.29
400.09	1341.13
400.28	1331.76
400.47	1306.02
400.67	1324.74
400.86	1343.47
401.05	1327.08
401.24	1472.20
401.44	1392.62
401.63	1427.73
401.82	1284.95
402.01	1387.94
402.21	1320.06
402.40	1413.68
402.59	1465.18
402.78	1558.80
402.97	1476.88
403.17	1474.54
403.36	1582.20
403.55	1519.01
403.74	1479.22
403.93	1554.12
404.13	1596.25
404.32	1577.52
404.51	1626.67
404.70	1687.53
404.89	1652.42
405.09	1659.44
405.28	1572.84
405.47	1689.87
405.66	1544.75
405.85	1664.12
406.05	1710.93
406.24	1809.23
406.43	1715.61
406.62	1734.34
406.81	1797.53
407.00	1741.36
407.20	1617.31
407.39	1785.83
407.58	1870.09
407.77	1748.38
407.96	1760.08
408.15	1799.87
408.34	1715.61
408.54	1849.02
408.73	1914.56
408.92	1849.02
409.11	1954.35
409.30	1952.01
409.49	1947.33
409.68	2005.84
409.87	1977.75
410.07	2012.86
410.26	2036.27
410.45	2066.69
410.64	1994.14
410.83	2043.29
411.02	2167.34
411.21	2111.16
411.40	2146.27
411.59	2242.23
411.78	2085.42
411.98	2225.85
412.17	2143.93
412.36	2167.34
412.55	2188.40
412.74	2333.51
412.93	2340.54
413.12	2204.78
413.31	2338.20
413.50	2345.22
413.69	2347.56
413.88	2509.05
414.07	2471.61
414.26	2382.67
414.45	2443.52
414.64	2574.59
414.83	2579.27
415.02	2471.61
415.22	2572.25
415.41	2654.17
415.60	2551.18
415.79	2698.64
415.98	2689.28
416.17	2705.66
416.36	2752.47
416.55	2757.15
416.74	2780.56
416.93	2768.85
417.12	2825.03
417.31	2724.38
417.50	2892.90
417.69	2970.14
417.88	2911.63
418.07	2871.84
418.26	2867.16
418.45	2986.52
418.64	3014.61
418.83	2904.60
419.02	2953.76
419.21	3023.97
419.39	3054.40
419.58	2993.55
419.77	3033.33
419.96	3026.31
420.15	3183.13
420.34	3150.36
420.53	3159.72
420.72	3213.56
420.91	3215.90
421.10	3276.75
421.29	3288.45
421.48	3133.98
421.67	3335.26
421.86	3239.30
422.05	3255.69
422.24	3276.75
422.43	3194.83
422.61	3229.94
422.80	3386.76
422.99	3417.18
423.18	3421.86
423.37	3379.73
423.56	3442.93
423.75	3386.76
423.94	3342.28
424.13	3124.62
424.32	3241.64
424.50	3515.48
424.69	3426.54
424.88	3435.91
425.07	3471.01
425.26	3391.44
425.45	3431.23
425.64	3339.94
425.83	3377.39
426.01	3538.89
426.20	3447.61
426.39	3407.82
426.58	3438.25
426.77	3487.40
426.96	3499.10
427.15	3499.10
427.33	3651.24
427.52	3508.46
427.71	3503.78
427.90	3606.77
428.09	3658.26
428.28	3595.06
428.46	3618.47
428.65	3487.40
428.84	3679.32
429.03	3658.26
429.22	3351.65
429.40	3555.27
429.59	3517.83
429.78	3344.63
429.97	3316.54
430.16	3330.58
430.34	3391.44
430.53	3520.17
430.72	3520.17
430.91	3421.86
431.10	3393.78
431.28	3531.87
431.47	3660.60
431.66	3625.49
431.85	3534.21
432.03	3777.62
432.22	3889.97
432.41	3815.07
432.60	3913.38
432.79	3803.37
432.97	3988.27
433.16	3817.41
433.35	3957.85
433.54	3906.35
433.72	3932.10
433.91	3985.93
434.10	4049.13
434.28	3981.25
434.47	4161.47
434.66	4124.02
434.85	4290.20
435.03	4304.25
435.22	4367.44
435.41	4526.60
435.59	4411.91
435.78	4458.72
435.97	4482.13
436.16	4339.35
436.34	4386.16
436.53	4503.19
436.72	4397.87
436.90	4353.40
437.09	4484.47
437.28	4514.89
437.46	4514.89
437.65	4582.77
437.84	4620.22
438.02	4667.03
438.21	4561.70
438.40	4512.55
438.58	4678.73
438.77	4762.99
438.96	4812.14
439.14	4924.49
439.33	4994.70
439.52	5004.07
439.70	4917.47
439.89	5085.98
440.08	5015.77
440.26	5123.43
440.45	4973.64
440.63	5193.65
440.82	5247.48
441.01	5203.01
441.19	5397.28
441.38	5317.70
441.57	5298.97
441.75	5224.08
441.94	5460.47
442.12	5493.24
442.31	5561.11
442.50	5472.17
442.68	5488.56
442.87	5556.43
443.05	5434.72
443.24	5645.37
443.43	5643.03
443.61	5804.53
443.80	5797.51
443.98	5673.46
444.17	5469.83
444.35	5682.82
444.54	5844.32
444.73	5755.38
444.91	5710.91
445.10	5643.03
445.28	5680.48
445.47	5647.71
445.65	5614.95
445.84	5722.61
446.02	5898.15
446.21	5905.17
446.39	5769.42
446.58	5830.27
446.77	5853.68
446.95	5720.27
447.14	5715.59
447.32	5919.21
447.51	5785.80
447.69	5839.64
447.88	5769.42
448.06	5902.83
448.25	5858.36
448.43	5846.66
448.62	5851.34
448.80	5954.32
448.99	5790.49
449.17	5928.58
449.36	6033.90
449.54	6132.20
449.73	6171.99
449.91	6352.21
450.10	6024.54
450.28	6274.98
450.46	6228.17
450.65	6094.76
450.83	6129.86
451.02	6204.76
451.20	6171.99
451.39	6232.85
451.57	6164.97
451.76	6356.90
451.94	6408.39
452.13	6300.72
452.31	6289.02
452.49	6349.87
452.68	6352.21
452.86	6429.45
453.05	6410.73
453.23	6436.47
453.42	6258.59
453.60	6296.04
453.78	6516.05
453.97	6321.79
454.15	6441.15
454.34	6300.72
454.52	6310.08
454.70	6459.88
454.89	6394.34
455.07	6623.72
455.26	6670.53
455.44	6707.98
455.62	6633.08
455.81	6612.01
455.99	6846.07
456.17	6740.74
456.36	6621.38
456.54	6654.14
456.73	6857.77
456.91	6939.69
457.09	6785.21
457.28	7131.61
457.46	6942.03
457.64	6888.20
457.83	7115.23
458.01	6909.26
458.19	6993.52
458.38	6916.28
458.56	7084.80
458.74	7124.59
458.93	7117.57
459.11	7075.44
459.29	7279.07
459.48	7169.06
459.66	7171.40
459.84	7201.83
460.03	7307.15
460.21	7262.68
460.39	7243.96
460.57	7332.90
460.76	7239.28
460.94	7265.02
461.12	7314.17
461.31	7412.48
461.49	7215.87
461.67	7169.06
461.85	7400.77
462.04	7363.33
462.22	7510.78
462.40	7583.34
462.59	7637.17
462.77	7602.06
462.95	7812.71
463.13	7559.93
463.32	7641.85
463.50	7665.25
463.68	7695.68
463.86	7716.75
464.05	7545.89
464.23	7838.45
464.41	7857.18
464.59	7726.11
464.78	7899.31
464.96	7854.84
465.14	7686.32
465.32	7957.82
465.50	7913.35
465.69	8025.70
465.87	7859.52
466.05	7805.69
466.23	8128.68
466.41	8016.33
466.60	8217.62
466.78	7801.01
466.96	7882.92
467.14	7999.95
467.32	8147.40
467.51	8215.28
467.69	7875.90
467.87	8006.97
468.05	8030.38
468.23	8091.23
468.41	8039.74
468.60	8336.99
468.78	8203.58
468.96	8025.70
469.14	8334.65
469.32	8283.16
469.50	8042.08
469.69	8259.75
469.87	8463.38
470.05	8250.39
470.23	8287.84
470.41	8339.33
470.59	8645.94
470.77	8386.14
470.95	8430.61
471.14	8414.23
471.32	8425.93
471.50	8489.12
471.68	8681.05
471.86	8669.34
472.04	8552.32
472.22	8751.26
472.40	8557.00
472.58	8681.05
472.77	8720.84
472.95	8788.71
473.13	9001.70
473.31	8769.99
473.49	8922.12
473.67	8879.99
473.85	8826.16
474.03	9137.45
474.21	9008.72
474.39	9170.22
474.57	9411.29
474.75	9202.99
474.93	9432.36
475.12	9472.15
475.30	9591.52
475.48	9523.64
475.66	9729.61
475.84	9598.54
476.02	9769.40
476.20	9771.74
476.38	9919.19
476.56	10296.02
476.74	10293.68
476.92	9994.09
477.10	10057.28
477.28	10221.12
477.46	10221.12
477.64	10270.27
477.82	10424.75
478.00	10759.44
478.18	10628.37
478.36	10611.99
478.54	10867.11
478.72	10974.77
478.90	10956.05
479.08	11309.47
479.26	11442.88
479.44	11405.43
479.62	11309.47
479.80	11435.86
479.98	11480.33
480.16	11733.11
480.34	11866.52
480.52	11946.09
480.70	12149.72
480.88	11920.35
481.06	12236.32
481.24	12133.34
481.41	12435.27
481.59	12463.35
481.77	12926.78
481.95	12753.58
482.13	12842.52
482.31	12784.01
482.49	13233.39
482.67	13092.96
482.85	13355.10
483.03	13687.45
483.21	13767.03
483.39	13872.36
483.57	14029.17
483.74	14162.58
483.92	14155.56
484.10	14408.34
484.28	14293.65
484.46	14904.53
484.64	14988.79
484.82	14712.61
485.00	15129.22
485.18	15492.01
485.35	15283.70
485.53	15407.75
485.71	15323.49
485.89	15791.59
486.07	15824.36
486.25	15990.54
486.43	16046.71
486.61	16126.29
486.78	16442.26
486.96	16493.76
487.14	16727.81
487.32	16840.15
487.50	17083.57
487.68	17106.98
487.85	17212.30
488.03	17092.93
488.21	17495.50
488.39	17385.50
488.57	17647.64
488.75	17717.86
488.92	17984.68
489.10	18450.44
489.28	18078.30
489.46	18588.53
489.64	18429.38
489.81	18637.69
489.99	18721.95
490.17	18892.80
490.35	19185.37
490.53	19058.98
490.70	19096.43
490.88	19044.94
491.06	19449.85
491.24	19922.64
491.41	19566.88
491.59	20013.92
491.77	20013.92
491.95	19843.06
492.13	19957.75
492.30	20404.79
492.48	20196.48
492.66	20547.56
492.84	20393.09
493.01	20730.12
493.19	20629.48
493.37	20713.74
493.54	21188.87
493.72	21228.66
493.90	21523.57
494.08	21366.75
494.25	21876.99
494.43	21738.90
494.61	21823.16
494.79	21844.22
494.96	21734.21
495.14	22202.32
495.32	22106.36
495.49	22221.05
495.67	22485.53
495.85	22291.26
496.02	22483.19
496.20	22567.45
496.38	22466.80
496.55	22693.83
496.73	23056.62
496.91	23147.90
497.09	22918.53
497.26	23241.52
497.44	22808.52
497.62	23190.03
497.79	23789.20
497.97	23531.75
498.14	23910.91
498.32	23782.18
498.50	23693.24
498.67	24109.86
498.85	23716.65
499.03	23786.86
499.20	23943.68
499.38	24507.75
499.56	24102.84
499.73	24166.03
499.91	23770.48
500.08	24175.39
500.26	24107.52
500.44	24285.40
500.61	24711.38
500.79	24505.41
500.97	24577.97
501.14	24631.80
501.32	24982.88
501.49	24875.21
501.67	25071.82
501.84	25034.37
502.02	25284.81
502.20	25081.18
502.37	25198.21
502.55	24842.45
502.72	25450.99
502.90	24964.15
503.07	25301.19
503.25	25076.50
503.43	25261.40
503.60	25184.16
503.78	25589.08
503.95	25317.57
504.13	25326.94
504.30	25238.00
504.48	25469.71
504.65	25720.15
504.83	25933.14
505.01	25752.91
505.18	25568.01
505.36	25759.94
505.53	25418.22
505.71	26057.18
505.88	25748.23
506.06	25610.14
506.23	26478.48
506.41	25769.30
506.58	26103.99
506.76	25979.95
506.93	26291.24
507.11	25579.71
507.28	26015.05
507.46	25876.96
507.63	26045.48
507.81	25624.18
507.98	25825.47
508.16	25933.14
508.33	26015.05
508.50	25907.39
508.68	26225.70
508.85	25933.14
509.03	25535.24
509.20	25633.55
509.38	25961.22
509.55	26071.23
509.73	25816.11
509.90	25525.88
510.08	25575.03
510.25	24987.56
510.42	25198.21
510.60	25235.66
510.77	25034.37
510.95	25385.45
511.12	25699.08
511.30	24975.86
511.47	25366.73
511.64	25167.78
511.82	25104.59
511.99	24774.57
512.17	25123.31
512.34	25102.25
512.51	25076.50
512.69	24961.81
512.86	24886.92
513.04	25039.05
513.21	25305.87
513.38	24947.77
513.56	25792.70
513.73	25268.42
513.90	25596.10
514.08	25649.93
514.25	25731.85
514.43	25806.75
514.60	25420.56
514.77	25666.31
514.95	25968.24
515.12	26284.22
515.29	26221.02
515.47	26181.23
515.64	26757.00
515.81	26707.85
515.99	26768.71
516.16	27330.44
516.33	26918.50
516.51	27335.12
516.68	27185.32
516.85	27227.45
517.03	27449.80
517.20	27805.56
517.37	27894.50
517.54	27456.82
517.72	27784.50
517.89	27857.06
518.06	28346.23
518.24	28444.53
518.41	28133.24
518.58	28458.57
518.75	28194.09
518.93	28299.42
519.10	28374.31
519.27	28879.87
519.45	28341.55
519.62	29127.97
519.79	28767.52
519.96	28952.43
520.14	28711.35
520.31	28800.29
520.48	28952.43
520.65	28828.38
520.83	28898.59
521.00	28804.97
521.17	28460.91
521.34	28135.58
521.52	28737.10
521.69	28676.24
521.86	28320.48
522.03	28168.35
522.20	28198.77
522.38	28091.11
522.55	27861.74
522.72	27541.08
522.89	27264.90
523.07	27630.02
523.24	26890.41
523.41	26927.86
523.58	26775.73
523.75	26590.83
523.92	26637.64
524.10	26199.96
524.27	26216.34
524.44	25956.54
524.61	26024.42
524.78	26033.78
524.96	26085.27
525.13	26223.36
525.30	26541.68
525.47	26015.05
525.64	26370.82
525.81	25954.20
525.98	25947.18
526.16	26157.83
526.33	26228.04
526.50	26155.49
526.67	26298.26
526.84	26333.37
527.01	26209.32
527.18	26239.75
527.36	25656.95
527.53	25986.97
527.70	26178.89
527.87	25937.82
528.04	25893.35
528.21	26024.42
528.38	25422.90
528.55	25825.47
528.72	26017.40
528.89	25806.75
529.07	25844.20
529.24	25811.43
529.41	26143.78
529.58	26218.68
529.75	26174.21
529.92	26740.62
530.09	26635.30
530.26	26380.18
530.43	26518.27
530.60	26190.59
530.77	27002.76
530.94	27152.55
531.11	27302.35
531.28	27037.87
531.46	27349.16
531.63	27571.51
531.80	27611.30
531.97	27637.05
532.14	27702.58
532.31	28250.27
532.48	27971.74
532.65	28823.70
532.82	28435.17
532.99	28840.08
533.16	29116.26
533.33	29567.99
533.50	29830.13
533.67	30127.38
533.84	29734.17
534.01	30253.76
534.18	30190.57
534.35	31042.53
534.52	30878.69
534.69	31637.02
534.86	31484.89
535.03	31433.39
535.20	32287.69
535.37	32306.41
535.54	32713.67
535.71	32730.05
535.88	33345.61
536.05	33731.80
536.22	33979.90
536.38	34253.74
536.55	34440.98
536.72	34085.22
536.89	34445.66
537.06	34700.78
537.23	35173.57
537.40	35229.74
537.57	35697.85
537.74	35393.58
537.91	36224.47
538.08	36006.80
538.25	36231.49
538.42	36627.04
538.59	36987.49
538.75	37228.56
538.92	37495.38
539.09	37663.90
539.26	37577.30
539.43	38113.28
539.60	37797.31
539.77	37820.72
539.94	37881.57
540.11	38314.57
540.28	38911.41
540.44	39325.68
540.61	39442.71
540.78	39611.23
540.95	39342.06
541.12	39840.60
541.29	39985.71
541.46	39805.49
541.62	40573.19
541.79	40818.94
541.96	40353.18
542.13	40863.41
542.30	41043.63
542.47	41467.27
542.63	40989.80
542.80	41418.12
542.97	41584.30
543.14	42160.07
543.31	41649.83
543.48	42181.13
543.64	42258.37
543.81	42436.25
543.98	42366.04
544.15	42108.58
544.32	42576.69
544.48	42707.76
544.65	42990.96
544.82	42784.99
544.99	42557.96
545.16	43115.01
545.32	42862.23
545.49	43936.54
545.66	44449.11
545.83	43814.83
546.00	43653.33
546.16	43938.88
546.33	43330.34
546.50	43936.54
546.67	43959.94
546.83	43302.25
547.00	43466.09
547.17	43796.10
547.34	43716.53
547.50	43765.68
547.67	43391.19
547.84	44201.02
548.00	44210.38
548.17	44957.01
548.34	44912.54
548.51	44156.55
548.67	44467.84
548.84	44109.74
549.01	44208.04
549.18	44313.36
549.34	44744.02
549.51	44477.20
549.68	44666.78
549.84	44362.51
550.01	45354.90
550.18	44641.04
550.34	44765.09
550.51	44877.43
550.68	44856.37
550.84	44507.63
551.01	45287.03
551.18	45303.41
551.34	45345.54
551.51	45116.17
551.68	45268.30
551.84	45106.80
552.01	44828.28
552.18	45092.76
552.34	44945.31
552.51	45055.31
552.68	44865.73
552.84	45202.77
553.01	45815.99
553.18	45212.13
553.34	45621.72
553.51	45275.32
553.67	45698.96
553.84	45792.58
554.01	45432.14
554.17	45801.94
554.34	45556.19
554.51	45984.51
554.67	45593.64
554.84	45972.80
555.00	45659.17
555.17	45813.65
555.33	45717.68
555.50	45397.03
555.67	45649.81
555.83	45918.97
556.00	46033.66
556.16	46043.02
556.33	46314.52
556.50	45989.19
556.66	46021.95
556.83	45675.55
556.99	45820.67
557.16	46314.52
557.32	46136.64
557.49	46485.38
557.65	45773.86
557.82	46258.35
557.98	46335.59
558.15	45879.18
558.32	46328.56
558.48	46124.94
558.65	45937.69
558.81	45949.40
558.98	46354.31
559.14	46291.12
559.31	46099.19
559.47	46426.87
559.64	46485.38
559.80	46286.43
559.97	46190.47
560.13	46113.23
560.30	45972.80
560.46	45734.07
560.63	45965.78
560.79	46078.13
560.96	46129.62
561.12	46279.41
561.29	46059.40
561.45	45881.52
561.61	45759.81
561.78	45762.15
561.94	45928.33
562.11	45743.43
562.27	45755.13
562.44	45392.35
562.60	45617.04
562.77	45792.58
562.93	45441.50
563.10	45867.48
563.26	45221.49
563.42	45729.39
563.59	45521.08
563.75	45198.09
563.92	45200.43
564.08	44662.10
564.24	44772.11
564.41	44488.90
564.57	44456.14
564.74	44348.47
564.90	44404.64
565.07	44264.21
565.23	43576.09
565.39	43145.44
565.56	42946.49
565.72	42728.82
565.88	42691.37
566.05	42021.98
566.21	41696.64
566.38	41794.95
566.54	41240.24
566.70	40900.86
566.87	40289.98
567.03	39346.75
567.19	39236.74
567.36	38499.47
567.52	37483.68
567.68	37212.18
567.85	36030.21
568.01	35459.12
568.17	34738.23
568.34	33883.94
568.50	32940.70
568.66	31653.40
568.83	30909.11
568.99	29797.36
569.15	28723.05
569.32	27995.15
569.48	26260.81
569.64	26127.40
569.81	25001.60
569.97	23637.07
570.13	22838.95
570.30	21991.67
570.46	21294.19
570.62	20194.14
570.78	19688.59
570.95	18857.70
571.11	18773.44
571.27	18487.89
571.43	17607.85
571.60	16952.50
571.76	16608.44
571.92	16545.25
572.09	16215.23
572.25	16137.99
572.41	15583.29
572.57	15667.55
572.74	15644.14
572.90	15463.92
573.06	15541.16
573.22	15688.61
573.38	15646.48
573.55	15620.74
573.71	15602.01
573.87	15580.95
574.03	15529.45
574.20	15740.10
574.36	15695.63
574.52	15391.36
574.68	15831.38
574.84	15927.35
575.01	15744.78
575.17	16210.55
575.33	15742.44
575.49	15901.60
575.65	15873.51
575.82	15796.28
575.98	15967.13
576.14	15927.35
576.30	16390.77
576.46	16182.46
576.62	16224.59
576.79	16465.67
576.95	16570.99
577.11	16369.71
577.27	16479.71
577.43	16585.04
577.59	16315.87
577.75	16655.25
577.92	16891.65
578.08	16774.62
578.24	16893.99
578.40	17153.79
578.56	17319.96
578.72	17284.86
578.88	17523.59
579.04	17137.40
579.21	17163.15
579.37	17369.12
579.53	17605.51
579.69	17439.33
579.85	17743.60
580.01	17486.14
580.17	17317.62
580.33	17369.12
580.49	17165.49
580.65	17102.29
580.82	16837.81
580.98	16601.42
581.14	16135.65
581.30	15840.75
581.46	15651.16
581.62	15487.32
581.78	14951.34
581.94	14703.25
582.10	14256.20
582.26	14026.83
582.42	13769.37
582.58	13142.11
582.74	12901.03
582.90	12762.94
583.06	12461.01
583.22	11981.20
583.38	11735.45
583.54	11854.81
583.70	11417.13
583.86	11342.24
584.02	11096.48
584.18	10993.50
584.34	10796.89
584.50	10817.96
584.66	10712.63
584.82	10616.67
584.98	10668.16
585.14	10651.78
585.30	10565.18
585.46	10647.10
585.62	10736.04
585.78	10956.05
585.94	10883.49
586.10	10949.03
586.26	11014.56
586.42	11384.37
586.58	11522.46
586.74	11786.94
586.90	11726.08
587.06	12042.06
587.22	12177.81
587.38	12177.81
587.54	12666.98
587.70	12709.11
587.86	13132.75
588.02	13205.30
588.18	13633.62
588.34	13631.28
588.49	13708.52
588.65	14104.07
588.81	14537.07
588.97	14918.57
589.13	14721.97
589.29	14995.81
589.45	15133.90
589.61	15576.27
589.77	15700.31
589.93	15655.84
590.08	15866.49
590.24	16100.55
590.40	16540.57
590.56	16688.02
590.72	16706.74
590.88	16891.65
591.04	16711.42
591.20	17296.56
591.35	17413.59
591.51	17460.40
591.67	17874.67
591.83	18214.05
591.99	18171.92
592.15	18328.74
592.31	18696.20
592.46	18939.62
592.62	19290.70
592.78	19515.39
592.94	19814.98
593.10	19999.88
593.26	20290.10
593.41	20641.18
593.57	20917.37
593.73	21233.34
593.89	21656.98
594.05	22181.26
594.20	22508.93
594.36	22918.53
594.52	23335.14
594.68	23466.21
594.84	24009.22
594.99	24182.42
595.15	24608.39
595.31	24933.73
595.47	25340.98
595.62	25809.09
595.78	25806.75
595.94	26590.83
596.10	26572.10
596.25	27379.59
596.41	27475.55
596.57	27517.68
596.73	28034.94
596.88	28264.31
597.04	28704.33
597.20	28868.17
597.36	28847.10
597.51	29186.48
597.67	29312.87
597.83	29855.87
597.99	30017.37
598.14	30396.54
598.30	30567.40
598.46	30490.16
598.61	31414.67
598.77	30782.73
598.93	31091.68
599.09	31400.63
599.24	31988.10
599.40	32105.13
599.56	32369.61
599.71	32634.09
599.87	32823.67
600.03	32704.31
600.18	33289.44
600.34	33507.11
600.50	34260.76
600.65	33635.84
600.81	34359.06
600.97	34256.08
601.12	34668.02
601.28	34799.08
601.44	35559.76
601.59	35807.86
601.75	36264.26
601.91	36278.30
602.06	36215.11
602.22	36613.00
602.37	36491.29
602.53	36917.27
602.69	37249.63
602.84	37170.05
603.00	37593.68
603.16	37462.61
603.31	37757.52
603.47	38103.92
603.62	38333.29
603.78	38850.55
603.94	39131.42
604.09	39545.69
604.25	39189.93
604.40	39234.40
604.56	39395.90
604.71	39669.74
604.87	39531.65
605.03	39955.29
605.18	40032.52
605.34	39739.96
605.49	40243.17
605.65	40748.73
605.80	40589.57
605.96	40662.13
606.12	40556.80
606.27	41207.47
606.43	40903.20
606.58	41221.52
606.74	41235.56
606.89	41251.94
607.05	41432.16
607.20	41734.09
607.36	41397.06
607.51	41537.49
607.67	41619.41
607.82	42066.45
607.98	41989.21
608.13	42286.46
608.29	41839.42
608.44	42366.04
608.60	42146.03
608.75	42440.93
608.91	42422.21
609.06	42754.57
609.22	42635.20
609.37	42693.71
609.53	43639.29
609.68	42925.42
609.84	43643.97
609.99	43646.31
610.15	43800.79
610.30	44388.26
610.46	44201.02
610.61	44626.99
610.76	44907.86
610.92	45385.33
611.07	44971.05
611.23	45148.93
611.38	45338.52
611.54	45347.88
611.69	45715.34
611.84	46028.98
612.00	46094.51
612.15	45743.43
612.31	45982.16
612.46	46099.19
612.62	46078.13
612.77	45977.48
612.92	46248.99
613.08	46389.42
613.23	46564.96
613.39	46698.37
613.54	46927.74
613.69	47543.30
613.85	46677.30
614.00	47386.49
614.15	47367.76
614.31	47260.10
614.46	47732.89
614.62	47173.50
614.77	47571.39
614.92	47442.66
615.08	47767.99
615.23	48343.77
615.38	48456.11
615.54	48243.12
615.69	48086.31
615.84	48320.36
616.00	48261.85
616.15	48105.03
616.30	48156.52
616.46	48109.71
616.61	48172.91
616.76	48076.94
616.92	47646.29
617.07	47793.74
617.22	47938.85
617.37	47999.71
617.53	48465.47
617.68	48399.94
617.83	48165.88
617.99	48596.54
618.14	48538.03
618.29	48154.18
618.45	47913.11
618.60	47854.59
618.75	48016.09
618.90	48107.37
619.06	47906.08
619.21	48048.86
619.36	48374.19
619.51	48016.09
619.67	47662.67
619.82	48130.78
619.97	48130.78
620.12	48062.90
620.28	47950.56
620.43	47784.38
620.58	48158.86
620.73	48025.45
620.89	47660.33
621.04	47524.58
621.19	47487.13
621.34	47445.00
621.49	47861.61
621.65	47531.60
621.80	48013.75
621.95	47416.91
622.10	47480.11
622.25	47248.39
622.41	47164.14
622.56	47250.74
622.71	47304.57
622.86	47098.60
623.01	47232.01
623.16	46876.25
623.32	46902.00
623.47	47136.05
623.62	47676.71
623.77	47037.75
623.92	47536.28
624.07	47562.03
624.23	47145.41
624.38	47107.96
624.53	46761.56
624.68	46822.42
624.83	47281.16
624.98	46976.89
625.13	46340.27
625.29	47189.88
625.44	47159.45
625.59	46862.21
625.74	46796.67
625.89	46937.10
626.04	47150.09
626.19	46621.13
626.34	46445.59
626.49	46382.40
626.65	46169.41
626.80	46417.50
626.95	46506.44
627.10	46244.30
627.25	46499.42
627.40	46424.53
627.55	46073.45
627.70	46604.75
627.85	46763.90
628.00	46639.86
628.15	46405.80
628.30	46263.03
628.45	46412.82
628.60	46326.22
628.76	46141.32
628.91	46164.73
629.06	45769.18
629.21	45890.88
629.36	46267.71
629.51	46480.70
629.66	46078.13
629.81	46239.62
629.96	46429.21
630.11	46146.00
630.26	46244.30
630.41	46174.09
630.56	46185.79
630.71	46031.32
630.86	46094.51
631.01	45460.23
631.16	46038.34
631.31	45603.00
631.46	45635.77
631.61	46085.15
631.76	46108.55
631.91	46150.68
632.06	45923.65
632.21	45722.37
632.36	45614.70
632.51	45394.69
632.66	45481.29
632.81	45160.64
632.96	45996.21
633.10	45495.33
633.25	45490.65
633.40	45607.68
633.55	45792.58
633.70	45523.42
633.85	45839.39
634.00	45404.05
634.15	45666.19
634.30	45593.64
634.45	45326.81
634.60	45689.60
634.75	45720.02
634.90	45813.65
635.05	46031.32
635.19	45219.15
635.34	45848.75
635.49	45846.41
635.64	45951.74
635.79	45633.42
635.94	45708.32
636.09	45652.15
636.24	45441.50
636.39	45265.96
636.53	45860.46
636.68	45677.90
636.83	45352.56
636.98	45469.59
637.13	44989.78
637.28	45741.09
637.43	45308.09
637.57	45359.58
637.72	44896.16
637.87	45631.08
638.02	45294.05
638.17	45069.36
638.32	45057.65
638.46	45205.11
638.61	45113.83
638.76	44933.60
638.91	44856.37
639.06	45029.57
639.20	44907.86
639.35	44580.18
639.50	44935.95
639.65	44811.90
639.80	44594.23
639.94	45148.93
640.09	44865.73
640.24	45310.43
640.39	44636.36
640.54	44641.04
640.68	44767.43
640.83	44318.04
640.98	44238.47
641.13	44367.20
641.27	44814.24
641.42	44161.23
641.57	44280.60
641.72	44194.00
641.86	44238.47
642.01	44100.37
642.16	44657.42
642.31	44013.77
642.45	44634.02
642.60	44458.48
642.75	44212.72
642.90	44313.36
643.04	44201.02
643.19	43639.29
643.34	44121.44
643.48	44390.60
643.63	44360.17
643.78	43938.88
643.93	44383.58
644.07	44364.85
644.22	44240.81
644.37	44201.02
644.51	44505.29
644.66	44470.18
644.81	44275.91
644.95	44439.75
645.10	44229.10
645.25	44137.82
645.39	43716.53
645.54	43777.38
645.69	43821.85
645.83	44226.76
645.98	43658.01
646.13	44154.21
646.27	43782.06
646.42	43845.26
646.57	43931.86
646.71	44601.25
646.86	44296.98
647.00	43978.67
647.15	44013.77
647.30	43903.77
647.44	43868.66
647.59	44027.82
647.74	43620.56
647.88	43695.46
648.03	43817.17
648.17	43342.04
648.32	43681.42
648.47	43707.16
648.61	43386.51
648.76	43299.91
648.90	43512.90
649.05	43594.82
649.20	43648.65
649.34	43398.21
649.49	43283.53
649.63	43290.55
649.78	43185.22
649.92	43152.46
650.07	43540.99
650.21	43103.31
650.36	42782.65
650.51	42890.32
650.65	43264.80
650.80	43222.67
650.94	42934.79
651.09	42869.25
651.23	42981.60
651.38	43557.37
651.52	43257.78
651.67	43517.58
651.81	43178.20
651.96	42799.04
652.10	42674.99
652.25	42852.87
652.39	42513.49
652.54	42705.41
652.68	42831.80
652.83	42754.57
652.97	42410.51
653.12	42621.16
653.26	42127.30
653.41	42822.44
653.55	42850.53
653.70	42529.87
653.84	42890.32
653.99	42419.87
654.13	42635.20
654.27	42784.99
654.42	42499.45
654.56	42445.62
654.71	42733.50
654.85	42527.53
655.00	42010.28
655.14	42497.11
655.29	42497.11
655.43	42199.86
655.57	42267.73
655.72	42164.75
655.86	42515.83
656.01	42405.83
656.15	41862.82
656.30	42274.76
656.44	42286.46
656.58	41970.49
656.73	41940.06
656.87	41804.31
657.01	41794.95
657.16	42134.32
657.30	41860.48
657.45	41944.74
657.59	41691.96
657.73	41193.43
657.88	41879.21
658.02	41886.23
658.16	42199.86
658.31	41551.53
658.45	42000.91
658.60	41141.94
658.74	41635.79
658.88	41399.40
659.03	41511.74
659.17	41769.20
659.31	41085.76
659.46	41048.32
659.60	40957.03
659.74	41312.80
659.89	41301.09
660.03	41539.83
660.17	41076.40
660.32	40924.27
660.46	41298.75
660.60	41031.93
660.74	41057.68
660.89	41237.90
661.03	40772.13
661.17	40886.82
661.32	40884.48
661.46	40994.48
661.60	40610.64
661.74	40032.52
661.89	39899.11
662.03	40233.81
662.17	40037.20
662.31	40271.26
662.46	40421.05
662.60	40341.47
662.74	40163.59
662.88	39952.94
663.03	40058.27
663.17	40233.81
663.31	39789.11
663.45	40189.34
663.60	39901.45
663.74	39786.77
663.88	39456.75
664.02	39714.21
664.17	39936.56
664.31	40034.86
664.45	39636.97
664.59	39629.95
664.73	39454.41
664.88	39646.33
665.02	39360.79
665.16	39676.76
665.30	39264.83
665.44	39313.98
665.59	39194.61
665.73	38955.88
665.87	38541.60
666.01	39164.18
666.15	38883.32
666.29	38593.09
666.44	38579.05
666.58	38036.05
666.72	37830.08
666.86	38031.36
667.00	38153.07
667.14	38337.98
667.28	38836.51
667.43	38656.29
667.57	38436.28
667.71	38476.07
667.85	38398.83
667.99	38061.79
668.13	38057.11
668.27	38096.90
668.41	37247.29
668.56	37055.36
668.70	37287.07
668.84	36889.18
668.98	36893.86
669.12	37530.49
669.26	37074.09
669.40	37053.02
669.54	36973.44
669.68	37226.22
669.82	37406.44
669.96	37095.15
670.10	37137.28
670.25	36833.01
670.39	36786.20
670.53	36446.82
670.67	35910.84
670.81	36388.31
670.95	36921.95
671.09	36573.21
671.23	36261.92
671.37	36779.18
671.51	36500.65
671.65	36226.81
671.79	35910.84
671.93	36135.53
672.07	35660.40
672.21	36039.57
672.35	35644.02
672.49	35543.38
672.63	35868.71
672.77	35384.22
672.91	35208.68
673.05	35222.72
673.19	34962.92
673.33	34890.37
673.47	34899.73
673.61	35529.33
673.75	34988.67
673.89	35047.18
674.03	34878.66
674.17	35014.41
674.31	34789.72
674.45	34487.79
674.59	34726.53
674.73	34529.92
674.87	34607.16
675.01	34429.28
675.15	34401.19
675.29	34471.41
675.43	34167.14
675.56	34319.28
675.70	33979.90
675.84	34450.35
675.98	32503.02
676.12	33574.98
676.26	33900.32
676.40	33532.86
676.54	33914.36
676.68	33406.47
676.82	32961.76
676.96	33097.52
677.10	32734.73
677.23	32409.40
677.37	32669.20
677.51	32275.99
677.65	32444.51
677.79	32032.57
677.93	31983.42
678.07	32165.98
678.21	31482.55
678.34	31477.86
678.48	30962.95
678.62	31218.07
678.76	31213.38
678.90	31182.96
679.04	31454.46
679.18	31442.76
679.31	31096.36
679.45	31372.54
679.59	30955.93
679.73	30780.39
679.87	30450.37
680.00	30398.88
680.14	30274.83
680.28	30312.28
680.42	29996.31
680.56	30101.63
680.70	29958.86
680.83	29832.47
680.97	29865.24
681.11	30146.10
681.25	29591.39
681.39	29202.86
681.52	29558.63
681.66	29017.96
681.80	28964.13
681.94	29216.91
682.07	29127.97
682.21	28503.04
682.35	28542.83
682.49	28355.59
682.62	27995.15
682.76	27960.04
682.90	27810.25
683.04	27878.12
683.17	27630.02
683.31	27559.81
683.45	27805.56
683.59	27831.31
683.72	27466.19
683.86	27381.93
684.00	27599.60
684.13	27229.79
684.27	27424.06
684.41	27042.55
684.55	27178.30
684.68	26719.56
684.82	26946.59
684.96	26623.59
685.09	26492.52
685.23	26609.55
685.37	26572.10
685.50	26408.26
685.64	26504.23
685.78	26597.85
685.91	26396.56
686.05	26232.72
686.19	26129.74
686.32	25790.36
686.46	25907.39
686.60	26061.87
686.73	26211.66
686.87	26022.08
687.01	26237.41
687.14	26190.59
687.28	26050.16
687.42	26045.48
687.55	25294.17
687.69	25619.50
687.82	25443.96
687.96	25088.20
688.10	24709.04
688.23	25310.55
688.37	24952.45
688.50	25099.90
688.64	25233.32
688.78	24879.89
688.91	24858.83
689.05	25289.49
689.18	25113.95
689.32	24697.33
689.46	24720.74
689.59	24882.24
689.73	24896.28
689.86	24514.77
690.00	24470.30
690.13	24503.07
690.27	24278.38
690.41	24198.80
690.54	24016.24
690.68	23700.26
690.81	23873.46
690.95	23840.70
691.08	23590.26
691.22	23864.10
691.35	23836.02
691.49	23850.06
691.62	23777.50
691.76	23793.89
691.89	23885.17
692.03	23632.39
692.16	23304.71
692.30	23513.02
692.43	23267.27
692.57	23564.51
692.70	23227.48
692.84	22810.86
692.97	22913.84
693.11	22995.76
693.24	22537.02
693.38	22356.80
693.51	22551.06
693.65	22604.89
693.78	22616.60
693.92	22668.09
694.05	22574.47
694.19	22427.01
694.32	22562.76
694.45	22312.33
694.59	22345.09
694.72	22260.84
694.86	22459.78
694.99	22059.55
695.13	21841.88
695.26	22129.77
695.39	21958.91
695.53	22019.76
695.66	21640.59
695.80	21626.55
695.93	21291.85
696.07	21137.38
696.20	21528.25
696.33	21242.70
696.47	21341.00
696.60	20954.82
696.73	21142.06
696.87	21326.96
697.00	21191.21
697.14	20968.86
697.27	20800.34
697.40	20828.43
697.54	20650.55
697.67	20498.41
697.80	20152.01
697.94	20320.53
698.07	20072.43
698.21	19831.36
698.34	20203.50
698.47	19894.55
698.61	19676.88
698.74	19917.96
698.87	19936.68
699.01	19445.17
699.14	19641.78
699.27	19311.76
699.40	19960.09
699.54	19363.25
699.67	19585.60
699.80	19304.74
699.94	19264.95
700.07	19143.24
700.20	19236.86
700.34	19133.88
700.47	19138.56
700.60	19178.35
700.73	19278.99
700.87	18836.63
701.00	18628.32
701.13	18647.05
701.26	18354.48
701.40	18614.28
701.53	18195.32
701.66	18239.79
701.79	18328.74
701.93	18333.42
702.06	18515.98
702.19	17893.40
702.32	18141.49
702.46	17799.77
702.59	17757.64
702.72	17963.61
702.85	17921.48
702.99	17694.45
703.12	17582.10
703.25	17352.73
703.38	17394.86
703.51	17380.82
703.65	17022.72
703.78	16823.77
703.91	16666.95
704.04	16748.87
704.17	16837.81
704.31	16596.74
704.44	16695.04
704.57	16795.68
704.70	16898.67
704.83	16798.02
704.96	16627.17
705.10	16704.40
705.23	16795.68
>>>>>End Processed Spectral Data<<<<<
