SpectraSuite Data File
++++++++++++++++++++++++++++++++++++
Date: Mon Sep 30 18:11:37 GMT-05:00 2013
User: stostad
Dark Spectrum Present: No
Reference Spectrum Present: No
Number of Sampled Component Spectra: 1
Spectrometers: USB2+H05261
Integration Time (usec): 100000 (USB2+H05261)
Spectra Averaged: 1 (USB2+H05261)
Boxcar Smoothing: 0 (USB2+H05261)
Correct for Electrical Dark: No (USB2+H05261)
Strobe/Lamp Enabled: No (USB2+H05261)
Correct for Detector Non-linearity: No (USB2+H05261)
Correct for Stray Light: No (USB2+H05261)
Number of Pixels in Processed Spectrum: 2048
>>>>>Begin Processed Spectral Data<<<<<
365.73	121.71
365.92	121.71
366.12	121.71
366.32	49.15
366.52	53.83
366.72	25.75
366.91	9.36
367.11	88.94
367.31	4.68
367.51	37.45
367.70	91.28
367.90	21.06
368.10	53.83
368.30	65.54
368.49	0.00
368.69	37.45
368.89	0.00
369.09	51.49
369.28	14.04
369.48	39.79
369.68	42.13
369.87	88.94
370.07	107.66
370.27	63.19
370.47	124.05
370.66	287.89
370.86	287.89
371.06	304.27
371.25	409.59
371.45	301.93
371.65	379.17
371.84	351.08
372.04	322.99
372.24	414.27
372.44	388.53
372.63	400.23
372.83	425.98
373.03	372.15
373.22	292.57
373.42	341.72
373.62	407.25
373.81	376.83
374.01	468.11
374.21	482.15
374.40	423.64
374.60	454.06
374.79	472.79
374.99	472.79
375.19	458.74
375.38	428.32
375.58	458.74
375.78	407.25
375.97	458.74
376.17	482.15
376.37	425.98
376.56	395.55
376.76	505.56
376.95	493.85
377.15	454.06
377.35	444.70
377.54	451.72
377.74	479.81
377.93	491.51
378.13	456.40
378.33	571.09
378.52	475.13
378.72	440.02
378.91	468.11
379.11	512.58
379.31	531.30
379.50	470.45
379.70	552.37
379.89	566.41
380.09	425.98
380.28	449.38
380.48	463.43
380.68	538.32
380.87	510.24
381.07	510.24
381.26	538.32
381.46	491.51
381.65	571.09
381.85	557.05
382.04	524.28
382.24	524.28
382.43	507.90
382.63	512.58
382.83	547.69
383.02	645.99
383.22	543.00
383.41	514.92
383.61	566.41
383.80	587.47
384.00	634.29
384.19	545.34
384.39	615.56
384.58	657.69
384.78	582.79
384.97	535.98
385.17	617.90
385.36	620.24
385.56	627.26
385.75	533.64
385.95	631.94
386.14	650.67
386.34	627.26
386.53	650.67
386.72	561.73
386.92	669.39
387.11	690.46
387.31	634.29
387.50	653.01
387.70	613.22
387.89	561.73
388.09	699.82
388.28	697.48
388.48	683.44
388.67	669.39
388.86	760.67
389.06	741.95
389.25	788.76
389.45	730.25
389.64	671.73
389.84	791.10
390.03	718.54
390.22	699.82
390.42	660.03
390.61	716.20
390.81	676.41
391.00	772.38
391.19	746.63
391.39	669.39
391.58	788.76
391.78	781.74
391.97	737.27
392.16	683.44
392.36	767.70
392.55	866.00
392.75	816.85
392.94	802.80
393.13	823.87
393.33	798.12
393.52	882.38
393.71	875.36
393.91	807.48
394.10	795.78
394.29	791.10
394.49	851.96
394.68	873.02
394.88	936.21
395.07	856.64
395.26	884.72
395.46	957.28
395.65	875.36
395.84	896.43
396.04	1062.60
396.23	968.98
396.42	1011.11
396.62	917.49
396.81	978.34
397.00	994.73
397.19	1060.26
397.39	966.64
397.58	961.96
397.77	959.62
397.97	1011.11
398.16	1057.92
398.35	961.96
398.55	978.34
398.74	1132.82
398.93	976.00
399.12	976.00
399.32	983.02
399.51	997.07
399.70	1125.80
399.90	1135.16
400.09	1071.97
400.28	1139.84
400.47	1139.84
400.67	1102.39
400.86	1158.57
401.05	1181.97
401.24	1193.67
401.44	1221.76
401.63	1270.91
401.82	1313.04
402.01	1203.04
402.21	1160.91
402.40	1193.67
402.59	1212.40
402.78	1212.40
402.97	1233.46
403.17	1217.08
403.36	1249.85
403.55	1315.38
403.74	1366.87
403.93	1366.87
404.13	1352.83
404.32	1331.76
404.51	1320.06
404.70	1338.79
404.89	1341.13
405.09	1418.36
405.28	1437.09
405.47	1441.77
405.66	1427.73
405.85	1434.75
406.05	1448.79
406.24	1385.60
406.43	1533.05
406.62	1432.41
406.81	1556.46
407.00	1526.03
407.20	1523.69
407.39	1600.93
407.58	1462.83
407.77	1523.69
407.96	1533.05
408.15	1577.52
408.34	1621.99
408.54	1554.12
408.73	1544.75
408.92	1657.10
409.11	1692.21
409.30	1659.44
409.49	1701.57
409.68	1661.78
409.87	1671.14
410.07	1736.68
410.26	1732.00
410.45	1727.32
410.64	1755.40
410.83	1785.83
411.02	1741.36
411.21	1795.19
411.40	1757.74
411.59	1825.62
411.78	1816.26
411.98	1851.36
412.17	1820.94
412.36	1963.71
412.55	1926.26
412.74	2090.10
412.93	1984.77
413.12	1994.14
413.31	2167.34
413.50	2017.54
413.69	2139.25
413.88	2258.62
414.07	2197.76
414.26	2064.35
414.45	2162.66
414.64	2223.51
414.83	2165.00
415.02	2258.62
415.22	2172.02
415.41	2246.91
415.60	2270.32
415.79	2242.23
415.98	2209.47
416.17	2361.60
416.36	2375.64
416.55	2370.96
416.74	2445.86
416.93	2312.45
417.12	2434.16
417.31	2450.54
417.50	2345.22
417.69	2462.24
417.88	2480.97
418.07	2600.34
418.26	2490.33
418.45	2502.03
418.64	2546.50
418.83	2820.35
419.02	2614.38
419.21	2518.42
419.39	2663.53
419.58	2661.19
419.77	2612.04
419.96	2630.76
420.15	2775.88
420.34	2729.06
420.53	2768.85
420.72	2752.47
420.91	2848.43
421.10	2885.88
421.29	2789.92
421.48	2579.27
421.67	2860.13
421.86	2813.32
422.05	2930.35
422.24	2916.31
422.43	2888.22
422.61	2942.05
422.80	2869.50
422.99	2967.80
423.18	3082.49
423.37	2939.71
423.56	2752.47
423.75	2843.75
423.94	2946.73
424.13	2810.98
424.32	2918.65
424.50	2953.76
424.69	2979.50
424.88	3052.06
425.07	2827.37
425.26	2801.62
425.45	2904.60
425.64	2930.35
425.83	2942.05
426.01	2998.23
426.20	3087.17
426.39	3000.57
426.58	3040.36
426.77	3049.72
426.96	3108.23
427.15	3007.59
427.33	3126.96
427.52	3042.70
427.71	3197.17
427.90	3040.36
428.09	2984.18
428.28	3143.34
428.46	3089.51
428.65	3183.13
428.84	3115.25
429.03	3012.27
429.22	2998.23
429.40	2972.48
429.59	3105.89
429.78	3019.29
429.97	2839.07
430.16	2977.16
430.34	3098.87
430.53	3098.87
430.72	2965.46
430.91	2956.10
431.10	2998.23
431.28	3080.14
431.47	3241.64
431.66	3232.28
431.85	3173.77
432.03	3213.56
432.22	3463.99
432.41	3356.33
432.60	3335.26
432.79	3281.43
432.97	3286.11
433.16	3384.41
433.35	3407.82
433.54	3459.31
433.72	3492.08
433.91	3611.45
434.10	3574.00
434.28	3508.46
434.47	3496.76
434.66	3585.70
434.85	3742.52
435.03	3712.09
435.22	3878.27
435.41	4025.72
435.59	3960.19
435.78	3700.39
435.97	3632.51
436.16	3651.24
436.34	3955.51
436.53	3859.54
436.72	3892.31
436.90	3815.07
437.09	3995.29
437.28	3847.84
437.46	3943.80
437.65	3955.51
437.84	3950.82
438.02	4058.49
438.21	4060.83
438.40	4074.87
438.58	4095.94
438.77	4168.49
438.96	4128.70
439.14	4241.05
439.33	4224.67
439.52	4234.03
439.70	4264.46
439.89	4327.65
440.08	4334.67
440.26	4475.10
440.45	4329.99
440.63	4557.02
440.82	4599.15
441.01	4379.14
441.19	4390.84
441.38	4599.15
441.57	4386.16
441.75	4669.37
441.94	4819.16
442.12	4692.77
442.31	4905.76
442.50	4662.35
442.68	4718.52
442.87	4690.43
443.05	4765.33
443.24	4896.40
443.43	4894.06
443.61	4945.55
443.80	4882.36
443.98	4891.72
444.17	4868.31
444.35	4950.23
444.54	4898.74
444.73	4910.44
444.91	4922.15
445.10	5163.22
445.28	4917.47
445.47	5029.81
445.65	4945.55
445.84	5100.03
446.02	4957.25
446.21	4983.00
446.39	5151.52
446.58	5046.20
446.77	5160.88
446.95	4945.55
447.14	5076.62
447.32	5198.33
447.51	5088.32
447.69	4889.38
447.88	5153.86
448.06	5109.39
448.25	5076.62
448.43	5071.94
448.62	5111.73
448.80	5055.56
448.99	5043.85
449.17	5282.59
449.36	5041.51
449.54	5081.30
449.73	5345.78
449.91	5275.57
450.10	5357.49
450.28	5280.25
450.46	5404.30
450.65	5486.22
450.83	5341.10
451.02	5308.34
451.20	5444.09
451.39	5373.87
451.57	5455.79
451.76	5123.43
451.94	5404.30
452.13	5446.43
452.31	5427.70
452.49	5460.47
452.68	5305.99
452.86	5603.24
453.05	5528.35
453.23	5530.69
453.42	5497.92
453.60	5383.23
453.78	5434.72
453.97	5357.49
454.15	5570.48
454.34	5563.45
454.52	5619.63
454.70	5764.74
454.89	5673.46
455.07	5755.38
455.26	5694.52
455.44	5596.22
455.62	5764.74
455.81	5664.10
455.99	5764.74
456.17	5671.12
456.36	5774.10
456.54	5774.10
456.73	5856.02
456.91	6251.57
457.09	5912.19
457.28	6038.58
457.46	5933.26
457.64	5956.66
457.83	6146.25
458.01	6005.81
458.19	6200.08
458.38	5921.56
458.56	6066.67
458.74	6050.28
458.93	6162.63
459.11	6136.88
459.29	6141.57
459.48	6026.88
459.66	6202.42
459.84	6157.95
460.03	6225.82
460.21	6113.48
460.39	6282.00
460.57	6136.88
460.76	6209.44
460.94	6340.51
461.12	6356.90
461.31	6296.04
461.49	6438.81
461.67	6347.53
461.85	6392.00
462.04	6441.15
462.22	6490.31
462.40	6459.88
462.59	6658.82
462.77	6506.69
462.95	6530.09
463.13	6569.88
463.32	6780.53
463.50	6677.55
463.68	6635.42
463.86	6654.14
464.05	6698.61
464.23	6546.48
464.41	6806.28
464.59	6476.26
464.78	6909.26
464.96	6633.08
465.14	6663.51
465.32	6799.26
465.50	6890.54
465.69	6654.14
465.87	6733.72
466.05	6850.75
466.23	6850.75
466.41	6949.05
466.60	7023.95
466.78	6871.81
466.96	6815.64
467.14	7021.61
467.32	6958.41
467.51	6967.77
467.69	6787.55
467.87	6864.79
468.05	6967.77
468.23	6974.80
468.41	7049.69
468.60	6965.43
468.78	6991.18
468.96	7126.93
469.14	7171.40
469.32	7073.10
469.50	6878.83
469.69	7084.80
469.87	7307.15
470.05	7234.60
470.23	7272.04
470.41	7353.96
470.59	7293.11
470.77	7384.39
470.95	7330.56
471.14	7459.29
471.32	7185.44
471.50	7433.54
471.68	7454.61
471.86	7428.86
472.04	7307.15
472.22	7522.48
472.40	7290.77
472.58	7496.74
472.77	7501.42
472.95	7489.71
473.13	7901.65
473.31	7679.30
473.49	7489.71
473.67	7742.49
473.85	7653.55
474.03	7812.71
474.21	7859.52
474.39	7845.48
474.57	7978.89
474.75	8091.23
474.93	8035.06
475.12	7974.21
475.30	8381.46
475.48	8009.31
475.66	8561.68
475.84	8374.44
476.02	8388.48
476.20	8411.89
476.38	8542.96
476.56	8744.24
476.74	8641.26
476.92	8667.00
477.10	8739.56
477.28	8795.73
477.46	8741.90
477.64	8929.14
477.82	8847.22
478.00	9387.89
478.18	9245.12
478.36	9214.69
478.54	9231.07
478.72	9383.21
478.90	9577.47
479.08	9296.61
479.26	9687.48
479.44	9738.97
479.62	9790.46
479.80	9926.21
479.98	10068.98
480.16	10057.28
480.34	10317.08
480.52	10260.91
480.70	10136.86
480.88	10363.89
481.06	10476.24
481.24	10438.79
481.41	10750.08
481.59	10544.11
481.77	10967.75
481.95	11073.07
482.13	11009.88
482.31	11187.76
482.49	11269.68
482.67	11433.52
482.85	11580.97
483.03	11681.61
483.21	11852.47
483.39	11833.75
483.57	11805.66
483.74	12044.40
483.92	12262.07
484.10	11864.18
484.28	12514.84
484.46	12601.44
484.64	12659.96
484.82	12374.41
485.00	12940.82
485.18	13118.70
485.35	13118.70
485.53	13020.40
485.71	13160.83
485.89	13462.76
486.07	13453.40
486.25	13745.97
486.43	13844.27
486.61	13802.14
486.78	13895.76
486.96	13926.19
487.14	14139.18
487.32	14223.44
487.50	14427.06
487.68	14518.34
487.85	14628.35
488.03	14860.06
488.21	14984.11
488.39	14932.62
488.57	15089.43
488.75	15314.13
488.92	15559.88
489.10	15646.48
489.28	15559.88
489.46	15676.91
489.64	15751.81
489.81	16205.87
489.99	16032.67
490.17	15868.83
490.35	16278.43
490.53	16386.09
490.70	16500.78
490.88	16493.76
491.06	16704.40
491.24	16716.11
491.41	16802.71
491.59	17055.48
491.77	16917.39
491.95	16926.75
492.13	16903.35
492.30	17509.55
492.48	17511.89
492.66	17654.66
492.84	17469.76
493.01	17460.40
493.19	17682.75
493.37	17954.25
493.54	18115.75
493.72	18321.71
493.90	18548.75
494.08	18317.03
494.25	18295.97
494.43	18600.24
494.61	18719.60
494.79	18792.16
494.96	18792.16
495.14	19110.47
495.32	19211.12
495.49	18750.03
495.67	18895.14
495.85	19199.41
496.02	19257.93
496.20	19335.17
496.38	19239.20
496.55	19641.78
496.73	20034.99
496.91	19342.19
497.09	19655.82
497.26	19910.94
497.44	19761.14
497.62	19868.81
497.79	20156.69
497.97	20119.24
498.14	19983.49
498.32	20245.63
498.50	20255.00
498.67	20304.15
498.85	20751.19
499.03	20781.62
499.20	20278.40
499.38	20720.76
499.56	20617.78
499.73	20697.36
499.91	20755.87
500.08	20912.69
500.26	20751.19
500.44	20795.66
500.61	21099.93
500.79	20999.29
500.97	20936.09
501.14	21181.85
501.32	21060.14
501.49	20905.66
501.67	21289.51
501.84	21097.59
502.02	21366.75
502.20	21172.49
502.37	21376.11
502.55	21280.15
502.72	21771.66
502.90	21500.16
503.07	21488.46
503.25	21542.29
503.43	21694.43
503.60	21261.43
503.78	21766.98
503.95	21860.60
504.13	21551.65
504.30	21731.87
504.48	21848.90
504.65	21874.65
504.83	22225.73
505.01	21895.71
505.18	21846.56
505.36	22059.55
505.53	21874.65
505.71	21769.32
505.88	22141.47
506.06	21855.92
506.23	22422.33
506.41	22050.19
506.58	22232.75
506.76	21921.46
506.93	22274.88
507.11	22230.41
507.28	22019.76
507.46	22326.37
507.63	22181.26
507.81	22094.66
507.98	21701.45
508.16	22127.42
508.33	22401.27
508.50	22134.45
508.68	22136.79
508.85	22340.41
509.03	21745.92
509.20	21893.37
509.38	22132.11
509.55	22082.95
509.73	22075.93
509.90	21645.27
510.08	21743.58
510.25	21469.73
510.42	21476.76
510.60	21198.23
510.77	21333.98
510.95	21570.38
511.12	21451.01
511.30	21443.99
511.47	21502.50
511.64	21493.14
511.82	21146.74
511.99	21280.15
512.17	20994.61
512.34	21158.44
512.51	21235.68
512.69	21263.77
512.86	21387.82
513.04	21441.65
513.21	21256.75
513.38	21294.19
513.56	21572.72
513.73	21544.63
513.90	21699.11
514.08	21563.36
514.25	21785.71
514.43	21818.47
514.60	21713.15
514.77	22127.42
514.95	22127.42
515.12	22174.24
515.29	22452.76
515.47	22424.67
515.64	22640.00
515.81	22611.92
515.99	22979.38
516.16	22979.38
516.33	22822.56
516.51	23194.71
516.68	23447.49
516.85	23136.20
517.03	23604.30
517.20	23573.88
517.37	23704.95
517.54	23679.20
517.72	23791.55
517.89	23852.40
518.06	23992.83
518.24	24212.84
518.41	24205.82
518.58	24411.79
518.75	23871.12
518.93	24140.29
519.10	23943.68
519.27	24449.24
519.45	24294.76
519.62	24580.31
519.79	24514.77
519.96	24315.83
520.14	24505.41
520.31	24224.54
520.48	24119.22
520.65	24479.66
520.83	24561.58
521.00	24837.76
521.17	24400.08
521.34	24423.49
521.52	24173.05
521.69	24144.97
521.86	23974.11
522.03	23962.40
522.20	24166.03
522.38	24049.00
522.55	23527.06
522.72	23218.11
522.89	23321.10
523.07	23241.52
523.24	22593.19
523.41	22988.74
523.58	22211.68
523.75	22953.63
523.92	22586.17
524.10	22328.71
524.27	22281.90
524.44	22700.86
524.61	22244.45
524.78	22342.75
524.96	22478.50
525.13	22246.79
525.30	21839.54
525.47	22649.36
525.64	22317.01
525.81	22340.41
525.98	22082.95
526.16	21986.99
526.33	22302.96
526.50	22597.87
526.67	22141.47
526.84	22522.98
527.01	22185.94
527.18	22525.32
527.36	22052.53
527.53	21923.80
527.70	22377.86
527.87	22136.79
528.04	22101.68
528.21	22251.47
528.38	21928.48
528.55	22326.37
528.72	22199.98
528.89	21888.69
529.07	22204.66
529.24	22054.87
529.41	22403.61
529.58	22527.66
529.75	22321.69
529.92	22419.99
530.09	22501.91
530.26	22796.82
530.43	22979.38
530.60	22649.36
530.77	22693.83
530.94	22799.16
531.11	23337.48
531.28	23243.86
531.46	23283.65
531.63	23201.73
531.80	23396.00
531.97	23377.27
532.14	23548.13
532.31	23854.74
532.48	24018.58
532.65	24421.15
532.82	24121.56
532.99	24430.51
533.16	24439.87
533.33	25120.97
533.50	25443.96
533.67	25324.60
533.84	25336.30
534.01	25795.04
534.18	25783.34
534.35	26536.99
534.52	26515.93
534.69	26675.09
534.86	26874.03
535.03	27311.71
535.20	27562.15
535.37	27370.22
535.54	27850.03
535.71	28194.09
535.88	28371.97
536.05	28599.01
536.22	28760.50
536.38	28762.84
536.55	29273.08
536.72	28994.56
536.89	29523.52
537.06	29654.59
537.23	30551.01
537.40	30068.86
537.57	30162.48
537.74	30368.45
537.91	31243.81
538.08	30845.92
538.25	30925.50
538.42	31395.95
538.59	31859.37
538.75	31440.42
538.92	31735.32
539.09	32194.07
539.26	32013.85
539.43	32208.11
539.60	32086.40
539.77	32435.14
539.94	32772.18
540.11	32879.85
540.28	33649.88
540.44	33954.15
540.61	33514.13
540.78	33565.62
540.95	33619.46
541.12	34199.91
541.29	34471.41
541.46	34490.13
541.62	35054.20
541.79	34932.50
541.96	34789.72
542.13	34581.42
542.30	34895.05
542.47	35391.24
542.63	34927.81
542.80	35510.61
542.97	35732.96
543.14	35927.22
543.31	35761.05
543.48	35688.49
543.64	36472.57
543.81	36458.52
543.98	36479.59
544.15	36278.30
544.32	36229.15
544.48	36439.80
544.65	36378.95
544.82	36786.20
544.99	36233.83
545.16	36484.27
545.32	36664.49
545.49	37436.87
545.66	37581.98
545.83	37509.43
546.00	37600.71
546.16	37539.85
546.33	37010.89
546.50	37188.77
546.67	37684.97
546.83	37518.79
547.00	37696.67
547.17	37762.20
547.34	37570.28
547.50	37572.62
547.67	37897.95
547.84	37752.84
548.00	38405.85
548.17	38714.80
548.34	37909.66
548.51	38136.69
548.67	37914.34
548.84	37963.49
549.01	38508.83
549.18	37912.00
549.34	37872.21
549.51	38174.14
549.68	38504.15
549.84	38349.68
550.01	38726.50
550.18	38206.90
550.34	38698.42
550.51	37998.60
550.68	38398.83
550.84	37876.89
551.01	38803.74
551.18	38167.12
551.34	38747.57
551.51	38787.36
551.68	38773.31
551.84	38822.47
552.01	38576.71
552.18	38457.34
552.34	38703.10
552.51	39077.58
552.68	38600.12
552.84	38759.27
553.01	39105.67
553.18	39086.95
553.34	39522.29
553.51	38621.18
553.67	38998.01
553.84	39047.16
554.01	38878.64
554.17	39199.29
554.34	39276.53
554.51	39487.18
554.67	39253.12
554.84	39042.48
555.00	39470.79
555.17	38873.96
555.33	39571.44
555.50	39063.54
555.67	39150.14
555.83	39229.72
556.00	39704.85
556.16	39934.22
556.33	39627.61
556.50	39262.49
556.66	39276.53
556.83	39229.72
556.99	39288.23
557.16	39337.38
557.32	39800.81
557.49	39922.52
557.65	39555.05
557.82	39845.28
557.98	39648.68
558.15	39761.02
558.32	39489.52
558.48	39629.95
558.65	39421.64
558.81	39491.86
558.98	39636.97
559.14	39498.88
559.31	40018.48
559.47	39768.04
559.64	39887.41
559.80	39585.48
559.97	39840.60
560.13	39339.72
560.30	39414.62
560.46	39152.48
560.63	39643.99
560.79	39335.04
560.96	39601.86
561.12	39604.20
561.29	39185.25
561.45	39470.79
561.61	39288.23
561.78	39702.51
561.94	39276.53
562.11	39299.94
562.27	39262.49
562.44	39494.20
562.60	39014.39
562.77	39456.75
562.93	39054.18
563.10	39611.23
563.26	38778.00
563.42	38794.38
563.59	38539.26
563.75	38490.11
563.92	38525.22
564.08	38342.66
564.24	38368.40
564.41	38520.54
564.57	38026.68
564.74	37900.29
564.90	37336.23
565.07	37521.13
565.23	37270.69
565.39	37130.26
565.56	36910.25
565.72	36329.80
565.88	36020.84
566.05	35686.15
566.21	35704.87
566.38	35653.38
566.54	34962.92
566.70	34801.43
566.87	34281.83
567.03	33345.61
567.19	33298.80
567.36	32772.18
567.52	32156.62
567.68	31503.61
567.85	30869.33
568.01	30239.72
568.17	29413.51
568.34	28163.67
568.50	27623.00
568.66	26862.33
568.83	26153.15
568.99	25312.89
569.15	24226.89
569.32	23454.51
569.48	22817.88
569.64	21776.34
569.81	21153.76
569.97	20233.93
570.13	19208.78
570.30	18618.96
570.46	18043.19
570.62	17214.64
570.78	16755.90
570.95	15995.22
571.11	15875.85
571.27	15154.97
571.43	15019.22
571.60	14555.79
571.76	13991.72
571.92	13996.40
572.09	13785.76
572.25	13268.50
572.41	13397.23
572.57	13486.17
572.74	13238.07
572.90	13228.71
573.06	13331.69
573.22	13228.71
573.38	13132.75
573.55	13048.49
573.71	13118.70
573.87	13172.54
574.03	13039.12
574.20	13247.43
574.36	13184.24
574.52	13509.57
574.68	13523.62
574.84	13209.98
575.01	13640.64
575.17	13605.53
575.33	13565.74
575.49	13706.18
575.65	13612.56
575.82	13514.25
575.98	13593.83
576.14	13561.06
576.30	13589.15
576.46	13738.94
576.62	14005.77
576.79	13724.90
576.95	13909.80
577.11	13898.10
577.27	13823.20
577.43	14157.90
577.59	13977.68
577.75	14141.52
577.92	14122.79
578.08	14424.72
578.24	14593.24
578.40	14824.95
578.56	14581.54
578.72	15089.43
578.88	14593.24
579.04	14848.36
579.21	14642.39
579.37	14644.73
579.53	14937.30
579.69	14794.53
579.85	14480.89
580.01	15019.22
580.17	14635.37
580.33	14649.41
580.49	14272.59
580.65	14349.82
580.82	14331.10
580.98	13858.31
581.14	13795.12
581.30	13425.31
581.46	13270.84
581.62	13275.52
581.78	12664.64
581.94	12697.41
582.10	11985.88
582.26	12067.80
582.42	11616.08
582.58	11393.73
582.74	10963.07
582.90	10839.02
583.06	10593.26
583.22	10387.30
583.38	10193.03
583.54	9940.26
583.70	9832.59
583.86	9727.27
584.02	9687.48
584.18	9441.72
584.34	9394.91
584.50	9238.09
584.66	9128.09
584.82	9125.75
584.98	8905.74
585.14	9212.35
585.30	9104.68
585.46	9074.26
585.62	9132.77
585.78	9352.78
585.94	9245.12
586.10	9455.76
586.26	9376.19
586.42	9912.17
586.58	9753.01
586.74	9984.73
586.90	10031.54
587.06	10214.10
587.22	10424.75
587.38	10478.58
587.54	10480.92
587.70	10771.15
587.86	11178.40
588.02	11180.74
588.18	11407.77
588.34	11531.82
588.49	11658.21
588.65	12086.53
588.81	11990.56
588.97	12348.67
589.13	12526.55
589.29	12711.45
589.45	12924.44
589.61	12872.95
589.77	12954.87
589.93	13142.11
590.08	13504.89
590.24	13713.20
590.40	13582.13
590.56	13996.40
590.72	14298.33
590.88	14033.85
591.04	14569.83
591.20	14464.51
591.35	14803.89
591.51	14888.15
591.67	14892.83
591.83	15307.10
591.99	15260.29
592.15	15637.12
592.31	15882.88
592.46	15887.56
592.62	16280.77
592.78	16613.12
592.94	17013.35
593.10	17275.49
593.26	17380.82
593.41	17762.33
593.57	17685.09
593.73	18085.32
593.89	18478.53
594.05	18719.60
594.20	18773.44
594.36	19552.84
594.52	19557.52
594.68	19929.66
594.84	20126.27
594.99	20575.65
595.15	20858.85
595.31	21053.12
595.47	21301.22
595.62	21612.51
595.78	21624.21
595.94	22024.44
596.10	22663.41
596.25	22799.16
596.41	23119.81
596.57	23035.55
596.73	23679.20
596.88	23868.78
597.04	23765.80
597.20	24386.04
597.36	24339.23
597.51	24456.26
597.67	24886.92
597.83	24900.96
597.99	25450.99
598.14	25598.44
598.30	25645.25
598.46	25750.57
598.61	26136.76
598.77	26024.42
598.93	26366.13
599.09	26314.64
599.24	27049.57
599.40	26899.78
599.56	27129.15
599.71	27276.60
599.87	27962.38
600.03	27976.42
600.18	28388.36
600.34	28048.98
600.50	28453.89
600.65	28723.05
600.81	28870.51
600.97	28933.70
601.12	28931.36
601.28	29060.09
601.44	29539.90
601.59	29928.43
601.75	30415.26
601.91	30401.22
602.06	30401.22
602.22	31253.17
602.37	31115.08
602.53	31110.40
602.69	31419.35
602.84	31299.98
603.00	31784.48
603.16	31613.62
603.31	31524.68
603.47	32161.30
603.62	32353.23
603.78	32601.32
603.94	32947.72
604.09	33078.79
604.25	33062.41
604.40	32945.38
604.56	33160.71
604.71	33446.26
604.87	33464.98
605.03	33338.59
605.18	33687.33
605.34	34396.51
605.49	34368.43
605.65	34190.55
605.80	34113.31
605.96	34506.52
606.12	34899.73
606.27	34923.13
606.43	34778.02
606.58	34801.43
606.74	34850.58
606.89	35098.67
607.05	35323.36
607.20	35421.67
607.36	35281.24
607.51	35269.53
607.67	35159.53
607.82	35222.72
607.98	35433.37
608.13	35199.32
608.29	35393.58
608.44	35744.66
608.60	35761.05
608.75	35489.54
608.91	36187.02
609.06	35983.40
609.22	36327.45
609.37	36463.21
609.53	36793.22
609.68	37069.40
609.84	36488.95
609.99	37191.11
610.15	37214.52
610.30	37085.79
610.46	37471.98
610.61	37689.65
610.76	38141.37
610.92	37975.19
611.07	38478.41
611.23	38712.46
611.38	38565.01
611.54	38298.19
611.69	38927.79
611.84	38873.96
612.00	38614.16
612.15	38286.48
612.31	39131.42
612.46	38628.20
612.62	38785.02
612.77	38932.47
612.92	39477.82
613.08	39033.11
613.23	39496.54
613.39	39749.32
613.54	39796.13
613.69	40318.07
613.85	40294.66
614.00	40439.78
614.15	40594.25
614.31	40680.85
614.46	40210.40
614.62	40727.66
614.77	40385.94
614.92	40699.58
615.08	40811.92
615.23	40982.78
615.38	41099.81
615.54	40505.31
615.69	41287.05
615.84	41263.64
616.00	41422.80
616.15	41354.93
616.30	41270.67
616.46	41284.71
616.61	41256.62
616.76	41179.39
616.92	40992.14
617.07	41406.42
617.22	41457.91
617.37	41165.34
617.53	41319.82
617.68	41516.42
617.83	41132.57
617.99	40886.82
618.14	41282.37
618.29	41553.87
618.45	40971.08
618.60	40882.14
618.75	40706.60
618.90	40711.28
619.06	41001.50
619.21	40847.03
619.36	41333.86
619.51	41041.29
619.67	41329.18
619.82	41053.00
619.97	41228.54
620.12	40971.08
620.28	40942.99
620.43	40870.43
620.58	41038.95
620.73	40699.58
620.89	40844.69
621.04	40603.61
621.19	40706.60
621.34	40849.37
621.49	40554.46
621.65	41134.92
621.80	40713.62
621.95	40158.91
622.10	40334.45
622.25	40568.51
622.41	40561.48
622.56	40189.34
622.71	40069.97
622.86	40165.93
623.01	40058.27
623.16	40158.91
623.32	40093.38
623.47	40446.80
623.62	40273.60
623.77	39847.62
623.92	40336.79
624.07	39941.24
624.23	39835.92
624.38	39990.39
624.53	39798.47
624.68	39887.41
624.83	39592.50
624.98	39480.16
625.13	39861.66
625.29	40107.42
625.44	40282.96
625.59	39824.22
625.74	39906.13
625.89	39966.99
626.04	39590.16
626.19	39716.55
626.34	39311.64
626.49	39096.31
626.65	39658.04
626.80	39758.68
626.95	39229.72
627.10	39051.84
627.25	39604.20
627.40	39533.99
627.55	39255.46
627.70	39108.01
627.85	39335.04
628.00	39201.63
628.15	39688.46
628.30	39147.80
628.45	39068.22
628.60	39108.01
628.76	38824.81
628.91	38951.20
629.06	38555.64
629.21	38883.32
629.36	38958.22
629.51	38986.30
629.66	39072.90
629.81	39077.58
629.96	39257.81
630.11	39091.63
630.26	39110.35
630.41	39201.63
630.56	38614.16
630.71	38689.06
630.86	38352.02
631.01	38754.59
631.16	38794.38
631.31	38639.90
631.46	38829.49
631.61	39264.83
631.76	38909.07
631.91	39030.77
632.06	39110.35
632.21	39056.52
632.36	39065.88
632.51	39012.05
632.66	38550.96
632.81	38511.17
632.96	38607.14
633.10	37930.72
633.25	38473.73
633.40	38932.47
633.55	38546.28
633.70	38572.03
633.85	38672.67
634.00	38682.03
634.15	38703.10
634.30	38623.52
634.45	38422.23
634.60	38689.06
634.75	38726.50
634.90	38557.99
635.05	38078.18
635.19	38670.33
635.34	38569.69
635.49	38649.27
635.64	38604.80
635.79	38682.03
635.94	38593.09
636.09	38410.53
636.24	38157.75
636.39	38178.82
636.53	38707.78
636.68	38326.27
636.83	38181.16
636.98	38469.04
637.13	38022.00
637.28	37865.19
637.43	38040.73
637.57	38202.22
637.72	37881.57
637.87	38356.70
638.02	38232.65
638.17	38525.22
638.32	38361.38
638.46	37846.46
638.61	38096.90
638.76	37991.58
638.91	38057.11
639.06	37755.18
639.20	37928.38
639.35	37991.58
639.50	38005.62
639.65	37888.59
639.80	37935.40
639.94	38033.71
640.09	38354.36
640.24	38089.88
640.39	37933.06
640.54	37893.27
640.68	37888.59
640.83	37607.73
640.98	37464.96
641.13	37600.71
641.27	38038.39
641.42	37275.37
641.57	37551.56
641.72	38040.73
641.86	37455.59
642.01	37366.65
642.16	37336.23
642.31	37212.18
642.45	38033.71
642.60	37195.79
642.75	37673.26
642.90	37509.43
643.04	37596.03
643.19	36882.16
643.34	37207.50
643.48	37464.96
643.63	36884.50
643.78	37134.94
643.93	37200.47
644.07	37518.79
644.22	37605.39
644.37	37067.06
644.51	37385.38
644.66	37603.05
644.81	37174.73
644.95	37474.32
645.10	36994.51
645.25	37240.26
645.39	37394.74
645.54	37422.83
645.69	36957.06
645.83	37244.94
645.98	36992.17
646.13	37015.57
646.27	37450.91
646.42	37329.20
646.57	37219.20
646.71	37184.09
646.86	36982.80
647.00	36844.71
647.15	37244.94
647.30	37132.60
647.44	37074.09
647.59	36924.29
647.74	36788.54
647.88	36364.90
648.03	36418.74
648.17	36549.81
648.32	36746.41
648.47	36500.65
648.61	35967.01
648.76	36531.08
648.90	36435.12
649.05	36825.99
649.20	36357.88
649.34	36659.81
649.49	36657.47
649.63	36608.32
649.78	36814.29
649.92	36570.87
650.07	36362.56
650.21	36299.37
650.36	36332.14
650.51	36023.19
650.65	36233.83
650.80	36278.30
650.94	36322.77
651.09	36100.42
651.23	35997.44
651.38	36091.06
651.52	36004.46
651.67	36334.48
651.81	35990.42
651.96	35831.26
652.10	36006.80
652.25	35934.24
652.39	36278.30
652.54	36348.52
652.68	36013.82
652.83	36437.46
652.97	35857.01
653.12	35887.43
653.26	35857.01
653.41	36041.91
653.55	35761.05
653.70	35538.69
653.84	35995.10
653.99	36027.87
654.13	36039.57
654.27	35648.70
654.42	35608.91
654.56	35665.08
654.71	35541.03
654.85	35428.69
655.00	35487.20
655.14	35260.17
655.29	35529.33
655.43	35711.89
655.57	35583.16
655.72	35524.65
655.86	35487.20
656.01	35241.45
656.15	35433.37
656.30	35398.26
656.44	35515.29
656.58	35627.63
656.73	35379.54
656.87	35194.64
657.01	35021.44
657.16	35218.04
657.30	35550.40
657.45	35529.33
657.59	34941.86
657.73	34864.62
657.88	35302.30
658.02	35103.35
658.16	35246.13
658.31	35196.98
658.45	35110.38
658.60	35105.70
658.74	35103.35
658.88	34586.10
659.03	34838.87
659.17	34593.12
659.31	34740.57
659.46	34178.84
659.60	34178.84
659.74	34663.33
659.89	34525.24
660.03	34602.48
660.17	34656.31
660.32	34675.04
660.46	34752.27
660.60	34560.35
660.74	34625.89
660.89	34286.51
661.03	34115.65
661.17	33902.66
661.32	33897.98
661.46	34309.91
661.60	34092.24
661.74	34003.30
661.89	33738.82
662.03	33666.27
662.17	33792.65
662.31	33912.02
662.46	33680.31
662.60	33694.35
662.74	33509.45
662.88	33656.90
663.03	33670.95
663.17	33553.92
663.31	33418.17
663.45	33560.94
663.60	33757.55
663.74	32910.27
663.88	33378.38
664.02	32760.48
664.17	33420.51
664.31	32940.70
664.45	32823.67
664.59	33125.60
664.73	32842.40
664.88	33359.66
665.02	32947.72
665.16	32818.99
665.30	32842.40
665.44	32364.93
665.59	32657.49
665.73	32690.26
665.87	32018.53
666.01	32491.32
666.15	32208.11
666.29	32170.66
666.44	32299.39
666.58	31782.13
666.72	31791.50
666.86	31974.06
667.00	32140.24
667.14	32121.51
667.28	32142.58
667.43	31997.46
667.57	32173.00
667.71	31569.15
667.85	31835.97
667.99	31414.67
668.13	31096.36
668.27	31459.14
668.41	31325.73
668.56	30838.90
668.70	31143.17
668.84	30796.77
668.98	30920.82
669.12	30859.96
669.26	31220.41
669.40	31309.35
669.54	31498.93
669.68	31653.40
669.82	31047.21
669.96	31103.38
670.10	31091.68
670.25	30857.62
670.39	30899.75
670.53	30602.50
670.67	30094.61
670.81	30029.07
670.95	30401.22
671.09	30071.20
671.23	30462.07
671.37	30490.16
671.51	30630.59
671.65	30433.99
671.79	30087.59
671.93	30443.35
672.07	30125.04
672.21	29970.56
672.35	29785.66
672.49	29848.85
672.63	29813.74
672.77	29366.70
672.91	29589.05
673.05	29525.86
673.19	29413.51
673.33	29240.31
673.47	29158.39
673.61	29350.32
673.75	28996.90
673.89	28882.21
674.03	28730.08
674.17	28797.95
674.31	29001.58
674.45	28961.79
674.59	29062.43
674.73	29036.69
674.87	28893.91
675.01	28741.78
675.15	28554.54
675.29	28746.46
675.43	28580.28
675.56	28606.03
675.70	28624.75
675.84	28046.64
675.98	26977.01
676.12	27604.28
676.26	27751.73
676.40	27981.10
676.54	27613.64
676.68	27452.14
676.82	27381.93
676.96	26925.52
677.10	27550.45
677.23	27108.08
677.37	27012.12
677.51	27115.11
677.65	27115.11
677.79	26644.66
677.93	26256.13
678.07	26663.38
678.21	26377.84
678.34	26497.20
678.48	26068.89
678.62	25886.32
678.76	25935.48
678.90	25909.73
679.04	25631.21
679.18	26064.21
679.31	25886.32
679.45	26199.96
679.59	25673.34
679.73	25509.50
679.87	25247.36
680.00	25427.58
680.14	25099.90
680.28	25146.72
680.42	24844.79
680.56	24559.24
680.70	24620.10
680.83	24531.15
680.97	24561.58
681.11	24369.66
681.25	24463.28
681.39	24814.36
681.52	24259.65
681.66	24161.35
681.80	24142.63
681.94	24084.11
682.07	23854.74
682.21	24044.32
682.35	23833.68
682.49	23475.57
682.62	23620.69
682.76	23419.40
682.90	23180.67
683.04	23147.90
683.17	22857.67
683.31	22698.52
683.45	22834.27
683.59	22752.35
683.72	22455.10
683.86	22775.75
684.00	22572.13
684.13	22518.29
684.27	22382.54
684.41	22307.65
684.55	21879.33
684.68	22607.23
684.82	22139.13
684.96	22382.54
685.09	22113.38
685.23	22349.78
685.37	22031.46
685.50	21996.35
685.64	22305.31
685.78	21977.63
685.91	21839.54
686.05	21837.20
686.19	21436.97
686.32	21366.75
686.46	21263.77
686.60	21369.09
686.73	21586.76
686.87	21659.32
687.01	21291.85
687.14	21177.17
687.28	21270.79
687.42	21228.66
687.55	20980.56
687.69	21181.85
687.82	20973.54
687.96	20849.49
688.10	20870.56
688.23	20568.63
688.37	20376.70
688.50	20446.92
688.64	20718.42
688.78	20713.74
688.91	20535.86
689.05	20547.56
689.18	20369.68
689.32	20198.82
689.46	19920.30
689.59	20456.28
689.73	20390.75
689.86	20102.86
690.00	20503.09
690.13	20114.56
690.27	19714.33
690.41	19719.01
690.54	19419.42
690.68	19950.73
690.81	19974.13
690.95	19880.51
691.08	19639.44
691.22	19836.04
691.35	19484.96
691.49	19735.40
691.62	19477.94
691.76	19414.74
691.89	19630.07
692.03	19433.47
692.16	19318.78
692.30	19206.44
692.43	19316.44
692.57	18810.89
692.70	18995.79
692.84	18799.18
692.97	18775.78
693.11	18609.60
693.24	18640.03
693.38	18857.70
693.51	18764.07
693.65	18478.53
693.78	18621.30
693.92	18679.82
694.05	18300.65
694.19	18377.89
694.32	18541.72
694.45	18270.22
694.59	18164.90
694.72	18396.61
694.86	18310.01
694.99	18401.29
695.13	18356.82
695.26	18214.05
695.39	17832.54
695.53	17818.50
695.66	18047.87
695.80	17671.04
695.93	17841.90
696.07	17572.74
696.20	17448.69
696.33	17355.07
696.47	17247.41
696.60	17390.18
696.73	17474.44
696.87	17221.66
697.00	17224.00
697.14	17247.41
697.27	17338.69
697.40	17170.17
697.54	17114.00
697.67	17144.42
697.80	16739.51
697.94	16720.79
698.07	16575.67
698.21	16652.91
698.34	16592.06
698.47	16535.88
698.61	16027.99
698.74	16477.37
698.87	16383.75
699.01	16145.02
699.14	16166.08
699.27	16292.47
699.40	16421.20
699.54	15906.28
699.67	16058.42
699.80	16119.27
699.94	15901.60
700.07	15822.02
700.20	15503.71
700.34	15719.04
700.47	15770.53
700.60	15648.82
700.73	15527.11
700.87	15154.97
701.00	15133.90
701.13	15021.56
701.26	15262.63
701.40	14972.41
701.53	14993.47
701.66	15166.67
701.79	14766.44
701.93	14745.38
702.06	14939.64
702.19	14712.61
702.32	14995.81
702.46	14789.85
702.59	14815.59
702.72	14698.56
702.85	14511.32
702.99	14668.14
703.12	14406.00
703.25	14272.59
703.38	14366.21
703.51	14253.86
703.65	14106.41
703.78	14071.30
703.91	14022.15
704.04	14015.13
704.17	14029.17
704.31	13750.65
704.44	13696.82
704.57	13687.45
704.70	13591.49
704.83	13633.62
704.96	13806.82
705.10	13584.47
705.23	13406.59
>>>>>End Processed Spectral Data<<<<<
