SpectraSuite Data File
++++++++++++++++++++++++++++++++++++
Date: Fri Oct 04 11:48:31 GMT-05:00 2013
User: price-jones
Dark Spectrum Present: No
Reference Spectrum Present: No
Number of Sampled Component Spectra: 1
Spectrometers: USB2+H05261
Integration Time (usec): 100000 (USB2+H05261)
Spectra Averaged: 1 (USB2+H05261)
Boxcar Smoothing: 0 (USB2+H05261)
Correct for Electrical Dark: No (USB2+H05261)
Strobe/Lamp Enabled: No (USB2+H05261)
Correct for Detector Non-linearity: No (USB2+H05261)
Correct for Stray Light: No (USB2+H05261)
Number of Pixels in Processed Spectrum: 2048
>>>>>Begin Processed Spectral Data<<<<<
365.73	0.00
365.92	0.00
366.12	0.00
366.32	0.00
366.52	0.00
366.72	0.00
366.91	0.00
367.11	0.00
367.31	0.00
367.51	0.00
367.70	0.00
367.90	0.00
368.10	0.00
368.30	4.68
368.49	0.00
368.69	0.00
368.89	0.00
369.09	0.00
369.28	0.00
369.48	0.00
369.68	0.00
369.87	7.02
370.07	0.00
370.27	0.00
370.47	168.52
370.66	374.49
370.86	514.92
371.06	421.30
371.25	507.90
371.45	505.56
371.65	425.98
371.84	437.68
372.04	519.60
372.24	559.39
372.44	606.20
372.63	533.64
372.83	540.66
373.03	517.26
373.22	596.84
373.42	634.29
373.62	580.45
373.81	564.07
374.01	592.16
374.21	671.73
374.40	561.73
374.60	592.16
374.79	575.77
374.99	617.90
375.19	720.88
375.38	596.84
375.58	741.95
375.78	664.71
375.97	706.84
376.17	788.76
376.37	650.67
376.56	709.18
376.76	655.35
376.95	702.16
377.15	706.84
377.35	772.38
377.54	723.23
377.74	697.48
377.93	697.48
378.13	795.78
378.33	692.80
378.52	781.74
378.72	868.34
378.91	791.10
379.11	725.57
379.31	699.82
379.50	702.16
379.70	781.74
379.89	819.19
380.09	746.63
380.28	777.06
380.48	809.83
380.68	723.23
380.87	788.76
381.07	805.14
381.26	849.61
381.46	856.64
381.65	739.61
381.85	814.51
382.04	863.66
382.24	894.08
382.43	851.96
382.63	863.66
382.83	866.00
383.02	917.49
383.22	884.72
383.41	973.66
383.61	1025.15
383.80	894.08
384.00	854.30
384.19	877.70
384.39	856.64
384.58	894.08
384.78	945.58
384.97	1022.81
385.17	940.90
385.36	931.53
385.56	919.83
385.75	968.98
385.95	1004.09
386.14	1011.11
386.34	968.98
386.53	980.68
386.72	1029.84
386.92	959.62
387.11	1125.80
387.31	1055.58
387.50	1083.67
387.70	1060.26
387.89	1034.52
388.09	1135.16
388.28	1057.92
388.48	1025.15
388.67	1100.05
388.86	1132.82
389.06	1210.06
389.25	1137.50
389.45	1165.59
389.64	1174.95
389.84	1191.33
390.03	1198.35
390.22	1149.20
390.42	1158.57
390.61	1144.52
390.81	1261.55
391.00	1256.87
391.19	1284.95
391.39	1277.93
391.58	1289.64
391.78	1261.55
391.97	1301.34
392.16	1308.36
392.36	1341.13
392.55	1373.89
392.75	1296.66
392.94	1385.60
393.13	1409.00
393.33	1439.43
393.52	1444.11
393.71	1334.11
393.91	1357.51
394.10	1366.87
394.29	1434.75
394.49	1397.30
394.68	1465.18
394.88	1362.19
395.07	1439.43
395.26	1572.84
395.46	1413.68
395.65	1549.43
395.84	1558.80
396.04	1589.22
396.23	1624.33
396.42	1551.78
396.62	1624.33
396.81	1621.99
397.00	1511.99
397.19	1582.20
397.39	1647.74
397.58	1664.12
397.77	1549.43
397.97	1530.71
398.16	1657.10
398.35	1638.38
398.55	1774.13
398.74	1619.65
398.93	1710.93
399.12	1692.21
399.32	1682.85
399.51	1762.42
399.70	1802.21
399.90	1820.94
400.09	1827.96
400.28	1799.87
400.47	1853.70
400.67	1849.02
400.86	1879.45
401.05	1895.83
401.24	1858.39
401.44	1881.79
401.63	1944.99
401.82	2043.29
402.01	2064.35
402.21	2071.37
402.40	2078.40
402.59	1991.80
402.78	2022.22
402.97	2064.35
403.17	2176.70
403.36	2069.03
403.55	2040.95
403.74	2188.40
403.93	2113.50
404.13	2167.34
404.32	2202.44
404.51	2216.49
404.70	2272.66
404.89	2216.49
405.09	2223.51
405.28	2167.34
405.47	2200.10
405.66	2286.70
405.85	2429.48
406.05	2370.96
406.24	2289.04
406.43	2415.43
406.62	2462.24
406.81	2487.99
407.00	2373.30
407.20	2377.98
407.39	2455.22
407.58	2420.11
407.77	2546.50
407.96	2513.74
408.15	2511.39
408.34	2455.22
408.54	2663.53
408.73	2595.65
408.92	2586.29
409.11	2668.21
409.30	2637.78
409.49	2689.28
409.68	2747.79
409.87	2747.79
410.07	2731.41
410.26	2738.43
410.45	2789.92
410.64	2827.37
410.83	2855.45
411.02	2834.39
411.21	2991.20
411.40	3005.25
411.59	2963.12
411.78	2946.73
411.98	2967.80
412.17	2958.44
412.36	3052.06
412.55	3159.72
412.74	3204.19
412.93	3112.91
413.12	3220.58
413.31	3494.42
413.50	3119.93
413.69	3353.99
413.88	3295.47
414.07	3358.67
414.26	3323.56
414.45	3328.24
414.64	3337.60
414.83	3405.48
415.02	3433.57
415.22	3581.02
415.41	3604.42
415.60	3578.68
415.79	3609.11
415.98	3651.24
416.17	3779.97
416.36	3705.07
416.55	3786.99
416.74	3920.40
416.93	3864.22
417.12	3964.87
417.31	3922.74
417.50	3985.93
417.69	4100.62
417.88	3967.21
418.07	4074.87
418.26	3974.23
418.45	4081.89
418.64	4166.15
418.83	4198.92
419.02	4077.21
419.21	4145.09
419.39	4112.32
419.58	4252.75
419.77	4215.30
419.96	4198.92
420.15	4301.90
420.34	4201.26
420.53	4259.78
420.72	4421.27
420.91	4372.12
421.10	4393.19
421.29	4566.39
421.48	4341.69
421.67	4500.85
421.86	4491.49
422.05	4479.79
422.24	4554.68
422.43	4400.21
422.61	4470.42
422.80	4524.26
422.99	4704.48
423.18	4627.24
423.37	4730.22
423.56	4706.82
423.75	4566.39
423.94	4713.84
424.13	4423.61
424.32	4519.57
424.50	4788.74
424.69	4805.12
424.88	4688.09
425.07	4727.88
425.26	4620.22
425.45	4472.76
425.64	4620.22
425.83	4727.88
426.01	4798.10
426.20	4730.22
426.39	4798.10
426.58	4807.46
426.77	4723.20
426.96	4915.12
427.15	4727.88
427.33	4795.76
427.52	5013.43
427.71	4950.23
427.90	4910.44
428.09	4931.51
428.28	4933.85
428.46	5121.09
428.65	5233.44
428.84	5165.56
429.03	5252.16
429.22	5001.72
429.40	5291.95
429.59	5219.39
429.78	4961.94
429.97	4943.21
430.16	5055.56
430.34	5219.39
430.53	5266.21
430.72	5317.70
430.91	5149.18
431.10	5254.50
431.28	5289.61
431.47	5458.13
431.66	5460.47
431.85	5371.53
432.03	5584.52
432.22	5607.92
432.41	5650.05
432.60	5645.37
432.79	5610.26
432.97	5636.01
433.16	5729.63
433.35	5696.86
433.54	5722.61
433.72	5741.33
433.91	5617.29
434.10	5940.28
434.28	5750.70
434.47	5743.67
434.66	5778.78
434.85	6033.90
435.03	6076.03
435.22	6052.63
435.41	6113.48
435.59	5994.11
435.78	5977.73
435.97	6120.50
436.16	6169.65
436.34	6167.31
436.53	6183.70
436.72	6359.24
436.90	6076.03
437.09	6160.29
437.28	6176.67
437.46	6396.68
437.65	6335.83
437.84	6368.60
438.02	6349.87
438.21	6485.62
438.40	6420.09
438.58	6759.47
438.77	6733.72
438.96	6333.49
439.14	6796.92
439.33	6792.23
439.52	6825.00
439.70	6724.36
439.89	6803.94
440.08	7016.93
440.26	7037.99
440.45	6927.99
440.63	7166.72
440.82	7201.83
441.01	7115.23
441.19	7218.21
441.38	7358.64
441.57	7438.22
441.75	7529.50
441.94	7627.81
442.12	7602.06
442.31	7569.29
442.50	7555.25
442.68	7393.75
442.87	7756.54
443.05	7648.87
443.24	7740.15
443.43	7786.96
443.61	7730.79
443.80	8077.19
443.98	7772.92
444.17	7716.75
444.35	7936.76
444.54	8037.40
444.73	8006.97
444.91	8140.38
445.10	7983.57
445.28	8013.99
445.47	7950.80
445.65	7943.78
445.84	8067.83
446.02	8119.32
446.21	8058.46
446.39	8086.55
446.58	8152.09
446.77	7969.52
446.95	7899.31
447.14	8035.06
447.32	8079.53
447.51	8037.40
447.69	8028.04
447.88	8091.23
448.06	8105.28
448.25	7957.82
448.43	8203.58
448.62	8205.92
448.80	8166.13
448.99	8257.41
449.17	8339.33
449.36	8248.05
449.54	8484.44
449.73	8521.89
449.91	8500.83
450.10	8566.36
450.28	8734.88
450.46	8573.38
450.65	8437.63
450.83	8709.13
451.02	8664.66
451.20	8531.25
451.39	8582.74
451.57	8688.07
451.76	8702.11
451.94	8805.10
452.13	8978.30
452.31	8868.29
452.49	8594.45
452.68	8812.12
452.86	8802.75
453.05	9015.74
453.23	9085.96
453.42	8943.19
453.60	8858.93
453.78	9132.77
453.97	8966.59
454.15	9280.22
454.34	9081.28
454.52	9305.97
454.70	9287.25
454.89	9100.00
455.07	9263.84
455.26	9423.00
455.44	9406.61
455.62	9441.72
455.81	9362.14
455.99	9547.05
456.17	9579.81
456.36	9575.13
456.54	9537.68
456.73	9900.47
456.91	10005.79
457.09	9839.61
457.28	9874.72
457.46	9928.55
457.64	10022.17
457.83	10202.40
458.01	9736.63
458.19	10183.67
458.38	10228.14
458.56	10431.77
458.74	10420.06
458.93	10176.65
459.11	10239.84
459.29	10277.29
459.48	10300.70
459.66	10420.06
459.84	10387.30
460.03	10600.29
460.21	10396.66
460.39	10413.04
460.57	10619.01
460.76	10621.35
460.94	10705.61
461.12	10537.09
461.31	10778.17
461.49	10743.06
461.67	10766.46
461.85	11061.37
462.04	10930.30
462.22	11410.11
462.40	10956.05
462.59	10979.45
462.77	10953.71
462.95	10885.83
463.13	11115.20
463.32	11112.86
463.50	11169.04
463.68	11344.58
463.86	11192.44
464.05	11351.60
464.23	11262.66
464.41	11442.88
464.59	11272.02
464.78	11513.10
464.96	11365.64
465.14	11482.67
465.32	11529.48
465.50	11482.67
465.69	11695.66
465.87	11529.48
466.05	11463.94
466.23	11522.46
466.41	11686.29
466.60	11887.58
466.78	11810.34
466.96	11515.44
467.14	11585.65
467.32	11627.78
467.51	11882.90
467.69	11892.26
467.87	12077.16
468.05	12084.19
468.23	12030.35
468.41	12299.52
468.60	12081.85
468.78	12285.47
468.96	12255.04
469.14	12381.43
469.32	12524.21
469.50	11913.33
469.69	12585.06
469.87	12421.22
470.05	12718.47
470.23	12549.95
470.41	12610.81
470.59	12549.95
470.77	12578.04
470.95	12823.80
471.14	12952.52
471.32	12676.34
471.50	13128.06
471.68	13170.19
471.86	13224.03
472.04	13352.76
472.22	13238.07
472.40	13383.18
472.58	13493.19
472.77	13186.58
472.95	13563.40
473.13	13830.23
473.31	13355.10
473.49	13577.45
473.67	13851.29
473.85	13745.97
474.03	13832.57
474.21	13790.44
474.39	14153.22
474.57	13987.04
474.75	14527.71
474.93	14314.72
475.12	14476.21
475.30	14214.07
475.48	14361.53
475.66	14745.38
475.84	14501.96
476.02	14794.53
476.20	14824.95
476.38	15241.57
476.56	15176.03
476.74	15545.84
476.92	15227.53
477.10	15215.82
477.28	15758.83
477.46	15492.01
477.64	15843.09
477.82	15805.64
478.00	16161.40
478.18	16320.56
478.36	16365.03
478.54	16844.84
478.72	16545.25
478.90	16896.33
479.08	16854.20
479.26	16786.32
479.44	17160.81
479.62	17207.62
479.80	17177.19
479.98	17547.00
480.16	17802.11
480.34	17743.60
480.52	18146.17
480.70	17841.90
480.88	17832.54
481.06	18022.12
481.24	18160.22
481.41	18567.47
481.59	18370.86
481.77	18813.23
481.95	18761.73
482.13	19028.56
482.31	18881.10
482.49	19447.51
482.67	19241.54
482.85	19571.56
483.03	19889.87
483.21	20114.56
483.39	20210.53
483.57	20119.24
483.74	20514.80
483.92	20606.08
484.10	20465.64
484.28	20865.88
484.46	21090.57
484.64	21441.65
484.82	21270.79
485.00	21287.17
485.18	21647.61
485.35	22305.31
485.53	22115.72
485.71	22265.52
485.89	22735.96
486.07	22628.30
486.25	22738.30
486.43	22939.59
486.61	23002.78
486.78	23227.48
486.96	23613.66
487.14	23782.18
487.32	23751.76
487.50	24283.06
487.68	24418.81
487.85	24409.45
488.03	24725.42
488.21	25085.86
488.39	25095.22
488.57	25205.23
488.75	25252.04
488.92	25914.41
489.10	25881.64
489.28	25729.51
489.46	26324.01
489.64	25977.61
489.81	26693.81
489.99	26518.27
490.17	26408.26
490.35	27494.27
490.53	27379.59
490.70	27367.88
490.88	27697.90
491.06	27681.52
491.24	27985.79
491.41	27803.22
491.59	28182.39
491.77	28655.18
491.95	28830.72
492.13	28987.53
492.30	28816.68
492.48	28989.88
492.66	29544.58
492.84	29525.86
493.01	29654.59
493.19	29769.27
493.37	29979.92
493.54	30012.69
493.72	30768.68
493.90	30174.19
494.08	30796.77
494.25	30969.97
494.43	31278.92
494.61	31974.06
494.79	31742.35
494.96	31498.93
495.14	31981.08
495.32	31934.27
495.49	32301.73
495.67	31894.48
495.85	32334.50
496.02	32917.29
496.20	32854.10
496.38	32760.48
496.55	33371.36
496.73	33373.70
496.91	33727.12
497.09	34007.98
497.26	34206.93
497.44	33689.67
497.62	34050.11
497.79	34401.19
497.97	34373.11
498.14	34925.47
498.32	35145.48
498.50	35002.71
498.67	35236.77
498.85	35405.28
499.03	35339.75
499.20	35421.67
499.38	35693.17
499.56	35952.97
499.73	35971.69
499.91	36144.89
500.08	36734.71
500.26	36294.69
500.44	36776.84
500.61	36634.06
500.79	36648.11
500.97	37156.00
501.14	37738.80
501.32	37624.11
501.49	37443.89
501.67	37266.01
501.84	37684.97
502.02	37745.82
502.20	38036.05
502.37	38099.24
502.55	38288.82
502.72	38412.87
502.90	38164.78
503.07	38520.54
503.25	38820.13
503.43	38176.48
503.60	39447.39
503.78	39234.40
503.95	39679.10
504.13	39255.46
504.30	39306.96
504.48	39264.83
504.65	39552.71
504.83	39838.26
505.01	40491.27
505.18	39651.02
505.36	40404.67
505.53	40346.15
505.71	40381.26
505.88	40563.82
506.06	40098.06
506.23	40968.74
506.41	40715.96
506.58	41219.17
506.76	41263.64
506.93	41240.24
507.11	41315.14
507.28	42139.00
507.46	41743.45
507.63	41806.65
507.81	42253.69
507.98	41949.42
508.16	42024.32
508.33	41907.29
508.50	42356.67
508.68	42026.66
508.85	42724.14
509.03	42230.29
509.20	42948.83
509.38	43140.75
509.55	43185.22
509.73	43302.25
509.90	43480.13
510.08	43182.88
510.25	43009.68
510.42	43384.17
510.60	43887.39
510.77	44306.34
510.95	43920.15
511.12	44147.18
511.30	43620.56
511.47	44598.91
511.64	44451.45
511.82	44765.09
511.99	44540.39
512.17	44732.32
512.34	44339.11
512.51	45003.82
512.69	45399.37
512.86	44856.37
513.04	45593.64
513.21	45659.17
513.38	45918.97
513.56	46333.24
513.73	45778.54
513.90	45558.53
514.08	45937.69
514.25	46040.68
514.43	46117.92
514.60	46557.94
514.77	46419.84
514.95	46464.32
515.12	46162.39
515.29	46286.43
515.47	47019.02
515.64	47136.05
515.81	47203.92
515.99	47004.98
516.16	47150.09
516.33	47585.43
516.51	47758.63
516.68	47344.36
516.85	47468.40
517.03	47599.47
517.20	47562.03
517.37	47840.55
517.54	47943.53
517.72	48023.11
517.89	48013.75
518.06	47894.38
518.24	48334.40
518.41	48198.65
518.58	48325.04
518.75	48273.55
518.93	48409.30
519.10	48591.86
519.27	48732.29
519.45	48406.96
519.62	48739.32
519.79	48652.72
519.96	48842.30
520.14	49483.61
520.31	49495.31
520.48	49518.71
520.65	49268.28
520.83	49605.31
521.00	49298.70
521.17	49132.53
521.34	49743.41
521.52	49734.04
521.69	49745.75
521.86	49963.42
522.03	50141.30
522.20	50117.89
522.38	50124.91
522.55	50567.27
522.72	50129.59
522.89	50248.96
523.07	50337.90
523.24	50595.36
523.41	50688.98
523.58	50365.99
523.75	50904.31
523.92	50803.67
524.10	50967.51
524.27	50733.45
524.44	51000.27
524.61	51370.08
524.78	51393.48
524.96	51391.14
525.13	51229.65
525.30	51224.96
525.47	51529.23
525.64	51281.14
525.81	51353.69
525.98	51849.89
526.16	51728.18
526.33	51519.87
526.50	51945.85
526.67	51690.73
526.84	51693.07
527.01	51547.96
527.18	52055.85
527.36	51997.34
527.53	52608.22
527.70	52514.60
527.87	52392.89
528.04	51978.62
528.21	52046.49
528.38	52418.64
528.55	52561.41
528.72	52484.17
528.89	52629.29
529.07	52769.72
529.24	52477.15
529.41	52800.15
529.58	52933.56
529.75	52809.51
529.92	52809.51
530.09	52701.84
530.26	52959.30
530.43	53296.34
530.60	52715.89
530.77	52832.91
530.94	53071.65
531.11	53048.24
531.28	53186.33
531.46	53219.10
531.63	53399.32
531.80	53492.94
531.97	53677.85
532.14	53563.16
532.31	53635.72
532.48	53378.26
532.65	53460.18
532.82	53312.72
532.99	53944.67
533.16	53900.20
533.33	54120.21
533.50	54174.04
533.67	54017.22
533.84	53954.03
534.01	53977.43
534.18	53888.49
534.35	54199.79
534.52	54003.18
534.69	54181.06
534.86	54075.74
535.03	54096.80
535.20	54211.49
535.37	54452.56
535.54	54705.34
535.71	54143.61
535.88	54394.05
536.05	54712.36
536.22	54695.98
536.38	54663.21
536.55	54431.50
536.72	54536.82
536.89	54515.76
537.06	54522.78
537.23	54740.45
537.40	54838.75
537.57	54752.15
537.74	54876.20
537.91	55091.53
538.08	55248.35
538.25	55056.42
538.42	54955.78
538.59	54944.08
538.75	54976.84
538.92	55091.53
539.09	55206.22
539.26	55269.41
539.43	55241.32
539.60	55402.82
539.77	55458.99
539.94	55662.62
540.11	55622.83
540.28	55360.69
540.44	55409.84
540.61	55257.71
540.78	55419.20
540.95	55840.50
541.12	55884.97
541.29	55821.78
541.46	55674.32
541.62	55620.49
541.79	55700.07
541.96	55592.40
542.13	55805.39
542.30	55910.72
542.47	56114.34
542.63	56062.85
542.80	56320.31
542.97	56395.21
543.14	56123.71
543.31	56083.92
543.48	56207.97
543.64	56526.28
543.81	56533.30
543.98	56430.32
544.15	56655.01
544.32	56655.01
544.48	56570.75
544.65	56605.86
544.82	56446.70
544.99	56430.32
545.16	56720.54
545.32	56477.13
545.49	56891.40
545.66	57102.05
545.83	56839.91
546.00	57134.82
546.16	56706.50
546.33	56718.20
546.50	56680.75
546.67	56811.82
546.83	56435.00
547.00	56945.23
547.17	56849.27
547.34	56914.81
547.50	57080.98
547.67	57322.06
547.84	57144.18
548.00	57233.12
548.17	57518.67
548.34	57270.57
548.51	57436.75
548.67	57492.92
548.84	57385.25
549.01	57249.50
549.18	57237.80
549.34	57350.15
549.51	57125.46
549.68	57118.43
549.84	57368.87
550.01	57584.20
550.18	57602.92
550.34	57595.90
550.51	57572.50
550.68	57432.07
550.84	57462.49
551.01	57563.14
551.18	57591.22
551.34	57645.05
551.51	57432.07
551.68	57708.25
551.84	57764.42
552.01	57506.96
552.18	57883.79
552.34	57886.13
552.51	57989.11
552.68	57794.85
552.84	57867.40
553.01	57827.62
553.18	58169.33
553.34	58059.33
553.51	58136.57
553.67	58101.46
553.84	58260.62
554.01	58026.56
554.17	58145.93
554.34	58007.84
554.51	58192.74
554.67	58262.96
554.84	58087.42
555.00	58188.06
555.17	58206.78
555.33	58234.87
555.50	58122.52
555.67	58277.00
555.83	58265.30
556.00	58239.55
556.16	58429.13
556.33	58255.93
556.50	58588.29
556.66	58454.88
556.83	58387.00
556.99	58798.94
557.16	58873.84
557.32	58583.61
557.49	58698.30
557.65	58450.20
557.82	58424.45
557.98	58497.01
558.15	58822.34
558.32	58635.10
558.48	58592.97
558.65	58595.31
558.81	58719.36
558.98	58812.98
559.14	58684.25
559.31	58653.82
559.47	58637.44
559.64	58845.75
559.80	58838.73
559.97	59065.76
560.13	58674.89
560.30	58761.49
560.46	58953.41
560.63	58850.43
560.79	58834.05
560.96	58845.75
561.12	58876.18
561.29	58686.59
561.45	58972.14
561.61	58972.14
561.78	59061.08
561.94	59063.42
562.11	59178.10
562.27	59009.59
562.44	58784.90
562.60	59114.91
562.77	59180.45
562.93	59105.55
563.10	59283.43
563.26	59245.98
563.42	59498.76
563.59	59117.25
563.75	59178.10
563.92	59341.94
564.08	59133.63
564.24	59374.71
564.41	59157.04
564.57	59271.73
564.74	59440.24
564.90	59311.52
565.07	59299.81
565.23	59498.76
565.39	59229.60
565.56	59461.31
565.72	59126.61
565.88	59332.58
566.05	59250.66
566.21	59276.41
566.38	59253.00
566.54	59276.41
566.70	59704.73
566.87	59716.43
567.03	59494.08
567.19	59779.62
567.36	59550.25
567.52	59283.43
567.68	59421.52
567.85	59370.03
568.01	59524.50
568.17	59250.66
568.34	59737.49
568.50	59686.00
568.66	59545.57
568.83	59744.51
568.99	59618.13
569.15	59320.88
569.32	59604.08
569.48	59302.15
569.64	59611.10
569.81	59461.31
569.97	59604.08
570.13	59788.98
570.30	59592.38
570.46	59746.86
570.62	59578.34
570.78	59578.34
570.95	59487.06
571.11	59629.83
571.27	59667.28
571.43	59711.75
571.60	59739.83
571.76	59924.74
571.92	59920.05
572.09	60016.02
572.25	59688.34
572.41	59611.10
572.57	59533.87
572.74	59845.16
572.90	59580.68
573.06	59697.70
573.22	59770.26
573.38	59786.64
573.55	59690.68
573.71	60060.49
573.87	59959.84
574.03	59695.36
574.20	59913.03
574.36	59653.23
574.52	59693.02
574.68	59583.02
574.84	59943.46
575.01	59849.84
575.17	60086.23
575.33	59887.29
575.49	60048.78
575.65	59849.84
575.82	59955.16
575.98	59868.56
576.14	59999.63
576.30	60081.55
576.46	59765.58
576.62	59763.24
576.79	59814.73
576.95	59760.90
577.11	59941.12
577.27	59807.71
577.43	59994.95
577.59	59952.82
577.75	59798.35
577.92	59842.82
578.08	59735.15
578.24	60027.72
578.40	59779.62
578.56	59920.05
578.72	59906.01
578.88	60081.55
579.04	60116.66
579.21	59983.25
579.37	60046.44
579.53	60051.12
579.69	59580.68
579.85	60086.23
580.01	60048.78
580.17	59882.61
580.33	59901.33
580.49	60245.39
580.65	60327.31
580.82	60299.22
580.98	60030.06
581.14	60027.72
581.30	60224.32
581.46	60030.06
581.62	59962.18
581.78	59746.86
581.94	60107.30
582.10	60221.98
582.26	60154.11
582.42	60198.58
582.58	60381.14
582.74	60257.09
582.90	60280.50
583.06	60243.05
583.22	60175.17
583.38	60182.19
583.54	60111.98
583.70	60083.89
583.86	60261.77
584.02	59994.95
584.18	60383.48
584.34	60116.66
584.50	60168.15
584.66	60079.21
584.82	60083.89
584.98	60175.17
585.14	60140.07
585.30	60116.66
585.46	60104.96
585.62	60058.15
585.78	60161.13
585.94	60018.36
586.10	60334.33
586.26	60252.41
586.42	60465.40
586.58	60238.37
586.74	60200.92
586.90	59973.89
587.06	60116.66
587.22	60172.83
587.38	60100.28
587.54	60399.86
587.70	60444.33
587.86	60346.03
588.02	60266.45
588.18	60605.83
588.34	60392.84
588.49	60065.17
588.65	60280.50
588.81	60306.24
588.97	60221.98
589.13	60186.88
589.29	60341.35
589.45	60308.58
589.61	60420.93
589.77	60577.75
589.93	60353.05
590.08	60629.24
590.24	60563.70
590.40	60577.75
590.56	60336.67
590.72	60451.36
590.88	60350.71
591.04	60348.37
591.20	60783.71
591.35	60577.75
591.51	60872.65
591.67	60654.98
591.83	60622.22
591.99	60467.74
592.15	60687.75
592.31	60580.09
592.46	60559.02
592.62	60458.38
592.78	60467.74
592.94	60383.48
593.10	60484.12
593.26	60884.36
593.41	60549.66
593.57	60512.21
593.73	60505.19
593.89	60617.53
594.05	60402.21
594.20	60460.72
594.36	60594.13
594.52	60678.39
594.68	60296.88
594.84	60582.43
594.99	60694.77
595.15	60673.71
595.31	60624.56
595.47	60753.29
595.62	60615.19
595.78	60547.32
595.94	60701.79
596.10	60718.18
596.25	60772.01
596.41	60392.84
596.57	60505.19
596.73	60779.03
596.88	60437.31
597.04	60844.57
597.20	61080.96
597.36	60860.95
597.51	60797.76
597.67	60500.51
597.83	60537.96
597.99	60580.09
598.14	60725.20
598.30	60654.98
598.46	60666.69
598.61	60769.67
598.77	60603.49
598.93	60839.89
599.09	60818.82
599.24	61127.77
599.40	60554.34
599.56	60790.73
599.71	60687.75
599.87	60713.50
600.03	60582.43
600.18	60528.59
600.34	60638.60
600.50	60882.02
600.65	60762.65
600.81	60961.59
600.97	60867.97
601.12	61066.92
601.28	60732.22
601.44	60764.99
601.59	60912.44
601.75	60612.85
601.91	60802.44
602.06	60837.54
602.22	60910.10
602.37	60584.77
602.53	60743.92
602.69	60959.25
602.84	60837.54
603.00	60874.99
603.16	60767.33
603.31	60788.39
603.47	60741.58
603.62	60849.25
603.78	60725.20
603.94	60580.09
604.09	60584.77
604.25	60647.96
604.40	60514.55
604.56	60781.37
604.71	60931.17
604.87	61006.06
605.03	60926.49
605.18	60781.37
605.34	60816.48
605.49	60432.63
605.65	60647.96
605.80	60514.55
605.96	60697.11
606.12	60568.38
606.27	60910.10
606.43	60692.43
606.58	60811.80
606.74	60638.60
606.89	60999.04
607.05	60807.12
607.20	60704.13
607.36	60884.36
607.51	60690.09
607.67	60692.43
607.82	60561.36
607.98	60673.71
608.13	60552.00
608.29	60718.18
608.44	60640.94
608.60	60821.16
608.75	60729.88
608.91	60985.00
609.06	60575.40
609.22	60643.28
609.37	60598.81
609.53	60533.28
609.68	60488.80
609.84	60509.87
609.99	60629.24
610.15	60692.43
610.30	60603.49
610.46	60566.04
610.61	60662.00
610.76	60573.06
610.92	60624.56
611.07	60537.96
611.23	60516.89
611.38	60652.64
611.54	60526.25
611.69	60334.33
611.84	60437.31
612.00	60626.90
612.15	60287.52
612.31	60601.15
612.46	60395.18
612.62	60399.86
612.77	60544.98
612.92	60804.78
613.08	60346.03
613.23	60444.33
613.39	60343.69
613.54	60147.09
613.69	60353.05
613.85	60086.23
614.00	60615.19
614.15	60594.13
614.31	60458.38
614.46	60481.78
614.62	60350.71
614.77	60556.68
614.92	60577.75
615.08	60451.36
615.23	60423.27
615.38	60231.35
615.54	60322.63
615.69	60364.76
615.84	60371.78
616.00	60472.42
616.15	60093.25
616.30	60374.12
616.46	60369.44
616.61	60392.84
616.76	60385.82
616.92	60306.24
617.07	60362.42
617.22	60009.00
617.37	60161.13
617.53	60140.07
617.68	60067.51
617.83	59898.99
617.99	60165.81
618.14	60095.60
618.29	60212.62
618.45	60376.46
618.60	60161.13
618.75	60182.19
618.90	60294.54
619.06	60147.09
619.21	60170.49
619.36	60193.90
619.51	59784.30
619.67	59913.03
619.82	59983.25
619.97	60069.85
620.12	59693.02
620.28	59943.46
620.43	60095.60
620.58	60245.39
620.73	60142.41
620.89	60027.72
621.04	60116.66
621.19	60030.06
621.34	59992.61
621.49	59819.41
621.65	60016.02
621.80	59784.30
621.95	59728.13
622.10	59767.92
622.25	59894.31
622.41	59784.30
622.56	59898.99
622.71	59866.22
622.86	59744.51
623.01	59568.97
623.16	59585.36
623.32	59695.36
623.47	59568.97
623.62	59746.86
623.77	59604.08
623.92	59536.21
624.07	59508.12
624.23	59707.07
624.38	59751.54
624.53	59650.89
624.68	59840.48
624.83	59695.36
624.98	59599.40
625.13	59271.73
625.29	59714.09
625.44	59671.96
625.59	59526.84
625.74	59351.30
625.89	59241.30
626.04	59253.00
626.19	59505.78
626.34	59302.15
626.49	59313.86
626.65	59473.01
626.80	59482.37
626.95	59255.34
627.10	59180.45
627.25	59344.28
627.40	59185.13
627.55	59150.02
627.70	58852.77
627.85	58969.80
628.00	59007.25
628.15	59208.53
628.30	58983.84
628.45	59262.36
628.60	59285.77
628.76	59365.35
628.91	59262.36
629.06	59316.20
629.21	59084.48
629.36	58995.54
629.51	59180.45
629.66	58871.49
629.81	58775.53
629.96	58932.35
630.11	58864.47
630.26	58794.26
630.41	58969.80
630.56	58773.19
630.71	58864.47
630.86	59068.10
631.01	58990.86
631.16	58859.79
631.31	58892.56
631.46	58932.35
631.61	59028.31
631.76	58820.00
631.91	58920.65
632.06	58820.00
632.21	58719.36
632.36	58808.30
632.51	58487.65
632.66	58651.48
632.81	58461.90
632.96	58695.95
633.10	58773.19
633.25	58667.87
633.40	58801.28
633.55	58520.41
633.70	58501.69
633.85	58260.62
634.00	58333.17
634.15	58480.63
634.30	58244.23
634.45	58555.52
634.60	58674.89
634.75	58738.08
634.90	58644.46
635.05	58759.15
635.19	58578.93
635.34	58677.23
635.49	58614.04
635.64	58501.69
635.79	58429.13
635.94	58188.06
636.09	58529.78
636.24	58237.21
636.39	58038.26
636.53	58244.23
636.68	58419.77
636.83	58438.50
636.98	58564.88
637.13	58548.50
637.28	58471.26
637.43	58295.72
637.57	58319.13
637.72	58258.27
637.87	58220.83
638.02	58227.85
638.17	58281.68
638.32	58042.95
638.46	58087.42
638.61	57996.13
638.76	57733.99
638.91	58066.35
639.06	58092.10
639.20	58094.44
639.35	58162.31
639.50	58106.14
639.65	58103.80
639.80	58080.39
639.94	58155.29
640.09	58028.90
640.24	57928.26
640.39	57790.17
640.54	57890.81
640.68	57872.09
640.83	57993.79
640.98	57563.14
641.13	57509.30
641.27	57794.85
641.42	57661.44
641.57	57839.32
641.72	57797.19
641.86	57801.87
642.01	57792.51
642.16	57670.80
642.31	57401.64
642.45	57689.52
642.60	57315.04
642.75	57336.10
642.90	57537.39
643.04	57436.75
643.19	57359.51
643.34	57560.79
643.48	57591.22
643.63	57886.13
643.78	57848.68
643.93	57593.56
644.07	57769.10
644.22	57448.45
644.37	57427.38
644.51	57371.21
644.66	57684.84
644.81	57411.00
644.95	57275.25
645.10	57308.02
645.25	57485.90
645.39	57406.32
645.54	57579.52
645.69	57403.98
645.83	57427.38
645.98	57169.93
646.13	57474.20
646.27	57312.70
646.42	57574.84
646.57	57443.77
646.71	57432.07
646.86	57176.95
647.00	57186.31
647.15	57111.41
647.30	57001.41
647.44	56968.64
647.59	57041.20
647.74	57113.75
647.88	57027.15
648.03	57134.82
648.17	57137.16
648.32	57205.03
648.47	57289.29
648.61	57062.26
648.76	57179.29
648.90	57198.01
649.05	56910.13
649.20	56989.70
649.34	56945.23
649.49	56921.83
649.63	57057.58
649.78	57001.41
649.92	57165.24
650.07	57251.84
650.21	56844.59
650.36	57003.75
650.51	56931.19
650.65	57179.29
650.80	56959.28
650.94	56882.04
651.09	56683.09
651.23	56411.59
651.38	56891.40
651.52	56589.47
651.67	56790.76
651.81	56486.49
651.96	56484.15
652.10	56502.87
652.25	56622.24
652.39	56900.76
652.54	56839.91
652.68	56676.07
652.83	56615.22
652.97	57031.83
653.12	56535.64
653.26	56470.11
653.41	56446.70
653.55	56488.83
653.70	56236.05
653.84	56437.34
653.99	56348.40
654.13	56427.98
654.27	56112.00
654.42	56245.41
654.56	56229.03
654.71	56437.34
654.85	56505.21
655.00	56381.16
655.14	56446.70
655.29	56282.86
655.43	56182.22
655.57	56189.24
655.72	56065.19
655.86	55992.64
656.01	56041.79
656.15	55987.95
656.30	56163.50
656.44	56025.40
656.58	56179.88
656.73	56142.43
656.87	56109.66
657.01	56193.92
657.16	56170.52
657.30	55969.23
657.45	56315.63
657.59	56264.14
657.73	55987.95
657.88	56100.30
658.02	55945.83
658.16	55992.64
658.31	55833.48
658.45	55709.43
658.60	55440.27
658.74	55496.44
658.88	55751.56
659.03	55241.32
659.17	55398.14
659.31	55648.58
659.46	55657.94
659.60	55884.97
659.74	55561.98
659.89	55414.52
660.03	55606.45
660.17	55683.69
660.32	55458.99
660.46	55295.16
660.60	55084.51
660.74	55180.47
660.89	55386.44
661.03	55128.98
661.17	55271.75
661.32	55056.42
661.46	55018.97
661.60	55065.78
661.74	55168.77
661.89	55206.22
662.03	55131.32
662.17	55119.62
662.31	54927.69
662.46	54993.23
662.60	54693.64
662.74	54593.00
662.88	54391.71
663.03	54398.73
663.17	54408.09
663.31	54529.80
663.45	54429.16
663.60	54827.05
663.74	54452.56
663.88	54398.73
664.02	54506.40
664.17	54859.82
664.31	54387.03
664.45	54550.87
664.59	54321.49
664.73	54354.26
664.88	54068.72
665.02	53881.47
665.16	53989.14
665.30	54115.53
665.44	54150.63
665.59	53900.20
665.73	53846.36
665.87	53717.64
666.01	53867.43
666.15	53886.15
666.29	54007.86
666.44	53998.50
666.58	53954.03
666.72	53918.92
666.86	53888.49
667.00	54092.12
667.14	53808.92
667.28	53380.60
667.43	53176.97
667.57	53364.21
667.71	53249.53
667.85	53251.87
667.99	53141.86
668.13	53160.59
668.27	53265.91
668.41	53324.43
668.56	52790.78
668.70	52912.49
668.84	53062.29
668.98	52875.04
669.12	53062.29
669.26	53162.93
669.40	52739.29
669.54	52348.42
669.68	52418.64
669.82	52435.02
669.96	52533.32
670.10	52619.92
670.25	52495.88
670.39	52406.94
670.53	52182.24
670.67	52271.18
670.81	52788.44
670.95	52596.52
671.09	52477.15
671.23	52470.13
671.37	52210.33
671.51	52322.68
671.65	52184.58
671.79	51784.35
671.93	51978.62
672.07	51938.83
672.21	51585.41
672.35	51550.30
672.49	51423.91
672.63	51426.25
672.77	51341.99
672.91	51772.65
673.05	51423.91
673.19	51217.94
673.33	51283.48
673.47	51185.18
673.61	51365.40
673.75	51550.30
673.89	51112.62
674.03	50885.59
674.17	51264.75
674.31	51096.24
674.45	50871.54
674.59	50710.05
674.73	51019.00
674.87	50450.25
675.01	50302.79
675.15	50602.38
675.29	50183.43
675.43	50562.59
675.56	50358.97
675.70	50405.78
675.84	50206.83
675.98	49242.53
676.12	50274.71
676.26	50057.04
676.40	49586.59
676.54	49488.29
676.68	49235.51
676.82	48641.01
676.96	49113.80
677.10	49013.16
677.23	48844.64
677.37	49144.23
677.51	48938.26
677.65	48622.29
677.79	48493.56
677.93	48662.08
678.07	48509.94
678.21	48655.06
678.34	48523.99
678.48	48266.53
678.62	48004.39
678.76	48348.45
678.90	47711.82
679.04	47889.70
679.18	47435.64
679.31	47220.31
679.45	47250.74
679.59	47325.63
679.73	47508.19
679.87	46927.74
680.00	46993.28
680.14	47122.01
680.28	46670.28
680.42	46490.06
680.56	47035.41
680.70	46686.67
680.83	46728.80
680.97	46761.56
681.11	46700.71
681.25	46197.49
681.39	45757.47
681.52	45184.04
681.66	45317.45
681.80	44994.46
681.94	44573.16
682.07	44765.09
682.21	44896.16
682.35	44870.41
682.49	44942.97
682.62	45027.23
682.76	44526.35
682.90	44708.91
683.04	44456.14
683.17	44542.74
683.31	44737.00
683.45	44336.77
683.59	44018.46
683.72	44088.67
683.86	43746.95
684.00	43634.61
684.13	43274.16
684.27	42911.38
684.41	42550.94
684.55	42246.67
684.68	42679.67
684.82	42593.07
684.96	42759.25
685.09	42501.79
685.23	42527.53
685.37	42204.54
685.50	42761.59
685.64	42433.91
685.78	42127.30
685.91	41933.04
686.05	42218.58
686.19	41881.55
686.32	41897.93
686.46	41038.95
686.60	41064.70
686.73	41387.69
686.87	40528.72
687.01	40840.01
687.14	40746.39
687.28	40657.45
687.42	40259.55
687.55	40231.47
687.69	40343.81
687.82	40430.41
687.96	39964.65
688.10	39784.43
688.23	39859.32
688.37	39725.91
688.50	39569.10
688.64	39414.62
688.78	39393.56
688.91	38595.43
689.05	39112.69
689.18	38295.85
689.32	37612.41
689.46	37883.91
689.59	38522.88
689.73	38553.30
689.86	38352.02
690.00	37844.12
690.13	38089.88
690.27	37670.92
690.41	38366.06
690.54	37598.37
690.68	37284.73
690.81	37872.21
690.95	37118.56
691.08	36980.46
691.22	37401.76
691.35	36800.24
691.49	37027.28
691.62	36814.29
691.76	36470.23
691.89	36151.91
692.03	36137.87
692.16	36006.80
692.30	35449.75
692.43	35339.75
692.57	35424.01
692.70	35337.41
692.84	35496.56
692.97	35356.13
693.11	35220.38
693.24	35484.86
693.38	35377.20
693.51	35140.80
693.65	34696.10
693.78	35152.51
693.92	34731.21
694.05	34742.91
694.19	34279.49
694.32	33989.26
694.45	33289.44
694.59	33448.60
694.72	32760.48
694.86	33528.17
694.99	33102.20
695.13	33088.15
695.26	32811.97
695.39	32910.27
695.53	32755.80
695.66	32751.12
695.80	32891.55
695.93	32723.03
696.07	32355.57
696.20	32388.33
696.33	32346.20
696.47	31934.27
696.60	32334.50
696.73	32119.17
696.87	31662.77
697.00	31234.45
697.14	31253.17
697.27	30803.79
697.40	30799.11
697.54	30888.05
697.67	30581.44
697.80	30775.70
697.94	30581.44
698.07	30326.32
698.21	30328.66
698.34	30228.02
698.47	30031.41
698.61	30005.67
698.74	29802.04
698.87	29902.68
699.01	29495.43
699.14	29635.86
699.27	29357.34
699.40	28992.22
699.54	29436.92
699.67	28652.84
699.80	28470.28
699.94	28734.76
700.07	28531.13
700.20	28397.72
700.34	28198.77
700.47	28460.91
700.60	28533.47
700.73	28652.84
700.87	28196.43
701.00	28123.88
701.13	27964.72
701.26	27941.32
701.40	27555.13
701.53	27388.95
701.66	27580.87
701.79	27395.97
701.93	26808.50
702.06	26651.68
702.19	26419.97
702.32	26607.21
702.46	26230.38
702.59	26080.59
702.72	26169.53
702.85	25883.98
702.99	25970.58
703.12	26192.94
703.25	25458.01
703.38	26015.05
703.51	25422.90
703.65	25565.67
703.78	25338.64
703.91	25130.33
704.04	25296.51
704.17	24980.54
704.31	24891.60
704.44	24423.49
704.57	24519.45
704.70	24517.11
704.83	24411.79
704.96	24662.22
705.10	24245.61
705.23	24552.22
>>>>>End Processed Spectral Data<<<<<
