SpectraSuite Data File
++++++++++++++++++++++++++++++++++++
Date: Fri Oct 04 11:48:21 GMT-05:00 2013
User: price-jones
Dark Spectrum Present: No
Reference Spectrum Present: No
Number of Sampled Component Spectra: 1
Spectrometers: USB2+H05261
Integration Time (usec): 100000 (USB2+H05261)
Spectra Averaged: 1 (USB2+H05261)
Boxcar Smoothing: 0 (USB2+H05261)
Correct for Electrical Dark: No (USB2+H05261)
Strobe/Lamp Enabled: No (USB2+H05261)
Correct for Detector Non-linearity: No (USB2+H05261)
Correct for Stray Light: No (USB2+H05261)
Number of Pixels in Processed Spectrum: 2048
>>>>>Begin Processed Spectral Data<<<<<
365.73	0.00
365.92	0.00
366.12	0.00
366.32	16.38
366.52	4.68
366.72	0.00
366.91	0.00
367.11	0.00
367.31	0.00
367.51	0.00
367.70	0.00
367.90	0.00
368.10	0.00
368.30	0.00
368.49	0.00
368.69	0.00
368.89	0.00
369.09	0.00
369.28	35.11
369.48	0.00
369.68	0.00
369.87	0.00
370.07	0.00
370.27	16.38
370.47	4.68
370.66	67.88
370.86	95.96
371.06	159.16
371.25	138.09
371.45	133.41
371.65	184.90
371.84	220.01
372.04	201.29
372.24	243.42
372.44	205.97
372.63	147.45
372.83	217.67
373.03	189.58
373.22	131.07
373.42	161.50
373.62	203.63
373.81	189.58
374.01	280.86
374.21	299.59
374.40	175.54
374.60	297.25
374.79	273.84
374.99	189.58
375.19	168.52
375.38	304.27
375.58	184.90
375.78	234.05
375.97	250.44
376.17	322.99
376.37	238.73
376.56	189.58
376.76	168.52
376.95	255.12
377.15	358.10
377.35	217.67
377.54	245.76
377.74	205.97
377.93	245.76
378.13	229.37
378.33	252.78
378.52	255.12
378.72	264.48
378.91	257.46
379.11	196.60
379.31	245.76
379.50	198.95
379.70	259.80
379.89	301.93
380.09	283.20
380.28	285.55
380.48	257.46
380.68	285.55
380.87	287.89
381.07	252.78
381.26	341.72
381.46	344.06
381.65	252.78
381.85	222.35
382.04	346.40
382.24	229.37
382.43	241.08
382.63	297.25
382.83	248.10
383.02	236.39
383.22	365.12
383.41	290.23
383.61	269.16
383.80	262.14
384.00	299.59
384.19	227.03
384.39	290.23
384.58	353.42
384.78	311.29
384.97	330.02
385.17	330.02
385.36	306.61
385.56	330.02
385.75	304.27
385.95	304.27
386.14	346.40
386.34	217.67
386.53	325.33
386.72	315.97
386.92	353.42
387.11	257.46
387.31	360.44
387.50	306.61
387.70	337.04
387.89	400.23
388.09	306.61
388.28	285.55
388.48	369.80
388.67	318.31
388.86	259.80
389.06	390.87
389.25	407.25
389.45	315.97
389.64	339.38
389.84	390.87
390.03	355.76
390.22	358.10
390.42	339.38
390.61	407.25
390.81	297.25
391.00	496.19
391.19	437.68
391.39	390.87
391.58	418.96
391.78	402.57
391.97	397.89
392.16	411.93
392.36	428.32
392.55	390.87
392.75	447.04
392.94	484.49
393.13	456.40
393.33	395.55
393.52	411.93
393.71	442.36
393.91	365.12
394.10	458.74
394.29	418.96
394.49	477.47
394.68	468.11
394.88	566.41
395.07	475.13
395.26	430.66
395.46	566.41
395.65	496.19
395.84	503.22
396.04	561.73
396.23	472.79
396.42	538.32
396.62	543.00
396.81	543.00
397.00	482.15
397.19	540.66
397.39	587.47
397.58	650.67
397.77	624.92
397.97	585.13
398.16	557.05
398.35	631.94
398.55	521.94
398.74	592.16
398.93	615.56
399.12	580.45
399.32	608.54
399.51	622.58
399.70	631.94
399.90	634.29
400.09	636.63
400.28	606.20
400.47	641.31
400.67	610.88
400.86	713.86
401.05	704.50
401.24	690.46
401.44	739.61
401.63	713.86
401.82	755.99
402.01	725.57
402.21	833.23
402.40	753.65
402.59	767.70
402.78	784.08
402.97	802.80
403.17	765.36
403.36	887.06
403.55	791.10
403.74	741.95
403.93	861.32
404.13	795.78
404.32	779.40
404.51	931.53
404.70	961.96
404.89	889.40
405.09	940.90
405.28	999.41
405.47	957.28
405.66	912.81
405.85	983.02
406.05	919.83
406.24	1050.90
406.43	957.28
406.62	1001.75
406.81	999.41
407.00	961.96
407.20	997.07
407.39	1020.47
407.58	1086.01
407.77	1125.80
407.96	1114.10
408.15	1095.37
408.34	1142.18
408.54	1111.75
408.73	1067.28
408.92	1102.39
409.11	1139.84
409.30	1184.31
409.49	1151.54
409.68	1165.59
409.87	1200.69
410.07	1280.27
410.26	1308.36
410.45	1191.33
410.64	1158.57
410.83	1310.70
411.02	1320.06
411.21	1355.17
411.40	1376.24
411.59	1364.53
411.78	1331.76
411.98	1329.42
412.17	1413.68
412.36	1401.98
412.55	1462.83
412.74	1376.24
412.93	1476.88
413.12	1458.15
413.31	1577.52
413.50	1497.94
413.69	1624.33
413.88	1596.25
414.07	1586.88
414.26	1659.44
414.45	1551.78
414.64	1596.25
414.83	1664.12
415.02	1638.38
415.22	1703.91
415.41	1797.53
415.60	1764.76
415.79	1802.21
415.98	1724.97
416.17	1795.19
416.36	1804.55
416.55	1809.23
416.74	1748.38
416.93	1811.57
417.12	1914.56
417.31	1797.53
417.50	1867.75
417.69	1991.80
417.88	1973.07
418.07	1968.39
418.26	1956.69
418.45	2019.88
418.64	2010.52
418.83	2115.84
419.02	2040.95
419.21	2125.21
419.39	2066.69
419.58	2050.31
419.77	2136.91
419.96	2193.08
420.15	2160.31
420.34	2036.27
420.53	2083.08
420.72	2204.78
420.91	2129.89
421.10	2111.16
421.29	2176.70
421.48	1991.80
421.67	2298.41
421.86	2214.15
422.05	2174.36
422.24	2211.81
422.43	2202.44
422.61	2211.81
422.80	2197.76
422.99	2347.56
423.18	2291.38
423.37	2284.36
423.56	2342.88
423.75	2382.67
423.94	2174.36
424.13	2139.25
424.32	2179.04
424.50	2272.66
424.69	2293.72
424.88	2352.24
425.07	2331.17
425.26	2300.75
425.45	2324.15
425.64	2338.20
425.83	2382.67
426.01	2394.37
426.20	2347.56
426.39	2349.90
426.58	2455.22
426.77	2361.60
426.96	2523.10
427.15	2466.92
427.33	2495.01
427.52	2399.05
427.71	2555.86
427.90	2511.39
428.09	2377.98
428.28	2410.75
428.46	2565.23
428.65	2558.21
428.84	2619.06
429.03	2572.25
429.22	2544.16
429.40	2590.97
429.59	2593.31
429.78	2593.31
429.97	2438.84
430.16	2525.44
430.34	2534.80
430.53	2583.95
430.72	2588.63
430.91	2691.62
431.10	2754.81
431.28	2729.06
431.47	2644.81
431.66	2710.34
431.85	2597.99
432.03	2771.19
432.22	2738.43
432.41	2808.64
432.60	2848.43
432.79	2654.17
432.97	2782.90
433.16	2883.54
433.35	2820.35
433.54	2928.01
433.72	2841.41
433.91	2897.58
434.10	2913.97
434.28	2937.37
434.47	2825.03
434.66	2951.42
434.85	3054.40
435.03	2888.22
435.22	3002.91
435.41	3084.83
435.59	3061.42
435.78	2895.24
435.97	3080.14
436.16	3026.31
436.34	3068.44
436.53	3045.04
436.72	3190.15
436.90	3091.85
437.09	3070.78
437.28	2965.46
437.46	3143.34
437.65	3021.63
437.84	3047.38
438.02	3159.72
438.21	3148.02
438.40	3014.61
438.58	3330.58
438.77	3337.60
438.96	3248.66
439.14	3304.84
439.33	3204.19
439.52	3407.82
439.70	3265.05
439.89	3520.17
440.08	3449.95
440.26	3564.64
440.45	3449.95
440.63	3370.37
440.82	3655.92
441.01	3651.24
441.19	3522.51
441.38	3559.95
441.57	3641.87
441.75	3541.23
441.94	3630.17
442.12	3627.83
442.31	3868.91
442.50	3868.91
442.68	3749.54
442.87	3744.86
443.05	3674.64
443.24	3784.65
443.43	3932.10
443.61	3885.29
443.80	4002.32
443.98	3695.71
444.17	3592.72
444.35	3918.06
444.54	3950.82
444.73	3866.56
444.91	3772.94
445.10	3911.04
445.28	3929.76
445.47	3761.24
445.65	3899.33
445.84	4049.13
446.02	3939.12
446.21	3896.99
446.39	3964.87
446.58	4039.76
446.77	4072.53
446.95	3824.44
447.14	3960.19
447.32	4072.53
447.51	3843.16
447.69	4002.32
447.88	4046.79
448.06	4189.56
448.25	4025.72
448.43	3838.48
448.62	4007.00
448.80	4077.21
448.99	4030.40
449.17	4016.36
449.36	3915.72
449.54	4128.70
449.73	4177.86
449.91	4231.69
450.10	4177.86
450.28	4063.17
450.46	4435.32
450.65	4210.62
450.83	4276.16
451.02	4175.52
451.20	4365.10
451.39	4273.82
451.57	4283.18
451.76	4133.39
451.94	4250.41
452.13	4395.53
452.31	4407.23
452.49	4217.65
452.68	4278.50
452.86	4301.90
453.05	4397.87
453.23	4374.46
453.42	4386.16
453.60	4248.07
453.78	4442.34
453.97	4280.84
454.15	4367.44
454.34	4482.13
454.52	4610.86
454.70	4531.28
454.89	4550.00
455.07	4667.03
455.26	4528.94
455.44	4547.66
455.62	4573.41
455.81	4596.81
455.99	4702.14
456.17	4695.11
456.36	4681.07
456.54	4830.87
456.73	4835.55
456.91	4912.78
457.09	4730.22
457.28	4901.08
457.46	4910.44
457.64	4985.34
457.83	4980.66
458.01	4940.87
458.19	5036.83
458.38	4961.94
458.56	4990.02
458.74	4945.55
458.93	5029.81
459.11	4791.08
459.29	4908.10
459.48	4912.78
459.66	5100.03
459.84	5128.11
460.03	5118.75
460.21	4983.00
460.39	5020.45
460.57	5212.37
460.76	5357.49
460.94	5376.21
461.12	5224.08
461.31	5322.38
461.49	5139.82
461.67	5210.03
461.85	5303.65
462.04	5109.39
462.22	5717.93
462.40	5198.33
462.59	5268.55
462.77	5233.44
462.95	5458.13
463.13	5280.25
463.32	5369.19
463.50	5549.41
463.68	5476.85
463.86	5327.06
464.05	5425.36
464.23	5399.62
464.41	5554.09
464.59	5455.79
464.78	5593.88
464.96	5476.85
465.14	5495.58
465.32	5654.73
465.50	5607.92
465.69	5654.73
465.87	5387.91
466.05	5727.29
466.23	5575.16
466.41	5647.71
466.60	5853.68
466.78	5654.73
466.96	5689.84
467.14	5757.72
467.32	5802.19
467.51	5774.10
467.69	5736.65
467.87	5790.49
468.05	5809.21
468.23	5645.37
468.41	5682.82
468.60	5923.90
468.78	5685.16
468.96	5804.53
469.14	5912.19
469.32	5907.51
469.50	5696.86
469.69	6022.20
469.87	6204.76
470.05	5949.64
470.23	5961.34
470.41	6127.52
470.59	6001.13
470.77	5970.71
470.95	6204.76
471.14	6045.60
471.32	6125.18
471.50	6216.46
471.68	6155.61
471.86	6251.57
472.04	6441.15
472.22	6434.13
472.40	6497.33
472.58	6401.37
472.77	6317.11
472.95	6600.31
473.13	6832.02
473.31	6427.11
473.49	6464.56
473.67	6253.91
473.85	6546.48
474.03	6626.06
474.21	6616.69
474.39	6707.98
474.57	6841.39
474.75	6834.36
474.93	7005.22
475.12	6565.20
475.30	6733.72
475.48	6707.98
475.66	7087.14
475.84	6965.43
476.02	7178.42
476.20	6920.96
476.38	7070.76
476.56	7248.64
476.74	7258.00
476.92	7241.62
477.10	7250.98
477.28	7360.98
477.46	7407.80
477.64	7412.48
477.82	7630.15
478.00	7709.72
478.18	7691.00
478.36	7896.97
478.54	7840.79
478.72	7920.37
478.90	7866.54
479.08	8074.85
479.26	7985.91
479.44	7896.97
479.62	8044.42
479.80	8205.92
479.98	8152.09
480.16	8224.64
480.34	8379.12
480.52	8439.97
480.70	8601.47
480.88	8252.73
481.06	8475.08
481.24	8491.46
481.41	8856.59
481.59	8608.49
481.77	8748.92
481.95	8952.55
482.13	8882.33
482.31	8772.33
482.49	9102.34
482.67	9179.58
482.85	9200.65
483.03	9439.38
483.21	9462.79
483.39	9378.53
483.57	9380.87
483.74	9682.80
483.92	9720.24
484.10	9708.54
484.28	9879.40
484.46	9860.68
484.64	10195.37
484.82	10054.94
485.00	9989.41
485.18	10153.24
485.35	10312.40
485.53	10286.65
485.71	10293.68
485.89	10719.65
486.07	10377.94
486.25	10253.89
486.43	10567.52
486.61	10867.11
486.78	10855.40
486.96	11178.40
487.14	11044.99
487.32	10853.06
487.50	11112.86
487.68	11070.73
487.85	11494.37
488.03	11428.84
488.21	11548.20
488.39	11698.00
488.57	11819.71
488.75	11784.60
488.92	12170.79
489.10	11857.15
489.28	12187.17
489.46	12147.38
489.64	12184.83
489.81	12432.93
489.99	12294.83
490.17	12432.93
490.35	12638.89
490.53	12823.80
490.70	12645.91
490.88	12666.98
491.06	13013.38
491.24	12842.52
491.41	12903.37
491.59	12931.46
491.77	13362.12
491.95	13394.89
492.13	13432.33
492.30	13327.01
492.48	13334.03
492.66	13469.78
492.84	13631.28
493.01	13769.37
493.19	13771.71
493.37	14118.11
493.54	13804.48
493.72	13937.89
493.90	13973.00
494.08	14295.99
494.25	14478.55
494.43	14572.18
494.61	14370.89
494.79	14572.18
494.96	14626.01
495.14	14431.74
495.32	14979.43
495.49	14846.02
495.67	14944.32
495.85	15119.86
496.02	15019.22
496.20	15194.76
496.38	15241.57
496.55	15386.68
496.73	15697.97
496.91	15218.16
497.09	15513.07
497.26	15681.59
497.44	15716.70
497.62	15714.36
497.79	15690.95
497.97	15761.17
498.14	15960.11
498.32	16198.85
498.50	16229.27
498.67	16233.96
498.85	16137.99
499.03	16484.39
499.20	16531.20
499.38	16610.78
499.56	16496.10
499.73	16423.54
499.91	16809.73
500.08	16798.02
500.26	16620.14
500.44	16898.67
500.61	16879.94
500.79	17193.58
500.97	17151.45
501.14	17436.99
501.32	17458.06
501.49	17181.87
501.67	17322.30
501.84	17436.99
502.02	17371.46
502.20	17598.49
502.37	17350.39
502.55	17584.44
502.72	17706.15
502.90	17689.77
503.07	17764.67
503.25	18001.06
503.43	17991.70
503.60	17954.25
503.78	18218.73
503.95	18080.64
504.13	18279.58
504.30	18075.96
504.48	18153.20
504.65	18167.24
504.83	18492.57
505.01	18838.97
505.18	18459.81
505.36	18567.47
505.53	18302.99
505.71	18352.14
505.88	18675.13
506.06	18539.38
506.23	18735.99
506.41	19028.56
506.58	18963.02
506.76	19229.84
506.93	19009.83
507.11	19133.88
507.28	19356.23
507.46	19314.10
507.63	19658.16
507.81	19166.65
507.98	19536.45
508.16	19454.53
508.33	19508.37
508.50	19475.60
508.68	19665.18
508.85	20004.56
509.03	19594.96
509.20	20016.26
509.38	20081.80
509.55	20046.69
509.73	20037.33
509.90	20137.97
510.08	20142.65
510.25	20109.88
510.42	20688.00
510.60	20568.63
510.77	20636.50
510.95	20673.95
511.12	20538.20
511.30	20500.75
511.47	20603.74
511.64	20854.17
511.82	21085.89
511.99	20657.57
512.17	21083.55
512.34	20842.47
512.51	21120.99
512.69	21193.55
512.86	20863.54
513.04	21181.85
513.21	21280.15
513.38	21439.31
513.56	21418.24
513.73	21488.46
513.90	21298.88
514.08	21273.13
514.25	21820.81
514.43	21914.44
514.60	21799.75
514.77	21940.18
514.95	22162.53
515.12	21837.20
515.29	21741.24
515.47	21825.50
515.64	22192.96
515.81	22036.14
515.99	22115.72
516.16	22267.86
516.33	22115.72
516.51	22300.62
516.68	22143.81
516.85	21982.31
517.03	22415.31
517.20	22490.21
517.37	22499.57
517.54	22560.42
517.72	22375.52
517.89	22558.08
518.06	22537.02
518.24	22773.41
518.41	22717.24
518.58	22888.10
518.75	22948.95
518.93	22822.56
519.10	23246.20
519.27	23068.32
519.45	22843.63
519.62	23115.13
519.79	23033.21
519.96	23183.01
520.14	23473.23
520.31	23281.31
520.48	23625.37
520.65	23211.09
520.83	23365.57
521.00	23704.95
521.17	23356.21
521.34	23702.61
521.52	23522.38
521.69	23880.49
521.86	23913.25
522.03	24072.41
522.20	23924.96
522.38	23789.20
522.55	23576.22
522.72	23885.17
522.89	23791.55
523.07	24212.84
523.24	24182.42
523.41	24346.25
523.58	23971.77
523.75	24245.61
523.92	23751.76
524.10	24018.58
524.27	24486.68
524.44	24538.18
524.61	24762.87
524.78	24545.20
524.96	24666.91
525.13	24556.90
525.30	24788.61
525.47	24718.40
525.64	24734.78
525.81	24929.05
525.98	24912.66
526.16	25001.60
526.33	24861.17
526.50	25193.53
526.67	24872.87
526.84	25085.86
527.01	24627.12
527.18	24886.92
527.36	25336.30
527.53	25207.57
527.70	25853.56
527.87	25142.03
528.04	25242.68
528.21	25486.09
528.38	25214.59
528.55	25607.80
528.72	25605.46
528.89	25338.64
529.07	25069.48
529.24	25467.37
529.41	25802.07
529.58	25666.31
529.75	25699.08
529.92	25898.03
530.09	25827.81
530.26	25647.59
530.43	25970.58
530.60	25788.02
530.77	25766.96
530.94	25989.31
531.11	25759.94
531.28	25628.87
531.46	26031.44
531.63	26101.65
531.80	25832.49
531.97	26237.41
532.14	26335.71
532.31	26382.52
532.48	26029.10
532.65	26150.81
532.82	26164.85
532.99	26274.85
533.16	26246.77
533.33	26604.87
533.50	26485.50
533.67	26574.44
533.84	26307.62
534.01	26515.93
534.18	26457.42
534.35	26532.31
534.52	26632.96
534.69	26918.50
534.86	27028.51
535.03	26728.92
535.20	26852.97
535.37	26876.37
535.54	26883.39
535.71	27005.10
535.88	26984.04
536.05	27084.68
536.22	27260.22
536.38	27461.51
536.55	27290.65
536.72	27241.50
536.89	26820.20
537.06	27276.60
537.23	27164.26
537.40	27009.78
537.57	27494.27
537.74	27335.12
537.91	27807.90
538.08	27510.66
538.25	27412.35
538.42	27405.33
538.59	27384.27
538.75	27227.45
538.92	27421.72
539.09	27644.07
539.26	27885.14
539.43	27718.96
539.60	27426.40
539.77	27861.74
539.94	27538.74
540.11	27885.14
540.28	27978.76
540.44	27843.01
540.61	27669.81
540.78	27503.64
540.95	28070.04
541.12	27742.37
541.29	27924.93
541.46	27714.28
541.62	28112.17
541.79	27999.83
541.96	27669.81
542.13	27798.54
542.30	27894.50
542.47	28414.10
542.63	28147.28
542.80	28116.86
542.97	28474.96
543.14	28699.65
543.31	28240.90
543.48	28137.92
543.64	28580.28
543.81	28917.32
543.98	28835.40
544.15	28622.41
544.32	29039.03
544.48	28678.58
544.65	28762.84
544.82	28690.29
544.99	28114.52
545.16	28709.01
545.32	28896.25
545.49	28854.12
545.66	29284.78
545.83	28720.71
546.00	29184.14
546.16	28896.25
546.33	28596.67
546.50	28498.36
546.67	28723.05
546.83	28678.58
547.00	29338.62
547.17	29228.61
547.34	28828.38
547.50	29294.14
547.67	29226.27
547.84	29193.50
548.00	28856.46
548.17	29123.29
548.34	29144.35
548.51	29315.21
548.67	29741.19
548.84	29301.17
549.01	29427.56
549.18	29713.10
549.34	29518.84
549.51	29483.73
549.68	29399.47
549.84	29411.17
550.01	29308.19
550.18	29675.65
550.34	29450.96
550.51	29844.17
550.68	29427.56
550.84	29516.50
551.01	29706.08
551.18	29621.82
551.34	29324.57
551.51	29610.12
551.68	29713.10
551.84	29816.08
552.01	29584.37
552.18	29816.08
552.34	29666.29
552.51	29675.65
552.68	29654.59
552.84	29764.59
553.01	29834.81
553.18	29757.57
553.34	30103.97
553.51	29982.26
553.67	30064.18
553.84	30441.01
554.01	29914.39
554.17	29991.62
554.34	30061.84
554.51	29944.81
554.67	30047.80
554.84	30302.92
555.00	29914.39
555.17	30295.89
555.33	30237.38
555.50	29853.53
555.67	30178.87
555.83	29914.39
556.00	29881.62
556.16	30717.19
556.33	30164.82
556.50	30731.23
556.66	29965.88
556.83	30513.56
556.99	30253.76
557.16	30433.99
557.32	30499.52
557.49	30560.37
557.65	30139.08
557.82	30508.88
557.98	30567.40
558.15	30515.90
558.32	30560.37
558.48	30455.05
558.65	30555.69
558.81	30618.89
558.98	30817.83
559.14	30555.69
559.31	30366.11
559.47	30675.06
559.64	30628.25
559.80	30415.26
559.97	30764.00
560.13	30480.80
560.30	30522.93
560.46	30548.67
560.63	30625.91
560.79	30602.50
560.96	30862.30
561.12	30590.80
561.29	30515.90
561.45	30703.15
561.61	30719.53
561.78	30522.93
561.94	30499.52
562.11	30616.55
562.27	30742.94
562.44	30658.68
562.60	30328.66
562.77	30735.92
562.93	30368.45
563.10	30553.35
563.26	30796.77
563.42	31236.79
563.59	31234.45
563.75	30642.29
563.92	30829.54
564.08	31234.45
564.24	30639.95
564.41	30934.86
564.57	30834.22
564.74	30700.81
564.90	31440.42
565.07	30946.56
565.23	31234.45
565.39	30691.44
565.56	30639.95
565.72	30607.19
565.88	30941.88
566.05	31096.36
566.21	30986.35
566.38	31159.55
566.54	30981.67
566.70	31267.22
566.87	31321.05
567.03	31264.88
567.19	31192.32
567.36	31356.16
567.52	31023.80
567.68	31119.76
567.85	30684.42
568.01	31058.91
568.17	30728.89
568.34	31409.99
568.50	31087.00
568.66	31213.38
568.83	31061.25
568.99	30735.92
569.15	30897.41
569.32	31199.34
569.48	30773.36
569.64	31077.63
569.81	31079.97
569.97	30747.62
570.13	31241.47
570.30	31126.78
570.46	31119.76
570.62	31049.55
570.78	30852.94
570.95	30768.68
571.11	30806.13
571.27	31157.21
571.43	30679.74
571.60	30632.93
571.76	30756.98
571.92	31187.64
572.09	31070.61
572.25	31379.56
572.41	31173.60
572.57	30696.13
572.74	31084.65
572.90	31290.62
573.06	31119.76
573.22	31278.92
573.38	31197.00
573.55	31227.43
573.71	31215.72
573.87	31070.61
574.03	30962.95
574.20	30984.01
574.36	30834.22
574.52	31009.76
574.68	30904.43
574.84	31030.82
575.01	31374.88
575.17	31402.97
575.33	31005.08
575.49	31414.67
575.65	31402.97
575.82	31166.57
575.98	31161.89
576.14	31531.70
576.30	31234.45
576.46	30883.37
576.62	31241.47
576.79	31318.71
576.95	31292.96
577.11	31491.91
577.27	31405.31
577.43	31061.25
577.59	31037.84
577.75	31091.68
577.92	31164.23
578.08	31119.76
578.24	30883.37
578.40	31274.24
578.56	31180.62
578.72	31545.74
578.88	31400.63
579.04	31365.52
579.21	31283.60
579.37	31569.15
579.53	31372.54
579.69	30976.99
579.85	30646.97
580.01	31168.91
580.17	31108.06
580.33	31606.59
580.49	31494.25
580.65	31119.76
580.82	31253.17
580.98	31091.68
581.14	31197.00
581.30	31370.20
581.46	31346.79
581.62	31307.01
581.78	31283.60
581.94	31117.42
582.10	31082.31
582.26	31529.36
582.42	31454.46
582.58	31402.97
582.74	31075.29
582.90	31058.91
583.06	31786.82
583.22	31063.59
583.38	31197.00
583.54	31166.57
583.70	31082.31
583.86	31445.10
584.02	31285.94
584.18	31477.86
584.34	31346.79
584.50	31477.86
584.66	31222.75
584.82	31299.98
584.98	31250.83
585.14	31143.17
585.30	31271.90
585.46	31257.85
585.62	31019.12
585.78	31414.67
585.94	31101.04
586.10	31145.51
586.26	31213.38
586.42	31702.56
586.58	31508.29
586.74	31094.02
586.90	31019.12
587.06	30845.92
587.22	31433.39
587.38	31400.63
587.54	31536.38
587.70	31887.46
587.86	31344.45
588.02	31321.05
588.18	31868.73
588.34	31054.23
588.49	31400.63
588.65	31342.11
588.81	31545.74
588.97	31292.96
589.13	31232.11
589.29	31515.31
589.45	31164.23
589.61	31887.46
589.77	31440.42
589.93	31721.28
590.08	31419.35
590.24	31852.35
590.40	31662.77
590.56	31887.46
590.72	31433.39
590.88	31431.05
591.04	31185.30
591.20	31510.63
591.35	31899.16
591.51	32077.04
591.67	31637.02
591.83	31653.40
591.99	31585.53
592.15	31262.54
592.31	31660.43
592.46	31028.48
592.62	31435.74
592.78	31632.34
592.94	31676.81
593.10	31342.11
593.26	31356.16
593.41	31466.16
593.57	31838.31
593.73	31627.66
593.89	31391.26
594.05	31409.99
594.20	31356.16
594.36	31475.52
594.52	31070.61
594.68	31346.79
594.84	31550.42
594.99	31704.90
595.15	31229.77
595.31	31660.43
595.47	31749.37
595.62	31449.78
595.78	31473.18
595.94	31524.68
596.10	31344.45
596.25	31264.88
596.41	31765.75
596.57	31307.01
596.73	31791.50
596.88	31538.72
597.04	31601.91
597.20	31894.48
597.36	31618.30
597.51	31910.86
597.67	31653.40
597.83	31199.34
597.99	31548.08
598.14	31604.25
598.30	31449.78
598.46	31761.07
598.61	31665.11
598.77	31321.05
598.93	31314.03
599.09	31447.44
599.24	31779.79
599.40	31543.40
599.56	31782.13
599.71	31714.26
599.87	31400.63
600.03	31454.46
600.18	31494.25
600.34	31349.14
600.50	31498.93
600.65	31971.72
600.81	31648.72
600.97	31864.05
601.12	31817.24
601.28	31536.38
601.44	31775.11
601.59	31428.71
601.75	31571.49
601.91	31571.49
602.06	31192.32
602.22	31154.87
602.37	31388.92
602.53	31606.59
602.69	31793.84
602.84	31173.60
603.00	31700.22
603.16	31608.93
603.31	31473.18
603.47	31253.17
603.62	31243.81
603.78	31433.39
603.94	31126.78
604.09	31143.17
604.25	31267.22
604.40	31173.60
604.56	31199.34
604.71	31941.29
604.87	31372.54
605.03	31386.58
605.18	31304.67
605.34	31445.10
605.49	31063.59
605.65	31309.35
605.80	31056.57
605.96	31491.91
606.12	31311.69
606.27	31426.37
606.43	31185.30
606.58	31417.01
606.74	31197.00
606.89	31517.65
607.05	31314.03
607.20	31323.39
607.36	30991.03
607.51	31143.17
607.67	30946.56
607.82	30780.39
607.98	31138.49
608.13	31377.22
608.29	31101.04
608.44	31227.43
608.60	31168.91
608.75	31321.05
608.91	31033.16
609.06	30979.33
609.22	30972.31
609.37	30799.11
609.53	30974.65
609.68	30855.28
609.84	30679.74
609.99	31002.74
610.15	31037.84
610.30	30859.96
610.46	31159.55
610.61	31112.74
610.76	30754.64
610.92	31023.80
611.07	31395.95
611.23	30951.24
611.38	30501.86
611.54	30665.70
611.69	30410.58
611.84	30661.02
612.00	31049.55
612.15	30787.41
612.31	31115.08
612.46	30462.07
612.62	31103.38
612.77	30988.69
612.92	31257.85
613.08	30525.27
613.23	30932.52
613.39	31042.53
613.54	30321.64
613.69	30536.97
613.85	30555.69
614.00	30178.87
614.15	30654.00
614.31	30792.09
614.46	31360.84
614.62	30960.61
614.77	30651.66
614.92	30782.73
615.08	30721.87
615.23	30419.94
615.38	30845.92
615.54	30029.07
615.69	30246.74
615.84	30331.00
616.00	30635.27
616.15	30558.03
616.30	30536.97
616.46	30213.98
616.61	30361.43
616.76	30703.15
616.92	30267.81
617.07	30096.95
617.22	30466.75
617.37	29991.62
617.53	30192.91
617.68	30136.74
617.83	30082.91
617.99	30251.42
618.14	30169.51
618.29	30237.38
618.45	30270.15
618.60	29818.42
618.75	30188.23
618.90	30052.48
619.06	29965.88
619.21	29788.00
619.36	30085.25
619.51	29795.02
619.67	29638.20
619.82	29780.98
619.97	30298.23
620.12	30087.59
620.28	29944.81
620.43	29799.70
620.58	30190.57
620.73	30216.32
620.89	29649.91
621.04	29949.50
621.19	29647.57
621.34	29809.06
621.49	29649.91
621.65	29146.69
621.80	29528.20
621.95	29785.66
622.10	29776.30
622.25	29275.42
622.41	29476.71
622.56	29376.06
622.71	29750.55
622.86	29734.17
623.01	29752.89
623.16	29720.12
623.32	29575.01
623.47	29558.63
623.62	29722.46
623.77	29275.42
623.92	29570.33
624.07	29591.39
624.23	29401.81
624.38	29818.42
624.53	29237.97
624.68	29404.15
624.83	29305.85
624.98	29556.28
625.13	29596.07
625.29	29425.22
625.44	29319.89
625.59	29109.24
625.74	29076.48
625.89	29228.61
626.04	28985.19
626.19	29383.09
626.34	28959.45
626.49	29120.95
626.65	28989.88
626.80	29289.46
626.95	28538.15
627.10	28893.91
627.25	29172.44
627.40	29083.50
627.55	29181.80
627.70	28591.98
627.85	29179.46
628.00	28669.22
628.15	28819.02
628.30	28662.20
628.45	28716.03
628.60	29233.29
628.76	28879.87
628.91	29010.94
629.06	29308.19
629.21	28811.99
629.36	28781.57
629.51	28601.35
629.66	28914.98
629.81	28622.41
629.96	28580.28
630.11	28877.53
630.26	28266.65
630.41	28615.39
630.56	28627.09
630.71	28886.89
630.86	28486.66
631.01	28706.67
631.16	28596.67
631.31	28620.07
631.46	28308.78
631.61	28704.33
631.76	28388.36
631.91	28517.09
632.06	28278.35
632.21	28259.63
632.36	28421.13
632.51	28311.12
632.66	28332.18
632.81	28215.16
632.96	28077.07
633.10	28177.71
633.25	28484.32
633.40	28088.77
633.55	28325.16
633.70	28037.28
633.85	27922.59
634.00	28294.74
634.15	27887.48
634.30	28079.41
634.45	27835.99
634.60	28091.11
634.75	27906.21
634.90	28123.88
635.05	28477.30
635.19	28128.56
635.34	27946.00
635.49	28023.23
635.64	27974.08
635.79	27871.10
635.94	28006.85
636.09	28018.55
636.24	27402.99
636.39	27702.58
636.53	27936.63
636.68	28053.66
636.83	27744.71
636.98	27957.70
637.13	27838.33
637.28	27721.30
637.43	27761.09
637.57	27990.47
637.72	27662.79
637.87	27672.15
638.02	27623.00
638.17	27693.22
638.32	27630.02
638.46	27597.26
638.61	27386.61
638.76	27402.99
638.91	27541.08
639.06	27501.29
639.20	27489.59
639.35	27580.87
639.50	27393.63
639.65	27393.63
639.80	27559.81
639.94	27260.22
640.09	27264.90
640.24	27328.10
640.39	27428.74
640.54	27187.66
640.68	27402.99
640.83	27505.98
640.98	27185.32
641.13	27187.66
641.27	27288.31
641.42	27302.35
641.57	27335.12
641.72	27578.53
641.86	26958.29
642.01	27363.20
642.16	26911.48
642.31	27051.91
642.45	27297.67
642.60	27115.11
642.75	27459.16
642.90	26962.97
643.04	26916.16
643.19	27243.84
643.34	27143.19
643.48	26913.82
643.63	27145.53
643.78	27091.70
643.93	27215.75
644.07	26717.22
644.22	27028.51
644.37	26632.96
644.51	27080.00
644.66	26663.38
644.81	26930.20
644.95	26824.88
645.10	26705.51
645.25	26621.25
645.39	26398.90
645.54	26754.66
645.69	26834.24
645.83	27175.96
645.98	27028.51
646.13	27072.98
646.27	27105.74
646.42	26988.72
646.57	26771.05
646.71	26630.62
646.86	26738.28
647.00	26670.40
647.15	26717.22
647.30	26679.77
647.44	26684.45
647.59	26656.36
647.74	26370.82
647.88	26904.46
648.03	26611.89
648.17	26981.70
648.32	26775.73
648.47	26848.29
648.61	26647.00
648.76	26426.99
648.90	26331.03
649.05	26291.24
649.20	26354.43
649.34	26216.34
649.49	26342.73
649.63	26293.58
649.78	26368.48
649.92	26082.93
650.07	26459.76
650.21	26485.50
650.36	26401.24
650.51	26092.29
650.65	26478.48
650.80	26419.97
650.94	26501.89
651.09	26136.76
651.23	26230.38
651.38	25881.64
651.52	26312.30
651.67	26026.76
651.81	26141.44
651.96	25947.18
652.10	26188.25
652.25	26235.06
652.39	26295.92
652.54	26143.78
652.68	26279.54
652.83	26171.87
652.97	26286.56
653.12	26122.72
653.26	25888.67
653.41	26316.98
653.55	25998.67
653.70	25872.28
653.84	25867.60
653.99	25689.72
654.13	26092.29
654.27	25525.88
654.42	25628.87
654.56	25713.13
654.71	25895.69
654.85	25956.54
655.00	25940.16
655.14	25699.08
655.29	25947.18
655.43	25689.72
655.57	25818.45
655.72	25888.67
655.86	25628.87
656.01	25357.36
656.15	25462.69
656.30	25460.35
656.44	25212.25
656.58	25408.86
656.73	25570.35
656.87	25294.17
657.01	25366.73
657.16	25668.66
657.30	25380.77
657.45	25296.51
657.59	25582.06
657.73	25600.78
657.88	25422.90
658.02	25127.99
658.16	25495.46
658.31	25397.15
658.45	25085.86
658.60	25177.14
658.74	25350.34
658.88	25331.62
659.03	24982.88
659.17	25081.18
659.31	25156.08
659.46	25067.14
659.60	25097.56
659.74	25238.00
659.89	24966.49
660.03	25123.31
660.17	24973.52
660.32	24748.82
660.46	25015.65
660.60	24807.34
660.74	24994.58
660.89	24720.74
661.03	24709.04
661.17	24725.42
661.32	24390.72
661.46	24711.38
661.60	24636.48
661.74	24833.08
661.89	24819.04
662.03	24725.42
662.17	24519.45
662.31	24318.17
662.46	24702.01
662.60	24336.89
662.74	24772.23
662.88	24247.95
663.03	24231.57
663.17	24292.42
663.31	23864.10
663.45	23967.09
663.60	24332.21
663.74	24201.14
663.88	24060.71
664.02	24086.45
664.17	24130.92
664.31	23882.83
664.45	23962.40
664.59	24205.82
664.73	23784.52
664.88	23821.97
665.02	23515.36
665.16	23803.25
665.30	23828.99
665.44	23978.79
665.59	24133.26
665.73	23768.14
665.87	23424.08
666.01	24011.56
666.15	23728.35
666.29	23470.89
666.44	23552.81
666.58	23726.01
666.72	23293.01
666.86	23171.30
667.00	23318.76
667.14	23386.63
667.28	22965.34
667.43	22867.03
667.57	23288.33
667.71	23133.86
667.85	23152.58
667.99	22986.40
668.13	22885.76
668.27	23140.88
668.41	23070.66
668.56	23232.16
668.70	22958.31
668.84	23405.36
668.98	22878.74
669.12	22738.30
669.26	22878.74
669.40	23005.13
669.54	22661.07
669.68	22885.76
669.82	22609.58
669.96	22675.11
670.10	22300.62
670.25	22824.90
670.39	22621.28
670.53	22824.90
670.67	22321.69
670.81	22827.24
670.95	22544.04
671.09	22274.88
671.23	22368.50
671.37	22490.21
671.51	22452.76
671.65	22368.50
671.79	22317.01
671.93	22047.85
672.07	22272.54
672.21	22012.74
672.35	22064.23
672.49	22099.34
672.63	21713.15
672.77	22038.48
672.91	21853.58
673.05	22082.95
673.19	21958.91
673.33	21886.35
673.47	21612.51
673.61	22029.12
673.75	21797.41
673.89	21298.88
674.03	21755.28
674.17	21481.44
674.31	21198.23
674.45	21341.00
674.59	21425.26
674.73	21263.77
674.87	21455.69
675.01	20957.16
675.15	21106.95
675.29	21111.63
675.43	21177.17
675.56	21137.38
675.70	21025.03
675.84	21570.38
675.98	20496.07
676.12	21277.81
676.26	21088.23
676.40	20741.83
676.54	20936.09
676.68	20744.17
676.82	20252.66
676.96	20250.32
677.10	20404.79
677.23	20327.55
677.37	20252.66
677.51	20297.13
677.65	20247.97
677.79	19749.44
677.93	20191.80
678.07	19894.55
678.21	19960.09
678.34	20060.73
678.48	19798.59
678.62	19807.95
678.76	19875.83
678.90	19400.70
679.04	19487.30
679.18	19417.08
679.31	19274.31
679.45	19335.17
679.59	19290.70
679.73	19110.47
679.87	19204.10
680.00	19066.00
680.14	19393.68
680.28	18995.79
680.42	18717.26
680.56	19051.96
680.70	18904.51
680.83	18998.13
680.97	19075.37
681.11	18988.77
681.25	18567.47
681.39	18902.17
681.52	18876.42
681.66	18775.78
681.80	18417.68
681.94	18361.50
682.07	18288.95
682.21	18317.03
682.35	18082.98
682.49	17844.24
682.62	18141.49
682.76	17980.00
682.90	18050.21
683.04	17935.53
683.17	17949.57
683.31	18148.51
683.45	17853.61
683.59	17867.65
683.72	17722.54
683.86	17762.33
684.00	17928.50
684.13	17603.17
684.27	17319.96
684.41	17556.36
684.55	17170.17
684.68	17399.54
684.82	17312.94
684.96	17050.80
685.09	17214.64
685.23	17053.14
685.37	17034.42
685.50	17348.05
685.64	16903.35
685.78	17167.83
685.91	17034.42
686.05	17397.20
686.19	16512.48
686.32	17006.33
686.46	16280.77
686.60	16320.56
686.73	16411.84
686.87	16348.64
687.01	16173.10
687.14	16271.40
687.28	16594.40
687.42	16215.23
687.55	16072.46
687.69	16105.23
687.82	16112.25
687.96	15969.48
688.10	16149.70
688.23	15974.16
688.37	15976.50
688.50	15882.88
688.64	15829.04
688.78	15917.98
688.91	15470.94
689.05	15424.13
689.18	15506.05
689.32	15171.35
689.46	15255.61
689.59	15007.52
689.73	15246.25
689.86	15279.02
690.00	15124.54
690.13	15274.34
690.27	15220.50
690.41	15005.17
690.54	15129.22
690.68	15110.50
690.81	14944.32
690.95	14944.32
691.08	14736.01
691.22	14839.00
691.35	14850.70
691.49	14721.97
691.62	14593.24
691.76	14782.82
691.89	14176.62
692.03	14230.46
692.16	14202.37
692.30	14228.12
692.43	14214.07
692.57	14221.10
692.70	14162.58
692.84	14127.47
692.97	14127.47
693.11	14162.58
693.24	14188.33
693.38	13816.18
693.51	13776.39
693.65	13994.06
693.78	13696.82
693.92	13692.13
694.05	13547.02
694.19	13673.41
694.32	13310.63
694.45	13327.01
694.59	13259.13
694.72	13191.26
694.86	13046.15
694.99	12664.64
695.13	13085.94
695.26	13020.40
695.39	13221.69
695.53	13174.88
695.66	13263.82
695.80	13008.70
695.93	12882.31
696.07	12908.05
696.20	12858.90
696.33	12889.33
696.47	12662.30
696.60	12578.04
696.73	12636.55
696.87	12606.13
697.00	12400.16
697.14	12217.60
697.27	12201.21
697.40	12285.47
697.54	12189.51
697.67	12028.01
697.80	12020.99
697.94	12067.80
698.07	12147.38
698.21	12011.63
698.34	12011.63
698.47	11999.93
698.61	11779.92
698.74	12109.93
698.87	11817.36
699.01	11592.67
699.14	11545.86
699.27	11768.21
699.40	11583.31
699.54	11686.29
699.67	11286.06
699.80	11290.74
699.94	10892.85
700.07	11260.32
700.20	11084.78
700.34	11246.27
700.47	11164.36
700.60	11183.08
700.73	11049.67
700.87	10890.51
701.00	10829.66
701.13	10738.38
701.26	10916.26
701.40	10792.21
701.53	10909.24
701.66	10827.32
701.79	10806.25
701.93	10721.99
702.06	10766.46
702.19	10530.07
702.32	10450.49
702.46	10422.41
702.59	10452.83
702.72	10516.03
702.85	10303.04
702.99	10396.66
703.12	10043.24
703.25	10120.48
703.38	10356.87
703.51	10218.78
703.65	10267.93
703.78	9921.53
703.91	9930.89
704.04	9998.77
704.17	9989.41
704.31	9914.51
704.44	9797.48
704.57	9600.88
704.70	9881.74
704.83	9563.43
704.96	9415.98
705.10	9427.68
705.23	9334.06
>>>>>End Processed Spectral Data<<<<<
