SpectraSuite Data File
++++++++++++++++++++++++++++++++++++
Date: Fri Oct 04 11:48:47 GMT-05:00 2013
User: price-jones
Dark Spectrum Present: No
Reference Spectrum Present: No
Number of Sampled Component Spectra: 1
Spectrometers: USB2+H05261
Integration Time (usec): 100000 (USB2+H05261)
Spectra Averaged: 1 (USB2+H05261)
Boxcar Smoothing: 0 (USB2+H05261)
Correct for Electrical Dark: No (USB2+H05261)
Strobe/Lamp Enabled: No (USB2+H05261)
Correct for Detector Non-linearity: No (USB2+H05261)
Correct for Stray Light: No (USB2+H05261)
Number of Pixels in Processed Spectrum: 2048
>>>>>Begin Processed Spectral Data<<<<<
365.73	16.38
365.92	16.38
366.12	16.38
366.32	0.00
366.52	0.00
366.72	0.00
366.91	0.00
367.11	0.00
367.31	0.00
367.51	0.00
367.70	0.00
367.90	0.00
368.10	0.00
368.30	0.00
368.49	0.00
368.69	7.02
368.89	0.00
369.09	0.00
369.28	0.00
369.48	0.00
369.68	0.00
369.87	0.00
370.07	0.00
370.27	0.00
370.47	72.56
370.66	346.40
370.86	369.80
371.06	482.15
371.25	421.30
371.45	404.91
371.65	482.15
371.84	369.80
372.04	456.40
372.24	440.02
372.44	519.60
372.63	454.06
372.83	512.58
373.03	503.22
373.22	531.30
373.42	517.26
373.62	557.05
373.81	519.60
374.01	535.98
374.21	575.77
374.40	594.50
374.60	550.03
374.79	573.43
374.99	564.07
375.19	641.31
375.38	608.54
375.58	571.09
375.78	648.33
375.97	608.54
376.17	688.12
376.37	615.56
376.56	617.90
376.76	547.69
376.95	587.47
377.15	575.77
377.35	617.90
377.54	636.63
377.74	608.54
377.93	627.26
378.13	676.41
378.33	681.10
378.52	568.75
378.72	765.36
378.91	763.01
379.11	624.92
379.31	744.29
379.50	699.82
379.70	688.12
379.89	730.25
380.09	655.35
380.28	711.52
380.48	788.76
380.68	720.88
380.87	791.10
381.07	713.86
381.26	819.19
381.46	730.25
381.65	805.14
381.85	772.38
382.04	751.31
382.24	765.36
382.43	723.23
382.63	716.20
382.83	772.38
383.02	821.53
383.22	866.00
383.41	727.91
383.61	856.64
383.80	847.27
384.00	814.51
384.19	814.51
384.39	835.57
384.58	821.53
384.78	858.98
384.97	891.74
385.17	826.21
385.36	866.00
385.56	877.70
385.75	950.26
385.95	912.81
386.14	922.17
386.34	849.61
386.53	821.53
386.72	954.94
386.92	999.41
387.11	938.55
387.31	992.39
387.50	966.64
387.70	903.45
387.89	1055.58
388.09	931.53
388.28	940.90
388.48	1006.43
388.67	1004.09
388.86	1060.26
389.06	1015.79
389.25	1053.24
389.45	1043.88
389.64	1123.46
389.84	1036.86
390.03	1090.69
390.22	1050.90
390.42	1095.37
390.61	1006.43
390.81	1053.24
391.00	1039.20
391.19	1196.01
391.39	1191.33
391.58	1247.51
391.78	1179.63
391.97	1193.67
392.16	1142.18
392.36	1186.65
392.55	1263.89
392.75	1233.46
392.94	1174.95
393.13	1240.48
393.33	1219.42
393.52	1273.25
393.71	1282.61
393.91	1327.08
394.10	1291.98
394.29	1352.83
394.49	1399.64
394.68	1392.62
394.88	1385.60
395.07	1380.92
395.26	1371.55
395.46	1327.08
395.65	1380.92
395.84	1451.13
396.04	1404.32
396.23	1423.05
396.42	1371.55
396.62	1432.41
396.81	1390.28
397.00	1509.65
397.19	1572.84
397.39	1511.99
397.58	1533.05
397.77	1533.05
397.97	1493.26
398.16	1509.65
398.35	1621.99
398.55	1547.09
398.74	1675.82
398.93	1621.99
399.12	1598.59
399.32	1589.22
399.51	1547.09
399.70	1612.63
399.90	1603.27
400.09	1657.10
400.28	1734.34
400.47	1767.10
400.67	1689.87
400.86	1788.17
401.05	1844.34
401.24	1797.53
401.44	1849.02
401.63	1827.96
401.82	1872.43
402.01	1844.34
402.21	1994.14
402.40	1952.01
402.59	1886.47
402.78	1926.26
402.97	1863.07
403.17	1909.88
403.36	1944.99
403.55	1867.75
403.74	1949.67
403.93	1846.68
404.13	2001.16
404.32	2129.89
404.51	2017.54
404.70	2097.12
404.89	2148.61
405.09	2195.42
405.28	2244.57
405.47	2193.08
405.66	2167.34
405.85	2275.00
406.05	2373.30
406.24	2172.02
406.43	2303.09
406.62	2300.75
406.81	2221.17
407.00	2312.45
407.20	2260.96
407.39	2277.34
407.58	2394.37
407.77	2466.92
407.96	2490.33
408.15	2511.39
408.34	2452.88
408.54	2511.39
408.73	2532.46
408.92	2424.80
409.11	2525.44
409.30	2586.29
409.49	2504.37
409.68	2607.36
409.87	2710.34
410.07	2693.96
410.26	2705.66
410.45	2726.72
410.64	2747.79
410.83	2942.05
411.02	2778.22
411.21	2860.13
411.40	2787.58
411.59	2787.58
411.78	2920.99
411.98	2855.45
412.17	3061.42
412.36	3021.63
412.55	3171.43
412.74	3049.72
412.93	3054.40
413.12	3084.83
413.31	3243.98
413.50	3227.60
413.69	3211.22
413.88	3215.90
414.07	3276.75
414.26	3281.43
414.45	3410.16
414.64	3419.52
414.83	3438.25
415.02	3536.55
415.22	3492.08
415.41	3534.21
415.60	3403.14
415.79	3508.46
415.98	3662.94
416.17	3602.08
416.36	3609.11
416.55	3606.77
416.74	3562.30
416.93	3756.56
417.12	3847.84
417.31	4035.08
417.50	3843.16
417.69	3913.38
417.88	4074.87
418.07	3859.54
418.26	3913.38
418.45	4105.30
418.64	4114.66
418.83	4065.51
419.02	3964.87
419.21	4124.02
419.39	4187.22
419.58	4189.56
419.77	4145.09
419.96	4177.86
420.15	4355.74
420.34	4205.94
420.53	4191.90
420.72	4475.10
420.91	4444.68
421.10	4400.21
421.29	4512.55
421.48	4334.67
421.67	4461.06
421.86	4386.16
422.05	4404.89
422.24	4526.60
422.43	4470.42
422.61	4545.32
422.80	4552.34
422.99	4571.07
423.18	4655.33
423.37	4627.24
423.56	4634.26
423.75	4648.30
423.94	4425.95
424.13	4224.67
424.32	4496.17
424.50	4624.90
424.69	4692.77
424.88	4727.88
425.07	4699.80
425.26	4472.76
425.45	4404.89
425.64	4617.88
425.83	4493.83
426.01	4732.56
426.20	4620.22
426.39	4685.75
426.58	4723.20
426.77	4788.74
426.96	4784.06
427.15	4678.73
427.33	4870.65
427.52	4868.31
427.71	4828.53
427.90	4851.93
428.09	4882.36
428.28	5085.98
428.46	4868.31
428.65	4973.64
428.84	5221.74
429.03	5090.67
429.22	5067.26
429.40	5097.69
429.59	5114.07
429.78	4912.78
429.97	4901.08
430.16	4971.30
430.34	5350.46
430.53	5212.37
430.72	5301.31
430.91	5254.50
431.10	5280.25
431.28	5446.43
431.47	5380.89
431.66	5383.23
431.85	5301.31
432.03	5486.22
432.22	5514.30
432.41	5453.45
432.60	5713.25
432.79	5467.49
432.97	5502.60
433.16	5734.31
433.35	5579.84
433.54	5678.14
433.72	5767.08
433.91	5568.13
434.10	5619.63
434.28	5806.87
434.47	5778.78
434.66	5827.93
434.85	5933.26
435.03	5949.64
435.22	5762.40
435.41	6197.74
435.59	6026.88
435.78	6090.07
435.97	5834.96
436.16	6033.90
436.34	6174.33
436.53	6061.99
436.72	6293.70
436.90	5994.11
437.09	6216.46
437.28	6101.78
437.46	6186.04
437.65	6122.84
437.84	6253.91
438.02	6256.25
438.21	6155.61
438.40	6331.15
438.58	6417.75
438.77	6492.65
438.96	6490.31
439.14	6647.12
439.33	6576.91
439.52	6815.64
439.70	6857.77
439.89	6977.14
440.08	6850.75
440.26	6834.36
440.45	6827.34
440.63	7033.31
440.82	7101.19
441.01	6883.52
441.19	7208.85
441.38	7335.24
441.57	7227.57
441.75	7475.67
441.94	7403.11
442.12	7405.46
442.31	7559.93
442.50	7534.18
442.68	7522.48
442.87	7492.05
443.05	7590.36
443.24	7723.77
443.43	7735.47
443.61	7810.37
443.80	7852.50
443.98	7419.50
444.17	7435.88
444.35	7726.11
444.54	7882.92
444.73	7967.18
444.91	7896.97
445.10	7707.38
445.28	7747.17
445.47	7822.07
445.65	7791.64
445.84	7845.48
446.02	7964.84
446.21	7768.24
446.39	7962.50
446.58	7793.98
446.77	7845.48
446.95	7765.90
447.14	7950.80
447.32	8191.88
447.51	7894.63
447.69	8016.33
447.88	8105.28
448.06	8032.72
448.25	8128.68
448.43	8016.33
448.62	8119.32
448.80	7997.61
448.99	8018.68
449.17	8098.25
449.36	8025.70
449.54	8292.52
449.73	8411.89
449.91	8561.68
450.10	8369.76
450.28	8568.70
450.46	8505.51
450.65	8554.66
450.83	8720.84
451.02	8547.64
451.20	8620.19
451.39	8517.21
451.57	8498.49
451.76	8505.51
451.94	8643.60
452.13	8699.77
452.31	8837.86
452.49	8734.88
452.68	8769.99
452.86	8805.10
453.05	8854.25
453.23	8931.48
453.42	8681.05
453.60	8954.89
453.78	8716.16
453.97	8798.07
454.15	8903.40
454.34	8879.99
454.52	9050.85
454.70	9280.22
454.89	9135.11
455.07	8999.36
455.26	9256.82
455.44	9263.84
455.62	9125.75
455.81	9298.95
455.99	9193.62
456.17	9254.48
456.36	9441.72
456.54	9790.46
456.73	9596.20
456.91	9806.84
457.09	9764.72
457.28	9811.53
457.46	9600.88
457.64	9820.89
457.83	10083.03
458.01	9760.03
458.19	9994.09
458.38	9863.02
458.56	9991.75
458.74	10218.78
458.93	10303.04
459.11	9998.77
459.29	9996.43
459.48	10038.56
459.66	10127.50
459.84	10225.80
460.03	10539.43
460.21	10258.57
460.39	10600.29
460.57	10202.40
460.76	10305.38
460.94	10768.80
461.12	10406.02
461.31	10614.33
461.49	10590.92
461.67	10707.95
461.85	10834.34
462.04	10719.65
462.22	11180.74
462.40	10703.27
462.59	10899.87
462.77	10628.37
462.95	10965.41
463.13	10794.55
463.32	10888.17
463.50	11110.52
463.68	11101.16
463.86	11098.82
464.05	11070.73
464.23	10946.69
464.41	11435.86
464.59	10864.77
464.78	11260.32
464.96	11257.98
465.14	11187.76
465.32	11393.73
465.50	11419.47
465.69	11466.28
465.87	11513.10
466.05	11510.75
466.23	11269.68
466.41	11524.80
466.60	11770.55
466.78	11637.14
466.96	11585.65
467.14	11566.93
467.32	11688.64
467.51	11744.81
467.69	11590.33
467.87	11454.58
468.05	11866.52
468.23	11836.09
468.41	11646.51
468.60	11927.37
468.78	12161.42
468.96	11899.28
469.14	12060.78
469.32	12175.47
469.50	11791.62
469.69	12346.33
469.87	12512.50
470.05	12540.59
470.23	12688.04
470.41	12271.43
470.59	12561.66
470.77	12283.13
470.95	12519.53
471.14	12891.67
471.32	12458.67
471.50	12943.16
471.68	12894.01
471.86	12727.83
472.04	12788.69
472.22	13214.66
472.40	12851.88
472.58	13214.66
472.77	13071.89
472.95	13025.08
473.13	13631.28
473.31	13310.63
473.49	13336.37
473.67	13486.17
473.85	13446.38
474.03	13696.82
474.21	13666.39
474.39	14033.85
474.57	13940.23
474.75	14127.47
474.93	14239.82
475.12	14054.92
475.30	14178.97
475.48	14157.90
475.66	14178.97
475.84	14438.76
476.02	14609.62
476.20	14429.40
476.38	14537.07
476.56	14871.76
476.74	14988.79
476.92	15028.58
477.10	14967.73
477.28	15183.06
477.46	15262.63
477.64	15286.04
477.82	15456.90
478.00	15941.39
478.18	15932.03
478.36	16060.76
478.54	16233.96
478.72	16248.00
478.90	16493.76
479.08	16306.51
479.26	16704.40
479.44	16540.57
479.62	17114.00
479.80	17013.35
479.98	17076.55
480.16	17411.25
480.34	17455.72
480.52	17568.06
480.70	17916.80
480.88	17277.83
481.06	17472.10
481.24	17521.25
481.41	18384.91
481.59	18242.14
481.77	18656.41
481.95	18525.34
482.13	18682.16
482.31	18705.56
482.49	19143.24
482.67	18771.10
482.85	19290.70
483.03	19335.17
483.21	19737.74
483.39	19889.87
483.57	19910.94
483.74	19999.88
483.92	20313.51
484.10	19913.28
484.28	20477.35
484.46	20994.61
484.64	21151.42
484.82	20943.11
485.00	20910.35
485.18	21362.07
485.35	21668.68
485.53	21507.18
485.71	21907.41
485.89	22026.78
486.07	21860.60
486.25	22052.53
486.43	22466.80
486.61	22654.05
486.78	22731.28
486.96	22691.49
487.14	23536.43
487.32	23213.43
487.50	23323.44
487.68	23449.83
487.85	23962.40
488.03	24034.96
488.21	24643.50
488.39	24304.12
488.57	24903.30
488.75	24936.07
488.92	25352.68
489.10	25235.66
489.28	25415.88
489.46	25930.80
489.64	25783.34
489.81	26075.91
489.99	25876.96
490.17	26181.23
490.35	26579.12
490.53	26572.10
490.70	26415.29
490.88	26684.45
491.06	27304.69
491.24	27545.76
491.41	27517.68
491.59	28135.58
491.77	27571.51
491.95	28367.29
492.13	28442.19
492.30	28479.64
492.48	28526.45
492.66	28329.84
492.84	29006.26
493.01	29287.12
493.19	28861.15
493.37	29886.30
493.54	29509.47
493.72	29788.00
493.90	29919.07
494.08	29563.31
494.25	30419.94
494.43	30469.09
494.61	30958.27
494.79	30597.82
494.96	30792.09
495.14	30822.51
495.32	31278.92
495.49	31934.27
495.67	31887.46
495.85	31974.06
496.02	32334.50
496.20	32247.90
496.38	32259.60
496.55	32404.72
496.73	32959.42
496.91	33081.13
497.09	33530.51
497.26	33380.72
497.44	33319.87
497.62	33298.80
497.79	33919.04
497.97	33563.28
498.14	34300.55
498.32	34586.10
498.50	34314.59
498.67	34338.00
498.85	34761.64
499.03	34705.46
499.20	34672.70
499.38	34904.41
499.56	35047.18
499.73	35594.87
499.91	35220.38
500.08	35426.35
500.26	35545.72
500.44	36079.36
500.61	35545.72
500.79	36034.89
500.97	36205.75
501.14	36503.00
501.32	36636.41
501.49	36503.00
501.67	36521.72
501.84	36687.90
502.02	36802.58
502.20	37184.09
502.37	37457.93
502.55	37116.22
502.72	37570.28
502.90	37577.30
503.07	37034.30
503.25	37455.59
503.43	37462.61
503.60	37993.92
503.78	38227.97
503.95	38440.96
504.13	38471.39
504.30	38497.13
504.48	37951.79
504.65	38696.08
504.83	38897.36
505.01	39065.88
505.18	39349.09
505.36	39384.19
505.53	39274.19
505.71	39431.01
505.88	39730.59
506.06	39548.03
506.23	39957.63
506.41	39859.32
506.58	40172.96
506.76	39936.56
506.93	40385.94
507.11	40170.61
507.28	40247.85
507.46	40261.90
507.63	40896.18
507.81	41024.91
507.98	40964.06
508.16	40994.48
508.33	41474.29
508.50	40697.24
508.68	41397.06
508.85	41743.45
509.03	41591.32
509.20	41783.24
509.38	42139.00
509.55	42232.63
509.73	41926.02
509.90	42562.64
510.08	42185.82
510.25	42265.39
510.42	42497.11
510.60	42979.26
510.77	43089.26
510.95	43119.69
511.12	42714.78
511.30	42934.79
511.47	43421.62
511.64	43608.86
511.82	43674.40
511.99	43618.22
512.17	43938.88
512.34	43246.08
512.51	44418.69
512.69	44329.75
512.86	44229.10
513.04	44741.68
513.21	44341.45
513.38	44493.58
513.56	44580.18
513.73	44442.09
513.90	44905.52
514.08	45172.34
514.25	44865.73
514.43	45532.78
514.60	45390.01
514.77	44776.79
514.95	45708.32
515.12	45551.51
515.29	45397.03
515.47	45645.13
515.64	45902.59
515.81	46131.96
515.99	46305.16
516.16	46295.80
516.33	46040.68
516.51	46686.67
516.68	45979.82
516.85	46485.38
517.03	46710.07
517.20	46302.82
517.37	47117.32
517.54	46834.12
517.72	46511.13
517.89	46660.92
518.06	47096.26
518.24	46834.12
518.41	47166.48
518.58	47180.52
518.75	47182.86
518.93	47672.03
519.10	47435.64
519.27	47758.63
519.45	47360.74
519.62	47751.61
519.79	47927.15
519.96	48044.18
520.14	48409.30
520.31	48105.03
520.48	48203.33
520.65	48399.94
520.83	48664.42
521.00	48715.91
521.17	48512.28
521.34	48720.59
521.52	48783.79
521.69	48830.60
521.86	48893.79
522.03	49017.84
522.20	49055.29
522.38	49312.75
522.55	49181.68
522.72	49455.52
522.89	48971.03
523.07	49869.79
523.24	49727.02
523.41	49439.14
523.58	49347.86
523.75	49710.64
523.92	49785.54
524.10	49996.18
524.27	49893.20
524.44	50197.47
524.61	50642.17
524.78	50571.96
524.96	50295.77
525.13	50202.15
525.30	50590.68
525.47	50541.53
525.64	50623.45
525.81	50815.37
525.98	50691.32
526.16	50827.07
526.33	50820.05
526.50	50965.17
526.67	50471.31
526.84	50934.74
527.01	50670.26
527.18	51236.67
527.36	51133.68
527.53	51515.19
527.70	51349.01
527.87	51187.52
528.04	51437.95
528.21	51236.67
528.38	51538.60
528.55	51309.22
528.72	51798.40
528.89	51669.67
529.07	51807.76
529.24	51536.26
529.41	51650.94
529.58	51824.14
529.75	51838.18
529.92	51838.18
530.09	52107.35
530.26	51971.60
530.43	52439.70
530.60	51782.01
530.77	52013.73
530.94	52336.72
531.11	52243.10
531.28	52222.03
531.46	52123.73
531.63	52474.81
531.80	52830.57
531.97	52692.48
532.14	52650.35
532.31	52736.95
532.48	52706.52
532.65	52952.28
532.82	52495.88
532.99	52963.98
533.16	52601.20
533.33	53034.20
533.50	53183.99
533.67	53263.57
533.84	53102.07
534.01	52952.28
534.18	52945.26
534.35	53577.20
534.52	53212.08
534.69	53549.12
534.86	53366.55
535.03	53329.11
535.20	53413.37
535.37	53499.97
535.54	53462.52
535.71	53361.87
535.88	53422.73
536.05	53698.91
536.22	54047.65
536.38	53954.03
536.55	53904.88
536.72	53757.42
536.89	53621.67
537.06	53614.65
537.23	53954.03
537.40	53858.07
537.57	53900.20
537.74	53902.54
537.91	54244.26
538.08	54260.64
538.25	54253.62
538.42	54066.38
538.59	54047.65
538.75	53881.47
538.92	54197.44
539.09	54354.26
539.26	54387.03
539.43	54480.65
539.60	54560.23
539.77	54351.92
539.94	54684.28
540.11	54660.87
540.28	54735.77
540.44	54473.63
540.61	54349.58
540.78	54658.53
540.95	54803.64
541.12	54827.05
541.29	54700.66
541.46	54955.78
541.62	54466.61
541.79	54817.69
541.96	54485.33
542.13	54794.28
542.30	54965.14
542.47	54955.78
542.63	55133.66
542.80	55435.59
542.97	55454.31
543.14	55419.20
543.31	55533.89
543.48	55421.55
543.64	55604.11
543.81	55906.04
543.98	55625.17
544.15	55735.18
544.32	55569.00
544.48	55985.61
544.65	55620.49
544.82	55599.43
544.99	55498.78
545.16	55789.01
545.32	55735.18
545.49	55992.64
545.66	55997.32
545.83	55814.76
546.00	56222.01
546.16	56072.21
546.33	55793.69
546.50	55660.28
546.67	55880.29
546.83	55753.90
547.00	56016.04
547.17	56217.33
547.34	56102.64
547.50	56315.63
547.67	56170.52
547.84	56175.20
548.00	56577.77
548.17	56285.20
548.34	56296.91
548.51	56809.48
548.67	56411.59
548.84	56495.85
549.01	56575.43
549.18	56226.69
549.34	56378.82
549.51	56423.29
549.68	56509.89
549.84	56516.92
550.01	56666.71
550.18	56542.66
550.34	56739.27
550.51	56568.41
550.68	56788.42
550.84	56500.53
551.01	56860.97
551.18	56505.21
551.34	56711.18
551.51	56624.58
551.68	56975.66
551.84	57038.86
552.01	56889.06
552.18	57195.67
552.34	56980.34
552.51	56970.98
552.68	57055.24
552.84	56856.29
553.01	57045.88
553.18	56989.70
553.34	57183.97
553.51	57167.58
553.67	57226.10
553.84	57385.25
554.01	57396.96
554.17	57420.36
554.34	57244.82
554.51	57006.09
554.67	57357.17
554.84	57537.39
555.00	57485.90
555.17	57368.87
555.33	57317.38
555.50	57291.63
555.67	57076.30
555.83	57338.44
556.00	57291.63
556.16	57724.63
556.33	57364.19
556.50	57551.43
556.66	57668.46
556.83	57790.17
556.99	57652.08
557.16	57682.50
557.32	57733.99
557.49	57588.88
557.65	57537.39
557.82	57343.12
557.98	57509.30
558.15	57689.52
558.32	57724.63
558.48	57558.45
558.65	57724.63
558.81	57799.53
558.98	57825.28
559.14	57687.18
559.31	57827.62
559.47	57797.19
559.64	57811.23
559.80	57890.81
559.97	57904.85
560.13	57705.91
560.30	58068.69
560.46	58106.14
560.63	57813.57
560.79	58056.99
560.96	58302.74
561.12	57701.23
561.29	58064.01
561.45	58094.44
561.61	58089.76
561.78	58148.27
561.94	58049.97
562.11	57851.02
562.27	57881.45
562.44	58059.33
562.60	57991.45
562.77	58164.65
562.93	58122.52
563.10	58314.45
563.26	57989.11
563.42	58485.31
563.59	58197.42
563.75	58239.55
563.92	58199.76
564.08	58223.17
564.24	58253.59
564.41	58176.36
564.57	57979.75
564.74	58169.33
564.90	58375.30
565.07	58288.70
565.23	58440.84
565.39	58438.50
565.56	58251.25
565.72	58223.17
565.88	58302.74
566.05	58286.36
566.21	58363.60
566.38	58300.40
566.54	58567.23
566.70	58445.52
566.87	58574.25
567.03	58534.46
567.19	58693.61
567.36	58447.86
567.52	58272.32
567.68	58576.59
567.85	58415.09
568.01	58417.43
568.17	58485.31
568.34	58597.65
568.50	58454.88
568.66	58583.61
568.83	58478.28
568.99	58494.67
569.15	58546.16
569.32	58452.54
569.48	58190.40
569.64	58735.74
569.81	58599.99
569.97	58588.29
570.13	58553.18
570.30	58646.80
570.46	58801.28
570.62	58468.92
570.78	58644.46
570.95	58436.16
571.11	58719.36
571.27	58518.07
571.43	58511.05
571.60	58777.87
571.76	58749.79
571.92	58820.00
572.09	58784.90
572.25	58710.00
572.41	58518.07
572.57	58911.28
572.74	58859.79
572.90	58497.01
573.06	58548.50
573.22	58724.04
573.38	58974.48
573.55	58831.71
573.71	58925.33
573.87	59161.72
574.03	58864.47
574.20	58805.96
574.36	58724.04
574.52	58754.47
574.68	58862.13
574.84	58913.62
575.01	59025.97
575.17	58899.58
575.33	59051.72
575.49	58836.39
575.65	58911.28
575.82	58967.46
575.98	58834.05
576.14	58700.64
576.30	58742.77
576.46	58939.37
576.62	58511.05
576.79	58983.84
576.95	58787.24
577.11	58960.44
577.27	59145.34
577.43	59072.78
577.59	58782.55
577.75	59004.91
577.92	58686.59
578.08	58869.15
578.24	58948.73
578.40	58937.03
578.56	58824.68
578.72	58754.47
578.88	58876.18
579.04	59035.33
579.21	58911.28
579.37	58899.58
579.53	58803.62
579.69	58728.72
579.85	59011.93
580.01	59107.89
580.17	58845.75
580.33	58937.03
580.49	59063.42
580.65	59248.32
580.82	59079.80
580.98	59107.89
581.14	59075.12
581.30	59023.63
581.46	59084.48
581.62	58812.98
581.78	58897.24
581.94	58918.31
582.10	59002.56
582.26	59128.95
582.42	58836.39
582.58	59018.95
582.74	58880.86
582.90	59000.22
583.06	59234.28
583.22	58927.67
583.38	59103.21
583.54	59168.74
583.70	59004.91
583.86	59283.43
584.02	58967.46
584.18	59147.68
584.34	59234.28
584.50	59302.15
584.66	59028.31
584.82	59079.80
584.98	59353.65
585.14	58967.46
585.30	58864.47
585.46	59166.40
585.62	59042.35
585.78	59187.47
585.94	58937.03
586.10	59093.85
586.26	59346.62
586.42	59168.74
586.58	59274.07
586.74	59166.40
586.90	59014.27
587.06	58976.82
587.22	59096.19
587.38	58962.78
587.54	59238.96
587.70	59419.18
587.86	59449.61
588.02	59402.80
588.18	59206.19
588.34	59234.28
588.49	59178.10
588.65	58918.31
588.81	59255.34
588.97	59187.47
589.13	59257.68
589.29	59159.38
589.45	59367.69
589.61	59379.39
589.77	59430.88
589.93	59430.88
590.08	59400.46
590.24	59203.85
590.40	59320.88
590.56	59510.46
590.72	59201.51
590.88	59128.95
591.04	59477.69
591.20	59484.72
591.35	59662.60
591.51	59793.67
591.67	59664.94
591.83	59531.53
591.99	59550.25
592.15	59475.35
592.31	59463.65
592.46	59327.90
592.62	59360.67
592.78	59363.01
592.94	59351.30
593.10	59620.47
593.26	59587.70
593.41	59435.56
593.57	59625.15
593.73	59515.14
593.89	59498.76
594.05	59283.43
594.20	59419.18
594.36	59517.48
594.52	59257.68
594.68	59257.68
594.84	59428.54
594.99	59639.19
595.15	59318.54
595.31	59657.91
595.47	59545.57
595.62	59571.32
595.78	59753.88
595.94	59454.29
596.10	59381.73
596.25	59477.69
596.41	59437.90
596.57	59269.39
596.73	59409.82
596.88	59302.15
597.04	59854.52
597.20	59737.49
597.36	59676.64
597.51	59604.08
597.67	59533.87
597.83	59501.10
597.99	59611.10
598.14	59456.63
598.30	59533.87
598.46	59473.01
598.61	59833.46
598.77	59409.82
598.93	59667.28
599.09	59646.21
599.24	59796.01
599.40	59861.54
599.56	59545.57
599.71	59505.78
599.87	59552.59
600.03	59487.06
600.18	59688.34
600.34	59842.82
600.50	59849.84
600.65	59587.70
600.81	59842.82
600.97	59880.27
601.12	59847.50
601.28	59824.09
601.44	59536.21
601.59	59557.27
601.75	59716.43
601.91	59676.64
602.06	59461.31
602.22	59531.53
602.37	59686.00
602.53	59641.53
602.69	59793.67
602.84	59491.74
603.00	59678.98
603.16	59821.75
603.31	59695.36
603.47	59529.19
603.62	59475.35
603.78	59657.91
603.94	59587.70
604.09	59718.77
604.25	59348.96
604.40	59592.38
604.56	59557.27
604.71	59821.75
604.87	59742.17
605.03	59721.11
605.18	59618.13
605.34	59620.47
605.49	59423.86
605.65	59639.19
605.80	59456.63
605.96	59554.93
606.12	59632.17
606.27	59756.22
606.43	59510.46
606.58	59810.05
606.74	59526.84
606.89	59536.21
607.05	59487.06
607.20	59468.33
607.36	59700.04
607.51	59496.42
607.67	59416.84
607.82	59299.81
607.98	59571.32
608.13	59330.24
608.29	59311.52
608.44	59374.71
608.60	59545.57
608.75	59714.09
608.91	59426.20
609.06	59093.85
609.22	59283.43
609.37	59332.58
609.53	59468.33
609.68	59463.65
609.84	59395.77
609.99	59512.80
610.15	59435.56
610.30	59458.97
610.46	59458.97
610.61	59379.39
610.76	59601.74
610.92	59444.93
611.07	59210.87
611.23	59363.01
611.38	59311.52
611.54	59091.51
611.69	59374.71
611.84	59222.58
612.00	59409.82
612.15	59341.94
612.31	59662.60
612.46	59264.70
612.62	59714.09
612.77	59075.12
612.92	59341.94
613.08	59292.79
613.23	59161.72
613.39	59274.07
613.54	59248.32
613.69	59192.15
613.85	59201.51
614.00	59056.40
614.15	59007.25
614.31	59175.76
614.46	59365.35
614.62	59309.18
614.77	59159.38
614.92	59398.12
615.08	59194.49
615.23	59054.06
615.38	59089.16
615.54	58951.07
615.69	59075.12
615.84	58979.16
616.00	59316.20
616.15	59049.38
616.30	59194.49
616.46	59061.08
616.61	59028.31
616.76	59068.10
616.92	59016.61
617.07	59072.78
617.22	59089.16
617.37	58667.87
617.53	58922.99
617.68	59011.93
617.83	58787.24
617.99	58976.82
618.14	59011.93
618.29	58913.62
618.45	58899.58
618.60	59040.01
618.75	58773.19
618.90	58815.32
619.06	58906.60
619.21	58599.99
619.36	58939.37
619.51	58677.23
619.67	58677.23
619.82	58340.19
619.97	58911.28
620.12	58710.00
620.28	58344.87
620.43	58674.89
620.58	58986.18
620.73	58908.94
620.89	58784.90
621.04	58983.84
621.19	58688.93
621.34	58649.14
621.49	58747.45
621.65	58599.99
621.80	58576.59
621.95	58368.28
622.10	58473.60
622.25	58454.88
622.41	58614.04
622.56	58525.10
622.71	58630.42
622.86	58597.65
623.01	58492.33
623.16	58185.72
623.32	58312.11
623.47	58447.86
623.62	58410.41
623.77	58155.29
623.92	58440.84
624.07	58162.31
624.23	58548.50
624.38	58639.78
624.53	58480.63
624.68	58740.42
624.83	58450.20
624.98	58604.67
625.13	58351.90
625.29	58370.62
625.44	58162.31
625.59	58265.30
625.74	58232.53
625.89	58136.57
626.04	58244.23
626.19	58227.85
626.34	58159.97
626.49	58129.54
626.65	58211.46
626.80	58426.79
626.95	58096.78
627.10	57996.13
627.25	57907.19
627.40	58101.46
627.55	57834.64
627.70	58014.86
627.85	57956.35
628.00	57883.79
628.15	57633.35
628.30	57743.36
628.45	57818.25
628.60	58012.52
628.76	58143.59
628.91	58054.65
629.06	57951.66
629.21	58045.29
629.36	58024.22
629.51	57818.25
629.66	57844.00
629.81	57666.12
629.96	57797.19
630.11	57755.06
630.26	57820.59
630.41	57757.40
630.56	57600.58
630.71	57602.92
630.86	57970.39
631.01	57766.76
631.16	57691.86
631.31	57680.16
631.46	57352.49
631.61	57609.95
631.76	57542.07
631.91	57474.20
632.06	57418.02
632.21	57411.00
632.36	57663.78
632.51	57415.68
632.66	57626.33
632.81	57425.04
632.96	57521.01
633.10	57432.07
633.25	57598.24
633.40	57698.89
633.55	57663.78
633.70	57490.58
633.85	57263.55
634.00	57336.10
634.15	57542.07
634.30	57378.23
634.45	57523.35
634.60	57343.12
634.75	57268.23
634.90	57207.37
635.05	57492.92
635.19	57251.84
635.34	57340.78
635.49	57317.38
635.64	57312.70
635.79	57050.56
635.94	57146.52
636.09	56898.42
636.24	56832.89
636.39	56858.63
636.53	57312.70
636.68	57062.26
636.83	57055.24
636.98	57235.46
637.13	57050.56
637.28	56961.62
637.43	57069.28
637.57	56970.98
637.72	56921.83
637.87	57010.77
638.02	57085.67
638.17	56898.42
638.32	56928.85
638.46	56900.76
638.61	56851.61
638.76	56718.20
638.91	56643.30
639.06	57024.81
639.20	56959.28
639.35	57006.09
639.50	57111.41
639.65	56853.95
639.80	56781.40
639.94	56629.26
640.09	56825.87
640.24	56842.25
640.39	56535.64
640.54	56324.99
640.68	56435.00
640.83	56596.49
640.98	56266.48
641.13	56238.39
641.27	56570.75
641.42	56533.30
641.57	56659.69
641.72	56444.36
641.86	56753.31
642.01	56474.79
642.16	56224.35
642.31	56261.80
642.45	56329.67
642.60	56175.20
642.75	56037.11
642.90	56416.27
643.04	56282.86
643.19	56095.62
643.34	56278.18
643.48	56088.60
643.63	56193.92
643.78	56275.84
643.93	56383.51
644.07	56477.13
644.22	56140.09
644.37	55983.27
644.51	56226.69
644.66	56133.07
644.81	56060.51
644.95	55973.91
645.10	55798.37
645.25	56116.68
645.39	56161.15
645.54	56250.09
645.69	56104.98
645.83	56079.24
645.98	56097.96
646.13	56147.11
646.27	56156.47
646.42	55910.72
646.57	55957.53
646.71	56016.04
646.86	55913.06
647.00	56004.34
647.15	55891.99
647.30	55847.52
647.44	55751.56
647.59	55938.80
647.74	55756.24
647.88	55714.11
648.03	55966.89
648.17	56100.30
648.32	55718.79
648.47	56306.27
648.61	55519.85
648.76	55852.20
648.90	55793.69
649.05	55423.89
649.20	55374.73
649.34	55737.52
649.49	55435.59
649.63	55821.78
649.78	55643.90
649.92	55643.90
650.07	55870.93
650.21	55348.99
650.36	55426.23
650.51	55437.93
650.65	55746.88
650.80	55690.71
650.94	55592.40
651.09	55501.12
651.23	55320.90
651.38	55253.03
651.52	55552.62
651.67	55271.75
651.81	55208.56
651.96	55348.99
652.10	55267.07
652.25	55496.44
652.39	55505.80
652.54	55124.30
652.68	55285.79
652.83	55454.31
652.97	55444.95
653.12	55110.25
653.26	55086.85
653.41	55086.85
653.55	55206.22
653.70	54873.86
653.84	55192.17
653.99	54777.90
654.13	55220.26
654.27	54913.65
654.42	54965.14
654.56	55147.70
654.71	55002.59
654.85	55384.10
655.00	55444.95
655.14	54848.11
655.29	54932.37
655.43	54754.49
655.57	54759.17
655.72	54782.58
655.86	54742.79
656.01	54475.97
656.15	54387.03
656.30	54663.21
656.44	54726.41
656.58	54625.76
656.73	54665.55
656.87	54883.22
657.01	54876.20
657.16	54899.61
657.30	54988.55
657.45	54529.80
657.59	54691.30
657.73	54365.96
657.88	54302.77
658.02	54419.80
658.16	54660.87
658.31	54440.86
658.45	54738.11
658.60	53961.05
658.74	54506.40
658.88	54436.18
659.03	54049.99
659.17	54073.40
659.31	54468.95
659.46	54218.51
659.60	54323.83
659.74	54106.16
659.89	54138.93
660.03	54272.34
660.17	54394.05
660.32	54120.21
660.46	54042.97
660.60	53710.61
660.74	53638.06
660.89	54024.25
661.03	53750.40
661.17	53858.07
661.32	53851.05
661.46	53996.16
661.60	53846.36
661.74	53820.62
661.89	53986.80
662.03	53947.01
662.17	53389.96
662.31	53291.66
662.46	53371.24
662.60	53455.50
662.74	53326.77
662.88	53195.70
663.03	53137.18
663.17	53462.52
663.31	53010.79
663.45	53265.91
663.60	53027.18
663.74	53001.43
663.88	52963.98
664.02	52832.91
664.17	53448.47
664.31	53081.01
664.45	53031.86
664.59	52884.40
664.73	52940.58
664.88	52809.51
665.02	52313.31
665.16	52622.26
665.30	52516.94
665.44	52645.67
665.59	52236.08
665.73	52444.38
665.87	52512.26
666.01	52105.01
666.15	52446.72
666.29	52559.07
666.44	52554.39
666.58	52563.75
666.72	52317.99
666.86	52498.22
667.00	52505.24
667.14	52016.07
667.28	51875.63
667.43	52231.40
667.57	52198.63
667.71	51922.44
667.85	51774.99
667.99	51812.44
668.13	51856.91
668.27	51812.44
668.41	51782.01
668.56	51882.66
668.70	51641.58
668.84	51782.01
668.98	51257.73
669.12	51599.45
669.26	51374.76
669.40	51779.67
669.54	51510.51
669.68	51278.80
669.82	50946.44
669.96	50602.38
670.10	50878.57
670.25	51077.51
670.39	50609.40
670.53	50759.20
670.67	50480.67
670.81	50887.93
670.95	50674.94
671.09	50845.80
671.23	50859.84
671.37	50752.18
671.51	50658.56
671.65	50588.34
671.79	50625.79
671.93	50663.24
672.07	50452.59
672.21	50230.24
672.35	49668.51
672.49	49893.20
672.63	49956.39
672.77	50288.75
672.91	49776.17
673.05	49734.04
673.19	50225.56
673.33	49940.01
673.47	49801.92
673.61	49553.82
673.75	49869.79
673.89	49727.02
674.03	49287.00
674.17	49745.75
674.31	49219.13
674.45	48872.73
674.59	48896.13
674.73	48659.74
674.87	48676.12
675.01	48605.91
675.15	48254.82
675.29	48208.01
675.43	48484.20
675.56	48769.74
675.70	48582.50
675.84	48631.65
675.98	47653.31
676.12	48636.33
676.26	48062.90
676.40	47899.06
676.54	47358.40
676.68	47922.47
676.82	46892.63
676.96	47777.36
677.10	47407.55
677.23	46775.61
677.37	47140.73
677.51	47203.92
677.65	46974.55
677.79	46286.43
677.93	47002.64
678.07	46752.20
678.21	45818.33
678.34	46667.94
678.48	46272.39
678.62	46403.46
678.76	46337.93
678.90	45881.52
679.04	45808.96
679.18	45689.60
679.31	45514.06
679.45	45001.48
679.59	45621.72
679.73	45251.92
679.87	44776.79
680.00	44734.66
680.14	44432.73
680.28	44765.09
680.42	44491.24
680.56	44428.05
680.70	44175.27
680.83	44465.50
680.97	44444.43
681.11	44201.02
681.25	43763.34
681.39	43971.64
681.52	44013.77
681.66	43187.56
681.80	43100.97
681.94	43463.75
682.07	43196.93
682.21	42536.90
682.35	42960.53
682.49	43217.99
682.62	42160.07
682.76	42773.29
682.90	42642.22
683.04	42466.68
683.17	42497.11
683.31	42115.60
683.45	42387.10
683.59	41886.23
683.72	41684.94
683.86	41755.16
684.00	41390.03
684.13	41261.30
684.27	40854.05
684.41	41188.75
684.55	40816.60
684.68	40699.58
684.82	40737.02
684.96	40470.20
685.09	40631.70
685.23	40025.50
685.37	40074.65
685.50	40444.46
685.64	39957.63
685.78	39716.55
685.91	40350.84
686.05	40325.09
686.19	39976.35
686.32	39985.71
686.46	38960.56
686.60	39220.36
686.73	39042.48
686.87	39253.12
687.01	38986.30
687.14	39040.14
687.28	38419.89
687.42	38756.93
687.55	38389.47
687.69	38431.60
687.82	38302.87
687.96	38565.01
688.10	38291.16
688.23	38581.39
688.37	38043.07
688.50	37736.46
688.64	37357.29
688.78	37366.65
688.91	36919.61
689.05	37134.94
689.18	36917.27
689.32	36383.63
689.46	36488.95
689.59	36708.96
689.73	36294.69
689.86	36449.16
690.00	36196.38
690.13	36121.49
690.27	36025.53
690.41	36070.00
690.54	35901.48
690.68	35536.35
690.81	36217.45
690.95	35791.47
691.08	35353.79
691.22	35541.03
691.35	34892.71
691.49	35356.13
691.62	34852.92
691.76	34487.79
691.89	34490.13
692.03	33942.45
692.16	33942.45
692.30	33851.17
692.43	33670.95
692.57	33589.03
692.70	33743.50
692.84	33518.81
692.97	33303.48
693.11	33586.69
693.24	33467.32
693.38	33546.90
693.51	33184.12
693.65	33474.34
693.78	33202.84
693.92	32694.94
694.05	32456.21
694.19	32388.33
694.32	31873.42
694.45	31641.70
694.59	31817.24
694.72	31945.97
694.86	31887.46
694.99	31433.39
695.13	32030.23
695.26	31402.97
695.39	31431.05
695.53	31325.73
695.66	31548.08
695.80	31323.39
695.93	31304.67
696.07	31094.02
696.20	30670.38
696.33	30693.79
696.47	30892.73
696.60	30593.14
696.73	30480.80
696.87	30127.38
697.00	29890.98
697.14	29991.62
697.27	29254.36
697.40	29343.30
697.54	28978.17
697.67	29060.09
697.80	29322.23
697.94	28870.51
698.07	29081.16
698.21	29008.60
698.34	29085.84
698.47	28940.72
698.61	28261.97
698.74	28652.84
698.87	28701.99
699.01	28250.27
699.14	27786.84
699.27	27936.63
699.40	27784.50
699.54	27367.88
699.67	27594.92
699.80	27337.46
699.94	27316.39
700.07	27274.26
700.20	26738.28
700.34	26579.12
700.47	26766.37
700.60	26906.80
700.73	26726.58
700.87	26635.30
701.00	26073.57
701.13	26637.64
701.26	26373.16
701.40	26567.42
701.53	26190.59
701.66	25673.34
701.79	25855.90
701.93	25312.89
702.06	25600.78
702.19	25799.73
702.32	25373.75
702.46	25390.13
702.59	25046.07
702.72	24840.11
702.85	24556.90
702.99	24453.92
703.12	24856.49
703.25	24788.61
703.38	24989.90
703.51	24776.91
703.65	24482.00
703.78	24187.10
703.91	24079.43
704.04	23915.59
704.17	24009.22
704.31	24032.62
704.44	23491.96
704.57	23616.01
704.70	23473.23
704.83	23145.56
704.96	23096.41
705.10	23047.26
705.23	22979.38
>>>>>End Processed Spectral Data<<<<<
