SpectraSuite Data File
++++++++++++++++++++++++++++++++++++
Date: Fri Oct 04 11:48:46 GMT-05:00 2013
User: price-jones
Dark Spectrum Present: No
Reference Spectrum Present: No
Number of Sampled Component Spectra: 1
Spectrometers: USB2+H05261
Integration Time (usec): 100000 (USB2+H05261)
Spectra Averaged: 1 (USB2+H05261)
Boxcar Smoothing: 0 (USB2+H05261)
Correct for Electrical Dark: No (USB2+H05261)
Strobe/Lamp Enabled: No (USB2+H05261)
Correct for Detector Non-linearity: No (USB2+H05261)
Correct for Stray Light: No (USB2+H05261)
Number of Pixels in Processed Spectrum: 2048
>>>>>Begin Processed Spectral Data<<<<<
365.73	2.34
365.92	2.34
366.12	2.34
366.32	0.00
366.52	0.00
366.72	0.00
366.91	0.00
367.11	0.00
367.31	0.00
367.51	0.00
367.70	0.00
367.90	0.00
368.10	0.00
368.30	0.00
368.49	0.00
368.69	4.68
368.89	0.00
369.09	0.00
369.28	0.00
369.48	0.00
369.68	7.02
369.87	0.00
370.07	46.81
370.27	53.83
370.47	107.66
370.66	287.89
370.86	428.32
371.06	404.91
371.25	444.70
371.45	437.68
371.65	418.96
371.84	409.59
372.04	437.68
372.24	550.03
372.44	440.02
372.63	414.27
372.83	550.03
373.03	587.47
373.22	535.98
373.42	500.87
373.62	433.00
373.81	578.11
374.01	603.86
374.21	627.26
374.40	533.64
374.60	547.69
374.79	521.94
374.99	573.43
375.19	573.43
375.38	582.79
375.58	554.71
375.78	624.92
375.97	594.50
376.17	622.58
376.37	531.30
376.56	589.82
376.76	596.84
376.95	617.90
377.15	732.59
377.35	643.65
377.54	653.01
377.74	678.76
377.93	645.99
378.13	641.31
378.33	730.25
378.52	716.20
378.72	786.42
378.91	650.67
379.11	624.92
379.31	636.63
379.50	667.05
379.70	690.46
379.89	767.70
380.09	685.78
380.28	746.63
380.48	704.50
380.68	798.12
380.87	655.35
381.07	791.10
381.26	758.33
381.46	765.36
381.65	837.91
381.85	748.97
382.04	819.19
382.24	765.36
382.43	791.10
382.63	758.33
382.83	802.80
383.02	828.55
383.22	851.96
383.41	828.55
383.61	748.97
383.80	870.68
384.00	823.87
384.19	858.98
384.39	880.04
384.58	840.25
384.78	816.85
384.97	959.62
385.17	880.04
385.36	933.87
385.56	896.43
385.75	870.68
385.95	884.72
386.14	919.83
386.34	870.68
386.53	891.74
386.72	786.42
386.92	840.25
387.11	894.08
387.31	976.00
387.50	973.66
387.70	1006.43
387.89	936.21
388.09	1034.52
388.28	994.73
388.48	1090.69
388.67	1015.79
388.86	1013.45
389.06	1008.77
389.25	1011.11
389.45	1034.52
389.64	990.05
389.84	1015.79
390.03	1048.56
390.22	1034.52
390.42	1104.73
390.61	1053.24
390.81	1149.20
391.00	1146.86
391.19	1228.78
391.39	1107.07
391.58	1165.59
391.78	1186.65
391.97	1310.70
392.16	1242.82
392.36	1317.72
392.55	1151.54
392.75	1196.01
392.94	1151.54
393.13	1210.06
393.33	1226.44
393.52	1313.04
393.71	1334.11
393.91	1196.01
394.10	1249.85
394.29	1322.40
394.49	1277.93
394.68	1200.69
394.88	1315.38
395.07	1401.98
395.26	1355.17
395.46	1378.58
395.65	1376.24
395.84	1324.74
396.04	1399.64
396.23	1481.56
396.42	1376.24
396.62	1369.21
396.81	1455.81
397.00	1432.41
397.19	1336.45
397.39	1448.79
397.58	1516.67
397.77	1535.39
397.97	1535.39
398.16	1493.26
398.35	1523.69
398.55	1502.62
398.74	1533.05
398.93	1692.21
399.12	1584.54
399.32	1582.20
399.51	1643.06
399.70	1666.46
399.90	1699.23
400.09	1650.08
400.28	1689.87
400.47	1762.42
400.67	1771.79
400.86	1762.42
401.05	1720.29
401.24	1792.85
401.44	1788.17
401.63	1933.28
401.82	1877.11
402.01	1736.68
402.21	1795.19
402.40	1895.83
402.59	1886.47
402.78	1963.71
402.97	1839.66
403.17	1856.04
403.36	1919.24
403.55	1912.22
403.74	1994.14
403.93	1959.03
404.13	2036.27
404.32	2078.40
404.51	2022.22
404.70	2146.27
404.89	2129.89
405.09	2165.00
405.28	2092.44
405.47	2099.46
405.66	2204.78
405.85	2218.83
406.05	2153.29
406.24	2174.36
406.43	2237.55
406.62	2389.69
406.81	2326.49
407.00	2338.20
407.20	2363.94
407.39	2408.41
407.58	2324.15
407.77	2396.71
407.96	2399.05
408.15	2450.54
408.34	2457.56
408.54	2485.65
408.73	2349.90
408.92	2459.90
409.11	2558.21
409.30	2558.21
409.49	2649.49
409.68	2621.40
409.87	2637.78
410.07	2649.49
410.26	2607.36
410.45	2670.55
410.64	2698.64
410.83	2675.23
411.02	2705.66
411.21	2754.81
411.40	2832.05
411.59	2958.44
411.78	2930.35
411.98	2775.88
412.17	2897.58
412.36	2913.97
412.55	3038.02
412.74	3023.97
412.93	3087.17
413.12	3052.06
413.31	3178.45
413.50	3073.12
413.69	3030.99
413.88	3232.28
414.07	3215.90
414.26	3276.75
414.45	3332.92
414.64	3318.88
414.83	3407.82
415.02	3398.46
415.22	3471.01
415.41	3613.79
415.60	3520.17
415.79	3602.08
415.98	3583.36
416.17	3585.70
416.36	3674.64
416.55	3812.73
416.74	3632.51
416.93	3758.90
417.12	3712.09
417.31	3779.97
417.50	3660.60
417.69	3899.33
417.88	3829.12
418.07	3911.04
418.26	3887.63
418.45	3957.85
418.64	4196.58
418.83	4084.23
419.02	4102.96
419.21	4102.96
419.39	4191.90
419.58	4084.23
419.77	4018.70
419.96	4208.28
420.15	4252.75
420.34	4074.87
420.53	4271.48
420.72	4306.59
420.91	4435.32
421.10	4348.72
421.29	4248.07
421.48	4243.39
421.67	4372.12
421.86	4313.61
422.05	4547.66
422.24	4341.69
422.43	4409.57
422.61	4311.27
422.80	4491.49
422.99	4496.17
423.18	4620.22
423.37	4622.56
423.56	4739.58
423.75	4585.11
423.94	4423.61
424.13	4315.95
424.32	4498.51
424.50	4650.64
424.69	4762.99
424.88	4798.10
425.07	4425.95
425.26	4493.83
425.45	4564.04
425.64	4592.13
425.83	4578.09
426.01	4648.30
426.20	4709.16
426.39	4699.80
426.58	4559.36
426.77	4641.28
426.96	4779.37
427.15	4725.54
427.33	4762.99
427.52	4800.44
427.71	4851.93
427.90	4805.12
428.09	4795.76
428.28	5008.75
428.46	4877.68
428.65	4931.51
428.84	5015.77
429.03	5142.16
429.22	4997.04
429.40	5008.75
429.59	5273.23
429.78	4851.93
429.97	4903.42
430.16	4891.72
430.34	5146.84
430.53	5357.49
430.72	5184.29
430.91	5069.60
431.10	5245.14
431.28	5345.78
431.47	5317.70
431.66	5465.15
431.85	5357.49
432.03	5462.81
432.22	5486.22
432.41	5336.42
432.60	5455.79
432.79	5577.50
432.97	5507.28
433.16	5481.53
433.35	5568.13
433.54	5572.82
433.72	5645.37
433.91	5582.18
434.10	5586.86
434.28	5535.37
434.47	5841.98
434.66	5827.93
434.85	5853.68
435.03	5865.38
435.22	5640.69
435.41	5966.03
435.59	5870.06
435.78	5956.66
435.97	5923.90
436.16	6012.84
436.34	5963.68
436.53	6036.24
436.72	6207.10
436.90	6029.22
437.09	6209.44
437.28	6001.13
437.46	6260.93
437.65	6209.44
437.84	6136.88
438.02	6256.25
438.21	6307.74
438.40	6214.12
438.58	6359.24
438.77	6562.86
438.96	6480.94
439.14	6513.71
439.33	6703.29
439.52	6537.12
439.70	6729.04
439.89	6729.04
440.08	6883.52
440.26	6920.96
440.45	6904.58
440.63	6951.39
440.82	7103.53
441.01	6911.60
441.19	7288.43
441.38	7091.82
441.57	7157.36
441.75	7070.76
441.94	7274.38
442.12	7339.92
442.31	7468.65
442.50	7384.39
442.68	7286.09
442.87	7456.95
443.05	7508.44
443.24	7655.89
443.43	7492.05
443.61	7562.27
443.80	7899.31
443.98	7449.93
444.17	7218.21
444.35	7918.03
444.54	7737.81
444.73	7756.54
444.91	7688.66
445.10	7803.35
445.28	7744.83
445.47	7946.12
445.65	7754.19
445.84	7803.35
446.02	7918.03
446.21	7625.47
446.39	7683.98
446.58	7985.91
446.77	7831.43
446.95	7903.99
447.14	7899.31
447.32	7939.10
447.51	8018.68
447.69	7744.83
447.88	8032.72
448.06	7932.08
448.25	7892.29
448.43	7887.61
448.62	8133.36
448.80	7943.78
448.99	8109.96
449.17	8100.59
449.36	8170.81
449.54	8276.13
449.73	8341.67
449.91	8336.99
450.10	8430.61
450.28	8278.47
450.46	8439.97
450.65	8617.85
450.83	8489.12
451.02	8496.14
451.20	8542.96
451.39	8622.53
451.57	8442.31
451.76	8348.69
451.94	8664.66
452.13	8603.81
452.31	8592.11
452.49	8652.96
452.68	8641.26
452.86	8809.78
453.05	8868.29
453.23	8915.10
453.42	8753.60
453.60	8762.97
453.78	8917.44
453.97	8931.48
454.15	8842.54
454.34	8894.04
454.52	8990.00
454.70	8997.02
454.89	9277.88
455.07	9226.39
455.26	9107.02
455.44	9390.23
455.62	9217.03
455.81	9069.58
455.99	9275.54
456.17	9125.75
456.36	9504.92
456.54	9516.62
456.73	9397.25
456.91	9715.56
457.09	9465.13
457.28	9848.97
457.46	9497.89
457.64	9710.88
457.83	9827.91
458.01	9741.31
458.19	9806.84
458.38	9729.61
458.56	9961.32
458.74	9994.09
458.93	10003.45
459.11	10071.33
459.29	10139.20
459.48	10045.58
459.66	10057.28
459.84	10066.64
460.03	10391.98
460.21	10115.80
460.39	10314.74
460.57	10094.73
460.76	10136.86
460.94	10399.00
461.12	10740.72
461.31	10511.35
461.49	10272.61
461.67	10279.63
461.85	10731.36
462.04	10553.48
462.22	11250.96
462.40	10670.50
462.59	10733.70
462.77	10567.52
462.95	10487.94
463.13	10649.44
463.32	10771.15
463.50	10785.19
463.68	11059.03
463.86	10843.70
464.05	11021.58
464.23	10822.64
464.41	11037.97
464.59	10696.25
464.78	11253.30
464.96	11159.67
465.14	11140.95
465.32	11169.04
465.50	11328.19
465.69	11194.78
465.87	11201.80
466.05	11492.03
466.23	11243.93
466.41	11267.34
466.60	11803.32
466.78	11365.64
466.96	11311.81
467.14	11543.52
467.32	11627.78
467.51	11655.87
467.69	11248.61
467.87	11611.40
468.05	11847.79
468.23	11613.74
468.41	11777.58
468.60	11564.59
468.78	11793.96
468.96	11529.48
469.14	11772.89
469.32	12070.14
469.50	11543.52
469.69	12088.87
469.87	12084.19
470.05	12325.26
470.23	12400.16
470.41	12215.26
470.59	12287.81
470.77	12528.89
470.95	12652.94
471.14	12599.10
471.32	12372.07
471.50	12561.66
471.68	12470.37
471.86	12648.26
472.04	12755.92
472.22	13036.78
472.40	12526.55
472.58	12886.99
472.77	13104.66
472.95	12851.88
473.13	13610.22
473.31	13034.44
473.49	13242.75
473.67	13235.73
473.85	13263.82
474.03	13343.39
474.21	13645.32
474.39	13958.96
474.57	13853.63
474.75	13921.51
474.93	14218.75
475.12	13689.79
475.30	14073.64
475.48	13905.12
475.66	14230.46
475.84	14443.45
476.02	14368.55
476.20	14417.70
476.38	14796.87
476.56	14642.39
476.74	14949.00
476.92	14834.32
477.10	14991.13
477.28	14913.89
477.46	14925.60
477.64	15318.81
477.82	15449.88
478.00	15768.19
478.18	16039.69
478.36	16032.67
478.54	16091.18
478.72	15894.58
478.90	16152.04
479.08	16482.05
479.26	16386.09
479.44	16760.58
479.62	17034.42
479.80	17020.38
479.98	17118.68
480.16	17355.07
480.34	17053.14
480.52	17111.66
480.70	17486.14
480.88	17495.50
481.06	17624.23
481.24	17415.93
481.41	18038.51
481.59	17895.74
481.77	18188.30
481.95	18279.58
482.13	18340.44
482.31	18621.30
482.49	19030.90
482.67	18878.76
482.85	19199.41
483.03	19311.76
483.21	19742.42
483.39	19520.07
483.57	19616.03
483.74	19819.66
483.92	19962.43
484.10	19824.34
484.28	20484.37
484.46	20575.65
484.64	20783.96
484.82	20458.62
485.00	20882.26
485.18	21151.42
485.35	21551.65
485.53	21231.00
485.71	21277.81
485.89	21867.63
486.07	22087.64
486.25	21568.04
486.43	22183.60
486.61	22104.02
486.78	22497.23
486.96	22618.94
487.14	23014.49
487.32	22939.59
487.50	23084.70
487.68	23225.14
487.85	23679.20
488.03	23641.75
488.21	24290.08
488.39	24079.43
488.57	24325.19
488.75	24748.82
488.92	25085.86
489.10	24865.85
489.28	25390.13
489.46	25467.37
489.64	25092.88
489.81	25900.37
489.99	25465.03
490.17	25783.34
490.35	26513.59
490.53	26480.82
490.70	26532.31
490.88	26876.37
491.06	27325.75
491.24	27023.83
491.41	27185.32
491.59	27433.42
491.77	27365.54
491.95	27768.12
492.13	28006.85
492.30	28020.89
492.48	28182.39
492.66	28369.63
492.84	28666.88
493.01	29102.22
493.19	28725.39
493.37	28877.53
493.54	29446.28
493.72	29296.49
493.90	29483.73
494.08	29596.07
494.25	30312.28
494.43	30541.65
494.61	30511.22
494.79	30766.34
494.96	30361.43
495.14	30581.44
495.32	30855.28
495.49	31353.82
495.67	31615.96
495.85	31557.44
496.02	31754.05
496.20	32023.21
496.38	32250.24
496.55	32079.38
496.73	32800.27
496.91	32570.90
497.09	32601.32
497.26	33029.64
497.44	32690.26
497.62	32816.65
497.79	33518.81
497.97	33647.54
498.14	33706.05
498.32	34092.24
498.50	33874.57
498.67	34300.55
498.85	34176.50
499.03	34242.04
499.20	34061.82
499.38	34778.02
499.56	34768.66
499.73	35000.37
499.91	35056.54
500.08	35463.80
500.26	35285.92
500.44	35639.34
500.61	35438.05
500.79	35349.11
500.97	35594.87
501.14	36556.83
501.32	36247.88
501.49	36247.88
501.67	36165.96
501.84	36411.71
502.02	36163.62
502.20	36774.50
502.37	36940.68
502.55	37186.43
502.72	37301.12
502.90	37020.25
503.07	37247.29
503.25	37621.77
503.43	37479.00
503.60	37724.75
503.78	37851.14
503.95	37778.59
504.13	37694.33
504.30	38005.62
504.48	38323.93
504.65	38108.60
504.83	38656.29
505.01	39070.56
505.18	38586.07
505.36	38941.83
505.53	38511.17
505.71	39012.05
505.88	39096.31
506.06	38948.85
506.23	39632.29
506.41	39555.05
506.58	39679.10
506.76	39618.25
506.93	40093.38
507.11	40088.70
507.28	40161.25
507.46	39896.77
507.63	40470.20
507.81	40622.34
507.98	40535.74
508.16	40788.52
508.33	40856.39
508.50	40741.71
508.68	41165.34
508.85	41502.38
509.03	41457.91
509.20	41947.08
509.38	41715.37
509.55	41701.32
509.73	41624.09
509.90	42155.39
510.08	41841.76
510.25	42178.79
510.42	42157.73
510.60	42396.46
510.77	42728.82
510.95	42494.77
511.12	42806.06
511.30	42347.31
511.47	42789.67
511.64	42951.17
511.82	43634.61
511.99	42871.59
512.17	43400.55
512.34	43304.59
512.51	43978.67
512.69	44194.00
512.86	43632.27
513.04	44079.31
513.21	44231.44
513.38	44189.31
513.56	44374.22
513.73	44179.95
513.90	44540.39
514.08	44296.98
514.25	44584.86
514.43	44472.52
514.60	44538.05
514.77	44879.77
514.95	45233.19
515.12	44898.50
515.29	44914.88
515.47	45177.02
515.64	45457.88
515.81	45460.23
515.99	45500.01
516.16	45975.14
516.33	46171.75
516.51	46157.70
516.68	46014.93
516.85	45848.75
517.03	46562.62
517.20	46602.41
517.37	46246.65
517.54	46724.11
517.72	46557.94
517.89	46162.39
518.06	46960.51
518.24	46602.41
518.41	46536.87
518.58	47040.09
518.75	46937.10
518.93	47339.68
519.10	46892.63
519.27	47428.62
519.45	47351.38
519.62	46799.01
519.79	47765.65
519.96	47657.99
520.14	47943.53
520.31	47515.22
520.48	48114.39
520.65	47784.38
520.83	48016.09
521.00	48226.74
521.17	48229.08
521.34	47988.00
521.52	48341.42
521.69	48413.98
521.86	48980.39
522.03	48706.55
522.20	48643.35
522.38	48690.16
522.55	48762.72
522.72	48931.24
522.89	49148.91
523.07	49389.98
523.24	49359.56
523.41	49476.58
523.58	49029.54
523.75	49574.89
523.92	49425.09
524.10	49443.82
524.27	49668.51
524.44	49567.87
524.61	50021.93
524.78	49867.45
524.96	49602.97
525.13	49947.03
525.30	49698.94
525.47	50021.93
525.64	50490.04
525.81	50405.78
525.98	50417.48
526.16	50546.21
526.33	50431.52
526.50	50890.27
526.67	50344.92
526.84	50717.07
527.01	50656.21
527.18	50445.57
527.36	50752.18
527.53	50897.29
527.70	51346.67
527.87	50904.31
528.04	50976.87
528.21	50955.80
528.38	50976.87
528.55	51171.13
528.72	51327.95
528.89	51334.97
529.07	51508.17
529.24	51224.96
529.41	51952.87
529.58	51664.99
529.75	51489.45
529.92	51475.40
530.09	51669.67
530.26	51936.49
530.43	51892.02
530.60	51538.60
530.77	51370.08
530.94	52259.48
531.11	51950.53
531.28	51812.44
531.46	52018.41
531.63	52259.48
531.80	51812.44
531.97	52362.46
532.14	52477.15
532.31	52271.18
532.48	52303.95
532.65	52222.03
532.82	52002.02
532.99	52680.78
533.16	52425.66
533.33	53003.77
533.50	52685.46
533.67	52750.99
533.84	52570.77
534.01	52725.25
534.18	52765.04
534.35	53118.46
534.52	52961.64
534.69	53310.38
534.86	53343.15
535.03	53099.73
535.20	53326.77
535.37	52863.34
535.54	53090.37
535.71	53263.57
535.88	53249.53
536.05	53315.06
536.22	53874.45
536.38	53427.41
536.55	53382.94
536.72	53602.95
536.89	53202.72
537.06	53338.47
537.23	53851.05
537.40	53345.49
537.57	53607.63
537.74	53558.48
537.91	54092.12
538.08	54087.44
538.25	53890.83
538.42	53895.52
538.59	54019.56
538.75	53827.64
538.92	53717.64
539.09	54000.84
539.26	54129.57
539.43	54174.04
539.60	54405.75
539.77	54108.50
539.94	54478.31
540.11	54284.04
540.28	54195.10
540.44	54321.49
540.61	54220.85
540.78	54405.75
540.95	54700.66
541.12	54578.95
541.29	54508.74
541.46	54597.68
541.62	54134.25
541.79	54176.38
541.96	54328.52
542.13	54822.37
542.30	55002.59
542.47	54834.07
542.63	54824.71
542.80	55063.44
542.97	54958.12
543.14	55227.28
543.31	55236.64
543.48	55168.77
543.64	55250.69
543.81	55257.71
543.98	55327.92
544.15	55079.83
544.32	55306.86
544.48	55423.89
544.65	55131.32
544.82	55203.88
544.99	55194.51
545.16	55735.18
545.32	55564.32
545.49	55669.64
545.66	55948.17
545.83	55744.54
546.00	55959.87
546.16	55517.51
546.33	55398.14
546.50	55325.58
546.67	55770.28
546.83	55386.44
547.00	55861.57
547.17	55838.16
547.34	55889.65
547.50	55789.01
547.67	55973.91
547.84	55994.98
548.00	55838.16
548.17	56133.07
548.34	55943.48
548.51	56193.92
548.67	56100.30
548.84	56264.14
549.01	56207.97
549.18	56133.07
549.34	56062.85
549.51	56149.45
549.68	56200.94
549.84	56217.33
550.01	56395.21
550.18	56308.61
550.34	56404.57
550.51	56240.73
550.68	56355.42
550.84	56446.70
551.01	56385.85
551.18	56425.64
551.34	56266.48
551.51	56456.06
551.68	56640.96
551.84	56715.86
552.01	56879.70
552.18	56987.36
552.34	56662.03
552.51	56860.97
552.68	56729.90
552.84	56657.35
553.01	57057.58
553.18	56858.63
553.34	56940.55
553.51	56891.40
553.67	56989.70
553.84	57219.08
554.01	57240.14
554.17	57003.75
554.34	56900.76
554.51	56804.80
554.67	57212.06
554.84	57144.18
555.00	57013.11
555.17	57085.67
555.33	57165.24
555.50	57024.81
555.67	57298.65
555.83	56839.91
556.00	57190.99
556.16	57343.12
556.33	57347.81
556.50	57069.28
556.66	57340.78
556.83	57244.82
556.99	57518.67
557.16	57605.26
557.32	57350.15
557.49	57570.16
557.65	57214.40
557.82	57293.97
557.98	57542.07
558.15	57434.41
558.32	57396.96
558.48	57581.86
558.65	57722.29
558.81	57488.24
558.98	57457.81
559.14	57619.31
559.31	57371.21
559.47	57425.04
559.64	57425.04
559.80	57731.65
559.97	57844.00
560.13	57481.22
560.30	57694.21
560.46	57729.31
560.63	57853.36
560.79	57874.43
560.96	57698.89
561.12	57773.78
561.29	57537.39
561.45	57776.12
561.61	57977.41
561.78	57841.66
561.94	57939.96
562.11	57530.37
562.27	57717.61
562.44	57642.71
562.60	57762.08
562.77	57977.41
562.93	57890.81
563.10	58206.78
563.26	58000.82
563.42	57879.11
563.59	58085.07
563.75	57925.92
563.92	57993.79
564.08	57937.62
564.24	57944.64
564.41	57925.92
564.57	57879.11
564.74	58281.68
564.90	58108.48
565.07	58171.67
565.23	58384.66
565.39	58040.60
565.56	58295.72
565.72	57996.13
565.88	58152.95
566.05	58246.57
566.21	58024.22
566.38	58199.76
566.54	58277.00
566.70	58302.74
566.87	58162.31
567.03	58298.06
567.19	58546.16
567.36	58241.89
567.52	58181.04
567.68	58295.72
567.85	58040.60
568.01	58190.40
568.17	58356.58
568.34	58288.70
568.50	58389.34
568.66	58415.09
568.83	58480.63
568.99	58354.24
569.15	58433.81
569.32	58494.67
569.48	58169.33
569.64	58440.84
569.81	58389.34
569.97	58379.98
570.13	58529.78
570.30	58457.22
570.46	58466.58
570.62	58480.63
570.78	58192.74
570.95	58330.83
571.11	58403.39
571.27	58539.14
571.43	58438.50
571.60	58438.50
571.76	58553.18
571.92	58550.84
572.09	58560.20
572.25	58548.50
572.41	58396.37
572.57	58389.34
572.74	58763.83
572.90	58209.12
573.06	58457.22
573.22	58560.20
573.38	58717.02
573.55	58576.59
573.71	58686.59
573.87	58848.09
574.03	58525.10
574.20	58585.95
574.36	58585.95
574.52	58700.64
574.68	58557.86
574.84	58571.91
575.01	58777.87
575.17	58480.63
575.33	58621.06
575.49	58754.47
575.65	58885.54
575.82	58658.51
575.98	58506.37
576.14	58686.59
576.30	58857.45
576.46	58578.93
576.62	58719.36
576.79	58543.82
576.95	58370.62
577.11	58674.89
577.27	58852.77
577.43	58686.59
577.59	58763.83
577.75	58396.37
577.92	58429.13
578.08	58459.56
578.24	58637.44
578.40	58710.00
578.56	58599.99
578.72	58677.23
578.88	59000.22
579.04	58850.43
579.21	58686.59
579.37	58712.34
579.53	58702.98
579.69	58639.78
579.85	58759.15
580.01	58712.34
580.17	58688.93
580.33	58663.19
580.49	58892.56
580.65	58817.66
580.82	59086.82
580.98	59068.10
581.14	58841.07
581.30	58901.92
581.46	58539.14
581.62	58829.37
581.78	58576.59
581.94	58944.05
582.10	58770.85
582.26	58801.28
582.42	58934.69
582.58	58976.82
582.74	58836.39
582.90	58988.52
583.06	58862.13
583.22	58855.11
583.38	58707.66
583.54	58866.81
583.70	58983.84
583.86	58922.99
584.02	58852.77
584.18	59058.74
584.34	58864.47
584.50	59114.91
584.66	58976.82
584.82	58749.79
584.98	58728.72
585.14	58824.68
585.30	58794.26
585.46	58822.34
585.62	59002.56
585.78	59278.75
585.94	58784.90
586.10	59042.35
586.26	58834.05
586.42	58988.52
586.58	58976.82
586.74	58721.70
586.90	58745.11
587.06	58862.13
587.22	59096.19
587.38	58820.00
587.54	59082.14
587.70	59290.45
587.86	59175.76
588.02	58995.54
588.18	59068.10
588.34	58852.77
588.49	58920.65
588.65	59009.59
588.81	58812.98
588.97	59058.74
589.13	58876.18
589.29	59044.69
589.45	59147.68
589.61	59224.92
589.77	59372.37
589.93	59435.56
590.08	59337.26
590.24	59112.57
590.40	59196.83
590.56	59168.74
590.72	59063.42
590.88	58810.64
591.04	59021.29
591.20	59194.49
591.35	59131.29
591.51	59533.87
591.67	59304.49
591.83	59363.01
591.99	59213.21
592.15	59384.07
592.31	59330.24
592.46	59231.94
592.62	59339.60
592.78	59082.14
592.94	59269.39
593.10	59260.02
593.26	59545.57
593.41	59377.05
593.57	59547.91
593.73	59154.70
593.89	59334.92
594.05	59135.98
594.20	59152.36
594.36	59339.60
594.52	59435.56
594.68	59260.02
594.84	59084.48
594.99	59346.62
595.15	59344.28
595.31	59341.94
595.47	59248.32
595.62	59554.93
595.78	59267.05
595.94	59236.62
596.10	59072.78
596.25	59318.54
596.41	59135.98
596.57	59128.95
596.73	59227.26
596.88	59166.40
597.04	59512.80
597.20	59416.84
597.36	59449.61
597.51	59358.33
597.67	59269.39
597.83	59187.47
597.99	59260.02
598.14	59302.15
598.30	59395.77
598.46	59365.35
598.61	59587.70
598.77	59253.00
598.93	59374.71
599.09	59463.65
599.24	59470.67
599.40	59627.49
599.56	59363.01
599.71	59379.39
599.87	59465.99
600.03	59234.28
600.18	59561.95
600.34	59540.89
600.50	59243.64
600.65	59353.65
600.81	59611.10
600.97	59845.16
601.12	59508.12
601.28	59615.79
601.44	59545.57
601.59	59543.23
601.75	59419.18
601.91	59505.78
602.06	59119.59
602.22	59529.19
602.37	59400.46
602.53	59344.28
602.69	59550.25
602.84	59355.99
603.00	59365.35
603.16	59573.66
603.31	59465.99
603.47	59470.67
603.62	59405.14
603.78	59444.93
603.94	59245.98
604.09	59365.35
604.25	59199.17
604.40	59587.70
604.56	59407.48
604.71	59611.10
604.87	59529.19
605.03	59728.13
605.18	59285.77
605.34	59253.00
605.49	59306.83
605.65	59260.02
605.80	59014.27
605.96	59164.06
606.12	59309.18
606.27	59386.41
606.43	59414.50
606.58	59442.59
606.74	59365.35
606.89	59522.16
607.05	59393.43
607.20	59360.67
607.36	59395.77
607.51	59482.37
607.67	59178.10
607.82	59044.69
607.98	59150.02
608.13	59290.45
608.29	59253.00
608.44	59260.02
608.60	59475.35
608.75	59442.59
608.91	59245.98
609.06	58939.37
609.22	59262.36
609.37	59058.74
609.53	59070.44
609.68	59217.89
609.84	59311.52
609.99	59143.00
610.15	59302.15
610.30	59124.27
610.46	59009.59
610.61	58908.94
610.76	59189.81
610.92	59100.87
611.07	59327.90
611.23	59236.62
611.38	59065.76
611.54	58904.26
611.69	59002.56
611.84	59047.04
612.00	59201.51
612.15	58976.82
612.31	59281.09
612.46	59203.85
612.62	59306.83
612.77	59042.35
612.92	59203.85
613.08	59086.82
613.23	59056.40
613.39	58986.18
613.54	58930.01
613.69	59084.48
613.85	58815.32
614.00	58915.96
614.15	58934.69
614.31	58728.72
614.46	59222.58
614.62	59072.78
614.77	58986.18
614.92	59180.45
615.08	59054.06
615.23	58913.62
615.38	58883.20
615.54	58656.17
615.69	59032.99
615.84	58922.99
616.00	58939.37
616.15	58845.75
616.30	59047.04
616.46	58934.69
616.61	58922.99
616.76	58976.82
616.92	58726.38
617.07	58761.49
617.22	58747.45
617.37	58513.39
617.53	58735.74
617.68	58667.87
617.83	58649.14
617.99	58630.42
618.14	58838.73
618.29	58649.14
618.45	58878.52
618.60	58841.07
618.75	58599.99
618.90	58548.50
619.06	58667.87
619.21	58784.90
619.36	58621.06
619.51	58651.48
619.67	58305.09
619.82	58464.24
619.97	58473.60
620.12	58433.81
620.28	58419.77
620.43	58555.52
620.58	58864.47
620.73	58625.74
620.89	58824.68
621.04	58639.78
621.19	58665.53
621.34	58394.03
621.49	58429.13
621.65	58384.66
621.80	58337.85
621.95	58258.27
622.10	58436.16
622.25	58232.53
622.41	58321.47
622.56	58482.97
622.71	58410.41
622.86	58321.47
623.01	58438.50
623.16	58162.31
623.32	58213.80
623.47	58174.02
623.62	58129.54
623.77	58012.52
623.92	58066.35
624.07	58218.49
624.23	58295.72
624.38	58405.73
624.53	58253.59
624.68	58539.14
624.83	58344.87
624.98	58286.36
625.13	58082.73
625.29	58272.32
625.44	58096.78
625.59	58099.12
625.74	58071.03
625.89	57860.38
626.04	57979.75
626.19	57865.06
626.34	57822.93
626.49	58047.63
626.65	57982.09
626.80	58152.95
626.95	57668.46
627.10	57844.00
627.25	57799.53
627.40	57890.81
627.55	57537.39
627.70	57811.23
627.85	57591.22
628.00	57574.84
628.15	57684.84
628.30	57460.15
628.45	57602.92
628.60	57757.40
628.76	57762.08
628.91	57897.83
629.06	57645.05
629.21	57726.97
629.36	57649.74
629.51	57703.57
629.66	57453.13
629.81	57345.47
629.96	57631.01
630.11	57696.55
630.26	57492.92
630.41	57443.77
630.56	57146.52
630.71	57565.48
630.86	57523.35
631.01	57525.69
631.16	57345.47
631.31	57176.95
631.46	56989.70
631.61	57565.48
631.76	57298.65
631.91	57277.59
632.06	57298.65
632.21	57539.73
632.36	57303.34
632.51	57193.33
632.66	57235.46
632.81	57008.43
632.96	57324.40
633.10	57155.88
633.25	57181.63
633.40	57169.93
633.55	57336.10
633.70	57272.91
633.85	56933.53
634.00	56926.51
634.15	57242.48
634.30	57137.16
634.45	57237.80
634.60	57329.08
634.75	57036.51
634.90	57055.24
635.05	57008.43
635.19	56970.98
635.34	57066.94
635.49	56980.34
635.64	56790.76
635.79	56959.28
635.94	57003.75
636.09	56933.53
636.24	56537.98
636.39	56505.21
636.53	56905.44
636.68	56765.01
636.83	56748.63
636.98	56921.83
637.13	56669.05
637.28	56879.70
637.43	56786.08
637.57	56769.69
637.72	56580.11
637.87	56636.28
638.02	56732.25
638.17	56800.12
638.32	56685.43
638.46	56633.94
638.61	56509.89
638.76	56427.98
638.91	56519.26
639.06	56865.66
639.20	56762.67
639.35	56886.72
639.50	56528.62
639.65	56662.03
639.80	56453.72
639.94	56322.65
640.09	56135.41
640.24	56545.00
640.39	56442.02
640.54	56336.69
640.68	56130.73
640.83	56350.74
640.98	56193.92
641.13	55732.84
641.27	56364.78
641.42	56336.69
641.57	56236.05
641.72	56196.26
641.86	56037.11
642.01	56327.33
642.16	55997.32
642.31	56088.60
642.45	55854.54
642.60	55884.97
642.75	55931.78
642.90	56034.77
643.04	56055.83
643.19	55767.94
643.34	55922.42
643.48	56046.47
643.63	56095.62
643.78	56121.37
643.93	56156.47
644.07	55880.29
644.22	55873.27
644.37	55852.20
644.51	55859.23
644.66	55781.99
644.81	55873.27
644.95	55688.37
645.10	55693.05
645.25	55842.84
645.39	55875.61
645.54	55870.93
645.69	55877.95
645.83	55966.89
645.98	55957.53
646.13	55828.80
646.27	55931.78
646.42	55655.60
646.57	55627.51
646.71	55697.73
646.86	55660.28
647.00	55824.12
647.15	55760.92
647.30	55489.42
647.44	55634.53
647.59	55487.08
647.74	55601.77
647.88	55522.19
648.03	55781.99
648.17	55716.45
648.32	55728.16
648.47	55578.36
648.61	55391.12
648.76	55468.36
648.90	55473.04
649.05	55281.11
649.20	55281.11
649.34	55262.39
649.49	55381.76
649.63	55379.42
649.78	55618.15
649.92	55231.96
650.07	55613.47
650.21	55248.35
650.36	55208.56
650.51	55168.77
650.65	55681.34
650.80	55618.15
650.94	55208.56
651.09	55086.85
651.23	54997.91
651.38	55152.38
651.52	55075.15
651.67	55210.90
651.81	55126.64
651.96	55047.06
652.10	55016.63
652.25	55182.81
652.39	55224.94
652.54	54979.18
652.68	54927.69
652.83	54965.14
652.97	54930.03
653.12	54990.89
653.26	54901.95
653.41	54726.41
653.55	54972.16
653.70	54801.30
653.84	54859.82
653.99	54410.43
654.13	54600.02
654.27	54651.51
654.42	54417.46
654.56	54752.15
654.71	54911.31
654.85	54852.80
655.00	55009.61
655.14	54829.39
655.29	54740.45
655.43	54611.72
655.57	54363.62
655.72	54396.39
655.86	54450.22
656.01	54279.36
656.15	54155.32
656.30	54253.62
656.44	54272.34
656.58	54389.37
656.73	54499.37
656.87	54415.11
657.01	54326.17
657.16	54520.44
657.30	54454.90
657.45	54660.87
657.59	54316.81
657.73	54279.36
657.88	54431.50
658.02	54473.63
658.16	54085.10
658.31	54363.62
658.45	53951.69
658.60	54218.51
658.74	54148.29
658.88	54232.55
659.03	54057.01
659.17	53773.81
659.31	53930.62
659.46	53736.36
659.60	53918.92
659.74	53738.70
659.89	53806.58
660.03	53799.55
660.17	53799.55
660.32	53961.05
660.46	53577.20
660.60	53511.67
660.74	53483.58
660.89	53380.60
661.03	53673.16
661.17	53638.06
661.32	53516.35
661.46	53872.11
661.60	53689.55
661.74	53586.57
661.89	53680.19
662.03	53478.90
662.17	53057.60
662.31	52931.22
662.46	53333.79
662.60	53258.89
662.74	53076.33
662.88	52994.41
663.03	52786.10
663.17	52741.63
663.31	52559.07
663.45	52559.07
663.60	52491.19
663.74	52828.23
663.88	52900.79
664.02	52896.11
664.17	53324.43
664.31	52839.93
664.45	52921.85
664.59	52224.37
664.73	52463.11
664.88	52027.77
665.02	52053.51
665.16	52313.31
665.30	52156.50
665.44	52217.35
665.59	51828.82
665.73	52257.14
665.87	52097.98
666.01	52116.71
666.15	52027.77
666.29	51922.44
666.44	52065.22
666.58	52025.43
666.72	51941.17
666.86	51927.13
667.00	52074.58
667.14	51784.35
667.28	51461.36
667.43	51611.15
667.57	51903.72
667.71	51599.45
667.85	51419.23
667.99	51414.55
668.13	51440.29
668.27	51334.97
668.41	51473.06
668.56	51409.87
668.70	51800.74
668.84	51278.80
668.98	51199.22
669.12	51021.34
669.26	51325.61
669.40	50829.41
669.54	51119.64
669.68	51192.20
669.82	51077.51
669.96	50724.09
670.10	50550.89
670.25	50562.59
670.39	50574.30
670.53	49897.88
670.67	50340.24
670.81	50789.62
670.95	50248.96
671.09	50302.79
671.23	50281.73
671.37	50389.39
671.51	50557.91
671.65	50188.11
671.79	50389.39
671.93	49958.73
672.07	49544.46
672.21	50185.77
672.35	49446.16
672.49	49188.70
672.63	49614.68
672.77	49303.38
672.91	49668.51
673.05	49132.53
673.19	49729.36
673.33	49195.72
673.47	49455.52
673.61	49425.09
673.75	49268.28
673.89	49350.20
674.03	49078.69
674.17	49258.91
674.31	48739.32
674.45	48617.61
674.59	48238.44
674.73	48507.60
674.87	48088.65
675.01	47927.15
675.15	47929.49
675.29	48037.16
675.43	48261.85
675.56	48315.68
675.70	48306.32
675.84	48112.05
675.98	47327.97
676.12	47625.22
676.26	47906.08
676.40	47672.03
676.54	47564.37
676.68	46948.81
676.82	46871.57
676.96	47107.96
677.10	46497.08
677.23	47054.13
677.37	46452.61
677.51	46096.85
677.65	46529.85
677.79	45757.47
677.93	46295.80
678.07	46487.72
678.21	45705.98
678.34	45930.67
678.48	45771.52
678.62	45818.33
678.76	45752.79
678.90	45361.92
679.04	45329.16
679.18	45045.95
679.31	44612.95
679.45	45123.19
679.59	44542.74
679.73	44577.84
679.87	44350.81
680.00	44406.98
680.14	44091.01
680.28	44453.79
680.42	44123.78
680.56	43966.96
680.70	44172.93
680.83	43634.61
680.97	43995.05
681.11	43805.47
681.25	43526.94
681.39	43292.89
681.52	43346.72
681.66	42768.61
681.80	42595.41
681.94	42600.09
682.07	42438.59
682.21	42555.62
682.35	42974.58
682.49	42447.96
682.62	42504.13
682.76	42646.90
682.90	42277.10
683.04	42057.09
683.17	41876.86
683.31	42012.62
683.45	41982.19
683.59	41874.52
683.72	41649.83
683.86	41420.46
684.00	41710.69
684.13	40835.33
684.27	40889.16
684.41	40308.71
684.55	40472.54
684.68	40140.19
684.82	40385.94
684.96	40313.39
685.09	39686.12
685.23	39388.88
685.37	39861.66
685.50	39576.12
685.64	39601.86
685.78	39538.67
685.91	39618.25
686.05	39915.50
686.19	39290.57
686.32	39784.43
686.46	38981.62
686.60	38876.30
686.73	38246.69
686.87	38609.48
687.01	38948.85
687.14	38366.06
687.28	38225.63
687.42	38368.40
687.55	38000.94
687.69	38426.92
687.82	38117.96
687.96	36982.80
688.10	37729.44
688.23	37750.50
688.37	37368.99
688.50	37734.12
688.64	37284.73
688.78	37331.54
688.91	36517.04
689.05	36528.74
689.18	35903.82
689.32	35924.88
689.46	35913.18
689.59	36292.35
689.73	35873.39
689.86	35941.27
690.00	35604.23
690.13	35541.03
690.27	35456.78
690.41	35672.10
690.54	35426.35
690.68	35363.15
690.81	35505.93
690.95	35601.89
691.08	35314.00
691.22	35234.42
691.35	34768.66
691.49	34471.41
691.62	34728.87
691.76	34169.48
691.89	33769.25
692.03	33874.57
692.16	33453.28
692.30	33467.32
692.43	33577.33
692.57	33268.37
692.70	33347.95
692.84	33151.35
692.97	32830.69
693.11	33184.12
693.24	32861.12
693.38	32886.87
693.51	32830.69
693.65	32606.00
693.78	32765.16
693.92	32568.55
694.05	32390.67
694.19	32135.56
694.32	31747.03
694.45	31695.53
694.59	31559.78
694.72	31639.36
694.86	31257.85
694.99	31103.38
695.13	31131.47
695.26	31103.38
695.39	31037.84
695.53	31026.14
695.66	30724.21
695.80	30513.56
695.93	31042.53
696.07	30792.09
696.20	30604.84
696.33	30225.68
696.47	30038.44
696.60	30246.74
696.73	30139.08
696.87	30003.33
697.00	29507.13
697.14	29572.67
697.27	29216.91
697.40	29017.96
697.54	28980.51
697.67	28486.66
697.80	28547.51
697.94	28842.42
698.07	28273.67
698.21	28561.56
698.34	29111.58
698.47	28416.44
698.61	28666.88
698.74	28203.46
698.87	28032.60
699.01	27969.40
699.14	27761.09
699.27	27779.82
699.40	27367.88
699.54	26871.69
699.67	26951.27
699.80	27009.78
699.94	26958.29
700.07	26611.89
700.20	26567.42
700.34	26686.79
700.47	26391.88
700.60	26431.67
700.73	26455.08
700.87	26539.33
701.00	26178.89
701.13	26066.55
701.26	25766.96
701.40	26139.10
701.53	25867.60
701.66	25675.68
701.79	25680.36
701.93	24900.96
702.06	24828.40
702.19	25270.76
702.32	25528.22
702.46	24669.25
702.59	24615.41
702.72	24386.04
702.85	24259.65
702.99	24563.92
703.12	24343.91
703.25	24137.94
703.38	24336.89
703.51	24051.34
703.65	24341.57
703.78	24166.03
703.91	24023.26
704.04	23875.80
704.17	23630.05
704.31	23522.38
704.44	23433.44
704.57	23414.72
704.70	22710.22
704.83	22747.67
704.96	22874.06
705.10	22693.83
705.23	22431.69
>>>>>End Processed Spectral Data<<<<<
