SpectraSuite Data File
++++++++++++++++++++++++++++++++++++
Date: Fri Oct 04 11:48:19 GMT-05:00 2013
User: price-jones
Dark Spectrum Present: No
Reference Spectrum Present: No
Number of Sampled Component Spectra: 1
Spectrometers: USB2+H05261
Integration Time (usec): 100000 (USB2+H05261)
Spectra Averaged: 1 (USB2+H05261)
Boxcar Smoothing: 0 (USB2+H05261)
Correct for Electrical Dark: No (USB2+H05261)
Strobe/Lamp Enabled: No (USB2+H05261)
Correct for Detector Non-linearity: No (USB2+H05261)
Correct for Stray Light: No (USB2+H05261)
Number of Pixels in Processed Spectrum: 2048
>>>>>Begin Processed Spectral Data<<<<<
365.73	0.00
365.92	0.00
366.12	0.00
366.32	0.00
366.52	0.00
366.72	0.00
366.91	0.00
367.11	0.00
367.31	0.00
367.51	0.00
367.70	0.00
367.90	0.00
368.10	0.00
368.30	0.00
368.49	0.00
368.69	14.04
368.89	0.00
369.09	0.00
369.28	0.00
369.48	0.00
369.68	0.00
369.87	0.00
370.07	0.00
370.27	0.00
370.47	25.75
370.66	0.00
370.86	117.03
371.06	42.13
371.25	72.56
371.45	58.51
371.65	72.56
371.84	58.51
372.04	21.06
372.24	39.79
372.44	107.66
372.63	182.56
372.83	98.30
373.03	70.22
373.22	53.83
373.42	65.54
373.62	93.62
373.81	117.03
374.01	182.56
374.21	201.29
374.40	86.60
374.60	124.05
374.79	72.56
374.99	102.98
375.19	131.07
375.38	98.30
375.58	91.28
375.78	156.82
375.97	81.92
376.17	159.16
376.37	119.37
376.56	117.03
376.76	128.73
376.95	79.58
377.15	110.01
377.35	102.98
377.54	107.66
377.74	170.86
377.93	0.00
378.13	93.62
378.33	72.56
378.52	70.22
378.72	131.07
378.91	100.64
379.11	138.09
379.31	105.32
379.50	88.94
379.70	81.92
379.89	142.77
380.09	154.48
380.28	35.11
380.48	91.28
380.68	126.39
380.87	53.83
381.07	147.45
381.26	95.96
381.46	74.90
381.65	67.88
381.85	37.45
382.04	107.66
382.24	102.98
382.43	102.98
382.63	56.17
382.83	35.11
383.02	35.11
383.22	166.18
383.41	147.45
383.61	161.50
383.80	102.98
384.00	58.51
384.19	70.22
384.39	46.81
384.58	32.77
384.78	79.58
384.97	49.15
385.17	14.04
385.36	88.94
385.56	98.30
385.75	95.96
385.95	79.58
386.14	131.07
386.34	65.54
386.53	159.16
386.72	60.85
386.92	133.41
387.11	140.43
387.31	39.79
387.50	98.30
387.70	110.01
387.89	56.17
388.09	44.47
388.28	86.60
388.48	86.60
388.67	91.28
388.86	53.83
389.06	53.83
389.25	112.35
389.45	145.11
389.64	135.75
389.84	156.82
390.03	107.66
390.22	56.17
390.42	170.86
390.61	65.54
390.81	81.92
391.00	128.73
391.19	140.43
391.39	84.26
391.58	7.02
391.78	65.54
391.97	194.26
392.16	110.01
392.36	156.82
392.55	74.90
392.75	149.79
392.94	60.85
393.13	173.20
393.33	70.22
393.52	91.28
393.71	124.05
393.91	70.22
394.10	131.07
394.29	72.56
394.49	18.72
394.68	93.62
394.88	112.35
395.07	105.32
395.26	121.71
395.46	217.67
395.65	198.95
395.84	149.79
396.04	149.79
396.23	100.64
396.42	98.30
396.62	107.66
396.81	105.32
397.00	93.62
397.19	79.58
397.39	72.56
397.58	145.11
397.77	30.43
397.97	189.58
398.16	84.26
398.35	60.85
398.55	72.56
398.74	86.60
398.93	102.98
399.12	77.24
399.32	110.01
399.51	86.60
399.70	58.51
399.90	81.92
400.09	79.58
400.28	203.63
400.47	91.28
400.67	84.26
400.86	119.37
401.05	117.03
401.24	117.03
401.44	74.90
401.63	166.18
401.82	163.84
402.01	67.88
402.21	93.62
402.40	88.94
402.59	72.56
402.78	135.75
402.97	86.60
403.17	117.03
403.36	98.30
403.55	163.84
403.74	79.58
403.93	124.05
404.13	140.43
404.32	84.26
404.51	63.19
404.70	140.43
404.89	205.97
405.09	147.45
405.28	91.28
405.47	74.90
405.66	154.48
405.85	133.41
406.05	147.45
406.24	117.03
406.43	88.94
406.62	138.09
406.81	210.65
407.00	140.43
407.20	145.11
407.39	77.24
407.58	49.15
407.77	166.18
407.96	175.54
408.15	124.05
408.34	86.60
408.54	128.73
408.73	149.79
408.92	131.07
409.11	74.90
409.30	147.45
409.49	145.11
409.68	124.05
409.87	184.90
410.07	88.94
410.26	154.48
410.45	142.77
410.64	184.90
410.83	88.94
411.02	107.66
411.21	173.20
411.40	182.56
411.59	140.43
411.78	159.16
411.98	133.41
412.17	117.03
412.36	142.77
412.55	135.75
412.74	133.41
412.93	140.43
413.12	84.26
413.31	138.09
413.50	177.88
413.69	142.77
413.88	234.05
414.07	212.99
414.26	161.50
414.45	138.09
414.64	152.13
414.83	173.20
415.02	163.84
415.22	166.18
415.41	145.11
415.60	156.82
415.79	182.56
415.98	154.48
416.17	201.29
416.36	170.86
416.55	63.19
416.74	229.37
416.93	131.07
417.12	159.16
417.31	187.24
417.50	142.77
417.69	173.20
417.88	140.43
418.07	72.56
418.26	194.26
418.45	159.16
418.64	142.77
418.83	124.05
419.02	205.97
419.21	84.26
419.39	128.73
419.58	58.51
419.77	170.86
419.96	210.65
420.15	166.18
420.34	198.95
420.53	102.98
420.72	187.24
420.91	259.80
421.10	217.67
421.29	198.95
421.48	60.85
421.67	152.13
421.86	177.88
422.05	177.88
422.24	184.90
422.43	175.54
422.61	182.56
422.80	152.13
422.99	212.99
423.18	131.07
423.37	107.66
423.56	149.79
423.75	147.45
423.94	152.13
424.13	227.03
424.32	208.31
424.50	149.79
424.69	161.50
424.88	170.86
425.07	117.03
425.26	154.48
425.45	189.58
425.64	159.16
425.83	168.52
426.01	126.39
426.20	205.97
426.39	187.24
426.58	142.77
426.77	149.79
426.96	234.05
427.15	212.99
427.33	140.43
427.52	170.86
427.71	196.60
427.90	124.05
428.09	248.10
428.28	166.18
428.46	156.82
428.65	147.45
428.84	187.24
429.03	215.33
429.22	156.82
429.40	140.43
429.59	114.69
429.78	278.52
429.97	135.75
430.16	135.75
430.34	234.05
430.53	100.64
430.72	142.77
430.91	180.22
431.10	168.52
431.28	208.31
431.47	187.24
431.66	163.84
431.85	138.09
432.03	212.99
432.22	236.39
432.41	112.35
432.60	243.42
432.79	182.56
432.97	145.11
433.16	196.60
433.35	168.52
433.54	156.82
433.72	203.63
433.91	177.88
434.10	175.54
434.28	156.82
434.47	173.20
434.66	191.92
434.85	201.29
435.03	198.95
435.22	196.60
435.41	245.76
435.59	140.43
435.78	212.99
435.97	168.52
436.16	220.01
436.34	201.29
436.53	184.90
436.72	149.79
436.90	227.03
437.09	196.60
437.28	173.20
437.46	131.07
437.65	163.84
437.84	126.39
438.02	212.99
438.21	166.18
438.40	121.71
438.58	121.71
438.77	196.60
438.96	154.48
439.14	154.48
439.33	140.43
439.52	142.77
439.70	131.07
439.89	222.35
440.08	184.90
440.26	175.54
440.45	145.11
440.63	191.92
440.82	191.92
441.01	166.18
441.19	163.84
441.38	205.97
441.57	217.67
441.75	201.29
441.94	304.27
442.12	187.24
442.31	147.45
442.50	248.10
442.68	163.84
442.87	163.84
443.05	236.39
443.24	149.79
443.43	187.24
443.61	257.46
443.80	210.65
443.98	191.92
444.17	241.08
444.35	198.95
444.54	229.37
444.73	276.18
444.91	220.01
445.10	257.46
445.28	145.11
445.47	166.18
445.65	149.79
445.84	189.58
446.02	210.65
446.21	180.22
446.39	187.24
446.58	201.29
446.77	208.31
446.95	105.32
447.14	222.35
447.32	241.08
447.51	273.84
447.69	180.22
447.88	241.08
448.06	229.37
448.25	250.44
448.43	166.18
448.62	161.50
448.80	184.90
448.99	182.56
449.17	234.05
449.36	175.54
449.54	280.86
449.73	196.60
449.91	241.08
450.10	222.35
450.28	248.10
450.46	243.42
450.65	187.24
450.83	182.56
451.02	250.44
451.20	175.54
451.39	266.82
451.57	159.16
451.76	220.01
451.94	229.37
452.13	243.42
452.31	285.55
452.49	203.63
452.68	248.10
452.86	173.20
453.05	238.73
453.23	250.44
453.42	203.63
453.60	248.10
453.78	203.63
453.97	227.03
454.15	262.14
454.34	227.03
454.52	173.20
454.70	344.06
454.89	224.69
455.07	229.37
455.26	248.10
455.44	217.67
455.62	196.60
455.81	217.67
455.99	170.86
456.17	205.97
456.36	229.37
456.54	166.18
456.73	222.35
456.91	170.86
457.09	280.86
457.28	304.27
457.46	187.24
457.64	212.99
457.83	208.31
458.01	241.08
458.19	182.56
458.38	217.67
458.56	252.78
458.74	212.99
458.93	196.60
459.11	198.95
459.29	217.67
459.48	259.80
459.66	266.82
459.84	255.12
460.03	308.95
460.21	358.10
460.39	196.60
460.57	205.97
460.76	215.33
460.94	255.12
461.12	276.18
461.31	320.65
461.49	255.12
461.67	245.76
461.85	198.95
462.04	241.08
462.22	732.59
462.40	299.59
462.59	341.72
462.77	255.12
462.95	224.69
463.13	175.54
463.32	236.39
463.50	266.82
463.68	306.61
463.86	229.37
464.05	224.69
464.23	327.68
464.41	294.91
464.59	170.86
464.78	259.80
464.96	290.23
465.14	308.95
465.32	245.76
465.50	248.10
465.69	304.27
465.87	227.03
466.05	255.12
466.23	273.84
466.41	278.52
466.60	264.48
466.78	189.58
466.96	222.35
467.14	280.86
467.32	187.24
467.51	180.22
467.69	180.22
467.87	273.84
468.05	259.80
468.23	262.14
468.41	241.08
468.60	205.97
468.78	203.63
468.96	285.55
469.14	306.61
469.32	194.26
469.50	222.35
469.69	245.76
469.87	325.33
470.05	245.76
470.23	194.26
470.41	189.58
470.59	177.88
470.77	255.12
470.95	262.14
471.14	301.93
471.32	306.61
471.50	273.84
471.68	276.18
471.86	330.02
472.04	243.42
472.22	287.89
472.40	278.52
472.58	187.24
472.77	205.97
472.95	248.10
473.13	259.80
473.31	294.91
473.49	278.52
473.67	234.05
473.85	245.76
474.03	287.89
474.21	311.29
474.39	313.63
474.57	266.82
474.75	257.46
474.93	180.22
475.12	255.12
475.30	292.57
475.48	304.27
475.66	304.27
475.84	264.48
476.02	297.25
476.20	245.76
476.38	308.95
476.56	252.78
476.74	285.55
476.92	269.16
477.10	248.10
477.28	339.38
477.46	280.86
477.64	299.59
477.82	315.97
478.00	266.82
478.18	257.46
478.36	248.10
478.54	348.74
478.72	278.52
478.90	360.44
479.08	306.61
479.26	196.60
479.44	353.42
479.62	318.31
479.80	299.59
479.98	280.86
480.16	241.08
480.34	308.95
480.52	327.68
480.70	318.31
480.88	294.91
481.06	327.68
481.24	292.57
481.41	250.44
481.59	308.95
481.77	297.25
481.95	262.14
482.13	332.36
482.31	315.97
482.49	294.91
482.67	390.87
482.85	322.99
483.03	280.86
483.21	255.12
483.39	322.99
483.57	334.70
483.74	351.08
483.92	278.52
484.10	283.20
484.28	287.89
484.46	334.70
484.64	362.78
484.82	308.95
485.00	318.31
485.18	294.91
485.35	365.12
485.53	400.23
485.71	381.51
485.89	332.36
486.07	339.38
486.25	430.66
486.43	379.17
486.61	344.06
486.78	257.46
486.96	283.20
487.14	365.12
487.32	306.61
487.50	330.02
487.68	337.04
487.85	306.61
488.03	322.99
488.21	381.51
488.39	362.78
488.57	463.43
488.75	374.49
488.92	685.78
489.10	369.80
489.28	360.44
489.46	447.04
489.64	428.32
489.81	362.78
489.99	407.25
490.17	379.17
490.35	360.44
490.53	325.33
490.70	337.04
490.88	409.59
491.06	425.98
491.24	411.93
491.41	449.38
491.59	475.13
491.77	353.42
491.95	379.17
492.13	313.63
492.30	395.55
492.48	472.79
492.66	430.66
492.84	433.00
493.01	414.27
493.19	425.98
493.37	416.62
493.54	388.53
493.72	430.66
493.90	498.53
494.08	421.30
494.25	468.11
494.43	407.25
494.61	428.32
494.79	407.25
494.96	454.06
495.14	456.40
495.32	433.00
495.49	440.02
495.67	440.02
495.85	416.62
496.02	416.62
496.20	545.34
496.38	484.49
496.55	503.22
496.73	489.17
496.91	414.27
497.09	449.38
497.26	507.90
497.44	468.11
497.62	440.02
497.79	514.92
497.97	430.66
498.14	472.79
498.32	454.06
498.50	524.28
498.67	498.53
498.85	444.70
499.03	425.98
499.20	472.79
499.38	533.64
499.56	514.92
499.73	617.90
499.91	407.25
500.08	524.28
500.26	430.66
500.44	458.74
500.61	421.30
500.79	463.43
500.97	454.06
501.14	535.98
501.32	496.19
501.49	524.28
501.67	440.02
501.84	507.90
502.02	489.17
502.20	566.41
502.37	456.40
502.55	454.06
502.72	482.15
502.90	531.30
503.07	496.19
503.25	458.74
503.43	456.40
503.60	484.49
503.78	472.79
503.95	496.19
504.13	491.51
504.30	566.41
504.48	585.13
504.65	543.00
504.83	564.07
505.01	514.92
505.18	517.26
505.36	472.79
505.53	447.04
505.71	521.94
505.88	573.43
506.06	428.32
506.23	498.53
506.41	573.43
506.58	496.19
506.76	526.62
506.93	540.66
507.11	482.15
507.28	517.26
507.46	524.28
507.63	524.28
507.81	440.02
507.98	496.19
508.16	510.24
508.33	442.36
508.50	578.11
508.68	540.66
508.85	578.11
509.03	561.73
509.20	517.26
509.38	571.09
509.55	557.05
509.73	582.79
509.90	596.84
510.08	538.32
510.25	578.11
510.42	552.37
510.60	526.62
510.77	510.24
510.95	557.05
511.12	594.50
511.30	547.69
511.47	514.92
511.64	613.22
511.82	552.37
511.99	550.03
512.17	571.09
512.34	559.39
512.51	533.64
512.69	557.05
512.86	589.82
513.04	524.28
513.21	500.87
513.38	519.60
513.56	578.11
513.73	514.92
513.90	524.28
514.08	521.94
514.25	535.98
514.43	524.28
514.60	447.04
514.77	550.03
514.95	566.41
515.12	545.34
515.29	442.36
515.47	507.90
515.64	517.26
515.81	528.96
515.99	533.64
516.16	580.45
516.33	552.37
516.51	498.53
516.68	582.79
516.85	603.86
517.03	526.62
517.20	557.05
517.37	587.47
517.54	587.47
517.72	587.47
517.89	507.90
518.06	540.66
518.24	629.60
518.41	650.67
518.58	622.58
518.75	444.70
518.93	517.26
519.10	524.28
519.27	585.13
519.45	475.13
519.62	550.03
519.79	650.67
519.96	603.86
520.14	645.99
520.31	636.63
520.48	594.50
520.65	524.28
520.83	699.82
521.00	636.63
521.17	638.97
521.34	550.03
521.52	512.58
521.69	580.45
521.86	608.54
522.03	664.71
522.20	650.67
522.38	564.07
522.55	636.63
522.72	585.13
522.89	716.20
523.07	603.86
523.24	636.63
523.41	636.63
523.58	660.03
523.75	528.96
523.92	575.77
524.10	624.92
524.27	622.58
524.44	594.50
524.61	613.22
524.78	660.03
524.96	587.47
525.13	585.13
525.30	688.12
525.47	634.29
525.64	674.07
525.81	627.26
525.98	634.29
526.16	624.92
526.33	514.92
526.50	664.71
526.67	587.47
526.84	578.11
527.01	627.26
527.18	601.52
527.36	568.75
527.53	730.25
527.70	662.37
527.87	629.60
528.04	732.59
528.21	608.54
528.38	622.58
528.55	634.29
528.72	662.37
528.89	676.41
529.07	547.69
529.24	596.84
529.41	688.12
529.58	589.82
529.75	589.82
529.92	627.26
530.09	571.09
530.26	606.20
530.43	664.71
530.60	650.67
530.77	697.48
530.94	575.77
531.11	645.99
531.28	589.82
531.46	552.37
531.63	627.26
531.80	702.16
531.97	599.18
532.14	667.05
532.31	615.56
532.48	653.01
532.65	610.88
532.82	552.37
532.99	571.09
533.16	603.86
533.33	662.37
533.50	629.60
533.67	669.39
533.84	601.52
534.01	671.73
534.18	603.86
534.35	660.03
534.52	638.97
534.69	674.07
534.86	571.09
535.03	669.39
535.20	624.92
535.37	645.99
535.54	608.54
535.71	671.73
535.88	720.88
536.05	699.82
536.22	695.14
536.38	648.33
536.55	608.54
536.72	645.99
536.89	601.52
537.06	643.65
537.23	709.18
537.40	634.29
537.57	596.84
537.74	685.78
537.91	624.92
538.08	610.88
538.25	636.63
538.42	744.29
538.59	622.58
538.75	601.52
538.92	674.07
539.09	608.54
539.26	610.88
539.43	681.10
539.60	730.25
539.77	676.41
539.94	599.18
540.11	727.91
540.28	650.67
540.44	599.18
540.61	704.50
540.78	629.60
540.95	709.18
541.12	725.57
541.29	660.03
541.46	763.01
541.62	660.03
541.79	554.71
541.96	716.20
542.13	617.90
542.30	631.94
542.47	634.29
542.63	690.46
542.80	643.65
542.97	660.03
543.14	704.50
543.31	751.31
543.48	648.33
543.64	692.80
543.81	594.50
543.98	543.00
544.15	643.65
544.32	664.71
544.48	629.60
544.65	660.03
544.82	669.39
544.99	578.11
545.16	671.73
545.32	629.60
545.49	669.39
545.66	725.57
545.83	697.48
546.00	690.46
546.16	678.76
546.33	664.71
546.50	615.56
546.67	709.18
546.83	655.35
547.00	613.22
547.17	678.76
547.34	580.45
547.50	641.31
547.67	688.12
547.84	650.67
548.00	741.95
548.17	648.33
548.34	739.61
548.51	739.61
548.67	636.63
548.84	667.05
549.01	636.63
549.18	671.73
549.34	744.29
549.51	610.88
549.68	674.07
549.84	711.52
550.01	624.92
550.18	741.95
550.34	702.16
550.51	638.97
550.68	702.16
550.84	692.80
551.01	697.48
551.18	674.07
551.34	662.37
551.51	699.82
551.68	718.54
551.84	702.16
552.01	716.20
552.18	622.58
552.34	709.18
552.51	678.76
552.68	580.45
552.84	702.16
553.01	645.99
553.18	739.61
553.34	669.39
553.51	727.91
553.67	608.54
553.84	751.31
554.01	678.76
554.17	681.10
554.34	681.10
554.51	650.67
554.67	741.95
554.84	765.36
555.00	720.88
555.17	648.33
555.33	725.57
555.50	678.76
555.67	690.46
555.83	662.37
556.00	734.93
556.16	884.72
556.33	723.23
556.50	711.52
556.66	667.05
556.83	737.27
556.99	695.14
557.16	688.12
557.32	667.05
557.49	765.36
557.65	702.16
557.82	664.71
557.98	704.50
558.15	650.67
558.32	636.63
558.48	678.76
558.65	734.93
558.81	650.67
558.98	660.03
559.14	734.93
559.31	711.52
559.47	716.20
559.64	699.82
559.80	720.88
559.97	674.07
560.13	676.41
560.30	643.65
560.46	688.12
560.63	667.05
560.79	720.88
560.96	765.36
561.12	695.14
561.29	669.39
561.45	608.54
561.61	653.01
561.78	779.40
561.94	737.27
562.11	706.84
562.27	695.14
562.44	741.95
562.60	638.97
562.77	617.90
562.93	732.59
563.10	739.61
563.26	657.69
563.42	699.82
563.59	638.97
563.75	648.33
563.92	748.97
564.08	737.27
564.24	725.57
564.41	692.80
564.57	744.29
564.74	688.12
564.90	695.14
565.07	711.52
565.23	643.65
565.39	620.24
565.56	669.39
565.72	664.71
565.88	613.22
566.05	521.94
566.21	678.76
566.38	613.22
566.54	711.52
566.70	690.46
566.87	667.05
567.03	720.88
567.19	655.35
567.36	734.93
567.52	713.86
567.68	758.33
567.85	676.41
568.01	629.60
568.17	697.48
568.34	655.35
568.50	713.86
568.66	631.94
568.83	706.84
568.99	674.07
569.15	739.61
569.32	725.57
569.48	629.60
569.64	543.00
569.81	638.97
569.97	662.37
570.13	702.16
570.30	608.54
570.46	669.39
570.62	634.29
570.78	653.01
570.95	622.58
571.11	802.80
571.27	748.97
571.43	610.88
571.60	748.97
571.76	627.26
571.92	655.35
572.09	730.25
572.25	683.44
572.41	704.50
572.57	596.84
572.74	678.76
572.90	695.14
573.06	620.24
573.22	638.97
573.38	624.92
573.55	690.46
573.71	711.52
573.87	678.76
574.03	737.27
574.20	653.01
574.36	744.29
574.52	608.54
574.68	617.90
574.84	681.10
575.01	695.14
575.17	669.39
575.33	690.46
575.49	741.95
575.65	751.31
575.82	720.88
575.98	678.76
576.14	667.05
576.30	676.41
576.46	608.54
576.62	596.84
576.79	664.71
576.95	748.97
577.11	706.84
577.27	734.93
577.43	674.07
577.59	676.41
577.75	650.67
577.92	610.88
578.08	716.20
578.24	638.97
578.40	636.63
578.56	657.69
578.72	674.07
578.88	716.20
579.04	688.12
579.21	678.76
579.37	718.54
579.53	699.82
579.69	699.82
579.85	674.07
580.01	662.37
580.17	660.03
580.33	739.61
580.49	648.33
580.65	669.39
580.82	641.31
580.98	662.37
581.14	697.48
581.30	627.26
581.46	723.23
581.62	718.54
581.78	655.35
581.94	760.67
582.10	627.26
582.26	676.41
582.42	617.90
582.58	748.97
582.74	681.10
582.90	683.44
583.06	681.10
583.22	678.76
583.38	636.63
583.54	629.60
583.70	779.40
583.86	739.61
584.02	634.29
584.18	702.16
584.34	657.69
584.50	725.57
584.66	716.20
584.82	650.67
584.98	706.84
585.14	580.45
585.30	697.48
585.46	692.80
585.62	734.93
585.78	671.73
585.94	692.80
586.10	631.94
586.26	660.03
586.42	695.14
586.58	774.72
586.74	685.78
586.90	634.29
587.06	657.69
587.22	683.44
587.38	674.07
587.54	681.10
587.70	653.01
587.86	613.22
588.02	669.39
588.18	690.46
588.34	690.46
588.49	575.77
588.65	636.63
588.81	709.18
588.97	617.90
589.13	650.67
589.29	596.84
589.45	688.12
589.61	653.01
589.77	704.50
589.93	638.97
590.08	599.18
590.24	695.14
590.40	702.16
590.56	662.37
590.72	706.84
590.88	671.73
591.04	753.65
591.20	671.73
591.35	772.38
591.51	613.22
591.67	653.01
591.83	734.93
591.99	685.78
592.15	655.35
592.31	662.37
592.46	615.56
592.62	671.73
592.78	648.33
592.94	575.77
593.10	734.93
593.26	655.35
593.41	669.39
593.57	678.76
593.73	702.16
593.89	734.93
594.05	624.92
594.20	592.16
594.36	629.60
594.52	589.82
594.68	587.47
594.84	629.60
594.99	671.73
595.15	781.74
595.31	657.69
595.47	786.42
595.62	617.90
595.78	688.12
595.94	723.23
596.10	662.37
596.25	657.69
596.41	746.63
596.57	688.12
596.73	685.78
596.88	720.88
597.04	805.14
597.20	653.01
597.36	692.80
597.51	606.20
597.67	690.46
597.83	580.45
597.99	688.12
598.14	683.44
598.30	671.73
598.46	638.97
598.61	758.33
598.77	627.26
598.93	613.22
599.09	636.63
599.24	755.99
599.40	690.46
599.56	613.22
599.71	699.82
599.87	655.35
600.03	657.69
600.18	650.67
600.34	711.52
600.50	631.94
600.65	676.41
600.81	688.12
600.97	582.79
601.12	767.70
601.28	702.16
601.44	723.23
601.59	662.37
601.75	660.03
601.91	636.63
602.06	594.50
602.22	636.63
602.37	660.03
602.53	683.44
602.69	699.82
602.84	559.39
603.00	660.03
603.16	645.99
603.31	678.76
603.47	688.12
603.62	648.33
603.78	631.94
603.94	655.35
604.09	596.84
604.25	669.39
604.40	699.82
604.56	629.60
604.71	660.03
604.87	615.56
605.03	706.84
605.18	660.03
605.34	634.29
605.49	636.63
605.65	704.50
605.80	683.44
605.96	741.95
606.12	755.99
606.27	645.99
606.43	615.56
606.58	683.44
606.74	624.92
606.89	561.73
607.05	615.56
607.20	627.26
607.36	753.65
607.51	667.05
607.67	631.94
607.82	573.43
607.98	678.76
608.13	664.71
608.29	667.05
608.44	706.84
608.60	620.24
608.75	709.18
608.91	671.73
609.06	638.97
609.22	645.99
609.37	587.47
609.53	697.48
609.68	706.84
609.84	617.90
609.99	718.54
610.15	662.37
610.30	617.90
610.46	704.50
610.61	681.10
610.76	653.01
610.92	674.07
611.07	641.31
611.23	706.84
611.38	620.24
611.54	631.94
611.69	655.35
611.84	596.84
612.00	587.47
612.15	695.14
612.31	645.99
612.46	713.86
612.62	622.58
612.77	566.41
612.92	685.78
613.08	709.18
613.23	615.56
613.39	603.86
613.54	599.18
613.69	655.35
613.85	641.31
614.00	620.24
614.15	683.44
614.31	592.16
614.46	582.79
614.62	685.78
614.77	603.86
614.92	617.90
615.08	678.76
615.23	655.35
615.38	674.07
615.54	550.03
615.69	648.33
615.84	629.60
616.00	655.35
616.15	648.33
616.30	660.03
616.46	683.44
616.61	599.18
616.76	671.73
616.92	662.37
617.07	704.50
617.22	641.31
617.37	617.90
617.53	667.05
617.68	615.56
617.83	664.71
617.99	589.82
618.14	582.79
618.29	706.84
618.45	575.77
618.60	662.37
618.75	627.26
618.90	517.26
619.06	634.29
619.21	564.07
619.36	627.26
619.51	592.16
619.67	557.05
619.82	599.18
619.97	662.37
620.12	636.63
620.28	599.18
620.43	557.05
620.58	688.12
620.73	657.69
620.89	631.94
621.04	566.41
621.19	650.67
621.34	603.86
621.49	578.11
621.65	657.69
621.80	535.98
621.95	627.26
622.10	653.01
622.25	631.94
622.41	634.29
622.56	566.41
622.71	566.41
622.86	692.80
623.01	571.09
623.16	681.10
623.32	550.03
623.47	634.29
623.62	540.66
623.77	557.05
623.92	634.29
624.07	578.11
624.23	587.47
624.38	592.16
624.53	634.29
624.68	608.54
624.83	606.20
624.98	580.45
625.13	594.50
625.29	676.41
625.44	690.46
625.59	606.20
625.74	627.26
625.89	603.86
626.04	535.98
626.19	493.85
626.34	608.54
626.49	624.92
626.65	479.81
626.80	585.13
626.95	643.65
627.10	606.20
627.25	594.50
627.40	634.29
627.55	538.32
627.70	624.92
627.85	636.63
628.00	594.50
628.15	610.88
628.30	653.01
628.45	582.79
628.60	622.58
628.76	580.45
628.91	552.37
629.06	524.28
629.21	531.30
629.36	620.24
629.51	552.37
629.66	540.66
629.81	660.03
629.96	585.13
630.11	624.92
630.26	629.60
630.41	629.60
630.56	631.94
630.71	599.18
630.86	620.24
631.01	557.05
631.16	510.24
631.31	667.05
631.46	627.26
631.61	533.64
631.76	571.09
631.91	599.18
632.06	580.45
632.21	557.05
632.36	573.43
632.51	578.11
632.66	550.03
632.81	636.63
632.96	606.20
633.10	599.18
633.25	690.46
633.40	573.43
633.55	589.82
633.70	601.52
633.85	552.37
634.00	514.92
634.15	634.29
634.30	568.75
634.45	657.69
634.60	603.86
634.75	608.54
634.90	571.09
635.05	533.64
635.19	543.00
635.34	589.82
635.49	638.97
635.64	561.73
635.79	580.45
635.94	517.26
636.09	610.88
636.24	538.32
636.39	535.98
636.53	634.29
636.68	482.15
636.83	578.11
636.98	596.84
637.13	580.45
637.28	545.34
637.43	709.18
637.57	631.94
637.72	624.92
637.87	510.24
638.02	468.11
638.17	620.24
638.32	582.79
638.46	564.07
638.61	610.88
638.76	566.41
638.91	524.28
639.06	599.18
639.20	622.58
639.35	636.63
639.50	610.88
639.65	620.24
639.80	573.43
639.94	552.37
640.09	519.60
640.24	559.39
640.39	524.28
640.54	580.45
640.68	603.86
640.83	608.54
640.98	660.03
641.13	561.73
641.27	573.43
641.42	568.75
641.57	608.54
641.72	547.69
641.86	533.64
642.01	535.98
642.16	573.43
642.31	582.79
642.45	601.52
642.60	634.29
642.75	568.75
642.90	514.92
643.04	507.90
643.19	444.70
643.34	521.94
643.48	559.39
643.63	557.05
643.78	624.92
643.93	653.01
644.07	535.98
644.22	552.37
644.37	557.05
644.51	538.32
644.66	627.26
644.81	528.96
644.95	610.88
645.10	528.96
645.25	512.58
645.39	664.71
645.54	538.32
645.69	615.56
645.83	554.71
645.98	608.54
646.13	500.87
646.27	545.34
646.42	568.75
646.57	503.22
646.71	526.62
646.86	566.41
647.00	564.07
647.15	531.30
647.30	498.53
647.44	496.19
647.59	582.79
647.74	512.58
647.88	589.82
648.03	512.58
648.17	580.45
648.32	500.87
648.47	573.43
648.61	545.34
648.76	543.00
648.90	566.41
649.05	620.24
649.20	550.03
649.34	510.24
649.49	552.37
649.63	526.62
649.78	477.47
649.92	484.49
650.07	664.71
650.21	519.60
650.36	589.82
650.51	568.75
650.65	507.90
650.80	575.77
650.94	561.73
651.09	517.26
651.23	547.69
651.38	486.83
651.52	447.04
651.67	440.02
651.81	475.13
651.96	517.26
652.10	613.22
652.25	592.16
652.39	517.26
652.54	594.50
652.68	489.17
652.83	505.56
652.97	531.30
653.12	491.51
653.26	540.66
653.41	561.73
653.55	514.92
653.70	566.41
653.84	461.09
653.99	580.45
654.13	479.81
654.27	496.19
654.42	594.50
654.56	524.28
654.71	578.11
654.85	484.49
655.00	559.39
655.14	514.92
655.29	554.71
655.43	512.58
655.57	528.96
655.72	585.13
655.86	528.96
656.01	486.83
656.15	552.37
656.30	629.60
656.44	468.11
656.58	486.83
656.73	484.49
656.87	498.53
657.01	489.17
657.16	533.64
657.30	528.96
657.45	479.81
657.59	636.63
657.73	557.05
657.88	531.30
658.02	531.30
658.16	491.51
658.31	489.17
658.45	543.00
658.60	503.22
658.74	561.73
658.88	526.62
659.03	482.15
659.17	535.98
659.31	461.09
659.46	479.81
659.60	587.47
659.74	491.51
659.89	540.66
660.03	465.77
660.17	566.41
660.32	585.13
660.46	503.22
660.60	407.25
660.74	496.19
660.89	498.53
661.03	456.40
661.17	407.25
661.32	545.34
661.46	521.94
661.60	500.87
661.74	524.28
661.89	578.11
662.03	517.26
662.17	531.30
662.31	486.83
662.46	533.64
662.60	486.83
662.74	507.90
662.88	411.93
663.03	489.17
663.17	575.77
663.31	503.22
663.45	489.17
663.60	507.90
663.74	468.11
663.88	435.34
664.02	486.83
664.17	472.79
664.31	554.71
664.45	580.45
664.59	500.87
664.73	571.09
664.88	514.92
665.02	458.74
665.16	465.77
665.30	552.37
665.44	468.11
665.59	554.71
665.73	575.77
665.87	477.47
666.01	433.00
666.15	571.09
666.29	468.11
666.44	589.82
666.58	578.11
666.72	414.27
666.86	505.56
667.00	543.00
667.14	482.15
667.28	496.19
667.43	470.45
667.57	521.94
667.71	477.47
667.85	484.49
667.99	477.47
668.13	444.70
668.27	512.58
668.41	461.09
668.56	407.25
668.70	535.98
668.84	496.19
668.98	465.77
669.12	491.51
669.26	435.34
669.40	535.98
669.54	486.83
669.68	510.24
669.82	386.19
669.96	559.39
670.10	449.38
670.25	486.83
670.39	493.85
670.53	430.66
670.67	456.40
670.81	390.87
670.95	395.55
671.09	451.72
671.23	465.77
671.37	479.81
671.51	538.32
671.65	456.40
671.79	472.79
671.93	550.03
672.07	498.53
672.21	521.94
672.35	458.74
672.49	458.74
672.63	486.83
672.77	512.58
672.91	437.68
673.05	449.38
673.19	470.45
673.33	451.72
673.47	418.96
673.61	433.00
673.75	425.98
673.89	440.02
674.03	409.59
674.17	454.06
674.31	442.36
674.45	418.96
674.59	428.32
674.73	425.98
674.87	386.19
675.01	435.34
675.15	411.93
675.29	451.72
675.43	486.83
675.56	528.96
675.70	491.51
675.84	479.81
675.98	425.98
676.12	437.68
676.26	374.49
676.40	456.40
676.54	447.04
676.68	449.38
676.82	557.05
676.96	447.04
677.10	409.59
677.23	482.15
677.37	500.87
677.51	447.04
677.65	472.79
677.79	383.85
677.93	435.34
678.07	440.02
678.21	393.21
678.34	447.04
678.48	397.89
678.62	411.93
678.76	418.96
678.90	402.57
679.04	334.70
679.18	423.64
679.31	315.97
679.45	337.04
679.59	388.53
679.73	337.04
679.87	390.87
680.00	442.36
680.14	372.15
680.28	416.62
680.42	402.57
680.56	372.15
680.70	465.77
680.83	442.36
680.97	400.23
681.11	397.89
681.25	444.70
681.39	463.43
681.52	365.12
681.66	411.93
681.80	388.53
681.94	381.51
682.07	355.76
682.21	442.36
682.35	355.76
682.49	381.51
682.62	369.80
682.76	311.29
682.90	397.89
683.04	435.34
683.17	337.04
683.31	362.78
683.45	430.66
683.59	456.40
683.72	440.02
683.86	360.44
684.00	362.78
684.13	444.70
684.27	369.80
684.41	390.87
684.55	388.53
684.68	430.66
684.82	402.57
684.96	388.53
685.09	390.87
685.23	386.19
685.37	308.95
685.50	304.27
685.64	311.29
685.78	402.57
685.91	339.38
686.05	376.83
686.19	416.62
686.32	365.12
686.46	339.38
686.60	393.21
686.73	486.83
686.87	346.40
687.01	358.10
687.14	278.52
687.28	283.20
687.42	315.97
687.55	414.27
687.69	372.15
687.82	313.63
687.96	388.53
688.10	402.57
688.23	360.44
688.37	322.99
688.50	334.70
688.64	334.70
688.78	278.52
688.91	297.25
689.05	311.29
689.18	313.63
689.32	390.87
689.46	259.80
689.59	346.40
689.73	311.29
689.86	304.27
690.00	341.72
690.13	313.63
690.27	313.63
690.41	367.46
690.54	351.08
690.68	353.42
690.81	304.27
690.95	285.55
691.08	341.72
691.22	313.63
691.35	344.06
691.49	292.57
691.62	318.31
691.76	334.70
691.89	292.57
692.03	241.08
692.16	285.55
692.30	355.76
692.43	365.12
692.57	259.80
692.70	285.55
692.84	238.73
692.97	276.18
693.11	346.40
693.24	297.25
693.38	337.04
693.51	337.04
693.65	322.99
693.78	334.70
693.92	327.68
694.05	292.57
694.19	278.52
694.32	306.61
694.45	386.19
694.59	278.52
694.72	332.36
694.86	273.84
694.99	264.48
695.13	285.55
695.26	332.36
695.39	362.78
695.53	360.44
695.66	255.12
695.80	285.55
695.93	264.48
696.07	322.99
696.20	278.52
696.33	278.52
696.47	266.82
696.60	290.23
696.73	283.20
696.87	266.82
697.00	327.68
697.14	262.14
697.27	287.89
697.40	362.78
697.54	259.80
697.67	264.48
697.80	283.20
697.94	315.97
698.07	271.50
698.21	201.29
698.34	320.65
698.47	271.50
698.61	217.67
698.74	252.78
698.87	297.25
699.01	266.82
699.14	269.16
699.27	287.89
699.40	423.64
699.54	322.99
699.67	283.20
699.80	313.63
699.94	280.86
700.07	234.05
700.20	245.76
700.34	269.16
700.47	245.76
700.60	283.20
700.73	194.26
700.87	308.95
701.00	276.18
701.13	283.20
701.26	250.44
701.40	355.76
701.53	229.37
701.66	266.82
701.79	290.23
701.93	294.91
702.06	297.25
702.19	159.16
702.32	229.37
702.46	311.29
702.59	191.92
702.72	191.92
702.85	299.59
702.99	175.54
703.12	320.65
703.25	292.57
703.38	245.76
703.51	280.86
703.65	212.99
703.78	236.39
703.91	276.18
704.04	311.29
704.17	311.29
704.31	217.67
704.44	215.33
704.57	257.46
704.70	290.23
704.83	231.71
704.96	264.48
705.10	315.97
705.23	271.50
>>>>>End Processed Spectral Data<<<<<
