SpectraSuite Data File
++++++++++++++++++++++++++++++++++++
Date: Fri Oct 04 11:48:28 GMT-05:00 2013
User: price-jones
Dark Spectrum Present: No
Reference Spectrum Present: No
Number of Sampled Component Spectra: 1
Spectrometers: USB2+H05261
Integration Time (usec): 100000 (USB2+H05261)
Spectra Averaged: 1 (USB2+H05261)
Boxcar Smoothing: 0 (USB2+H05261)
Correct for Electrical Dark: No (USB2+H05261)
Strobe/Lamp Enabled: No (USB2+H05261)
Correct for Detector Non-linearity: No (USB2+H05261)
Correct for Stray Light: No (USB2+H05261)
Number of Pixels in Processed Spectrum: 2048
>>>>>Begin Processed Spectral Data<<<<<
365.73	28.09
365.92	28.09
366.12	28.09
366.32	0.00
366.52	0.00
366.72	0.00
366.91	0.00
367.11	0.00
367.31	0.00
367.51	0.00
367.70	0.00
367.90	0.00
368.10	0.00
368.30	0.00
368.49	0.00
368.69	0.00
368.89	0.00
369.09	0.00
369.28	0.00
369.48	0.00
369.68	0.00
369.87	0.00
370.07	18.72
370.27	21.06
370.47	63.19
370.66	334.70
370.86	390.87
371.06	322.99
371.25	421.30
371.45	379.17
371.65	414.27
371.84	416.62
372.04	442.36
372.24	458.74
372.44	383.85
372.63	433.00
372.83	451.72
373.03	411.93
373.22	411.93
373.42	500.87
373.62	491.51
373.81	519.60
374.01	535.98
374.21	526.62
374.40	528.96
374.60	566.41
374.79	533.64
374.99	440.02
375.19	540.66
375.38	540.66
375.58	564.07
375.78	557.05
375.97	547.69
376.17	699.82
376.37	524.28
376.56	585.13
376.76	521.94
376.95	566.41
377.15	683.44
377.35	575.77
377.54	610.88
377.74	550.03
377.93	526.62
378.13	645.99
378.33	718.54
378.52	629.60
378.72	617.90
378.91	641.31
379.11	610.88
379.31	624.92
379.50	566.41
379.70	699.82
379.89	592.16
380.09	678.76
380.28	709.18
380.48	641.31
380.68	615.56
380.87	622.58
381.07	678.76
381.26	688.12
381.46	613.22
381.65	631.94
381.85	622.58
382.04	683.44
382.24	751.31
382.43	713.86
382.63	674.07
382.83	692.80
383.02	660.03
383.22	713.86
383.41	725.57
383.61	674.07
383.80	720.88
384.00	739.61
384.19	676.41
384.39	697.48
384.58	725.57
384.78	713.86
384.97	723.23
385.17	814.51
385.36	765.36
385.56	744.29
385.75	748.97
385.95	744.29
386.14	784.08
386.34	837.91
386.53	692.80
386.72	791.10
386.92	795.78
387.11	875.36
387.31	833.23
387.50	791.10
387.70	812.17
387.89	898.77
388.09	833.23
388.28	823.87
388.48	809.83
388.67	961.96
388.86	903.45
389.06	915.15
389.25	880.04
389.45	987.71
389.64	903.45
389.84	894.08
390.03	1064.94
390.22	917.49
390.42	861.32
390.61	922.17
390.81	1004.09
391.00	1011.11
391.19	959.62
391.39	987.71
391.58	961.96
391.78	1004.09
391.97	966.64
392.16	1064.94
392.36	987.71
392.55	1093.03
392.75	1081.33
392.94	983.02
393.13	1076.65
393.33	1111.75
393.52	1050.90
393.71	1067.28
393.91	1090.69
394.10	1076.65
394.29	1081.33
394.49	1086.01
394.68	1151.54
394.88	1193.67
395.07	1170.27
395.26	1259.21
395.46	1128.14
395.65	1203.04
395.84	1210.06
396.04	1231.12
396.23	1144.52
396.42	1207.72
396.62	1322.40
396.81	1268.57
397.00	1350.49
397.19	1303.68
397.39	1296.66
397.58	1401.98
397.77	1268.57
397.97	1345.81
398.16	1371.55
398.35	1376.24
398.55	1427.73
398.74	1387.94
398.93	1341.13
399.12	1306.02
399.32	1411.34
399.51	1430.07
399.70	1394.96
399.90	1472.20
400.09	1493.26
400.28	1437.09
400.47	1509.65
400.67	1535.39
400.86	1423.05
401.05	1500.28
401.24	1650.08
401.44	1549.43
401.63	1652.42
401.82	1558.80
402.01	1591.56
402.21	1703.91
402.40	1621.99
402.59	1598.59
402.78	1582.20
402.97	1582.20
403.17	1661.78
403.36	1614.97
403.55	1636.03
403.74	1720.29
403.93	1638.38
404.13	1678.16
404.32	1746.04
404.51	1722.63
404.70	1858.39
404.89	1804.55
405.09	1888.81
405.28	1863.07
405.47	1886.47
405.66	1937.96
405.85	1849.02
406.05	1898.17
406.24	1888.81
406.43	1874.77
406.62	1874.77
406.81	1937.96
407.00	1919.24
407.20	1982.43
407.39	1949.67
407.58	2038.61
407.77	2134.57
407.96	2003.50
408.15	2097.12
408.34	2127.55
408.54	2017.54
408.73	2059.67
408.92	2139.25
409.11	2157.97
409.30	2113.50
409.49	2160.31
409.68	2143.93
409.87	2249.25
410.07	2232.87
410.26	2289.04
410.45	2300.75
410.64	2120.53
410.83	2270.32
411.02	2349.90
411.21	2410.75
411.40	2382.67
411.59	2497.35
411.78	2469.27
411.98	2473.95
412.17	2495.01
412.36	2520.76
412.55	2520.76
412.74	2633.10
412.93	2602.68
413.12	2487.99
413.31	2834.39
413.50	2665.87
413.69	2665.87
413.88	2766.51
414.07	2719.70
414.26	2775.88
414.45	2848.43
414.64	2754.81
414.83	2904.60
415.02	2885.88
415.22	3030.99
415.41	3098.87
415.60	3068.44
415.79	3075.46
415.98	2967.80
416.17	3119.93
416.36	3117.59
416.55	3103.55
416.74	3166.74
416.93	3239.30
417.12	3152.70
417.31	3176.11
417.50	3218.24
417.69	3438.25
417.88	3248.66
418.07	3283.77
418.26	3197.17
418.45	3302.50
418.64	3410.16
418.83	3468.67
419.02	3494.42
419.21	3456.97
419.39	3571.66
419.58	3534.21
419.77	3466.33
419.96	3620.81
420.15	3564.64
420.34	3536.55
420.53	3492.08
420.72	3662.94
420.91	3606.77
421.10	3686.34
421.29	3707.41
421.48	3705.07
421.67	3744.86
421.86	3665.28
422.05	3761.24
422.24	3623.15
422.43	3763.58
422.61	3798.69
422.80	3798.69
422.99	3709.75
423.18	3758.90
423.37	3925.08
423.56	3861.88
423.75	3749.54
423.94	3712.09
424.13	3595.06
424.32	3712.09
424.50	3941.46
424.69	3906.35
424.88	3882.95
425.07	3786.99
425.26	3843.16
425.45	3840.82
425.64	3880.61
425.83	3929.76
426.01	3939.12
426.20	3948.48
426.39	3936.78
426.58	3873.59
426.77	3929.76
426.96	3913.38
427.15	3845.50
427.33	4145.09
427.52	4044.45
427.71	3974.23
427.90	4058.49
428.09	4112.32
428.28	4124.02
428.46	4126.36
428.65	4131.05
428.84	4177.86
429.03	4250.41
429.22	4100.62
429.40	4210.62
429.59	4320.63
429.78	4032.74
429.97	4007.00
430.16	4107.64
430.34	4402.55
430.53	4432.97
430.72	4503.19
430.91	4479.79
431.10	4320.63
431.28	4339.35
431.47	4327.65
431.66	4613.20
431.85	4507.87
432.03	4507.87
432.22	4655.33
432.41	4428.29
432.60	4676.39
432.79	4683.41
432.97	4681.07
433.16	4713.84
433.35	4734.90
433.54	4741.93
433.72	4746.61
433.91	4784.06
434.10	4760.65
434.28	4723.20
434.47	4880.02
434.66	4809.80
434.85	4755.97
435.03	4887.04
435.22	4880.02
435.41	4901.08
435.59	4994.70
435.78	5057.90
435.97	4961.94
436.16	5081.30
436.34	5025.13
436.53	5081.30
436.72	5163.22
436.90	5008.75
437.09	5139.82
437.28	5167.90
437.46	5121.09
437.65	5268.55
437.84	5294.29
438.02	5217.05
438.21	5226.42
438.40	5504.94
438.58	5378.55
438.77	5453.45
438.96	5540.05
439.14	5460.47
439.33	5504.94
439.52	5469.83
439.70	5593.88
439.89	5694.52
440.08	5804.53
440.26	5858.36
440.45	5685.16
440.63	5980.07
440.82	5860.70
441.01	5905.17
441.19	5930.92
441.38	6164.97
441.57	6085.39
441.75	6054.97
441.94	6169.65
442.12	6312.42
442.31	6380.30
442.50	6246.89
442.68	6230.51
442.87	6354.55
443.05	6333.49
443.24	6438.81
443.43	6305.40
443.61	6537.12
443.80	6597.97
443.98	6443.49
444.17	6394.34
444.35	6558.18
444.54	6478.60
444.73	6537.12
444.91	6560.52
445.10	6490.31
445.28	6473.92
445.47	6441.15
445.65	6490.31
445.84	6663.51
446.02	6810.96
446.21	6537.12
446.39	6452.86
446.58	6635.42
446.77	6738.40
446.95	6516.05
447.14	6492.65
447.32	6684.57
447.51	6651.80
447.69	6878.83
447.88	6813.30
448.06	6658.82
448.25	6724.36
448.43	6733.72
448.62	6644.78
448.80	6719.68
448.99	6548.82
449.17	6768.83
449.36	6654.14
449.54	6876.49
449.73	6857.77
449.91	6979.48
450.10	7028.63
450.28	7077.78
450.46	7110.55
450.65	7016.93
450.83	7084.80
451.02	7283.75
451.20	7136.29
451.39	7279.07
451.57	7342.26
451.76	7176.08
451.94	7173.74
452.13	7339.92
452.31	7183.10
452.49	7199.49
452.68	7543.55
452.86	7332.90
453.05	7290.77
453.23	7382.05
453.42	7300.13
453.60	7431.20
453.78	7506.10
453.97	7595.04
454.15	7375.03
454.34	7468.65
454.52	7786.96
454.70	7499.08
454.89	7777.60
455.07	7707.38
455.26	7721.43
455.44	7777.60
455.62	7784.62
455.81	7801.01
455.99	7817.39
456.17	8028.04
456.36	7616.10
456.54	7976.55
456.73	7936.76
456.91	8072.51
457.09	8201.24
457.28	8154.43
457.46	8065.49
457.64	8042.08
457.83	8194.22
458.01	8046.76
458.19	8421.25
458.38	8088.89
458.56	8610.83
458.74	8477.42
458.93	8397.84
459.11	8423.59
459.29	8416.57
459.48	8615.51
459.66	8538.27
459.84	8535.93
460.03	8746.58
460.21	8475.08
460.39	8540.61
460.57	8561.68
460.76	8664.66
460.94	8582.74
461.12	8571.04
461.31	8580.40
461.49	8929.14
461.67	8664.66
461.85	8882.33
462.04	8765.31
462.22	9275.54
462.40	9004.04
462.59	9217.03
462.77	8936.17
462.95	9013.40
463.13	9001.70
463.32	9308.31
463.50	9202.99
463.68	9092.98
463.86	9125.75
464.05	9100.00
464.23	9118.73
464.41	9202.99
464.59	9289.59
464.78	9277.88
464.96	9287.25
465.14	9207.67
465.32	9273.20
465.50	9542.36
465.69	9607.90
465.87	9289.59
466.05	9385.55
466.23	9312.99
466.41	9511.94
466.60	9650.03
466.78	9305.97
466.96	9451.08
467.14	9467.47
467.32	9713.22
467.51	9928.55
467.69	9493.21
467.87	9797.48
468.05	9900.47
468.23	9696.84
468.41	9673.43
468.60	9827.91
468.78	9987.07
468.96	9900.47
469.14	9858.34
469.32	10092.39
469.50	9776.42
469.69	9846.63
469.87	10134.52
470.05	10265.59
470.23	10361.55
470.41	10171.97
470.59	10326.44
470.77	10396.66
470.95	10305.38
471.14	10600.29
471.32	10265.59
471.50	10714.97
471.68	10562.84
471.86	10593.26
472.04	10832.00
472.22	10855.40
472.40	10689.23
472.58	10778.17
472.77	10827.32
472.95	11180.74
473.13	11431.18
473.31	11089.46
473.49	11089.46
473.67	11091.80
473.85	11204.14
474.03	11269.68
474.21	11655.87
474.39	11557.57
474.57	11660.55
474.75	11538.84
474.93	11782.26
475.12	11529.48
475.30	11800.98
475.48	11665.23
475.66	11941.41
475.84	11920.35
476.02	12159.08
476.20	12044.40
476.38	12180.15
476.56	12461.01
476.74	12409.52
476.92	12442.29
477.10	12362.71
477.28	12706.77
477.46	12449.31
477.64	12905.71
477.82	13312.97
478.00	13390.20
478.18	13107.00
478.36	13202.96
478.54	13383.18
478.72	13624.26
478.90	13460.42
479.08	13933.21
479.26	13949.59
479.44	14270.25
479.62	13832.57
479.80	14057.26
479.98	14270.25
480.16	14417.70
480.34	14136.84
480.52	14675.16
480.70	14434.08
480.88	14380.25
481.06	14700.90
481.24	14869.42
481.41	14988.79
481.59	15290.72
481.77	15442.85
481.95	15417.11
482.13	15281.36
482.31	15484.98
482.49	15915.64
482.67	15747.12
482.85	16159.06
483.03	15955.43
483.21	16388.43
483.39	16514.82
483.57	16542.91
483.74	16767.60
483.92	16805.05
484.10	16720.79
484.28	17097.61
484.46	17238.05
484.64	17750.62
484.82	17015.69
485.00	17610.19
485.18	17781.05
485.35	17905.10
485.53	17940.21
485.71	17984.68
485.89	18190.64
486.07	18352.14
486.25	18551.09
486.43	18647.05
486.61	18590.88
486.78	18853.02
486.96	18803.86
487.14	19454.53
487.32	19253.25
487.50	19180.69
487.68	19571.56
487.85	20102.86
488.03	19833.70
488.21	20365.00
488.39	20287.76
488.57	20383.73
488.75	20400.11
488.92	20730.12
489.10	20830.77
489.28	21029.71
489.46	21348.03
489.64	21193.55
489.81	21846.56
489.99	21788.05
490.17	21774.00
490.35	21979.97
490.53	22120.40
490.70	22621.28
490.88	22328.71
491.06	22731.28
491.24	22251.47
491.41	22836.61
491.59	23264.92
491.77	22827.24
491.95	23346.84
492.13	23606.64
492.30	23501.32
492.48	23737.71
492.66	23693.24
492.84	23810.27
493.01	24154.33
493.19	24088.79
493.37	24102.84
493.54	24666.91
493.72	24369.66
493.90	24559.24
494.08	24779.25
494.25	25338.64
494.43	25266.08
494.61	25338.64
494.79	25483.75
494.96	25270.76
495.14	25626.53
495.32	25891.01
495.49	25757.60
495.67	26324.01
495.85	26349.75
496.02	26579.12
496.20	26948.93
496.38	26469.12
496.55	26864.67
496.73	27545.76
496.91	27520.02
497.09	27381.93
497.26	27646.41
497.44	27718.96
497.62	27798.54
497.79	27810.25
497.97	28009.19
498.14	28603.69
498.32	28409.42
498.50	28421.13
498.67	28645.82
498.85	28830.72
499.03	28917.32
499.20	29366.70
499.38	29165.42
499.56	29163.08
499.73	29549.26
499.91	28975.83
500.08	30045.46
500.26	29673.31
500.44	29582.03
500.61	29818.42
500.79	30150.78
500.97	30366.11
501.14	30621.23
501.32	30438.67
501.49	30396.54
501.67	30419.94
501.84	30485.48
502.02	30789.75
502.20	31005.08
502.37	31421.69
502.55	31180.62
502.72	31398.29
502.90	31412.33
503.07	31105.72
503.25	31398.29
503.43	31180.62
503.60	31995.12
503.78	31929.59
503.95	31796.18
504.13	32182.37
504.30	31976.40
504.48	31807.88
504.65	32205.77
504.83	32510.04
505.01	32711.33
505.18	32243.22
505.36	32814.31
505.53	32521.74
505.71	32498.34
505.88	33043.68
506.06	33266.03
506.23	33275.40
506.41	33125.60
506.58	33687.33
506.76	33567.96
506.93	33626.48
507.11	33668.61
507.28	33790.31
507.46	33816.06
507.63	34185.86
507.81	34270.12
507.98	34663.33
508.16	34134.37
508.33	33970.54
508.50	34775.68
508.68	34675.04
508.85	34728.87
509.03	34459.71
509.20	34906.75
509.38	35400.60
509.55	35821.90
509.73	35253.15
509.90	35459.12
510.08	35728.28
510.25	35852.33
510.42	35545.72
510.60	35967.01
510.77	36025.53
510.95	36187.02
511.12	36065.31
511.30	36320.43
511.47	36313.41
511.64	36385.97
511.82	36655.13
511.99	36575.55
512.17	37015.57
512.34	36598.96
512.51	36996.85
512.69	37305.80
512.86	37130.26
513.04	37427.51
513.21	37958.81
513.38	37586.66
513.56	37647.52
513.73	37605.39
513.90	37972.85
514.08	37928.38
514.25	37614.75
514.43	37902.64
514.60	38155.41
514.77	37956.47
514.95	38522.88
515.12	38466.70
515.29	38171.80
515.47	38838.85
515.64	39012.05
515.81	38656.29
515.99	38859.91
516.16	38829.49
516.33	38909.07
516.51	39037.80
516.68	38880.98
516.85	39119.71
517.03	38829.49
517.20	39255.46
517.37	39800.81
517.54	39653.36
517.72	39985.71
517.89	39445.05
518.06	39337.38
518.24	39859.32
518.41	39613.57
518.58	40072.31
518.75	39754.00
518.93	40091.04
519.10	40275.94
519.27	40285.30
519.45	40095.72
519.62	40336.79
519.79	40589.57
519.96	40741.71
520.14	41041.29
520.31	40615.32
520.48	41146.62
520.65	41045.97
520.83	40928.95
521.00	41092.79
521.17	41495.36
521.34	41223.86
521.52	41631.11
521.69	41668.56
521.86	41603.02
522.03	41708.35
522.20	41680.26
522.38	42120.28
522.55	42302.84
522.72	41982.19
522.89	42361.36
523.07	42508.81
523.24	42108.58
523.41	42667.97
523.58	41984.53
523.75	42831.80
523.92	42852.87
524.10	42454.98
524.27	42590.73
524.44	42836.48
524.61	43175.86
524.78	43136.07
524.96	43562.05
525.13	42951.17
525.30	42990.96
525.47	43372.47
525.64	43058.84
525.81	43686.10
525.98	43346.72
526.16	43718.87
526.33	43529.28
526.50	44051.22
526.67	43480.13
526.84	44311.02
527.01	44065.27
527.18	44231.44
527.36	43995.05
527.53	43906.11
527.70	44126.12
527.87	44612.95
528.04	44500.61
528.21	44041.86
528.38	44552.10
528.55	44559.12
528.72	44467.84
528.89	44858.71
529.07	44212.72
529.24	44514.65
529.41	45258.94
529.58	44790.83
529.75	44814.24
529.92	45057.65
530.09	45188.72
530.26	44814.24
530.43	44982.76
530.60	44865.73
530.77	44933.60
530.94	45535.12
531.11	45382.99
531.28	45251.92
531.46	45427.46
531.63	45881.52
531.80	45687.26
531.97	45759.81
532.14	46071.10
532.31	45848.75
532.48	45736.41
532.65	45806.62
532.82	45827.69
532.99	46342.61
533.16	46075.79
533.33	46356.65
533.50	46862.21
533.67	46328.56
533.84	46010.25
534.01	46396.44
534.18	46366.01
534.35	46190.47
534.52	46738.16
534.69	46845.82
534.86	46960.51
535.03	46520.49
535.20	46714.75
535.37	46923.06
535.54	47367.76
535.71	47033.07
535.88	47318.61
536.05	47283.50
536.22	47182.86
536.38	47161.79
536.55	47578.41
536.72	47372.44
536.89	46904.34
537.06	47583.09
537.23	47751.61
537.40	47332.65
537.57	47253.08
537.74	47594.79
537.91	48362.49
538.08	47941.19
538.25	47852.25
538.42	47835.87
538.59	47962.26
538.75	47414.57
538.92	47627.56
539.09	48025.45
539.26	47931.83
539.43	47969.28
539.60	48303.98
539.77	48334.40
539.94	48584.84
540.11	48264.19
540.28	48266.53
540.44	48704.21
540.61	48329.72
540.78	48479.52
540.95	48835.28
541.12	48502.92
541.29	49024.86
541.46	48739.32
541.62	48657.40
541.79	48552.07
541.96	48385.89
542.13	48788.47
542.30	48779.10
542.47	49244.87
542.63	49469.56
542.80	49226.15
542.97	49340.83
543.14	49326.79
543.31	48924.22
543.48	49144.23
543.64	49729.36
543.81	49734.04
543.98	49801.92
544.15	49970.44
544.32	50117.89
544.48	49928.31
544.65	49844.05
544.82	49645.10
544.99	49558.50
545.16	50169.38
545.32	49867.45
545.49	50061.72
545.66	50621.11
545.83	50108.53
546.00	50586.00
546.16	50349.60
546.33	50071.08
546.50	49448.50
546.67	50066.40
546.83	50099.17
547.00	50387.05
547.17	50277.05
547.34	50412.80
547.50	50623.45
547.67	50651.53
547.84	50880.91
548.00	50518.12
548.17	50831.75
548.34	50349.60
548.51	50869.20
548.67	50859.84
548.84	51044.74
549.01	50864.52
549.18	50904.31
549.34	50433.86
549.51	50618.77
549.68	50791.97
549.84	51035.38
550.01	51143.05
550.18	51089.21
550.34	50892.61
550.51	51323.27
550.68	51033.04
550.84	50707.71
551.01	51112.62
551.18	50880.91
551.34	51011.98
551.51	51508.17
551.68	51688.39
551.84	51952.87
552.01	51566.68
552.18	51529.23
552.34	51964.57
552.51	51599.45
552.68	51484.76
552.84	51515.19
553.01	51971.60
553.18	51349.01
553.34	51564.34
553.51	51819.46
553.67	51854.57
553.84	52088.62
554.01	51629.88
554.17	51889.68
554.34	51929.47
554.51	51718.82
554.67	52025.43
554.84	52250.12
555.00	51987.98
555.17	52161.18
555.33	52034.79
555.50	52315.65
555.67	52177.56
555.83	52112.03
556.00	52067.56
556.16	52648.01
556.33	52062.88
556.50	52027.77
556.66	52397.57
556.83	51948.19
556.99	52652.69
557.16	52189.27
557.32	52460.77
557.49	52685.46
557.65	52233.74
557.82	52226.71
557.98	52259.48
558.15	52374.17
558.32	52444.38
558.48	52582.48
558.65	52591.84
558.81	52655.03
558.98	52458.43
559.14	52463.11
559.31	52488.85
559.47	52376.51
559.64	52584.82
559.80	52725.25
559.97	52856.32
560.13	52650.35
560.30	53298.68
560.46	52940.58
560.63	52882.06
560.79	52816.53
560.96	53443.79
561.12	52734.61
561.29	53015.47
561.45	52905.47
561.61	52750.99
561.78	53277.61
561.94	53055.26
562.11	52921.85
562.27	52779.08
562.44	52823.55
562.60	52975.69
562.77	53003.77
562.93	53242.51
563.10	53179.31
563.26	53181.65
563.42	53174.63
563.59	53104.41
563.75	53169.95
563.92	52999.09
564.08	53382.94
564.24	53062.29
564.41	53258.89
564.57	53308.04
564.74	53017.82
564.90	53085.69
565.07	53343.15
565.23	53317.40
565.39	53511.67
565.56	53148.88
565.72	53064.63
565.88	53392.30
566.05	53202.72
566.21	53317.40
566.38	53258.89
566.54	53158.25
566.70	53645.08
566.87	53301.02
567.03	53375.92
567.19	53584.22
567.36	53345.49
567.52	53418.05
567.68	53301.02
567.85	53240.17
568.01	53373.58
568.17	53413.37
568.34	53373.58
568.50	53717.64
568.66	53666.14
568.83	53769.13
568.99	53343.15
569.15	53661.46
569.32	53371.24
569.48	53368.90
569.64	53640.40
569.81	53516.35
569.97	53691.89
570.13	53530.39
570.30	53741.04
570.46	53677.85
570.62	53649.76
570.78	53602.95
570.95	53600.61
571.11	53640.40
571.27	53422.73
571.43	53593.59
571.60	54012.54
571.76	53801.89
571.92	53895.52
572.09	53530.39
572.25	53869.77
572.41	53551.46
572.57	53607.63
572.74	53710.61
572.90	53230.80
573.06	53413.37
573.22	53724.66
573.38	53925.94
573.55	53748.06
573.71	53993.82
573.87	54110.85
574.03	53642.74
574.20	53834.66
574.36	53806.58
574.52	53602.95
574.68	53794.87
574.84	53970.41
575.01	54005.52
575.17	54401.07
575.33	53820.62
575.49	53928.28
575.65	54113.19
575.82	54005.52
575.98	53792.53
576.14	53780.83
576.30	54000.84
576.46	53909.56
576.62	53572.52
576.79	54005.52
576.95	53375.92
577.11	53776.15
577.27	53932.96
577.43	54028.93
577.59	54232.55
577.75	54113.19
577.92	53886.15
578.08	53764.45
578.24	53762.11
578.40	53954.03
578.56	53813.60
578.72	54101.48
578.88	54094.46
579.04	54337.88
579.21	53937.65
579.37	54049.99
579.53	54213.83
579.69	53914.24
579.85	54143.61
580.01	54066.38
580.17	53977.43
580.33	53942.33
580.49	54089.78
580.65	54548.53
580.82	54391.71
580.98	54150.63
581.14	53860.41
581.30	54223.19
581.46	53902.54
581.62	53741.04
581.78	53916.58
581.94	54096.80
582.10	54218.51
582.26	54188.08
582.42	54220.85
582.58	54255.96
582.74	54281.70
582.90	54419.80
583.06	54110.85
583.22	53932.96
583.38	53876.79
583.54	54160.00
583.70	54190.42
583.86	54188.08
584.02	54003.18
584.18	53984.46
584.34	54429.16
584.50	54429.16
584.66	54176.38
584.82	54103.82
584.98	54330.86
585.14	54284.04
585.30	54176.38
585.46	54066.38
585.62	53942.33
585.78	54391.71
585.94	54176.38
586.10	54138.93
586.26	54382.35
586.42	54328.52
586.58	54267.66
586.74	54028.93
586.90	54061.69
587.06	53963.39
587.22	54368.30
587.38	53996.16
587.54	53822.96
587.70	54499.37
587.86	54349.58
588.02	54164.68
588.18	54326.17
588.34	54185.74
588.49	54192.76
588.65	54309.79
588.81	54405.75
588.97	54485.33
589.13	54209.15
589.29	54087.44
589.45	54344.90
589.61	54703.00
589.77	54796.62
589.93	54686.62
590.08	54494.69
590.24	54408.09
590.40	54656.19
590.56	54508.74
590.72	54686.62
590.88	54450.22
591.04	54600.02
591.20	54597.68
591.35	54548.53
591.51	54897.27
591.67	54665.55
591.83	54642.15
591.99	54553.21
592.15	54834.07
592.31	54855.14
592.46	54660.87
592.62	54621.08
592.78	54459.58
592.94	54644.49
593.10	54649.17
593.26	54595.34
593.41	54923.01
593.57	54475.97
593.73	54550.87
593.89	54560.23
594.05	54480.65
594.20	54518.10
594.36	54841.09
594.52	54609.38
594.68	54499.37
594.84	54335.54
594.99	54756.83
595.15	54372.99
595.31	54944.08
595.47	54705.34
595.62	54869.18
595.78	54710.02
595.94	54686.62
596.10	54623.42
596.25	54810.67
596.41	54522.78
596.57	54600.02
596.73	54656.19
596.88	54754.49
597.04	54878.54
597.20	54834.07
597.36	54611.72
597.51	54681.94
597.67	54607.04
597.83	54443.20
597.99	54815.35
598.14	54649.17
598.30	54506.40
598.46	54569.59
598.61	54578.95
598.77	54712.36
598.93	54897.27
599.09	54897.27
599.24	55341.97
599.40	54658.53
599.56	54700.66
599.71	54717.04
599.87	54501.71
600.03	54333.20
600.18	54688.96
600.34	55025.99
600.50	54845.77
600.65	54897.27
600.81	54906.63
600.97	55103.23
601.12	54918.33
601.28	54911.31
601.44	55128.98
601.59	54766.20
601.75	54990.89
601.91	54878.54
602.06	54747.47
602.22	54876.20
602.37	54653.85
602.53	54490.01
602.69	54789.60
602.84	55206.22
603.00	54714.70
603.16	54944.08
603.31	55056.42
603.47	54754.49
603.62	54588.31
603.78	54712.36
603.94	54667.89
604.09	54742.79
604.25	54794.28
604.40	54670.23
604.56	54894.92
604.71	55002.59
604.87	54880.88
605.03	54974.50
605.18	54796.62
605.34	54728.75
605.49	54590.66
605.65	54417.46
605.80	54539.16
605.96	54681.94
606.12	54845.77
606.27	54794.28
606.43	54684.28
606.58	54890.24
606.74	54747.47
606.89	54960.46
607.05	54894.92
607.20	54817.69
607.36	54880.88
607.51	54710.02
607.67	54653.85
607.82	54738.11
607.98	54740.45
608.13	54632.78
608.29	54525.12
608.44	54433.84
608.60	54443.20
608.75	54714.70
608.91	54808.32
609.06	54581.29
609.22	54487.67
609.37	54618.74
609.53	54532.14
609.68	54307.45
609.84	54300.43
609.99	54405.75
610.15	54628.10
610.30	54298.09
610.46	54445.54
610.61	54742.79
610.76	54593.00
610.92	54576.61
611.07	54597.68
611.23	54197.44
611.38	54459.58
611.54	54188.08
611.69	54174.04
611.84	54396.39
612.00	54321.49
612.15	54213.83
612.31	54485.33
612.46	54733.43
612.62	54794.28
612.77	54216.17
612.92	54621.08
613.08	54272.34
613.23	54436.18
613.39	54251.28
613.54	54396.39
613.69	54220.85
613.85	54391.71
614.00	54326.17
614.15	54337.88
614.31	54501.71
614.46	54515.76
614.62	54403.41
614.77	54480.65
614.92	54380.01
615.08	54197.44
615.23	54192.76
615.38	53925.94
615.54	53797.21
615.69	53984.46
615.84	54024.25
616.00	54300.43
616.15	54199.79
616.30	54078.08
616.46	54281.70
616.61	54216.17
616.76	54391.71
616.92	54089.78
617.07	54160.00
617.22	53902.54
617.37	53935.30
617.53	53982.12
617.68	53942.33
617.83	53947.01
617.99	54131.91
618.14	54054.67
618.29	54031.27
618.45	53778.49
618.60	54000.84
618.75	54080.42
618.90	53811.26
619.06	53932.96
619.21	53696.57
619.36	53776.15
619.51	53680.19
619.67	53893.18
619.82	53661.46
619.97	53979.78
620.12	53867.43
620.28	53804.24
620.43	53996.16
620.58	53851.05
620.73	53635.72
620.89	53888.49
621.04	53715.29
621.19	53605.29
621.34	53399.32
621.49	53347.83
621.65	53366.55
621.80	53614.65
621.95	53649.76
622.10	53682.53
622.25	53441.45
622.41	53631.04
622.56	53684.87
622.71	53649.76
622.86	53389.96
623.01	53291.66
623.16	53317.40
623.32	53230.80
623.47	53202.72
623.62	53219.10
623.77	53216.76
623.92	53521.03
624.07	53174.63
624.23	53251.87
624.38	53205.06
624.53	53296.34
624.68	53378.26
624.83	53111.44
624.98	53090.37
625.13	52821.21
625.29	53085.69
625.44	53132.50
625.59	53216.76
625.74	53045.90
625.89	53174.63
626.04	53024.84
626.19	53144.20
626.34	53144.20
626.49	52903.13
626.65	52935.90
626.80	53132.50
626.95	52648.01
627.10	52734.61
627.25	52945.26
627.40	52699.50
627.55	52830.57
627.70	52549.71
627.85	52535.66
628.00	52626.95
628.15	52552.05
628.30	52570.77
628.45	52945.26
628.60	52472.47
628.76	52470.13
628.91	52823.55
629.06	53165.27
629.21	52886.74
629.36	52488.85
629.51	52608.22
629.66	52472.47
629.81	52289.91
629.96	52016.07
630.11	52638.65
630.26	52554.39
630.41	52308.63
630.56	52215.01
630.71	52648.01
630.86	52435.02
631.01	52694.82
631.16	52603.54
631.31	52378.85
631.46	52556.73
631.61	52329.70
631.76	52500.56
631.91	52371.83
632.06	51749.24
632.21	52123.73
632.36	52306.29
632.51	51798.40
632.66	51987.98
632.81	51700.09
632.96	52317.99
633.10	51948.19
633.25	52158.84
633.40	52081.60
633.55	52257.14
633.70	51835.84
633.85	52025.43
634.00	51847.55
634.15	51484.76
634.30	51849.89
634.45	52046.49
634.60	52310.97
634.75	52198.63
634.90	52107.35
635.05	52121.39
635.19	51758.61
635.34	51945.85
635.49	51962.23
635.64	51648.60
635.79	51730.52
635.94	51559.66
636.09	51943.51
636.24	51550.30
636.39	51405.19
636.53	51573.70
636.68	51620.52
636.83	51547.96
636.98	51739.88
637.13	51487.10
637.28	51833.50
637.43	51945.85
637.57	51662.64
637.72	51306.88
637.87	51721.16
638.02	51826.48
638.17	51613.49
638.32	51236.67
638.46	51356.03
638.61	51063.47
638.76	50670.26
638.91	51063.47
639.06	51112.62
639.20	51442.63
639.35	51381.78
639.50	51138.36
639.65	51557.32
639.80	51152.41
639.94	50995.59
640.09	51210.92
640.24	50983.89
640.39	50712.39
640.54	50319.18
640.68	51000.27
640.83	50974.53
640.98	50513.44
641.13	50871.54
641.27	50972.19
641.42	50564.93
641.57	50576.64
641.72	50705.37
641.86	51138.36
642.01	50787.28
642.16	50761.54
642.31	50277.05
642.45	51075.17
642.60	50550.89
642.75	50447.91
642.90	50707.71
643.04	50983.89
643.19	50506.42
643.34	50466.63
643.48	50368.33
643.63	50941.76
643.78	50656.21
643.93	50798.99
644.07	50557.91
644.22	50195.13
644.37	50485.36
644.51	50403.44
644.66	50253.64
644.81	50349.60
644.95	50794.31
645.10	50389.39
645.25	50145.98
645.39	50504.08
645.54	50529.83
645.69	50230.24
645.83	50583.66
645.98	50253.64
646.13	50305.13
646.27	50230.24
646.42	50019.59
646.57	50185.77
646.71	50160.02
646.86	50553.23
647.00	50340.24
647.15	50401.10
647.30	49720.00
647.44	49701.28
647.59	49736.38
647.74	49932.99
647.88	49741.06
648.03	49858.09
648.17	50082.78
648.32	50150.66
648.47	49968.10
648.61	49624.04
648.76	49808.94
648.90	49801.92
649.05	49893.20
649.20	49710.64
649.34	49769.15
649.49	49537.44
649.63	49705.96
649.78	49521.05
649.92	49750.43
650.07	49656.81
650.21	49661.49
650.36	49799.58
650.51	49612.34
650.65	49701.28
650.80	49844.05
650.94	49757.45
651.09	49495.31
651.23	49258.91
651.38	49078.69
651.52	49184.02
651.67	49521.05
651.81	49207.42
651.96	48818.89
652.10	48807.19
652.25	49034.22
652.39	49249.55
652.54	49137.21
652.68	49345.51
652.83	48910.17
652.97	49237.85
653.12	48931.24
653.26	49301.04
653.41	48582.50
653.55	48694.85
653.70	48715.91
653.84	48989.75
653.99	48846.98
654.13	48989.75
654.27	48809.53
654.42	48725.27
654.56	48736.98
654.71	48701.87
654.85	48861.02
655.00	48900.81
655.14	48985.07
655.29	48175.25
655.43	48594.20
655.57	48568.46
655.72	48252.48
655.86	48570.80
656.01	48580.16
656.15	48236.10
656.30	48500.58
656.44	48516.96
656.58	48842.30
656.73	48519.31
656.87	48589.52
657.01	48507.60
657.16	48793.15
657.30	48650.38
657.45	48795.49
657.59	48456.11
657.73	48264.19
657.88	48098.01
658.02	48154.18
658.16	47908.43
658.31	48142.48
658.45	47753.95
658.60	47608.84
658.74	47564.37
658.88	47742.25
659.03	47840.55
659.17	47873.32
659.31	47634.58
659.46	48004.39
659.60	47927.15
659.74	47777.36
659.89	47690.76
660.03	47807.78
660.17	47852.25
660.32	47627.56
660.46	47683.73
660.60	47316.27
660.74	47175.84
660.89	47611.18
661.03	47210.95
661.17	47391.17
661.32	47051.79
661.46	47091.58
661.60	47133.71
661.74	47358.40
661.89	46993.28
662.03	47297.55
662.17	47196.90
662.31	46869.23
662.46	46944.12
662.60	46780.29
662.74	46164.73
662.88	46471.34
663.03	45691.94
663.17	46206.86
663.31	46256.01
663.45	46405.80
663.60	46330.90
663.74	46450.27
663.88	46263.03
664.02	46309.84
664.17	46864.55
664.31	46155.36
664.45	46134.30
664.59	45989.19
664.73	46412.82
664.88	45528.10
665.02	45450.86
665.16	44835.30
665.30	45237.87
665.44	45607.68
665.59	45067.02
665.73	45595.98
665.87	45399.37
666.01	45413.41
666.15	45375.97
666.29	45418.10
666.44	45759.81
666.58	45235.53
666.72	45553.85
666.86	45481.29
667.00	45223.83
667.14	45336.18
667.28	44964.03
667.43	44535.71
667.57	44884.45
667.71	44800.19
667.85	45198.09
667.99	44645.72
668.13	44229.10
668.27	44304.00
668.41	44582.52
668.56	44552.10
668.70	44285.28
668.84	44601.25
668.98	44486.56
669.12	44502.95
669.26	44505.29
669.40	44233.78
669.54	44069.95
669.68	43484.81
669.82	43636.95
669.96	43566.73
670.10	43456.73
670.25	43564.39
670.39	43173.52
670.53	43150.12
670.67	43358.42
670.81	44060.58
670.95	43475.45
671.09	43246.08
671.23	43328.00
671.37	43620.56
671.51	43842.92
671.65	43122.03
671.79	43419.28
671.93	42925.42
672.07	42595.41
672.21	42719.46
672.35	42373.06
672.49	42302.84
672.63	42368.38
672.77	42134.32
672.91	42377.74
673.05	42440.93
673.19	42347.31
673.33	42632.86
673.47	42218.58
673.61	42459.66
673.75	42258.37
673.89	42529.87
674.03	41937.72
674.17	42064.11
674.31	41972.83
674.45	41893.25
674.59	41357.27
674.73	41773.88
674.87	41193.43
675.01	41076.40
675.15	41123.21
675.29	41071.72
675.43	40818.94
675.56	40762.77
675.70	41139.60
675.84	41116.19
675.98	39409.94
676.12	40622.34
676.26	40898.52
676.40	40402.33
676.54	40692.55
676.68	40236.15
676.82	38927.79
676.96	39379.51
677.10	39466.11
677.23	39061.20
677.37	39180.57
677.51	39021.41
677.65	39009.71
677.79	38871.62
677.93	38625.86
678.07	39089.29
678.21	38607.14
678.34	38632.88
678.48	38438.62
678.62	38724.16
678.76	38546.28
678.90	38246.69
679.04	38286.48
679.18	38520.54
679.31	37457.93
679.45	37741.14
679.59	37773.91
679.73	37607.73
679.87	37174.73
680.00	37471.98
680.14	36933.65
680.28	37333.89
680.42	37399.42
680.56	37254.31
680.70	37151.32
680.83	37443.89
680.97	37331.54
681.11	37261.33
681.25	36795.56
681.39	36748.75
681.52	36809.61
681.66	35915.52
681.80	35721.26
681.94	35737.64
682.07	35927.22
682.21	35817.22
682.35	35674.45
682.49	35749.34
682.62	35976.37
682.76	35412.31
682.90	35353.79
683.04	34939.52
683.17	35035.48
683.31	35463.80
683.45	35255.49
683.59	35002.71
683.72	35093.99
683.86	34663.33
684.00	34382.47
684.13	34235.02
684.27	34408.22
684.41	34089.90
684.55	33560.94
684.68	33914.36
684.82	33862.87
684.96	33481.36
685.09	33905.00
685.23	33659.24
685.37	33635.84
685.50	33338.59
685.64	33312.84
685.78	32884.53
685.91	32954.74
686.05	33153.69
686.19	33127.94
686.32	33137.30
686.46	32680.90
686.60	32147.26
686.73	32081.72
686.87	32519.40
687.01	31826.60
687.14	32320.46
687.28	32147.26
687.42	31744.69
687.55	32016.19
687.69	32032.57
687.82	31356.16
687.96	31487.23
688.10	31072.95
688.23	31370.20
688.37	31517.65
688.50	31468.50
688.64	31222.75
688.78	30658.68
688.91	30764.00
689.05	30764.00
689.18	30291.21
689.32	29493.09
689.46	29638.20
689.59	29979.92
689.73	29694.38
689.86	29841.83
690.00	29373.72
690.13	29923.75
690.27	29851.19
690.41	29895.66
690.54	29486.07
690.68	29308.19
690.81	29172.44
690.95	29406.49
691.08	29001.58
691.22	29261.38
691.35	28821.36
691.49	29032.00
691.62	28807.31
691.76	28924.34
691.89	28311.12
692.03	28210.48
692.16	28231.54
692.30	28236.22
692.43	28123.88
692.57	27995.15
692.70	28032.60
692.84	27810.25
692.97	27730.67
693.11	27826.63
693.24	27608.96
693.38	27709.60
693.51	27402.99
693.65	27309.37
693.78	27063.61
693.92	27243.84
694.05	27101.06
694.19	26562.74
694.32	26316.98
694.45	26284.22
694.59	26380.18
694.72	26295.92
694.86	26333.37
694.99	25671.00
695.13	25832.49
695.26	26001.01
695.39	25682.70
695.53	25671.00
695.66	25518.86
695.80	25390.13
695.93	25530.56
696.07	25432.26
696.20	25039.05
696.33	25223.95
696.47	24975.86
696.60	25163.10
696.73	25118.63
696.87	24652.86
697.00	24863.51
697.14	24168.37
697.27	23957.72
697.40	23648.77
697.54	23892.19
697.67	23850.06
697.80	23924.96
697.94	24102.84
698.07	23742.39
698.21	23403.02
698.34	23688.56
698.47	23283.65
698.61	23274.29
698.74	23482.59
698.87	23391.31
699.01	22937.25
699.14	23110.45
699.27	22656.39
699.40	22911.50
699.54	22586.17
699.67	22576.81
699.80	22195.30
699.94	22251.47
700.07	22195.30
700.20	22064.23
700.34	22022.10
700.47	22001.04
700.60	21944.86
700.73	21991.67
700.87	21876.99
701.00	21544.63
701.13	21553.99
701.26	21575.06
701.40	21598.46
701.53	21256.75
701.66	21109.29
701.79	21235.68
701.93	20870.56
702.06	20802.68
702.19	20964.18
702.32	20812.04
702.46	20737.15
702.59	20599.05
702.72	20442.24
702.85	20250.32
702.99	20210.53
703.12	19831.36
703.25	20039.67
703.38	20063.07
703.51	19833.70
703.65	19861.79
703.78	19829.02
703.91	19777.53
704.04	19721.35
704.17	19770.51
704.31	19756.46
704.44	19349.21
704.57	19241.54
704.70	19435.81
704.83	19168.99
704.96	19297.72
705.10	18541.72
705.23	18803.86
>>>>>End Processed Spectral Data<<<<<
