SpectraSuite Data File
++++++++++++++++++++++++++++++++++++
Date: Fri Oct 04 11:48:41 GMT-05:00 2013
User: price-jones
Dark Spectrum Present: No
Reference Spectrum Present: No
Number of Sampled Component Spectra: 1
Spectrometers: USB2+H05261
Integration Time (usec): 100000 (USB2+H05261)
Spectra Averaged: 1 (USB2+H05261)
Boxcar Smoothing: 0 (USB2+H05261)
Correct for Electrical Dark: No (USB2+H05261)
Strobe/Lamp Enabled: No (USB2+H05261)
Correct for Detector Non-linearity: No (USB2+H05261)
Correct for Stray Light: No (USB2+H05261)
Number of Pixels in Processed Spectrum: 2048
>>>>>Begin Processed Spectral Data<<<<<
365.73	25.75
365.92	25.75
366.12	25.75
366.32	0.00
366.52	0.00
366.72	0.00
366.91	0.00
367.11	0.00
367.31	0.00
367.51	0.00
367.70	0.00
367.90	0.00
368.10	0.00
368.30	0.00
368.49	0.00
368.69	0.00
368.89	0.00
369.09	0.00
369.28	0.00
369.48	0.00
369.68	0.00
369.87	0.00
370.07	9.36
370.27	0.00
370.47	49.15
370.66	325.33
370.86	353.42
371.06	470.45
371.25	433.00
371.45	458.74
371.65	461.09
371.84	451.72
372.04	500.87
372.24	468.11
372.44	496.19
372.63	540.66
372.83	578.11
373.03	538.32
373.22	456.40
373.42	477.47
373.62	503.22
373.81	594.50
374.01	655.35
374.21	669.39
374.40	645.99
374.60	662.37
374.79	580.45
374.99	538.32
375.19	688.12
375.38	660.03
375.58	634.29
375.78	678.76
375.97	660.03
376.17	631.94
376.37	594.50
376.56	601.52
376.76	650.67
376.95	653.01
377.15	655.35
377.35	716.20
377.54	608.54
377.74	702.16
377.93	662.37
378.13	751.31
378.33	755.99
378.52	678.76
378.72	723.23
378.91	688.12
379.11	592.16
379.31	732.59
379.50	709.18
379.70	706.84
379.89	814.51
380.09	788.76
380.28	730.25
380.48	770.04
380.68	770.04
380.87	760.67
381.07	809.83
381.26	800.46
381.46	791.10
381.65	793.44
381.85	774.72
382.04	793.44
382.24	819.19
382.43	774.72
382.63	835.57
382.83	842.59
383.02	868.34
383.22	933.87
383.41	894.08
383.61	802.80
383.80	905.79
384.00	847.27
384.19	835.57
384.39	849.61
384.58	898.77
384.78	968.98
384.97	912.81
385.17	894.08
385.36	863.66
385.56	971.32
385.75	959.62
385.95	985.37
386.14	931.53
386.34	889.40
386.53	1020.47
386.72	961.96
386.92	992.39
387.11	1032.18
387.31	1020.47
387.50	990.05
387.70	983.02
387.89	997.07
388.09	1036.86
388.28	1032.18
388.48	1064.94
388.67	1109.41
388.86	1062.60
389.06	1088.35
389.25	1057.92
389.45	1107.07
389.64	992.39
389.84	1060.26
390.03	1170.27
390.22	1057.92
390.42	1102.39
390.61	1125.80
390.81	1086.01
391.00	1132.82
391.19	1167.93
391.39	1172.61
391.58	1203.04
391.78	1174.95
391.97	1165.59
392.16	1174.95
392.36	1224.10
392.55	1266.23
392.75	1270.91
392.94	1266.23
393.13	1324.74
393.33	1268.57
393.52	1259.21
393.71	1348.15
393.91	1277.93
394.10	1315.38
394.29	1345.81
394.49	1287.29
394.68	1376.24
394.88	1338.79
395.07	1434.75
395.26	1373.89
395.46	1409.00
395.65	1467.52
395.84	1451.13
396.04	1497.94
396.23	1345.81
396.42	1516.67
396.62	1504.96
396.81	1547.09
397.00	1493.26
397.19	1486.24
397.39	1425.39
397.58	1521.35
397.77	1516.67
397.97	1558.80
398.16	1650.08
398.35	1638.38
398.55	1661.78
398.74	1605.61
398.93	1647.74
399.12	1626.67
399.32	1636.03
399.51	1593.90
399.70	1699.23
399.90	1600.93
400.09	1650.08
400.28	1776.47
400.47	1727.32
400.67	1774.13
400.86	1722.63
401.05	1689.87
401.24	1746.04
401.44	1757.74
401.63	1778.81
401.82	1952.01
402.01	1860.73
402.21	1879.45
402.40	1886.47
402.59	1933.28
402.78	1961.37
402.97	2008.18
403.17	1984.77
403.36	2001.16
403.55	1980.09
403.74	2052.65
403.93	2062.01
404.13	2054.99
404.32	2104.14
404.51	2015.20
404.70	2232.87
404.89	2092.44
405.09	2200.10
405.28	2214.15
405.47	2160.31
405.66	2200.10
405.85	2176.70
406.05	2207.13
406.24	2172.02
406.43	2249.25
406.62	2340.54
406.81	2443.52
407.00	2214.15
407.20	2216.49
407.39	2289.04
407.58	2361.60
407.77	2354.58
407.96	2476.29
408.15	2457.56
408.34	2434.16
408.54	2441.18
408.73	2619.06
408.92	2429.48
409.11	2551.18
409.30	2642.46
409.49	2490.33
409.68	2555.86
409.87	2670.55
410.07	2656.51
410.26	2780.56
410.45	2581.61
410.64	2719.70
410.83	2810.98
411.02	2747.79
411.21	2733.75
411.40	2787.58
411.59	2974.82
411.78	2951.42
411.98	2909.29
412.17	2946.73
412.36	2935.03
412.55	3016.95
412.74	3124.62
412.93	2988.86
413.12	2937.37
413.31	3183.13
413.50	3122.27
413.69	3173.77
413.88	3272.07
414.07	3115.25
414.26	3222.92
414.45	3368.03
414.64	3339.94
414.83	3304.84
415.02	3283.77
415.22	3515.48
415.41	3548.25
415.60	3442.93
415.79	3405.48
415.98	3613.79
416.17	3585.70
416.36	3510.80
416.55	3627.83
416.74	3681.66
416.93	3634.85
417.12	3758.90
417.31	3723.79
417.50	3630.17
417.69	3805.71
417.88	3992.95
418.07	3894.65
418.26	3871.25
418.45	4004.66
418.64	4152.11
418.83	3969.55
419.02	3927.42
419.21	3995.29
419.39	4088.92
419.58	4004.66
419.77	3992.95
419.96	4147.43
420.15	4198.92
420.34	4187.22
420.53	4236.37
420.72	4292.54
420.91	4051.47
421.10	4334.67
421.29	4325.31
421.48	4196.58
421.67	4271.48
421.86	4109.98
422.05	4311.27
422.24	4341.69
422.43	4379.14
422.61	4425.95
422.80	4500.85
422.99	4320.63
423.18	4418.93
423.37	4479.79
423.56	4451.70
423.75	4402.55
423.94	4414.25
424.13	4334.67
424.32	4259.78
424.50	4325.31
424.69	4587.45
424.88	4594.47
425.07	4346.37
425.26	4423.61
425.45	4430.63
425.64	4531.28
425.83	4573.41
426.01	4608.51
426.20	4606.17
426.39	4503.19
426.58	4554.68
426.77	4676.39
426.96	4578.09
427.15	4510.21
427.33	4575.75
427.52	4697.46
427.71	4772.35
427.90	4765.33
428.09	4734.90
428.28	4833.21
428.46	4835.55
428.65	4734.90
428.84	4933.85
429.03	5104.71
429.22	4744.27
429.40	5074.28
429.59	4980.66
429.78	4765.33
429.97	4748.95
430.16	4882.36
430.34	4971.30
430.53	4994.70
430.72	5179.61
430.91	4992.36
431.10	5057.90
431.28	5317.70
431.47	5088.32
431.66	5214.71
431.85	5123.43
432.03	5238.12
432.22	5357.49
432.41	5380.89
432.60	5439.40
432.79	5280.25
432.97	5315.36
433.16	5418.34
433.35	5530.69
433.54	5397.28
433.72	5350.46
433.91	5593.88
434.10	5607.92
434.28	5561.11
434.47	5621.97
434.66	5657.07
434.85	5743.67
435.03	5596.22
435.22	5720.27
435.41	5830.27
435.59	5846.66
435.78	5666.44
435.97	5778.78
436.16	5865.38
436.34	5816.23
436.53	5879.43
436.72	6029.22
436.90	6008.16
437.09	6108.80
437.28	5827.93
437.46	5940.28
437.65	6019.86
437.84	5973.05
438.02	5947.30
438.21	6026.88
438.40	6167.31
438.58	6349.87
438.77	6370.94
438.96	6242.21
439.14	6291.36
439.33	6377.96
439.52	6502.01
439.70	6548.82
439.89	6478.60
440.08	6724.36
440.26	6670.53
440.45	6740.74
440.63	6771.17
440.82	7052.03
441.01	6881.18
441.19	7042.67
441.38	7005.22
441.57	7136.29
441.75	7204.17
441.94	7300.13
442.12	7309.49
442.31	7262.68
442.50	7311.83
442.68	7332.90
442.87	7211.19
443.05	7461.63
443.24	7431.20
443.43	7400.77
443.61	7442.90
443.80	7637.17
443.98	7342.26
444.17	7246.30
444.35	7470.99
444.54	7564.61
444.73	7698.02
444.91	7705.04
445.10	7571.63
445.28	7503.76
445.47	7531.84
445.65	7758.88
445.84	7648.87
446.02	7756.54
446.21	7604.40
446.39	7470.99
446.58	7831.43
446.77	7627.81
446.95	7524.82
447.14	7648.87
447.32	7742.49
447.51	7740.15
447.69	7754.19
447.88	7840.79
448.06	7742.49
448.25	7662.91
448.43	7873.56
448.62	7784.62
448.80	7749.51
448.99	7824.41
449.17	8042.08
449.36	7852.50
449.54	8175.49
449.73	8264.43
449.91	8107.62
450.10	8236.35
450.28	8344.01
450.46	8379.12
450.65	8250.39
450.83	8489.12
451.02	8346.35
451.20	8451.67
451.39	8521.89
451.57	8348.69
451.76	8114.64
451.94	8519.55
452.13	8388.48
452.31	8503.17
452.49	8463.38
452.68	8643.60
452.86	8493.80
453.05	8734.88
453.23	8744.24
453.42	8404.86
453.60	8751.26
453.78	8589.77
453.97	8667.00
454.15	8545.30
454.34	8695.09
454.52	8968.93
454.70	8863.61
454.89	8842.54
455.07	9046.17
455.26	8978.30
455.44	9022.77
455.62	9132.77
455.81	9104.68
455.99	9228.73
456.17	9242.78
456.36	9142.13
456.54	9404.27
456.73	9460.45
456.91	9666.41
457.09	9486.19
457.28	9675.77
457.46	9483.85
457.64	9715.56
457.83	9760.03
458.01	9444.06
458.19	9760.03
458.38	9502.58
458.56	9886.42
458.74	9809.19
458.93	9757.69
459.11	9825.57
459.29	9767.06
459.48	9769.40
459.66	10085.37
459.84	10122.82
460.03	9956.64
460.21	10057.28
460.39	9984.73
460.57	10024.51
460.76	10087.71
460.94	10263.25
461.12	10300.70
461.31	10108.77
461.49	10225.80
461.67	10314.74
461.85	10471.56
462.04	10289.00
462.22	10963.07
462.40	10679.86
462.59	10530.07
462.77	10544.11
462.95	10710.29
463.13	10731.36
463.32	10792.21
463.50	10754.76
463.68	10824.98
463.86	10684.55
464.05	10724.33
464.23	10562.84
464.41	10827.32
464.59	10572.20
464.78	10993.50
464.96	10876.47
465.14	10843.70
465.32	10836.68
465.50	11073.07
465.69	11314.15
465.87	11225.21
466.05	10902.22
466.23	11187.76
466.41	11307.13
466.60	11363.30
466.78	11232.23
466.96	11286.06
467.14	10967.75
467.32	11208.83
467.51	11487.35
467.69	11229.89
467.87	11449.90
468.05	11470.97
468.23	11096.48
468.41	11592.67
468.60	11487.35
468.78	11583.31
468.96	11651.19
469.14	11688.64
469.32	12084.19
469.50	11419.47
469.69	12095.89
469.87	11981.20
470.05	12042.06
470.23	12123.98
470.41	12002.27
470.59	12135.68
470.77	12072.48
470.95	12306.54
471.14	12421.22
471.32	12109.93
471.50	12264.41
471.68	12482.08
471.86	12592.08
472.04	12608.47
472.22	12734.85
472.40	12322.92
472.58	12587.40
472.77	12809.75
472.95	12877.63
473.13	13301.26
473.31	12830.82
473.49	13092.96
473.67	13097.64
473.85	13209.98
474.03	13294.24
474.21	13270.84
474.39	13507.23
474.57	13570.43
474.75	13783.41
474.93	13809.16
475.12	13783.41
475.30	13755.33
475.48	13900.44
475.66	13776.39
475.84	14078.32
476.02	14031.51
476.20	14345.14
476.38	14530.05
476.56	14609.62
476.74	14794.53
476.92	14572.18
477.10	14668.14
477.28	15089.43
477.46	14766.44
477.64	15075.39
477.82	15269.66
478.00	15772.87
478.18	15674.57
478.36	15728.40
478.54	15845.43
478.72	15779.89
478.90	16161.40
479.08	15997.56
479.26	16231.62
479.44	16224.59
479.62	16622.48
479.80	16638.87
479.98	16774.62
480.16	16835.47
480.34	17020.38
480.52	17018.04
480.70	17179.53
480.88	17224.00
481.06	17451.03
481.24	17343.37
481.41	17661.68
481.59	17909.78
481.77	18090.00
481.95	18043.19
482.13	18272.56
482.31	18335.76
482.49	18693.86
482.67	18555.77
482.85	18806.20
483.03	19033.24
483.21	19206.44
483.39	19576.24
483.57	19185.37
483.74	19391.34
483.92	19784.55
484.10	19639.44
484.28	20348.62
484.46	20386.07
484.64	20807.36
484.82	20315.85
485.00	20362.66
485.18	20868.22
485.35	21130.36
485.53	21284.83
485.71	21436.97
485.89	21769.32
486.07	21846.56
486.25	21769.32
486.43	21720.17
486.61	21633.57
486.78	22185.94
486.96	22457.44
487.14	22789.80
487.32	22752.35
487.50	22892.78
487.68	23084.70
487.85	23482.59
488.03	23625.37
488.21	23838.36
488.39	23948.36
488.57	24208.16
488.75	24123.90
488.92	24584.99
489.10	24716.06
489.28	24954.79
489.46	25539.93
489.64	25245.02
489.81	25446.30
489.99	25659.29
490.17	25811.43
490.35	25853.56
490.53	26235.06
490.70	26370.82
490.88	26232.72
491.06	26614.23
491.24	26529.97
491.41	26490.18
491.59	27016.80
491.77	27442.78
491.95	27868.76
492.13	27665.13
492.30	27611.30
492.48	27611.30
492.66	27850.03
492.84	28060.68
493.01	28547.51
493.19	28713.69
493.37	28826.04
493.54	29467.34
493.72	29092.86
493.90	29291.80
494.08	29378.40
494.25	29790.34
494.43	30162.48
494.61	30267.81
494.79	30026.73
494.96	30316.96
495.14	30167.16
495.32	30462.07
495.49	30333.34
495.67	30913.80
495.85	31459.14
496.02	31515.31
496.20	31192.32
496.38	31592.55
496.55	31608.93
496.73	32451.53
496.91	32465.57
497.09	32119.17
497.26	32488.98
497.44	32154.28
497.62	32273.65
497.79	32723.03
497.97	33193.48
498.14	33427.53
498.32	33696.69
498.50	33509.45
498.67	34024.37
498.85	33841.81
499.03	34115.65
499.20	34202.25
499.38	34508.86
499.56	34572.05
499.73	34595.46
499.91	35084.63
500.08	35140.80
500.26	34691.42
500.44	34780.36
500.61	35419.33
500.79	35543.38
500.97	35248.47
501.14	35920.20
501.32	35452.09
501.49	35852.33
501.67	36360.22
501.84	36086.38
502.02	36133.19
502.20	36570.87
502.37	36854.08
502.55	36563.85
502.72	36535.76
502.90	37399.42
503.07	36924.29
503.25	36996.85
503.43	37177.07
503.60	37677.94
503.78	37600.71
503.95	37661.56
504.13	37567.94
504.30	37972.85
504.48	37713.05
504.65	38059.45
504.83	37865.19
505.01	38850.55
505.18	38476.07
505.36	38749.91
505.53	38562.67
505.71	38756.93
505.88	38581.39
506.06	38450.32
506.23	38850.55
506.41	39131.42
506.58	39337.38
506.76	39262.49
506.93	39707.19
507.11	39374.83
507.28	39707.19
507.46	39573.78
507.63	40062.95
507.81	40390.62
507.98	39924.86
508.16	40402.33
508.33	40315.73
508.50	40484.25
508.68	40491.27
508.85	41359.61
509.03	40781.49
509.20	41289.39
509.38	41645.15
509.55	41640.47
509.73	41549.19
509.90	41280.03
510.08	41757.50
510.25	41860.48
510.42	42045.38
510.60	42017.30
510.77	42335.61
510.95	42141.35
511.12	42260.71
511.30	42536.90
511.47	42536.90
511.64	42682.01
511.82	42944.15
511.99	43150.12
512.17	42918.40
512.34	43482.47
512.51	43173.52
512.69	43688.44
512.86	43412.26
513.04	43646.31
513.21	43973.98
513.38	43957.60
513.56	44079.31
513.73	44100.37
513.90	44062.93
514.08	43934.20
514.25	44615.29
514.43	44439.75
514.60	44722.96
514.77	44720.62
514.95	44886.79
515.12	44528.69
515.29	44772.11
515.47	45240.21
515.64	45528.10
515.81	45137.23
515.99	45525.76
516.16	45221.49
516.33	45207.45
516.51	46178.77
516.68	45593.64
516.85	45830.03
517.03	46087.49
517.20	46351.97
517.37	45914.29
517.54	46146.00
517.72	46188.13
517.89	46162.39
518.06	46244.30
518.24	46834.12
518.41	46340.27
518.58	47040.09
518.75	46770.93
518.93	47021.36
519.10	46745.18
519.27	47049.45
519.45	47061.15
519.62	47122.01
519.79	47215.63
519.96	47239.03
520.14	47501.17
520.31	47564.37
520.48	47976.30
520.65	47650.97
520.83	47875.66
521.00	47948.21
521.17	48126.10
521.34	48109.71
521.52	48175.25
521.69	48151.84
521.86	48580.16
522.03	48526.33
522.20	48610.59
522.38	48605.91
522.55	48776.76
522.72	48622.29
522.89	48781.45
523.07	49099.76
523.24	49095.08
523.41	49343.17
523.58	48793.15
523.75	49485.95
523.92	49024.86
524.10	49200.40
524.27	49024.86
524.44	49532.76
524.61	49602.97
524.78	49668.51
524.96	49787.88
525.13	49530.42
525.30	50005.55
525.47	50000.86
525.64	49846.39
525.81	50319.18
525.98	50192.79
526.16	50335.56
526.33	50145.98
526.50	50478.33
526.67	49984.48
526.84	50653.87
527.01	50450.25
527.18	50916.01
527.36	50649.19
527.53	50841.12
527.70	51026.02
527.87	50857.50
528.04	50590.68
528.21	50740.47
528.38	51068.15
528.55	51217.94
528.72	51091.55
528.89	51271.78
529.07	51021.34
529.24	51194.54
529.41	51414.55
529.58	51058.79
529.75	51236.67
529.92	51166.45
530.09	51330.29
530.26	51295.18
530.43	51332.63
530.60	51444.98
530.77	51819.46
530.94	51793.71
531.11	51545.62
531.28	51627.54
531.46	51400.50
531.63	51882.66
531.80	52254.80
531.97	52430.34
532.14	52163.52
532.31	52346.08
532.48	52231.40
532.65	52343.74
532.82	52507.58
532.99	52575.45
533.16	52222.03
533.33	52846.96
533.50	53106.76
533.67	52790.78
533.84	52816.53
534.01	52650.35
534.18	52783.76
534.35	53069.31
534.52	52802.49
534.69	53113.78
534.86	53202.72
535.03	52776.74
535.20	53247.19
535.37	53261.23
535.54	53172.29
535.71	52790.78
535.88	53081.01
536.05	53059.94
536.22	53219.10
536.38	53675.51
536.55	53296.34
536.72	53670.82
536.89	53118.46
537.06	53256.55
537.23	53530.39
537.40	53284.64
537.57	53719.98
537.74	53509.33
537.91	53977.43
538.08	53865.09
538.25	53724.66
538.42	53701.25
538.59	53855.73
538.75	53752.74
538.92	53947.01
539.09	54181.06
539.26	53939.99
539.43	53907.22
539.60	54309.79
539.77	54199.79
539.94	54349.58
540.11	54258.30
540.28	54333.20
540.44	53947.01
540.61	54293.41
540.78	54468.95
540.95	54487.67
541.12	54712.36
541.29	54529.80
541.46	54405.75
541.62	54138.93
541.79	54555.55
541.96	54239.57
542.13	54649.17
542.30	54630.44
542.47	54906.63
542.63	54913.65
542.80	54871.52
542.97	54953.44
543.14	55168.77
543.31	55030.68
543.48	55103.23
543.64	55428.57
543.81	55381.76
543.98	55470.70
544.15	55428.57
544.32	55166.43
544.48	55473.04
544.65	55449.63
544.82	55171.11
544.99	55035.36
545.16	55592.40
545.32	55433.25
545.49	55618.15
545.66	55964.55
545.83	55400.48
546.00	55774.97
546.16	55683.69
546.33	55374.73
546.50	55442.61
546.67	55540.91
546.83	55454.31
547.00	55716.45
547.17	55667.30
547.34	55718.79
547.50	55901.36
547.67	56184.56
547.84	55800.71
548.00	56055.83
548.17	56346.06
548.34	55952.85
548.51	56046.47
548.67	56086.26
548.84	56271.16
549.01	56189.24
549.18	56109.66
549.34	56109.66
549.51	56121.37
549.68	56313.29
549.84	56435.00
550.01	56303.93
550.18	56067.53
550.34	56149.45
550.51	56521.60
550.68	56563.73
550.84	56069.87
551.01	56509.89
551.18	56519.26
551.34	56332.01
551.51	56491.17
551.68	56612.88
551.84	56582.45
552.01	56488.83
552.18	56875.02
552.34	56498.19
552.51	56664.37
552.68	56446.70
552.84	56442.02
553.01	56942.89
553.18	56877.36
553.34	56732.25
553.51	56732.25
553.67	56973.32
553.84	57050.56
554.01	57169.93
554.17	56956.94
554.34	56942.89
554.51	56741.61
554.67	57118.43
554.84	57221.42
555.00	56926.51
555.17	57125.46
555.33	57120.77
555.50	57200.35
555.67	57279.93
555.83	57165.24
556.00	57207.37
556.16	57319.72
556.33	57303.34
556.50	57303.34
556.66	57411.00
556.83	57003.75
556.99	57523.35
557.16	57284.61
557.32	57565.48
557.49	57539.73
557.65	57165.24
557.82	57364.19
557.98	57396.96
558.15	57333.76
558.32	57443.77
558.48	57750.38
558.65	57818.25
558.81	57577.18
558.98	57425.04
559.14	57659.10
559.31	57780.81
559.47	57729.31
559.64	57684.84
559.80	57858.04
559.97	57759.74
560.13	57682.50
560.30	57612.29
560.46	57743.36
560.63	57954.00
560.79	57811.23
560.96	57631.01
561.12	57876.77
561.29	57661.44
561.45	57916.56
561.61	58127.20
561.78	57984.43
561.94	57822.93
562.11	57939.96
562.27	57834.64
562.44	57811.23
562.60	58040.60
562.77	58045.29
562.93	58042.95
563.10	58061.67
563.26	58129.54
563.42	58370.62
563.59	58110.82
563.75	58178.70
563.92	58174.02
564.08	58071.03
564.24	57986.77
564.41	58059.33
564.57	57858.04
564.74	58019.54
564.90	58129.54
565.07	58129.54
565.23	58272.32
565.39	58195.08
565.56	58120.18
565.72	58014.86
565.88	58309.77
566.05	58094.44
566.21	58321.47
566.38	58255.93
566.54	58218.49
566.70	58438.50
566.87	58443.18
567.03	58265.30
567.19	58635.10
567.36	58253.59
567.52	58274.66
567.68	58653.82
567.85	58120.18
568.01	58209.12
568.17	58267.64
568.34	58560.20
568.50	58546.16
568.66	58342.53
568.83	58497.01
568.99	58361.26
569.15	58309.77
569.32	58260.62
569.48	58279.34
569.64	58529.78
569.81	58574.25
569.97	58468.92
570.13	58621.06
570.30	58384.66
570.46	58511.05
570.62	58387.00
570.78	58518.07
570.95	58379.98
571.11	58279.34
571.27	58445.52
571.43	58403.39
571.60	58752.13
571.76	58478.28
571.92	58468.92
572.09	58672.55
572.25	58665.53
572.41	58522.76
572.57	58618.72
572.74	58855.11
572.90	58464.24
573.06	58344.87
573.22	58630.42
573.38	58684.25
573.55	58681.91
573.71	58862.13
573.87	58817.66
574.03	58628.08
574.20	58724.04
574.36	58845.75
574.52	58553.18
574.68	58717.02
574.84	58876.18
575.01	58803.62
575.17	58820.00
575.33	58651.48
575.49	58794.26
575.65	59037.67
575.82	58834.05
575.98	58623.40
576.14	58908.94
576.30	58990.86
576.46	58801.28
576.62	58841.07
576.79	58777.87
576.95	58628.08
577.11	58782.55
577.27	58918.31
577.43	59068.10
577.59	58953.41
577.75	58820.00
577.92	58810.64
578.08	58646.80
578.24	58644.46
578.40	58684.25
578.56	58850.43
578.72	58569.57
578.88	59042.35
579.04	59025.97
579.21	58880.86
579.37	58759.15
579.53	58990.86
579.69	58527.44
579.85	58958.09
580.01	58955.75
580.17	58599.99
580.33	58990.86
580.49	58838.73
580.65	58981.50
580.82	59025.97
580.98	58892.56
581.14	58880.86
581.30	58974.48
581.46	58841.07
581.62	58904.26
581.78	58880.86
581.94	59049.38
582.10	58866.81
582.26	59061.08
582.42	58887.88
582.58	59386.41
582.74	59222.58
582.90	59121.93
583.06	58939.37
583.22	58857.45
583.38	59253.00
583.54	59054.06
583.70	59030.65
583.86	59112.57
584.02	58955.75
584.18	59058.74
584.34	59119.59
584.50	59206.19
584.66	59253.00
584.82	58927.67
584.98	59054.06
585.14	58986.18
585.30	58855.11
585.46	59072.78
585.62	58951.07
585.78	59007.25
585.94	58960.44
586.10	59086.82
586.26	59138.32
586.42	59105.55
586.58	59192.15
586.74	59091.51
586.90	59194.49
587.06	59140.66
587.22	59004.91
587.38	58852.77
587.54	59264.70
587.70	59419.18
587.86	59161.72
588.02	59229.60
588.18	59407.48
588.34	59079.80
588.49	59056.40
588.65	59154.70
588.81	59152.36
588.97	59047.04
589.13	59089.16
589.29	59175.76
589.45	59243.64
589.61	58983.84
589.77	59407.48
589.93	59496.42
590.08	59313.86
590.24	59334.92
590.40	59597.06
590.56	59234.28
590.72	59243.64
590.88	59274.07
591.04	59248.32
591.20	59550.25
591.35	59540.89
591.51	59814.73
591.67	59334.92
591.83	59491.74
591.99	59477.69
592.15	59447.27
592.31	59437.90
592.46	59379.39
592.62	59363.01
592.78	59447.27
592.94	59250.66
593.10	59334.92
593.26	59709.41
593.41	59533.87
593.57	59414.50
593.73	59451.95
593.89	59550.25
594.05	59419.18
594.20	59409.82
594.36	59573.66
594.52	59473.01
594.68	59363.01
594.84	59428.54
594.99	59767.92
595.15	59636.85
595.31	59735.15
595.47	59374.71
595.62	59325.56
595.78	59348.96
595.94	59643.87
596.10	59578.34
596.25	59400.46
596.41	59318.54
596.57	59428.54
596.73	59578.34
596.88	59463.65
597.04	59784.30
597.20	59753.88
597.36	59533.87
597.51	59536.21
597.67	59484.72
597.83	59367.69
597.99	59634.51
598.14	59526.84
598.30	59538.55
598.46	59601.74
598.61	59800.69
598.77	59587.70
598.93	59653.23
599.09	59978.57
599.24	59817.07
599.40	59646.21
599.56	59767.92
599.71	59540.89
599.87	59646.21
600.03	59400.46
600.18	59709.41
600.34	59669.62
600.50	59468.33
600.65	59746.86
600.81	60058.15
600.97	59992.61
601.12	59814.73
601.28	59763.24
601.44	59660.26
601.59	59674.30
601.75	59803.03
601.91	59756.22
602.06	59709.41
602.22	59540.89
602.37	59568.97
602.53	59807.71
602.69	59767.92
602.84	59697.70
603.00	59716.43
603.16	60009.00
603.31	59831.11
603.47	59561.95
603.62	59468.33
603.78	59576.00
603.94	59409.82
604.09	59599.40
604.25	59477.69
604.40	59599.40
604.56	59620.47
604.71	59877.93
604.87	59791.33
605.03	59590.04
605.18	59662.60
605.34	59765.58
605.49	59171.08
605.65	59484.72
605.80	59552.59
605.96	59529.19
606.12	59536.21
606.27	59716.43
606.43	59697.70
606.58	59868.56
606.74	59613.44
606.89	59828.77
607.05	59650.89
607.20	59873.24
607.36	59805.37
607.51	59746.86
607.67	59475.35
607.82	59583.02
607.98	59320.88
608.13	59363.01
608.29	59355.99
608.44	59660.26
608.60	59536.21
608.75	59721.11
608.91	59753.88
609.06	59606.42
609.22	59618.13
609.37	59367.69
609.53	59536.21
609.68	59573.66
609.84	59241.30
609.99	59423.86
610.15	59568.97
610.30	59407.48
610.46	59299.81
610.61	59571.32
610.76	59456.63
610.92	59398.12
611.07	59601.74
611.23	59405.14
611.38	59660.26
611.54	59388.75
611.69	59381.73
611.84	59278.75
612.00	59379.39
612.15	59260.02
612.31	59592.38
612.46	59330.24
612.62	59381.73
612.77	59346.62
612.92	59313.86
613.08	59334.92
613.23	59140.66
613.39	59269.39
613.54	59210.87
613.69	59203.85
613.85	59201.51
614.00	59344.28
614.15	59316.20
614.31	59437.90
614.46	59449.61
614.62	59133.63
614.77	59384.07
614.92	59299.81
615.08	59276.41
615.23	59089.16
615.38	58967.46
615.54	59047.04
615.69	59056.40
615.84	59072.78
616.00	59384.07
616.15	59269.39
616.30	59360.67
616.46	59260.02
616.61	59360.67
616.76	59423.86
616.92	59140.66
617.07	59288.11
617.22	59044.69
617.37	59065.76
617.53	59180.45
617.68	59037.67
617.83	58937.03
617.99	58990.86
618.14	59159.38
618.29	58899.58
618.45	58988.52
618.60	59208.53
618.75	58899.58
618.90	59103.21
619.06	59133.63
619.21	59002.56
619.36	59264.70
619.51	58763.83
619.67	58864.47
619.82	58869.15
619.97	58724.04
620.12	58798.94
620.28	58784.90
620.43	59079.80
620.58	58969.80
620.73	58981.50
620.89	58820.00
621.04	58953.41
621.19	58969.80
621.34	58763.83
621.49	58583.61
621.65	58609.35
621.80	58747.45
621.95	58522.76
622.10	58724.04
622.25	58782.55
622.41	58583.61
622.56	58805.96
622.71	58656.17
622.86	58419.77
623.01	58623.40
623.16	58656.17
623.32	58288.70
623.47	58651.48
623.62	58398.71
623.77	58588.29
623.92	58658.51
624.07	58543.82
624.23	58501.69
624.38	58590.63
624.53	58717.02
624.68	58553.18
624.83	58588.29
624.98	58401.05
625.13	58284.02
625.29	58365.94
625.44	58436.16
625.59	58094.44
625.74	58185.72
625.89	58145.93
626.04	58080.39
626.19	57939.96
626.34	58066.35
626.49	58150.61
626.65	58232.53
626.80	58468.92
626.95	58192.74
627.10	58143.59
627.25	58239.55
627.40	58188.06
627.55	58007.84
627.70	58045.29
627.85	57726.97
628.00	57963.37
628.15	57872.09
628.30	58157.63
628.45	58045.29
628.60	57946.98
628.76	57932.94
628.91	58265.30
629.06	58049.97
629.21	57944.64
629.36	58059.33
629.51	57961.03
629.66	57797.19
629.81	57956.35
629.96	57710.59
630.11	58056.99
630.26	57626.33
630.41	57551.43
630.56	57691.86
630.71	57715.27
630.86	57820.59
631.01	57645.05
631.16	57949.32
631.31	57813.57
631.46	57591.22
631.61	57797.19
631.76	57698.89
631.91	57560.79
632.06	57565.48
632.21	57537.39
632.36	57434.41
632.51	57024.81
632.66	57757.40
632.81	57450.79
632.96	57563.14
633.10	57530.37
633.25	57607.61
633.40	57588.88
633.55	57628.67
633.70	57263.55
633.85	57167.58
634.00	56779.06
634.15	57167.58
634.30	57247.16
634.45	57565.48
634.60	57595.90
634.75	57638.03
634.90	57183.97
635.05	57701.23
635.19	57345.47
635.34	57371.21
635.49	57364.19
635.64	57371.21
635.79	57190.99
635.94	57268.23
636.09	57202.69
636.24	57076.30
636.39	56989.70
636.53	57045.88
636.68	57310.36
636.83	56914.81
636.98	57354.83
637.13	57340.78
637.28	57141.84
637.43	57125.46
637.57	57282.27
637.72	57104.39
637.87	57113.75
638.02	57123.11
638.17	56938.21
638.32	56748.63
638.46	56694.80
638.61	56612.88
638.76	56687.78
638.91	56643.30
639.06	57134.82
639.20	57043.54
639.35	57176.95
639.50	57024.81
639.65	56879.70
639.80	56863.32
639.94	56879.70
640.09	56666.71
640.24	56500.53
640.39	56713.52
640.54	56413.93
640.68	56657.35
640.83	56629.26
640.98	56388.19
641.13	56324.99
641.27	56725.22
641.42	56364.78
641.57	56528.62
641.72	56760.33
641.86	56549.68
642.01	56582.45
642.16	56526.28
642.31	56395.21
642.45	56685.43
642.60	56128.39
642.75	56659.69
642.90	56261.80
643.04	56406.91
643.19	55884.97
643.34	56296.91
643.48	56608.20
643.63	56505.21
643.78	56348.40
643.93	56563.73
644.07	56605.86
644.22	56411.59
644.37	56533.30
644.51	56067.53
644.66	56404.57
644.81	56184.56
644.95	56151.79
645.10	56207.97
645.25	55875.61
645.39	56343.72
645.54	56104.98
645.69	56268.82
645.83	56168.18
645.98	56257.12
646.13	56126.05
646.27	56247.75
646.42	56128.39
646.57	56214.99
646.71	56020.72
646.86	56062.85
647.00	56095.62
647.15	55793.69
647.30	55875.61
647.44	55964.55
647.59	55856.88
647.74	55674.32
647.88	55664.96
648.03	55924.76
648.17	55913.06
648.32	56161.15
648.47	55592.40
648.61	55674.32
648.76	55744.54
648.90	55674.32
649.05	55800.71
649.20	55435.59
649.34	55772.63
649.49	55522.19
649.63	55805.39
649.78	55716.45
649.92	55894.33
650.07	56013.70
650.21	55760.92
650.36	55760.92
650.51	55561.98
650.65	55868.59
650.80	55618.15
650.94	55798.37
651.09	55524.53
651.23	55421.55
651.38	55468.36
651.52	55168.77
651.67	55393.46
651.81	55400.48
651.96	55341.97
652.10	55323.24
652.25	55276.43
652.39	55412.18
652.54	55674.32
652.68	55309.20
652.83	55491.76
652.97	55377.08
653.12	55365.37
653.26	55105.57
653.41	55552.62
653.55	55409.84
653.70	55229.62
653.84	55182.81
653.99	54962.80
654.13	55269.41
654.27	55257.71
654.42	55110.25
654.56	55084.51
654.71	55246.00
654.85	55145.36
655.00	55295.16
655.14	55269.41
655.29	54845.77
655.43	54731.09
655.57	54770.88
655.72	54777.90
655.86	54855.14
656.01	54773.22
656.15	54630.44
656.30	54784.92
656.44	54679.60
656.58	54918.33
656.73	55079.83
656.87	54789.60
657.01	54988.55
657.16	54756.83
657.30	54700.66
657.45	55082.17
657.59	54773.22
657.73	54644.49
657.88	54660.87
658.02	54518.10
658.16	54492.35
658.31	54408.09
658.45	54541.50
658.60	54181.06
658.74	54485.33
658.88	54415.11
659.03	54337.88
659.17	54487.67
659.31	54372.99
659.46	54471.29
659.60	54534.48
659.74	54478.31
659.89	54277.02
660.03	54073.40
660.17	54157.66
660.32	53855.73
660.46	54017.22
660.60	53626.35
660.74	53794.87
660.89	53876.79
661.03	53865.09
661.17	54309.79
661.32	53862.75
661.46	53565.50
661.60	53860.41
661.74	54106.16
661.89	53897.86
662.03	53530.39
662.17	53759.76
662.31	53528.05
662.46	53481.24
662.60	53560.82
662.74	53499.97
662.88	53165.27
663.03	53205.06
663.17	53132.50
663.31	53069.31
663.45	52992.07
663.60	53415.71
663.74	53162.93
663.88	53305.70
664.02	53223.78
664.17	53481.24
664.31	53207.40
664.45	53048.24
664.59	52741.63
664.73	53186.33
664.88	52900.79
665.02	52435.02
665.16	52292.25
665.30	52458.43
665.44	52570.77
665.59	52465.45
665.73	52425.66
665.87	52135.43
666.01	52409.28
666.15	52678.44
666.29	52594.18
666.44	52605.88
666.58	52165.86
666.72	52308.63
666.86	52509.92
667.00	52779.08
667.14	52243.10
667.28	51892.02
667.43	51835.84
667.57	52121.39
667.71	51791.37
667.85	51524.55
667.99	51679.03
668.13	51456.68
668.27	51437.95
668.41	51803.08
668.56	51363.06
668.70	51597.11
668.84	51480.08
668.98	51604.13
669.12	51526.89
669.26	51749.24
669.40	51316.25
669.54	51253.05
669.68	50906.65
669.82	51084.53
669.96	51161.77
670.10	51138.36
670.25	51072.83
670.39	51068.15
670.53	50841.12
670.67	51278.80
670.81	51213.26
670.95	50904.31
671.09	50890.27
671.23	50681.96
671.37	50660.90
671.51	50731.11
671.65	50358.97
671.79	50059.38
671.93	50162.36
672.07	50394.07
672.21	50665.58
672.35	49940.01
672.49	49968.10
672.63	50174.06
672.77	49900.22
672.91	49923.63
673.05	49635.74
673.19	49841.71
673.33	49797.24
673.47	49954.05
673.61	49827.66
673.75	49907.24
673.89	49397.01
674.03	49818.30
674.17	49825.32
674.31	49572.55
674.45	49546.80
674.59	49097.42
674.73	48928.90
674.87	48676.12
675.01	48486.54
675.15	48418.66
675.29	48535.69
675.43	48713.57
675.56	48542.71
675.70	48774.42
675.84	48470.15
675.98	47782.04
676.12	48526.33
676.26	48477.18
676.40	48013.75
676.54	47849.91
676.68	47980.98
676.82	47091.58
676.96	47449.68
677.10	47386.49
677.23	47196.90
677.37	46876.25
677.51	46810.71
677.65	46918.38
677.79	46740.50
677.93	46923.06
678.07	47222.65
678.21	46424.53
678.34	46417.50
678.48	46394.10
678.62	46548.57
678.76	46293.46
678.90	46136.64
679.04	45703.64
679.18	45855.78
679.31	45467.25
679.45	45420.44
679.59	45265.96
679.73	44774.45
679.87	45308.09
680.00	45090.42
680.14	44907.86
680.28	45024.89
680.42	44636.36
680.56	44996.80
680.70	45020.20
680.83	45139.57
680.97	44231.44
681.11	44589.55
681.25	44329.75
681.39	43892.07
681.52	43690.78
681.66	43269.48
681.80	42983.94
681.94	42792.01
682.07	43115.01
682.21	43274.16
682.35	42948.83
682.49	42911.38
682.62	42766.27
682.76	42286.46
682.90	42408.17
683.04	42773.29
683.17	42754.57
683.31	42394.12
683.45	42380.08
683.59	42330.93
683.72	42003.25
683.86	42129.64
684.00	41558.55
684.13	41696.64
684.27	41270.67
684.41	40746.39
684.55	40741.71
684.68	40760.43
684.82	40786.18
684.96	40830.65
685.09	40545.10
685.23	40779.15
685.37	40741.71
685.50	40432.75
685.64	40325.09
685.78	40069.97
685.91	40615.32
686.05	40311.05
686.19	40222.11
686.32	39768.04
686.46	39686.12
686.60	39323.34
686.73	39342.06
686.87	38698.42
687.01	39105.67
687.14	38672.67
687.28	38366.06
687.42	39056.52
687.55	38398.83
687.69	38277.12
687.82	38314.57
687.96	38052.43
688.10	38337.98
688.23	38202.22
688.37	38237.33
688.50	37694.33
688.64	37666.24
688.78	37200.47
688.91	37631.13
689.05	37432.19
689.18	36343.84
689.32	35882.75
689.46	36240.86
689.59	36376.61
689.73	36758.11
689.86	35791.47
690.00	36055.95
690.13	36025.53
690.27	36594.28
690.41	36715.98
690.54	35763.39
690.68	35807.86
690.81	35620.61
690.95	35557.42
691.08	35873.39
691.22	35629.98
691.35	35257.83
691.49	35365.49
691.62	35133.78
691.76	34995.69
691.89	34656.31
692.03	34340.34
692.16	34183.52
692.30	34225.65
692.43	34059.48
692.57	33839.47
692.70	34139.05
692.84	33919.04
692.97	33593.71
693.11	33991.60
693.24	33500.09
693.38	33364.34
693.51	33432.21
693.65	33284.76
693.78	33469.66
693.92	33186.46
694.05	32765.16
694.19	32435.14
694.32	31838.31
694.45	31854.69
694.59	31693.19
694.72	32196.41
694.86	32039.59
694.99	31894.48
695.13	31735.32
695.26	31615.96
695.39	31637.02
695.53	31751.71
695.66	31847.67
695.80	31145.51
695.93	31391.26
696.07	30962.95
696.20	30810.81
696.33	30836.56
696.47	30766.34
696.60	30824.86
696.73	30771.02
696.87	30728.89
697.00	30216.32
697.14	29603.10
697.27	29427.56
697.40	29298.83
697.54	29277.76
697.67	29055.41
697.80	28943.06
697.94	29024.98
698.07	29336.27
698.21	28945.41
698.34	29127.97
698.47	28758.16
698.61	28456.23
698.74	28388.36
698.87	28470.28
699.01	28161.33
699.14	28041.96
699.27	28219.84
699.40	27833.65
699.54	27910.89
699.67	27733.01
699.80	27468.53
699.94	27604.28
700.07	27143.19
700.20	27377.25
700.34	27269.58
700.47	27236.81
700.60	27103.40
700.73	27199.37
700.87	26663.38
701.00	26302.94
701.13	26733.60
701.26	26579.12
701.40	26403.58
701.53	26094.63
701.66	26148.46
701.79	25951.86
701.93	25603.12
702.06	25460.35
702.19	25514.18
702.32	25465.03
702.46	25490.77
702.59	25462.69
702.72	24863.51
702.85	24863.51
702.99	24931.39
703.12	24781.59
703.25	24322.85
703.38	24465.62
703.51	24423.49
703.65	24819.04
703.78	24409.45
703.91	24395.40
704.04	24137.94
704.17	24173.05
704.31	23667.50
704.44	23616.01
704.57	23936.66
704.70	23889.85
704.83	23585.58
704.96	23267.27
705.10	22925.55
705.23	23051.94
>>>>>End Processed Spectral Data<<<<<
