SpectraSuite Data File
++++++++++++++++++++++++++++++++++++
Date: Fri Oct 04 11:48:39 GMT-05:00 2013
User: price-jones
Dark Spectrum Present: No
Reference Spectrum Present: No
Number of Sampled Component Spectra: 1
Spectrometers: USB2+H05261
Integration Time (usec): 100000 (USB2+H05261)
Spectra Averaged: 1 (USB2+H05261)
Boxcar Smoothing: 0 (USB2+H05261)
Correct for Electrical Dark: No (USB2+H05261)
Strobe/Lamp Enabled: No (USB2+H05261)
Correct for Detector Non-linearity: No (USB2+H05261)
Correct for Stray Light: No (USB2+H05261)
Number of Pixels in Processed Spectrum: 2048
>>>>>Begin Processed Spectral Data<<<<<
365.73	39.79
365.92	39.79
366.12	39.79
366.32	0.00
366.52	0.00
366.72	21.06
366.91	0.00
367.11	0.00
367.31	0.00
367.51	0.00
367.70	0.00
367.90	0.00
368.10	0.00
368.30	0.00
368.49	0.00
368.69	0.00
368.89	0.00
369.09	0.00
369.28	0.00
369.48	0.00
369.68	0.00
369.87	0.00
370.07	51.49
370.27	56.17
370.47	39.79
370.66	229.37
370.86	306.61
371.06	318.31
371.25	355.76
371.45	269.16
371.65	365.12
371.84	346.40
372.04	320.65
372.24	301.93
372.44	360.44
372.63	416.62
372.83	428.32
373.03	442.36
373.22	395.55
373.42	461.09
373.62	327.68
373.81	442.36
374.01	456.40
374.21	388.53
374.40	456.40
374.60	449.38
374.79	414.27
374.99	397.89
375.19	454.06
375.38	489.17
375.58	428.32
375.78	489.17
375.97	418.96
376.17	559.39
376.37	472.79
376.56	444.70
376.76	433.00
376.95	528.96
377.15	379.17
377.35	573.43
377.54	458.74
377.74	458.74
377.93	440.02
378.13	519.60
378.33	484.49
378.52	585.13
378.72	521.94
378.91	484.49
379.11	533.64
379.31	463.43
379.50	519.60
379.70	554.71
379.89	554.71
380.09	472.79
380.28	486.83
380.48	580.45
380.68	568.75
380.87	610.88
381.07	550.03
381.26	601.52
381.46	533.64
381.65	531.30
381.85	606.20
382.04	540.66
382.24	653.01
382.43	557.05
382.63	559.39
382.83	526.62
383.02	592.16
383.22	599.18
383.41	512.58
383.61	655.35
383.80	531.30
384.00	613.22
384.19	559.39
384.39	564.07
384.58	592.16
384.78	627.26
384.97	587.47
385.17	545.34
385.36	634.29
385.56	704.50
385.75	634.29
385.95	660.03
386.14	730.25
386.34	627.26
386.53	641.31
386.72	585.13
386.92	660.03
387.11	697.48
387.31	650.67
387.50	641.31
387.70	681.10
387.89	650.67
388.09	660.03
388.28	692.80
388.48	758.33
388.67	660.03
388.86	791.10
389.06	704.50
389.25	807.48
389.45	807.48
389.64	755.99
389.84	763.01
390.03	774.72
390.22	737.27
390.42	833.23
390.61	788.76
390.81	784.08
391.00	767.70
391.19	835.57
391.39	823.87
391.58	805.14
391.78	861.32
391.97	959.62
392.16	770.04
392.36	842.59
392.55	866.00
392.75	882.38
392.94	917.49
393.13	889.40
393.33	849.61
393.52	903.45
393.71	954.94
393.91	880.04
394.10	842.59
394.29	1029.84
394.49	924.51
394.68	959.62
394.88	919.83
395.07	856.64
395.26	1004.09
395.46	976.00
395.65	1067.28
395.84	1013.45
396.04	1104.73
396.23	1036.86
396.42	1029.84
396.62	1046.22
396.81	1018.13
397.00	1046.22
397.19	1036.86
397.39	1160.91
397.58	1125.80
397.77	1121.12
397.97	1027.50
398.16	1137.50
398.35	1043.88
398.55	1083.67
398.74	1128.14
398.93	1205.38
399.12	1151.54
399.32	1221.76
399.51	1100.05
399.70	1158.57
399.90	1102.39
400.09	1214.74
400.28	1280.27
400.47	1207.72
400.67	1352.83
400.86	1259.21
401.05	1249.85
401.24	1224.10
401.44	1287.29
401.63	1338.79
401.82	1320.06
402.01	1322.40
402.21	1299.00
402.40	1427.73
402.59	1409.00
402.78	1427.73
402.97	1514.33
403.17	1521.35
403.36	1418.36
403.55	1497.94
403.74	1479.22
403.93	1516.67
404.13	1598.59
404.32	1528.37
404.51	1472.20
404.70	1561.14
404.89	1652.42
405.09	1650.08
405.28	1591.56
405.47	1605.61
405.66	1605.61
405.85	1584.54
406.05	1619.65
406.24	1612.63
406.43	1668.80
406.62	1631.35
406.81	1764.76
407.00	1710.93
407.20	1636.03
407.39	1741.36
407.58	1699.23
407.77	1776.47
407.96	1839.66
408.15	1771.79
408.34	1804.55
408.54	1902.86
408.73	1888.81
408.92	1900.52
409.11	1865.41
409.30	1954.35
409.49	1935.62
409.68	1984.77
409.87	2022.22
410.07	1959.03
410.26	1980.09
410.45	2057.33
410.64	1996.48
410.83	2169.68
411.02	2150.95
411.21	2172.02
411.40	2172.02
411.59	2221.17
411.78	2125.21
411.98	2340.54
412.17	2275.00
412.36	2298.41
412.55	2464.58
412.74	2319.47
412.93	2363.94
413.12	2333.51
413.31	2448.20
413.50	2392.03
413.69	2438.84
413.88	2562.89
414.07	2504.37
414.26	2555.86
414.45	2509.05
414.64	2583.95
414.83	2649.49
415.02	2626.08
415.22	2572.25
415.41	2696.30
415.60	2684.59
415.79	2747.79
415.98	2773.53
416.17	2787.58
416.36	2822.69
416.55	2834.39
416.74	2913.97
416.93	2904.60
417.12	2956.10
417.31	2916.31
417.50	2904.60
417.69	3119.93
417.88	3087.17
418.07	2913.97
418.26	2972.48
418.45	2988.86
418.64	3059.08
418.83	3236.96
419.02	3112.91
419.21	3185.47
419.39	3157.38
419.58	3136.32
419.77	3129.30
419.96	3222.92
420.15	3379.73
420.34	3234.62
420.53	3272.07
420.72	3428.88
420.91	3459.31
421.10	3456.97
421.29	3531.87
421.48	3243.98
421.67	3396.12
421.86	3215.90
422.05	3403.14
422.24	3428.88
422.43	3435.91
422.61	3478.04
422.80	3634.85
422.99	3588.04
423.18	3473.36
423.37	3515.48
423.56	3473.36
423.75	3534.21
423.94	3438.25
424.13	3318.88
424.32	3466.33
424.50	3595.06
424.69	3672.30
424.88	3581.02
425.07	3433.57
425.26	3456.97
425.45	3548.25
425.64	3630.17
425.83	3487.40
426.01	3602.08
426.20	3632.51
426.39	3665.28
426.58	3620.81
426.77	3709.75
426.96	3618.47
427.15	3707.41
427.33	3805.71
427.52	3742.52
427.71	3803.37
427.90	3772.94
428.09	3875.93
428.28	3829.12
428.46	3915.72
428.65	3866.56
428.84	3946.14
429.03	4009.34
429.22	3840.82
429.40	4009.34
429.59	4039.76
429.78	3861.88
429.97	3707.41
430.16	3836.14
430.34	3997.64
430.53	4117.00
430.72	4035.08
430.91	4009.34
431.10	3941.46
431.28	4072.53
431.47	4231.69
431.66	4367.44
431.85	4215.30
432.03	4367.44
432.22	4250.41
432.41	4173.18
432.60	4344.03
432.79	4304.25
432.97	4308.93
433.16	4292.54
433.35	4241.05
433.54	4332.33
433.72	4568.73
433.91	4390.84
434.10	4320.63
434.28	4374.46
434.47	4458.72
434.66	4451.70
434.85	4531.28
435.03	4500.85
435.22	4542.98
435.41	4704.48
435.59	4531.28
435.78	4643.62
435.97	4573.41
436.16	4634.26
436.34	4571.07
436.53	4723.20
436.72	4805.12
436.90	4573.41
437.09	4901.08
437.28	4762.99
437.46	4774.69
437.65	4833.21
437.84	4922.15
438.02	4933.85
438.21	4978.32
438.40	4924.49
438.58	4975.98
438.77	4987.68
438.96	5011.09
439.14	5022.79
439.33	5090.67
439.52	5177.26
439.70	5270.89
439.89	5217.05
440.08	5305.99
440.26	5303.65
440.45	5268.55
440.63	5455.79
440.82	5540.05
441.01	5439.40
441.19	5472.17
441.38	5453.45
441.57	5530.69
441.75	5607.92
441.94	5785.80
442.12	5743.67
442.31	5818.57
442.50	5741.33
442.68	5738.99
442.87	5825.59
443.05	5823.25
443.24	6094.76
443.43	6057.31
443.61	5916.87
443.80	5933.26
443.98	5839.64
444.17	5598.56
444.35	6012.84
444.54	6054.97
444.73	6038.58
444.91	5853.68
445.10	5916.87
445.28	5921.56
445.47	6024.54
445.65	5973.05
445.84	6118.16
446.02	6047.94
446.21	6153.27
446.39	5937.94
446.58	6141.57
446.77	5928.58
446.95	6050.28
447.14	6169.65
447.32	6134.54
447.51	6033.90
447.69	6076.03
447.88	6160.29
448.06	6211.78
448.25	6183.70
448.43	6228.17
448.62	6153.27
448.80	6216.46
448.99	6118.16
449.17	6427.11
449.36	6392.00
449.54	6469.24
449.73	6438.81
449.91	6562.86
450.10	6588.61
450.28	6544.14
450.46	6523.07
450.65	6504.35
450.83	6644.78
451.02	6513.71
451.20	6696.27
451.39	6604.99
451.57	6516.05
451.76	6464.56
451.94	6640.10
452.13	6771.17
452.31	6644.78
452.49	6642.44
452.68	6726.70
452.86	6768.83
453.05	6670.53
453.23	7016.93
453.42	6862.45
453.60	6731.38
453.78	6848.41
453.97	6710.32
454.15	6705.63
454.34	6862.45
454.52	7082.46
454.70	7012.24
454.89	7016.93
455.07	7000.54
455.26	7136.29
455.44	7325.88
455.62	7133.95
455.81	7045.01
455.99	7082.46
456.17	7379.71
456.36	7417.16
456.54	7293.11
456.73	7215.87
456.91	7447.58
457.09	7410.14
457.28	7620.78
457.46	7482.69
457.64	7707.38
457.83	7475.67
458.01	7459.29
458.19	7695.68
458.38	7468.65
458.56	7801.01
458.74	7707.38
458.93	7536.52
459.11	7775.26
459.29	7740.15
459.48	7786.96
459.66	7824.41
459.84	7728.45
460.03	8084.21
460.21	7899.31
460.39	7889.95
460.57	7911.01
460.76	8021.02
460.94	8250.39
461.12	8039.74
461.31	8056.12
461.49	8163.79
461.67	8032.72
461.85	8170.81
462.04	8109.96
462.22	8659.98
462.40	8276.13
462.59	8215.28
462.77	8189.53
462.95	8229.32
463.13	8365.07
463.32	8322.94
463.50	8271.45
463.68	8638.92
463.86	8358.05
464.05	8461.04
464.23	8491.46
464.41	8468.06
464.59	8416.57
464.78	8554.66
464.96	8606.15
465.14	8416.57
465.32	8746.58
465.50	8835.52
465.69	8898.72
465.87	8442.31
466.05	8725.52
466.23	8812.12
466.41	8762.97
466.60	9022.77
466.78	8837.86
466.96	8695.09
467.14	8624.87
467.32	8887.01
467.51	9095.32
467.69	8751.26
467.87	8821.48
468.05	8837.86
468.23	8823.82
468.41	9011.06
468.60	9011.06
468.78	9111.71
468.96	9057.87
469.14	9004.04
469.32	9418.32
469.50	8917.44
469.69	9362.14
469.87	9451.08
470.05	9373.85
470.23	9474.49
470.41	9535.34
470.59	9418.32
470.77	9514.28
470.95	9645.35
471.14	9493.21
471.32	9500.23
471.50	9710.88
471.68	9657.05
471.86	9769.40
472.04	9870.04
472.22	10167.29
472.40	9635.99
472.58	10244.52
472.77	10190.69
472.95	10174.31
473.13	10265.59
473.31	10134.52
473.49	10251.55
473.67	10281.97
473.85	10183.67
474.03	10370.91
474.21	10520.71
474.39	10490.28
474.57	10574.54
474.75	10637.73
474.93	10717.31
475.12	10513.69
475.30	10745.40
475.48	10705.61
475.66	10698.59
475.84	10595.61
476.02	10972.43
476.20	10878.81
476.38	11192.44
476.56	11236.91
476.74	11494.37
476.92	11492.03
477.10	11344.58
477.28	11559.91
477.46	11279.04
477.64	11499.05
477.82	11765.87
478.00	12116.95
478.18	12189.51
478.36	12032.69
478.54	11948.43
478.72	12304.20
478.90	12446.97
479.08	12737.20
479.26	12571.02
479.44	12681.02
479.62	12791.03
479.80	12776.98
479.98	12835.50
480.16	13228.71
480.34	12952.52
480.52	13467.44
480.70	13186.58
480.88	13228.71
481.06	13509.57
481.24	13371.48
481.41	13495.53
481.59	13769.37
481.77	14075.98
481.95	14183.65
482.13	14054.92
482.31	14092.37
482.49	14410.68
482.67	14281.95
482.85	14616.65
483.03	14867.08
483.21	14789.85
483.39	14892.83
483.57	14871.76
483.74	14871.76
483.92	15208.80
484.10	15084.75
484.28	15550.52
484.46	15789.25
484.64	16093.52
484.82	15662.86
485.00	15768.19
485.18	16077.14
485.35	16664.61
485.53	16198.85
485.71	16350.98
485.89	16596.74
486.07	16507.80
486.25	16744.19
486.43	16727.81
486.61	16896.33
486.78	17184.21
486.96	17041.44
487.14	17394.86
487.32	17338.69
487.50	17565.72
487.68	17750.62
487.85	17928.50
488.03	18207.03
488.21	18464.49
488.39	18183.62
488.57	18553.43
488.75	18604.92
488.92	18904.51
489.10	19021.53
489.28	19274.31
489.46	19257.93
489.64	19370.27
489.81	19772.85
489.99	19438.15
490.17	19660.50
490.35	20187.12
490.53	19955.41
490.70	20219.89
490.88	20350.96
491.06	20741.83
491.24	20472.67
491.41	20805.02
491.59	20823.75
491.77	20957.16
491.95	21071.84
492.13	21303.56
492.30	21338.66
492.48	21458.03
492.66	21219.30
492.84	21549.31
493.01	21902.73
493.19	21703.79
493.37	22354.46
493.54	21846.56
493.72	22340.41
493.90	22270.20
494.08	22302.96
494.25	22707.88
494.43	22625.96
494.61	22773.41
494.79	23082.36
494.96	22920.87
495.14	23253.22
495.32	23686.22
495.49	23723.67
495.67	23758.78
495.85	24149.65
496.02	24107.52
496.20	24414.13
496.38	24219.86
496.55	24362.64
496.73	24999.26
496.91	24889.26
497.09	24971.18
497.26	24882.24
497.44	24964.15
497.62	25135.01
497.79	25493.12
497.97	25254.38
498.14	25806.75
498.32	25811.43
498.50	25858.24
498.67	26050.16
498.85	26150.81
499.03	25844.20
499.20	26143.78
499.38	26312.30
499.56	26338.05
499.73	26513.59
499.91	26349.75
500.08	26892.76
500.26	26754.66
500.44	26703.17
500.61	26906.80
500.79	27365.54
500.97	27110.43
501.14	27686.20
501.32	27300.01
501.49	27637.05
501.67	27468.53
501.84	27541.08
502.02	27435.76
502.20	28044.30
502.37	27901.53
502.55	28367.29
502.72	28290.06
502.90	28371.97
503.07	28542.83
503.25	28194.09
503.43	28477.30
503.60	28561.56
503.78	29109.24
503.95	28584.96
504.13	28835.40
504.30	29174.78
504.48	28734.76
504.65	28943.06
504.83	29556.28
505.01	29862.90
505.18	29420.53
505.36	29830.13
505.53	29635.86
505.71	29670.97
505.88	30000.99
506.06	29432.24
506.23	30246.74
506.41	29984.60
506.58	30508.88
506.76	30305.26
506.93	30136.74
507.11	30148.44
507.28	30703.15
507.46	30820.17
507.63	30700.81
507.81	31058.91
507.98	30623.57
508.16	30646.97
508.33	31056.57
508.50	31531.70
508.68	31384.24
508.85	31646.38
509.03	31175.94
509.20	31571.49
509.38	31814.90
509.55	31901.50
509.73	31850.01
509.90	31934.27
510.08	31934.27
510.25	31974.06
510.42	32449.19
510.60	32432.80
510.77	32477.27
510.95	32938.36
511.12	32694.94
511.30	32348.54
511.47	33233.27
511.64	32837.72
511.82	33017.94
511.99	32931.34
512.17	32826.01
512.34	32973.47
512.51	33385.40
512.69	33720.10
512.86	33673.29
513.04	33872.23
513.21	33914.36
513.38	34064.16
513.56	33755.21
513.73	33652.22
513.90	34227.99
514.08	33982.24
514.25	34375.45
514.43	34665.67
514.60	34305.23
514.77	34309.91
514.95	34314.59
515.12	34705.46
515.29	34452.69
515.47	34983.99
515.64	35084.63
515.81	34995.69
515.99	34993.35
516.16	35393.58
516.33	35459.12
516.51	35215.70
516.68	35426.35
516.85	35276.55
517.03	36109.78
517.20	35288.26
517.37	35508.27
517.54	35700.19
517.72	35917.86
517.89	35700.19
518.06	35576.14
518.24	35903.82
518.41	35751.68
518.58	35945.95
518.75	36505.34
518.93	36577.89
519.10	36123.83
519.27	36662.15
519.45	36409.37
519.62	36741.73
519.79	36943.02
519.96	36968.76
520.14	36882.16
520.31	37053.02
520.48	37347.93
520.65	36898.55
520.83	37251.97
521.00	37179.41
521.17	36875.14
521.34	37521.13
521.52	37350.27
521.69	37652.20
521.86	37830.08
522.03	37727.10
522.20	37890.93
522.38	37771.57
522.55	37858.17
522.72	38117.96
522.89	38188.18
523.07	38490.11
523.24	38366.06
523.41	38220.95
523.58	37827.74
523.75	38178.82
523.92	38373.08
524.10	38843.53
524.27	38471.39
524.44	38644.59
524.61	39278.87
524.78	38969.92
524.96	38834.17
525.13	38440.96
525.30	39239.08
525.47	39269.51
525.64	39257.81
525.81	39571.44
525.98	39873.37
526.16	39353.77
526.33	39365.47
526.50	39634.63
526.67	39367.81
526.84	39606.55
527.01	39250.78
527.18	39695.49
527.36	39952.94
527.53	40076.99
527.70	40713.62
527.87	40238.49
528.04	39966.99
528.21	40062.95
528.38	40318.07
528.55	40009.12
528.72	40428.07
528.89	40259.55
529.07	40329.77
529.24	40652.76
529.41	40657.45
529.58	40678.51
529.75	40603.61
529.92	40664.47
530.09	40652.76
530.26	41083.42
530.43	41298.75
530.60	40722.98
530.77	40854.05
530.94	41375.99
531.11	40842.35
531.28	40973.42
531.46	40987.46
531.63	40825.96
531.80	41151.30
531.97	41647.49
532.14	41682.60
532.31	40898.52
532.48	41539.83
532.65	41116.19
532.82	41783.24
532.99	41525.78
533.16	41153.64
533.33	41984.53
533.50	42380.08
533.67	41930.70
533.84	41968.15
534.01	42246.67
534.18	42213.90
534.35	42602.43
534.52	41827.71
534.69	42366.04
534.86	42836.48
535.03	42323.91
535.20	42742.86
535.37	42405.83
535.54	42721.80
535.71	42340.29
535.88	42480.72
536.05	42719.46
536.22	42979.26
536.38	42986.28
536.55	42841.17
536.72	43302.25
536.89	42326.25
537.06	43044.79
537.23	42976.92
537.40	43117.35
537.57	43009.68
537.74	42951.17
537.91	43423.96
538.08	43679.08
538.25	43103.31
538.42	43655.67
538.59	43634.61
538.75	43639.29
538.92	43583.12
539.09	43779.72
539.26	43576.09
539.43	43908.45
539.60	44093.35
539.77	43964.62
539.94	43973.98
540.11	43962.28
540.28	44048.88
540.44	43810.15
540.61	43700.14
540.78	44296.98
540.95	44233.78
541.12	44126.12
541.29	44186.97
541.46	43751.63
541.62	44428.05
541.79	44315.70
541.96	43985.69
542.13	44170.59
542.30	44708.91
542.47	44849.35
542.63	44914.88
542.80	44091.01
542.97	44516.99
543.14	44744.02
543.31	44732.32
543.48	45165.32
543.64	45214.47
543.81	45586.61
543.98	45467.25
544.15	45198.09
544.32	45272.98
544.48	45404.05
544.65	45193.40
544.82	45282.34
544.99	45209.79
545.16	45577.25
545.32	45570.23
545.49	45537.46
545.66	46007.91
545.83	45935.35
546.00	45921.31
546.16	45656.83
546.33	45467.25
546.50	45368.94
546.67	45705.98
546.83	45155.96
547.00	46052.38
547.17	46052.38
547.34	46216.22
547.50	46012.59
547.67	46302.82
547.84	45963.44
548.00	46026.63
548.17	46450.27
548.34	46295.80
548.51	46731.14
548.67	46539.21
548.84	46244.30
549.01	46080.47
549.18	46316.86
549.34	46050.04
549.51	46110.89
549.68	46408.14
549.84	46431.55
550.01	46419.84
550.18	46660.92
550.34	46726.46
550.51	47021.36
550.68	46536.87
550.84	46536.87
551.01	46672.62
551.18	46431.55
551.34	46473.68
551.51	46735.82
551.68	47047.11
551.84	47337.33
552.01	46813.05
552.18	47342.02
552.34	46614.11
552.51	47445.00
552.68	46967.53
552.84	47136.05
553.01	47234.35
553.18	47456.70
553.34	47262.44
553.51	47552.66
553.67	47564.37
553.84	47421.59
554.01	47655.65
554.17	47353.72
554.34	47636.92
554.51	47611.18
554.67	47648.63
554.84	48098.01
555.00	47760.97
555.17	47459.04
555.33	47391.17
555.50	47634.58
555.67	47508.19
555.83	47501.17
556.00	47707.14
556.16	48184.61
556.33	47807.78
556.50	47498.83
556.66	48112.05
556.83	47599.47
556.99	48268.87
557.16	48119.07
557.32	47838.21
557.49	48076.94
557.65	47543.30
557.82	48114.39
557.98	47522.24
558.15	47842.89
558.32	48193.97
558.48	48252.48
558.65	47943.53
558.81	48332.06
558.98	48495.90
559.14	48292.27
559.31	47639.26
559.47	48168.22
559.64	48254.82
559.80	48449.09
559.97	48540.37
560.13	48240.78
560.30	48346.11
560.46	48683.14
560.63	48523.99
560.79	48346.11
560.96	48765.06
561.12	48130.78
561.29	48273.55
561.45	48404.62
561.61	48839.96
561.78	48486.54
561.94	48446.75
562.11	48278.23
562.27	48463.13
562.44	48409.30
562.60	48549.73
562.77	48615.27
562.93	48325.04
563.10	48612.93
563.26	48306.32
563.42	48882.09
563.59	48708.89
563.75	48692.50
563.92	48732.29
564.08	48451.43
564.24	48741.66
564.41	48800.17
564.57	48369.51
564.74	48832.94
564.90	48708.89
565.07	48982.73
565.23	49336.15
565.39	49003.80
565.56	48956.99
565.72	48921.88
565.88	48678.46
566.05	48830.60
566.21	48596.54
566.38	48896.13
566.54	48732.29
566.70	49020.18
566.87	48797.83
567.03	48882.09
567.19	49333.81
567.36	49209.76
567.52	48715.91
567.68	49153.59
567.85	48769.74
568.01	48884.43
568.17	49109.12
568.34	48978.05
568.50	48954.64
568.66	49109.12
568.83	49198.06
568.99	48790.81
569.15	49069.33
569.32	49090.40
569.48	48870.39
569.64	49322.11
569.81	49345.51
569.97	49104.44
570.13	49495.31
570.30	49013.16
570.46	49106.78
570.62	49324.45
570.78	49059.97
570.95	49214.44
571.11	48875.07
571.27	48549.73
571.43	49127.84
571.60	49509.35
571.76	49247.21
571.92	49207.42
572.09	49319.77
572.25	49008.48
572.41	49439.14
572.57	49434.45
572.74	49425.09
572.90	49223.81
573.06	49303.38
573.22	49291.68
573.38	49237.85
573.55	49401.69
573.71	49439.14
573.87	49773.83
574.03	49305.73
574.20	49345.51
574.36	49188.70
574.52	49523.40
574.68	49600.63
574.84	49385.30
575.01	49471.90
575.17	49813.62
575.33	49549.14
575.49	49425.09
575.65	49638.08
575.82	49352.54
575.98	49347.86
576.14	49389.98
576.30	49408.71
576.46	49275.30
576.62	49216.78
576.79	49282.32
576.95	49656.81
577.11	49638.08
577.27	49279.98
577.43	49621.70
577.59	49532.76
577.75	49439.14
577.92	49443.82
578.08	49483.61
578.24	49272.96
578.40	49228.49
578.56	49366.58
578.72	49581.91
578.88	49628.72
579.04	49516.37
579.21	49642.76
579.37	49401.69
579.53	49539.78
579.69	49244.87
579.85	49317.43
580.01	49656.81
580.17	49436.80
580.33	49425.09
580.49	49804.26
580.65	49844.05
580.82	50241.94
580.98	50019.59
581.14	49694.25
581.30	49792.56
581.46	49797.24
581.62	49439.14
581.78	49502.33
581.94	49605.31
582.10	49621.70
582.26	49670.85
582.42	49434.45
582.58	49586.59
582.74	49497.65
582.90	49755.11
583.06	49975.12
583.22	49745.75
583.38	49221.47
583.54	49602.97
583.70	49427.43
583.86	49848.73
584.02	49757.45
584.18	49862.77
584.34	50145.98
584.50	49909.58
584.66	49586.59
584.82	49670.85
584.98	49869.79
585.14	49827.66
585.30	49397.01
585.46	49553.82
585.62	49715.32
585.78	49869.79
585.94	49460.20
586.10	49727.02
586.26	49839.37
586.42	49806.60
586.58	49865.11
586.74	49738.72
586.90	49818.30
587.06	49539.78
587.22	49837.03
587.38	49579.57
587.54	49986.82
587.70	50117.89
587.86	49954.05
588.02	49764.47
588.18	49890.86
588.34	50089.80
588.49	49921.29
588.65	49628.72
588.81	49563.18
588.97	50042.99
589.13	49801.92
589.29	49808.94
589.45	49923.63
589.61	50244.28
589.77	50131.93
589.93	50174.06
590.08	50185.77
590.24	49895.54
590.40	50164.70
590.56	50131.93
590.72	49584.25
590.88	49574.89
591.04	49773.83
591.20	50230.24
591.35	50248.96
591.51	50443.23
591.67	50145.98
591.83	50319.18
591.99	50387.05
592.15	50131.93
592.31	50131.93
592.46	50042.99
592.62	49890.86
592.78	49965.76
592.94	50085.12
593.10	50103.85
593.26	50426.84
593.41	50150.66
593.57	50038.31
593.73	50291.09
593.89	50131.93
594.05	49907.24
594.20	50080.44
594.36	50075.76
594.52	50099.17
594.68	49837.03
594.84	49921.29
594.99	50122.57
595.15	50382.37
595.31	50260.66
595.47	50272.37
595.62	50557.91
595.78	49947.03
595.94	49925.97
596.10	50059.38
596.25	50248.96
596.41	50010.23
596.57	49947.03
596.73	50450.25
596.88	50260.66
597.04	50075.76
597.20	50178.75
597.36	50464.29
597.51	50103.85
597.67	50021.93
597.83	50021.93
597.99	50337.90
598.14	50012.57
598.30	50492.38
598.46	50103.85
598.61	50532.17
598.77	49897.88
598.93	50340.24
599.09	50375.35
599.24	50583.66
599.40	50190.45
599.56	50117.89
599.71	50113.21
599.87	50174.06
600.03	49563.18
600.18	50012.57
600.34	49904.90
600.50	50241.94
600.65	49937.67
600.81	50344.92
600.97	50773.24
601.12	50445.57
601.28	50677.28
601.44	50710.05
601.59	50298.11
601.75	50260.66
601.91	50344.92
602.06	50237.26
602.22	50279.39
602.37	49759.79
602.53	50251.30
602.69	50387.05
602.84	50038.31
603.00	50117.89
603.16	50365.99
603.31	50286.41
603.47	50410.46
603.62	50059.38
603.78	50071.08
603.94	50253.64
604.09	50204.49
604.25	50099.17
604.40	49993.84
604.56	50117.89
604.71	50181.09
604.87	50356.63
605.03	50319.18
605.18	50279.39
605.34	50234.92
605.49	49830.01
605.65	50279.39
605.80	49921.29
605.96	50134.28
606.12	50136.62
606.27	50373.01
606.43	49895.54
606.58	50557.91
606.74	50368.33
606.89	50101.51
607.05	50387.05
607.20	50129.59
607.36	50075.76
607.51	50190.45
607.67	49918.95
607.82	49794.90
607.98	49656.81
608.13	49888.52
608.29	49488.29
608.44	50220.87
608.60	49975.12
608.75	50522.80
608.91	50047.68
609.06	49244.87
609.22	49738.72
609.37	49895.54
609.53	49769.15
609.68	49717.66
609.84	49769.15
609.99	49963.42
610.15	50073.42
610.30	49785.54
610.46	49743.41
610.61	49701.28
610.76	49832.35
610.92	49940.01
611.07	49687.23
611.23	49691.91
611.38	49652.12
611.54	49359.56
611.69	49478.92
611.84	49279.98
612.00	49680.21
612.15	49134.87
612.31	49766.81
612.46	49375.94
612.62	49928.31
612.77	49635.74
612.92	49881.50
613.08	49413.39
613.23	49925.97
613.39	49738.72
613.54	49137.21
613.69	49263.60
613.85	49312.75
614.00	49448.50
614.15	49460.20
614.31	49708.30
614.46	49883.84
614.62	49333.81
614.77	49432.11
614.92	49759.79
615.08	49453.18
615.23	49214.44
615.38	49516.37
615.54	48722.93
615.69	49106.78
615.84	49394.67
616.00	49556.16
616.15	48938.26
616.30	49450.84
616.46	49270.62
616.61	49148.91
616.76	49336.15
616.92	49188.70
617.07	49310.41
617.22	49333.81
617.37	49041.24
617.53	49169.97
617.68	49158.27
617.83	48619.95
617.99	48987.41
618.14	48940.60
618.29	48912.52
618.45	49460.20
618.60	49055.29
618.75	48774.42
618.90	48907.83
619.06	48779.10
619.21	48341.42
619.36	49158.27
619.51	48219.72
619.67	48474.84
619.82	48350.79
619.97	48823.58
620.12	48442.07
620.28	48156.52
620.43	48928.90
620.58	49034.22
620.73	48865.70
620.89	48498.24
621.04	48531.01
621.19	48456.11
621.34	48659.74
621.49	48067.58
621.65	48683.14
621.80	48669.10
621.95	48538.03
622.10	48383.55
622.25	48725.27
622.41	47903.74
622.56	48507.60
622.71	48493.56
622.86	48224.40
623.01	47870.98
623.16	48437.39
623.32	47655.65
623.47	48250.14
623.62	48266.53
623.77	48182.27
623.92	48474.84
624.07	47945.87
624.23	47887.36
624.38	48308.66
624.53	48413.98
624.68	48439.73
624.83	48467.81
624.98	47948.21
625.13	47604.16
625.29	48032.47
625.44	47852.25
625.59	47821.83
625.74	47592.45
625.89	47180.52
626.04	47690.76
626.19	48039.50
626.34	47365.42
626.49	48093.33
626.65	47569.05
626.80	48126.10
626.95	47557.35
627.10	47576.07
627.25	47313.93
627.40	47842.89
627.55	47105.62
627.70	47217.97
627.85	47330.31
628.00	47098.60
628.15	47629.90
628.30	46913.70
628.45	47449.68
628.60	47016.68
628.76	47332.65
628.91	47302.23
629.06	47533.94
629.21	47550.32
629.36	47276.48
629.51	46972.21
629.66	47473.09
629.81	46717.09
629.96	47033.07
630.11	46653.90
630.26	47159.45
630.41	46974.55
630.56	46944.12
630.71	47040.09
630.86	46766.24
631.01	47044.77
631.16	46745.18
631.31	46588.36
631.46	46527.51
631.61	46829.44
631.76	47016.68
631.91	46656.24
632.06	46827.10
632.21	46595.38
632.36	46763.90
632.51	46461.97
632.66	46583.68
632.81	46487.72
632.96	46534.53
633.10	46763.90
633.25	46567.30
633.40	46581.34
633.55	46377.72
633.70	46136.64
633.85	45951.74
634.00	45858.12
634.15	45998.55
634.30	46068.76
634.45	46342.61
634.60	46148.34
634.75	46354.31
634.90	46281.75
635.05	46618.79
635.19	46131.96
635.34	45890.88
635.49	46239.62
635.64	46195.15
635.79	46057.06
635.94	45586.61
636.09	46284.09
636.24	45441.50
636.39	45385.33
636.53	45560.87
636.68	45539.80
636.83	45841.73
636.98	46138.98
637.13	45537.46
637.28	46054.72
637.43	45841.73
637.57	45654.49
637.72	45708.32
637.87	45848.75
638.02	45881.52
638.17	45982.16
638.32	45785.56
638.46	45478.95
638.61	45399.37
638.76	45361.92
638.91	45621.72
639.06	45858.12
639.20	45565.55
639.35	45450.86
639.50	45785.56
639.65	45504.70
639.80	45565.55
639.94	45329.16
640.09	45507.04
640.24	45301.07
640.39	44839.98
640.54	44992.12
640.68	44781.47
640.83	45443.84
640.98	44811.90
641.13	44629.34
641.27	45354.90
641.42	45186.38
641.57	45284.68
641.72	45188.72
641.86	45174.68
642.01	45034.25
642.16	44837.64
642.31	44659.76
642.45	44491.24
642.60	44732.32
642.75	44626.99
642.90	44964.03
643.04	44966.37
643.19	44598.91
643.34	44739.34
643.48	44849.35
643.63	44987.44
643.78	44912.54
643.93	44659.76
644.07	44847.00
644.22	44151.87
644.37	44451.45
644.51	44479.54
644.66	44219.74
644.81	44456.14
644.95	44367.20
645.10	44219.74
645.25	44247.83
645.39	44509.97
645.54	44694.87
645.69	44350.81
645.83	44250.17
645.98	44722.96
646.13	44575.50
646.27	44406.98
646.42	44538.05
646.57	43859.30
646.71	44083.99
646.86	44584.86
647.00	43854.62
647.15	44332.09
647.30	43852.28
647.44	43416.94
647.59	43997.39
647.74	44311.02
647.88	44072.29
648.03	44224.42
648.17	44280.60
648.32	43702.48
648.47	44011.43
648.61	43885.04
648.76	44051.22
648.90	43599.50
649.05	43784.40
649.20	43487.15
649.34	43812.49
649.49	43234.38
649.63	43358.42
649.78	43416.94
649.92	43459.07
650.07	44051.22
650.21	43236.72
650.36	43508.22
650.51	43543.33
650.65	43358.42
650.80	43854.62
650.94	43545.67
651.09	43496.52
651.23	44065.27
651.38	43496.52
651.52	43693.12
651.67	43517.58
651.81	42899.68
651.96	43124.37
652.10	43133.73
652.25	43217.99
652.39	43012.02
652.54	43063.52
652.68	43065.86
652.83	43166.50
652.97	43477.79
653.12	43320.98
653.26	43129.05
653.41	43147.78
653.55	42799.04
653.70	42525.19
653.84	42864.57
653.99	42487.74
654.13	42354.33
654.27	42906.70
654.42	42593.07
654.56	42403.49
654.71	42471.36
654.85	42796.70
655.00	43210.97
655.14	43075.22
655.29	42787.33
655.43	42731.16
655.57	42213.90
655.72	42873.93
655.86	42464.34
656.01	42773.29
656.15	42347.31
656.30	42326.25
656.44	42712.44
656.58	42403.49
656.73	42480.72
656.87	42501.79
657.01	42220.92
657.16	43056.50
657.30	42714.78
657.45	42085.17
657.59	42827.12
657.73	42143.69
657.88	42450.30
658.02	42241.99
658.16	42000.91
658.31	41827.71
658.45	41717.71
658.60	41481.31
658.74	42080.49
658.88	42153.05
659.03	41893.25
659.17	41380.67
659.31	42127.30
659.46	41432.16
659.60	41645.15
659.74	41408.76
659.89	41565.57
660.03	41357.27
660.17	41408.76
660.32	41027.25
660.46	41724.73
660.60	40818.94
660.74	41160.66
660.89	40987.46
661.03	41034.27
661.17	41275.35
661.32	40811.92
661.46	41305.77
661.60	41090.44
661.74	41017.89
661.89	41125.55
662.03	41155.98
662.17	41099.81
662.31	40617.66
662.46	40753.41
662.60	40407.01
662.74	40198.70
662.88	40254.87
663.03	39999.76
663.17	39952.94
663.31	40266.58
663.45	40299.34
663.60	39983.37
663.74	40357.86
663.88	39903.79
664.02	40224.45
664.17	40306.37
664.31	40182.32
664.45	39679.10
664.59	39962.31
664.73	39688.46
664.88	39838.26
665.02	39220.36
665.16	39552.71
665.30	39885.07
665.44	39552.71
665.59	39332.70
665.73	39634.63
665.87	39318.66
666.01	39138.44
666.15	39344.41
666.29	39126.74
666.44	39810.17
666.58	39526.97
666.72	39086.95
666.86	39215.68
667.00	38855.23
667.14	39388.88
667.28	38651.61
667.43	38639.90
667.57	39093.97
667.71	38527.56
667.85	38529.90
667.99	38511.17
668.13	38761.61
668.27	38115.62
668.41	38345.00
668.56	38244.35
668.70	38927.79
668.84	38937.15
668.98	38450.32
669.12	38691.40
669.26	38597.77
669.40	37668.58
669.54	37879.23
669.68	37916.68
669.82	37191.11
669.96	37736.46
670.10	37537.51
670.25	37876.89
670.39	37591.34
670.53	37804.33
670.67	37237.92
670.81	37549.21
670.95	37734.12
671.09	37453.25
671.23	37415.80
671.37	37397.08
671.51	37179.41
671.65	37483.68
671.79	37088.13
671.93	36863.44
672.07	36715.98
672.21	36692.58
672.35	36287.67
672.49	36428.10
672.63	36598.96
672.77	36526.40
672.91	36821.31
673.05	36224.47
673.19	36577.89
673.33	36315.75
673.47	36261.92
673.61	36577.89
673.75	35866.37
673.89	36392.99
674.03	35941.27
674.17	35878.07
674.31	35868.71
674.45	35531.67
674.59	35414.65
674.73	35358.47
674.87	35079.95
675.01	34843.56
675.15	35204.00
675.29	35133.78
675.43	35105.70
675.56	35274.21
675.70	35269.53
675.84	35365.49
675.98	34284.17
676.12	34799.08
676.26	35143.14
676.40	34562.69
676.54	34445.66
676.68	34473.75
676.82	34017.35
676.96	34314.59
677.10	33830.10
677.23	34181.18
677.37	33890.96
677.51	34075.86
677.65	33553.92
677.79	33479.02
677.93	33467.32
678.07	33612.43
678.21	32945.38
678.34	33301.14
678.48	33156.03
678.62	33277.74
678.76	32854.10
678.90	32868.14
679.04	32933.68
679.18	32299.39
679.31	32231.52
679.45	32271.31
679.59	32603.66
679.73	32079.38
679.87	32367.27
680.00	32231.52
680.14	32130.87
680.28	31931.93
680.42	31463.82
680.56	31744.69
680.70	31803.20
680.83	31786.82
680.97	31449.78
681.11	31372.54
681.25	31215.72
681.39	31374.88
681.52	31442.76
681.66	30899.75
681.80	30960.61
681.94	30211.64
682.07	30424.62
682.21	30548.67
682.35	30239.72
682.49	30644.63
682.62	30508.88
682.76	30487.82
682.90	30045.46
683.04	30066.52
683.17	29907.37
683.31	30106.31
683.45	30033.75
683.59	29984.60
683.72	29488.41
683.86	29617.14
684.00	29663.95
684.13	29359.68
684.27	29034.35
684.41	29130.31
684.55	28692.63
684.68	28966.47
684.82	28727.74
684.96	28659.86
685.09	28528.79
685.23	28514.75
685.37	28432.83
685.50	28477.30
685.64	28158.99
685.78	28240.90
685.91	28566.24
686.05	28397.72
686.19	28166.01
686.32	28006.85
686.46	27880.46
686.60	27669.81
686.73	27592.58
686.87	27194.68
687.01	27269.58
687.14	27484.91
687.28	27349.16
687.42	27330.44
687.55	27197.02
687.69	26998.08
687.82	26728.92
687.96	26902.12
688.10	26895.10
688.23	26731.26
688.37	26548.70
688.50	26485.50
688.64	26515.93
688.78	26132.08
688.91	25862.92
689.05	25944.84
689.18	25687.38
689.32	25261.40
689.46	25818.45
689.59	25762.28
689.73	25680.36
689.86	25376.09
690.00	25750.57
690.13	25570.35
690.27	25441.62
690.41	25301.19
690.54	25254.38
690.68	24938.41
690.81	25071.82
690.95	25455.67
691.08	25373.75
691.22	24751.17
691.35	24423.49
691.49	24636.48
691.62	24297.10
691.76	24657.54
691.89	23889.85
692.03	23906.23
692.16	23955.38
692.30	23578.56
692.43	23267.27
692.57	23278.97
692.70	23744.73
692.84	23339.82
692.97	23318.76
693.11	23372.59
693.24	23124.49
693.38	23058.96
693.51	23300.03
693.65	23646.43
693.78	22995.76
693.92	22827.24
694.05	22771.07
694.19	22544.04
694.32	22530.00
694.45	22548.72
694.59	22237.43
694.72	22373.18
694.86	22246.79
694.99	22181.26
695.13	22036.14
695.26	21722.51
695.39	21640.59
695.53	21942.52
695.66	21750.60
695.80	21860.60
695.93	21626.55
696.07	21570.38
696.20	21635.91
696.33	21425.26
696.47	21071.84
696.60	21259.09
696.73	21479.10
696.87	20961.84
697.00	20847.15
697.14	20566.29
697.27	20496.07
697.40	20664.59
697.54	20306.49
697.67	20411.81
697.80	20341.60
697.94	20290.10
698.07	19955.41
698.21	19791.57
698.34	20070.09
698.47	19908.60
698.61	19803.27
698.74	19967.11
698.87	19812.63
699.01	19861.79
699.14	19379.64
699.27	19559.86
699.40	19328.14
699.54	19063.66
699.67	19012.17
699.80	18754.71
699.94	18703.22
700.07	19056.64
700.20	18710.24
700.34	18546.40
700.47	18808.54
700.60	18314.69
700.73	18853.02
700.87	18633.00
701.00	18251.50
701.13	18462.15
701.26	18300.65
701.40	17867.65
701.53	18359.16
701.66	17984.68
701.79	17806.80
701.93	17596.15
702.06	17682.75
702.19	17596.15
702.32	17816.16
702.46	17551.68
702.59	17373.80
702.72	17003.99
702.85	17256.77
702.99	16910.37
703.12	16968.88
703.25	17158.47
703.38	17111.66
703.51	16917.39
703.65	16861.22
703.78	16893.99
703.91	16648.23
704.04	16781.64
704.17	16671.64
704.31	16491.41
704.44	16229.27
704.57	16226.93
704.70	16418.86
704.83	16037.35
704.96	16095.86
705.10	15850.11
705.23	15728.40
>>>>>End Processed Spectral Data<<<<<
