SpectraSuite Data File
++++++++++++++++++++++++++++++++++++
Date: Fri Oct 04 11:48:29 GMT-05:00 2013
User: price-jones
Dark Spectrum Present: No
Reference Spectrum Present: No
Number of Sampled Component Spectra: 1
Spectrometers: USB2+H05261
Integration Time (usec): 100000 (USB2+H05261)
Spectra Averaged: 1 (USB2+H05261)
Boxcar Smoothing: 0 (USB2+H05261)
Correct for Electrical Dark: No (USB2+H05261)
Strobe/Lamp Enabled: No (USB2+H05261)
Correct for Detector Non-linearity: No (USB2+H05261)
Correct for Stray Light: No (USB2+H05261)
Number of Pixels in Processed Spectrum: 2048
>>>>>Begin Processed Spectral Data<<<<<
365.73	4.68
365.92	4.68
366.12	4.68
366.32	0.00
366.52	0.00
366.72	0.00
366.91	0.00
367.11	0.00
367.31	0.00
367.51	0.00
367.70	0.00
367.90	0.00
368.10	0.00
368.30	0.00
368.49	0.00
368.69	0.00
368.89	0.00
369.09	0.00
369.28	0.00
369.48	0.00
369.68	0.00
369.87	0.00
370.07	0.00
370.27	0.00
370.47	67.88
370.66	397.89
370.86	425.98
371.06	433.00
371.25	500.87
371.45	447.04
371.65	430.66
371.84	503.22
372.04	512.58
372.24	568.75
372.44	418.96
372.63	561.73
372.83	650.67
373.03	540.66
373.22	512.58
373.42	568.75
373.62	564.07
373.81	631.94
374.01	688.12
374.21	617.90
374.40	685.78
374.60	674.07
374.79	629.60
374.99	543.00
375.19	653.01
375.38	645.99
375.58	716.20
375.78	615.56
375.97	660.03
376.17	725.57
376.37	690.46
376.56	643.65
376.76	723.23
376.95	755.99
377.15	720.88
377.35	772.38
377.54	702.16
377.74	683.44
377.93	638.97
378.13	704.50
378.33	720.88
378.52	716.20
378.72	683.44
378.91	751.31
379.11	755.99
379.31	774.72
379.50	711.52
379.70	788.76
379.89	793.44
380.09	802.80
380.28	767.70
380.48	758.33
380.68	814.51
380.87	774.72
381.07	793.44
381.26	887.06
381.46	716.20
381.65	791.10
381.85	856.64
382.04	828.55
382.24	823.87
382.43	800.46
382.63	873.02
382.83	854.30
383.02	957.28
383.22	882.38
383.41	819.19
383.61	961.96
383.80	924.51
384.00	833.23
384.19	910.47
384.39	917.49
384.58	837.91
384.78	994.73
384.97	905.79
385.17	961.96
385.36	1008.77
385.56	966.64
385.75	952.60
385.95	980.68
386.14	999.41
386.34	952.60
386.53	987.71
386.72	1015.79
386.92	1034.52
387.11	1104.73
387.31	1053.24
387.50	1032.18
387.70	1027.50
387.89	1034.52
388.09	1048.56
388.28	983.02
388.48	1170.27
388.67	1165.59
388.86	1086.01
389.06	1137.50
389.25	1111.75
389.45	1153.88
389.64	1121.12
389.84	1170.27
390.03	1188.99
390.22	1181.97
390.42	1095.37
390.61	1130.48
390.81	1102.39
391.00	1198.35
391.19	1228.78
391.39	1167.93
391.58	1252.19
391.78	1158.57
391.97	1327.08
392.16	1219.42
392.36	1221.76
392.55	1238.14
392.75	1364.53
392.94	1296.66
393.13	1345.81
393.33	1280.27
393.52	1341.13
393.71	1437.09
393.91	1362.19
394.10	1345.81
394.29	1387.94
394.49	1401.98
394.68	1366.87
394.88	1420.71
395.07	1430.07
395.26	1409.00
395.46	1390.28
395.65	1465.18
395.84	1565.82
396.04	1554.12
396.23	1544.75
396.42	1490.92
396.62	1579.86
396.81	1645.40
397.00	1565.82
397.19	1643.06
397.39	1572.84
397.58	1563.48
397.77	1652.42
397.97	1703.91
398.16	1631.35
398.35	1678.16
398.55	1727.32
398.74	1617.31
398.93	1769.44
399.12	1710.93
399.32	1692.21
399.51	1671.14
399.70	1811.57
399.90	1790.51
400.09	1769.44
400.28	1720.29
400.47	1963.71
400.67	1909.88
400.86	1856.04
401.05	1816.26
401.24	1809.23
401.44	1874.77
401.63	1954.35
401.82	1914.56
402.01	1914.56
402.21	1949.67
402.40	1923.92
402.59	1970.73
402.78	2005.84
402.97	2040.95
403.17	2019.88
403.36	2040.95
403.55	2090.10
403.74	2143.93
403.93	2106.48
404.13	2167.34
404.32	2132.23
404.51	2186.06
404.70	2099.46
404.89	2165.00
405.09	2251.60
405.28	2300.75
405.47	2258.62
405.66	2284.36
405.85	2345.22
406.05	2331.17
406.24	2317.13
406.43	2258.62
406.62	2331.17
406.81	2473.95
407.00	2370.96
407.20	2361.60
407.39	2441.18
407.58	2396.71
407.77	2331.17
407.96	2490.33
408.15	2469.27
408.34	2478.63
408.54	2579.27
408.73	2595.65
408.92	2560.55
409.11	2656.51
409.30	2738.43
409.49	2668.21
409.68	2736.09
409.87	2642.46
410.07	2738.43
410.26	2719.70
410.45	2778.22
410.64	2860.13
410.83	2836.73
411.02	2855.45
411.21	2911.63
411.40	2874.18
411.59	2928.01
411.78	2972.48
411.98	3084.83
412.17	2972.48
412.36	3063.76
412.55	3145.68
412.74	3180.79
412.93	3187.81
413.12	3129.30
413.31	3236.96
413.50	3218.24
413.69	3251.00
413.88	3243.98
414.07	3267.39
414.26	3332.92
414.45	3290.79
414.64	3407.82
414.83	3559.95
415.02	3363.35
415.22	3538.89
415.41	3496.76
415.60	3487.40
415.79	3735.50
415.98	3662.94
416.17	3625.49
416.36	3644.21
416.55	3772.94
416.74	3740.18
416.93	3765.92
417.12	3796.35
417.31	4007.00
417.50	3810.39
417.69	3969.55
417.88	3962.53
418.07	3878.27
418.26	4107.64
418.45	4264.46
418.64	4194.24
418.83	4189.56
419.02	4184.88
419.21	4166.15
419.39	4189.56
419.58	4086.58
419.77	4147.43
419.96	4337.01
420.15	4362.76
420.34	4306.59
420.53	4301.90
420.72	4531.28
420.91	4262.12
421.10	4411.91
421.29	4547.66
421.48	4255.09
421.67	4524.26
421.86	4582.77
422.05	4484.47
422.24	4517.23
422.43	4290.20
422.61	4601.49
422.80	4521.92
422.99	4491.49
423.18	4697.46
423.37	4695.11
423.56	4580.43
423.75	4622.56
423.94	4507.87
424.13	4388.50
424.32	4404.89
424.50	4601.49
424.69	4678.73
424.88	4819.16
425.07	4655.33
425.26	4550.00
425.45	4660.01
425.64	4638.94
425.83	4660.01
426.01	4706.82
426.20	4561.70
426.39	4695.11
426.58	4676.39
426.77	4812.14
426.96	4835.55
427.15	4730.22
427.33	4847.25
427.52	4765.33
427.71	4912.78
427.90	4971.30
428.09	4807.46
428.28	4947.89
428.46	5090.67
428.65	5074.28
428.84	5214.71
429.03	5165.56
429.22	5022.79
429.40	5090.67
429.59	5282.59
429.78	5083.64
429.97	4842.57
430.16	5207.69
430.34	5219.39
430.53	5352.81
430.72	5397.28
430.91	5481.53
431.10	5238.12
431.28	5301.31
431.47	5448.77
431.66	5465.15
431.85	5341.10
432.03	5535.37
432.22	5668.78
432.41	5652.39
432.60	5568.13
432.79	5584.52
432.97	5652.39
433.16	5561.11
433.35	5533.03
433.54	5731.97
433.72	5755.38
433.91	5570.48
434.10	5879.43
434.28	5577.50
434.47	5886.45
434.66	5914.53
434.85	5898.15
435.03	5881.77
435.22	5851.34
435.41	6069.01
435.59	6108.80
435.78	6080.71
435.97	5984.75
436.16	6113.48
436.34	6076.03
436.53	6064.33
436.72	6363.92
436.90	6258.59
437.09	6113.48
437.28	6214.12
437.46	6230.51
437.65	6307.74
437.84	6375.62
438.02	6354.55
438.21	6396.68
438.40	6422.43
438.58	6670.53
438.77	6670.53
438.96	6483.28
439.14	6747.76
439.33	6740.74
439.52	6834.36
439.70	6883.52
439.89	6899.90
440.08	6834.36
440.26	6986.50
440.45	7005.22
440.63	6988.84
440.82	7218.21
441.01	7180.76
441.19	7295.45
441.38	7332.90
441.57	7311.83
441.75	7461.63
441.94	7412.48
442.12	7541.21
442.31	7510.78
442.50	7625.47
442.68	7522.48
442.87	7538.87
443.05	7637.17
443.24	7829.09
443.43	7831.43
443.61	7840.79
443.80	7976.55
443.98	7648.87
444.17	7599.72
444.35	7911.01
444.54	8009.31
444.73	7878.24
444.91	7840.79
445.10	7796.32
445.28	8051.44
445.47	7985.91
445.65	7955.48
445.84	7943.78
446.02	8121.66
446.21	8046.76
446.39	8028.04
446.58	8166.13
446.77	8154.43
446.95	8011.65
447.14	8042.08
447.32	8147.40
447.51	8037.40
447.69	8173.15
447.88	7939.10
448.06	8243.37
448.25	8194.22
448.43	8175.49
448.62	8060.80
448.80	8210.60
448.99	8191.88
449.17	8177.83
449.36	8332.31
449.54	8472.74
449.73	8407.20
449.91	8540.61
450.10	8486.78
450.28	8578.06
450.46	8477.42
450.65	8631.90
450.83	8688.07
451.02	8725.52
451.20	8603.81
451.39	8793.39
451.57	8690.41
451.76	8571.04
451.94	8861.27
452.13	8994.68
452.31	8875.31
452.49	8861.27
452.68	8837.86
452.86	8840.20
453.05	8877.65
453.23	8987.66
453.42	8940.85
453.60	8847.22
453.78	9055.53
453.97	8954.89
454.15	9055.53
454.34	8966.59
454.52	9284.91
454.70	9315.33
454.89	9296.61
455.07	9273.20
455.26	9383.21
455.44	9556.41
455.62	9495.55
455.81	9476.83
455.99	9380.87
456.17	9472.15
456.36	9486.19
456.54	9813.87
456.73	9680.46
456.91	9895.78
457.09	9811.53
457.28	10115.80
457.46	9682.80
457.64	10057.28
457.83	10024.51
458.01	10054.94
458.19	10094.73
458.38	9944.94
458.56	10122.82
458.74	10181.33
458.93	10354.53
459.11	10403.68
459.29	10104.09
459.48	10263.25
459.66	10377.94
459.84	10434.11
460.03	10588.58
460.21	10586.24
460.39	10513.69
460.57	10387.30
460.76	10480.92
460.94	10724.33
461.12	10633.05
461.31	10766.46
461.49	10579.22
461.67	10700.93
461.85	10979.45
462.04	10864.77
462.22	11393.73
462.40	10988.82
462.59	10918.60
462.77	11052.01
462.95	10911.58
463.13	11096.48
463.32	11042.65
463.50	11316.49
463.68	11012.22
463.86	11199.46
464.05	10885.83
464.23	11126.91
464.41	11349.26
464.59	10916.26
464.78	11602.04
464.96	11279.04
465.14	11274.36
465.32	11377.34
465.50	11653.53
465.69	11485.01
465.87	11667.57
466.05	11606.72
466.23	11562.25
466.41	11756.51
466.60	11805.66
466.78	11932.05
466.96	11583.31
467.14	11709.70
467.32	11578.63
467.51	12196.53
467.69	11639.48
467.87	11651.19
468.05	11857.15
468.23	11562.25
468.41	11817.36
468.60	12030.35
468.78	12149.72
468.96	11819.71
469.14	12245.68
469.32	12315.90
469.50	12060.78
469.69	12355.69
469.87	12519.53
470.05	12334.62
470.23	12390.80
470.41	12266.75
470.59	12657.62
470.77	12388.46
470.95	12814.43
471.14	12868.27
471.32	12456.33
471.50	12835.50
471.68	12926.78
471.86	13111.68
472.04	13287.22
472.22	13453.40
472.40	13006.36
472.58	13114.02
472.77	13195.94
472.95	13488.51
473.13	13790.44
473.31	13315.31
473.49	13226.37
473.67	13617.24
473.85	13860.65
474.03	13827.88
474.21	14108.75
474.39	14188.33
474.57	14090.02
474.75	14319.40
474.93	14415.36
475.12	14008.11
475.30	14590.90
475.48	14436.42
475.66	14602.60
475.84	14677.50
476.02	14572.18
476.20	14511.32
476.38	15068.37
476.56	15129.22
476.74	15424.13
476.92	15145.61
477.10	15295.40
477.28	15620.74
477.46	15522.43
477.64	15681.59
477.82	15903.94
478.00	16276.09
478.18	16109.91
478.36	16596.74
478.54	16423.54
478.72	16404.81
478.90	16570.99
479.08	16847.18
479.26	17074.21
479.44	17256.77
479.62	16924.41
479.80	17202.94
479.98	17397.20
480.16	17628.92
480.34	17500.19
480.52	17837.22
480.70	17989.36
480.88	17671.04
481.06	18106.38
481.24	18108.72
481.41	18291.29
481.59	18345.12
481.77	18771.10
481.95	18815.57
482.13	18998.13
482.31	18750.03
482.49	19248.57
482.67	19307.08
482.85	19667.52
483.03	20081.80
483.21	19894.55
483.39	20224.57
483.57	20074.77
483.74	20224.57
483.92	20603.74
484.10	20475.01
484.28	21055.46
484.46	21008.65
484.64	21518.89
484.82	21294.19
485.00	21467.39
485.18	21876.99
485.35	22188.28
485.53	22185.94
485.71	21984.65
485.89	22394.25
486.07	22843.63
486.25	22298.28
486.43	22845.97
486.61	23068.32
486.78	23075.34
486.96	23138.54
487.14	23740.05
487.32	23630.05
487.50	23955.38
487.68	23960.06
487.85	24229.23
488.03	24786.27
488.21	24856.49
488.39	24809.68
488.57	25123.31
488.75	25329.28
488.92	25472.05
489.10	25539.93
489.28	25797.38
489.46	26319.32
489.64	26019.74
489.81	26644.66
489.99	26775.73
490.17	27098.72
490.35	26993.40
490.53	27161.92
490.70	27351.50
490.88	27435.76
491.06	27693.22
491.24	27763.43
491.41	28313.46
491.59	28163.67
491.77	28446.87
491.95	28355.59
492.13	28666.88
492.30	28861.15
492.48	28716.03
492.66	29287.12
492.84	29408.83
493.01	29359.68
493.19	29340.96
493.37	30103.97
493.54	30244.40
493.72	30239.72
493.90	30239.72
494.08	30670.38
494.25	31484.89
494.43	31126.78
494.61	31402.97
494.79	31721.28
494.96	31253.17
495.14	31693.19
495.32	31903.84
495.49	31871.07
495.67	32353.23
495.85	32643.45
496.02	32561.53
496.20	32524.08
496.38	33179.43
496.55	32828.35
496.73	33766.91
496.91	33472.00
497.09	33680.31
497.26	34007.98
497.44	33476.68
497.62	34071.18
497.79	34148.42
497.97	34099.26
498.14	34555.67
498.32	34988.67
498.50	35042.50
498.67	35185.27
498.85	35180.59
499.03	35239.11
499.20	35510.61
499.38	35454.44
499.56	35711.89
499.73	36135.53
499.91	36435.12
500.08	36194.04
500.26	35791.47
500.44	36687.90
500.61	36687.90
500.79	36769.82
500.97	37050.68
501.14	37296.44
501.32	37331.54
501.49	37102.17
501.67	37235.58
501.84	37436.87
502.02	37853.48
502.20	38113.28
502.37	38419.89
502.55	38160.09
502.72	38204.56
502.90	37893.27
503.07	38288.82
503.25	38700.76
503.43	38281.80
503.60	38705.44
503.78	39210.99
503.95	38618.84
504.13	38808.42
504.30	38981.62
504.48	39431.01
504.65	39225.04
504.83	39632.29
505.01	40423.39
505.18	39903.79
505.36	40025.50
505.53	39971.67
505.71	39934.22
505.88	40289.98
506.06	40538.08
506.23	40727.66
506.41	40779.15
506.58	40882.14
506.76	41010.87
506.93	40975.76
507.11	41001.50
507.28	41167.68
507.46	41511.74
507.63	41408.76
507.81	42206.88
507.98	41869.84
508.16	41841.76
508.33	42216.24
508.50	41954.10
508.68	42471.36
508.85	42871.59
509.03	42321.57
509.20	43007.34
509.38	42967.55
509.55	42909.04
509.73	42735.84
509.90	43524.60
510.08	43164.16
510.25	43325.66
510.42	43442.68
510.60	43744.61
510.77	44006.75
510.95	44322.72
511.12	43606.52
511.30	44020.80
511.47	44294.64
511.64	44580.18
511.82	44350.81
511.99	44336.77
512.17	44816.58
512.34	44484.22
512.51	44800.19
512.69	44896.16
512.86	44729.98
513.04	45364.26
513.21	45382.99
513.38	45759.81
513.56	45724.71
513.73	45675.55
513.90	45806.62
514.08	45642.79
514.25	46010.25
514.43	46106.21
514.60	45808.96
514.77	45972.80
514.95	46256.01
515.12	46571.98
515.29	46686.67
515.47	46829.44
515.64	46799.01
515.81	46745.18
515.99	46887.95
516.16	47316.27
516.33	47229.67
516.51	47550.32
516.68	47239.03
516.85	47103.28
517.03	47199.24
517.20	47784.38
517.37	47657.99
517.54	47625.22
517.72	47470.75
517.89	47838.21
518.06	47966.94
518.24	48053.54
518.41	47990.34
518.58	48041.84
518.75	48193.97
518.93	48179.93
519.10	48406.96
519.27	48575.48
519.45	48224.40
519.62	48753.36
519.79	48903.15
519.96	48893.79
520.14	49296.36
520.31	48849.32
520.48	49265.94
520.65	49312.75
520.83	49078.69
521.00	48783.79
521.17	49092.74
521.34	49551.48
521.52	49757.45
521.69	49530.42
521.86	49977.46
522.03	50155.34
522.20	50122.57
522.38	49937.67
522.55	50167.04
522.72	50138.96
522.89	50398.76
523.07	50452.59
523.24	50735.79
523.41	50473.65
523.58	50239.60
523.75	50834.10
523.92	50396.42
524.10	50883.25
524.27	50878.57
524.44	50995.59
524.61	50981.55
524.78	51187.52
524.96	51224.96
525.13	51274.12
525.30	50890.27
525.47	51248.37
525.64	51285.82
525.81	51477.74
525.98	51414.55
526.16	51772.65
526.33	51374.76
526.50	51662.64
526.67	51849.89
526.84	52023.09
527.01	51903.72
527.18	51842.87
527.36	52130.75
527.53	51835.84
527.70	52238.42
527.87	52329.70
528.04	52245.44
528.21	52100.32
528.38	52053.51
528.55	52334.38
528.72	52215.01
528.89	52392.89
529.07	52449.06
529.24	52554.39
529.41	52846.96
529.58	52533.32
529.75	52481.83
529.92	52545.03
530.09	52446.72
530.26	53006.11
530.43	53155.91
530.60	52980.37
530.77	53027.18
530.94	53165.27
531.11	52767.38
531.28	53034.20
531.46	53013.13
531.63	53441.45
531.80	53343.15
531.97	53654.44
532.14	53560.82
532.31	53439.11
532.48	53532.73
532.65	53509.33
532.82	53284.64
532.99	53546.78
533.16	53364.21
533.33	53743.38
533.50	54099.14
533.67	54073.40
533.84	53741.04
534.01	53820.62
534.18	53635.72
534.35	54197.44
534.52	54138.93
534.69	53970.41
534.86	54227.87
535.03	54232.55
535.20	54237.23
535.37	54436.18
535.54	54298.09
535.71	54223.19
535.88	54279.36
536.05	54279.36
536.22	54536.82
536.38	54574.27
536.55	54684.28
536.72	54703.00
536.89	54593.00
537.06	54644.49
537.23	54637.47
537.40	54482.99
537.57	54536.82
537.74	54798.96
537.91	55058.76
538.08	55180.47
538.25	54831.73
538.42	55054.08
538.59	54843.43
538.75	54855.14
538.92	54997.91
539.09	54784.92
539.26	54993.23
539.43	55224.94
539.60	55601.77
539.77	55124.30
539.94	55449.63
540.11	55365.37
540.28	55510.49
540.44	55398.14
540.61	55283.45
540.78	55374.73
540.95	55569.00
541.12	55828.80
541.29	55786.67
541.46	55669.64
541.62	55700.07
541.79	55489.42
541.96	55236.64
542.13	55608.79
542.30	56076.90
542.47	55707.09
542.63	56004.34
542.80	56170.52
542.97	55781.99
543.14	55917.74
543.31	55997.32
543.48	56151.79
543.64	56207.97
543.81	56467.76
543.98	56582.45
544.15	56612.88
544.32	56713.52
544.48	56643.30
544.65	56498.19
544.82	56460.74
544.99	56107.32
545.16	56313.29
545.32	56619.90
545.49	56928.85
545.66	56800.12
545.83	56781.40
546.00	56893.74
546.16	56793.10
546.33	56444.36
546.50	56334.35
546.67	56636.28
546.83	56505.21
547.00	56858.63
547.17	56907.79
547.34	56877.36
547.50	57109.07
547.67	57214.40
547.84	57017.79
548.00	57202.69
548.17	57097.37
548.34	57017.79
548.51	57446.11
548.67	57144.18
548.84	57315.04
549.01	57420.36
549.18	57359.51
549.34	57205.03
549.51	57399.30
549.68	57205.03
549.84	57228.44
550.01	57460.15
550.18	57240.14
550.34	57574.84
550.51	57556.11
550.68	57598.24
550.84	57401.64
551.01	57521.01
551.18	57492.92
551.34	57209.71
551.51	57645.05
551.68	57876.77
551.84	57790.17
552.01	57750.38
552.18	57659.10
552.34	57591.22
552.51	57916.56
552.68	57626.33
552.84	57481.22
553.01	57968.05
553.18	57963.37
553.34	57717.61
553.51	57869.75
553.67	57963.37
553.84	58122.52
554.01	58108.48
554.17	58169.33
554.34	57879.11
554.51	58047.63
554.67	58031.24
554.84	58120.18
555.00	58066.35
555.17	58171.67
555.33	58192.74
555.50	58258.27
555.67	58340.19
555.83	58143.59
556.00	58300.40
556.16	58513.39
556.33	58323.81
556.50	58335.51
556.66	58120.18
556.83	58260.62
556.99	58670.21
557.16	58546.16
557.32	58546.16
557.49	58651.48
557.65	58110.82
557.82	58480.63
557.98	58630.42
558.15	58471.26
558.32	58548.50
558.48	58382.32
558.65	58459.56
558.81	58597.65
558.98	58794.26
559.14	58609.35
559.31	58314.45
559.47	58588.29
559.64	58733.40
559.80	58815.32
559.97	58915.96
560.13	58702.98
560.30	58904.26
560.46	58925.33
560.63	58684.25
560.79	58892.56
560.96	59061.08
561.12	59021.29
561.29	58618.72
561.45	58810.64
561.61	59133.63
561.78	59018.95
561.94	58810.64
562.11	58955.75
562.27	58810.64
562.44	58850.43
562.60	59054.06
562.77	58951.07
562.93	59255.34
563.10	59334.92
563.26	58859.79
563.42	59128.95
563.59	59274.07
563.75	59135.98
563.92	59124.27
564.08	59098.53
564.24	58997.88
564.41	58951.07
564.57	58925.33
564.74	59152.36
564.90	59313.86
565.07	59147.68
565.23	59203.85
565.39	59189.81
565.56	59224.92
565.72	59040.01
565.88	59318.54
566.05	58920.65
566.21	59135.98
566.38	59220.23
566.54	59475.35
566.70	59793.67
566.87	59384.07
567.03	59388.75
567.19	59580.68
567.36	59330.24
567.52	59227.26
567.68	59423.86
567.85	59379.39
568.01	59210.87
568.17	59253.00
568.34	59238.96
568.50	59648.55
568.66	59695.36
568.83	59545.57
568.99	59447.27
569.15	59393.43
569.32	59580.68
569.48	59391.09
569.64	59458.97
569.81	59302.15
569.97	59487.06
570.13	59583.02
570.30	59435.56
570.46	59412.16
570.62	59512.80
570.78	59573.66
570.95	59636.85
571.11	59618.13
571.27	59393.43
571.43	59494.08
571.60	59746.86
571.76	59597.06
571.92	59814.73
572.09	59695.36
572.25	59798.35
572.41	59683.66
572.57	59484.72
572.74	59772.60
572.90	59515.14
573.06	59711.75
573.22	59494.08
573.38	59636.85
573.55	59784.30
573.71	59854.52
573.87	59917.71
574.03	59700.04
574.20	59700.04
574.36	59700.04
574.52	59442.59
574.68	59505.78
574.84	59693.02
575.01	59657.91
575.17	59840.48
575.33	59819.41
575.49	59877.93
575.65	60023.04
575.82	59985.59
575.98	59559.61
576.14	60102.62
576.30	59929.42
576.46	59676.64
576.62	59718.77
576.79	59711.75
576.95	59627.49
577.11	59655.57
577.27	59992.61
577.43	60027.72
577.59	59922.40
577.75	59821.75
577.92	59704.73
578.08	59693.02
578.24	59688.34
578.40	59854.52
578.56	59964.52
578.72	59625.15
578.88	60102.62
579.04	59992.61
579.21	59999.63
579.37	59728.13
579.53	59908.35
579.69	59852.18
579.85	59767.92
580.01	59898.99
580.17	60041.76
580.33	59896.65
580.49	60151.77
580.65	59999.63
580.82	60130.70
580.98	59992.61
581.14	59999.63
581.30	60004.31
581.46	59821.75
581.62	59718.77
581.78	60051.12
581.94	60046.44
582.10	60114.32
582.26	60083.89
582.42	60095.60
582.58	59980.91
582.74	60018.36
582.90	60158.79
583.06	60130.70
583.22	59950.48
583.38	59987.93
583.54	59955.16
583.70	60067.51
583.86	59999.63
584.02	59955.16
584.18	60175.17
584.34	60095.60
584.50	60441.99
584.66	59950.48
584.82	59831.11
584.98	59997.29
585.14	60023.04
585.30	59950.48
585.46	59817.07
585.62	59908.35
585.78	60147.09
585.94	60163.47
586.10	60114.32
586.26	60086.23
586.42	60217.30
586.58	60186.88
586.74	60144.75
586.90	59987.93
587.06	59838.14
587.22	60121.34
587.38	60140.07
587.54	60156.45
587.70	60336.67
587.86	60186.88
588.02	60184.54
588.18	60374.12
588.34	60205.60
588.49	60247.73
588.65	59931.76
588.81	60114.32
588.97	60137.72
589.13	60259.43
589.29	60179.85
589.45	60481.78
589.61	60343.69
589.77	60488.80
589.93	60556.68
590.08	60481.78
590.24	60390.50
590.40	60500.51
590.56	60381.14
590.72	60121.34
590.88	60327.31
591.04	60168.15
591.20	60683.07
591.35	60477.10
591.51	60718.18
591.67	60488.80
591.83	60451.36
591.99	60425.61
592.15	60289.86
592.31	60392.84
592.46	60310.92
592.62	60369.44
592.78	60282.84
592.94	60547.32
593.10	60360.08
593.26	60664.35
593.41	60676.05
593.57	60559.02
593.73	60612.85
593.89	60568.38
594.05	60385.82
594.20	60219.64
594.36	60460.72
594.52	60264.11
594.68	60315.61
594.84	60402.21
594.99	60505.19
595.15	60526.25
595.31	60753.29
595.47	60523.91
595.62	60584.77
595.78	60376.46
595.94	60381.14
596.10	60493.49
596.25	60378.80
596.41	60233.69
596.57	60491.15
596.73	60533.28
596.88	60374.12
597.04	60420.93
597.20	60828.18
597.36	60584.77
597.51	60940.53
597.67	60385.82
597.83	60444.33
597.99	60505.19
598.14	60388.16
598.30	60554.34
598.46	60416.25
598.61	60701.79
598.77	60573.06
598.93	60456.04
599.09	60615.19
599.24	60856.27
599.40	60626.90
599.56	60566.04
599.71	60465.40
599.87	60441.99
600.03	60591.79
600.18	60622.22
600.34	60568.38
600.50	60519.23
600.65	60746.26
600.81	60800.10
600.97	60800.10
601.12	60727.54
601.28	60783.71
601.44	60587.11
601.59	60762.65
601.75	60645.62
601.91	60727.54
602.06	60743.92
602.22	60662.00
602.37	60472.42
602.53	60577.75
602.69	60748.60
602.84	60774.35
603.00	61092.66
603.16	60722.86
603.31	60736.90
603.47	60718.18
603.62	60573.06
603.78	60839.89
603.94	60584.77
604.09	60573.06
604.25	60776.69
604.40	60505.19
604.56	60591.79
604.71	60818.82
604.87	60837.54
605.03	60858.61
605.18	60746.26
605.34	60640.94
605.49	60299.22
605.65	60547.32
605.80	60458.38
605.96	60589.45
606.12	60563.70
606.27	60760.31
606.43	60563.70
606.58	60856.27
606.74	60795.42
606.89	60856.27
607.05	60629.24
607.20	60884.36
607.36	60229.01
607.51	60566.04
607.67	60617.53
607.82	60472.42
607.98	60552.00
608.13	60446.68
608.29	60554.34
608.44	60467.74
608.60	60662.00
608.75	60629.24
608.91	60708.82
609.06	60449.02
609.22	60561.36
609.37	60247.73
609.53	60383.48
609.68	60589.45
609.84	60346.03
609.99	60479.44
610.15	60528.59
610.30	60467.74
610.46	60549.66
610.61	60357.74
610.76	60619.88
610.92	60395.18
611.07	60355.39
611.23	60392.84
611.38	60427.95
611.54	60334.33
611.69	60444.33
611.84	60250.07
612.00	60397.52
612.15	60395.18
612.31	60741.58
612.46	60233.69
612.62	60636.26
612.77	60411.57
612.92	60519.23
613.08	60381.14
613.23	60378.80
613.39	60210.28
613.54	60411.57
613.69	60360.08
613.85	60104.96
614.00	60320.29
614.15	60369.44
614.31	60378.80
614.46	60350.71
614.62	60165.81
614.77	60406.89
614.92	60346.03
615.08	60315.61
615.23	60374.12
615.38	60210.28
615.54	60032.40
615.69	60266.45
615.84	60095.60
616.00	60081.55
616.15	60236.03
616.30	60329.65
616.46	60126.02
616.61	60140.07
616.76	60182.19
616.92	60097.94
617.07	60320.29
617.22	59966.87
617.37	60147.09
617.53	60278.16
617.68	60032.40
617.83	59849.84
617.99	60013.68
618.14	60149.43
618.29	60137.72
618.45	59938.78
618.60	60140.07
618.75	60137.72
618.90	59943.46
619.06	60158.79
619.21	59922.40
619.36	59973.89
619.51	59805.37
619.67	59847.50
619.82	59957.50
619.97	59721.11
620.12	59896.65
620.28	59868.56
620.43	60104.96
620.58	59863.88
620.73	59880.27
620.89	59936.44
621.04	59994.95
621.19	59742.17
621.34	59765.58
621.49	59648.55
621.65	59700.04
621.80	59728.13
621.95	59910.69
622.10	59686.00
622.25	59807.71
622.41	59887.29
622.56	59784.30
622.71	59714.09
622.86	59601.74
623.01	59650.89
623.16	59559.61
623.32	59473.01
623.47	59643.87
623.62	59597.06
623.77	59571.32
623.92	59554.93
624.07	59503.44
624.23	59550.25
624.38	59613.44
624.53	59587.70
624.68	59702.38
624.83	59531.53
624.98	59777.28
625.13	59217.89
625.29	59615.79
625.44	59587.70
625.59	59384.07
625.74	59351.30
625.89	59320.88
626.04	59292.79
626.19	59306.83
626.34	59463.65
626.49	59370.03
626.65	59150.02
626.80	59391.09
626.95	59274.07
627.10	59304.49
627.25	59201.51
627.40	59140.66
627.55	59140.66
627.70	58803.62
627.85	58766.17
628.00	58859.79
628.15	58979.16
628.30	59091.51
628.45	58979.16
628.60	59157.04
628.76	59281.09
628.91	59267.05
629.06	59271.73
629.21	58845.75
629.36	58873.84
629.51	59098.53
629.66	58932.35
629.81	58763.83
629.96	58674.89
630.11	58710.00
630.26	59119.59
630.41	59009.59
630.56	58801.28
630.71	58974.48
630.86	58969.80
631.01	58960.44
631.16	59145.34
631.31	58955.75
631.46	58808.30
631.61	58915.96
631.76	58873.84
631.91	58695.95
632.06	58719.36
632.21	58728.72
632.36	58824.68
632.51	58429.13
632.66	58651.48
632.81	58543.82
632.96	58585.95
633.10	58747.45
633.25	58644.46
633.40	58630.42
633.55	58410.41
633.70	58431.47
633.85	58391.68
634.00	58134.23
634.15	58225.51
634.30	58295.72
634.45	58653.82
634.60	58686.59
634.75	58768.51
634.90	58733.40
635.05	58710.00
635.19	58321.47
635.34	58529.78
635.49	58670.21
635.64	58340.19
635.79	58525.10
635.94	58431.47
636.09	58234.87
636.24	58218.49
636.39	58066.35
636.53	58262.96
636.68	58178.70
636.83	58188.06
636.98	58300.40
637.13	58174.02
637.28	58368.28
637.43	58197.42
637.57	58188.06
637.72	58108.48
637.87	58241.89
638.02	58295.72
638.17	58344.87
638.32	58101.46
638.46	57939.96
638.61	58080.39
638.76	57750.38
638.91	57731.65
639.06	58220.83
639.20	58113.16
639.35	58305.09
639.50	58174.02
639.65	58267.64
639.80	58183.38
639.94	57785.49
640.09	58078.05
640.24	57712.93
640.39	57605.26
640.54	57649.74
640.68	57689.52
640.83	57588.88
640.98	57631.01
641.13	57537.39
641.27	57703.57
641.42	57670.80
641.57	57696.55
641.72	57682.50
641.86	57677.82
642.01	57509.30
642.16	57364.19
642.31	57631.01
642.45	57560.79
642.60	57385.25
642.75	57387.60
642.90	57616.97
643.04	57710.59
643.19	57572.50
643.34	57457.81
643.48	57682.50
643.63	57544.41
643.78	57572.50
643.93	57689.52
644.07	57511.64
644.22	57275.25
644.37	57427.38
644.51	57174.61
644.66	57455.47
644.81	57429.72
644.95	57450.79
645.10	57343.12
645.25	57256.53
645.39	57277.59
645.54	57537.39
645.69	57464.83
645.83	57118.43
645.98	57265.89
646.13	57207.37
646.27	57340.78
646.42	57120.77
646.57	57235.46
646.71	57139.50
646.86	57162.90
647.00	57205.03
647.15	57146.52
647.30	57043.54
647.44	56851.61
647.59	56996.73
647.74	57116.09
647.88	57050.56
648.03	57183.97
648.17	57034.17
648.32	57027.15
648.47	57078.64
648.61	56963.96
648.76	57265.89
648.90	56842.25
649.05	57080.98
649.20	56961.62
649.34	56907.79
649.49	56734.59
649.63	56865.66
649.78	56905.44
649.92	56748.63
650.07	57022.47
650.21	56788.42
650.36	56919.49
650.51	56844.59
650.65	57340.78
650.80	57092.69
650.94	56903.10
651.09	57027.15
651.23	56708.84
651.38	56851.61
651.52	56484.15
651.67	56779.06
651.81	56296.91
651.96	56301.59
652.10	56378.82
652.25	56303.93
652.39	56418.61
652.54	56662.03
652.68	56268.82
652.83	56699.48
652.97	56704.16
653.12	56182.22
653.26	56425.64
653.41	56339.04
653.55	56163.50
653.70	56261.80
653.84	56147.11
653.99	56350.74
654.13	56383.51
654.27	56168.18
654.42	56170.52
654.56	56364.78
654.71	56339.04
654.85	56460.74
655.00	56406.91
655.14	56498.19
655.29	56002.00
655.43	55983.27
655.57	55847.52
655.72	55901.36
655.86	55786.67
656.01	55985.61
656.15	56158.81
656.30	55950.51
656.44	55899.01
656.58	55772.63
656.73	55899.01
656.87	56095.62
657.01	56339.04
657.16	56259.46
657.30	55927.10
657.45	56259.46
657.59	55847.52
657.73	55835.82
657.88	56009.02
658.02	56046.47
658.16	55828.80
658.31	55711.77
658.45	55697.73
658.60	55236.64
658.74	55505.80
658.88	55620.49
659.03	55576.02
659.17	55255.37
659.31	55466.02
659.46	55821.78
659.60	55573.68
659.74	55407.50
659.89	55442.61
660.03	55505.80
660.17	55367.71
660.32	55302.18
660.46	55339.63
660.60	55334.95
660.74	55491.76
660.89	55201.53
661.03	55189.83
661.17	55173.45
661.32	55201.53
661.46	55103.23
661.60	55119.62
661.74	55086.85
661.89	54986.21
662.03	54986.21
662.17	54967.48
662.31	54707.68
662.46	55112.59
662.60	54913.65
662.74	54541.50
662.88	54454.90
663.03	54518.10
663.17	54363.62
663.31	54490.01
663.45	54499.37
663.60	54424.48
663.74	54466.61
663.88	54614.06
664.02	54351.92
664.17	54473.63
664.31	54459.58
664.45	54351.92
664.59	54419.80
664.73	54188.08
664.88	54113.19
665.02	53584.22
665.16	53890.83
665.30	53797.21
665.44	54007.86
665.59	53535.07
665.73	53872.11
665.87	53804.24
666.01	53734.02
666.15	53904.88
666.29	53869.77
666.44	54031.27
666.58	53631.04
666.72	53750.40
666.86	54003.18
667.00	53958.71
667.14	53317.40
667.28	53343.15
667.43	53415.71
667.57	53310.38
667.71	53551.46
667.85	53331.45
667.99	53120.80
668.13	52978.03
668.27	52928.87
668.41	53448.47
668.56	53066.97
668.70	53207.40
668.84	53289.32
668.98	53106.76
669.12	53301.02
669.26	53347.83
669.40	53066.97
669.54	52561.41
669.68	52701.84
669.82	52294.59
669.96	52444.38
670.10	52547.37
670.25	52243.10
670.39	52395.23
670.53	52189.27
670.67	52411.62
670.81	52800.15
670.95	52275.87
671.09	52238.42
671.23	51920.10
671.37	52151.82
671.51	52116.71
671.65	51910.74
671.79	52039.47
671.93	51702.43
672.07	52002.02
672.21	51641.58
672.35	51632.22
672.49	51320.93
672.63	51377.10
672.77	51152.41
672.91	51356.03
673.05	51452.00
673.19	51489.45
673.33	51426.25
673.47	51332.63
673.61	51625.20
673.75	51035.38
673.89	51121.98
674.03	51264.75
674.17	51021.34
674.31	51093.89
674.45	50791.97
674.59	50827.07
674.73	50705.37
674.87	50405.78
675.01	50162.36
675.15	50220.87
675.29	50293.43
675.43	49890.86
675.56	50234.92
675.70	50365.99
675.84	50571.96
675.98	48790.81
676.12	49965.76
676.26	49951.71
676.40	49558.50
676.54	49696.59
676.68	49345.51
676.82	48566.12
676.96	49118.48
677.10	48671.44
677.23	48676.12
677.37	48912.52
677.51	48774.42
677.65	48648.03
677.79	48360.15
677.93	48573.14
678.07	48556.75
678.21	47952.90
678.34	48381.21
678.48	48065.24
678.62	47819.49
678.76	47807.78
678.90	47800.76
679.04	47927.15
679.18	47208.61
679.31	47253.08
679.45	47126.69
679.59	46822.42
679.73	47117.32
679.87	46997.96
680.00	46838.80
680.14	46555.60
680.28	46478.36
680.42	46579.00
680.56	46476.02
680.70	46499.42
680.83	46380.06
680.97	46618.79
681.11	46674.96
681.25	45928.33
681.39	45860.46
681.52	45689.60
681.66	45607.68
681.80	45048.29
681.94	44912.54
682.07	44849.35
682.21	45029.57
682.35	44655.08
682.49	44964.03
682.62	44802.53
682.76	44807.22
682.90	44856.37
683.04	44547.42
683.17	44081.65
683.31	44299.32
683.45	44648.06
683.59	44266.55
683.72	43807.81
683.86	43688.44
684.00	43650.99
684.13	43248.42
684.27	42735.84
684.41	42995.64
684.55	42398.80
684.68	42473.70
684.82	42344.97
684.96	42164.75
685.09	41956.44
685.23	42511.15
685.37	42160.07
685.50	42061.77
685.64	41979.85
685.78	41635.79
685.91	41511.74
686.05	41820.69
686.19	41736.43
686.32	41813.67
686.46	41015.55
686.60	41060.02
686.73	41179.39
686.87	40917.25
687.01	40762.77
687.14	40580.21
687.28	40205.72
687.42	39941.24
687.55	40222.11
687.69	40208.06
687.82	39922.52
687.96	39997.41
688.10	39611.23
688.23	39505.90
688.37	39700.17
688.50	39533.99
688.64	39171.21
688.78	38787.36
688.91	38754.59
689.05	39056.52
689.18	38443.30
689.32	37343.25
689.46	37361.97
689.59	37890.93
689.73	37921.36
689.86	37741.14
690.00	37563.26
690.13	38012.64
690.27	37940.08
690.41	38148.39
690.54	37366.65
690.68	36985.15
690.81	37242.60
690.95	37273.03
691.08	37537.51
691.22	37216.86
691.35	37207.50
691.49	36739.39
691.62	36727.69
691.76	36435.12
691.89	35985.74
692.03	35770.41
692.16	35718.92
692.30	35683.81
692.43	35845.30
692.57	35845.30
692.70	35653.38
692.84	35089.31
692.97	35072.93
693.11	35234.42
693.24	34822.49
693.38	35288.26
693.51	34747.59
693.65	35033.14
693.78	35079.95
693.92	34565.03
694.05	34712.49
694.19	33640.52
694.32	34003.30
694.45	33776.27
694.59	33235.61
694.72	33687.33
694.86	33125.60
694.99	33303.48
695.13	32676.22
695.26	33060.07
695.39	32306.41
695.53	32793.25
695.66	33090.49
695.80	32589.62
695.93	32762.82
696.07	32294.71
696.20	31955.33
696.33	32343.86
696.47	32009.17
696.60	32273.65
696.73	32081.72
696.87	31435.74
697.00	31821.92
697.14	31112.74
697.27	30644.63
697.40	30441.01
697.54	30672.72
697.67	30146.10
697.80	30141.42
697.94	30120.35
698.07	30263.13
698.21	30171.85
698.34	30483.14
698.47	30366.11
698.61	29905.02
698.74	30487.82
698.87	29993.97
699.01	29376.06
699.14	29233.29
699.27	29343.30
699.40	29071.79
699.54	28826.04
699.67	28435.17
699.80	28687.95
699.94	28453.89
700.07	28524.11
700.20	28072.39
700.34	28608.37
700.47	28196.43
700.60	28287.71
700.73	27796.20
700.87	28098.13
701.00	27674.49
701.13	27718.96
701.26	27709.60
701.40	27733.01
701.53	27662.79
701.66	27314.05
701.79	26930.20
701.93	26960.63
702.06	26867.01
702.19	26401.24
702.32	26487.84
702.46	26525.29
702.59	26319.32
702.72	25816.11
702.85	25717.81
702.99	26008.03
703.12	25591.42
703.25	25518.86
703.38	25776.32
703.51	25427.58
703.65	25715.47
703.78	25968.24
703.91	25642.91
704.04	25598.44
704.17	25364.39
704.31	24704.35
704.44	24545.20
704.57	24776.91
704.70	24400.08
704.83	24535.84
704.96	24128.58
705.10	24266.67
705.23	23943.68
>>>>>End Processed Spectral Data<<<<<
