SpectraSuite Data File
++++++++++++++++++++++++++++++++++++
Date: Fri Oct 04 11:47:23 GMT-05:00 2013
User: price-jones
Dark Spectrum Present: No
Reference Spectrum Present: No
Number of Sampled Component Spectra: 1
Spectrometers: USB2+H05261
Integration Time (usec): 100000 (USB2+H05261)
Spectra Averaged: 1 (USB2+H05261)
Boxcar Smoothing: 0 (USB2+H05261)
Correct for Electrical Dark: No (USB2+H05261)
Strobe/Lamp Enabled: No (USB2+H05261)
Correct for Detector Non-linearity: No (USB2+H05261)
Correct for Stray Light: No (USB2+H05261)
Number of Pixels in Processed Spectrum: 2048
>>>>>Begin Processed Spectral Data<<<<<
365.73	44.47
365.92	44.47
366.12	44.47
366.32	0.00
366.52	0.00
366.72	0.00
366.91	0.00
367.11	0.00
367.31	0.00
367.51	0.00
367.70	0.00
367.90	0.00
368.10	0.00
368.30	0.00
368.49	0.00
368.69	0.00
368.89	0.00
369.09	0.00
369.28	0.00
369.48	0.00
369.68	0.00
369.87	0.00
370.07	0.00
370.27	0.00
370.47	0.00
370.66	11.70
370.86	30.43
371.06	67.88
371.25	131.07
371.45	65.54
371.65	91.28
371.84	25.75
372.04	35.11
372.24	135.75
372.44	135.75
372.63	133.41
372.83	86.60
373.03	56.17
373.22	77.24
373.42	168.52
373.62	145.11
373.81	93.62
374.01	58.51
374.21	91.28
374.40	107.66
374.60	102.98
374.79	112.35
374.99	107.66
375.19	126.39
375.38	117.03
375.58	77.24
375.78	112.35
375.97	88.94
376.17	161.50
376.37	46.81
376.56	102.98
376.76	119.37
376.95	39.79
377.15	177.88
377.35	105.32
377.54	145.11
377.74	91.28
377.93	86.60
378.13	149.79
378.33	149.79
378.52	163.84
378.72	86.60
378.91	98.30
379.11	145.11
379.31	56.17
379.50	58.51
379.70	77.24
379.89	114.69
380.09	105.32
380.28	70.22
380.48	145.11
380.68	107.66
380.87	110.01
381.07	102.98
381.26	65.54
381.46	63.19
381.65	81.92
381.85	46.81
382.04	110.01
382.24	88.94
382.43	74.90
382.63	84.26
382.83	95.96
383.02	145.11
383.22	65.54
383.41	98.30
383.61	126.39
383.80	88.94
384.00	100.64
384.19	77.24
384.39	131.07
384.58	56.17
384.78	60.85
384.97	74.90
385.17	42.13
385.36	119.37
385.56	152.13
385.75	21.06
385.95	95.96
386.14	152.13
386.34	84.26
386.53	140.43
386.72	133.41
386.92	142.77
387.11	166.18
387.31	112.35
387.50	121.71
387.70	93.62
387.89	86.60
388.09	88.94
388.28	84.26
388.48	138.09
388.67	72.56
388.86	95.96
389.06	86.60
389.25	142.77
389.45	149.79
389.64	93.62
389.84	117.03
390.03	119.37
390.22	159.16
390.42	145.11
390.61	79.58
390.81	53.83
391.00	168.52
391.19	154.48
391.39	110.01
391.58	93.62
391.78	119.37
391.97	189.58
392.16	98.30
392.36	126.39
392.55	105.32
392.75	42.13
392.94	81.92
393.13	128.73
393.33	70.22
393.52	30.43
393.71	149.79
393.91	70.22
394.10	133.41
394.29	95.96
394.49	91.28
394.68	145.11
394.88	121.71
395.07	145.11
395.26	110.01
395.46	117.03
395.65	114.69
395.84	117.03
396.04	161.50
396.23	95.96
396.42	51.49
396.62	84.26
396.81	156.82
397.00	131.07
397.19	156.82
397.39	84.26
397.58	147.45
397.77	152.13
397.97	163.84
398.16	128.73
398.35	72.56
398.55	11.70
398.74	117.03
398.93	128.73
399.12	67.88
399.32	98.30
399.51	110.01
399.70	135.75
399.90	196.60
400.09	119.37
400.28	65.54
400.47	93.62
400.67	205.97
400.86	126.39
401.05	175.54
401.24	105.32
401.44	156.82
401.63	145.11
401.82	112.35
402.01	135.75
402.21	128.73
402.40	102.98
402.59	135.75
402.78	70.22
402.97	121.71
403.17	133.41
403.36	145.11
403.55	84.26
403.74	88.94
403.93	229.37
404.13	210.65
404.32	170.86
404.51	124.05
404.70	154.48
404.89	128.73
405.09	156.82
405.28	114.69
405.47	133.41
405.66	175.54
405.85	110.01
406.05	140.43
406.24	98.30
406.43	128.73
406.62	203.63
406.81	220.01
407.00	145.11
407.20	138.09
407.39	107.66
407.58	112.35
407.77	159.16
407.96	142.77
408.15	159.16
408.34	173.20
408.54	159.16
408.73	191.92
408.92	128.73
409.11	110.01
409.30	142.77
409.49	170.86
409.68	112.35
409.87	168.52
410.07	126.39
410.26	74.90
410.45	121.71
410.64	128.73
410.83	163.84
411.02	175.54
411.21	168.52
411.40	154.48
411.59	152.13
411.78	117.03
411.98	166.18
412.17	142.77
412.36	142.77
412.55	168.52
412.74	154.48
412.93	220.01
413.12	114.69
413.31	128.73
413.50	147.45
413.69	152.13
413.88	175.54
414.07	184.90
414.26	133.41
414.45	140.43
414.64	140.43
414.83	117.03
415.02	168.52
415.22	180.22
415.41	145.11
415.60	187.24
415.79	117.03
415.98	175.54
416.17	170.86
416.36	142.77
416.55	121.71
416.74	154.48
416.93	205.97
417.12	121.71
417.31	222.35
417.50	241.08
417.69	163.84
417.88	135.75
418.07	203.63
418.26	201.29
418.45	163.84
418.64	180.22
418.83	86.60
419.02	133.41
419.21	236.39
419.39	145.11
419.58	131.07
419.77	222.35
419.96	229.37
420.15	224.69
420.34	215.33
420.53	217.67
420.72	191.92
420.91	159.16
421.10	177.88
421.29	187.24
421.48	166.18
421.67	203.63
421.86	166.18
422.05	117.03
422.24	86.60
422.43	128.73
422.61	142.77
422.80	119.37
422.99	102.98
423.18	138.09
423.37	231.71
423.56	201.29
423.75	257.46
423.94	135.75
424.13	107.66
424.32	110.01
424.50	210.65
424.69	191.92
424.88	177.88
425.07	117.03
425.26	142.77
425.45	220.01
425.64	154.48
425.83	210.65
426.01	163.84
426.20	184.90
426.39	175.54
426.58	170.86
426.77	140.43
426.96	145.11
427.15	67.88
427.33	149.79
427.52	159.16
427.71	173.20
427.90	236.39
428.09	205.97
428.28	133.41
428.46	205.97
428.65	220.01
428.84	189.58
429.03	161.50
429.22	121.71
429.40	191.92
429.59	100.64
429.78	203.63
429.97	147.45
430.16	128.73
430.34	145.11
430.53	112.35
430.72	194.26
430.91	191.92
431.10	140.43
431.28	163.84
431.47	133.41
431.66	154.48
431.85	140.43
432.03	163.84
432.22	203.63
432.41	224.69
432.60	208.31
432.79	234.05
432.97	184.90
433.16	170.86
433.35	149.79
433.54	191.92
433.72	208.31
433.91	170.86
434.10	128.73
434.28	168.52
434.47	124.05
434.66	255.12
434.85	145.11
435.03	187.24
435.22	243.42
435.41	229.37
435.59	180.22
435.78	154.48
435.97	159.16
436.16	189.58
436.34	238.73
436.53	149.79
436.72	201.29
436.90	227.03
437.09	191.92
437.28	196.60
437.46	173.20
437.65	184.90
437.84	273.84
438.02	79.58
438.21	273.84
438.40	227.03
438.58	203.63
438.77	194.26
438.96	187.24
439.14	56.17
439.33	194.26
439.52	166.18
439.70	170.86
439.89	170.86
440.08	217.67
440.26	203.63
440.45	231.71
440.63	215.33
440.82	252.78
441.01	220.01
441.19	231.71
441.38	159.16
441.57	173.20
441.75	208.31
441.94	248.10
442.12	110.01
442.31	184.90
442.50	168.52
442.68	149.79
442.87	189.58
443.05	189.58
443.24	180.22
443.43	154.48
443.61	227.03
443.80	189.58
443.98	212.99
444.17	222.35
444.35	173.20
444.54	196.60
444.73	180.22
444.91	245.76
445.10	154.48
445.28	166.18
445.47	184.90
445.65	180.22
445.84	145.11
446.02	257.46
446.21	201.29
446.39	138.09
446.58	259.80
446.77	238.73
446.95	135.75
447.14	313.63
447.32	278.52
447.51	180.22
447.69	149.79
447.88	161.50
448.06	250.44
448.25	245.76
448.43	245.76
448.62	161.50
448.80	227.03
448.99	212.99
449.17	145.11
449.36	220.01
449.54	163.84
449.73	208.31
449.91	191.92
450.10	161.50
450.28	304.27
450.46	297.25
450.65	220.01
450.83	257.46
451.02	245.76
451.20	205.97
451.39	184.90
451.57	138.09
451.76	168.52
451.94	229.37
452.13	161.50
452.31	203.63
452.49	170.86
452.68	168.52
452.86	264.48
453.05	264.48
453.23	257.46
453.42	177.88
453.60	255.12
453.78	208.31
453.97	124.05
454.15	173.20
454.34	124.05
454.52	194.26
454.70	271.50
454.89	273.84
455.07	252.78
455.26	140.43
455.44	269.16
455.62	243.42
455.81	180.22
455.99	210.65
456.17	189.58
456.36	154.48
456.54	184.90
456.73	201.29
456.91	280.86
457.09	215.33
457.28	227.03
457.46	234.05
457.64	327.68
457.83	257.46
458.01	182.56
458.19	229.37
458.38	112.35
458.56	229.37
458.74	149.79
458.93	182.56
459.11	234.05
459.29	257.46
459.48	210.65
459.66	271.50
459.84	229.37
460.03	273.84
460.21	255.12
460.39	217.67
460.57	215.33
460.76	177.88
460.94	168.52
461.12	224.69
461.31	269.16
461.49	205.97
461.67	210.65
461.85	243.42
462.04	220.01
462.22	592.16
462.40	173.20
462.59	259.80
462.77	198.95
462.95	250.44
463.13	252.78
463.32	194.26
463.50	252.78
463.68	236.39
463.86	236.39
464.05	208.31
464.23	250.44
464.41	259.80
464.59	283.20
464.78	156.82
464.96	262.14
465.14	283.20
465.32	301.93
465.50	222.35
465.69	189.58
465.87	191.92
466.05	271.50
466.23	229.37
466.41	133.41
466.60	201.29
466.78	205.97
466.96	255.12
467.14	243.42
467.32	252.78
467.51	175.54
467.69	252.78
467.87	243.42
468.05	217.67
468.23	243.42
468.41	262.14
468.60	255.12
468.78	234.05
468.96	273.84
469.14	287.89
469.32	187.24
469.50	227.03
469.69	273.84
469.87	231.71
470.05	222.35
470.23	194.26
470.41	142.77
470.59	184.90
470.77	234.05
470.95	161.50
471.14	285.55
471.32	210.65
471.50	215.33
471.68	243.42
471.86	283.20
472.04	147.45
472.22	170.86
472.40	187.24
472.58	175.54
472.77	220.01
472.95	252.78
473.13	201.29
473.31	208.31
473.49	149.79
473.67	173.20
473.85	259.80
474.03	163.84
474.21	191.92
474.39	194.26
474.57	294.91
474.75	173.20
474.93	308.95
475.12	198.95
475.30	203.63
475.48	243.42
475.66	285.55
475.84	152.13
476.02	210.65
476.20	257.46
476.38	149.79
476.56	306.61
476.74	203.63
476.92	250.44
477.10	205.97
477.28	236.39
477.46	217.67
477.64	292.57
477.82	255.12
478.00	243.42
478.18	212.99
478.36	184.90
478.54	250.44
478.72	177.88
478.90	245.76
479.08	311.29
479.26	224.69
479.44	252.78
479.62	264.48
479.80	250.44
479.98	236.39
480.16	224.69
480.34	231.71
480.52	212.99
480.70	315.97
480.88	262.14
481.06	203.63
481.24	259.80
481.41	201.29
481.59	358.10
481.77	264.48
481.95	285.55
482.13	266.82
482.31	297.25
482.49	276.18
482.67	259.80
482.85	280.86
483.03	278.52
483.21	320.65
483.39	266.82
483.57	229.37
483.74	311.29
483.92	250.44
484.10	301.93
484.28	308.95
484.46	283.20
484.64	201.29
484.82	212.99
485.00	252.78
485.18	264.48
485.35	304.27
485.53	252.78
485.71	271.50
485.89	278.52
486.07	234.05
486.25	320.65
486.43	238.73
486.61	236.39
486.78	238.73
486.96	168.52
487.14	262.14
487.32	248.10
487.50	276.18
487.68	250.44
487.85	229.37
488.03	280.86
488.21	388.53
488.39	322.99
488.57	264.48
488.75	220.01
488.92	519.60
489.10	248.10
489.28	301.93
489.46	344.06
489.64	269.16
489.81	243.42
489.99	290.23
490.17	278.52
490.35	346.40
490.53	257.46
490.70	280.86
490.88	332.36
491.06	383.85
491.24	367.46
491.41	337.04
491.59	346.40
491.77	313.63
491.95	220.01
492.13	290.23
492.30	351.08
492.48	273.84
492.66	348.74
492.84	367.46
493.01	341.72
493.19	287.89
493.37	367.46
493.54	325.33
493.72	367.46
493.90	365.12
494.08	330.02
494.25	358.10
494.43	294.91
494.61	255.12
494.79	262.14
494.96	362.78
495.14	365.12
495.32	280.86
495.49	283.20
495.67	322.99
495.85	290.23
496.02	222.35
496.20	285.55
496.38	325.33
496.55	262.14
496.73	369.80
496.91	339.38
497.09	369.80
497.26	255.12
497.44	334.70
497.62	325.33
497.79	322.99
497.97	255.12
498.14	334.70
498.32	245.76
498.50	355.76
498.67	346.40
498.85	374.49
499.03	315.97
499.20	315.97
499.38	351.08
499.56	344.06
499.73	308.95
499.91	283.20
500.08	266.82
500.26	292.57
500.44	294.91
500.61	269.16
500.79	250.44
500.97	266.82
501.14	411.93
501.32	395.55
501.49	367.46
501.67	234.05
501.84	386.19
502.02	318.31
502.20	421.30
502.37	341.72
502.55	330.02
502.72	283.20
502.90	360.44
503.07	299.59
503.25	330.02
503.43	358.10
503.60	280.86
503.78	292.57
503.95	369.80
504.13	297.25
504.30	311.29
504.48	414.27
504.65	416.62
504.83	383.85
505.01	322.99
505.18	393.21
505.36	395.55
505.53	299.59
505.71	390.87
505.88	390.87
506.06	320.65
506.23	334.70
506.41	381.51
506.58	411.93
506.76	369.80
506.93	348.74
507.11	411.93
507.28	355.76
507.46	351.08
507.63	362.78
507.81	376.83
507.98	320.65
508.16	311.29
508.33	318.31
508.50	367.46
508.68	348.74
508.85	351.08
509.03	390.87
509.20	325.33
509.38	367.46
509.55	355.76
509.73	374.49
509.90	327.68
510.08	353.42
510.25	313.63
510.42	325.33
510.60	393.21
510.77	388.53
510.95	411.93
511.12	409.59
511.30	332.36
511.47	404.91
511.64	414.27
511.82	362.78
511.99	318.31
512.17	418.96
512.34	330.02
512.51	421.30
512.69	341.72
512.86	400.23
513.04	330.02
513.21	287.89
513.38	280.86
513.56	330.02
513.73	330.02
513.90	386.19
514.08	393.21
514.25	390.87
514.43	397.89
514.60	294.91
514.77	294.91
514.95	304.27
515.12	344.06
515.29	341.72
515.47	367.46
515.64	311.29
515.81	348.74
515.99	423.64
516.16	404.91
516.33	360.44
516.51	344.06
516.68	397.89
516.85	339.38
517.03	332.36
517.20	365.12
517.37	365.12
517.54	341.72
517.72	327.68
517.89	285.55
518.06	339.38
518.24	362.78
518.41	397.89
518.58	348.74
518.75	390.87
518.93	318.31
519.10	381.51
519.27	348.74
519.45	315.97
519.62	379.17
519.79	325.33
519.96	390.87
520.14	325.33
520.31	365.12
520.48	407.25
520.65	390.87
520.83	519.60
521.00	397.89
521.17	428.32
521.34	341.72
521.52	376.83
521.69	437.68
521.86	379.17
522.03	334.70
522.20	430.66
522.38	407.25
522.55	327.68
522.72	393.21
522.89	444.70
523.07	411.93
523.24	376.83
523.41	407.25
523.58	390.87
523.75	409.59
523.92	374.49
524.10	346.40
524.27	386.19
524.44	374.49
524.61	411.93
524.78	381.51
524.96	433.00
525.13	397.89
525.30	379.17
525.47	355.76
525.64	416.62
525.81	395.55
525.98	407.25
526.16	407.25
526.33	308.95
526.50	369.80
526.67	320.65
526.84	421.30
527.01	355.76
527.18	451.72
527.36	409.59
527.53	334.70
527.70	430.66
527.87	477.47
528.04	433.00
528.21	386.19
528.38	435.34
528.55	428.32
528.72	449.38
528.89	435.34
529.07	390.87
529.24	372.15
529.41	489.17
529.58	344.06
529.75	346.40
529.92	442.36
530.09	425.98
530.26	454.06
530.43	421.30
530.60	470.45
530.77	395.55
530.94	416.62
531.11	367.46
531.28	367.46
531.46	376.83
531.63	421.30
531.80	437.68
531.97	458.74
532.14	440.02
532.31	346.40
532.48	327.68
532.65	339.38
532.82	348.74
532.99	395.55
533.16	409.59
533.33	390.87
533.50	414.27
533.67	390.87
533.84	449.38
534.01	400.23
534.18	358.10
534.35	404.91
534.52	393.21
534.69	507.90
534.86	402.57
535.03	360.44
535.20	454.06
535.37	517.26
535.54	421.30
535.71	458.74
535.88	533.64
536.05	362.78
536.22	423.64
536.38	425.98
536.55	461.09
536.72	418.96
536.89	381.51
537.06	379.17
537.23	381.51
537.40	444.70
537.57	458.74
537.74	315.97
537.91	369.80
538.08	463.43
538.25	498.53
538.42	379.17
538.59	430.66
538.75	468.11
538.92	416.62
539.09	437.68
539.26	407.25
539.43	454.06
539.60	397.89
539.77	395.55
539.94	374.49
540.11	404.91
540.28	381.51
540.44	451.72
540.61	376.83
540.78	332.36
540.95	369.80
541.12	418.96
541.29	463.43
541.46	451.72
541.62	360.44
541.79	318.31
541.96	409.59
542.13	397.89
542.30	337.04
542.47	449.38
542.63	430.66
542.80	425.98
542.97	425.98
543.14	369.80
543.31	351.08
543.48	376.83
543.64	411.93
543.81	376.83
543.98	358.10
544.15	379.17
544.32	322.99
544.48	355.76
544.65	447.04
544.82	360.44
544.99	351.08
545.16	411.93
545.32	433.00
545.49	418.96
545.66	348.74
545.83	325.33
546.00	313.63
546.16	381.51
546.33	393.21
546.50	395.55
546.67	390.87
546.83	447.04
547.00	411.93
547.17	395.55
547.34	273.84
547.50	327.68
547.67	334.70
547.84	458.74
548.00	383.85
548.17	379.17
548.34	393.21
548.51	425.98
548.67	411.93
548.84	397.89
549.01	362.78
549.18	362.78
549.34	444.70
549.51	421.30
549.68	435.34
549.84	386.19
550.01	386.19
550.18	442.36
550.34	514.92
550.51	351.08
550.68	407.25
550.84	362.78
551.01	365.12
551.18	395.55
551.34	423.64
551.51	442.36
551.68	400.23
551.84	440.02
552.01	334.70
552.18	299.59
552.34	330.02
552.51	456.40
552.68	416.62
552.84	374.49
553.01	381.51
553.18	379.17
553.34	374.49
553.51	386.19
553.67	461.09
553.84	440.02
554.01	365.12
554.17	362.78
554.34	374.49
554.51	416.62
554.67	341.72
554.84	365.12
555.00	435.34
555.17	428.32
555.33	388.53
555.50	409.59
555.67	400.23
555.83	318.31
556.00	381.51
556.16	594.50
556.33	418.96
556.50	362.78
556.66	304.27
556.83	360.44
556.99	355.76
557.16	421.30
557.32	388.53
557.49	367.46
557.65	383.85
557.82	421.30
557.98	383.85
558.15	372.15
558.32	327.68
558.48	383.85
558.65	318.31
558.81	451.72
558.98	332.36
559.14	411.93
559.31	332.36
559.47	351.08
559.64	304.27
559.80	358.10
559.97	315.97
560.13	353.42
560.30	308.95
560.46	341.72
560.63	334.70
560.79	400.23
560.96	362.78
561.12	346.40
561.29	390.87
561.45	388.53
561.61	278.52
561.78	433.00
561.94	390.87
562.11	320.65
562.27	362.78
562.44	355.76
562.60	365.12
562.77	362.78
562.93	479.81
563.10	292.57
563.26	407.25
563.42	404.91
563.59	346.40
563.75	390.87
563.92	444.70
564.08	379.17
564.24	334.70
564.41	334.70
564.57	395.55
564.74	334.70
564.90	374.49
565.07	344.06
565.23	367.46
565.39	383.85
565.56	318.31
565.72	304.27
565.88	322.99
566.05	304.27
566.21	280.86
566.38	402.57
566.54	337.04
566.70	306.61
566.87	447.04
567.03	346.40
567.19	447.04
567.36	383.85
567.52	395.55
567.68	351.08
567.85	421.30
568.01	315.97
568.17	243.42
568.34	346.40
568.50	367.46
568.66	397.89
568.83	320.65
568.99	313.63
569.15	339.38
569.32	278.52
569.48	327.68
569.64	315.97
569.81	372.15
569.97	292.57
570.13	379.17
570.30	327.68
570.46	376.83
570.62	315.97
570.78	330.02
570.95	362.78
571.11	362.78
571.27	337.04
571.43	271.50
571.60	294.91
571.76	362.78
571.92	301.93
572.09	379.17
572.25	367.46
572.41	379.17
572.57	259.80
572.74	287.89
572.90	395.55
573.06	355.76
573.22	320.65
573.38	365.12
573.55	355.76
573.71	367.46
573.87	409.59
574.03	372.15
574.20	386.19
574.36	358.10
574.52	294.91
574.68	325.33
574.84	395.55
575.01	388.53
575.17	397.89
575.33	315.97
575.49	383.85
575.65	379.17
575.82	330.02
575.98	425.98
576.14	463.43
576.30	280.86
576.46	374.49
576.62	320.65
576.79	344.06
576.95	360.44
577.11	355.76
577.27	341.72
577.43	416.62
577.59	423.64
577.75	381.51
577.92	327.68
578.08	276.18
578.24	320.65
578.40	330.02
578.56	379.17
578.72	322.99
578.88	360.44
579.04	437.68
579.21	430.66
579.37	346.40
579.53	353.42
579.69	383.85
579.85	374.49
580.01	337.04
580.17	404.91
580.33	372.15
580.49	374.49
580.65	358.10
580.82	402.57
580.98	435.34
581.14	353.42
581.30	341.72
581.46	381.51
581.62	287.89
581.78	330.02
581.94	320.65
582.10	339.38
582.26	278.52
582.42	358.10
582.58	393.21
582.74	437.68
582.90	348.74
583.06	383.85
583.22	353.42
583.38	374.49
583.54	313.63
583.70	376.83
583.86	334.70
584.02	376.83
584.18	472.79
584.34	308.95
584.50	374.49
584.66	409.59
584.82	308.95
584.98	353.42
585.14	325.33
585.30	351.08
585.46	355.76
585.62	348.74
585.78	304.27
585.94	386.19
586.10	374.49
586.26	337.04
586.42	287.89
586.58	376.83
586.74	348.74
586.90	353.42
587.06	341.72
587.22	325.33
587.38	290.23
587.54	341.72
587.70	355.76
587.86	224.69
588.02	369.80
588.18	362.78
588.34	327.68
588.49	269.16
588.65	301.93
588.81	280.86
588.97	278.52
589.13	287.89
589.29	280.86
589.45	287.89
589.61	196.60
589.77	292.57
589.93	299.59
590.08	227.03
590.24	273.84
590.40	332.36
590.56	301.93
590.72	252.78
590.88	280.86
591.04	330.02
591.20	334.70
591.35	243.42
591.51	339.38
591.67	304.27
591.83	264.48
591.99	358.10
592.15	390.87
592.31	393.21
592.46	327.68
592.62	407.25
592.78	334.70
592.94	269.16
593.10	337.04
593.26	315.97
593.41	341.72
593.57	278.52
593.73	301.93
593.89	339.38
594.05	297.25
594.20	287.89
594.36	266.82
594.52	367.46
594.68	248.10
594.84	299.59
594.99	348.74
595.15	266.82
595.31	327.68
595.47	301.93
595.62	311.29
595.78	271.50
595.94	360.44
596.10	404.91
596.25	355.76
596.41	355.76
596.57	351.08
596.73	236.39
596.88	341.72
597.04	297.25
597.20	287.89
597.36	283.20
597.51	306.61
597.67	297.25
597.83	287.89
597.99	369.80
598.14	360.44
598.30	327.68
598.46	262.14
598.61	299.59
598.77	355.76
598.93	229.37
599.09	362.78
599.24	344.06
599.40	381.51
599.56	299.59
599.71	346.40
599.87	252.78
600.03	311.29
600.18	374.49
600.34	283.20
600.50	339.38
600.65	313.63
600.81	344.06
600.97	355.76
601.12	269.16
601.28	353.42
601.44	393.21
601.59	318.31
601.75	276.18
601.91	262.14
602.06	320.65
602.22	351.08
602.37	320.65
602.53	271.50
602.69	372.15
602.84	304.27
603.00	262.14
603.16	360.44
603.31	344.06
603.47	372.15
603.62	320.65
603.78	320.65
603.94	320.65
604.09	320.65
604.25	315.97
604.40	409.59
604.56	212.99
604.71	358.10
604.87	290.23
605.03	348.74
605.18	306.61
605.34	358.10
605.49	311.29
605.65	374.49
605.80	266.82
605.96	372.15
606.12	414.27
606.27	337.04
606.43	318.31
606.58	360.44
606.74	318.31
606.89	236.39
607.05	285.55
607.20	355.76
607.36	320.65
607.51	337.04
607.67	339.38
607.82	355.76
607.98	458.74
608.13	332.36
608.29	348.74
608.44	369.80
608.60	369.80
608.75	308.95
608.91	402.57
609.06	409.59
609.22	393.21
609.37	411.93
609.53	313.63
609.68	306.61
609.84	341.72
609.99	365.12
610.15	337.04
610.30	334.70
610.46	346.40
610.61	318.31
610.76	388.53
610.92	339.38
611.07	327.68
611.23	353.42
611.38	355.76
611.54	283.20
611.69	243.42
611.84	367.46
612.00	320.65
612.15	266.82
612.31	297.25
612.46	301.93
612.62	325.33
612.77	322.99
612.92	299.59
613.08	325.33
613.23	320.65
613.39	346.40
613.54	299.59
613.69	341.72
613.85	259.80
614.00	306.61
614.15	301.93
614.31	280.86
614.46	306.61
614.62	351.08
614.77	365.12
614.92	355.76
615.08	320.65
615.23	299.59
615.38	330.02
615.54	337.04
615.69	255.12
615.84	255.12
616.00	229.37
616.15	334.70
616.30	334.70
616.46	287.89
616.61	234.05
616.76	297.25
616.92	266.82
617.07	344.06
617.22	294.91
617.37	262.14
617.53	294.91
617.68	290.23
617.83	334.70
617.99	358.10
618.14	360.44
618.29	327.68
618.45	299.59
618.60	344.06
618.75	301.93
618.90	285.55
619.06	252.78
619.21	337.04
619.36	351.08
619.51	290.23
619.67	264.48
619.82	236.39
619.97	327.68
620.12	222.35
620.28	257.46
620.43	250.44
620.58	360.44
620.73	330.02
620.89	325.33
621.04	308.95
621.19	252.78
621.34	266.82
621.49	273.84
621.65	341.72
621.80	259.80
621.95	341.72
622.10	313.63
622.25	273.84
622.41	290.23
622.56	266.82
622.71	311.29
622.86	397.89
623.01	304.27
623.16	355.76
623.32	269.16
623.47	308.95
623.62	320.65
623.77	266.82
623.92	280.86
624.07	241.08
624.23	301.93
624.38	278.52
624.53	266.82
624.68	355.76
624.83	297.25
624.98	257.46
625.13	285.55
625.29	318.31
625.44	250.44
625.59	222.35
625.74	339.38
625.89	297.25
626.04	313.63
626.19	269.16
626.34	290.23
626.49	308.95
626.65	224.69
626.80	287.89
626.95	313.63
627.10	191.92
627.25	227.03
627.40	201.29
627.55	287.89
627.70	280.86
627.85	238.73
628.00	210.65
628.15	255.12
628.30	243.42
628.45	280.86
628.60	224.69
628.76	292.57
628.91	196.60
629.06	182.56
629.21	325.33
629.36	252.78
629.51	273.84
629.66	287.89
629.81	215.33
629.96	285.55
630.11	252.78
630.26	264.48
630.41	205.97
630.56	271.50
630.71	208.31
630.86	238.73
631.01	241.08
631.16	285.55
631.31	285.55
631.46	318.31
631.61	306.61
631.76	353.42
631.91	234.05
632.06	311.29
632.21	299.59
632.36	248.10
632.51	318.31
632.66	266.82
632.81	224.69
632.96	266.82
633.10	318.31
633.25	280.86
633.40	234.05
633.55	241.08
633.70	257.46
633.85	292.57
634.00	250.44
634.15	231.71
634.30	255.12
634.45	299.59
634.60	189.58
634.75	201.29
634.90	271.50
635.05	269.16
635.19	241.08
635.34	145.11
635.49	262.14
635.64	248.10
635.79	229.37
635.94	229.37
636.09	234.05
636.24	269.16
636.39	257.46
636.53	278.52
636.68	264.48
636.83	311.29
636.98	243.42
637.13	255.12
637.28	220.01
637.43	297.25
637.57	248.10
637.72	292.57
637.87	245.76
638.02	299.59
638.17	280.86
638.32	257.46
638.46	318.31
638.61	325.33
638.76	306.61
638.91	234.05
639.06	234.05
639.20	262.14
639.35	297.25
639.50	262.14
639.65	322.99
639.80	327.68
639.94	327.68
640.09	255.12
640.24	196.60
640.39	220.01
640.54	227.03
640.68	262.14
640.83	264.48
640.98	231.71
641.13	220.01
641.27	231.71
641.42	194.26
641.57	177.88
641.72	210.65
641.86	236.39
642.01	243.42
642.16	376.83
642.31	271.50
642.45	266.82
642.60	287.89
642.75	278.52
642.90	304.27
643.04	194.26
643.19	297.25
643.34	182.56
643.48	250.44
643.63	245.76
643.78	215.33
643.93	248.10
644.07	234.05
644.22	266.82
644.37	248.10
644.51	308.95
644.66	280.86
644.81	238.73
644.95	306.61
645.10	259.80
645.25	231.71
645.39	229.37
645.54	220.01
645.69	299.59
645.83	271.50
645.98	306.61
646.13	203.63
646.27	257.46
646.42	257.46
646.57	252.78
646.71	266.82
646.86	191.92
647.00	194.26
647.15	255.12
647.30	276.18
647.44	210.65
647.59	163.84
647.74	161.50
647.88	332.36
648.03	229.37
648.17	180.22
648.32	224.69
648.47	220.01
648.61	217.67
648.76	229.37
648.90	189.58
649.05	273.84
649.20	177.88
649.34	180.22
649.49	229.37
649.63	243.42
649.78	243.42
649.92	297.25
650.07	212.99
650.21	224.69
650.36	208.31
650.51	224.69
650.65	236.39
650.80	201.29
650.94	191.92
651.09	180.22
651.23	205.97
651.38	145.11
651.52	273.84
651.67	215.33
651.81	194.26
651.96	311.29
652.10	234.05
652.25	227.03
652.39	334.70
652.54	238.73
652.68	273.84
652.83	278.52
652.97	208.31
653.12	231.71
653.26	241.08
653.41	229.37
653.55	198.95
653.70	227.03
653.84	299.59
653.99	161.50
654.13	208.31
654.27	173.20
654.42	189.58
654.56	187.24
654.71	222.35
654.85	194.26
655.00	245.76
655.14	198.95
655.29	215.33
655.43	210.65
655.57	205.97
655.72	142.77
655.86	215.33
656.01	149.79
656.15	269.16
656.30	180.22
656.44	180.22
656.58	184.90
656.73	245.76
656.87	131.07
657.01	248.10
657.16	266.82
657.30	210.65
657.45	259.80
657.59	266.82
657.73	212.99
657.88	285.55
658.02	301.93
658.16	238.73
658.31	166.18
658.45	259.80
658.60	257.46
658.74	271.50
658.88	189.58
659.03	259.80
659.17	203.63
659.31	201.29
659.46	238.73
659.60	241.08
659.74	168.52
659.89	180.22
660.03	241.08
660.17	234.05
660.32	241.08
660.46	250.44
660.60	222.35
660.74	208.31
660.89	287.89
661.03	224.69
661.17	149.79
661.32	180.22
661.46	224.69
661.60	208.31
661.74	276.18
661.89	294.91
662.03	252.78
662.17	311.29
662.31	308.95
662.46	248.10
662.60	196.60
662.74	217.67
662.88	215.33
663.03	220.01
663.17	173.20
663.31	257.46
663.45	220.01
663.60	224.69
663.74	182.56
663.88	205.97
664.02	168.52
664.17	194.26
664.31	241.08
664.45	173.20
664.59	175.54
664.73	201.29
664.88	245.76
665.02	259.80
665.16	215.33
665.30	210.65
665.44	243.42
665.59	248.10
665.73	215.33
665.87	238.73
666.01	201.29
666.15	238.73
666.29	241.08
666.44	245.76
666.58	287.89
666.72	208.31
666.86	173.20
667.00	201.29
667.14	128.73
667.28	224.69
667.43	212.99
667.57	220.01
667.71	224.69
667.85	222.35
667.99	173.20
668.13	229.37
668.27	205.97
668.41	292.57
668.56	166.18
668.70	187.24
668.84	276.18
668.98	177.88
669.12	170.86
669.26	189.58
669.40	271.50
669.54	194.26
669.68	142.77
669.82	255.12
669.96	294.91
670.10	243.42
670.25	154.48
670.39	215.33
670.53	215.33
670.67	220.01
670.81	217.67
670.95	180.22
671.09	198.95
671.23	234.05
671.37	196.60
671.51	159.16
671.65	224.69
671.79	189.58
671.93	154.48
672.07	250.44
672.21	156.82
672.35	170.86
672.49	241.08
672.63	224.69
672.77	217.67
672.91	191.92
673.05	196.60
673.19	170.86
673.33	320.65
673.47	266.82
673.61	229.37
673.75	177.88
673.89	187.24
674.03	227.03
674.17	149.79
674.31	236.39
674.45	203.63
674.59	229.37
674.73	74.90
674.87	231.71
675.01	241.08
675.15	191.92
675.29	201.29
675.43	187.24
675.56	280.86
675.70	147.45
675.84	196.60
675.98	194.26
676.12	194.26
676.26	161.50
676.40	133.41
676.54	177.88
676.68	248.10
676.82	238.73
676.96	145.11
677.10	168.52
677.23	210.65
677.37	149.79
677.51	208.31
677.65	201.29
677.79	140.43
677.93	131.07
678.07	177.88
678.21	128.73
678.34	175.54
678.48	168.52
678.62	194.26
678.76	215.33
678.90	152.13
679.04	196.60
679.18	147.45
679.31	184.90
679.45	234.05
679.59	248.10
679.73	175.54
679.87	88.94
680.00	154.48
680.14	135.75
680.28	175.54
680.42	234.05
680.56	180.22
680.70	142.77
680.83	205.97
680.97	135.75
681.11	142.77
681.25	161.50
681.39	210.65
681.52	238.73
681.66	166.18
681.80	212.99
681.94	184.90
682.07	166.18
682.21	121.71
682.35	227.03
682.49	194.26
682.62	238.73
682.76	173.20
682.90	154.48
683.04	210.65
683.17	262.14
683.31	138.09
683.45	187.24
683.59	177.88
683.72	257.46
683.86	170.86
684.00	210.65
684.13	191.92
684.27	191.92
684.41	159.16
684.55	121.71
684.68	173.20
684.82	154.48
684.96	205.97
685.09	205.97
685.23	135.75
685.37	194.26
685.50	238.73
685.64	145.11
685.78	154.48
685.91	173.20
686.05	173.20
686.19	210.65
686.32	187.24
686.46	138.09
686.60	145.11
686.73	142.77
686.87	170.86
687.01	159.16
687.14	98.30
687.28	124.05
687.42	98.30
687.55	140.43
687.69	168.52
687.82	182.56
687.96	119.37
688.10	182.56
688.23	210.65
688.37	229.37
688.50	117.03
688.64	168.52
688.78	124.05
688.91	93.62
689.05	16.38
689.18	124.05
689.32	168.52
689.46	156.82
689.59	208.31
689.73	208.31
689.86	163.84
690.00	93.62
690.13	114.69
690.27	86.60
690.41	245.76
690.54	81.92
690.68	173.20
690.81	88.94
690.95	112.35
691.08	140.43
691.22	138.09
691.35	107.66
691.49	128.73
691.62	191.92
691.76	135.75
691.89	154.48
692.03	95.96
692.16	161.50
692.30	135.75
692.43	95.96
692.57	88.94
692.70	166.18
692.84	168.52
692.97	191.92
693.11	124.05
693.24	191.92
693.38	168.52
693.51	107.66
693.65	107.66
693.78	107.66
693.92	77.24
694.05	86.60
694.19	135.75
694.32	110.01
694.45	107.66
694.59	67.88
694.72	135.75
694.86	74.90
694.99	173.20
695.13	102.98
695.26	177.88
695.39	152.13
695.53	133.41
695.66	161.50
695.80	184.90
695.93	159.16
696.07	142.77
696.20	166.18
696.33	110.01
696.47	208.31
696.60	128.73
696.73	189.58
696.87	124.05
697.00	224.69
697.14	184.90
697.27	177.88
697.40	198.95
697.54	121.71
697.67	149.79
697.80	124.05
697.94	135.75
698.07	163.84
698.21	180.22
698.34	149.79
698.47	168.52
698.61	49.15
698.74	95.96
698.87	107.66
699.01	91.28
699.14	224.69
699.27	168.52
699.40	224.69
699.54	32.77
699.67	154.48
699.80	138.09
699.94	152.13
700.07	184.90
700.20	173.20
700.34	79.58
700.47	70.22
700.60	65.54
700.73	105.32
700.87	222.35
701.00	84.26
701.13	142.77
701.26	79.58
701.40	79.58
701.53	88.94
701.66	145.11
701.79	124.05
701.93	126.39
702.06	184.90
702.19	124.05
702.32	184.90
702.46	100.64
702.59	126.39
702.72	110.01
702.85	126.39
702.99	93.62
703.12	126.39
703.25	142.77
703.38	135.75
703.51	168.52
703.65	145.11
703.78	196.60
703.91	173.20
704.04	145.11
704.17	163.84
704.31	119.37
704.44	88.94
704.57	100.64
704.70	180.22
704.83	140.43
704.96	182.56
705.10	133.41
705.23	187.24
>>>>>End Processed Spectral Data<<<<<
