SpectraSuite Data File
++++++++++++++++++++++++++++++++++++
Date: Fri Oct 04 11:48:20 GMT-05:00 2013
User: price-jones
Dark Spectrum Present: No
Reference Spectrum Present: No
Number of Sampled Component Spectra: 1
Spectrometers: USB2+H05261
Integration Time (usec): 100000 (USB2+H05261)
Spectra Averaged: 1 (USB2+H05261)
Boxcar Smoothing: 0 (USB2+H05261)
Correct for Electrical Dark: No (USB2+H05261)
Strobe/Lamp Enabled: No (USB2+H05261)
Correct for Detector Non-linearity: No (USB2+H05261)
Correct for Stray Light: No (USB2+H05261)
Number of Pixels in Processed Spectrum: 2048
>>>>>Begin Processed Spectral Data<<<<<
365.73	32.77
365.92	32.77
366.12	32.77
366.32	0.00
366.52	0.00
366.72	0.00
366.91	0.00
367.11	0.00
367.31	0.00
367.51	0.00
367.70	0.00
367.90	0.00
368.10	0.00
368.30	0.00
368.49	0.00
368.69	0.00
368.89	0.00
369.09	0.00
369.28	0.00
369.48	0.00
369.68	0.00
369.87	4.68
370.07	0.00
370.27	16.38
370.47	0.00
370.66	0.00
370.86	67.88
371.06	30.43
371.25	91.28
371.45	37.45
371.65	100.64
371.84	11.70
372.04	77.24
372.24	128.73
372.44	77.24
372.63	114.69
372.83	166.18
373.03	51.49
373.22	145.11
373.42	102.98
373.62	138.09
373.81	98.30
374.01	147.45
374.21	131.07
374.40	124.05
374.60	112.35
374.79	102.98
374.99	112.35
375.19	152.13
375.38	84.26
375.58	93.62
375.78	121.71
375.97	112.35
376.17	133.41
376.37	105.32
376.56	114.69
376.76	4.68
376.95	70.22
377.15	189.58
377.35	180.22
377.54	105.32
377.74	105.32
377.93	91.28
378.13	93.62
378.33	159.16
378.52	58.51
378.72	124.05
378.91	173.20
379.11	65.54
379.31	63.19
379.50	117.03
379.70	93.62
379.89	93.62
380.09	100.64
380.28	70.22
380.48	70.22
380.68	28.09
380.87	95.96
381.07	58.51
381.26	121.71
381.46	114.69
381.65	121.71
381.85	91.28
382.04	100.64
382.24	72.56
382.43	65.54
382.63	84.26
382.83	21.06
383.02	88.94
383.22	135.75
383.41	70.22
383.61	65.54
383.80	95.96
384.00	91.28
384.19	67.88
384.39	107.66
384.58	65.54
384.78	110.01
384.97	98.30
385.17	133.41
385.36	91.28
385.56	98.30
385.75	133.41
385.95	93.62
386.14	154.48
386.34	88.94
386.53	117.03
386.72	107.66
386.92	152.13
387.11	145.11
387.31	39.79
387.50	107.66
387.70	23.41
387.89	102.98
388.09	91.28
388.28	126.39
388.48	37.45
388.67	128.73
388.86	77.24
389.06	142.77
389.25	112.35
389.45	88.94
389.64	100.64
389.84	145.11
390.03	154.48
390.22	107.66
390.42	65.54
390.61	168.52
390.81	35.11
391.00	170.86
391.19	149.79
391.39	177.88
391.58	121.71
391.78	119.37
391.97	194.26
392.16	56.17
392.36	168.52
392.55	91.28
392.75	91.28
392.94	112.35
393.13	133.41
393.33	23.41
393.52	91.28
393.71	98.30
393.91	121.71
394.10	77.24
394.29	49.15
394.49	145.11
394.68	72.56
394.88	140.43
395.07	107.66
395.26	81.92
395.46	112.35
395.65	77.24
395.84	74.90
396.04	145.11
396.23	119.37
396.42	114.69
396.62	168.52
396.81	128.73
397.00	93.62
397.19	184.90
397.39	63.19
397.58	112.35
397.77	65.54
397.97	133.41
398.16	84.26
398.35	98.30
398.55	126.39
398.74	110.01
398.93	152.13
399.12	102.98
399.32	81.92
399.51	95.96
399.70	142.77
399.90	121.71
400.09	102.98
400.28	65.54
400.47	91.28
400.67	100.64
400.86	170.86
401.05	102.98
401.24	175.54
401.44	147.45
401.63	210.65
401.82	145.11
402.01	102.98
402.21	98.30
402.40	119.37
402.59	156.82
402.78	212.99
402.97	63.19
403.17	95.96
403.36	112.35
403.55	98.30
403.74	149.79
403.93	191.92
404.13	140.43
404.32	60.85
404.51	126.39
404.70	196.60
404.89	107.66
405.09	86.60
405.28	229.37
405.47	128.73
405.66	140.43
405.85	184.90
406.05	149.79
406.24	131.07
406.43	133.41
406.62	196.60
406.81	152.13
407.00	114.69
407.20	126.39
407.39	105.32
407.58	140.43
407.77	102.98
407.96	170.86
408.15	154.48
408.34	238.73
408.54	163.84
408.73	168.52
408.92	102.98
409.11	180.22
409.30	191.92
409.49	212.99
409.68	138.09
409.87	205.97
410.07	102.98
410.26	152.13
410.45	159.16
410.64	98.30
410.83	121.71
411.02	72.56
411.21	114.69
411.40	147.45
411.59	93.62
411.78	135.75
411.98	231.71
412.17	236.39
412.36	145.11
412.55	152.13
412.74	196.60
412.93	124.05
413.12	224.69
413.31	203.63
413.50	203.63
413.69	187.24
413.88	187.24
414.07	227.03
414.26	145.11
414.45	135.75
414.64	166.18
414.83	248.10
415.02	217.67
415.22	194.26
415.41	238.73
415.60	170.86
415.79	124.05
415.98	187.24
416.17	182.56
416.36	161.50
416.55	191.92
416.74	142.77
416.93	170.86
417.12	196.60
417.31	212.99
417.50	145.11
417.69	210.65
417.88	170.86
418.07	184.90
418.26	107.66
418.45	191.92
418.64	215.33
418.83	198.95
419.02	177.88
419.21	222.35
419.39	231.71
419.58	145.11
419.77	163.84
419.96	224.69
420.15	285.55
420.34	208.31
420.53	180.22
420.72	194.26
420.91	287.89
421.10	231.71
421.29	175.54
421.48	180.22
421.67	184.90
421.86	205.97
422.05	198.95
422.24	212.99
422.43	189.58
422.61	227.03
422.80	180.22
422.99	142.77
423.18	210.65
423.37	248.10
423.56	212.99
423.75	194.26
423.94	168.52
424.13	156.82
424.32	114.69
424.50	297.25
424.69	201.29
424.88	243.42
425.07	131.07
425.26	196.60
425.45	152.13
425.64	175.54
425.83	196.60
426.01	159.16
426.20	184.90
426.39	198.95
426.58	177.88
426.77	231.71
426.96	182.56
427.15	210.65
427.33	161.50
427.52	283.20
427.71	163.84
427.90	133.41
428.09	175.54
428.28	182.56
428.46	131.07
428.65	187.24
428.84	278.52
429.03	308.95
429.22	168.52
429.40	243.42
429.59	234.05
429.78	243.42
429.97	205.97
430.16	184.90
430.34	264.48
430.53	168.52
430.72	215.33
430.91	257.46
431.10	212.99
431.28	222.35
431.47	217.67
431.66	196.60
431.85	217.67
432.03	93.62
432.22	245.76
432.41	241.08
432.60	175.54
432.79	105.32
432.97	184.90
433.16	229.37
433.35	194.26
433.54	220.01
433.72	210.65
433.91	269.16
434.10	304.27
434.28	266.82
434.47	290.23
434.66	215.33
434.85	220.01
435.03	290.23
435.22	224.69
435.41	273.84
435.59	248.10
435.78	264.48
435.97	241.08
436.16	191.92
436.34	194.26
436.53	271.50
436.72	262.14
436.90	280.86
437.09	245.76
437.28	238.73
437.46	255.12
437.65	287.89
437.84	227.03
438.02	222.35
438.21	236.39
438.40	163.84
438.58	280.86
438.77	220.01
438.96	262.14
439.14	198.95
439.33	245.76
439.52	273.84
439.70	224.69
439.89	229.37
440.08	245.76
440.26	208.31
440.45	245.76
440.63	243.42
440.82	236.39
441.01	220.01
441.19	308.95
441.38	283.20
441.57	243.42
441.75	339.38
441.94	292.57
442.12	276.18
442.31	227.03
442.50	191.92
442.68	156.82
442.87	189.58
443.05	280.86
443.24	290.23
443.43	280.86
443.61	301.93
443.80	255.12
443.98	283.20
444.17	355.76
444.35	257.46
444.54	208.31
444.73	276.18
444.91	322.99
445.10	231.71
445.28	166.18
445.47	266.82
445.65	243.42
445.84	285.55
446.02	252.78
446.21	294.91
446.39	234.05
446.58	341.72
446.77	201.29
446.95	234.05
447.14	245.76
447.32	301.93
447.51	234.05
447.69	306.61
447.88	238.73
448.06	283.20
448.25	290.23
448.43	245.76
448.62	234.05
448.80	353.42
448.99	301.93
449.17	318.31
449.36	212.99
449.54	278.52
449.73	262.14
449.91	322.99
450.10	276.18
450.28	402.57
450.46	285.55
450.65	278.52
450.83	327.68
451.02	255.12
451.20	308.95
451.39	259.80
451.57	313.63
451.76	266.82
451.94	322.99
452.13	276.18
452.31	262.14
452.49	266.82
452.68	330.02
452.86	259.80
453.05	381.51
453.23	301.93
453.42	294.91
453.60	301.93
453.78	287.89
453.97	346.40
454.15	290.23
454.34	255.12
454.52	276.18
454.70	346.40
454.89	362.78
455.07	297.25
455.26	285.55
455.44	341.72
455.62	236.39
455.81	283.20
455.99	313.63
456.17	308.95
456.36	294.91
456.54	325.33
456.73	238.73
456.91	304.27
457.09	308.95
457.28	367.46
457.46	248.10
457.64	344.06
457.83	255.12
458.01	334.70
458.19	292.57
458.38	311.29
458.56	327.68
458.74	283.20
458.93	315.97
459.11	236.39
459.29	362.78
459.48	297.25
459.66	273.84
459.84	327.68
460.03	430.66
460.21	337.04
460.39	294.91
460.57	337.04
460.76	276.18
460.94	304.27
461.12	327.68
461.31	355.76
461.49	318.31
461.67	248.10
461.85	318.31
462.04	311.29
462.22	807.48
462.40	351.08
462.59	360.44
462.77	339.38
462.95	376.83
463.13	269.16
463.32	496.19
463.50	292.57
463.68	351.08
463.86	299.59
464.05	304.27
464.23	353.42
464.41	355.76
464.59	318.31
464.78	397.89
464.96	306.61
465.14	360.44
465.32	376.83
465.50	339.38
465.69	383.85
465.87	301.93
466.05	388.53
466.23	297.25
466.41	320.65
466.60	283.20
466.78	262.14
466.96	376.83
467.14	320.65
467.32	327.68
467.51	428.32
467.69	388.53
467.87	407.25
468.05	369.80
468.23	358.10
468.41	386.19
468.60	341.72
468.78	353.42
468.96	390.87
469.14	255.12
469.32	360.44
469.50	315.97
469.69	386.19
469.87	337.04
470.05	397.89
470.23	337.04
470.41	262.14
470.59	311.29
470.77	416.62
470.95	393.21
471.14	353.42
471.32	353.42
471.50	388.53
471.68	346.40
471.86	301.93
472.04	264.48
472.22	334.70
472.40	397.89
472.58	390.87
472.77	374.49
472.95	304.27
473.13	383.85
473.31	372.15
473.49	355.76
473.67	404.91
473.85	339.38
474.03	395.55
474.21	393.21
474.39	372.15
474.57	444.70
474.75	283.20
474.93	433.00
475.12	369.80
475.30	367.46
475.48	404.91
475.66	400.23
475.84	386.19
476.02	402.57
476.20	444.70
476.38	421.30
476.56	477.47
476.74	341.72
476.92	470.45
477.10	339.38
477.28	475.13
477.46	465.77
477.64	407.25
477.82	355.76
478.00	358.10
478.18	388.53
478.36	491.51
478.54	458.74
478.72	409.59
478.90	388.53
479.08	386.19
479.26	449.38
479.44	390.87
479.62	330.02
479.80	430.66
479.98	458.74
480.16	411.93
480.34	458.74
480.52	376.83
480.70	433.00
480.88	381.51
481.06	465.77
481.24	393.21
481.41	435.34
481.59	447.04
481.77	428.32
481.95	440.02
482.13	477.47
482.31	465.77
482.49	451.72
482.67	482.15
482.85	428.32
483.03	514.92
483.21	498.53
483.39	479.81
483.57	477.47
483.74	444.70
483.92	428.32
484.10	545.34
484.28	543.00
484.46	430.66
484.64	503.22
484.82	463.43
485.00	517.26
485.18	557.05
485.35	449.38
485.53	552.37
485.71	472.79
485.89	580.45
486.07	444.70
486.25	580.45
486.43	465.77
486.61	571.09
486.78	484.49
486.96	540.66
487.14	599.18
487.32	540.66
487.50	470.45
487.68	491.51
487.85	535.98
488.03	643.65
488.21	580.45
488.39	582.79
488.57	540.66
488.75	559.39
488.92	856.64
489.10	531.30
489.28	599.18
489.46	573.43
489.64	582.79
489.81	578.11
489.99	592.16
490.17	650.67
490.35	669.39
490.53	653.01
490.70	575.77
490.88	599.18
491.06	617.90
491.24	669.39
491.41	699.82
491.59	601.52
491.77	535.98
491.95	617.90
492.13	650.67
492.30	629.60
492.48	580.45
492.66	547.69
492.84	571.09
493.01	578.11
493.19	624.92
493.37	671.73
493.54	681.10
493.72	692.80
493.90	664.71
494.08	667.05
494.25	674.07
494.43	706.84
494.61	641.31
494.79	641.31
494.96	622.58
495.14	716.20
495.32	753.65
495.49	716.20
495.67	692.80
495.85	636.63
496.02	636.63
496.20	695.14
496.38	667.05
496.55	695.14
496.73	709.18
496.91	634.29
497.09	744.29
497.26	702.16
497.44	716.20
497.62	699.82
497.79	636.63
497.97	784.08
498.14	645.99
498.32	695.14
498.50	706.84
498.67	765.36
498.85	643.65
499.03	636.63
499.20	725.57
499.38	718.54
499.56	734.93
499.73	788.76
499.91	702.16
500.08	737.27
500.26	746.63
500.44	727.91
500.61	683.44
500.79	774.72
500.97	709.18
501.14	753.65
501.32	777.06
501.49	793.44
501.67	718.54
501.84	704.50
502.02	709.18
502.20	786.42
502.37	861.32
502.55	692.80
502.72	748.97
502.90	744.29
503.07	767.70
503.25	774.72
503.43	772.38
503.60	763.01
503.78	732.59
503.95	758.33
504.13	772.38
504.30	760.67
504.48	741.95
504.65	779.40
504.83	835.57
505.01	767.70
505.18	781.74
505.36	800.46
505.53	753.65
505.71	837.91
505.88	837.91
506.06	786.42
506.23	891.74
506.41	870.68
506.58	833.23
506.76	894.08
506.93	849.61
507.11	873.02
507.28	870.68
507.46	744.29
507.63	812.17
507.81	826.21
507.98	870.68
508.16	858.98
508.33	887.06
508.50	936.21
508.68	858.98
508.85	896.43
509.03	861.32
509.20	840.25
509.38	777.06
509.55	915.15
509.73	908.13
509.90	802.80
510.08	809.83
510.25	866.00
510.42	868.34
510.60	896.43
510.77	880.04
510.95	826.21
511.12	781.74
511.30	856.64
511.47	847.27
511.64	875.36
511.82	835.57
511.99	807.48
512.17	791.10
512.34	866.00
512.51	954.94
512.69	905.79
512.86	957.28
513.04	805.14
513.21	896.43
513.38	894.08
513.56	924.51
513.73	863.66
513.90	926.85
514.08	887.06
514.25	858.98
514.43	866.00
514.60	901.11
514.77	903.45
514.95	880.04
515.12	915.15
515.29	929.19
515.47	950.26
515.64	933.87
515.81	870.68
515.99	908.13
516.16	830.89
516.33	983.02
516.51	931.53
516.68	917.49
516.85	985.37
517.03	910.47
517.20	980.68
517.37	891.74
517.54	945.58
517.72	875.36
517.89	812.17
518.06	910.47
518.24	1011.11
518.41	999.41
518.58	985.37
518.75	894.08
518.93	851.96
519.10	919.83
519.27	926.85
519.45	929.19
519.62	952.60
519.79	938.55
519.96	917.49
520.14	933.87
520.31	983.02
520.48	968.98
520.65	950.26
520.83	938.55
521.00	968.98
521.17	887.06
521.34	959.62
521.52	987.71
521.69	877.70
521.86	950.26
522.03	1032.18
522.20	1013.45
522.38	863.66
522.55	856.64
522.72	919.83
522.89	1020.47
523.07	1013.45
523.24	980.68
523.41	940.90
523.58	929.19
523.75	1022.81
523.92	908.13
524.10	1011.11
524.27	992.39
524.44	912.81
524.61	947.92
524.78	957.28
524.96	992.39
525.13	1008.77
525.30	961.96
525.47	1064.94
525.64	994.73
525.81	952.60
525.98	924.51
526.16	1025.15
526.33	957.28
526.50	971.32
526.67	1015.79
526.84	1046.22
527.01	987.71
527.18	947.92
527.36	1064.94
527.53	973.66
527.70	1102.39
527.87	1078.99
528.04	1004.09
528.21	994.73
528.38	1022.81
528.55	1011.11
528.72	1025.15
528.89	1071.97
529.07	1020.47
529.24	1116.44
529.41	1100.05
529.58	964.30
529.75	990.05
529.92	1053.24
530.09	1130.48
530.26	1156.22
530.43	1029.84
530.60	1109.41
530.77	1102.39
530.94	1128.14
531.11	1043.88
531.28	1116.44
531.46	971.32
531.63	1132.82
531.80	1114.10
531.97	997.07
532.14	1064.94
532.31	1076.65
532.48	1029.84
532.65	1025.15
532.82	1025.15
532.99	1022.81
533.16	1053.24
533.33	1006.43
533.50	1102.39
533.67	1053.24
533.84	1060.26
534.01	1004.09
534.18	1025.15
534.35	1029.84
534.52	1090.69
534.69	1121.12
534.86	1095.37
535.03	1142.18
535.20	973.66
535.37	1139.84
535.54	1088.35
535.71	1090.69
535.88	1146.86
536.05	1060.26
536.22	1086.01
536.38	1097.71
536.55	1027.50
536.72	1078.99
536.89	1088.35
537.06	1050.90
537.23	1001.75
537.40	1083.67
537.57	1081.33
537.74	1139.84
537.91	1055.58
538.08	1102.39
538.25	1116.44
538.42	1064.94
538.59	999.41
538.75	1032.18
538.92	1039.20
539.09	1107.07
539.26	1057.92
539.43	1060.26
539.60	1107.07
539.77	1153.88
539.94	1081.33
540.11	1104.73
540.28	1083.67
540.44	1013.45
540.61	1100.05
540.78	1142.18
540.95	1151.54
541.12	1144.52
541.29	1146.86
541.46	1146.86
541.62	1062.60
541.79	1067.28
541.96	1083.67
542.13	1018.13
542.30	1170.27
542.47	1114.10
542.63	1020.47
542.80	1078.99
542.97	1121.12
543.14	1207.72
543.31	1102.39
543.48	1249.85
543.64	1071.97
543.81	1181.97
543.98	1086.01
544.15	1156.22
544.32	1090.69
544.48	1032.18
544.65	1123.46
544.82	1034.52
544.99	1088.35
545.16	1116.44
545.32	1200.69
545.49	1144.52
545.66	1130.48
545.83	1163.25
546.00	1015.79
546.16	1088.35
546.33	1034.52
546.50	1130.48
546.67	1196.01
546.83	1116.44
547.00	1226.44
547.17	1135.16
547.34	1153.88
547.50	1067.28
547.67	1102.39
547.84	1107.07
548.00	1200.69
548.17	1125.80
548.34	1069.62
548.51	1156.22
548.67	1144.52
548.84	1114.10
549.01	1132.82
549.18	1025.15
549.34	1097.71
549.51	1102.39
549.68	1114.10
549.84	1188.99
550.01	1184.31
550.18	1252.19
550.34	1245.16
550.51	1121.12
550.68	1167.93
550.84	1090.69
551.01	1107.07
551.18	1193.67
551.34	1029.84
551.51	1153.88
551.68	1144.52
551.84	1160.91
552.01	1158.57
552.18	1114.10
552.34	1097.71
552.51	1128.14
552.68	1027.50
552.84	1107.07
553.01	1053.24
553.18	1191.33
553.34	1191.33
553.51	1170.27
553.67	1118.78
553.84	1163.25
554.01	1212.40
554.17	1137.50
554.34	1200.69
554.51	1210.06
554.67	1172.61
554.84	1233.46
555.00	1153.88
555.17	1172.61
555.33	1245.16
555.50	1144.52
555.67	1095.37
555.83	1116.44
556.00	1151.54
556.16	1282.61
556.33	1146.86
556.50	1149.20
556.66	1093.03
556.83	1200.69
556.99	1142.18
557.16	1118.78
557.32	1118.78
557.49	1165.59
557.65	1100.05
557.82	1177.29
557.98	1224.10
558.15	1160.91
558.32	1193.67
558.48	1200.69
558.65	1149.20
558.81	1149.20
558.98	1130.48
559.14	1200.69
559.31	1104.73
559.47	1130.48
559.64	1107.07
559.80	1160.91
559.97	1144.52
560.13	1158.57
560.30	1135.16
560.46	1118.78
560.63	1128.14
560.79	1144.52
560.96	1132.82
561.12	1221.76
561.29	1121.12
561.45	1151.54
561.61	1177.29
561.78	1233.46
561.94	1224.10
562.11	1170.27
562.27	1174.95
562.44	1118.78
562.60	1121.12
562.77	1242.82
562.93	1097.71
563.10	1135.16
563.26	1132.82
563.42	1097.71
563.59	1144.52
563.75	1196.01
563.92	1193.67
564.08	1142.18
564.24	1165.59
564.41	1165.59
564.57	1172.61
564.74	1275.59
564.90	1149.20
565.07	1174.95
565.23	1158.57
565.39	1181.97
565.56	1165.59
565.72	1123.46
565.88	1205.38
566.05	1076.65
566.21	1097.71
566.38	1217.08
566.54	1233.46
566.70	1114.10
566.87	1235.80
567.03	1097.71
567.19	1193.67
567.36	1163.25
567.52	1160.91
567.68	1212.40
567.85	1174.95
568.01	1203.04
568.17	1177.29
568.34	1219.42
568.50	1135.16
568.66	1177.29
568.83	1200.69
568.99	1191.33
569.15	1139.84
569.32	1160.91
569.48	1144.52
569.64	1128.14
569.81	1111.75
569.97	1109.41
570.13	1149.20
570.30	1167.93
570.46	1252.19
570.62	1188.99
570.78	1130.48
570.95	1160.91
571.11	1165.59
571.27	1118.78
571.43	1158.57
571.60	1296.66
571.76	1200.69
571.92	1181.97
572.09	1055.58
572.25	1170.27
572.41	1238.14
572.57	1130.48
572.74	1128.14
572.90	1177.29
573.06	1203.04
573.22	1207.72
573.38	1212.40
573.55	1142.18
573.71	1231.12
573.87	1235.80
574.03	1118.78
574.20	1123.46
574.36	1188.99
574.52	1121.12
574.68	1076.65
574.84	1158.57
575.01	1125.80
575.17	1235.80
575.33	1179.63
575.49	1196.01
575.65	1221.76
575.82	1259.21
575.98	1231.12
576.14	1207.72
576.30	1128.14
576.46	1144.52
576.62	1144.52
576.79	1245.16
576.95	1200.69
577.11	1177.29
577.27	1158.57
577.43	1270.91
577.59	1263.89
577.75	1151.54
577.92	1114.10
578.08	1249.85
578.24	1158.57
578.40	1270.91
578.56	1240.48
578.72	1280.27
578.88	1186.65
579.04	1226.44
579.21	1252.19
579.37	1233.46
579.53	1153.88
579.69	1114.10
579.85	1123.46
580.01	1200.69
580.17	1071.97
580.33	1214.74
580.49	1289.64
580.65	1226.44
580.82	1184.31
580.98	1086.01
581.14	1193.67
581.30	1158.57
581.46	1116.44
581.62	1210.06
581.78	1217.08
581.94	1280.27
582.10	1186.65
582.26	1158.57
582.42	1130.48
582.58	1210.06
582.74	1184.31
582.90	1156.22
583.06	1177.29
583.22	1181.97
583.38	1210.06
583.54	1153.88
583.70	1238.14
583.86	1221.76
584.02	1090.69
584.18	1205.38
584.34	1289.64
584.50	1135.16
584.66	1090.69
584.82	1076.65
584.98	1158.57
585.14	1160.91
585.30	1128.14
585.46	1167.93
585.62	1064.94
585.78	1142.18
585.94	1191.33
586.10	1163.25
586.26	1181.97
586.42	1268.57
586.58	1240.48
586.74	1207.72
586.90	1174.95
587.06	1188.99
587.22	1156.22
587.38	1170.27
587.54	1144.52
587.70	1170.27
587.86	1247.51
588.02	1125.80
588.18	1228.78
588.34	1167.93
588.49	1116.44
588.65	1081.33
588.81	1067.28
588.97	1034.52
589.13	1093.03
589.29	1196.01
589.45	1142.18
589.61	1100.05
589.77	1191.33
589.93	1163.25
590.08	1083.67
590.24	1170.27
590.40	1184.31
590.56	1196.01
590.72	1163.25
590.88	1221.76
591.04	1231.12
591.20	1109.41
591.35	1111.75
591.51	1172.61
591.67	1118.78
591.83	1100.05
591.99	1186.65
592.15	1146.86
592.31	1184.31
592.46	1167.93
592.62	1090.69
592.78	1071.97
592.94	1074.31
593.10	1188.99
593.26	1193.67
593.41	1247.51
593.57	1254.53
593.73	1100.05
593.89	1186.65
594.05	1128.14
594.20	1149.20
594.36	1188.99
594.52	1179.63
594.68	1153.88
594.84	1174.95
594.99	1142.18
595.15	1064.94
595.31	1266.23
595.47	1242.82
595.62	1196.01
595.78	1163.25
595.94	1186.65
596.10	1177.29
596.25	1217.08
596.41	1228.78
596.57	1039.20
596.73	1067.28
596.88	1289.64
597.04	1128.14
597.20	1074.31
597.36	1163.25
597.51	1116.44
597.67	1146.86
597.83	1149.20
597.99	1228.78
598.14	1170.27
598.30	1181.97
598.46	1121.12
598.61	1132.82
598.77	1165.59
598.93	1172.61
599.09	1259.21
599.24	1242.82
599.40	1268.57
599.56	1177.29
599.71	1181.97
599.87	1121.12
600.03	1200.69
600.18	1188.99
600.34	1212.40
600.50	1125.80
600.65	1172.61
600.81	1160.91
600.97	1074.31
601.12	1186.65
601.28	1100.05
601.44	1095.37
601.59	1163.25
601.75	1116.44
601.91	1097.71
602.06	1151.54
602.22	1249.85
602.37	1233.46
602.53	1156.22
602.69	1144.52
602.84	1151.54
603.00	1184.31
603.16	1167.93
603.31	1158.57
603.47	1149.20
603.62	1062.60
603.78	1214.74
603.94	1170.27
604.09	1203.04
604.25	1118.78
604.40	1198.35
604.56	1132.82
604.71	1114.10
604.87	1224.10
605.03	1149.20
605.18	1137.50
605.34	1095.37
605.49	1151.54
605.65	1184.31
605.80	1153.88
605.96	1160.91
606.12	1135.16
606.27	1163.25
606.43	1172.61
606.58	1212.40
606.74	1163.25
606.89	1191.33
607.05	1186.65
607.20	1114.10
607.36	1261.55
607.51	1167.93
607.67	1104.73
607.82	1116.44
607.98	1203.04
608.13	1109.41
608.29	1097.71
608.44	1135.16
608.60	1153.88
608.75	1163.25
608.91	1107.07
609.06	1114.10
609.22	1116.44
609.37	1170.27
609.53	1118.78
609.68	1121.12
609.84	1057.92
609.99	1191.33
610.15	1198.35
610.30	1146.86
610.46	1114.10
610.61	1163.25
610.76	1212.40
610.92	1149.20
611.07	1083.67
611.23	1226.44
611.38	1086.01
611.54	1090.69
611.69	1167.93
611.84	1107.07
612.00	1097.71
612.15	1104.73
612.31	1130.48
612.46	1177.29
612.62	1050.90
612.77	1188.99
612.92	1163.25
613.08	1163.25
613.23	1104.73
613.39	1121.12
613.54	1142.18
613.69	1121.12
613.85	1114.10
614.00	1160.91
614.15	1069.62
614.31	1069.62
614.46	1144.52
614.62	1121.12
614.77	1050.90
614.92	1025.15
615.08	1128.14
615.23	1071.97
615.38	1109.41
615.54	1111.75
615.69	1043.88
615.84	1100.05
616.00	1093.03
616.15	1001.75
616.30	1167.93
616.46	1076.65
616.61	1116.44
616.76	1060.26
616.92	1086.01
617.07	1210.06
617.22	1046.22
617.37	1118.78
617.53	1125.80
617.68	1158.57
617.83	1039.20
617.99	1193.67
618.14	1165.59
618.29	1179.63
618.45	1043.88
618.60	1109.41
618.75	1032.18
618.90	1053.24
619.06	1034.52
619.21	1095.37
619.36	1118.78
619.51	1029.84
619.67	1158.57
619.82	1081.33
619.97	1210.06
620.12	1151.54
620.28	1128.14
620.43	1078.99
620.58	1118.78
620.73	1114.10
620.89	1137.50
621.04	1121.12
621.19	1109.41
621.34	1139.84
621.49	1022.81
621.65	1132.82
621.80	1095.37
621.95	1137.50
622.10	1142.18
622.25	999.41
622.41	1109.41
622.56	1142.18
622.71	1062.60
622.86	1123.46
623.01	1039.20
623.16	1114.10
623.32	1137.50
623.47	1046.22
623.62	1004.09
623.77	1053.24
623.92	976.00
624.07	1041.54
624.23	1074.31
624.38	1076.65
624.53	1095.37
624.68	1132.82
624.83	1029.84
624.98	1043.88
625.13	1008.77
625.29	1123.46
625.44	1043.88
625.59	983.02
625.74	1053.24
625.89	1006.43
626.04	1046.22
626.19	1034.52
626.34	1095.37
626.49	1006.43
626.65	1076.65
626.80	1081.33
626.95	1100.05
627.10	1006.43
627.25	950.26
627.40	1001.75
627.55	1074.31
627.70	978.34
627.85	994.73
628.00	992.39
628.15	1018.13
628.30	1057.92
628.45	933.87
628.60	1046.22
628.76	1090.69
628.91	1013.45
629.06	1036.86
629.21	1078.99
629.36	1128.14
629.51	1067.28
629.66	933.87
629.81	1057.92
629.96	1074.31
630.11	1107.07
630.26	1142.18
630.41	1055.58
630.56	1025.15
630.71	999.41
630.86	1060.26
631.01	1034.52
631.16	1036.86
631.31	1114.10
631.46	1015.79
631.61	1062.60
631.76	1015.79
631.91	1006.43
632.06	1078.99
632.21	1006.43
632.36	1064.94
632.51	1069.62
632.66	1027.50
632.81	1015.79
632.96	1053.24
633.10	936.21
633.25	1067.28
633.40	1104.73
633.55	968.98
633.70	924.51
633.85	1102.39
634.00	1001.75
634.15	1013.45
634.30	1015.79
634.45	1013.45
634.60	1006.43
634.75	964.30
634.90	983.02
635.05	947.92
635.19	1039.20
635.34	978.34
635.49	997.07
635.64	1022.81
635.79	1020.47
635.94	968.98
636.09	1034.52
636.24	950.26
636.39	1048.56
636.53	976.00
636.68	980.68
636.83	992.39
636.98	1043.88
637.13	1015.79
637.28	1050.90
637.43	1053.24
637.57	1121.12
637.72	1043.88
637.87	1041.54
638.02	1025.15
638.17	1086.01
638.32	968.98
638.46	1032.18
638.61	1078.99
638.76	997.07
638.91	997.07
639.06	1046.22
639.20	990.05
639.35	1034.52
639.50	1069.62
639.65	1081.33
639.80	898.77
639.94	985.37
640.09	1039.20
640.24	1071.97
640.39	1034.52
640.54	1032.18
640.68	1060.26
640.83	994.73
640.98	950.26
641.13	999.41
641.27	1015.79
641.42	973.66
641.57	983.02
641.72	950.26
641.86	980.68
642.01	1001.75
642.16	1095.37
642.31	964.30
642.45	964.30
642.60	903.45
642.75	929.19
642.90	1116.44
643.04	903.45
643.19	950.26
643.34	1025.15
643.48	968.98
643.63	959.62
643.78	1050.90
643.93	1006.43
644.07	919.83
644.22	983.02
644.37	994.73
644.51	1078.99
644.66	1001.75
644.81	1039.20
644.95	971.32
645.10	985.37
645.25	947.92
645.39	1034.52
645.54	1015.79
645.69	952.60
645.83	959.62
645.98	1071.97
646.13	978.34
646.27	877.70
646.42	931.53
646.57	1006.43
646.71	847.27
646.86	983.02
647.00	959.62
647.15	971.32
647.30	922.17
647.44	966.64
647.59	950.26
647.74	961.96
647.88	961.96
648.03	894.08
648.17	950.26
648.32	964.30
648.47	954.94
648.61	959.62
648.76	994.73
648.90	961.96
649.05	999.41
649.20	999.41
649.34	980.68
649.49	1020.47
649.63	964.30
649.78	961.96
649.92	922.17
650.07	961.96
650.21	896.43
650.36	976.00
650.51	910.47
650.65	983.02
650.80	961.96
650.94	891.74
651.09	880.04
651.23	980.68
651.38	938.55
651.52	905.79
651.67	966.64
651.81	940.90
651.96	1013.45
652.10	924.51
652.25	987.71
652.39	957.28
652.54	1006.43
652.68	997.07
652.83	966.64
652.97	950.26
653.12	940.90
653.26	898.77
653.41	1036.86
653.55	1020.47
653.70	912.81
653.84	891.74
653.99	931.53
654.13	945.58
654.27	1015.79
654.42	919.83
654.56	936.21
654.71	931.53
654.85	943.24
655.00	961.96
655.14	884.72
655.29	847.27
655.43	903.45
655.57	1032.18
655.72	910.47
655.86	938.55
656.01	919.83
656.15	821.53
656.30	931.53
656.44	910.47
656.58	898.77
656.73	882.38
656.87	924.51
657.01	884.72
657.16	926.85
657.30	987.71
657.45	933.87
657.59	1001.75
657.73	964.30
657.88	837.91
658.02	947.92
658.16	1001.75
658.31	968.98
658.45	896.43
658.60	950.26
658.74	858.98
658.88	940.90
659.03	861.32
659.17	903.45
659.31	861.32
659.46	856.64
659.60	882.38
659.74	943.24
659.89	821.53
660.03	896.43
660.17	1013.45
660.32	1001.75
660.46	938.55
660.60	793.44
660.74	1034.52
660.89	856.64
661.03	851.96
661.17	863.66
661.32	952.60
661.46	840.25
661.60	814.51
661.74	849.61
661.89	894.08
662.03	968.98
662.17	954.94
662.31	884.72
662.46	915.15
662.60	943.24
662.74	866.00
662.88	861.32
663.03	931.53
663.17	882.38
663.31	957.28
663.45	903.45
663.60	908.13
663.74	840.25
663.88	770.04
664.02	847.27
664.17	772.38
664.31	828.55
664.45	936.21
664.59	884.72
664.73	835.57
664.88	861.32
665.02	884.72
665.16	837.91
665.30	812.17
665.44	854.30
665.59	898.77
665.73	943.24
665.87	882.38
666.01	809.83
666.15	844.93
666.29	830.89
666.44	858.98
666.58	931.53
666.72	858.98
666.86	849.61
667.00	926.85
667.14	870.68
667.28	772.38
667.43	868.34
667.57	858.98
667.71	877.70
667.85	844.93
667.99	791.10
668.13	898.77
668.27	819.19
668.41	873.02
668.56	842.59
668.70	842.59
668.84	802.80
668.98	842.59
669.12	908.13
669.26	746.63
669.40	903.45
669.54	863.66
669.68	849.61
669.82	884.72
669.96	866.00
670.10	915.15
670.25	748.97
670.39	809.83
670.53	835.57
670.67	847.27
670.81	854.30
670.95	880.04
671.09	802.80
671.23	791.10
671.37	854.30
671.51	816.85
671.65	858.98
671.79	770.04
671.93	823.87
672.07	805.14
672.21	880.04
672.35	777.06
672.49	755.99
672.63	863.66
672.77	968.98
672.91	795.78
673.05	777.06
673.19	870.68
673.33	849.61
673.47	880.04
673.61	819.19
673.75	861.32
673.89	812.17
674.03	723.23
674.17	770.04
674.31	734.93
674.45	753.65
674.59	816.85
674.73	774.72
674.87	781.74
675.01	770.04
675.15	737.27
675.29	760.67
675.43	805.14
675.56	880.04
675.70	732.59
675.84	798.12
675.98	791.10
676.12	849.61
676.26	755.99
676.40	697.48
676.54	744.29
676.68	741.95
676.82	772.38
676.96	837.91
677.10	727.91
677.23	697.48
677.37	751.31
677.51	683.44
677.65	805.14
677.79	741.95
677.93	772.38
678.07	758.33
678.21	695.14
678.34	821.53
678.48	695.14
678.62	702.16
678.76	765.36
678.90	706.84
679.04	695.14
679.18	711.52
679.31	631.94
679.45	760.67
679.59	704.50
679.73	741.95
679.87	669.39
680.00	678.76
680.14	741.95
680.28	681.10
680.42	753.65
680.56	692.80
680.70	732.59
680.83	753.65
680.97	716.20
681.11	603.86
681.25	741.95
681.39	795.78
681.52	784.08
681.66	704.50
681.80	706.84
681.94	746.63
682.07	662.37
682.21	674.07
682.35	671.73
682.49	725.57
682.62	690.46
682.76	610.88
682.90	627.26
683.04	702.16
683.17	688.12
683.31	660.03
683.45	706.84
683.59	699.82
683.72	737.27
683.86	599.18
684.00	603.86
684.13	716.20
684.27	643.65
684.41	648.33
684.55	638.97
684.68	627.26
684.82	725.57
684.96	716.20
685.09	669.39
685.23	634.29
685.37	585.13
685.50	641.31
685.64	692.80
685.78	657.69
685.91	596.84
686.05	615.56
686.19	620.24
686.32	681.10
686.46	629.60
686.60	533.64
686.73	685.78
686.87	587.47
687.01	638.97
687.14	552.37
687.28	608.54
687.42	566.41
687.55	568.75
687.69	608.54
687.82	568.75
687.96	699.82
688.10	627.26
688.23	571.09
688.37	636.63
688.50	676.41
688.64	514.92
688.78	575.77
688.91	566.41
689.05	561.73
689.18	613.22
689.32	557.05
689.46	505.56
689.59	552.37
689.73	608.54
689.86	631.94
690.00	514.92
690.13	589.82
690.27	657.69
690.41	622.58
690.54	496.19
690.68	484.49
690.81	610.88
690.95	547.69
691.08	571.09
691.22	653.01
691.35	524.28
691.49	552.37
691.62	498.53
691.76	613.22
691.89	603.86
692.03	603.86
692.16	545.34
692.30	524.28
692.43	545.34
692.57	510.24
692.70	526.62
692.84	531.30
692.97	571.09
693.11	589.82
693.24	505.56
693.38	547.69
693.51	528.96
693.65	489.17
693.78	503.22
693.92	566.41
694.05	568.75
694.19	507.90
694.32	454.06
694.45	547.69
694.59	521.94
694.72	482.15
694.86	470.45
694.99	531.30
695.13	538.32
695.26	526.62
695.39	465.77
695.53	486.83
695.66	559.39
695.80	517.26
695.93	524.28
696.07	545.34
696.20	538.32
696.33	477.47
696.47	461.09
696.60	503.22
696.73	470.45
696.87	456.40
697.00	491.51
697.14	543.00
697.27	465.77
697.40	592.16
697.54	533.64
697.67	458.74
697.80	416.62
697.94	486.83
698.07	486.83
698.21	456.40
698.34	435.34
698.47	461.09
698.61	575.77
698.74	484.49
698.87	519.60
699.01	519.60
699.14	468.11
699.27	444.70
699.40	503.22
699.54	491.51
699.67	423.64
699.80	390.87
699.94	440.02
700.07	421.30
700.20	482.15
700.34	435.34
700.47	409.59
700.60	454.06
700.73	498.53
700.87	545.34
701.00	397.89
701.13	442.36
701.26	437.68
701.40	411.93
701.53	393.21
701.66	451.72
701.79	374.49
701.93	402.57
702.06	477.47
702.19	407.25
702.32	430.66
702.46	355.76
702.59	418.96
702.72	418.96
702.85	496.19
702.99	503.22
703.12	482.15
703.25	435.34
703.38	404.91
703.51	517.26
703.65	411.93
703.78	482.15
703.91	458.74
704.04	379.17
704.17	351.08
704.31	454.06
704.44	505.56
704.57	411.93
704.70	390.87
704.83	332.36
704.96	416.62
705.10	421.30
705.23	404.91
>>>>>End Processed Spectral Data<<<<<
