SpectraSuite Data File
++++++++++++++++++++++++++++++++++++
Date: Fri Oct 04 11:48:36 GMT-05:00 2013
User: price-jones
Dark Spectrum Present: No
Reference Spectrum Present: No
Number of Sampled Component Spectra: 1
Spectrometers: USB2+H05261
Integration Time (usec): 100000 (USB2+H05261)
Spectra Averaged: 1 (USB2+H05261)
Boxcar Smoothing: 0 (USB2+H05261)
Correct for Electrical Dark: No (USB2+H05261)
Strobe/Lamp Enabled: No (USB2+H05261)
Correct for Detector Non-linearity: No (USB2+H05261)
Correct for Stray Light: No (USB2+H05261)
Number of Pixels in Processed Spectrum: 2048
>>>>>Begin Processed Spectral Data<<<<<
365.73	23.41
365.92	23.41
366.12	23.41
366.32	0.00
366.52	0.00
366.72	0.00
366.91	0.00
367.11	0.00
367.31	0.00
367.51	0.00
367.70	0.00
367.90	0.00
368.10	0.00
368.30	0.00
368.49	0.00
368.69	0.00
368.89	0.00
369.09	0.00
369.28	4.68
369.48	16.38
369.68	0.00
369.87	0.00
370.07	0.00
370.27	70.22
370.47	70.22
370.66	248.10
370.86	259.80
371.06	334.70
371.25	330.02
371.45	276.18
371.65	215.33
371.84	273.84
372.04	271.50
372.24	231.71
372.44	355.76
372.63	332.36
372.83	351.08
373.03	290.23
373.22	297.25
373.42	386.19
373.62	355.76
373.81	355.76
374.01	360.44
374.21	348.74
374.40	388.53
374.60	393.21
374.79	334.70
374.99	348.74
375.19	402.57
375.38	423.64
375.58	369.80
375.78	390.87
375.97	322.99
376.17	503.22
376.37	468.11
376.56	418.96
376.76	383.85
376.95	379.17
377.15	463.43
377.35	409.59
377.54	458.74
377.74	414.27
377.93	362.78
378.13	376.83
378.33	444.70
378.52	414.27
378.72	428.32
378.91	451.72
379.11	454.06
379.31	461.09
379.50	400.23
379.70	407.25
379.89	440.02
380.09	411.93
380.28	440.02
380.48	496.19
380.68	409.59
380.87	456.40
381.07	456.40
381.26	505.56
381.46	486.83
381.65	526.62
381.85	451.72
382.04	381.51
382.24	566.41
382.43	531.30
382.63	531.30
382.83	465.77
383.02	528.96
383.22	514.92
383.41	524.28
383.61	552.37
383.80	528.96
384.00	566.41
384.19	503.22
384.39	561.73
384.58	564.07
384.78	557.05
384.97	589.82
385.17	564.07
385.36	498.53
385.56	554.71
385.75	463.43
385.95	535.98
386.14	517.26
386.34	571.09
386.53	622.58
386.72	592.16
386.92	493.85
387.11	594.50
387.31	657.69
387.50	550.03
387.70	589.82
387.89	580.45
388.09	564.07
388.28	629.60
388.48	676.41
388.67	631.94
388.86	575.77
389.06	582.79
389.25	699.82
389.45	655.35
389.64	592.16
389.84	697.48
390.03	617.90
390.22	561.73
390.42	695.14
390.61	653.01
390.81	697.48
391.00	741.95
391.19	655.35
391.39	690.46
391.58	725.57
391.78	697.48
391.97	678.76
392.16	702.16
392.36	706.84
392.55	706.84
392.75	704.50
392.94	730.25
393.13	669.39
393.33	823.87
393.52	763.01
393.71	858.98
393.91	856.64
394.10	800.46
394.29	772.38
394.49	741.95
394.68	851.96
394.88	786.42
395.07	840.25
395.26	837.91
395.46	828.55
395.65	875.36
395.84	861.32
396.04	924.51
396.23	798.12
396.42	898.77
396.62	924.51
396.81	891.74
397.00	940.90
397.19	976.00
397.39	898.77
397.58	1001.75
397.77	1036.86
397.97	1067.28
398.16	964.30
398.35	898.77
398.55	938.55
398.74	1043.88
398.93	1125.80
399.12	1067.28
399.32	1011.11
399.51	1078.99
399.70	950.26
399.90	1067.28
400.09	1067.28
400.28	1128.14
400.47	1060.26
400.67	1111.75
400.86	1142.18
401.05	1207.72
401.24	1224.10
401.44	1181.97
401.63	1200.69
401.82	1142.18
402.01	1200.69
402.21	1254.53
402.40	1170.27
402.59	1249.85
402.78	1282.61
402.97	1343.47
403.17	1289.64
403.36	1310.70
403.55	1338.79
403.74	1270.91
403.93	1345.81
404.13	1390.28
404.32	1376.24
404.51	1369.21
404.70	1315.38
404.89	1369.21
405.09	1509.65
405.28	1430.07
405.47	1359.85
405.66	1526.03
405.85	1465.18
406.05	1568.16
406.24	1572.84
406.43	1500.28
406.62	1554.12
406.81	1753.06
407.00	1607.95
407.20	1586.88
407.39	1598.59
407.58	1696.89
407.77	1668.80
407.96	1809.23
408.15	1767.10
408.34	1710.93
408.54	1699.23
408.73	1762.42
408.92	1750.72
409.11	1797.53
409.30	1877.11
409.49	1809.23
409.68	1909.88
409.87	1799.87
410.07	1898.17
410.26	1832.64
410.45	1968.39
410.64	1907.54
410.83	1980.09
411.02	1998.82
411.21	2073.71
411.40	1966.05
411.59	2066.69
411.78	2092.44
411.98	2085.42
412.17	2092.44
412.36	2174.36
412.55	2022.22
412.74	2230.53
412.93	2176.70
413.12	2239.89
413.31	2263.30
413.50	2232.87
413.69	2317.13
413.88	2370.96
414.07	2359.26
414.26	2443.52
414.45	2436.50
414.64	2373.30
414.83	2485.65
415.02	2487.99
415.22	2626.08
415.41	2612.04
415.60	2647.15
415.79	2623.74
415.98	2693.96
416.17	2647.15
416.36	2729.06
416.55	2630.76
416.74	2731.41
416.93	2902.26
417.12	2726.72
417.31	2759.49
417.50	2827.37
417.69	2942.05
417.88	2935.03
418.07	2993.55
418.26	2892.90
418.45	2803.96
418.64	3096.53
418.83	3136.32
419.02	3005.25
419.21	3026.31
419.39	3045.04
419.58	3087.17
419.77	3073.12
419.96	3229.94
420.15	3089.51
420.34	3028.65
420.53	3187.81
420.72	3262.71
420.91	3314.20
421.10	3119.93
421.29	3260.37
421.48	3232.28
421.67	3365.69
421.86	3192.49
422.05	3435.91
422.24	3318.88
422.43	3272.07
422.61	3361.01
422.80	3314.20
422.99	3442.93
423.18	3353.99
423.37	3435.91
423.56	3302.50
423.75	3293.13
423.94	3337.60
424.13	3080.14
424.32	3293.13
424.50	3351.65
424.69	3538.89
424.88	3576.34
425.07	3281.43
425.26	3412.50
425.45	3321.22
425.64	3417.18
425.83	3384.41
426.01	3492.08
426.20	3482.72
426.39	3637.19
426.58	3552.93
426.77	3595.06
426.96	3550.59
427.15	3449.95
427.33	3583.36
427.52	3510.80
427.71	3620.81
427.90	3660.60
428.09	3630.17
428.28	3625.49
428.46	3637.19
428.65	3700.39
428.84	3754.22
429.03	3737.84
429.22	3688.68
429.40	3885.29
429.59	3885.29
429.78	3681.66
429.97	3627.83
430.16	3648.90
430.34	3913.38
430.53	3953.16
430.72	3852.52
430.91	3831.46
431.10	3866.56
431.28	4070.19
431.47	4058.49
431.66	4072.53
431.85	3978.91
432.03	4037.42
432.22	4084.23
432.41	4091.26
432.60	4140.41
432.79	3859.54
432.97	4236.37
433.16	4292.54
433.35	4145.09
433.54	4269.14
433.72	4271.48
433.91	4194.24
434.10	4180.20
434.28	4203.60
434.47	4388.50
434.66	4339.35
434.85	4374.46
435.03	4327.65
435.22	4451.70
435.41	4418.93
435.59	4517.23
435.78	4285.52
435.97	4524.26
436.16	4432.97
436.34	4355.74
436.53	4475.10
436.72	4500.85
436.90	4440.00
437.09	4430.63
437.28	4521.92
437.46	4608.51
437.65	4580.43
437.84	4837.89
438.02	4692.77
438.21	4648.30
438.40	4587.45
438.58	4945.55
438.77	4865.97
438.96	4870.65
439.14	4716.18
439.33	4819.16
439.52	4924.49
439.70	4870.65
439.89	5036.83
440.08	5097.69
440.26	5053.22
440.45	5020.45
440.63	5235.78
440.82	5107.05
441.01	5191.31
441.19	5303.65
441.38	5310.68
441.57	5462.81
441.75	5427.70
441.94	5427.70
442.12	5493.24
442.31	5540.05
442.50	5437.06
442.68	5542.39
442.87	5612.60
443.05	5650.05
443.24	5542.39
443.43	5638.35
443.61	5579.84
443.80	5830.27
443.98	5448.77
444.17	5507.28
444.35	5755.38
444.54	5636.01
444.73	5799.85
444.91	5760.06
445.10	5731.97
445.28	5633.67
445.47	5724.95
445.65	5619.63
445.84	5827.93
446.02	5694.52
446.21	5764.74
446.39	5720.27
446.58	5834.96
446.77	5867.72
446.95	5748.36
447.14	5783.46
447.32	5898.15
447.51	5764.74
447.69	5846.66
447.88	5774.10
448.06	5893.47
448.25	5856.02
448.43	5818.57
448.62	5769.42
448.80	5914.53
448.99	5879.43
449.17	5954.32
449.36	5778.78
449.54	6193.06
449.73	6122.84
449.91	6097.10
450.10	6078.37
450.28	6239.87
450.46	6249.23
450.65	6225.82
450.83	6331.15
451.02	6211.78
451.20	6246.89
451.39	6253.91
451.57	6211.78
451.76	6237.53
451.94	6148.59
452.13	6347.53
452.31	6457.54
452.49	6310.08
452.68	6282.00
452.86	6368.60
453.05	6663.51
453.23	6422.43
453.42	6548.82
453.60	6520.73
453.78	6588.61
453.97	6387.32
454.15	6548.82
454.34	6431.79
454.52	6682.23
454.70	6541.80
454.89	6649.46
455.07	6754.79
455.26	6665.85
455.44	6789.89
455.62	6768.83
455.81	6750.10
455.99	6972.46
456.17	6820.32
456.36	6834.36
456.54	7005.22
456.73	6871.81
456.91	7180.76
457.09	7178.42
457.28	7253.32
457.46	6981.82
457.64	7150.34
457.83	7211.19
458.01	7030.97
458.19	7325.88
458.38	6965.43
458.56	7358.64
458.74	7309.49
458.93	7222.89
459.11	7330.56
459.29	7206.51
459.48	7431.20
459.66	7480.35
459.84	7440.56
460.03	7550.57
460.21	7517.80
460.39	7482.69
460.57	7342.26
460.76	7398.43
460.94	7536.52
461.12	7438.22
461.31	7655.89
461.49	7442.90
461.67	7604.40
461.85	7892.29
462.04	7805.69
462.22	8051.44
462.40	7833.77
462.59	7899.31
462.77	7822.07
462.95	7777.60
463.13	7758.88
463.32	7918.03
463.50	7908.67
463.68	7824.41
463.86	7840.79
464.05	8037.40
464.23	7859.52
464.41	8009.31
464.59	7941.44
464.78	7960.16
464.96	8121.66
465.14	7925.05
465.32	8131.02
465.50	8091.23
465.69	8243.37
465.87	8116.98
466.05	8423.59
466.23	8084.21
466.41	8147.40
466.60	8578.06
466.78	8248.05
466.96	8304.22
467.14	8287.84
467.32	8273.79
467.51	8500.83
467.69	8243.37
467.87	8367.42
468.05	8358.05
468.23	8416.57
468.41	8414.23
468.60	8486.78
468.78	8617.85
468.96	8561.68
469.14	8500.83
469.32	8781.69
469.50	8716.16
469.69	8793.39
469.87	9167.88
470.05	8994.68
470.23	8755.94
470.41	8863.61
470.59	9043.83
470.77	8814.46
470.95	8938.51
471.14	9118.73
471.32	8840.20
471.50	9144.47
471.68	9109.36
471.86	9060.21
472.04	9446.40
472.22	9373.85
472.40	9334.06
472.58	9341.08
472.77	9266.18
472.95	9430.02
473.13	9741.31
473.31	9474.49
473.49	9434.70
473.67	9738.97
473.85	9554.07
474.03	9825.57
474.21	9755.35
474.39	9818.55
474.57	9966.00
474.75	9984.73
474.93	10279.63
475.12	9877.06
475.30	10186.01
475.48	10022.17
475.66	10099.41
475.84	10202.40
476.02	10462.19
476.20	10499.64
476.38	10471.56
476.56	10616.67
476.74	10785.19
476.92	10672.84
477.10	10523.05
477.28	10946.69
477.46	10913.92
477.64	10951.37
477.82	11316.49
478.00	11412.45
478.18	11360.96
478.36	11665.23
478.54	11433.52
478.72	11655.87
478.90	11442.88
479.08	11840.77
479.26	11999.93
479.44	11943.75
479.62	11960.14
479.80	11915.67
479.98	12023.33
480.16	12486.76
480.34	12264.41
480.52	12603.78
480.70	12575.70
480.88	12276.11
481.06	12594.42
481.24	12571.02
481.41	12711.45
481.59	12840.18
481.77	12769.96
481.95	13291.90
482.13	13427.65
482.31	13046.15
482.49	13291.90
482.67	13507.23
482.85	13769.37
483.03	13996.40
483.21	13752.99
483.39	14139.18
483.57	13872.36
483.74	13823.20
483.92	14494.94
484.10	14352.16
484.28	14565.15
484.46	14597.92
484.64	14974.75
484.82	14478.55
485.00	14654.09
485.18	14970.07
485.35	15222.84
485.53	15459.24
485.71	15173.69
485.89	15791.59
486.07	15822.02
486.25	15384.34
486.43	15850.11
486.61	15927.35
486.78	16168.42
486.96	16250.34
487.14	16259.70
487.32	16397.79
487.50	16678.66
487.68	16503.12
487.85	16769.94
488.03	16978.25
488.21	17205.28
488.39	17441.67
488.57	17509.55
488.75	17312.94
488.92	17649.98
489.10	17785.73
489.28	17905.10
489.46	18136.81
489.64	18052.55
489.81	18441.08
489.99	18728.97
490.17	18204.69
490.35	18735.99
490.53	18483.21
490.70	18820.25
490.88	18778.12
491.06	19077.71
491.24	19211.12
491.41	19063.66
491.59	19587.94
491.77	19520.07
491.95	20072.43
492.13	19903.92
492.30	20098.18
492.48	19564.54
492.66	20135.63
492.84	20154.35
493.01	20566.29
493.19	20617.78
493.37	20554.58
493.54	20805.02
493.72	20552.24
493.90	20798.00
494.08	20961.84
494.25	21294.19
494.43	21415.90
494.61	21703.79
494.79	21799.75
494.96	21502.50
495.14	21277.81
495.32	21872.31
495.49	22239.77
495.67	22525.32
495.85	22508.93
496.02	22441.06
496.20	22443.40
496.38	22518.29
496.55	22593.19
496.73	23166.62
496.91	23119.81
497.09	23190.03
497.26	23227.48
497.44	23192.37
497.62	23225.14
497.79	23667.50
497.97	23700.26
498.14	24128.58
498.32	24168.37
498.50	23894.53
498.67	24259.65
498.85	24652.86
499.03	24460.94
499.20	24552.22
499.38	24381.36
499.56	24690.31
499.73	24622.44
499.91	24627.12
500.08	24905.64
500.26	24727.76
500.44	24996.92
500.61	25238.00
500.79	25256.72
500.97	25406.52
501.14	25621.84
501.32	25500.14
501.49	25851.22
501.67	25752.91
501.84	25809.09
502.02	25647.59
502.20	26256.13
502.37	26244.43
502.55	26485.50
502.72	26319.32
502.90	26293.58
503.07	26256.13
503.25	26216.34
503.43	26464.44
503.60	26757.00
503.78	26831.90
503.95	26808.50
504.13	26796.79
504.30	26801.47
504.48	27091.70
504.65	27307.03
504.83	27505.98
505.01	27623.00
505.18	27728.33
505.36	27641.73
505.53	27442.78
505.71	27969.40
505.88	27655.77
506.06	27541.08
506.23	28100.47
506.41	27835.99
506.58	27960.04
506.76	28364.95
506.93	28290.06
507.11	28121.54
507.28	28421.13
507.46	28128.56
507.63	28849.44
507.81	28613.05
507.98	28971.15
508.16	29015.62
508.33	28685.61
508.50	29163.08
508.68	29256.70
508.85	29516.50
509.03	29151.37
509.20	29570.33
509.38	29598.41
509.55	29820.77
509.73	29600.76
509.90	30040.78
510.08	30160.14
510.25	30010.35
510.42	30066.52
510.60	30595.48
510.77	30700.81
510.95	30368.45
511.12	30155.46
511.30	30342.70
511.47	30682.08
511.64	30761.66
511.82	30588.46
511.99	30466.75
512.17	30618.89
512.34	31051.89
512.51	31049.55
512.69	31201.68
512.86	31098.70
513.04	31459.14
513.21	31307.01
513.38	31510.63
513.56	31644.04
513.73	31421.69
513.90	31791.50
514.08	31854.69
514.25	31470.84
514.43	32109.81
514.60	31896.82
514.77	31728.30
514.95	32280.67
515.12	31611.28
515.29	32283.01
515.47	32444.51
515.64	32685.58
515.81	32327.48
515.99	32580.26
516.16	32706.65
516.33	32748.78
516.51	33102.20
516.68	32512.38
516.85	33043.68
517.03	33170.07
517.20	33333.91
517.37	33013.26
517.54	33029.64
517.72	32847.08
517.89	32999.21
518.06	32865.80
518.24	33486.04
518.41	33099.86
518.58	33406.47
518.75	33460.30
518.93	33371.36
519.10	33736.48
519.27	34132.03
519.45	33823.08
519.62	34106.29
519.79	33797.34
519.96	34010.32
520.14	34050.11
520.31	34026.71
520.48	34574.39
520.65	34246.72
520.83	34848.24
521.00	34572.05
521.17	34525.24
521.34	34965.26
521.52	34609.50
521.69	34508.86
521.86	34663.33
522.03	35058.88
522.20	34761.64
522.38	35218.04
522.55	34909.09
522.72	35079.95
522.89	35416.99
523.07	35573.80
523.24	35578.48
523.41	35667.42
523.58	35445.07
523.75	35524.65
523.92	35311.66
524.10	35620.61
524.27	35945.95
524.44	35709.55
524.61	36554.49
524.78	36074.68
524.96	36233.83
525.13	35840.62
525.30	36048.93
525.47	36947.70
525.64	36617.68
525.81	36678.54
525.98	36774.50
526.16	36271.28
526.33	36549.81
526.50	36772.16
526.67	36425.76
526.84	36381.29
527.01	36341.50
527.18	36954.72
527.36	36872.80
527.53	37076.43
527.70	37116.22
527.87	37338.57
528.04	37078.77
528.21	37457.93
528.38	37118.56
528.55	37111.53
528.72	37453.25
528.89	37628.79
529.07	37619.43
529.24	37153.66
529.41	37635.81
529.58	37551.56
529.75	37345.59
529.92	37970.51
530.09	37563.26
530.26	37951.79
530.43	37841.78
530.60	37755.18
530.77	38164.78
530.94	37563.26
531.11	38270.10
531.28	38223.29
531.46	38024.34
531.63	38298.19
531.80	38597.77
531.97	38752.25
532.14	38581.39
532.31	38569.69
532.48	38368.40
532.65	38611.82
532.82	38424.57
532.99	38487.77
533.16	38553.30
533.33	39257.81
533.50	38710.12
533.67	39065.88
533.84	38340.32
534.01	39119.71
534.18	38796.72
534.35	39210.99
534.52	38983.96
534.69	39700.17
534.86	39882.73
535.03	39098.65
535.20	39431.01
535.37	39442.71
535.54	39555.05
535.71	39498.88
535.88	39669.74
536.05	39192.27
536.22	39716.55
536.38	39777.40
536.55	39887.41
536.72	39880.39
536.89	39576.12
537.06	40058.27
537.23	39784.43
537.40	39576.12
537.57	39964.65
537.74	39807.83
537.91	40444.46
538.08	40261.90
538.25	40416.37
538.42	40046.57
538.59	40669.15
538.75	39943.58
538.92	40573.19
539.09	40531.06
539.26	40231.47
539.43	40910.22
539.60	40584.89
539.77	40924.27
539.94	41022.57
540.11	40519.35
540.28	40383.60
540.44	40582.55
540.61	40584.89
540.78	40680.85
540.95	41174.70
541.12	40713.62
541.29	40872.78
541.46	40325.09
541.62	40402.33
541.79	40886.82
541.96	40664.47
542.13	41422.80
542.30	41368.97
542.47	41237.90
542.63	41113.85
542.80	41432.16
542.97	41469.61
543.14	41603.02
543.31	41588.98
543.48	41469.61
543.64	41659.20
543.81	41867.50
543.98	41909.63
544.15	42286.46
544.32	42061.77
544.48	41617.07
544.65	42115.60
544.82	41673.24
544.99	41942.40
545.16	42181.13
545.32	42349.65
545.49	42522.85
545.66	42476.04
545.83	42347.31
546.00	42438.59
546.16	42366.04
546.33	42124.96
546.50	41801.97
546.67	42492.43
546.83	42249.01
547.00	42195.18
547.17	42611.79
547.34	42490.09
547.50	42724.14
547.67	42398.80
547.84	42766.27
548.00	42745.20
548.17	42408.17
548.34	42572.00
548.51	42543.92
548.67	42824.78
548.84	43098.62
549.01	43047.13
549.18	43124.37
549.34	42749.88
549.51	43007.34
549.68	42955.85
549.84	42930.11
550.01	43409.92
550.18	42892.66
550.34	42775.63
550.51	43246.08
550.68	43009.68
550.84	42607.11
551.01	42965.21
551.18	42862.23
551.34	43000.32
551.51	43330.34
551.68	43627.59
551.84	43356.08
552.01	43533.96
552.18	43468.43
552.34	43461.41
552.51	43723.55
552.68	43210.97
552.84	43456.73
553.01	43428.64
553.18	43751.63
553.34	43636.95
553.51	43292.89
553.67	43613.54
553.84	44191.65
554.01	43957.60
554.17	43882.70
554.34	43718.87
554.51	43910.79
554.67	43819.51
554.84	43927.17
555.00	44091.01
555.17	43660.35
555.33	44109.74
555.50	44224.42
555.67	43784.40
555.83	44023.14
556.00	44465.50
556.16	44168.25
556.33	43929.51
556.50	43924.83
556.66	44114.42
556.83	43938.88
556.99	44322.72
557.16	44465.50
557.32	43945.90
557.49	44383.58
557.65	44032.50
557.82	44076.97
557.98	44051.22
558.15	44289.96
558.32	44362.51
558.48	44629.34
558.65	44304.00
558.81	44364.85
558.98	44421.03
559.14	44371.88
559.31	44421.03
559.47	44559.12
559.64	44231.44
559.80	44715.93
559.97	44994.46
560.13	44231.44
560.30	44746.36
560.46	44762.75
560.63	45120.85
560.79	44978.07
560.96	44636.36
561.12	44790.83
561.29	44837.64
561.45	44570.82
561.61	45111.49
561.78	44896.16
561.94	44657.42
562.11	45186.38
562.27	44430.39
562.44	44942.97
562.60	44612.95
562.77	44992.12
562.93	44762.75
563.10	45144.25
563.26	44741.68
563.42	45474.27
563.59	45174.68
563.75	44863.39
563.92	44809.56
564.08	44837.64
564.24	45024.89
564.41	44968.71
564.57	44589.55
564.74	44783.81
564.90	45659.17
565.07	45186.38
565.23	45067.02
565.39	44704.23
565.56	45160.64
565.72	45050.63
565.88	44603.59
566.05	44978.07
566.21	44952.33
566.38	45013.18
566.54	44722.96
566.70	45247.24
566.87	45485.97
567.03	45041.27
567.19	45429.80
567.36	45277.66
567.52	44921.90
567.68	45013.18
567.85	45003.82
568.01	45132.55
568.17	45436.82
568.34	45048.29
568.50	45792.58
568.66	45406.39
568.83	45537.46
568.99	45200.43
569.15	45392.35
569.32	44935.95
569.48	45052.97
569.64	45397.03
569.81	45120.85
569.97	45619.38
570.13	45673.21
570.30	45287.03
570.46	45558.53
570.62	45333.84
570.78	45052.97
570.95	44985.10
571.11	45485.97
571.27	44769.77
571.43	45050.63
571.60	45705.98
571.76	45116.17
571.92	45453.20
572.09	45132.55
572.25	45296.39
572.41	44989.78
572.57	45331.50
572.74	45298.73
572.90	45720.02
573.06	45425.12
573.22	45736.41
573.38	45329.16
573.55	45392.35
573.71	45607.68
573.87	45549.17
574.03	45591.30
574.20	45392.35
574.36	45425.12
574.52	45593.64
574.68	45305.75
574.84	45516.40
575.01	45530.44
575.17	45617.04
575.33	45647.47
575.49	45354.90
575.65	45750.45
575.82	45890.88
575.98	45551.51
576.14	45619.38
576.30	45614.70
576.46	45067.02
576.62	45471.93
576.79	45518.74
576.95	45474.27
577.11	45560.87
577.27	45813.65
577.43	45666.19
577.59	45652.15
577.75	45200.43
577.92	45074.04
578.08	45158.30
578.24	45242.56
578.40	45411.07
578.56	45572.57
578.72	45595.98
578.88	45844.07
579.04	45502.35
579.21	45626.40
579.37	45441.50
579.53	45935.35
579.69	44701.89
579.85	45792.58
580.01	45607.68
580.17	45162.98
580.33	45392.35
580.49	45710.66
580.65	45633.42
580.82	45808.96
580.98	45666.19
581.14	45282.34
581.30	45872.16
581.46	45193.40
581.62	45485.97
581.78	45275.32
581.94	45603.00
582.10	45478.95
582.26	45535.12
582.42	45841.73
582.58	45778.54
582.74	45638.11
582.90	45855.78
583.06	45652.15
583.22	45265.96
583.38	45745.77
583.54	45488.31
583.70	45413.41
583.86	45542.14
584.02	45801.94
584.18	45294.05
584.34	45567.89
584.50	46059.40
584.66	45366.60
584.82	45750.45
584.98	45441.50
585.14	45713.00
585.30	45717.68
585.46	46071.10
585.62	45408.73
585.78	45717.68
585.94	45628.74
586.10	45830.03
586.26	45757.47
586.42	45659.17
586.58	45776.20
586.74	45467.25
586.90	45319.79
587.06	45453.20
587.22	45439.16
587.38	45336.18
587.54	45722.37
587.70	45989.19
587.86	45577.25
588.02	45446.18
588.18	45797.26
588.34	46078.13
588.49	45542.14
588.65	45579.59
588.81	45883.86
588.97	45764.49
589.13	46005.57
589.29	45600.66
589.45	46099.19
589.61	45989.19
589.77	45553.85
589.93	45773.86
590.08	46141.32
590.24	45888.54
590.40	46199.83
590.56	45928.33
590.72	45862.80
590.88	46036.00
591.04	45853.44
591.20	46241.96
591.35	45998.55
591.51	46260.69
591.67	46181.11
591.83	46286.43
591.99	46038.34
592.15	46080.47
592.31	45792.58
592.46	45837.05
592.62	45401.71
592.78	45539.80
592.94	45958.76
593.10	45923.65
593.26	45914.29
593.41	46131.96
593.57	45804.28
593.73	45970.46
593.89	46361.33
594.05	45928.33
594.20	45549.17
594.36	45865.14
594.52	45783.22
594.68	45497.67
594.84	45748.11
594.99	46319.20
595.15	45979.82
595.31	46405.80
595.47	46061.74
595.62	45874.50
595.78	46061.74
595.94	46319.20
596.10	45977.48
596.25	45572.57
596.41	45698.96
596.57	45759.81
596.73	46052.38
596.88	46061.74
597.04	46110.89
597.20	46085.15
597.36	46028.98
597.51	46153.02
597.67	46005.57
597.83	45687.26
597.99	46157.70
598.14	46141.32
598.30	45755.13
598.46	45916.63
598.61	45874.50
598.77	45593.64
598.93	45954.08
599.09	46206.86
599.24	46256.01
599.40	45708.32
599.56	46206.86
599.71	45897.91
599.87	45698.96
600.03	45750.45
600.18	45958.76
600.34	45764.49
600.50	46169.41
600.65	45640.45
600.81	45935.35
600.97	45907.27
601.12	46319.20
601.28	46366.01
601.44	46181.11
601.59	45696.62
601.75	46057.06
601.91	46508.79
602.06	45766.84
602.22	45799.60
602.37	45778.54
602.53	45998.55
602.69	46047.70
602.84	45841.73
603.00	46054.72
603.16	46113.23
603.31	45965.78
603.47	45617.04
603.62	45462.57
603.78	45844.07
603.94	45621.72
604.09	45755.13
604.25	45670.87
604.40	45731.73
604.56	45460.23
604.71	45949.40
604.87	45916.63
605.03	46021.95
605.18	45682.58
605.34	45736.41
605.49	45102.12
605.65	45682.58
605.80	45481.29
605.96	45923.65
606.12	45921.31
606.27	45790.24
606.43	45577.25
606.58	45820.67
606.74	45626.40
606.89	45858.12
607.05	45886.20
607.20	45689.60
607.36	45237.87
607.51	45483.63
607.67	45216.81
607.82	45347.88
607.98	45649.81
608.13	45680.24
608.29	45460.23
608.44	45879.18
608.60	45380.65
608.75	45502.35
608.91	45530.44
609.06	45205.11
609.22	45640.45
609.37	44931.26
609.53	45228.51
609.68	45027.23
609.84	45392.35
609.99	45481.29
610.15	45277.66
610.30	45045.95
610.46	45214.47
610.61	45333.84
610.76	45382.99
610.92	45336.18
611.07	45411.07
611.23	44854.03
611.38	44811.90
611.54	44952.33
611.69	44842.32
611.84	44959.35
612.00	45139.57
612.15	44573.16
612.31	45354.90
612.46	45055.31
612.62	45485.97
612.77	44837.64
612.92	45305.75
613.08	45074.04
613.23	44947.65
613.39	45137.23
613.54	44989.78
613.69	44954.67
613.85	44900.84
614.00	44896.16
614.15	44945.31
614.31	44856.37
614.46	45427.46
614.62	45118.51
614.77	44884.45
614.92	44865.73
615.08	44488.90
615.23	44495.92
615.38	44935.95
615.54	44210.38
615.69	44332.09
615.84	44280.60
616.00	44219.74
616.15	44357.83
616.30	44383.58
616.46	44364.85
616.61	44762.75
616.76	44935.95
616.92	44428.05
617.07	44428.05
617.22	44245.49
617.37	44332.09
617.53	44203.36
617.68	44210.38
617.83	44481.88
617.99	44657.42
618.14	44268.89
618.29	44416.35
618.45	44055.90
618.60	44296.98
618.75	44322.72
618.90	44086.33
619.06	43992.71
619.21	44329.75
619.36	43899.09
619.51	43494.18
619.67	43620.56
619.82	44039.52
619.97	43461.41
620.12	44058.24
620.28	43789.08
620.43	43793.76
620.58	44196.34
620.73	43711.84
620.89	43842.92
621.04	43889.73
621.19	44051.22
621.34	43761.00
621.49	43337.36
621.65	43433.32
621.80	43835.89
621.95	43683.76
622.10	43871.00
622.25	43650.99
622.41	43704.82
622.56	43590.14
622.71	43803.13
622.86	43548.01
623.01	43826.53
623.16	43863.98
623.32	43012.02
623.47	43267.14
623.62	43159.48
623.77	43484.81
623.92	43227.35
624.07	43323.32
624.23	43103.31
624.38	43274.16
624.53	43009.68
624.68	43058.84
624.83	43536.30
624.98	43599.50
625.13	43342.04
625.29	43047.13
625.44	42906.70
625.59	43164.16
625.74	42693.71
625.89	42621.16
626.04	42815.42
626.19	42780.31
626.34	43351.40
626.49	42866.91
626.65	42581.37
626.80	43304.59
626.95	42703.07
627.10	42749.88
627.25	42880.95
627.40	42684.35
627.55	42925.42
627.70	42667.97
627.85	42230.29
628.00	42588.39
628.15	42731.16
628.30	41958.78
628.45	42665.63
628.60	42007.94
628.76	42698.39
628.91	42555.62
629.06	42927.77
629.21	42380.08
629.36	42110.92
629.51	42218.58
629.66	42108.58
629.81	41897.93
629.96	42033.68
630.11	42047.72
630.26	41902.61
630.41	42122.62
630.56	41996.23
630.71	42600.09
630.86	41947.08
631.01	42417.53
631.16	42328.59
631.31	42244.33
631.46	41432.16
631.61	41918.99
631.76	41961.12
631.91	41752.82
632.06	41483.66
632.21	41528.13
632.36	41544.51
632.51	41322.16
632.66	41874.52
632.81	41308.11
632.96	41614.72
633.10	41235.56
633.25	41366.63
633.40	41890.91
633.55	41563.23
633.70	40987.46
633.85	41511.74
634.00	41174.70
634.15	41453.23
634.30	41411.10
634.45	41137.26
634.60	41282.37
634.75	41467.27
634.90	41265.99
635.05	40968.74
635.19	41230.88
635.34	41500.04
635.49	41556.21
635.64	41193.43
635.79	40985.12
635.94	40938.31
636.09	40999.16
636.24	40896.18
636.39	40996.82
636.53	40774.47
636.68	41214.49
636.83	40973.42
636.98	41265.99
637.13	41006.19
637.28	40830.65
637.43	40725.32
637.57	41289.39
637.72	41022.57
637.87	40666.81
638.02	41205.13
638.17	40598.93
638.32	40715.96
638.46	40201.04
638.61	40421.05
638.76	40280.62
638.91	40631.70
639.06	40870.43
639.20	40737.02
639.35	40605.95
639.50	40538.08
639.65	40664.47
639.80	40889.16
639.94	40446.80
640.09	40552.12
640.24	40198.70
640.39	40250.19
640.54	39856.98
640.68	39964.65
640.83	39938.90
640.98	39917.84
641.13	39924.86
641.27	40301.68
641.42	39978.69
641.57	40341.47
641.72	40144.87
641.86	39732.93
642.01	40048.91
642.16	39763.36
642.31	39426.32
642.45	40135.51
642.60	39608.89
642.75	39543.35
642.90	39765.70
643.04	39901.45
643.19	40072.31
643.34	39826.56
643.48	40041.88
643.63	39428.66
643.78	39924.86
643.93	39901.45
644.07	39864.00
644.22	39763.36
644.37	39313.98
644.51	39634.63
644.66	39442.71
644.81	39337.38
644.95	39559.73
645.10	39693.15
645.25	39533.99
645.39	39440.37
645.54	39400.58
645.69	39435.69
645.83	39625.27
645.98	39377.17
646.13	39571.44
646.27	39552.71
646.42	39166.52
646.57	39033.11
646.71	39503.56
646.86	39288.23
647.00	38986.30
647.15	39108.01
647.30	39250.78
647.44	38799.06
647.59	39164.18
647.74	39065.88
647.88	39122.05
648.03	39140.78
648.17	39082.27
648.32	38862.26
648.47	39030.77
648.61	39236.74
648.76	39201.63
648.90	38593.09
649.05	38855.23
649.20	38609.48
649.34	38679.69
649.49	38337.98
649.63	38490.11
649.78	38939.49
649.92	38597.77
650.07	38782.68
650.21	38834.17
650.36	38934.81
650.51	38717.14
650.65	38740.55
650.80	39103.33
650.94	39178.23
651.09	38300.53
651.23	38302.87
651.38	38298.19
651.52	38284.14
651.67	38146.05
651.81	38150.73
651.96	37895.61
652.10	38366.06
652.25	38433.94
652.39	38483.09
652.54	38581.39
652.68	38274.78
652.83	38384.79
652.97	38899.70
653.12	38810.76
653.26	38057.11
653.41	37813.70
653.55	37703.69
653.70	37858.17
653.84	37914.34
653.99	37890.93
654.13	38270.10
654.27	37965.83
654.42	37834.76
654.56	38003.28
654.71	37935.40
654.85	37684.97
655.00	37958.81
655.14	38103.92
655.29	37823.06
655.43	37748.16
655.57	37301.12
655.72	37509.43
655.86	37373.67
656.01	37661.56
656.15	37546.87
656.30	37282.39
656.44	37497.72
656.58	37495.38
656.73	37537.51
656.87	37556.24
657.01	37378.36
657.16	37867.53
657.30	37542.19
657.45	37876.89
657.59	37275.37
657.73	36966.42
657.88	36896.20
658.02	36809.61
658.16	37486.02
658.31	37270.69
658.45	37532.83
658.60	37013.23
658.74	37036.64
658.88	37118.56
659.03	37177.07
659.17	37315.16
659.31	36884.50
659.46	36748.75
659.60	36521.72
659.74	36980.46
659.89	36603.64
660.03	36704.28
660.17	37090.47
660.32	36631.72
660.46	36748.75
660.60	36589.59
660.74	36308.73
660.89	36446.82
661.03	36456.18
661.17	36165.96
661.32	36046.59
661.46	36620.02
661.60	36212.77
661.74	36666.83
661.89	36304.05
662.03	36051.27
662.17	35842.96
662.31	35517.63
662.46	36201.07
662.60	35702.53
662.74	35676.79
662.88	35725.94
663.03	35477.84
663.17	35262.51
663.31	35262.51
663.45	35723.60
663.60	35791.47
663.74	35498.91
663.88	35819.56
664.02	35482.52
664.17	35805.52
664.31	35236.77
664.45	35143.14
664.59	35311.66
664.73	34979.31
664.88	35056.54
665.02	34864.62
665.16	34927.81
665.30	34859.94
665.44	35042.50
665.59	34618.86
665.73	34464.39
665.87	34796.74
666.01	35154.85
666.15	35021.44
666.29	35091.65
666.44	34904.41
666.58	34607.16
666.72	34794.40
666.86	34401.19
667.00	34759.30
667.14	34646.95
667.28	34230.33
667.43	34443.32
667.57	34562.69
667.71	34534.60
667.85	34328.64
667.99	33684.99
668.13	33748.18
668.27	34188.21
668.41	34120.33
668.56	33998.62
668.70	34155.44
668.84	33942.45
668.98	33996.28
669.12	33479.02
669.26	33902.66
669.40	33572.64
669.54	33865.21
669.68	33582.01
669.82	33275.40
669.96	33582.01
670.10	33022.62
670.25	33582.01
670.39	33699.03
670.53	32481.95
670.67	32914.95
670.81	33209.86
670.95	33230.93
671.09	32924.32
671.23	32961.76
671.37	32985.17
671.51	33134.96
671.65	32875.16
671.79	32809.63
671.93	32250.24
672.07	32814.31
672.21	32444.51
672.35	32130.87
672.49	31920.23
672.63	32149.60
672.77	32151.94
672.91	32439.82
673.05	32503.02
673.19	32343.86
673.33	32582.60
673.47	32016.19
673.61	31803.20
673.75	32158.96
673.89	32105.13
674.03	31683.83
674.17	31728.30
674.31	31344.45
674.45	31297.64
674.59	31262.54
674.73	31517.65
674.87	31262.54
675.01	30705.49
675.15	31470.84
675.29	30986.35
675.43	31131.47
675.56	31136.15
675.70	31152.53
675.84	30948.90
675.98	30066.52
676.12	30897.41
676.26	30754.64
676.40	30483.14
676.54	30225.68
676.68	30122.69
676.82	29956.52
676.96	30150.78
677.10	29944.81
677.23	29762.25
677.37	29773.95
677.51	29521.18
677.65	29607.78
677.79	29357.34
677.93	29448.62
678.07	29486.07
678.21	29113.92
678.34	29607.78
678.48	29209.89
678.62	29649.91
678.76	29228.61
678.90	29207.55
679.04	28849.44
679.18	28945.41
679.31	28769.86
679.45	28285.37
679.59	28793.27
679.73	28327.50
679.87	28196.43
680.00	28261.97
680.14	28247.93
680.28	28285.37
680.42	28119.20
680.56	28156.64
680.70	27931.95
680.83	27620.66
680.97	27821.95
681.11	27990.47
681.25	27587.89
681.39	27709.60
681.52	27328.10
681.66	27161.92
681.80	27037.87
681.94	27058.93
682.07	27182.98
682.21	26710.19
682.35	26960.63
682.49	26593.17
682.62	26735.94
682.76	26836.58
682.90	26253.79
683.04	26923.18
683.17	26314.64
683.31	26635.30
683.45	26118.04
683.59	26436.35
683.72	26518.27
683.86	26019.74
684.00	25652.27
684.13	25727.17
684.27	25647.59
684.41	25486.09
684.55	25626.53
684.68	25434.60
684.82	25008.62
684.96	25284.81
685.09	25137.35
685.23	25050.75
685.37	25165.44
685.50	25345.66
685.64	25177.14
685.78	24517.11
685.91	25294.17
686.05	24922.02
686.19	24699.67
686.32	24788.61
686.46	24271.36
686.60	24240.93
686.73	24130.92
686.87	23903.89
687.01	23953.04
687.14	23864.10
687.28	23461.53
687.42	23850.06
687.55	23718.99
687.69	23838.36
687.82	23082.36
687.96	23513.02
688.10	23592.60
688.23	23573.88
688.37	23506.00
688.50	23510.68
688.64	23398.34
688.78	23367.91
688.91	23101.09
689.05	23290.67
689.18	22834.27
689.32	22532.34
689.46	22731.28
689.59	22768.73
689.73	22649.36
689.86	22401.27
690.00	22122.74
690.13	22621.28
690.27	22263.18
690.41	22288.92
690.54	22040.82
690.68	22125.08
690.81	22036.14
690.95	21874.65
691.08	21947.20
691.22	21474.42
691.35	21570.38
691.49	21565.70
691.62	21331.64
691.76	21378.45
691.89	20987.58
692.03	20577.99
692.16	21205.25
692.30	20961.84
692.43	20912.69
692.57	21064.82
692.70	20556.93
692.84	20531.18
692.97	20613.10
693.11	20697.36
693.24	20432.88
693.38	20350.96
693.51	20325.21
693.65	20463.30
693.78	20091.16
693.92	20004.56
694.05	20161.37
694.19	19866.47
694.32	19983.49
694.45	19686.25
694.59	19594.96
694.72	19424.11
694.86	19438.15
694.99	19304.74
695.13	19555.18
695.26	19510.71
695.39	19246.23
695.53	19253.25
695.66	19372.61
695.80	19206.44
695.93	19084.73
696.07	18937.27
696.20	18635.35
696.33	18665.77
696.47	18743.01
696.60	18602.58
696.73	18286.61
696.87	18452.78
697.00	18129.79
697.14	18066.60
697.27	17919.14
697.40	17869.99
697.54	17383.16
697.67	17900.42
697.80	17841.90
697.94	17619.55
698.07	17862.97
698.21	17633.60
698.34	17867.65
698.47	17783.39
698.61	17366.78
698.74	17511.89
698.87	17238.05
699.01	17404.22
699.14	17317.62
699.27	17558.70
699.40	17022.72
699.54	16772.28
699.67	16659.93
699.80	16699.72
699.94	16650.57
700.07	16673.98
700.20	16252.68
700.34	16173.10
700.47	16088.84
700.60	16294.81
700.73	16388.43
700.87	16362.69
701.00	16205.87
701.13	16116.93
701.26	16201.19
701.40	16226.93
701.53	15852.45
701.66	15822.02
701.79	15658.18
701.93	15688.61
702.06	15627.76
702.19	15522.43
702.32	15318.81
702.46	15400.72
702.59	15283.70
702.72	15220.50
702.85	14831.97
702.99	14951.34
703.12	14923.26
703.25	15084.75
703.38	15105.82
703.51	15080.07
703.65	14820.27
703.78	14609.62
703.91	14920.92
704.04	14860.06
704.17	14726.65
704.31	14834.32
704.44	14541.75
704.57	14387.27
704.70	14298.33
704.83	13961.30
704.96	14150.88
705.10	14015.13
705.23	13909.80
>>>>>End Processed Spectral Data<<<<<
