SpectraSuite Data File
++++++++++++++++++++++++++++++++++++
Date: Fri Oct 04 11:48:31 GMT-05:00 2013
User: price-jones
Dark Spectrum Present: No
Reference Spectrum Present: No
Number of Sampled Component Spectra: 1
Spectrometers: USB2+H05261
Integration Time (usec): 100000 (USB2+H05261)
Spectra Averaged: 1 (USB2+H05261)
Boxcar Smoothing: 0 (USB2+H05261)
Correct for Electrical Dark: No (USB2+H05261)
Strobe/Lamp Enabled: No (USB2+H05261)
Correct for Detector Non-linearity: No (USB2+H05261)
Correct for Stray Light: No (USB2+H05261)
Number of Pixels in Processed Spectrum: 2048
>>>>>Begin Processed Spectral Data<<<<<
365.73	0.00
365.92	0.00
366.12	0.00
366.32	0.00
366.52	0.00
366.72	0.00
366.91	0.00
367.11	0.00
367.31	0.00
367.51	0.00
367.70	0.00
367.90	0.00
368.10	0.00
368.30	4.68
368.49	0.00
368.69	0.00
368.89	0.00
369.09	0.00
369.28	0.00
369.48	0.00
369.68	0.00
369.87	0.00
370.07	0.00
370.27	16.38
370.47	98.30
370.66	395.55
370.86	482.15
371.06	458.74
371.25	566.41
371.45	435.34
371.65	421.30
371.84	440.02
372.04	524.28
372.24	550.03
372.44	517.26
372.63	507.90
372.83	524.28
373.03	550.03
373.22	585.13
373.42	566.41
373.62	547.69
373.81	601.52
374.01	596.84
374.21	603.86
374.40	587.47
374.60	610.88
374.79	554.71
374.99	678.76
375.19	697.48
375.38	643.65
375.58	547.69
375.78	730.25
375.97	727.91
376.17	734.93
376.37	662.37
376.56	683.44
376.76	671.73
376.95	711.52
377.15	704.50
377.35	732.59
377.54	753.65
377.74	664.71
377.93	709.18
378.13	702.16
378.33	770.04
378.52	725.57
378.72	699.82
378.91	711.52
379.11	690.46
379.31	805.14
379.50	755.99
379.70	819.19
379.89	777.06
380.09	730.25
380.28	889.40
380.48	854.30
380.68	791.10
380.87	786.42
381.07	732.59
381.26	816.85
381.46	774.72
381.65	823.87
381.85	968.98
382.04	823.87
382.24	882.38
382.43	863.66
382.63	833.23
382.83	842.59
383.02	1025.15
383.22	945.58
383.41	945.58
383.61	858.98
383.80	868.34
384.00	961.96
384.19	940.90
384.39	866.00
384.58	905.79
384.78	966.64
384.97	1013.45
385.17	919.83
385.36	1027.50
385.56	952.60
385.75	1018.13
385.95	1032.18
386.14	1018.13
386.34	985.37
386.53	985.37
386.72	905.79
386.92	1097.71
387.11	1020.47
387.31	1020.47
387.50	1067.28
387.70	1034.52
387.89	1125.80
388.09	1121.12
388.28	1029.84
388.48	1095.37
388.67	1083.67
388.86	1067.28
389.06	1109.41
389.25	1181.97
389.45	1181.97
389.64	1071.97
389.84	1198.35
390.03	1188.99
390.22	1252.19
390.42	1219.42
390.61	1203.04
390.81	1240.48
391.00	1200.69
391.19	1231.12
391.39	1214.74
391.58	1254.53
391.78	1245.16
391.97	1469.86
392.16	1196.01
392.36	1259.21
392.55	1224.10
392.75	1306.02
392.94	1308.36
393.13	1341.13
393.33	1348.15
393.52	1334.11
393.71	1483.90
393.91	1460.49
394.10	1387.94
394.29	1371.55
394.49	1357.51
394.68	1352.83
394.88	1397.30
395.07	1488.58
395.26	1427.73
395.46	1486.24
395.65	1535.39
395.84	1526.03
396.04	1605.61
396.23	1521.35
396.42	1575.18
396.62	1572.84
396.81	1544.75
397.00	1474.54
397.19	1589.22
397.39	1633.69
397.58	1680.50
397.77	1561.14
397.97	1640.72
398.16	1666.46
398.35	1685.19
398.55	1732.00
398.74	1748.38
398.93	1774.13
399.12	1839.66
399.32	1666.46
399.51	1612.63
399.70	1755.40
399.90	1830.30
400.09	1799.87
400.28	1839.66
400.47	1820.94
400.67	1863.07
400.86	1872.43
401.05	1879.45
401.24	1956.69
401.44	1963.71
401.63	1895.83
401.82	1923.92
402.01	1998.82
402.21	2026.90
402.40	1919.24
402.59	1909.88
402.78	2019.88
402.97	2033.93
403.17	2122.87
403.36	2104.14
403.55	2080.74
403.74	2031.58
403.93	2200.10
404.13	2127.55
404.32	2228.19
404.51	2183.72
404.70	2319.47
404.89	2165.00
405.09	2237.55
405.28	2300.75
405.47	2289.04
405.66	2427.14
405.85	2326.49
406.05	2282.02
406.24	2275.00
406.43	2349.90
406.62	2417.77
406.81	2480.97
407.00	2382.67
407.20	2485.65
407.39	2406.07
407.58	2401.39
407.77	2459.90
407.96	2473.95
408.15	2729.06
408.34	2480.97
408.54	2633.10
408.73	2588.63
408.92	2614.38
409.11	2471.61
409.30	2642.46
409.49	2672.89
409.68	2719.70
409.87	2658.85
410.07	2869.50
410.26	2846.09
410.45	2782.90
410.64	2775.88
410.83	2960.78
411.02	2731.41
411.21	2937.37
411.40	2904.60
411.59	2986.52
411.78	2986.52
411.98	2881.20
412.17	3000.57
412.36	3173.77
412.55	3007.59
412.74	3098.87
412.93	3176.11
413.12	3124.62
413.31	3323.56
413.50	3368.03
413.69	3293.13
413.88	3386.76
414.07	3356.33
414.26	3328.24
414.45	3342.28
414.64	3328.24
414.83	3569.32
415.02	3426.54
415.22	3447.61
415.41	3471.01
415.60	3705.07
415.79	3639.53
415.98	3777.62
416.17	3786.99
416.36	3770.60
416.55	3623.15
416.74	3775.28
416.93	3854.86
417.12	3742.52
417.31	3892.31
417.50	3829.12
417.69	4049.13
417.88	4077.21
418.07	4070.19
418.26	3992.95
418.45	3976.57
418.64	4156.79
418.83	4198.92
419.02	4011.68
419.21	4243.39
419.39	4229.35
419.58	4173.18
419.77	4271.48
419.96	4318.29
420.15	4278.50
420.34	4332.33
420.53	4245.73
420.72	4362.76
420.91	4402.55
421.10	4442.34
421.29	4566.39
421.48	4355.74
421.67	4425.95
421.86	4318.29
422.05	4585.11
422.24	4507.87
422.43	4372.12
422.61	4479.79
422.80	4667.03
422.99	4629.58
423.18	4641.28
423.37	4631.92
423.56	4566.39
423.75	4652.98
423.94	4585.11
424.13	4397.87
424.32	4456.38
424.50	4596.81
424.69	4685.75
424.88	4739.58
425.07	4662.35
425.26	4610.86
425.45	4493.83
425.64	4702.14
425.83	4706.82
426.01	4732.56
426.20	4758.31
426.39	4767.67
426.58	4844.91
426.77	4613.20
426.96	4741.93
427.15	4882.36
427.33	4896.40
427.52	4765.33
427.71	4910.44
427.90	4770.01
428.09	4882.36
428.28	4884.70
428.46	5172.58
428.65	5025.13
428.84	5109.39
429.03	4945.55
429.22	4990.02
429.40	5013.43
429.59	5226.42
429.78	5062.58
429.97	5032.15
430.16	5025.13
430.34	5317.70
430.53	5404.30
430.72	5315.36
430.91	5376.21
431.10	5193.65
431.28	5467.49
431.47	5423.02
431.66	5348.12
431.85	5495.58
432.03	5446.43
432.22	5710.91
432.41	5537.71
432.60	5645.37
432.79	5535.37
432.97	5614.95
433.16	5565.79
433.35	5600.90
433.54	5713.25
433.72	5820.91
433.91	5710.91
434.10	5818.57
434.28	5802.19
434.47	5741.33
434.66	5834.96
434.85	5905.17
435.03	5753.04
435.22	5963.68
435.41	6162.63
435.59	5954.32
435.78	6207.10
435.97	6022.20
436.16	6246.89
436.34	6015.18
436.53	6249.23
436.72	6373.28
436.90	6132.20
437.09	6267.95
437.28	6155.61
437.46	6298.38
437.65	6136.88
437.84	6502.01
438.02	6197.74
438.21	6403.71
438.40	6324.13
438.58	6443.49
438.77	6651.80
438.96	6630.74
439.14	6691.59
439.33	6799.26
439.52	6843.73
439.70	6726.70
439.89	6958.41
440.08	6895.22
440.26	6944.37
440.45	6956.07
440.63	7096.50
440.82	7215.87
441.01	7063.74
441.19	7124.59
441.38	7339.92
441.57	7276.73
441.75	7461.63
441.94	7400.77
442.12	7541.21
442.31	7449.93
442.50	7548.23
442.68	7698.02
442.87	7698.02
443.05	7887.61
443.24	7878.24
443.43	7791.64
443.61	8049.10
443.80	7899.31
443.98	7602.06
444.17	7389.07
444.35	7796.32
444.54	7896.97
444.73	7824.41
444.91	7985.91
445.10	7999.95
445.28	7681.64
445.47	7812.71
445.65	7873.56
445.84	8030.38
446.02	8011.65
446.21	7709.72
446.39	7969.52
446.58	8166.13
446.77	8049.10
446.95	7948.46
447.14	7925.05
447.32	8100.59
447.51	7990.59
447.69	8028.04
447.88	8100.59
448.06	8006.97
448.25	8044.42
448.43	8070.17
448.62	7934.42
448.80	8170.81
448.99	8180.17
449.17	8510.19
449.36	8290.18
449.54	8332.31
449.73	8456.36
449.91	8428.27
450.10	8557.00
450.28	8833.18
450.46	8449.33
450.65	8615.51
450.83	8683.39
451.02	8566.36
451.20	8688.07
451.39	8882.33
451.57	8741.90
451.76	8627.21
451.94	8781.69
452.13	8798.07
452.31	8957.23
452.49	8641.26
452.68	8868.29
452.86	9011.06
453.05	9064.89
453.23	8973.61
453.42	8877.65
453.60	8894.04
453.78	9029.79
453.97	8929.14
454.15	8994.68
454.34	8842.54
454.52	9210.01
454.70	9081.28
454.89	9200.65
455.07	9102.34
455.26	9444.06
455.44	9329.38
455.62	9366.82
455.81	9394.91
455.99	9465.13
456.17	9647.69
456.36	9502.58
456.54	9940.26
456.73	9776.42
456.91	10003.45
457.09	9792.80
457.28	10160.27
457.46	9923.87
457.64	9631.30
457.83	9870.04
458.01	9745.99
458.19	10005.79
458.38	9996.43
458.56	10099.41
458.74	10099.41
458.93	10267.93
459.11	10202.40
459.29	9966.00
459.48	10211.76
459.66	10499.64
459.84	10520.71
460.03	10586.24
460.21	10436.45
460.39	10527.73
460.57	10340.49
460.76	10391.98
460.94	10696.25
461.12	10719.65
461.31	10658.80
461.49	10745.40
461.67	10614.33
461.85	10906.90
462.04	10771.15
462.22	11438.20
462.40	11023.92
462.59	10977.11
462.77	10977.11
462.95	11145.63
463.13	11012.22
463.32	11089.46
463.50	11517.78
463.68	11089.46
463.86	11272.02
464.05	10998.18
464.23	11248.61
464.41	11314.15
464.59	11042.65
464.78	11522.46
464.96	11218.19
465.14	11066.05
465.32	11477.99
465.50	11534.16
465.69	11421.81
465.87	11379.68
466.05	11339.90
466.23	11571.61
466.41	11606.72
466.60	11845.45
466.78	11735.45
466.96	11681.61
467.14	11531.82
467.32	11651.19
467.51	12084.19
467.69	11798.64
467.87	11791.62
468.05	12088.87
468.23	11922.69
468.41	11894.60
468.60	12126.32
468.78	12084.19
468.96	12060.78
469.14	12292.49
469.32	12477.40
469.50	12053.76
469.69	12299.52
469.87	12585.06
470.05	12533.57
470.23	12571.02
470.41	12416.54
470.59	12655.28
470.77	12620.17
470.95	12744.22
471.14	12685.70
471.32	12531.23
471.50	13078.91
471.68	13057.85
471.86	13188.92
472.04	13167.85
472.22	13415.95
472.40	12898.69
472.58	13242.75
472.77	13437.02
472.95	13359.78
473.13	13827.88
473.31	13579.79
473.49	13635.96
473.67	13530.64
473.85	13532.98
474.03	14057.26
474.21	13851.29
474.39	14066.62
474.57	14169.60
474.75	14242.16
474.93	14204.71
475.12	14403.66
475.30	14485.58
475.48	14326.42
475.66	14274.93
475.84	14492.60
476.02	14869.42
476.20	14579.20
476.38	14937.30
476.56	15407.75
476.74	15159.65
476.92	15157.31
477.10	14941.98
477.28	15330.51
477.46	15353.91
477.64	15840.75
477.82	15896.92
478.00	15913.30
478.18	16063.10
478.36	16112.25
478.54	16336.94
478.72	16643.55
478.90	16765.26
479.08	16723.13
479.26	17078.89
479.44	16954.84
479.62	16966.54
479.80	17078.89
479.98	17317.62
480.16	17528.27
480.34	17734.24
480.52	17715.51
480.70	17783.39
480.88	17781.05
481.06	17956.59
481.24	17942.55
481.41	18080.64
481.59	18693.86
481.77	18684.50
481.95	18747.69
482.13	18780.46
482.31	19089.41
482.49	19356.23
482.67	19311.76
482.85	19583.26
483.03	19906.26
483.21	20046.69
483.39	20147.33
483.57	19800.93
483.74	20180.10
483.92	20585.01
484.10	20350.96
484.28	21139.72
484.46	21319.94
484.64	21481.44
484.82	21118.65
485.00	21202.91
485.18	21668.68
485.35	21979.97
485.53	22223.39
485.71	21790.39
485.89	22427.01
486.07	22335.73
486.25	22408.29
486.43	22998.10
486.61	22883.42
486.78	23199.39
486.96	23524.72
487.14	23826.65
487.32	23587.92
487.50	23861.76
487.68	24077.09
487.85	24254.97
488.03	24491.37
488.21	25036.71
488.39	24650.52
488.57	25027.35
488.75	25355.02
488.92	25692.06
489.10	25565.67
489.28	25855.90
489.46	26249.11
489.64	25958.88
489.81	26375.50
489.99	26967.65
490.17	26604.87
490.35	27180.64
490.53	27147.87
490.70	27379.59
490.88	27321.07
491.06	27728.33
491.24	27587.89
491.41	27737.69
491.59	28217.50
491.77	28257.29
491.95	28622.41
492.13	28746.46
492.30	29003.92
492.48	29163.08
492.66	29057.75
492.84	29551.60
493.01	29502.45
493.19	29696.72
493.37	30050.14
493.54	30426.96
493.72	30003.33
493.90	30157.80
494.08	30962.95
494.25	31365.52
494.43	31358.50
494.61	31405.31
494.79	31599.57
494.96	30976.99
495.14	32100.45
495.32	31693.19
495.49	32046.62
495.67	32472.59
495.85	32327.48
496.02	32350.88
496.20	32662.18
496.38	32678.56
496.55	33184.12
496.73	33392.42
496.91	33212.20
497.09	33745.84
497.26	34003.30
497.44	33862.87
497.62	33993.94
497.79	34274.80
497.97	34094.58
498.14	34478.43
498.32	34555.67
498.50	35042.50
498.67	35117.40
498.85	34904.41
499.03	35318.68
499.20	35653.38
499.38	35648.70
499.56	36070.00
499.73	35976.37
499.91	36114.47
500.08	36851.73
500.26	36006.80
500.44	36474.91
500.61	36875.14
500.79	36432.78
500.97	36964.08
501.14	37151.32
501.32	37230.90
501.49	36985.15
501.67	37024.93
501.84	37729.44
502.02	37593.68
502.20	38036.05
502.37	38085.20
502.55	38054.77
502.72	38345.00
502.90	38263.08
503.07	38134.35
503.25	38778.00
503.43	38431.60
503.60	38859.91
503.78	39119.71
503.95	38998.01
504.13	39077.58
504.30	39241.42
504.48	38962.90
504.65	39550.37
504.83	39494.20
505.01	39880.39
505.18	39920.18
505.36	40189.34
505.53	39758.68
505.71	39955.29
505.88	40774.47
506.06	40088.70
506.23	40582.55
506.41	41081.08
506.58	40615.32
506.76	40755.75
506.93	40800.22
507.11	40807.24
507.28	41226.20
507.46	41148.96
507.63	41521.10
507.81	41902.61
507.98	41823.03
508.16	42176.45
508.33	41923.68
508.50	42014.96
508.68	42150.71
508.85	42572.00
509.03	42237.31
509.20	42948.83
509.38	42927.77
509.55	43187.56
509.73	42941.81
509.90	43178.20
510.08	43091.60
510.25	43005.00
510.42	43442.68
510.60	43538.65
510.77	43878.02
510.95	44355.49
511.12	43604.18
511.30	44065.27
511.47	44577.84
511.64	44233.78
511.82	44910.20
511.99	44563.80
512.17	44964.03
512.34	44652.74
512.51	45137.23
512.69	44598.91
512.86	45310.43
513.04	45436.82
513.21	45539.80
513.38	45581.93
513.56	45628.74
513.73	45567.89
513.90	45804.28
514.08	45406.39
514.25	45914.29
514.43	46358.99
514.60	45820.67
514.77	46473.68
514.95	46494.74
515.12	46178.77
515.29	46197.49
515.47	46679.64
515.64	46752.20
515.81	46623.47
515.99	46876.25
516.16	47295.21
516.33	47234.35
516.51	47629.90
516.68	47016.68
516.85	47206.26
517.03	47407.55
517.20	47952.90
517.37	48006.73
517.54	47466.06
517.72	47426.28
517.89	47503.51
518.06	47711.82
518.24	47952.90
518.41	48074.60
518.58	48341.42
518.75	48151.84
518.93	48598.88
519.10	48296.95
519.27	48451.43
519.45	48282.91
519.62	48402.28
519.79	48624.63
519.96	48800.17
520.14	49102.10
520.31	48889.11
520.48	49492.97
520.65	49008.48
520.83	49184.02
521.00	48985.07
521.17	49380.62
521.34	49382.96
521.52	49722.34
521.69	49757.45
521.86	49881.50
522.03	49617.02
522.20	49996.18
522.38	49818.30
522.55	50078.10
522.72	50054.70
522.89	50202.15
523.07	50380.03
523.24	50241.94
523.41	50433.86
523.58	50328.54
523.75	50473.65
523.92	50497.06
524.10	50906.65
524.27	50829.41
524.44	51028.36
524.61	51192.20
524.78	51004.95
524.96	50543.87
525.13	51143.05
525.30	51262.41
525.47	51253.05
525.64	51309.22
525.81	51653.28
525.98	51657.96
526.16	51484.76
526.33	51655.62
526.50	51648.60
526.67	51253.05
526.84	51688.39
527.01	51487.10
527.18	51868.61
527.36	52058.20
527.53	51826.48
527.70	52289.91
527.87	52114.37
528.04	52119.05
528.21	52212.67
528.38	52252.46
528.55	52430.34
528.72	52353.10
528.89	52486.51
529.07	52678.44
529.24	52498.22
529.41	52397.57
529.58	52701.84
529.75	52568.43
529.92	52636.31
530.09	52762.70
530.26	52872.70
530.43	52949.94
530.60	52910.15
530.77	52989.73
530.94	53073.99
531.11	52900.79
531.28	52971.00
531.46	53071.65
531.63	53214.42
531.80	53176.97
531.97	53811.26
532.14	53457.84
532.31	53446.13
532.48	53364.21
532.65	53478.90
532.82	53329.11
532.99	53378.26
533.16	53738.70
533.33	53497.62
533.50	53834.66
533.67	54040.63
533.84	53755.08
534.01	53687.21
534.18	53586.57
534.35	54213.83
534.52	53841.68
534.69	54234.89
534.86	54478.31
535.03	53963.39
535.20	54270.00
535.37	54349.58
535.54	54309.79
535.71	54422.14
535.88	54211.49
536.05	54316.81
536.22	54389.37
536.38	54585.97
536.55	54464.27
536.72	54649.17
536.89	54543.84
537.06	54384.69
537.23	54419.80
537.40	54754.49
537.57	54461.93
537.74	54670.23
537.91	55065.78
538.08	55054.08
538.25	54733.43
538.42	55037.70
538.59	55063.44
538.75	54621.08
538.92	54775.56
539.09	55086.85
539.26	55309.20
539.43	55344.31
539.60	55257.71
539.77	55320.90
539.94	55348.99
540.11	55393.46
540.28	55327.92
540.44	55332.60
540.61	55313.88
540.78	55311.54
540.95	55463.67
541.12	55608.79
541.29	55604.11
541.46	55777.31
541.62	55426.23
541.79	55580.70
541.96	55353.67
542.13	55491.76
542.30	55505.80
542.47	55945.83
542.63	56072.21
542.80	55917.74
542.97	56135.41
543.14	56076.90
543.31	55976.25
543.48	56039.45
543.64	56273.50
543.81	56397.55
543.98	56313.29
544.15	56545.00
544.32	56486.49
544.48	56500.53
544.65	56552.02
544.82	56566.07
544.99	56112.00
545.16	56474.79
545.32	56425.64
545.49	56708.84
545.66	56884.38
545.83	56584.79
546.00	57003.75
546.16	56753.31
546.33	56420.95
546.50	56219.67
546.67	56697.14
546.83	56528.62
547.00	56605.86
547.17	56919.49
547.34	56722.88
547.50	56985.02
547.67	56956.94
547.84	56947.57
548.00	57029.49
548.17	57223.76
548.34	57162.90
548.51	57324.40
548.67	57183.97
548.84	57448.45
549.01	57293.97
549.18	57312.70
549.34	56907.79
549.51	57233.12
549.68	57364.19
549.84	57090.35
550.01	57560.79
550.18	57134.82
550.34	57708.25
550.51	57312.70
550.68	57499.94
550.84	57502.28
551.01	57591.22
551.18	57350.15
551.34	57415.68
551.51	57497.60
551.68	57495.26
551.84	57460.15
552.01	57595.90
552.18	57963.37
552.34	57511.64
552.51	57829.96
552.68	57673.14
552.84	57687.18
553.01	57965.71
553.18	57551.43
553.34	57984.43
553.51	57848.68
553.67	58038.26
553.84	58265.30
554.01	57925.92
554.17	58220.83
554.34	58117.84
554.51	58092.10
554.67	58326.15
554.84	58164.65
555.00	58078.05
555.17	57991.45
555.33	58218.49
555.50	57879.11
555.67	58354.24
555.83	58178.70
556.00	58347.21
556.16	58279.34
556.33	58403.39
556.50	58333.17
556.66	58492.33
556.83	58272.32
556.99	58347.21
557.16	58492.33
557.32	58478.28
557.49	58452.54
557.65	58209.12
557.82	58433.81
557.98	58445.52
558.15	58422.11
558.32	58522.76
558.48	58482.97
558.65	58637.44
558.81	58623.40
558.98	58541.48
559.14	58630.42
559.31	58829.37
559.47	58585.95
559.64	58562.54
559.80	58761.49
559.97	58958.09
560.13	58684.25
560.30	58962.78
560.46	58653.82
560.63	58864.47
560.79	58707.66
560.96	58855.11
561.12	58803.62
561.29	58789.58
561.45	59002.56
561.61	58969.80
561.78	58979.16
561.94	58974.48
562.11	59138.32
562.27	58908.94
562.44	59044.69
562.60	59018.95
562.77	59126.61
562.93	59178.10
563.10	59337.26
563.26	59091.51
563.42	59260.02
563.59	59105.55
563.75	59334.92
563.92	59018.95
564.08	59082.14
564.24	59213.21
564.41	59011.93
564.57	59175.76
564.74	59105.55
564.90	59267.05
565.07	59124.27
565.23	59416.84
565.39	59395.77
565.56	59260.02
565.72	59025.97
565.88	58986.18
566.05	59171.08
566.21	59229.60
566.38	59185.13
566.54	59306.83
566.70	59484.72
566.87	59480.03
567.03	59255.34
567.19	59550.25
567.36	59416.84
567.52	59253.00
567.68	59405.14
567.85	59157.04
568.01	59344.28
568.17	59341.94
568.34	59447.27
568.50	59632.17
568.66	59678.98
568.83	59739.83
568.99	59540.89
569.15	59250.66
569.32	59491.74
569.48	59311.52
569.64	59618.13
569.81	59435.56
569.97	59435.56
570.13	59641.53
570.30	59611.10
570.46	59550.25
570.62	59545.57
570.78	59433.22
570.95	59381.73
571.11	59613.44
571.27	59482.37
571.43	59599.40
571.60	59716.43
571.76	59487.06
571.92	59735.15
572.09	59931.76
572.25	59767.92
572.41	59341.94
572.57	59646.21
572.74	59529.19
572.90	59547.91
573.06	59517.48
573.22	59690.68
573.38	59667.28
573.55	59819.41
573.71	59948.14
573.87	59856.86
574.03	59849.84
574.20	59873.24
574.36	59494.08
574.52	59592.38
574.68	59643.87
574.84	59770.26
575.01	59847.50
575.17	59810.05
575.33	59728.13
575.49	59592.38
575.65	59817.07
575.82	59943.46
575.98	59796.01
576.14	60074.53
576.30	60069.85
576.46	59877.93
576.62	59767.92
576.79	59718.77
576.95	59718.77
577.11	59831.11
577.27	59950.48
577.43	59929.42
577.59	59728.13
577.75	59697.70
577.92	59620.47
578.08	59831.11
578.24	59648.55
578.40	59749.20
578.56	59969.21
578.72	59882.61
578.88	59936.44
579.04	60023.04
579.21	59875.58
579.37	59985.59
579.53	59985.59
579.69	59798.35
579.85	60069.85
580.01	59877.93
580.17	59725.79
580.33	59957.50
580.49	59943.46
580.65	60119.00
580.82	60224.32
580.98	59873.24
581.14	60067.51
581.30	60116.66
581.46	59952.82
581.62	59622.81
581.78	59901.33
581.94	60062.83
582.10	59898.99
582.26	60116.66
582.42	60104.96
582.58	60186.88
582.74	60090.91
582.90	60196.24
583.06	59973.89
583.22	60097.94
583.38	60142.41
583.54	60037.08
583.70	60006.65
583.86	60009.00
584.02	60037.08
584.18	60245.39
584.34	60023.04
584.50	60245.39
584.66	60009.00
584.82	59859.20
584.98	59957.50
585.14	59964.52
585.30	59910.69
585.46	59964.52
585.62	59863.88
585.78	60044.10
585.94	59831.11
586.10	59866.22
586.26	60126.02
586.42	60348.37
586.58	60207.94
586.74	59971.55
586.90	59901.33
587.06	59943.46
587.22	60074.53
587.38	60133.04
587.54	60245.39
587.70	60219.64
587.86	60245.39
588.02	60360.08
588.18	60266.45
588.34	60168.15
588.49	60245.39
588.65	60004.31
588.81	60334.33
588.97	60484.12
589.13	60116.66
589.29	60198.58
589.45	60280.50
589.61	60441.99
589.77	60240.71
589.93	60460.72
590.08	60441.99
590.24	60481.78
590.40	60423.27
590.56	60065.17
590.72	60203.26
590.88	60231.35
591.04	60266.45
591.20	60397.52
591.35	60355.39
591.51	60757.97
591.67	60615.19
591.83	60306.24
591.99	60456.04
592.15	60200.92
592.31	60458.38
592.46	60451.36
592.62	60409.23
592.78	60374.12
592.94	60320.29
593.10	60589.45
593.26	60701.79
593.41	60484.12
593.57	60416.25
593.73	60460.72
593.89	60542.64
594.05	60369.44
594.20	60280.50
594.36	60463.06
594.52	60526.25
594.68	60289.86
594.84	60303.90
594.99	60685.41
595.15	60470.08
595.31	60591.79
595.47	60530.93
595.62	60526.25
595.78	60603.49
595.94	60523.91
596.10	60594.13
596.25	60615.19
596.41	60299.22
596.57	60236.03
596.73	60474.76
596.88	60439.65
597.04	60748.60
597.20	60821.16
597.36	60437.31
597.51	60687.75
597.67	60416.25
597.83	60353.05
597.99	60484.12
598.14	60523.91
598.30	60650.30
598.46	60589.45
598.61	60753.29
598.77	60603.49
598.93	60544.98
599.09	60605.83
599.24	60952.23
599.40	60814.14
599.56	60573.06
599.71	60521.57
599.87	60732.22
600.03	60561.36
600.18	60802.44
600.34	60460.72
600.50	60872.65
600.65	60725.20
600.81	60697.11
600.97	60732.22
601.12	60734.56
601.28	60959.25
601.44	60860.95
601.59	60767.33
601.75	60612.85
601.91	60633.92
602.06	60465.40
602.22	60671.37
602.37	60458.38
602.53	60453.70
602.69	60711.16
602.84	60573.06
603.00	60484.12
603.16	60659.66
603.31	60697.11
603.47	60596.47
603.62	60505.19
603.78	60636.26
603.94	60299.22
604.09	60842.23
604.25	60683.07
604.40	60392.84
604.56	60617.53
604.71	60764.99
604.87	60762.65
605.03	60839.89
605.18	60636.26
605.34	60664.35
605.49	60287.52
605.65	60486.46
605.80	60432.63
605.96	60514.55
606.12	60734.56
606.27	60846.91
606.43	60498.17
606.58	60809.46
606.74	60741.58
606.89	60797.76
607.05	60654.98
607.20	60666.69
607.36	60647.96
607.51	60636.26
607.67	60498.17
607.82	60519.23
607.98	60449.02
608.13	60540.30
608.29	60582.43
608.44	60566.04
608.60	60727.54
608.75	60633.92
608.91	60779.03
609.06	60404.55
609.22	60423.27
609.37	60523.91
609.53	60474.76
609.68	60388.16
609.84	60437.31
609.99	60484.12
610.15	60437.31
610.30	60631.58
610.46	60390.50
610.61	60488.80
610.76	60533.28
610.92	60657.32
611.07	60746.26
611.23	60502.85
611.38	60500.51
611.54	60479.44
611.69	60449.02
611.84	60409.23
612.00	60484.12
612.15	60308.58
612.31	60603.49
612.46	60458.38
612.62	60671.37
612.77	60467.74
612.92	60561.36
613.08	60177.51
613.23	60465.40
613.39	60170.49
613.54	60224.32
613.69	60151.77
613.85	60165.81
614.00	60217.30
614.15	60477.10
614.31	60278.16
614.46	60456.04
614.62	60364.76
614.77	60460.72
614.92	60353.05
615.08	60243.05
615.23	60317.95
615.38	60142.41
615.54	60006.65
615.69	60058.15
615.84	60102.62
616.00	60240.71
616.15	60381.14
616.30	60331.99
616.46	60069.85
616.61	60128.36
616.76	60355.39
616.92	60254.75
617.07	60357.74
617.22	60051.12
617.37	59966.87
617.53	60074.53
617.68	59992.61
617.83	59915.37
617.99	60046.44
618.14	60123.68
618.29	60182.19
618.45	60074.53
618.60	60156.45
618.75	59983.25
618.90	59859.20
619.06	60147.09
619.21	60034.74
619.36	59880.27
619.51	59887.29
619.67	59686.00
619.82	59887.29
619.97	60116.66
620.12	59552.59
620.28	59856.86
620.43	60009.00
620.58	60303.90
620.73	59875.58
620.89	60013.68
621.04	59866.22
621.19	59973.89
621.34	59788.98
621.49	59784.30
621.65	59512.80
621.80	59725.79
621.95	59573.66
622.10	59583.02
622.25	59660.26
622.41	59643.87
622.56	59505.78
622.71	59676.64
622.86	59870.90
623.01	59697.70
623.16	59730.47
623.32	59543.23
623.47	59573.66
623.62	59573.66
623.77	59402.80
623.92	59695.36
624.07	59594.72
624.23	59437.90
624.38	59758.56
624.53	59714.09
624.68	59470.67
624.83	59444.93
624.98	59531.53
625.13	59236.62
625.29	59587.70
625.44	59519.82
625.59	59281.09
625.74	59302.15
625.89	59330.24
626.04	59323.22
626.19	59199.17
626.34	59288.11
626.49	59339.60
626.65	59070.44
626.80	59461.31
626.95	59222.58
627.10	59196.83
627.25	59192.15
627.40	59082.14
627.55	59311.52
627.70	58866.81
627.85	58937.03
628.00	58965.12
628.15	58941.71
628.30	58901.92
628.45	59047.04
628.60	59018.95
628.76	59353.65
628.91	59234.28
629.06	59147.68
629.21	59203.85
629.36	59068.10
629.51	59103.21
629.66	58866.81
629.81	58777.87
629.96	59075.12
630.11	59028.31
630.26	58784.90
630.41	58782.55
630.56	58522.76
630.71	58841.07
630.86	58808.30
631.01	58899.58
631.16	58820.00
631.31	58782.55
631.46	58644.46
631.61	58719.36
631.76	58597.65
631.91	58623.40
632.06	58656.17
632.21	58658.51
632.36	58747.45
632.51	58426.79
632.66	58719.36
632.81	58361.26
632.96	58616.38
633.10	58635.10
633.25	58564.88
633.40	58646.80
633.55	58562.54
633.70	58351.90
633.85	58169.33
634.00	58232.53
634.15	58082.73
634.30	58419.77
634.45	58607.01
634.60	58731.06
634.75	58394.03
634.90	58707.66
635.05	58576.59
635.19	58398.71
635.34	58745.11
635.49	58396.37
635.64	58492.33
635.79	58461.90
635.94	58206.78
636.09	58195.08
636.24	58166.99
636.39	58141.25
636.53	58230.19
636.68	58234.87
636.83	58234.87
636.98	58389.34
637.13	58262.96
637.28	58342.53
637.43	58251.25
637.57	58260.62
637.72	58234.87
637.87	58152.95
638.02	58328.49
638.17	58447.86
638.32	57968.05
638.46	57771.44
638.61	57815.91
638.76	57766.76
638.91	57874.43
639.06	58230.19
639.20	58174.02
639.35	58387.00
639.50	58026.56
639.65	58103.80
639.80	57883.79
639.94	57874.43
640.09	57970.39
640.24	57785.49
640.39	57719.95
640.54	57609.95
640.68	57483.56
640.83	57804.21
640.98	57710.59
641.13	57513.98
641.27	57780.81
641.42	57839.32
641.57	57797.19
641.72	57530.37
641.86	57991.45
642.01	57712.93
642.16	57579.52
642.31	57347.81
642.45	57687.18
642.60	57261.21
642.75	57389.94
642.90	57221.42
643.04	57502.28
643.19	57350.15
643.34	57584.20
643.48	57588.88
643.63	57858.04
643.78	57577.18
643.93	57490.58
644.07	57698.89
644.22	57333.76
644.37	57427.38
644.51	57411.00
644.66	57588.88
644.81	57373.55
644.95	57322.06
645.10	57418.02
645.25	57282.27
645.39	57375.89
645.54	57305.68
645.69	57478.88
645.83	57249.50
645.98	57411.00
646.13	57572.50
646.27	57317.38
646.42	57216.74
646.57	57429.72
646.71	57296.31
646.86	57141.84
647.00	57064.60
647.15	56863.32
647.30	56956.94
647.44	56982.68
647.59	56846.93
647.74	56790.76
647.88	56856.29
648.03	56938.21
648.17	57038.86
648.32	56858.63
648.47	57286.95
648.61	56907.79
648.76	56919.49
648.90	57073.96
649.05	57057.58
649.20	56900.76
649.34	56907.79
649.49	56556.70
649.63	56856.29
649.78	56893.74
649.92	56779.06
650.07	56893.74
650.21	56978.00
650.36	57233.12
650.51	56797.78
650.65	57069.28
650.80	56989.70
650.94	56999.07
651.09	56505.21
651.23	56507.55
651.38	56432.66
651.52	56526.28
651.67	56549.68
651.81	56474.79
651.96	56633.94
652.10	56324.99
652.25	56566.07
652.39	56701.82
652.54	56952.26
652.68	56669.05
652.83	56748.63
652.97	56575.43
653.12	56540.32
653.26	56484.15
653.41	56671.39
653.55	56170.52
653.70	56442.02
653.84	56381.16
653.99	56287.54
654.13	56343.72
654.27	56339.04
654.42	56072.21
654.56	56217.33
654.71	56329.67
654.85	56067.53
655.00	56397.55
655.14	56301.59
655.29	56151.79
655.43	56317.97
655.57	55866.25
655.72	56044.13
655.86	56051.15
656.01	56023.06
656.15	55899.01
656.30	55803.05
656.44	55908.38
656.58	56128.39
656.73	55987.95
656.87	55952.85
657.01	55936.46
657.16	56322.65
657.30	55859.23
657.45	56097.96
657.59	56292.22
657.73	55735.18
657.88	55948.17
658.02	55833.48
658.16	55737.52
658.31	55447.29
658.45	55660.28
658.60	55393.46
658.74	55503.46
658.88	55587.72
659.03	55257.71
659.17	55243.66
659.31	55536.23
659.46	55618.15
659.60	55838.16
659.74	55583.04
659.89	55348.99
660.03	55290.48
660.17	55510.49
660.32	55213.24
660.46	55253.03
660.60	55037.70
660.74	55025.99
660.89	55241.32
661.03	55023.65
661.17	55150.04
661.32	54904.29
661.46	55047.06
661.60	55009.61
661.74	55119.62
661.89	55063.44
662.03	55044.72
662.17	54960.46
662.31	54955.78
662.46	54897.27
662.60	54478.31
662.74	54527.46
662.88	54426.82
663.03	54288.73
663.17	54597.68
663.31	54321.49
663.45	54216.17
663.60	54550.87
663.74	54471.29
663.88	54581.29
664.02	54637.47
664.17	54873.86
664.31	54403.41
664.45	54246.60
664.59	53951.69
664.73	53991.48
664.88	54080.42
665.02	54059.35
665.16	53614.65
665.30	54014.88
665.44	53893.18
665.59	53411.02
665.73	53860.41
665.87	53752.74
666.01	53773.81
666.15	54005.52
666.29	53736.36
666.44	54019.56
666.58	53326.77
666.72	53708.27
666.86	53998.50
667.00	53783.17
667.14	53703.59
667.28	53455.50
667.43	53116.12
667.57	53123.14
667.71	53146.54
667.85	52832.91
667.99	53345.49
668.13	52966.32
668.27	52870.36
668.41	52966.32
668.56	52629.29
668.70	53073.99
668.84	52884.40
668.98	53109.10
669.12	53235.48
669.26	53052.92
669.40	52774.40
669.54	52282.89
669.68	52355.44
669.82	52376.51
669.96	52315.65
670.10	51906.06
670.25	52446.72
670.39	52158.84
670.53	51990.32
670.67	52053.51
670.81	52306.29
670.95	52657.37
671.09	52453.75
671.23	52175.22
671.37	52289.91
671.51	52135.43
671.65	52058.20
671.79	51966.91
671.93	51597.11
672.07	51784.35
672.21	51449.66
672.35	51196.88
672.49	51374.76
672.63	51381.78
672.77	51208.58
672.91	51742.22
673.05	51356.03
673.19	51203.90
673.33	51313.90
673.47	51601.79
673.61	51168.79
673.75	50979.21
673.89	50894.95
674.03	51126.66
674.17	51276.46
674.31	50827.07
674.45	50752.18
674.59	50412.80
674.73	50728.77
674.87	50333.22
675.01	50183.43
675.15	50045.33
675.29	50375.35
675.43	49918.95
675.56	50021.93
675.70	50021.93
675.84	50258.32
675.98	49071.67
676.12	49876.82
676.26	49951.71
676.40	49635.74
676.54	49701.28
676.68	49385.30
676.82	48636.33
676.96	48727.61
677.10	48760.38
677.23	48912.52
677.37	48554.41
677.51	48561.44
677.65	48629.31
677.79	48467.81
677.93	48479.52
678.07	48421.00
678.21	48474.84
678.34	48308.66
678.48	48303.98
678.62	47365.42
678.76	47948.21
678.90	47819.49
679.04	47463.72
679.18	47423.93
679.31	47089.24
679.45	46958.17
679.59	46689.01
679.73	47381.80
679.87	46564.96
680.00	46717.09
680.14	46754.54
680.28	46855.18
680.42	46344.95
680.56	46539.21
680.70	46490.06
680.83	46806.03
680.97	46494.74
681.11	45902.59
681.25	45841.73
681.39	45792.58
681.52	45284.68
681.66	44903.18
681.80	44615.29
681.94	44292.30
682.07	44781.47
682.21	44793.17
682.35	44655.08
682.49	44718.28
682.62	45083.40
682.76	44453.79
682.90	44189.31
683.04	44194.00
683.17	44942.97
683.31	44411.67
683.45	44168.25
683.59	43887.39
683.72	44172.93
683.86	43606.52
684.00	43728.23
684.13	42981.60
684.27	43014.37
684.41	42726.48
684.55	42579.03
684.68	42602.43
684.82	42309.86
684.96	42642.22
685.09	42295.82
685.23	42518.17
685.37	42206.88
685.50	42429.23
685.64	42628.18
685.78	42007.94
685.91	41996.23
686.05	42162.41
686.19	41858.14
686.32	41787.92
686.46	40917.25
686.60	40926.61
686.73	41645.15
686.87	41076.40
687.01	40767.45
687.14	40495.95
687.28	40231.47
687.42	40472.54
687.55	39828.90
687.69	40390.62
687.82	40058.27
687.96	40109.76
688.10	39636.97
688.23	39512.92
688.37	39770.38
688.50	39810.17
688.64	39363.13
688.78	39597.18
688.91	39229.72
689.05	38986.30
689.18	38520.54
689.32	37668.58
689.46	37839.44
689.59	37738.80
689.73	38202.22
689.86	37780.93
690.00	37635.81
690.13	38003.28
690.27	37687.31
690.41	37993.92
690.54	37340.91
690.68	37507.08
690.81	36996.85
690.95	37605.39
691.08	36952.38
691.22	36673.85
691.35	37092.81
691.49	36818.97
691.62	36245.54
691.76	36542.78
691.89	35906.16
692.03	35929.56
692.16	35335.07
692.30	35566.78
692.43	35517.63
692.57	35611.25
692.70	35576.14
692.84	35236.77
692.97	35140.80
693.11	35033.14
693.24	34843.56
693.38	35271.87
693.51	34850.58
693.65	34864.62
693.78	34965.26
693.92	34518.22
694.05	33989.26
694.19	33766.91
694.32	33986.92
694.45	33486.04
694.59	33362.00
694.72	33046.02
694.86	33479.02
694.99	33263.69
695.13	32964.10
695.26	32886.87
695.39	32627.07
695.53	33198.16
695.66	32870.48
695.80	32566.21
695.93	32517.06
696.07	32671.54
696.20	32280.67
696.33	32224.50
696.47	32201.09
696.60	32254.92
696.73	31880.44
696.87	31424.03
697.00	31489.57
697.14	31082.31
697.27	30841.24
697.40	30969.97
697.54	30803.79
697.67	30452.71
697.80	30221.00
697.94	30443.35
698.07	30494.84
698.21	30373.13
698.34	30560.37
698.47	30436.33
698.61	29610.12
698.74	29806.72
698.87	29694.38
699.01	29593.73
699.14	29890.98
699.27	29165.42
699.40	29490.75
699.54	29160.73
699.67	28732.42
699.80	28573.26
699.94	28283.03
700.07	28498.36
700.20	28341.55
700.34	28233.88
700.47	28259.63
700.60	28563.90
700.73	28173.03
700.87	28032.60
701.00	27807.90
701.13	27330.44
701.26	27859.40
701.40	27840.67
701.53	27585.55
701.66	27571.51
701.79	27084.68
701.93	26977.01
702.06	26806.16
702.19	26831.90
702.32	26721.90
702.46	26506.57
702.59	26136.76
702.72	25998.67
702.85	25755.26
702.99	26059.52
703.12	25858.24
703.25	25696.74
703.38	26316.98
703.51	25546.95
703.65	25923.77
703.78	25202.89
703.91	25172.46
704.04	25067.14
704.17	24875.21
704.31	24716.06
704.44	24830.74
704.57	24493.71
704.70	24655.20
704.83	24304.12
704.96	24222.20
705.10	24458.60
705.23	24112.20
>>>>>End Processed Spectral Data<<<<<
