SpectraSuite Data File
++++++++++++++++++++++++++++++++++++
Date: Fri Oct 04 11:48:20 GMT-05:00 2013
User: price-jones
Dark Spectrum Present: No
Reference Spectrum Present: No
Number of Sampled Component Spectra: 1
Spectrometers: USB2+H05261
Integration Time (usec): 100000 (USB2+H05261)
Spectra Averaged: 1 (USB2+H05261)
Boxcar Smoothing: 0 (USB2+H05261)
Correct for Electrical Dark: No (USB2+H05261)
Strobe/Lamp Enabled: No (USB2+H05261)
Correct for Detector Non-linearity: No (USB2+H05261)
Correct for Stray Light: No (USB2+H05261)
Number of Pixels in Processed Spectrum: 2048
>>>>>Begin Processed Spectral Data<<<<<
365.73	0.00
365.92	0.00
366.12	0.00
366.32	0.00
366.52	0.00
366.72	0.00
366.91	0.00
367.11	0.00
367.31	0.00
367.51	0.00
367.70	0.00
367.90	0.00
368.10	0.00
368.30	0.00
368.49	0.00
368.69	0.00
368.89	0.00
369.09	0.00
369.28	0.00
369.48	9.36
369.68	0.00
369.87	0.00
370.07	37.45
370.27	35.11
370.47	7.02
370.66	0.00
370.86	21.06
371.06	84.26
371.25	93.62
371.45	0.00
371.65	44.47
371.84	32.77
372.04	56.17
372.24	102.98
372.44	95.96
372.63	117.03
372.83	184.90
373.03	46.81
373.22	138.09
373.42	102.98
373.62	60.85
373.81	91.28
374.01	110.01
374.21	124.05
374.40	121.71
374.60	166.18
374.79	91.28
374.99	140.43
375.19	114.69
375.38	121.71
375.58	119.37
375.78	98.30
375.97	105.32
376.17	175.54
376.37	100.64
376.56	121.71
376.76	65.54
376.95	177.88
377.15	107.66
377.35	163.84
377.54	154.48
377.74	72.56
377.93	88.94
378.13	65.54
378.33	126.39
378.52	154.48
378.72	154.48
378.91	175.54
379.11	112.35
379.31	72.56
379.50	35.11
379.70	110.01
379.89	175.54
380.09	60.85
380.28	133.41
380.48	37.45
380.68	110.01
380.87	46.81
381.07	37.45
381.26	133.41
381.46	100.64
381.65	53.83
381.85	121.71
382.04	49.15
382.24	65.54
382.43	163.84
382.63	56.17
382.83	63.19
383.02	133.41
383.22	84.26
383.41	58.51
383.61	32.77
383.80	88.94
384.00	102.98
384.19	60.85
384.39	60.85
384.58	98.30
384.78	124.05
384.97	102.98
385.17	119.37
385.36	72.56
385.56	117.03
385.75	79.58
385.95	131.07
386.14	121.71
386.34	93.62
386.53	98.30
386.72	100.64
386.92	140.43
387.11	182.56
387.31	105.32
387.50	58.51
387.70	88.94
387.89	152.13
388.09	30.43
388.28	163.84
388.48	49.15
388.67	154.48
388.86	154.48
389.06	147.45
389.25	91.28
389.45	114.69
389.64	102.98
389.84	194.26
390.03	163.84
390.22	210.65
390.42	79.58
390.61	107.66
390.81	67.88
391.00	149.79
391.19	98.30
391.39	102.98
391.58	100.64
391.78	168.52
391.97	100.64
392.16	121.71
392.36	107.66
392.55	121.71
392.75	110.01
392.94	70.22
393.13	128.73
393.33	145.11
393.52	100.64
393.71	166.18
393.91	128.73
394.10	135.75
394.29	51.49
394.49	84.26
394.68	98.30
394.88	95.96
395.07	72.56
395.26	152.13
395.46	70.22
395.65	124.05
395.84	142.77
396.04	166.18
396.23	2.34
396.42	81.92
396.62	105.32
396.81	154.48
397.00	168.52
397.19	110.01
397.39	110.01
397.58	128.73
397.77	156.82
397.97	77.24
398.16	135.75
398.35	44.47
398.55	117.03
398.74	149.79
398.93	229.37
399.12	142.77
399.32	154.48
399.51	212.99
399.70	93.62
399.90	156.82
400.09	194.26
400.28	222.35
400.47	191.92
400.67	156.82
400.86	128.73
401.05	107.66
401.24	138.09
401.44	53.83
401.63	184.90
401.82	170.86
402.01	46.81
402.21	170.86
402.40	88.94
402.59	72.56
402.78	119.37
402.97	154.48
403.17	110.01
403.36	140.43
403.55	147.45
403.74	222.35
403.93	236.39
404.13	205.97
404.32	128.73
404.51	93.62
404.70	79.58
404.89	145.11
405.09	212.99
405.28	145.11
405.47	131.07
405.66	133.41
405.85	222.35
406.05	154.48
406.24	145.11
406.43	88.94
406.62	184.90
406.81	180.22
407.00	154.48
407.20	189.58
407.39	159.16
407.58	84.26
407.77	114.69
407.96	161.50
408.15	161.50
408.34	145.11
408.54	147.45
408.73	138.09
408.92	112.35
409.11	212.99
409.30	191.92
409.49	175.54
409.68	147.45
409.87	198.95
410.07	198.95
410.26	184.90
410.45	135.75
410.64	149.79
410.83	121.71
411.02	133.41
411.21	234.05
411.40	159.16
411.59	93.62
411.78	182.56
411.98	154.48
412.17	201.29
412.36	126.39
412.55	215.33
412.74	292.57
412.93	245.76
413.12	184.90
413.31	180.22
413.50	201.29
413.69	138.09
413.88	203.63
414.07	93.62
414.26	250.44
414.45	198.95
414.64	208.31
414.83	262.14
415.02	182.56
415.22	173.20
415.41	266.82
415.60	203.63
415.79	117.03
415.98	198.95
416.17	273.84
416.36	189.58
416.55	306.61
416.74	222.35
416.93	212.99
417.12	243.42
417.31	168.52
417.50	234.05
417.69	217.67
417.88	175.54
418.07	173.20
418.26	154.48
418.45	173.20
418.64	215.33
418.83	262.14
419.02	135.75
419.21	145.11
419.39	198.95
419.58	154.48
419.77	182.56
419.96	283.20
420.15	238.73
420.34	208.31
420.53	271.50
420.72	313.63
420.91	196.60
421.10	227.03
421.29	177.88
421.48	154.48
421.67	269.16
421.86	173.20
422.05	173.20
422.24	131.07
422.43	175.54
422.61	236.39
422.80	163.84
422.99	231.71
423.18	196.60
423.37	196.60
423.56	243.42
423.75	201.29
423.94	159.16
424.13	163.84
424.32	222.35
424.50	273.84
424.69	266.82
424.88	234.05
425.07	257.46
425.26	248.10
425.45	278.52
425.64	231.71
425.83	257.46
426.01	229.37
426.20	187.24
426.39	210.65
426.58	227.03
426.77	161.50
426.96	229.37
427.15	259.80
427.33	217.67
427.52	227.03
427.71	259.80
427.90	191.92
428.09	243.42
428.28	266.82
428.46	243.42
428.65	234.05
428.84	273.84
429.03	280.86
429.22	236.39
429.40	271.50
429.59	248.10
429.78	337.04
429.97	269.16
430.16	238.73
430.34	236.39
430.53	196.60
430.72	184.90
430.91	283.20
431.10	182.56
431.28	170.86
431.47	287.89
431.66	264.48
431.85	215.33
432.03	236.39
432.22	313.63
432.41	229.37
432.60	308.95
432.79	283.20
432.97	187.24
433.16	234.05
433.35	257.46
433.54	229.37
433.72	266.82
433.91	212.99
434.10	236.39
434.28	301.93
434.47	236.39
434.66	327.68
434.85	241.08
435.03	217.67
435.22	327.68
435.41	318.31
435.59	262.14
435.78	208.31
435.97	238.73
436.16	308.95
436.34	358.10
436.53	255.12
436.72	266.82
436.90	290.23
437.09	224.69
437.28	315.97
437.46	187.24
437.65	248.10
437.84	318.31
438.02	334.70
438.21	280.86
438.40	212.99
438.58	304.27
438.77	315.97
438.96	149.79
439.14	229.37
439.33	292.57
439.52	269.16
439.70	273.84
439.89	308.95
440.08	334.70
440.26	287.89
440.45	332.36
440.63	365.12
440.82	299.59
441.01	285.55
441.19	297.25
441.38	372.15
441.57	222.35
441.75	376.83
441.94	320.65
442.12	346.40
442.31	334.70
442.50	320.65
442.68	308.95
442.87	297.25
443.05	276.18
443.24	269.16
443.43	400.23
443.61	355.76
443.80	318.31
443.98	341.72
444.17	348.74
444.35	318.31
444.54	337.04
444.73	299.59
444.91	337.04
445.10	285.55
445.28	262.14
445.47	280.86
445.65	315.97
445.84	259.80
446.02	386.19
446.21	285.55
446.39	245.76
446.58	297.25
446.77	355.76
446.95	297.25
447.14	290.23
447.32	308.95
447.51	280.86
447.69	330.02
447.88	322.99
448.06	332.36
448.25	337.04
448.43	327.68
448.62	297.25
448.80	362.78
448.99	318.31
449.17	334.70
449.36	290.23
449.54	330.02
449.73	217.67
449.91	416.62
450.10	318.31
450.28	397.89
450.46	339.38
450.65	339.38
450.83	379.17
451.02	386.19
451.20	341.72
451.39	355.76
451.57	266.82
451.76	365.12
451.94	372.15
452.13	393.21
452.31	330.02
452.49	358.10
452.68	308.95
452.86	311.29
453.05	395.55
453.23	351.08
453.42	320.65
453.60	353.42
453.78	330.02
453.97	339.38
454.15	330.02
454.34	322.99
454.52	308.95
454.70	376.83
454.89	372.15
455.07	348.74
455.26	358.10
455.44	393.21
455.62	283.20
455.81	388.53
455.99	383.85
456.17	297.25
456.36	379.17
456.54	330.02
456.73	322.99
456.91	351.08
457.09	470.45
457.28	449.38
457.46	393.21
457.64	376.83
457.83	360.44
458.01	372.15
458.19	334.70
458.38	341.72
458.56	414.27
458.74	334.70
458.93	390.87
459.11	355.76
459.29	388.53
459.48	400.23
459.66	404.91
459.84	404.91
460.03	404.91
460.21	381.51
460.39	308.95
460.57	428.32
460.76	388.53
460.94	397.89
461.12	360.44
461.31	351.08
461.49	315.97
461.67	322.99
461.85	395.55
462.04	372.15
462.22	840.25
462.40	386.19
462.59	393.21
462.77	383.85
462.95	411.93
463.13	381.51
463.32	428.32
463.50	411.93
463.68	465.77
463.86	430.66
464.05	416.62
464.23	390.87
464.41	428.32
464.59	386.19
464.78	456.40
464.96	393.21
465.14	372.15
465.32	360.44
465.50	444.70
465.69	409.59
465.87	322.99
466.05	367.46
466.23	388.53
466.41	411.93
466.60	440.02
466.78	351.08
466.96	421.30
467.14	355.76
467.32	411.93
467.51	425.98
467.69	416.62
467.87	496.19
468.05	409.59
468.23	465.77
468.41	393.21
468.60	423.64
468.78	447.04
468.96	456.40
469.14	365.12
469.32	379.17
469.50	484.49
469.69	369.80
469.87	383.85
470.05	521.94
470.23	423.64
470.41	423.64
470.59	428.32
470.77	442.36
470.95	468.11
471.14	397.89
471.32	390.87
471.50	521.94
471.68	442.36
471.86	458.74
472.04	538.32
472.22	472.79
472.40	456.40
472.58	463.43
472.77	440.02
472.95	484.49
473.13	559.39
473.31	493.85
473.49	449.38
473.67	461.09
473.85	386.19
474.03	393.21
474.21	468.11
474.39	531.30
474.57	484.49
474.75	503.22
474.93	461.09
475.12	475.13
475.30	454.06
475.48	411.93
475.66	503.22
475.84	388.53
476.02	428.32
476.20	454.06
476.38	463.43
476.56	477.47
476.74	535.98
476.92	472.79
477.10	482.15
477.28	484.49
477.46	477.47
477.64	465.77
477.82	498.53
478.00	500.87
478.18	538.32
478.36	510.24
478.54	458.74
478.72	491.51
478.90	507.90
479.08	543.00
479.26	531.30
479.44	503.22
479.62	510.24
479.80	519.60
479.98	585.13
480.16	568.75
480.34	543.00
480.52	510.24
480.70	596.84
480.88	550.03
481.06	528.96
481.24	615.56
481.41	573.43
481.59	543.00
481.77	601.52
481.95	564.07
482.13	610.88
482.31	568.75
482.49	578.11
482.67	638.97
482.85	681.10
483.03	627.26
483.21	575.77
483.39	580.45
483.57	564.07
483.74	641.31
483.92	617.90
484.10	683.44
484.28	657.69
484.46	650.67
484.64	564.07
484.82	674.07
485.00	692.80
485.18	636.63
485.35	610.88
485.53	627.26
485.71	667.05
485.89	667.05
486.07	608.54
486.25	704.50
486.43	674.07
486.61	685.78
486.78	610.88
486.96	603.86
487.14	660.03
487.32	702.16
487.50	631.94
487.68	690.46
487.85	655.35
488.03	737.27
488.21	814.51
488.39	671.73
488.57	725.57
488.75	699.82
488.92	1018.13
489.10	807.48
489.28	711.52
489.46	727.91
489.64	704.50
489.81	706.84
489.99	805.14
490.17	720.88
490.35	870.68
490.53	772.38
490.70	809.83
490.88	779.40
491.06	704.50
491.24	758.33
491.41	739.61
491.59	758.33
491.77	786.42
491.95	732.59
492.13	739.61
492.30	905.79
492.48	688.12
492.66	856.64
492.84	753.65
493.01	784.08
493.19	765.36
493.37	821.53
493.54	917.49
493.72	774.72
493.90	844.93
494.08	889.40
494.25	807.48
494.43	889.40
494.61	903.45
494.79	784.08
494.96	868.34
495.14	898.77
495.32	805.14
495.49	922.17
495.67	819.19
495.85	905.79
496.02	866.00
496.20	910.47
496.38	870.68
496.55	868.34
496.73	929.19
496.91	868.34
497.09	997.07
497.26	987.71
497.44	903.45
497.62	898.77
497.79	823.87
497.97	983.02
498.14	971.32
498.32	922.17
498.50	880.04
498.67	875.36
498.85	933.87
499.03	870.68
499.20	926.85
499.38	987.71
499.56	936.21
499.73	994.73
499.91	976.00
500.08	1022.81
500.26	952.60
500.44	985.37
500.61	917.49
500.79	976.00
500.97	999.41
501.14	929.19
501.32	973.66
501.49	1086.01
501.67	997.07
501.84	877.70
502.02	891.74
502.20	1048.56
502.37	1060.26
502.55	983.02
502.72	1011.11
502.90	971.32
503.07	1036.86
503.25	1048.56
503.43	1004.09
503.60	940.90
503.78	1025.15
503.95	1039.20
504.13	929.19
504.30	1004.09
504.48	961.96
504.65	1130.48
504.83	1128.14
505.01	1050.90
505.18	1039.20
505.36	1149.20
505.53	1008.77
505.71	1011.11
505.88	1111.75
506.06	973.66
506.23	1130.48
506.41	1013.45
506.58	1086.01
506.76	1060.26
506.93	999.41
507.11	1081.33
507.28	1057.92
507.46	1114.10
507.63	1018.13
507.81	1153.88
507.98	1078.99
508.16	1104.73
508.33	1231.12
508.50	1151.54
508.68	1029.84
508.85	1036.86
509.03	1076.65
509.20	1121.12
509.38	1146.86
509.55	1139.84
509.73	1177.29
509.90	1029.84
510.08	1048.56
510.25	1104.73
510.42	1095.37
510.60	1111.75
510.77	1170.27
510.95	1123.46
511.12	1198.35
511.30	1144.52
511.47	1219.42
511.64	1186.65
511.82	1174.95
511.99	1048.56
512.17	1196.01
512.34	1137.50
512.51	1156.22
512.69	1046.22
512.86	1163.25
513.04	1186.65
513.21	1170.27
513.38	1102.39
513.56	1156.22
513.73	1240.48
513.90	1186.65
514.08	1233.46
514.25	1238.14
514.43	1280.27
514.60	1093.03
514.77	1238.14
514.95	1334.11
515.12	1224.10
515.29	1135.16
515.47	1252.19
515.64	1156.22
515.81	1191.33
515.99	1238.14
516.16	1128.14
516.33	1226.44
516.51	1205.38
516.68	1100.05
516.85	1205.38
517.03	1174.95
517.20	1207.72
517.37	1210.06
517.54	1301.34
517.72	1299.00
517.89	1270.91
518.06	1146.86
518.24	1345.81
518.41	1214.74
518.58	1144.52
518.75	1294.32
518.93	1226.44
519.10	1217.08
519.27	1254.53
519.45	1282.61
519.62	1355.17
519.79	1334.11
519.96	1249.85
520.14	1338.79
520.31	1317.72
520.48	1249.85
520.65	1310.70
520.83	1263.89
521.00	1343.47
521.17	1252.19
521.34	1294.32
521.52	1313.04
521.69	1217.08
521.86	1348.15
522.03	1317.72
522.20	1334.11
522.38	1263.89
522.55	1266.23
522.72	1273.25
522.89	1343.47
523.07	1348.15
523.24	1299.00
523.41	1263.89
523.58	1404.32
523.75	1308.36
523.92	1308.36
524.10	1338.79
524.27	1444.11
524.44	1301.34
524.61	1401.98
524.78	1416.02
524.96	1303.68
525.13	1380.92
525.30	1394.96
525.47	1254.53
525.64	1380.92
525.81	1299.00
525.98	1308.36
526.16	1327.08
526.33	1317.72
526.50	1369.21
526.67	1413.68
526.84	1411.34
527.01	1261.55
527.18	1345.81
527.36	1303.68
527.53	1366.87
527.70	1441.77
527.87	1373.89
528.04	1406.66
528.21	1263.89
528.38	1322.40
528.55	1355.17
528.72	1387.94
528.89	1444.11
529.07	1434.75
529.24	1476.88
529.41	1308.36
529.58	1352.83
529.75	1427.73
529.92	1397.30
530.09	1427.73
530.26	1404.32
530.43	1418.36
530.60	1362.19
530.77	1331.76
530.94	1348.15
531.11	1399.64
531.28	1385.60
531.46	1387.94
531.63	1380.92
531.80	1401.98
531.97	1331.76
532.14	1401.98
532.31	1427.73
532.48	1327.08
532.65	1366.87
532.82	1418.36
532.99	1385.60
533.16	1394.96
533.33	1420.71
533.50	1493.26
533.67	1352.83
533.84	1425.39
534.01	1439.43
534.18	1404.32
534.35	1430.07
534.52	1401.98
534.69	1387.94
534.86	1486.24
535.03	1357.51
535.20	1303.68
535.37	1437.09
535.54	1439.43
535.71	1451.13
535.88	1476.88
536.05	1427.73
536.22	1369.21
536.38	1469.86
536.55	1418.36
536.72	1441.77
536.89	1385.60
537.06	1481.56
537.23	1397.30
537.40	1493.26
537.57	1362.19
537.74	1446.45
537.91	1486.24
538.08	1495.60
538.25	1565.82
538.42	1458.15
538.59	1413.68
538.75	1378.58
538.92	1390.28
539.09	1490.92
539.26	1423.05
539.43	1504.96
539.60	1540.07
539.77	1437.09
539.94	1483.90
540.11	1425.39
540.28	1502.62
540.44	1413.68
540.61	1376.24
540.78	1497.94
540.95	1387.94
541.12	1540.07
541.29	1341.13
541.46	1521.35
541.62	1455.81
541.79	1441.77
541.96	1460.49
542.13	1397.30
542.30	1411.34
542.47	1507.30
542.63	1394.96
542.80	1409.00
542.97	1495.60
543.14	1500.28
543.31	1561.14
543.48	1558.80
543.64	1547.09
543.81	1469.86
543.98	1488.58
544.15	1497.94
544.32	1483.90
544.48	1476.88
544.65	1413.68
544.82	1446.45
544.99	1481.56
545.16	1586.88
545.32	1521.35
545.49	1511.99
545.66	1479.22
545.83	1322.40
546.00	1530.71
546.16	1526.03
546.33	1387.94
546.50	1533.05
546.67	1495.60
546.83	1439.43
547.00	1451.13
547.17	1469.86
547.34	1516.67
547.50	1547.09
547.67	1547.09
547.84	1519.01
548.00	1540.07
548.17	1486.24
548.34	1537.73
548.51	1626.67
548.67	1593.90
548.84	1563.48
549.01	1626.67
549.18	1526.03
549.34	1533.05
549.51	1465.18
549.68	1460.49
549.84	1556.46
550.01	1523.69
550.18	1638.38
550.34	1626.67
550.51	1582.20
550.68	1563.48
550.84	1507.30
551.01	1598.59
551.18	1516.67
551.34	1544.75
551.51	1565.82
551.68	1572.84
551.84	1516.67
552.01	1533.05
552.18	1540.07
552.34	1521.35
552.51	1638.38
552.68	1533.05
552.84	1605.61
553.01	1570.50
553.18	1488.58
553.34	1495.60
553.51	1497.94
553.67	1554.12
553.84	1607.95
554.01	1551.78
554.17	1577.52
554.34	1479.22
554.51	1568.16
554.67	1577.52
554.84	1631.35
555.00	1514.33
555.17	1502.62
555.33	1533.05
555.50	1643.06
555.67	1607.95
555.83	1528.37
556.00	1631.35
556.16	1785.83
556.33	1537.73
556.50	1469.86
556.66	1589.22
556.83	1467.52
556.99	1528.37
557.16	1523.69
557.32	1537.73
557.49	1607.95
557.65	1591.56
557.82	1535.39
557.98	1554.12
558.15	1596.25
558.32	1469.86
558.48	1577.52
558.65	1593.90
558.81	1465.18
558.98	1563.48
559.14	1596.25
559.31	1591.56
559.47	1631.35
559.64	1561.14
559.80	1549.43
559.97	1603.27
560.13	1479.22
560.30	1561.14
560.46	1544.75
560.63	1614.97
560.79	1511.99
560.96	1626.67
561.12	1556.46
561.29	1570.50
561.45	1528.37
561.61	1591.56
561.78	1586.88
561.94	1584.54
562.11	1500.28
562.27	1507.30
562.44	1568.16
562.60	1507.30
562.77	1542.41
562.93	1591.56
563.10	1598.59
563.26	1551.78
563.42	1542.41
563.59	1540.07
563.75	1526.03
563.92	1600.93
564.08	1551.78
564.24	1659.44
564.41	1657.10
564.57	1563.48
564.74	1579.86
564.90	1614.97
565.07	1614.97
565.23	1544.75
565.39	1481.56
565.56	1561.14
565.72	1523.69
565.88	1577.52
566.05	1593.90
566.21	1577.52
566.38	1549.43
566.54	1497.94
566.70	1638.38
566.87	1563.48
567.03	1530.71
567.19	1636.03
567.36	1568.16
567.52	1586.88
567.68	1612.63
567.85	1533.05
568.01	1481.56
568.17	1540.07
568.34	1544.75
568.50	1629.01
568.66	1540.07
568.83	1561.14
568.99	1481.56
569.15	1542.41
569.32	1458.15
569.48	1533.05
569.64	1535.39
569.81	1614.97
569.97	1600.93
570.13	1556.46
570.30	1575.18
570.46	1490.92
570.62	1593.90
570.78	1584.54
570.95	1507.30
571.11	1586.88
571.27	1563.48
571.43	1530.71
571.60	1638.38
571.76	1544.75
571.92	1593.90
572.09	1607.95
572.25	1591.56
572.41	1584.54
572.57	1455.81
572.74	1621.99
572.90	1755.40
573.06	1591.56
573.22	1446.45
573.38	1542.41
573.55	1570.50
573.71	1614.97
573.87	1584.54
574.03	1603.27
574.20	1605.61
574.36	1605.61
574.52	1572.84
574.68	1526.03
574.84	1533.05
575.01	1528.37
575.17	1507.30
575.33	1537.73
575.49	1675.82
575.65	1493.26
575.82	1582.20
575.98	1654.76
576.14	1593.90
576.30	1497.94
576.46	1465.18
576.62	1540.07
576.79	1516.67
576.95	1640.72
577.11	1638.38
577.27	1603.27
577.43	1612.63
577.59	1617.31
577.75	1523.69
577.92	1540.07
578.08	1495.60
578.24	1680.50
578.40	1535.39
578.56	1563.48
578.72	1699.23
578.88	1584.54
579.04	1638.38
579.21	1575.18
579.37	1551.78
579.53	1516.67
579.69	1565.82
579.85	1633.69
580.01	1493.26
580.17	1528.37
580.33	1617.31
580.49	1661.78
580.65	1495.60
580.82	1558.80
580.98	1537.73
581.14	1544.75
581.30	1589.22
581.46	1654.76
581.62	1483.90
581.78	1495.60
581.94	1629.01
582.10	1495.60
582.26	1577.52
582.42	1514.33
582.58	1598.59
582.74	1568.16
582.90	1624.33
583.06	1605.61
583.22	1540.07
583.38	1621.99
583.54	1558.80
583.70	1554.12
583.86	1654.76
584.02	1607.95
584.18	1607.95
584.34	1607.95
584.50	1603.27
584.66	1570.50
584.82	1427.73
584.98	1544.75
585.14	1596.25
585.30	1593.90
585.46	1654.76
585.62	1596.25
585.78	1579.86
585.94	1647.74
586.10	1640.72
586.26	1596.25
586.42	1556.46
586.58	1579.86
586.74	1607.95
586.90	1619.65
587.06	1607.95
587.22	1511.99
587.38	1526.03
587.54	1516.67
587.70	1530.71
587.86	1551.78
588.02	1579.86
588.18	1596.25
588.34	1575.18
588.49	1474.54
588.65	1486.24
588.81	1516.67
588.97	1502.62
589.13	1521.35
589.29	1652.42
589.45	1540.07
589.61	1579.86
589.77	1554.12
589.93	1605.61
590.08	1626.67
590.24	1605.61
590.40	1617.31
590.56	1554.12
590.72	1533.05
590.88	1397.30
591.04	1519.01
591.20	1516.67
591.35	1570.50
591.51	1544.75
591.67	1589.22
591.83	1650.08
591.99	1507.30
592.15	1647.74
592.31	1600.93
592.46	1650.08
592.62	1633.69
592.78	1619.65
592.94	1476.88
593.10	1504.96
593.26	1497.94
593.41	1593.90
593.57	1586.88
593.73	1535.39
593.89	1624.33
594.05	1558.80
594.20	1584.54
594.36	1666.46
594.52	1575.18
594.68	1619.65
594.84	1453.47
594.99	1584.54
595.15	1575.18
595.31	1610.29
595.47	1666.46
595.62	1593.90
595.78	1652.42
595.94	1486.24
596.10	1612.63
596.25	1603.27
596.41	1584.54
596.57	1561.14
596.73	1563.48
596.88	1589.22
597.04	1579.86
597.20	1523.69
597.36	1624.33
597.51	1565.82
597.67	1603.27
597.83	1607.95
597.99	1626.67
598.14	1558.80
598.30	1563.48
598.46	1542.41
598.61	1654.76
598.77	1645.40
598.93	1654.76
599.09	1621.99
599.24	1509.65
599.40	1652.42
599.56	1617.31
599.71	1556.46
599.87	1612.63
600.03	1589.22
600.18	1561.14
600.34	1591.56
600.50	1593.90
600.65	1526.03
600.81	1621.99
600.97	1572.84
601.12	1603.27
601.28	1668.80
601.44	1528.37
601.59	1533.05
601.75	1533.05
601.91	1549.43
602.06	1589.22
602.22	1650.08
602.37	1502.62
602.53	1624.33
602.69	1556.46
602.84	1645.40
603.00	1521.35
603.16	1544.75
603.31	1479.22
603.47	1568.16
603.62	1521.35
603.78	1561.14
603.94	1453.47
604.09	1579.86
604.25	1568.16
604.40	1462.83
604.56	1575.18
604.71	1416.02
604.87	1540.07
605.03	1544.75
605.18	1589.22
605.34	1570.50
605.49	1547.09
605.65	1533.05
605.80	1591.56
605.96	1612.63
606.12	1561.14
606.27	1521.35
606.43	1624.33
606.58	1643.06
606.74	1549.43
606.89	1488.58
607.05	1577.52
607.20	1488.58
607.36	1476.88
607.51	1500.28
607.67	1549.43
607.82	1586.88
607.98	1507.30
608.13	1523.69
608.29	1551.78
608.44	1549.43
608.60	1568.16
608.75	1640.72
608.91	1474.54
609.06	1596.25
609.22	1568.16
609.37	1523.69
609.53	1490.92
609.68	1511.99
609.84	1483.90
609.99	1441.77
610.15	1439.43
610.30	1474.54
610.46	1514.33
610.61	1507.30
610.76	1474.54
610.92	1542.41
611.07	1589.22
611.23	1577.52
611.38	1488.58
611.54	1664.12
611.69	1549.43
611.84	1526.03
612.00	1537.73
612.15	1589.22
612.31	1577.52
612.46	1509.65
612.62	1607.95
612.77	1462.83
612.92	1563.48
613.08	1570.50
613.23	1526.03
613.39	1544.75
613.54	1390.28
613.69	1603.27
613.85	1526.03
614.00	1577.52
614.15	1441.77
614.31	1493.26
614.46	1586.88
614.62	1500.28
614.77	1481.56
614.92	1507.30
615.08	1558.80
615.23	1521.35
615.38	1425.39
615.54	1572.84
615.69	1570.50
615.84	1472.20
616.00	1504.96
616.15	1453.47
616.30	1526.03
616.46	1481.56
616.61	1455.81
616.76	1591.56
616.92	1490.92
617.07	1460.49
617.22	1432.41
617.37	1600.93
617.53	1519.01
617.68	1521.35
617.83	1476.88
617.99	1514.33
618.14	1540.07
618.29	1519.01
618.45	1448.79
618.60	1432.41
618.75	1434.75
618.90	1469.86
619.06	1500.28
619.21	1542.41
619.36	1556.46
619.51	1409.00
619.67	1420.71
619.82	1474.54
619.97	1425.39
620.12	1425.39
620.28	1500.28
620.43	1394.96
620.58	1547.09
620.73	1469.86
620.89	1448.79
621.04	1472.20
621.19	1502.62
621.34	1472.20
621.49	1451.13
621.65	1399.64
621.80	1481.56
621.95	1479.22
622.10	1535.39
622.25	1514.33
622.41	1469.86
622.56	1535.39
622.71	1495.60
622.86	1540.07
623.01	1453.47
623.16	1551.78
623.32	1493.26
623.47	1451.13
623.62	1409.00
623.77	1444.11
623.92	1446.45
624.07	1479.22
624.23	1383.26
624.38	1458.15
624.53	1504.96
624.68	1535.39
624.83	1497.94
624.98	1533.05
625.13	1453.47
625.29	1472.20
625.44	1465.18
625.59	1362.19
625.74	1425.39
625.89	1467.52
626.04	1434.75
626.19	1488.58
626.34	1345.81
626.49	1462.83
626.65	1460.49
626.80	1411.34
626.95	1490.92
627.10	1394.96
627.25	1460.49
627.40	1394.96
627.55	1460.49
627.70	1481.56
627.85	1490.92
628.00	1413.68
628.15	1364.53
628.30	1441.77
628.45	1453.47
628.60	1451.13
628.76	1406.66
628.91	1495.60
629.06	1439.43
629.21	1434.75
629.36	1418.36
629.51	1444.11
629.66	1409.00
629.81	1371.55
629.96	1401.98
630.11	1479.22
630.26	1439.43
630.41	1378.58
630.56	1420.71
630.71	1413.68
630.86	1472.20
631.01	1406.66
631.16	1416.02
631.31	1380.92
631.46	1432.41
631.61	1418.36
631.76	1497.94
631.91	1488.58
632.06	1411.34
632.21	1434.75
632.36	1481.56
632.51	1425.39
632.66	1434.75
632.81	1409.00
632.96	1341.13
633.10	1413.68
633.25	1502.62
633.40	1420.71
633.55	1383.26
633.70	1376.24
633.85	1409.00
634.00	1294.32
634.15	1313.04
634.30	1390.28
634.45	1397.30
634.60	1313.04
634.75	1334.11
634.90	1394.96
635.05	1315.38
635.19	1362.19
635.34	1392.62
635.49	1359.85
635.64	1369.21
635.79	1371.55
635.94	1282.61
636.09	1411.34
636.24	1434.75
636.39	1345.81
636.53	1376.24
636.68	1348.15
636.83	1418.36
636.98	1444.11
637.13	1254.53
637.28	1343.47
637.43	1483.90
637.57	1406.66
637.72	1509.65
637.87	1390.28
638.02	1315.38
638.17	1299.00
638.32	1434.75
638.46	1409.00
638.61	1451.13
638.76	1380.92
638.91	1380.92
639.06	1383.26
639.20	1404.32
639.35	1401.98
639.50	1320.06
639.65	1446.45
639.80	1371.55
639.94	1401.98
640.09	1387.94
640.24	1348.15
640.39	1427.73
640.54	1334.11
640.68	1336.45
640.83	1324.74
640.98	1341.13
641.13	1334.11
641.27	1394.96
641.42	1303.68
641.57	1390.28
641.72	1357.51
641.86	1392.62
642.01	1338.79
642.16	1373.89
642.31	1371.55
642.45	1425.39
642.60	1420.71
642.75	1345.81
642.90	1315.38
643.04	1315.38
643.19	1240.48
643.34	1343.47
643.48	1416.02
643.63	1343.47
643.78	1369.21
643.93	1418.36
644.07	1224.10
644.22	1366.87
644.37	1362.19
644.51	1348.15
644.66	1430.07
644.81	1287.29
644.95	1280.27
645.10	1350.49
645.25	1406.66
645.39	1380.92
645.54	1376.24
645.69	1418.36
645.83	1240.48
645.98	1397.30
646.13	1327.08
646.27	1376.24
646.42	1343.47
646.57	1287.29
646.71	1320.06
646.86	1313.04
647.00	1226.44
647.15	1308.36
647.30	1268.57
647.44	1284.95
647.59	1270.91
647.74	1313.04
647.88	1205.38
648.03	1355.17
648.17	1387.94
648.32	1289.64
648.47	1324.74
648.61	1301.34
648.76	1282.61
648.90	1238.14
649.05	1313.04
649.20	1287.29
649.34	1210.06
649.49	1320.06
649.63	1266.23
649.78	1291.98
649.92	1308.36
650.07	1261.55
650.21	1263.89
650.36	1299.00
650.51	1275.59
650.65	1380.92
650.80	1350.49
650.94	1280.27
651.09	1247.51
651.23	1249.85
651.38	1240.48
651.52	1240.48
651.67	1301.34
651.81	1275.59
651.96	1385.60
652.10	1310.70
652.25	1277.93
652.39	1373.89
652.54	1343.47
652.68	1289.64
652.83	1317.72
652.97	1352.83
653.12	1249.85
653.26	1336.45
653.41	1275.59
653.55	1277.93
653.70	1350.49
653.84	1378.58
653.99	1273.25
654.13	1397.30
654.27	1320.06
654.42	1235.80
654.56	1277.93
654.71	1226.44
654.85	1268.57
655.00	1249.85
655.14	1277.93
655.29	1210.06
655.43	1172.61
655.57	1303.68
655.72	1231.12
655.86	1210.06
656.01	1266.23
656.15	1207.72
656.30	1387.94
656.44	1128.14
656.58	1233.46
656.73	1245.16
656.87	1226.44
657.01	1231.12
657.16	1348.15
657.30	1275.59
657.45	1345.81
657.59	1256.87
657.73	1247.51
657.88	1228.78
658.02	1256.87
658.16	1310.70
658.31	1277.93
658.45	1308.36
658.60	1219.42
658.74	1205.38
658.88	1249.85
659.03	1238.14
659.17	1266.23
659.31	1132.82
659.46	1263.89
659.60	1387.94
659.74	1240.48
659.89	1306.02
660.03	1282.61
660.17	1329.42
660.32	1268.57
660.46	1210.06
660.60	1247.51
660.74	1315.38
660.89	1160.91
661.03	1242.82
661.17	1153.88
661.32	1233.46
661.46	1165.59
661.60	1144.52
661.74	1256.87
661.89	1308.36
662.03	1289.64
662.17	1252.19
662.31	1100.05
662.46	1181.97
662.60	1214.74
662.74	1191.33
662.88	1095.37
663.03	1235.80
663.17	1214.74
663.31	1226.44
663.45	1214.74
663.60	1184.31
663.74	1231.12
663.88	1111.75
664.02	1200.69
664.17	1203.04
664.31	1210.06
664.45	1137.50
664.59	1221.76
664.73	1093.03
664.88	1275.59
665.02	1167.93
665.16	1226.44
665.30	1291.98
665.44	1196.01
665.59	1233.46
665.73	1270.91
665.87	1207.72
666.01	1151.54
666.15	1095.37
666.29	1156.22
666.44	1174.95
666.58	1160.91
666.72	1231.12
666.86	1158.57
667.00	1191.33
667.14	1118.78
667.28	1291.98
667.43	1181.97
667.57	1181.97
667.71	1186.65
667.85	1184.31
667.99	1217.08
668.13	1086.01
668.27	1118.78
668.41	1114.10
668.56	1165.59
668.70	1224.10
668.84	1179.63
668.98	1212.40
669.12	1116.44
669.26	1181.97
669.40	1149.20
669.54	1144.52
669.68	1160.91
669.82	1139.84
669.96	1104.73
670.10	1205.38
670.25	1109.41
670.39	1179.63
670.53	1146.86
670.67	1181.97
670.81	1221.76
670.95	1114.10
671.09	1174.95
671.23	1212.40
671.37	1188.99
671.51	1203.04
671.65	1231.12
671.79	1083.67
671.93	1083.67
672.07	1132.82
672.21	1088.35
672.35	1093.03
672.49	1104.73
672.63	1074.31
672.77	1111.75
672.91	1039.20
673.05	1109.41
673.19	1008.77
673.33	1146.86
673.47	1203.04
673.61	1107.07
673.75	999.41
673.89	1069.62
674.03	1181.97
674.17	1036.86
674.31	1062.60
674.45	1086.01
674.59	1093.03
674.73	1109.41
674.87	1043.88
675.01	1043.88
675.15	1064.94
675.29	1046.22
675.43	1067.28
675.56	1053.24
675.70	1053.24
675.84	1104.73
675.98	1032.18
676.12	966.64
676.26	980.68
676.40	1050.90
676.54	1078.99
676.68	1102.39
676.82	1025.15
676.96	1097.71
677.10	999.41
677.23	1086.01
677.37	976.00
677.51	1027.50
677.65	1186.65
677.79	1032.18
677.93	1022.81
678.07	1050.90
678.21	1055.58
678.34	1008.77
678.48	994.73
678.62	978.34
678.76	959.62
678.90	929.19
679.04	1067.28
679.18	1095.37
679.31	973.66
679.45	992.39
679.59	884.72
679.73	912.81
679.87	1046.22
680.00	1076.65
680.14	945.58
680.28	945.58
680.42	940.90
680.56	957.28
680.70	959.62
680.83	976.00
680.97	875.36
681.11	912.81
681.25	926.85
681.39	990.05
681.52	959.62
681.66	903.45
681.80	868.34
681.94	999.41
682.07	931.53
682.21	901.11
682.35	924.51
682.49	952.60
682.62	933.87
682.76	905.79
682.90	847.27
683.04	898.77
683.17	919.83
683.31	863.66
683.45	933.87
683.59	957.28
683.72	903.45
683.86	875.36
684.00	903.45
684.13	901.11
684.27	966.64
684.41	898.77
684.55	957.28
684.68	866.00
684.82	828.55
684.96	917.49
685.09	828.55
685.23	917.49
685.37	847.27
685.50	887.06
685.64	835.57
685.78	821.53
685.91	922.17
686.05	983.02
686.19	828.55
686.32	828.55
686.46	877.70
686.60	866.00
686.73	880.04
686.87	786.42
687.01	847.27
687.14	751.31
687.28	861.32
687.42	826.21
687.55	875.36
687.69	903.45
687.82	870.68
687.96	793.44
688.10	837.91
688.23	830.89
688.37	835.57
688.50	758.33
688.64	833.23
688.78	861.32
688.91	840.25
689.05	770.04
689.18	837.91
689.32	823.87
689.46	760.67
689.59	753.65
689.73	760.67
689.86	826.21
690.00	802.80
690.13	739.61
690.27	875.36
690.41	739.61
690.54	821.53
690.68	819.19
690.81	755.99
690.95	795.78
691.08	788.76
691.22	842.59
691.35	755.99
691.49	800.46
691.62	793.44
691.76	711.52
691.89	751.31
692.03	746.63
692.16	704.50
692.30	732.59
692.43	641.31
692.57	669.39
692.70	777.06
692.84	702.16
692.97	657.69
693.11	622.58
693.24	725.57
693.38	683.44
693.51	645.99
693.65	774.72
693.78	711.52
693.92	718.54
694.05	683.44
694.19	615.56
694.32	781.74
694.45	716.20
694.59	645.99
694.72	638.97
694.86	662.37
694.99	685.78
695.13	624.92
695.26	737.27
695.39	702.16
695.53	720.88
695.66	713.86
695.80	641.31
695.93	575.77
696.07	622.58
696.20	641.31
696.33	692.80
696.47	667.05
696.60	608.54
696.73	674.07
696.87	676.41
697.00	608.54
697.14	660.03
697.27	671.73
697.40	702.16
697.54	617.90
697.67	631.94
697.80	664.71
697.94	641.31
698.07	638.97
698.21	627.26
698.34	627.26
698.47	648.33
698.61	702.16
698.74	645.99
698.87	690.46
699.01	669.39
699.14	568.75
699.27	650.67
699.40	727.91
699.54	575.77
699.67	599.18
699.80	657.69
699.94	589.82
700.07	585.13
700.20	573.43
700.34	533.64
700.47	545.34
700.60	582.79
700.73	643.65
700.87	585.13
701.00	540.66
701.13	540.66
701.26	589.82
701.40	580.45
701.53	447.04
701.66	489.17
701.79	587.47
701.93	554.71
702.06	575.77
702.19	678.76
702.32	554.71
702.46	592.16
702.59	617.90
702.72	500.87
702.85	557.05
702.99	540.66
703.12	608.54
703.25	531.30
703.38	531.30
703.51	582.79
703.65	543.00
703.78	533.64
703.91	585.13
704.04	575.77
704.17	521.94
704.31	496.19
704.44	503.22
704.57	585.13
704.70	557.05
704.83	566.41
704.96	519.60
705.10	592.16
705.23	477.47
>>>>>End Processed Spectral Data<<<<<
