SpectraSuite Data File
++++++++++++++++++++++++++++++++++++
Date: Fri Oct 04 11:48:45 GMT-05:00 2013
User: price-jones
Dark Spectrum Present: No
Reference Spectrum Present: No
Number of Sampled Component Spectra: 1
Spectrometers: USB2+H05261
Integration Time (usec): 100000 (USB2+H05261)
Spectra Averaged: 1 (USB2+H05261)
Boxcar Smoothing: 0 (USB2+H05261)
Correct for Electrical Dark: No (USB2+H05261)
Strobe/Lamp Enabled: No (USB2+H05261)
Correct for Detector Non-linearity: No (USB2+H05261)
Correct for Stray Light: No (USB2+H05261)
Number of Pixels in Processed Spectrum: 2048
>>>>>Begin Processed Spectral Data<<<<<
365.73	46.81
365.92	46.81
366.12	46.81
366.32	0.00
366.52	0.00
366.72	0.00
366.91	0.00
367.11	0.00
367.31	0.00
367.51	0.00
367.70	0.00
367.90	0.00
368.10	0.00
368.30	0.00
368.49	0.00
368.69	0.00
368.89	0.00
369.09	0.00
369.28	0.00
369.48	0.00
369.68	0.00
369.87	35.11
370.07	0.00
370.27	0.00
370.47	56.17
370.66	212.99
370.86	259.80
371.06	334.70
371.25	341.72
371.45	215.33
371.65	313.63
371.84	266.82
372.04	311.29
372.24	365.12
372.44	379.17
372.63	362.78
372.83	404.91
373.03	465.77
373.22	348.74
373.42	388.53
373.62	376.83
373.81	428.32
374.01	489.17
374.21	435.34
374.40	404.91
374.60	421.30
374.79	493.85
374.99	390.87
375.19	404.91
375.38	454.06
375.58	428.32
375.78	486.83
375.97	566.41
376.17	528.96
376.37	447.04
376.56	404.91
376.76	465.77
376.95	393.21
377.15	493.85
377.35	437.68
377.54	512.58
377.74	528.96
377.93	507.90
378.13	564.07
378.33	489.17
378.52	524.28
378.72	479.81
378.91	533.64
379.11	533.64
379.31	510.24
379.50	477.47
379.70	547.69
379.89	552.37
380.09	587.47
380.28	463.43
380.48	475.13
380.68	510.24
380.87	608.54
381.07	543.00
381.26	592.16
381.46	543.00
381.65	521.94
381.85	606.20
382.04	526.62
382.24	550.03
382.43	505.56
382.63	571.09
382.83	564.07
383.02	547.69
383.22	580.45
383.41	603.86
383.61	664.71
383.80	578.11
384.00	669.39
384.19	608.54
384.39	634.29
384.58	613.22
384.78	674.07
384.97	596.84
385.17	678.76
385.36	559.39
385.56	688.12
385.75	585.13
385.95	624.92
386.14	662.37
386.34	720.88
386.53	650.67
386.72	770.04
386.92	706.84
387.11	709.18
387.31	674.07
387.50	643.65
387.70	727.91
387.89	730.25
388.09	655.35
388.28	699.82
388.48	741.95
388.67	823.87
388.86	723.23
389.06	765.36
389.25	807.48
389.45	777.06
389.64	770.04
389.84	741.95
390.03	734.93
390.22	830.89
390.42	809.83
390.61	802.80
390.81	835.57
391.00	788.76
391.19	866.00
391.39	837.91
391.58	854.30
391.78	891.74
391.97	786.42
392.16	877.70
392.36	896.43
392.55	854.30
392.75	929.19
392.94	802.80
393.13	840.25
393.33	901.11
393.52	828.55
393.71	994.73
393.91	957.28
394.10	868.34
394.29	959.62
394.49	940.90
394.68	1015.79
394.88	978.34
395.07	985.37
395.26	987.71
395.46	994.73
395.65	959.62
395.84	1093.03
396.04	1163.25
396.23	1032.18
396.42	1029.84
396.62	959.62
396.81	1081.33
397.00	999.41
397.19	1025.15
397.39	1057.92
397.58	1111.75
397.77	1062.60
397.97	1174.95
398.16	1008.77
398.35	1139.84
398.55	1074.31
398.74	1172.61
398.93	1170.27
399.12	1207.72
399.32	1170.27
399.51	1167.93
399.70	1238.14
399.90	1266.23
400.09	1252.19
400.28	1296.66
400.47	1336.45
400.67	1247.51
400.86	1301.34
401.05	1259.21
401.24	1303.68
401.44	1329.42
401.63	1416.02
401.82	1366.87
402.01	1331.76
402.21	1315.38
402.40	1427.73
402.59	1343.47
402.78	1315.38
402.97	1282.61
403.17	1401.98
403.36	1404.32
403.55	1474.54
403.74	1404.32
403.93	1617.31
404.13	1409.00
404.32	1493.26
404.51	1542.41
404.70	1610.29
404.89	1476.88
405.09	1678.16
405.28	1509.65
405.47	1596.25
405.66	1680.50
405.85	1610.29
406.05	1575.18
406.24	1678.16
406.43	1692.21
406.62	1671.14
406.81	1785.83
407.00	1699.23
407.20	1678.16
407.39	1785.83
407.58	1673.48
407.77	1792.85
407.96	1753.06
408.15	1778.81
408.34	1792.85
408.54	1898.17
408.73	1893.49
408.92	1811.57
409.11	1991.80
409.30	1884.13
409.49	1912.22
409.68	1963.71
409.87	1933.28
410.07	2064.35
410.26	1991.80
410.45	2033.93
410.64	2050.31
410.83	2033.93
411.02	2111.16
411.21	2162.66
411.40	2172.02
411.59	2181.38
411.78	2186.06
411.98	2157.97
412.17	2263.30
412.36	2221.17
412.55	2324.15
412.74	2370.96
412.93	2342.88
413.12	2363.94
413.31	2490.33
413.50	2448.20
413.69	2452.88
413.88	2450.54
414.07	2483.31
414.26	2539.48
414.45	2429.48
414.64	2607.36
414.83	2640.12
415.02	2597.99
415.22	2654.17
415.41	2679.91
415.60	2700.98
415.79	2801.62
415.98	2775.88
416.17	2752.47
416.36	2766.51
416.55	2839.07
416.74	2904.60
416.93	2792.26
417.12	2834.39
417.31	3023.97
417.50	2949.08
417.69	3012.27
417.88	2977.16
418.07	3098.87
418.26	3056.74
418.45	3159.72
418.64	3122.27
418.83	3136.32
419.02	3122.27
419.21	3040.36
419.39	3164.40
419.58	3059.08
419.77	3133.98
419.96	3323.56
420.15	3351.65
420.34	3225.26
420.53	3269.73
420.72	3421.86
420.91	3281.43
421.10	3267.39
421.29	3405.48
421.48	3269.73
421.67	3417.18
421.86	3461.65
422.05	3501.44
422.24	3339.94
422.43	3407.82
422.61	3323.56
422.80	3534.21
422.99	3482.72
423.18	3442.93
423.37	3583.36
423.56	3538.89
423.75	3489.74
423.94	3424.20
424.13	3274.41
424.32	3363.35
424.50	3536.55
424.69	3599.74
424.88	3574.00
425.07	3494.42
425.26	3398.46
425.45	3478.04
425.64	3545.91
425.83	3435.91
426.01	3632.51
426.20	3562.30
426.39	3543.57
426.58	3550.59
426.77	3576.34
426.96	3524.85
427.15	3681.66
427.33	3520.17
427.52	3698.05
427.71	3765.92
427.90	3826.78
428.09	3784.65
428.28	3772.94
428.46	3758.90
428.65	3861.88
428.84	3936.78
429.03	3946.14
429.22	3880.61
429.40	4032.74
429.59	3908.69
429.78	3847.84
429.97	3588.04
430.16	3786.99
430.34	3985.93
430.53	3875.93
430.72	4030.40
430.91	3918.06
431.10	4025.72
431.28	4086.58
431.47	4166.15
431.66	4166.15
431.85	4292.54
432.03	3995.29
432.22	4393.19
432.41	4182.54
432.60	4191.90
432.79	4149.77
432.97	4229.35
433.16	4175.52
433.35	4257.43
433.54	4404.89
433.72	4210.62
433.91	4365.10
434.10	4337.01
434.28	4227.01
434.47	4341.69
434.66	4395.53
434.85	4339.35
435.03	4491.49
435.22	4442.34
435.41	4772.35
435.59	4599.15
435.78	4484.47
435.97	4610.86
436.16	4692.77
436.34	4559.36
436.53	4561.70
436.72	4884.70
436.90	4601.49
437.09	4812.14
437.28	4594.47
437.46	4723.20
437.65	4627.24
437.84	4655.33
438.02	4868.31
438.21	4753.63
438.40	4840.23
438.58	4844.91
438.77	4973.64
438.96	4833.21
439.14	5139.82
439.33	5083.64
439.52	5156.20
439.70	5310.68
439.89	5203.01
440.08	5235.78
440.26	5193.65
440.45	5146.84
440.63	5411.32
440.82	5289.61
441.01	5373.87
441.19	5432.38
441.38	5551.75
441.57	5612.60
441.75	5455.79
441.94	5678.14
442.12	5533.03
442.31	5870.06
442.50	5731.97
442.68	5647.71
442.87	5837.30
443.05	5788.14
443.24	5746.02
443.43	5895.81
443.61	5804.53
443.80	5900.49
443.98	5703.89
444.17	5680.48
444.35	5944.96
444.54	6054.97
444.73	5895.81
444.91	5856.02
445.10	5806.87
445.28	5944.96
445.47	5902.83
445.65	5851.34
445.84	6054.97
446.02	6104.12
446.21	5886.45
446.39	5956.66
446.58	6024.54
446.77	6146.25
446.95	6071.35
447.14	5975.39
447.32	5970.71
447.51	6115.82
447.69	6218.80
447.88	6003.47
448.06	6008.16
448.25	6216.46
448.43	6090.07
448.62	6214.12
448.80	6071.35
448.99	6352.21
449.17	6190.72
449.36	5949.64
449.54	6452.86
449.73	6532.44
449.91	6321.79
450.10	6384.98
450.28	6476.26
450.46	6356.90
450.65	6558.18
450.83	6375.62
451.02	6370.94
451.20	6520.73
451.39	6581.59
451.57	6392.00
451.76	6448.18
451.94	6590.95
452.13	6551.16
452.31	6602.65
452.49	6544.14
452.68	6860.11
452.86	6431.79
453.05	6464.56
453.23	6743.08
453.42	6642.44
453.60	6808.62
453.78	6839.05
453.97	6668.19
454.15	6773.51
454.34	6686.91
454.52	6920.96
454.70	6942.03
454.89	7023.95
455.07	6871.81
455.26	7098.84
455.44	6890.54
455.62	6981.82
455.81	7145.66
455.99	7185.44
456.17	7171.40
456.36	7206.51
456.54	7145.66
456.73	7293.11
456.91	7316.51
457.09	7440.56
457.28	7590.36
457.46	7400.77
457.64	7555.25
457.83	7520.14
458.01	7400.77
458.19	7782.28
458.38	7616.10
458.56	7604.40
458.74	7573.97
458.93	7655.89
459.11	7529.50
459.29	7489.71
459.48	7637.17
459.66	7602.06
459.84	7747.17
460.03	7899.31
460.21	7566.95
460.39	7726.11
460.57	7908.67
460.76	7777.60
460.94	7988.25
461.12	7756.54
461.31	8138.04
461.49	7903.99
461.67	7927.39
461.85	8187.19
462.04	8152.09
462.22	8645.94
462.40	8215.28
462.59	8215.28
462.77	8182.51
462.95	8182.51
463.13	8250.39
463.32	8339.33
463.50	8397.84
463.68	8280.82
463.86	8526.57
464.05	8280.82
464.23	8425.93
464.41	8552.32
464.59	8184.85
464.78	8603.81
464.96	8514.87
465.14	8166.13
465.32	8514.87
465.50	8564.02
465.69	8702.11
465.87	8542.96
466.05	8538.27
466.23	8578.06
466.41	8837.86
466.60	8854.25
466.78	8631.90
466.96	8711.47
467.14	8631.90
467.32	8926.80
467.51	8830.84
467.69	8727.86
467.87	8966.59
468.05	9074.26
468.23	8610.83
468.41	8631.90
468.60	8973.61
468.78	9015.74
468.96	8987.66
469.14	9195.96
469.32	9142.13
469.50	8910.42
469.69	9341.08
469.87	9387.89
470.05	9411.29
470.23	9280.22
470.41	9364.48
470.59	9256.82
470.77	9523.64
470.95	9493.21
471.14	9902.81
471.32	9628.96
471.50	9638.33
471.68	9771.74
471.86	9617.26
472.04	9769.40
472.22	9825.57
472.40	9533.00
472.58	9820.89
472.77	9827.91
472.95	10078.35
473.13	10293.68
473.31	9778.76
473.49	9813.87
473.67	10190.69
473.85	10270.27
474.03	10277.29
474.21	10375.59
474.39	10438.79
474.57	10396.66
474.75	10513.69
474.93	10562.84
475.12	10546.45
475.30	10686.89
475.48	10832.00
475.66	10827.32
475.84	10862.43
476.02	10729.02
476.20	10949.03
476.38	11103.50
476.56	11002.86
476.74	11239.25
476.92	11136.27
477.10	11236.91
477.28	11595.01
477.46	11506.07
477.64	11639.48
477.82	11646.51
478.00	11648.85
478.18	11946.09
478.36	12002.27
478.54	12035.03
478.72	12046.74
478.90	12245.68
479.08	12423.56
479.26	12524.21
479.44	12716.13
479.62	12608.47
479.80	12779.32
479.98	12767.62
480.16	12781.67
480.34	12865.92
480.52	13303.60
480.70	13296.58
480.88	12999.34
481.06	13390.20
481.24	13291.90
481.41	13451.06
481.59	13619.58
481.77	13671.07
481.95	13713.20
482.13	13752.99
482.31	13923.85
482.49	14265.57
482.67	14387.27
482.85	14347.48
483.03	14523.02
483.21	14614.30
483.39	14981.77
483.57	14963.04
483.74	15040.28
483.92	15220.50
484.10	14944.32
484.28	15419.45
484.46	15520.09
484.64	15679.25
484.82	15580.95
485.00	15644.14
485.18	15943.73
485.35	16107.57
485.53	16262.04
485.71	16336.94
485.89	16631.85
486.07	16201.19
486.25	16685.68
486.43	16727.81
486.61	17018.04
486.78	16851.86
486.96	17064.85
487.14	17401.88
487.32	17174.85
487.50	17479.12
487.68	17593.81
487.85	17879.35
488.03	17902.76
488.21	18590.88
488.39	18420.02
488.57	18221.07
488.75	18728.97
488.92	18759.39
489.10	18661.09
489.28	19096.43
489.46	19014.51
489.64	19080.05
489.81	19456.87
489.99	19761.14
490.17	19503.68
490.35	19803.27
490.53	19962.43
490.70	20065.41
490.88	20004.56
491.06	20383.73
491.24	20290.10
491.41	20636.50
491.59	20870.56
491.77	20460.96
491.95	21231.00
492.13	21226.32
492.30	21223.98
492.48	20950.14
492.66	21214.62
492.84	21523.57
493.01	21336.32
493.19	21652.30
493.37	21841.88
493.54	22183.60
493.72	22326.37
493.90	22232.75
494.08	22649.36
494.25	22583.83
494.43	22876.40
494.61	22937.25
494.79	23124.49
494.96	22991.08
495.14	23140.88
495.32	23637.07
495.49	23632.39
495.67	23702.61
495.85	23627.71
496.02	23950.70
496.20	24217.52
496.38	23992.83
496.55	24376.68
496.73	24732.44
496.91	24276.04
497.09	24844.79
497.26	24926.71
497.44	24741.80
497.62	24952.45
497.79	25322.26
497.97	25160.76
498.14	25696.74
498.32	25912.07
498.50	25776.32
498.67	25659.29
498.85	26118.04
499.03	25888.67
499.20	26190.59
499.38	26356.77
499.56	26047.82
499.73	26525.29
499.91	26581.46
500.08	26696.15
500.26	26473.80
500.44	26539.33
500.61	26953.61
500.79	26721.90
500.97	26855.31
501.14	27730.67
501.32	26944.25
501.49	27314.05
501.67	27360.86
501.84	27417.04
502.02	27601.94
502.20	27601.94
502.37	28144.94
502.55	27999.83
502.72	28219.84
502.90	28114.52
503.07	27779.82
503.25	28142.60
503.43	28350.91
503.60	28320.48
503.78	28594.32
503.95	29027.32
504.13	28657.52
504.30	29013.28
504.48	28716.03
504.65	29219.25
504.83	29457.98
505.01	29537.56
505.18	29149.03
505.36	29619.48
505.53	29380.74
505.71	29612.46
505.88	29694.38
506.06	29427.56
506.23	29895.66
506.41	29764.59
506.58	30286.53
506.76	30190.57
506.93	29757.57
507.11	30045.46
507.28	30679.74
507.46	30480.80
507.63	30239.72
507.81	31014.44
507.98	30712.51
508.16	31033.16
508.33	30859.96
508.50	30953.58
508.68	31061.25
508.85	31456.80
509.03	31421.69
509.20	31660.43
509.38	31414.67
509.55	32245.56
509.73	31796.18
509.90	31936.61
510.08	32112.15
510.25	32046.62
510.42	32058.32
510.60	32343.86
510.77	32416.42
510.95	32098.11
511.12	32212.79
511.30	32575.58
511.47	32531.11
511.64	32526.42
511.82	32802.61
511.99	32861.12
512.17	32999.21
512.34	32907.93
512.51	33268.37
512.69	33507.11
512.86	33294.12
513.04	33675.63
513.21	33614.77
513.38	34150.76
513.56	33490.73
513.73	33764.57
513.90	33804.36
514.08	33818.40
514.25	34155.44
514.43	34534.60
514.60	33979.90
514.77	34242.04
514.95	34316.93
515.12	34518.22
515.29	34403.53
515.47	34382.47
515.64	35136.12
515.81	34925.47
515.99	35023.78
516.16	34836.53
516.33	35257.83
516.51	35339.75
516.68	34766.32
516.85	35082.29
517.03	35161.87
517.20	35723.60
517.37	35625.29
517.54	35971.69
517.72	35665.08
517.89	35318.68
518.06	36006.80
518.24	36191.70
518.41	35864.03
518.58	35711.89
518.75	35896.80
518.93	36095.74
519.10	36027.87
519.27	36182.34
519.45	36346.18
519.62	36442.14
519.79	36390.65
519.96	36907.91
520.14	36870.46
520.31	36680.88
520.48	37067.06
520.65	36655.13
520.83	37471.98
521.00	37184.09
521.17	36919.61
521.34	36900.89
521.52	37474.32
521.69	37340.91
521.86	37603.05
522.03	37638.15
522.20	37708.37
522.38	37521.13
522.55	37865.19
522.72	37865.19
522.89	37778.59
523.07	37883.91
523.24	38155.41
523.41	38132.01
523.58	38000.94
523.75	38281.80
523.92	38307.55
524.10	38389.47
524.27	38373.08
524.44	38607.14
524.61	38611.82
524.78	38852.89
524.96	38618.84
525.13	38866.94
525.30	38810.76
525.47	38740.55
525.64	38923.11
525.81	39086.95
525.98	39344.41
526.16	39480.16
526.33	39318.66
526.50	39569.10
526.67	39026.09
526.84	39463.77
527.01	39248.44
527.18	39651.02
527.36	39889.75
527.53	39569.10
527.70	40086.36
527.87	40369.56
528.04	39721.23
528.21	39697.83
528.38	39971.67
528.55	39592.50
528.72	40187.00
528.89	40304.02
529.07	40348.50
529.24	40289.98
529.41	40748.73
529.58	40559.14
529.75	40584.89
529.92	40306.37
530.09	40828.30
530.26	40428.07
530.43	40526.38
530.60	40760.43
530.77	40641.06
530.94	40662.13
531.11	40802.56
531.28	40783.83
531.46	41361.95
531.63	40996.82
531.80	41516.42
531.97	41490.68
532.14	41237.90
532.31	41364.29
532.48	40844.69
532.65	41247.26
532.82	41165.34
532.99	41621.75
533.16	41570.25
533.33	41876.86
533.50	41895.59
533.67	41935.38
533.84	41497.70
534.01	41808.99
534.18	41296.41
534.35	42003.25
534.52	41947.08
534.69	42770.95
534.86	42597.75
535.03	42618.81
535.20	42459.66
535.37	42239.65
535.54	42546.26
535.71	42085.17
535.88	42249.01
536.05	42674.99
536.22	42740.52
536.38	43077.56
536.55	42953.51
536.72	42869.25
536.89	42195.18
537.06	42787.33
537.23	43335.02
537.40	42983.94
537.57	42731.16
537.74	43459.07
537.91	43618.22
538.08	43718.87
538.25	43459.07
538.42	43154.80
538.59	43339.70
538.75	43100.97
538.92	43105.65
539.09	43365.45
539.26	43901.43
539.43	43225.01
539.60	43583.12
539.77	43445.02
539.94	43592.48
540.11	43945.90
540.28	43983.35
540.44	43964.62
540.61	44142.50
540.78	44137.82
540.95	43878.02
541.12	44137.82
541.29	43896.75
541.46	44149.53
541.62	44163.57
541.79	43805.47
541.96	43849.94
542.13	44128.46
542.30	44467.84
542.47	44619.97
542.63	44465.50
542.80	44533.37
542.97	44821.26
543.14	44896.16
543.31	44900.84
543.48	44435.07
543.64	45406.39
543.81	45443.84
543.98	44769.77
544.15	44907.86
544.32	45748.11
544.48	45581.93
544.65	45123.19
544.82	45177.02
544.99	44779.13
545.16	45148.93
545.32	45305.75
545.49	45790.24
545.66	46120.26
545.83	45518.74
546.00	45787.90
546.16	45588.95
546.33	45453.20
546.50	45265.96
546.67	45876.84
546.83	44903.18
547.00	45670.87
547.17	45865.14
547.34	46089.83
547.50	45387.67
547.67	46085.15
547.84	45741.09
548.00	46326.22
548.17	46337.93
548.34	45762.15
548.51	46534.53
548.67	46513.47
548.84	46658.58
549.01	46160.05
549.18	46384.74
549.34	45787.90
549.51	45951.74
549.68	46408.14
549.84	46295.80
550.01	46511.13
550.18	46274.73
550.34	46848.16
550.51	46653.90
550.68	46454.95
550.84	46642.20
551.01	46897.31
551.18	46410.48
551.34	46454.95
551.51	47103.28
551.68	46791.99
551.84	46801.35
552.01	46799.01
552.18	46719.43
552.34	46733.48
552.51	47100.94
552.68	46916.04
552.84	46930.08
553.01	47318.61
553.18	47505.85
553.34	47086.90
553.51	47103.28
553.67	47360.74
553.84	47447.34
554.01	47220.31
554.17	47512.88
554.34	47367.76
554.51	47358.40
554.67	47592.45
554.84	47627.56
555.00	47276.48
555.17	47435.64
555.33	47449.68
555.50	47459.04
555.67	47550.32
555.83	48053.54
556.00	47613.52
556.16	47751.61
556.33	47669.69
556.50	47875.66
556.66	48076.94
556.83	47452.02
556.99	48170.57
557.16	48086.31
557.32	47920.13
557.49	47896.72
557.65	47545.64
557.82	47339.68
557.98	47997.37
558.15	47772.67
558.32	48093.33
558.48	47950.56
558.65	47786.72
558.81	47910.77
558.98	48156.52
559.14	47976.30
559.31	48093.33
559.47	48051.20
559.64	48252.48
559.80	48126.10
559.97	48421.00
560.13	48519.31
560.30	48425.68
560.46	48032.47
560.63	48215.04
560.79	48325.04
560.96	48467.81
561.12	48114.39
561.29	47707.14
561.45	48495.90
561.61	48713.57
561.78	48561.44
561.94	48772.08
562.11	48690.16
562.27	48385.89
562.44	48126.10
562.60	48413.98
562.77	48760.38
562.93	48559.09
563.10	48751.02
563.26	48638.67
563.42	48664.42
563.59	48879.75
563.75	48877.41
563.92	48622.29
564.08	48587.18
564.24	48584.84
564.41	48444.41
564.57	48842.30
564.74	48596.54
564.90	48956.99
565.07	49045.93
565.23	49247.21
565.39	48938.26
565.56	48854.00
565.72	48961.67
565.88	48954.64
566.05	48463.13
566.21	48650.38
566.38	48818.89
566.54	48666.76
566.70	49397.01
566.87	48938.26
567.03	48982.73
567.19	49177.00
567.36	48921.88
567.52	48933.58
567.68	48982.73
567.85	48992.09
568.01	48711.23
568.17	49162.95
568.34	49022.52
568.50	49385.30
568.66	49169.97
568.83	49282.32
568.99	49036.56
569.15	49062.31
569.32	48971.03
569.48	48495.90
569.64	49174.66
569.81	49375.94
569.97	48945.28
570.13	49464.88
570.30	49102.10
570.46	49160.61
570.62	49338.49
570.78	48751.02
570.95	48893.79
571.11	49113.80
571.27	48706.55
571.43	49235.51
571.60	49158.27
571.76	49268.28
571.92	49544.46
572.09	49294.02
572.25	49137.21
572.41	49488.29
572.57	49581.91
572.74	49308.07
572.90	48896.13
573.06	49432.11
573.22	49188.70
573.38	49443.82
573.55	49380.62
573.71	50244.28
573.87	49350.20
574.03	49504.67
574.20	49195.72
574.36	49347.86
574.52	49186.36
574.68	49282.32
574.84	49490.63
575.01	49766.81
575.17	49181.68
575.33	49420.41
575.49	49563.18
575.65	49652.12
575.82	49584.25
575.98	49195.72
576.14	49539.78
576.30	49729.36
576.46	49617.02
576.62	49022.52
576.79	49542.12
576.95	49371.26
577.11	49408.71
577.27	49626.38
577.43	49230.83
577.59	49684.89
577.75	49223.81
577.92	49308.07
578.08	49111.46
578.24	49504.67
578.40	49610.00
578.56	49687.23
578.72	49975.12
578.88	50134.28
579.04	49773.83
579.21	49570.21
579.37	49022.52
579.53	49689.57
579.69	49270.62
579.85	49499.99
580.01	49745.75
580.17	49425.09
580.33	49584.25
580.49	49478.92
580.65	49783.19
580.82	49940.01
580.98	49420.41
581.14	49340.83
581.30	49689.57
581.46	49268.28
581.62	49317.43
581.78	49212.10
581.94	49682.55
582.10	49499.99
582.26	49577.23
582.42	49736.38
582.58	49778.51
582.74	49804.26
582.90	49804.26
583.06	49778.51
583.22	49619.36
583.38	49563.18
583.54	50073.42
583.70	49415.73
583.86	49965.76
584.02	49490.63
584.18	49467.22
584.34	49771.49
584.50	50167.04
584.66	49661.49
584.82	49352.54
584.98	49673.19
585.14	49514.03
585.30	49308.07
585.46	49511.69
585.62	49565.52
585.78	50082.78
585.94	49785.54
586.10	49851.07
586.26	49698.94
586.42	50101.51
586.58	49542.12
586.74	49586.59
586.90	49902.56
587.06	49764.47
587.22	50014.91
587.38	49588.93
587.54	49949.37
587.70	50057.04
587.86	50122.57
588.02	49490.63
588.18	50101.51
588.34	49977.46
588.49	49663.83
588.65	49343.17
588.81	49815.96
588.97	49762.13
589.13	49886.18
589.29	49893.20
589.45	49567.87
589.61	49918.95
589.77	50155.34
589.93	49928.31
590.08	50389.39
590.24	50225.56
590.40	50162.36
590.56	49820.64
590.72	49815.96
590.88	49935.33
591.04	50057.04
591.20	50160.02
591.35	50361.31
591.51	50534.51
591.67	50277.05
591.83	50281.73
591.99	50337.90
592.15	50007.89
592.31	50291.09
592.46	49874.48
592.62	50174.06
592.78	50230.24
592.94	49883.84
593.10	50035.97
593.26	50490.04
593.41	50216.19
593.57	49998.52
593.73	50202.15
593.89	50209.17
594.05	50176.40
594.20	49855.75
594.36	50319.18
594.52	50071.08
594.68	49998.52
594.84	49680.21
594.99	50253.64
595.15	50160.02
595.31	50188.11
595.47	50103.85
595.62	50459.61
595.78	49867.45
595.94	49996.18
596.10	50323.86
596.25	50253.64
596.41	50085.12
596.57	50057.04
596.73	50148.32
596.88	50033.63
597.04	50410.46
597.20	50548.55
597.36	50206.83
597.51	50511.10
597.67	50244.28
597.83	49989.16
597.99	50000.86
598.14	49996.18
598.30	50164.70
598.46	50085.12
598.61	50291.09
598.77	49822.98
598.93	50323.86
599.09	50466.63
599.24	50756.86
599.40	50040.65
599.56	50499.40
599.71	50101.51
599.87	50106.19
600.03	49771.49
600.18	50424.50
600.34	50504.08
600.50	50145.98
600.65	50057.04
600.81	50536.85
600.97	50408.12
601.12	50380.03
601.28	50429.18
601.44	50286.41
601.59	50281.73
601.75	50255.98
601.91	50869.20
602.06	50349.60
602.22	49935.33
602.37	50265.34
602.53	50569.61
602.69	50534.51
602.84	50405.78
603.00	50234.92
603.16	50209.17
603.31	50780.26
603.47	50274.71
603.62	50162.36
603.78	50113.21
603.94	49996.18
604.09	49930.65
604.25	49815.96
604.40	50157.68
604.56	50183.43
604.71	50478.33
604.87	50024.27
605.03	50452.59
605.18	50244.28
605.34	50014.91
605.49	49607.65
605.65	50185.77
605.80	50274.71
605.96	50185.77
606.12	50007.89
606.27	50564.93
606.43	49979.80
606.58	50050.02
606.74	50614.08
606.89	50274.71
607.05	50117.89
607.20	50281.73
607.36	50291.09
607.51	50171.72
607.67	49647.44
607.82	49996.18
607.98	49647.44
608.13	49897.88
608.29	49331.47
608.44	50085.12
608.60	50014.91
608.75	49872.14
608.91	50169.38
609.06	49441.48
609.22	49879.16
609.37	49471.90
609.53	49666.17
609.68	49942.35
609.84	49581.91
609.99	50286.41
610.15	49844.05
610.30	49998.52
610.46	49808.94
610.61	49712.98
610.76	49539.78
610.92	49647.44
611.07	49942.35
611.23	49902.56
611.38	49397.01
611.54	49504.67
611.69	49528.08
611.84	49467.22
612.00	49556.16
612.15	49502.33
612.31	49982.14
612.46	49483.61
612.62	49804.26
612.77	49759.79
612.92	49975.12
613.08	49703.62
613.23	49556.16
613.39	49696.59
613.54	49352.54
613.69	49516.37
613.85	49357.22
614.00	49780.85
614.15	49523.40
614.31	49612.34
614.46	49670.85
614.62	49858.09
614.77	49434.45
614.92	49392.33
615.08	49102.10
615.23	49345.51
615.38	49528.08
615.54	48776.76
615.69	49226.15
615.84	49301.04
616.00	49186.36
616.15	49265.94
616.30	49687.23
616.46	49511.69
616.61	49385.30
616.76	49167.63
616.92	49350.20
617.07	49184.02
617.22	49270.62
617.37	49048.27
617.53	49134.87
617.68	48919.54
617.83	49029.54
617.99	49141.89
618.14	49556.16
618.29	48739.32
618.45	49219.13
618.60	49102.10
618.75	48659.74
618.90	48690.16
619.06	48673.78
619.21	48739.32
619.36	49041.24
619.51	48779.10
619.67	48460.79
619.82	48528.67
619.97	48725.27
620.12	48699.53
620.28	48200.99
620.43	48924.22
620.58	49165.29
620.73	48797.83
620.89	49034.22
621.04	48947.62
621.19	48734.63
621.34	48671.44
621.49	48018.43
621.65	48580.16
621.80	48603.56
621.95	48334.40
622.10	48196.31
622.25	48023.11
622.41	48189.29
622.56	48353.13
622.71	48119.07
622.86	47807.78
623.01	48219.72
623.16	48229.08
623.32	48037.16
623.47	48369.51
623.62	48208.01
623.77	47674.37
623.92	48240.78
624.07	48315.68
624.23	47873.32
624.38	48313.34
624.53	48460.79
624.68	48226.74
624.83	48226.74
624.98	47978.64
625.13	47938.85
625.29	47803.10
625.44	48062.90
625.59	47503.51
625.74	47847.57
625.89	47636.92
626.04	47908.43
626.19	47849.91
626.34	47456.70
626.49	47379.46
626.65	47763.31
626.80	47838.21
626.95	47955.24
627.10	47501.17
627.25	47297.55
627.40	47583.09
627.55	47065.83
627.70	46890.29
627.85	47632.24
628.00	47571.39
628.15	47421.59
628.30	47721.18
628.45	47927.15
628.60	46698.37
628.76	47079.88
628.91	47540.96
629.06	47377.12
629.21	47449.68
629.36	47103.28
629.51	47037.75
629.66	47077.54
629.81	47217.97
629.96	47196.90
630.11	47274.14
630.26	47103.28
630.41	46953.49
630.56	46529.85
630.71	46555.60
630.86	47140.73
631.01	47271.80
631.16	46855.18
631.31	47063.49
631.46	47365.42
631.61	46958.17
631.76	47007.32
631.91	46796.67
632.06	46824.76
632.21	46649.22
632.36	47150.09
632.51	46466.66
632.66	47136.05
632.81	46478.36
632.96	46773.27
633.10	46628.15
633.25	46698.37
633.40	46787.31
633.55	46789.65
633.70	46174.09
633.85	46185.79
634.00	46424.53
634.15	46298.14
634.30	46157.70
634.45	46286.43
634.60	46604.75
634.75	46579.00
634.90	46401.12
635.05	46382.40
635.19	46087.49
635.34	46082.81
635.49	46021.95
635.64	46080.47
635.79	45663.85
635.94	45495.33
636.09	45780.88
636.24	45764.49
636.39	45680.24
636.53	45434.48
636.68	46028.98
636.83	46131.96
636.98	46174.09
637.13	45940.04
637.28	46375.37
637.43	45261.28
637.57	45986.85
637.72	45684.92
637.87	45933.01
638.02	45497.67
638.17	45610.02
638.32	45982.16
638.46	45640.45
638.61	45521.08
638.76	45455.54
638.91	45567.89
639.06	46131.96
639.20	45572.57
639.35	45947.06
639.50	45563.21
639.65	45778.54
639.80	46024.29
639.94	45518.74
640.09	45081.06
640.24	45010.84
640.39	44842.32
640.54	44966.37
640.68	44669.12
640.83	45324.47
640.98	44931.26
641.13	44790.83
641.27	45766.84
641.42	44928.92
641.57	44811.90
641.72	45258.94
641.86	45230.85
642.01	44933.60
642.16	44917.22
642.31	44737.00
642.45	44727.64
642.60	44278.25
642.75	44477.20
642.90	44744.02
643.04	44919.56
643.19	44762.75
643.34	44795.51
643.48	44907.86
643.63	44795.51
643.78	44587.21
643.93	44947.65
644.07	44872.75
644.22	44706.57
644.37	44949.99
644.51	45090.42
644.66	44170.59
644.81	44610.61
644.95	44545.08
645.10	44360.17
645.25	44006.75
645.39	44680.83
645.54	44821.26
645.69	44772.11
645.83	45059.99
645.98	44594.23
646.13	44552.10
646.27	44416.35
646.42	44273.57
646.57	44226.76
646.71	44406.98
646.86	44308.68
647.00	44126.12
647.15	44348.47
647.30	43805.47
647.44	43686.10
647.59	43880.36
647.74	44116.76
647.88	44212.72
648.03	44074.63
648.17	44201.02
648.32	43943.56
648.47	44278.25
648.61	43880.36
648.76	44219.74
648.90	43625.25
649.05	43910.79
649.20	43784.40
649.34	43863.98
649.49	43908.45
649.63	43267.14
649.78	43555.03
649.92	43772.70
650.07	44098.03
650.21	43107.99
650.36	43693.12
650.51	43517.58
650.65	43625.25
650.80	43573.75
650.94	43828.87
651.09	43543.33
651.23	43335.02
651.38	43807.81
651.52	43391.19
651.67	43496.52
651.81	43255.44
651.96	43203.95
652.10	43021.39
652.25	43337.36
652.39	43695.46
652.54	43330.34
652.68	43379.49
652.83	43138.41
652.97	43409.92
653.12	43131.39
653.26	42899.68
653.41	43047.13
653.55	43150.12
653.70	43222.67
653.84	42937.13
653.99	42747.54
654.13	42721.80
654.27	42726.48
654.42	42501.79
654.56	42792.01
654.71	43180.54
654.85	42887.98
655.00	43082.24
655.14	43129.05
655.29	42293.48
655.43	42251.35
655.57	42246.67
655.72	42139.00
655.86	42586.05
656.01	42164.75
656.15	42014.96
656.30	42574.34
656.44	42286.46
656.58	42607.11
656.73	42344.97
656.87	42342.63
657.01	42534.56
657.16	42719.46
657.30	42691.37
657.45	42506.47
657.59	42586.05
657.73	42384.76
657.88	42424.55
658.02	42218.58
658.16	42148.37
658.31	41841.76
658.45	41827.71
658.60	41572.60
658.74	42129.64
658.88	42279.44
659.03	41511.74
659.17	41848.78
659.31	41741.11
659.46	41399.40
659.60	41893.25
659.74	41670.90
659.89	41593.66
660.03	41570.25
660.17	41586.64
660.32	41399.40
660.46	41111.51
660.60	41212.15
660.74	40732.34
660.89	41277.69
661.03	40919.59
661.17	41413.44
661.32	41380.67
661.46	41167.68
661.60	41163.00
661.74	41193.43
661.89	40989.80
662.03	41153.64
662.17	40790.86
662.31	40676.17
662.46	40664.47
662.60	40620.00
662.74	40172.96
662.88	40182.32
663.03	40091.04
663.17	39929.54
663.31	39892.09
663.45	40009.12
663.60	40016.14
663.74	40133.17
663.88	40250.19
664.02	39943.58
664.17	40409.35
664.31	39854.64
664.45	39955.29
664.59	40273.60
664.73	40062.95
664.88	39981.03
665.02	39386.54
665.16	39154.82
665.30	39571.44
665.44	39196.95
665.59	39054.18
665.73	39508.24
665.87	39225.04
666.01	39442.71
666.15	39276.53
666.29	39330.36
666.44	39611.23
666.58	39215.68
666.72	39084.61
666.86	39475.48
667.00	39618.25
667.14	38885.66
667.28	38836.51
667.43	38693.74
667.57	39236.74
667.71	38651.61
667.85	38637.56
667.99	38408.19
668.13	38305.21
668.27	38541.60
668.41	38298.19
668.56	37940.08
668.70	38534.58
668.84	38480.75
668.98	38195.20
669.12	38391.81
669.26	38384.79
669.40	38031.36
669.54	38103.92
669.68	37640.50
669.82	37516.45
669.96	38075.84
670.10	37881.57
670.25	37790.29
670.39	37790.29
670.53	37612.41
670.67	37333.89
670.81	37764.54
670.95	37371.33
671.09	37476.66
671.23	37397.08
671.37	37474.32
671.51	37350.27
671.65	37198.13
671.79	37158.34
671.93	36793.22
672.07	37207.50
672.21	36636.41
672.35	36552.15
672.49	36713.64
672.63	36687.90
672.77	36364.90
672.91	36725.35
673.05	36385.97
673.19	36795.56
673.33	36371.92
673.47	36243.20
673.61	36154.26
673.75	36364.90
673.89	36247.88
674.03	36297.03
674.17	36023.19
674.31	35901.48
674.45	35683.81
674.59	35793.81
674.73	35424.01
674.87	35580.82
675.01	35299.96
675.15	35234.42
675.29	34862.28
675.43	35426.35
675.56	35367.84
675.70	35611.25
675.84	35358.47
675.98	33940.11
676.12	34881.00
676.26	34876.32
676.40	34473.75
676.54	34408.22
676.68	34923.13
676.82	33652.22
676.96	34066.50
677.10	34333.32
677.23	33930.75
677.37	33832.44
677.51	33483.70
677.65	33521.15
677.79	33097.52
677.93	33689.67
678.07	33713.08
678.21	33055.39
678.34	33429.87
678.48	33268.37
678.62	32950.06
678.76	32865.80
678.90	32699.62
679.04	32496.00
679.18	32641.11
679.31	32498.34
679.45	32170.66
679.59	31868.73
679.73	32051.30
679.87	31943.63
680.00	32048.96
680.14	32051.30
680.28	31517.65
680.42	31967.04
680.56	32009.17
680.70	31660.43
680.83	31796.18
680.97	32041.93
681.11	31964.70
681.25	31468.50
681.39	31129.12
681.52	31531.70
681.66	30897.41
681.80	30661.02
681.94	30433.99
682.07	30672.72
682.21	30274.83
682.35	30529.95
682.49	30682.08
682.62	30197.59
682.76	30412.92
682.90	30490.16
683.04	29956.52
683.17	29661.61
683.31	30089.93
683.45	30101.63
683.59	29762.25
683.72	29771.61
683.86	29394.79
684.00	29233.29
684.13	29172.44
684.27	29371.38
684.41	28503.04
684.55	28716.03
684.68	28844.76
684.82	28442.19
684.96	28383.68
685.09	28252.61
685.23	28173.03
685.37	28549.85
685.50	28360.27
685.64	28187.07
685.78	28128.56
685.91	28290.06
686.05	27976.42
686.19	28322.82
686.32	27770.46
686.46	27328.10
686.60	27524.70
686.73	27300.01
686.87	27246.18
687.01	27393.63
687.14	27292.99
687.28	27328.10
687.42	27131.49
687.55	26686.79
687.69	27211.07
687.82	26806.16
687.96	26843.60
688.10	26316.98
688.23	26668.06
688.37	26504.23
688.50	26366.13
688.64	26326.35
688.78	26258.47
688.91	25895.69
689.05	25750.57
689.18	25633.55
689.32	25053.09
689.46	25312.89
689.59	25261.40
689.73	25696.74
689.86	25420.56
690.00	25212.25
690.13	25628.87
690.27	25132.67
690.41	25165.44
690.54	24858.83
690.68	24800.32
690.81	25153.74
690.95	25284.81
691.08	25142.03
691.22	24767.55
691.35	24383.70
691.49	24685.63
691.62	24535.84
691.76	24123.90
691.89	24102.84
692.03	24027.94
692.16	23775.16
692.30	23765.80
692.43	23655.79
692.57	23616.01
692.70	23506.00
692.84	23662.82
692.97	23274.29
693.11	23335.14
693.24	23248.54
693.38	23337.48
693.51	23194.71
693.65	23157.26
693.78	23278.97
693.92	23098.75
694.05	22888.10
694.19	22604.89
694.32	22731.28
694.45	22384.88
694.59	22401.27
694.72	22298.28
694.86	22089.98
694.99	21937.84
695.13	21820.81
695.26	21986.99
695.39	21645.27
695.53	21958.91
695.66	21661.66
695.80	21631.23
695.93	21610.17
696.07	21043.76
696.20	21195.89
696.33	21364.41
696.47	21095.25
696.60	21088.23
696.73	21294.19
696.87	21303.56
697.00	20835.45
697.14	20479.69
697.27	20360.32
697.40	20467.98
697.54	20327.55
697.67	20264.36
697.80	20142.65
697.94	19857.10
698.07	19850.08
698.21	19960.09
698.34	20489.05
698.47	20196.48
698.61	19889.87
698.74	19929.66
698.87	19756.46
699.01	19440.49
699.14	19229.84
699.27	19178.35
699.40	19269.63
699.54	19096.43
699.67	18941.96
699.80	19119.84
699.94	19002.81
700.07	19131.54
700.20	18721.95
700.34	18307.67
700.47	18710.24
700.60	18780.46
700.73	18450.44
700.87	18504.28
701.00	18272.56
701.13	18288.95
701.26	18253.84
701.40	18228.09
701.53	17944.89
701.66	17853.61
701.79	17816.16
701.93	17881.69
702.06	17724.88
702.19	17338.69
702.32	17696.79
702.46	17245.07
702.59	17142.08
702.72	17273.15
702.85	17106.98
702.99	16842.50
703.12	17231.02
703.25	16966.54
703.38	17111.66
703.51	16950.16
703.65	16819.09
703.78	16692.70
703.91	16713.77
704.04	16957.18
704.17	16362.69
704.31	16119.27
704.44	16416.52
704.57	16390.77
704.70	16432.90
704.83	16479.71
704.96	15861.81
705.10	16070.12
705.23	15962.45
>>>>>End Processed Spectral Data<<<<<
