SpectraSuite Data File
++++++++++++++++++++++++++++++++++++
Date: Fri Oct 04 11:48:30 GMT-05:00 2013
User: price-jones
Dark Spectrum Present: No
Reference Spectrum Present: No
Number of Sampled Component Spectra: 1
Spectrometers: USB2+H05261
Integration Time (usec): 100000 (USB2+H05261)
Spectra Averaged: 1 (USB2+H05261)
Boxcar Smoothing: 0 (USB2+H05261)
Correct for Electrical Dark: No (USB2+H05261)
Strobe/Lamp Enabled: No (USB2+H05261)
Correct for Detector Non-linearity: No (USB2+H05261)
Correct for Stray Light: No (USB2+H05261)
Number of Pixels in Processed Spectrum: 2048
>>>>>Begin Processed Spectral Data<<<<<
365.73	18.72
365.92	18.72
366.12	18.72
366.32	0.00
366.52	0.00
366.72	0.00
366.91	0.00
367.11	0.00
367.31	0.00
367.51	0.00
367.70	0.00
367.90	0.00
368.10	0.00
368.30	0.00
368.49	0.00
368.69	0.00
368.89	0.00
369.09	0.00
369.28	0.00
369.48	0.00
369.68	0.00
369.87	0.00
370.07	0.00
370.27	65.54
370.47	46.81
370.66	322.99
370.86	486.83
371.06	491.51
371.25	496.19
371.45	451.72
371.65	402.57
371.84	437.68
372.04	545.34
372.24	430.66
372.44	517.26
372.63	519.60
372.83	540.66
373.03	540.66
373.22	465.77
373.42	531.30
373.62	554.71
373.81	622.58
374.01	587.47
374.21	603.86
374.40	702.16
374.60	631.94
374.79	564.07
374.99	566.41
375.19	683.44
375.38	683.44
375.58	622.58
375.78	711.52
375.97	704.50
376.17	620.24
376.37	695.14
376.56	704.50
376.76	713.86
376.95	730.25
377.15	716.20
377.35	704.50
377.54	791.10
377.74	692.80
377.93	741.95
378.13	676.41
378.33	779.40
378.52	786.42
378.72	718.54
378.91	704.50
379.11	739.61
379.31	671.73
379.50	854.30
379.70	732.59
379.89	840.25
380.09	709.18
380.28	748.97
380.48	732.59
380.68	798.12
380.87	802.80
381.07	777.06
381.26	807.48
381.46	760.67
381.65	802.80
381.85	737.27
382.04	905.79
382.24	959.62
382.43	898.77
382.63	795.78
382.83	882.38
383.02	873.02
383.22	884.72
383.41	940.90
383.61	910.47
383.80	891.74
384.00	896.43
384.19	987.71
384.39	908.13
384.58	870.68
384.78	936.21
384.97	978.34
385.17	994.73
385.36	992.39
385.56	1060.26
385.75	957.28
385.95	905.79
386.14	980.68
386.34	936.21
386.53	1107.07
386.72	994.73
386.92	1090.69
387.11	999.41
387.31	1090.69
387.50	1144.52
387.70	1118.78
387.89	1093.03
388.09	961.96
388.28	1076.65
388.48	1107.07
388.67	1048.56
388.86	1116.44
389.06	1137.50
389.25	1221.76
389.45	1132.82
389.64	1174.95
389.84	1259.21
390.03	1142.18
390.22	1203.04
390.42	1291.98
390.61	1118.78
390.81	1210.06
391.00	1270.91
391.19	1376.24
391.39	1214.74
391.58	1186.65
391.78	1266.23
391.97	1273.25
392.16	1294.32
392.36	1291.98
392.55	1387.94
392.75	1366.87
392.94	1256.87
393.13	1427.73
393.33	1313.04
393.52	1315.38
393.71	1397.30
393.91	1355.17
394.10	1425.39
394.29	1406.66
394.49	1378.58
394.68	1467.52
394.88	1423.05
395.07	1565.82
395.26	1413.68
395.46	1409.00
395.65	1509.65
395.84	1540.07
396.04	1605.61
396.23	1437.09
396.42	1476.88
396.62	1600.93
396.81	1565.82
397.00	1526.03
397.19	1619.65
397.39	1636.03
397.58	1668.80
397.77	1626.67
397.97	1626.67
398.16	1664.12
398.35	1701.57
398.55	1654.76
398.74	1668.80
398.93	1664.12
399.12	1781.15
399.32	1661.78
399.51	1806.89
399.70	1872.43
399.90	1778.81
400.09	1952.01
400.28	1886.47
400.47	1856.04
400.67	1877.11
400.86	1827.96
401.05	1802.21
401.24	1987.11
401.44	1926.26
401.63	1952.01
401.82	1923.92
402.01	1839.66
402.21	1893.49
402.40	2071.37
402.59	2022.22
402.78	2057.33
402.97	1984.77
403.17	2017.54
403.36	1977.75
403.55	2122.87
403.74	2064.35
403.93	2211.81
404.13	2127.55
404.32	2127.55
404.51	2092.44
404.70	2263.30
404.89	2115.84
405.09	2246.91
405.28	2230.53
405.47	2176.70
405.66	2286.70
405.85	2415.43
406.05	2296.07
406.24	2361.60
406.43	2445.86
406.62	2429.48
406.81	2457.56
407.00	2338.20
407.20	2399.05
407.39	2406.07
407.58	2457.56
407.77	2499.69
407.96	2668.21
408.15	2609.70
408.34	2612.04
408.54	2553.52
408.73	2593.31
408.92	2619.06
409.11	2644.81
409.30	2679.91
409.49	2693.96
409.68	2799.28
409.87	2771.19
410.07	2808.64
410.26	2843.75
410.45	2843.75
410.64	2841.41
410.83	2885.88
411.02	2897.58
411.21	3019.29
411.40	2958.44
411.59	3019.29
411.78	3030.99
411.98	2998.23
412.17	3040.36
412.36	3028.65
412.55	3049.72
412.74	3208.87
412.93	3328.24
413.12	3269.73
413.31	3356.33
413.50	3180.79
413.69	3199.51
413.88	3375.05
414.07	3337.60
414.26	3433.57
414.45	3417.18
414.64	3330.58
414.83	3592.72
415.02	3623.15
415.22	3545.91
415.41	3632.51
415.60	3695.71
415.79	3571.66
415.98	3723.79
416.17	3831.46
416.36	3733.15
416.55	3756.56
416.74	3857.20
416.93	3843.16
417.12	3845.50
417.31	3805.71
417.50	3889.97
417.69	3962.53
417.88	4023.38
418.07	3904.01
418.26	3939.12
418.45	4119.34
418.64	4168.49
418.83	4021.04
419.02	4060.83
419.21	4269.14
419.39	4081.89
419.58	3995.29
419.77	4152.11
419.96	4222.33
420.15	4334.67
420.34	4252.75
420.53	4170.83
420.72	4341.69
420.91	4437.66
421.10	4428.29
421.29	4624.90
421.48	4465.74
421.67	4456.38
421.86	4505.53
422.05	4496.17
422.24	4564.04
422.43	4498.51
422.61	4683.41
422.80	4678.73
422.99	4627.24
423.18	4706.82
423.37	4774.69
423.56	4662.35
423.75	4645.96
423.94	4432.97
424.13	4393.19
424.32	4362.76
424.50	4751.29
424.69	4823.84
424.88	4674.05
425.07	4711.50
425.26	4725.54
425.45	4573.41
425.64	4762.99
425.83	4634.26
426.01	4833.21
426.20	4648.30
426.39	4814.48
426.58	4709.16
426.77	4791.08
426.96	4826.18
427.15	4732.56
427.33	4990.02
427.52	5001.72
427.71	4943.21
427.90	5039.17
428.09	5004.07
428.28	5034.49
428.46	4957.25
428.65	4889.38
428.84	5226.42
429.03	5301.31
429.22	5102.37
429.40	5123.43
429.59	5116.41
429.78	5006.41
429.97	5057.90
430.16	4980.66
430.34	5048.54
430.53	5277.91
430.72	5242.80
430.91	5275.57
431.10	5104.71
431.28	5369.19
431.47	5584.52
431.66	5488.56
431.85	5411.32
432.03	5668.78
432.22	5680.48
432.41	5668.78
432.60	5802.19
432.79	5488.56
432.97	5650.05
433.16	5556.43
433.35	5582.18
433.54	5687.50
433.72	5652.39
433.91	5860.70
434.10	5746.02
434.28	5841.98
434.47	6012.84
434.66	6038.58
434.85	5935.60
435.03	5788.14
435.22	6012.84
435.41	6141.57
435.59	5987.09
435.78	6022.20
435.97	6209.44
436.16	6083.05
436.34	6207.10
436.53	6260.93
436.72	6317.11
436.90	6193.06
437.09	6312.42
437.28	6080.71
437.46	6314.77
437.65	6174.33
437.84	6459.88
438.02	6310.08
438.21	6394.34
438.40	6422.43
438.58	6555.84
438.77	6490.31
438.96	6509.03
439.14	6876.49
439.33	6679.89
439.52	6846.07
439.70	6923.30
439.89	6930.33
440.08	6927.99
440.26	7000.54
440.45	6951.39
440.63	7190.13
440.82	7178.42
441.01	7096.50
441.19	7227.57
441.38	7248.64
441.57	7344.60
441.75	7403.11
441.94	7428.86
442.12	7368.01
442.31	7595.04
442.50	7599.72
442.68	7447.58
442.87	7576.31
443.05	7597.38
443.24	7866.54
443.43	7702.70
443.61	7829.09
443.80	8105.28
443.98	7723.77
444.17	7609.08
444.35	7655.89
444.54	7974.21
444.73	7903.99
444.91	7943.78
445.10	8056.12
445.28	7810.37
445.47	7810.37
445.65	7847.82
445.84	7934.42
446.02	7925.05
446.21	8133.36
446.39	7756.54
446.58	8131.02
446.77	8060.80
446.95	7801.01
447.14	7978.89
447.32	8124.00
447.51	7995.27
447.69	8248.05
447.88	8098.25
448.06	8184.85
448.25	8006.97
448.43	8301.88
448.62	8212.94
448.80	8271.45
448.99	8182.51
449.17	8189.53
449.36	8177.83
449.54	8526.57
449.73	8416.57
449.91	8603.81
450.10	8507.85
450.28	8664.66
450.46	8580.40
450.65	8423.59
450.83	8697.43
451.02	8407.20
451.20	8730.20
451.39	8744.24
451.57	8692.75
451.76	8641.26
451.94	8554.66
452.13	8765.31
452.31	8973.61
452.49	8882.33
452.68	8793.39
452.86	8933.82
453.05	8978.30
453.23	8758.28
453.42	8889.35
453.60	8830.84
453.78	9062.55
453.97	8816.80
454.15	9111.71
454.34	9050.85
454.52	9214.69
454.70	9256.82
454.89	9144.47
455.07	9362.14
455.26	9369.16
455.44	9596.20
455.62	9413.63
455.81	9453.42
455.99	9563.43
456.17	9525.98
456.36	9551.73
456.54	9741.31
456.73	9734.29
456.91	9867.70
457.09	10022.17
457.28	10127.50
457.46	9832.59
457.64	9930.89
457.83	10083.03
458.01	9870.04
458.19	10111.11
458.38	10178.99
458.56	10221.12
458.74	10143.88
458.93	10387.30
459.11	10143.88
459.29	10181.33
459.48	10284.31
459.66	10237.50
459.84	10286.65
460.03	10499.64
460.21	10406.02
460.39	10743.06
460.57	10527.73
460.76	10626.03
460.94	10775.83
461.12	10626.03
461.31	10541.77
461.49	10717.31
461.67	10670.50
461.85	11073.07
462.04	10813.28
462.22	11382.03
462.40	10991.16
462.59	10895.19
462.77	11094.14
462.95	11162.01
463.13	11073.07
463.32	11066.05
463.50	11356.28
463.68	11052.01
463.86	11332.87
464.05	11122.23
464.23	11206.48
464.41	11569.27
464.59	11192.44
464.78	11510.75
464.96	11262.66
465.14	11700.34
465.32	11566.93
465.50	11688.64
465.69	11557.57
465.87	11693.32
466.05	11531.82
466.23	11463.94
466.41	11796.30
466.60	11845.45
466.78	11616.08
466.96	11550.54
467.14	11545.86
467.32	11744.81
467.51	11894.60
467.69	11573.95
467.87	11934.39
468.05	11943.75
468.23	11829.07
468.41	11946.09
468.60	12032.69
468.78	12210.57
468.96	11847.79
469.14	12072.48
469.32	12395.48
469.50	12100.57
469.69	12325.26
469.87	12341.64
470.05	12655.28
470.23	12664.64
470.41	12676.34
470.59	12524.21
470.77	12622.51
470.95	12938.48
471.14	12753.58
471.32	12484.42
471.50	12929.12
471.68	12884.65
471.86	13172.54
472.04	13160.83
472.22	13301.26
472.40	13029.76
472.58	13455.74
472.77	13387.86
472.95	13425.31
473.13	13813.84
473.31	13364.46
473.49	13537.66
473.67	13575.11
473.85	13589.15
474.03	14017.47
474.21	13886.40
474.39	14092.37
474.57	13965.98
474.75	14115.77
474.93	14616.65
475.12	14312.38
475.30	14352.16
475.48	14438.76
475.66	14691.54
475.84	14560.47
476.02	14710.27
476.20	14740.69
476.38	15077.73
476.56	15374.98
476.74	15309.44
476.92	15157.31
477.10	15124.54
477.28	15431.15
477.46	15578.61
477.64	15824.36
477.82	15985.86
478.00	16140.33
478.18	16079.48
478.36	16177.78
478.54	16568.65
478.72	16727.81
478.90	16662.27
479.08	17036.76
479.26	16526.52
479.44	17181.87
479.62	17027.40
479.80	17245.07
479.98	17432.31
480.16	17563.38
480.34	17701.47
480.52	18342.78
480.70	17916.80
480.88	17837.22
481.06	18040.85
481.24	18382.57
481.41	18328.74
481.59	18719.60
481.77	18747.69
481.95	18796.84
482.13	18874.08
482.31	18934.93
482.49	19351.55
482.67	19070.68
482.85	19765.82
483.03	19985.83
483.21	20168.40
483.39	20100.52
483.57	20311.17
483.74	20568.63
483.92	20704.38
484.10	20610.76
484.28	20711.40
484.46	21242.70
484.64	21516.54
484.82	21158.44
485.00	21186.53
485.18	21703.79
485.35	22047.85
485.53	21977.63
485.71	22314.67
485.89	22642.34
486.07	22410.63
486.25	22530.00
486.43	22806.18
486.61	22841.29
486.78	23070.66
486.96	23587.92
487.14	23726.01
487.32	23632.39
487.50	24098.16
487.68	24369.66
487.85	24491.37
488.03	24271.36
488.21	24973.52
488.39	24952.45
488.57	25362.04
488.75	25305.87
488.92	25729.51
489.10	25542.27
489.28	25972.92
489.46	26256.13
489.64	25993.99
489.81	26796.79
489.99	26867.01
490.17	26857.65
490.35	27215.75
490.53	27108.08
490.70	27648.75
490.88	27421.72
491.06	27681.52
491.24	27835.99
491.41	28135.58
491.59	28503.04
491.77	28676.24
491.95	28924.34
492.13	28596.67
492.30	29095.20
492.48	28931.36
492.66	29273.08
492.84	29614.80
493.01	29825.45
493.19	29640.54
493.37	30230.36
493.54	30487.82
493.72	30286.53
493.90	30258.45
494.08	30764.00
494.25	30991.03
494.43	31587.87
494.61	31033.16
494.79	31297.64
494.96	31531.70
495.14	31601.91
495.32	31948.31
495.49	31995.12
495.67	32456.21
495.85	32472.59
496.02	32697.28
496.20	32781.54
496.38	32947.72
496.55	32858.78
496.73	33067.09
496.91	33282.42
497.09	33839.47
497.26	33837.12
497.44	33589.03
497.62	34089.90
497.79	34312.25
497.97	34375.45
498.14	34644.61
498.32	34892.71
498.50	35164.21
498.67	35236.77
498.85	35335.07
499.03	35140.80
499.20	35398.26
499.38	35732.96
499.56	36109.78
499.73	36009.14
499.91	36194.04
500.08	36517.04
500.26	36381.29
500.44	36304.05
500.61	36552.15
500.79	36713.64
500.97	37195.79
501.14	37471.98
501.32	37460.27
501.49	37076.43
501.67	37689.65
501.84	37567.94
502.02	37745.82
502.20	37902.64
502.37	38410.53
502.55	38258.40
502.72	38333.29
502.90	38237.33
503.07	38366.06
503.25	38630.54
503.43	38541.60
503.60	39283.55
503.78	39311.64
503.95	39040.14
504.13	39716.55
504.30	39264.83
504.48	38822.47
504.65	39543.35
504.83	39892.09
505.01	40048.91
505.18	40268.92
505.36	40175.30
505.53	40308.71
505.71	40627.02
505.88	40212.74
506.06	40084.01
506.23	41013.21
506.41	40517.01
506.58	41165.34
506.76	40910.22
506.93	41326.84
507.11	40832.99
507.28	41462.59
507.46	41474.29
507.63	41961.12
507.81	41738.77
507.98	42101.56
508.16	41680.26
508.33	41830.05
508.50	42082.83
508.68	42504.13
508.85	42890.32
509.03	42370.72
509.20	42656.26
509.38	43267.14
509.55	43164.16
509.73	43248.42
509.90	43107.99
510.08	43140.75
510.25	42995.64
510.42	43590.14
510.60	43992.71
510.77	43934.20
510.95	44156.55
511.12	43964.62
511.30	44123.78
511.47	44306.34
511.64	44376.56
511.82	44949.99
511.99	44495.92
512.17	44687.85
512.34	44584.86
512.51	44807.22
512.69	45366.60
512.86	45109.14
513.04	45418.10
513.21	45509.38
513.38	45324.47
513.56	45745.77
513.73	45677.90
513.90	45537.46
514.08	46108.55
514.25	46101.53
514.43	46108.55
514.60	46454.95
514.77	46426.87
514.95	46478.36
515.12	46534.53
515.29	46225.58
515.47	46440.91
515.64	47232.01
515.81	46653.90
515.99	47297.55
516.16	47250.74
516.33	47384.15
516.51	47344.36
516.68	47452.02
516.85	47309.25
517.03	47524.58
517.20	47920.13
517.37	47627.56
517.54	47957.58
517.72	47990.34
517.89	47760.97
518.06	47756.29
518.24	47941.19
518.41	48128.44
518.58	48371.85
518.75	48463.13
518.93	48556.75
519.10	48509.94
519.27	48416.32
519.45	48554.41
519.62	48484.20
519.79	48545.05
519.96	48811.87
520.14	48762.72
520.31	48786.13
520.48	49406.37
520.65	49265.94
520.83	49378.28
521.00	49366.58
521.17	49511.69
521.34	49427.43
521.52	49432.11
521.69	49832.35
521.86	50045.33
522.03	50064.06
522.20	49954.05
522.38	49993.84
522.55	50103.85
522.72	50204.49
522.89	50134.28
523.07	50478.33
523.24	50623.45
523.41	50775.58
523.58	50342.58
523.75	50670.26
523.92	50358.97
524.10	50798.99
524.27	50817.71
524.44	51068.15
524.61	51447.32
524.78	51325.61
524.96	51187.52
525.13	51363.06
525.30	51224.96
525.47	51264.75
525.64	51224.96
525.81	51543.28
525.98	51690.73
526.16	51700.09
526.33	51627.54
526.50	51849.89
526.67	51877.97
526.84	51976.28
527.01	51592.43
527.18	51945.85
527.36	51889.68
527.53	52161.18
527.70	52308.63
527.87	52385.87
528.04	51697.75
528.21	51957.55
528.38	52025.43
528.55	52530.98
528.72	52261.82
528.89	52502.90
529.07	52364.81
529.24	52402.25
529.41	52687.80
529.58	52640.99
529.75	52552.05
529.92	52540.35
530.09	52739.29
530.26	52926.53
530.43	52891.43
530.60	52956.96
530.77	52699.50
530.94	53111.44
531.11	53048.24
531.28	53059.94
531.46	53165.27
531.63	53420.39
531.80	53357.19
531.97	53516.35
532.14	53359.53
532.31	53425.07
532.48	53399.32
532.65	53687.21
532.82	53385.28
532.99	53968.07
533.16	53614.65
533.33	53839.34
533.50	54141.27
533.67	53886.15
533.84	54045.31
534.01	53811.26
534.18	53916.58
534.35	54391.71
534.52	53911.90
534.69	54255.96
534.86	54323.83
535.03	54106.16
535.20	54181.06
535.37	54344.90
535.54	54284.04
535.71	54515.76
535.88	54457.24
536.05	54391.71
536.22	54623.42
536.38	54581.29
536.55	54735.77
536.72	54581.29
536.89	54546.18
537.06	54445.54
537.23	54857.48
537.40	54380.01
537.57	54740.45
537.74	54567.25
537.91	54993.23
538.08	55037.70
538.25	54951.10
538.42	54958.12
538.59	55068.12
538.75	55047.06
538.92	55054.08
539.09	55056.42
539.26	54887.90
539.43	55136.00
539.60	55325.58
539.77	55346.65
539.94	55405.16
540.11	55227.28
540.28	55458.99
540.44	55529.21
540.61	55325.58
540.78	55292.82
540.95	55487.08
541.12	55693.05
541.29	55496.44
541.46	55494.10
541.62	55569.00
541.79	55875.61
541.96	55456.65
542.13	55676.66
542.30	55749.22
542.47	55796.03
542.63	55943.48
542.80	55978.59
542.97	56039.45
543.14	56121.37
543.31	56093.28
543.48	56151.79
543.64	56343.72
543.81	56456.06
543.98	56437.34
544.15	56540.32
544.32	56479.47
544.48	56561.39
544.65	56385.85
544.82	56500.53
544.99	56357.76
545.16	56807.14
545.32	56346.06
545.49	56896.08
545.66	56982.68
545.83	56559.05
546.00	56687.78
546.16	56720.54
546.33	56523.94
546.50	56392.87
546.67	56676.07
546.83	56481.81
547.00	56741.61
547.17	56935.87
547.34	56968.64
547.50	56898.42
547.67	57008.43
547.84	57052.90
548.00	57085.67
548.17	57272.91
548.34	57092.69
548.51	57258.87
548.67	57467.17
548.84	57279.93
549.01	57443.77
549.18	57202.69
549.34	57375.89
549.51	57130.14
549.68	57380.57
549.84	57247.16
550.01	57286.95
550.18	57212.06
550.34	57333.76
550.51	57310.36
550.68	57677.82
550.84	57478.88
551.01	57600.58
551.18	57530.37
551.34	57200.35
551.51	57673.14
551.68	57687.18
551.84	57975.07
552.01	57303.34
552.18	57932.94
552.34	57705.91
552.51	57738.68
552.68	57455.47
552.84	57771.44
553.01	57902.51
553.18	57642.71
553.34	57984.43
553.51	57939.96
553.67	58059.33
553.84	58141.25
554.01	58150.61
554.17	58159.97
554.34	58213.80
554.51	58174.02
554.67	58239.55
554.84	58328.49
555.00	58124.86
555.17	58302.74
555.33	58199.76
555.50	58433.81
555.67	58344.87
555.83	58176.36
556.00	58330.83
556.16	58398.71
556.33	58396.37
556.50	58461.90
556.66	58506.37
556.83	58258.27
556.99	58745.11
557.16	58672.55
557.32	58494.67
557.49	58576.59
557.65	58300.40
557.82	58330.83
557.98	58499.35
558.15	58485.31
558.32	58569.57
558.48	58815.32
558.65	58801.28
558.81	58482.97
558.98	58625.74
559.14	58508.71
559.31	58677.23
559.47	58567.23
559.64	58763.83
559.80	59082.14
559.97	58913.62
560.13	58740.42
560.30	58864.47
560.46	58878.52
560.63	58939.37
560.79	58955.75
560.96	59161.72
561.12	58773.19
561.29	58885.54
561.45	58960.44
561.61	58913.62
561.78	58986.18
561.94	58955.75
562.11	59086.82
562.27	58967.46
562.44	58990.86
562.60	59014.27
562.77	58852.77
562.93	59051.72
563.10	59217.89
563.26	59075.12
563.42	59199.17
563.59	59098.53
563.75	59222.58
563.92	59414.50
564.08	59150.02
564.24	59173.42
564.41	59035.33
564.57	59217.89
564.74	58974.48
564.90	59370.03
565.07	59238.96
565.23	59330.24
565.39	59412.16
565.56	59372.37
565.72	59194.49
565.88	59161.72
566.05	59138.32
566.21	59114.91
566.38	59278.75
566.54	59292.79
566.70	59606.42
566.87	59545.57
567.03	59372.37
567.19	59592.38
567.36	59700.04
567.52	59449.61
567.68	59327.90
567.85	59227.26
568.01	59430.88
568.17	59370.03
568.34	59550.25
568.50	59538.55
568.66	59597.06
568.83	59587.70
568.99	59531.53
569.15	59306.83
569.32	59566.63
569.48	59255.34
569.64	59744.51
569.81	59461.31
569.97	59646.21
570.13	59774.94
570.30	59615.79
570.46	59601.74
570.62	59578.34
570.78	59615.79
570.95	59416.84
571.11	59428.54
571.27	59517.48
571.43	59576.00
571.60	59702.38
571.76	59758.56
571.92	59779.62
572.09	59639.19
572.25	59667.28
572.41	59405.14
572.57	59590.04
572.74	59765.58
572.90	59597.06
573.06	59601.74
573.22	59615.79
573.38	59700.04
573.55	59618.13
573.71	60109.64
573.87	59983.25
574.03	59538.55
574.20	59887.29
574.36	59664.94
574.52	59398.12
574.68	59650.89
574.84	59700.04
575.01	59875.58
575.17	59943.46
575.33	59828.77
575.49	59657.91
575.65	59943.46
575.82	60121.34
575.98	59917.71
576.14	59718.77
576.30	59945.80
576.46	59910.69
576.62	59756.22
576.79	59765.58
576.95	59723.45
577.11	59943.46
577.27	59880.27
577.43	59889.63
577.59	59838.14
577.75	59817.07
577.92	59784.30
578.08	59791.33
578.24	59765.58
578.40	59676.64
578.56	59746.86
578.72	59924.74
578.88	60119.00
579.04	59976.23
579.21	59934.10
579.37	59943.46
579.53	59938.78
579.69	59767.92
579.85	59845.16
580.01	59920.05
580.17	59861.54
580.33	59845.16
580.49	60161.13
580.65	59908.35
580.82	59997.29
580.98	59917.71
581.14	59931.76
581.30	60245.39
581.46	59929.42
581.62	59936.44
581.78	59693.02
581.94	59915.37
582.10	59980.91
582.26	60011.34
582.42	59934.10
582.58	60032.40
582.74	60179.85
582.90	60034.74
583.06	59976.23
583.22	60102.62
583.38	59992.61
583.54	60088.57
583.70	60009.00
583.86	60163.47
584.02	59959.84
584.18	60107.30
584.34	60151.77
584.50	60292.20
584.66	59987.93
584.82	59810.05
584.98	59861.54
585.14	60317.95
585.30	59985.59
585.46	59882.61
585.62	59920.05
585.78	60158.79
585.94	59868.56
586.10	60156.45
586.26	60093.25
586.42	60210.28
586.58	60217.30
586.74	60217.30
586.90	60133.04
587.06	59875.58
587.22	60161.13
587.38	59990.27
587.54	60362.42
587.70	60322.63
587.86	60315.61
588.02	60236.03
588.18	60425.61
588.34	60287.52
588.49	60275.82
588.65	60144.75
588.81	60250.07
588.97	60214.96
589.13	60207.94
589.29	60126.02
589.45	60280.50
589.61	60250.07
589.77	60519.23
589.93	60444.33
590.08	60486.46
590.24	60427.95
590.40	60254.75
590.56	60491.15
590.72	60460.72
590.88	60261.77
591.04	60196.24
591.20	60467.74
591.35	60573.06
591.51	60685.41
591.67	60563.70
591.83	60746.26
591.99	60420.93
592.15	60423.27
592.31	60671.37
592.46	60507.53
592.62	60322.63
592.78	60238.37
592.94	60355.39
593.10	60612.85
593.26	60795.42
593.41	60587.11
593.57	60411.57
593.73	60474.76
593.89	60566.04
594.05	60472.42
594.20	60350.71
594.36	60385.82
594.52	60360.08
594.68	60456.04
594.84	60533.28
594.99	60666.69
595.15	60514.55
595.31	60750.94
595.47	60795.42
595.62	60631.58
595.78	60523.91
595.94	60699.45
596.10	60514.55
596.25	60589.45
596.41	60481.78
596.57	60493.49
596.73	60467.74
596.88	60582.43
597.04	60865.63
597.20	60711.16
597.36	60676.05
597.51	60942.87
597.67	60549.66
597.83	60563.70
597.99	60568.38
598.14	60570.72
598.30	60704.13
598.46	60547.32
598.61	60858.61
598.77	60439.65
598.93	60774.35
599.09	60594.13
599.24	60898.40
599.40	60802.44
599.56	60844.57
599.71	60764.99
599.87	60800.10
600.03	60441.99
600.18	60650.30
600.34	60676.05
600.50	61010.74
600.65	60666.69
600.81	60638.60
600.97	60926.49
601.12	60807.12
601.28	60860.95
601.44	60757.97
601.59	60940.53
601.75	60608.17
601.91	60652.64
602.06	60659.66
602.22	60643.28
602.37	60647.96
602.53	60678.39
602.69	60786.05
602.84	60732.22
603.00	60867.97
603.16	60963.93
603.31	60807.12
603.47	60563.70
603.62	60584.77
603.78	60872.65
603.94	60636.26
604.09	60652.64
604.25	60795.42
604.40	60474.76
604.56	60736.90
604.71	60999.04
604.87	60755.63
605.03	60732.22
605.18	60734.56
605.34	60549.66
605.49	60397.52
605.65	60631.58
605.80	60507.53
605.96	60406.89
606.12	60713.50
606.27	60839.89
606.43	60701.79
606.58	60851.59
606.74	60678.39
606.89	60879.67
607.05	60856.27
607.20	60554.34
607.36	60680.73
607.51	60767.33
607.67	60533.28
607.82	60411.57
607.98	60580.09
608.13	60453.70
608.29	60549.66
608.44	60463.06
608.60	60772.01
608.75	60617.53
608.91	60800.10
609.06	60692.43
609.22	60680.73
609.37	60556.68
609.53	60575.40
609.68	60568.38
609.84	60470.08
609.99	60652.64
610.15	60598.81
610.30	60687.75
610.46	60409.23
610.61	60409.23
610.76	60528.59
610.92	60418.59
611.07	60640.94
611.23	60451.36
611.38	60406.89
611.54	60322.63
611.69	60491.15
611.84	60395.18
612.00	60360.08
612.15	60233.69
612.31	60552.00
612.46	60673.71
612.62	60669.03
612.77	60530.93
612.92	60484.12
613.08	60221.98
613.23	60327.31
613.39	60603.49
613.54	60074.53
613.69	60130.70
613.85	60299.22
614.00	60374.12
614.15	60360.08
614.31	60397.52
614.46	60439.65
614.62	60320.29
614.77	60420.93
614.92	60507.53
615.08	60392.84
615.23	60102.62
615.38	60149.43
615.54	60037.08
615.69	60083.89
615.84	60018.36
616.00	60193.90
616.15	60219.64
616.30	60102.62
616.46	60259.43
616.61	60189.22
616.76	60334.33
616.92	60154.11
617.07	60275.82
617.22	60240.71
617.37	60044.10
617.53	60182.19
617.68	60081.55
617.83	59994.95
617.99	59992.61
618.14	60020.70
618.29	60231.35
618.45	60046.44
618.60	59962.18
618.75	60121.34
618.90	60261.77
619.06	60097.94
619.21	60121.34
619.36	60032.40
619.51	59971.55
619.67	59828.77
619.82	59901.33
619.97	59868.56
620.12	59868.56
620.28	59772.60
620.43	60039.42
620.58	60083.89
620.73	59943.46
620.89	59910.69
621.04	60193.90
621.19	59870.90
621.34	59859.20
621.49	59887.29
621.65	59608.76
621.80	59952.82
621.95	59625.15
622.10	59735.15
622.25	59721.11
622.41	59693.02
622.56	59810.05
622.71	59756.22
622.86	59758.56
623.01	59774.94
623.16	59606.42
623.32	59524.50
623.47	59697.70
623.62	59585.36
623.77	59533.87
623.92	59723.45
624.07	59491.74
624.23	59758.56
624.38	59550.25
624.53	59571.32
624.68	59611.10
624.83	59671.96
624.98	59384.07
625.13	59416.84
625.29	59433.22
625.44	59253.00
625.59	59262.36
625.74	59227.26
625.89	59224.92
626.04	59035.33
626.19	59229.60
626.34	59409.82
626.49	59201.51
626.65	59238.96
626.80	59526.84
626.95	59281.09
627.10	59192.15
627.25	59201.51
627.40	59098.53
627.55	59009.59
627.70	58939.37
627.85	59037.67
628.00	58894.90
628.15	59068.10
628.30	58995.54
628.45	59185.13
628.60	59309.18
628.76	58948.73
628.91	59281.09
629.06	59267.05
629.21	59147.68
629.36	59065.76
629.51	58972.14
629.66	59077.46
629.81	58738.08
629.96	58934.69
630.11	58955.75
630.26	59000.22
630.41	58871.49
630.56	58871.49
630.71	58873.84
630.86	59107.89
631.01	59004.91
631.16	58885.54
631.31	58805.96
631.46	58686.59
631.61	58829.37
631.76	58688.93
631.91	58529.78
632.06	58611.70
632.21	58684.25
632.36	58822.34
632.51	58717.02
632.66	58798.94
632.81	58513.39
632.96	58695.95
633.10	58541.48
633.25	58412.75
633.40	58387.00
633.55	58665.53
633.70	58461.90
633.85	58351.90
634.00	58457.22
634.15	58363.60
634.30	58459.56
634.45	58560.20
634.60	58663.19
634.75	58958.09
634.90	58735.74
635.05	58686.59
635.19	58499.35
635.34	58590.63
635.49	58401.05
635.64	58370.62
635.79	58387.00
635.94	58492.33
636.09	58291.04
636.24	58113.16
636.39	58064.01
636.53	58398.71
636.68	58220.83
636.83	58255.93
636.98	58351.90
637.13	58286.36
637.28	58475.94
637.43	58394.03
637.57	58588.29
637.72	58363.60
637.87	58223.17
638.02	58223.17
638.17	58227.85
638.32	58078.05
638.46	57968.05
638.61	57928.26
638.76	57717.61
638.91	58038.26
639.06	58192.74
639.20	58398.71
639.35	58162.31
639.50	58007.84
639.65	58024.22
639.80	58159.97
639.94	57998.48
640.09	57909.53
640.24	57762.08
640.39	57949.32
640.54	57673.14
640.68	57680.16
640.83	57785.49
640.98	57516.32
641.13	57495.26
641.27	57939.96
641.42	57778.46
641.57	57766.76
641.72	57836.98
641.86	57778.46
642.01	57399.30
642.16	57389.94
642.31	57626.33
642.45	57649.74
642.60	57488.24
642.75	57434.41
642.90	57490.58
643.04	57329.08
643.19	57478.88
643.34	57766.76
643.48	57619.31
643.63	57979.75
643.78	57645.05
643.93	57752.72
644.07	57680.16
644.22	57387.60
644.37	57448.45
644.51	57462.49
644.66	57602.92
644.81	57553.77
644.95	57572.50
645.10	57102.05
645.25	57446.11
645.39	57490.58
645.54	57256.53
645.69	57205.03
645.83	57233.12
645.98	57340.78
646.13	57483.56
646.27	57317.38
646.42	57415.68
646.57	57097.37
646.71	57289.29
646.86	57144.18
647.00	57090.35
647.15	57270.57
647.30	57153.54
647.44	56987.36
647.59	57216.74
647.74	57116.09
647.88	56757.99
648.03	57015.45
648.17	57073.96
648.32	57139.50
648.47	57158.22
648.61	56931.19
648.76	56846.93
648.90	57043.54
649.05	56849.27
649.20	57076.30
649.34	57048.22
649.49	56868.00
649.63	56956.94
649.78	57221.42
649.92	56891.40
650.07	57085.67
650.21	56907.79
650.36	56947.57
650.51	56954.60
650.65	57179.29
650.80	56853.95
650.94	57059.92
651.09	56825.87
651.23	56498.19
651.38	56746.29
651.52	56404.57
651.67	56315.63
651.81	56786.08
651.96	56601.18
652.10	56596.49
652.25	56718.20
652.39	56505.21
652.54	56781.40
652.68	56486.49
652.83	56596.49
652.97	56933.53
653.12	56650.33
653.26	56573.09
653.41	56376.48
653.55	56390.53
653.70	56355.42
653.84	56287.54
653.99	56074.55
654.13	56189.24
654.27	56343.72
654.42	56104.98
654.56	56383.51
654.71	56315.63
654.85	56418.61
655.00	56523.94
655.14	56383.51
655.29	56144.77
655.43	56006.68
655.57	55868.59
655.72	56130.73
655.86	55873.27
656.01	56039.45
656.15	56034.77
656.30	56053.49
656.44	55861.57
656.58	55859.23
656.73	55945.83
656.87	56039.45
657.01	56102.64
657.16	56334.35
657.30	55948.17
657.45	56032.42
657.59	56413.93
657.73	55861.57
657.88	56055.83
658.02	55739.86
658.16	55962.21
658.31	55634.53
658.45	55601.77
658.60	54951.10
658.74	55466.02
658.88	55657.94
659.03	55501.12
659.17	55414.52
659.31	55632.19
659.46	55859.23
659.60	55686.03
659.74	55721.13
659.89	55475.38
660.03	55449.63
660.17	55587.72
660.32	55297.50
660.46	55084.51
660.60	55061.10
660.74	55150.04
660.89	55164.09
661.03	55210.90
661.17	55370.05
661.32	54941.74
661.46	55194.51
661.60	55138.34
661.74	55011.95
661.89	55061.10
662.03	55238.98
662.17	54988.55
662.31	54899.61
662.46	55262.39
662.60	55007.27
662.74	54522.78
662.88	54387.03
663.03	54618.74
663.17	54293.41
663.31	54372.99
663.45	54665.55
663.60	54520.44
663.74	54567.25
663.88	54410.43
664.02	54557.89
664.17	54913.65
664.31	54344.90
664.45	54347.24
664.59	54017.22
664.73	54007.86
664.88	54239.57
665.02	53815.94
665.16	53947.01
665.30	53799.55
665.44	54188.08
665.59	53808.92
665.73	53991.48
665.87	53446.13
666.01	53872.11
666.15	53832.32
666.29	53930.62
666.44	54094.46
666.58	53712.95
666.72	53862.75
666.86	53963.39
667.00	53818.28
667.14	53345.49
667.28	53048.24
667.43	53062.29
667.57	53272.93
667.71	52938.24
667.85	53111.44
667.99	52942.92
668.13	53013.13
668.27	53008.45
668.41	53134.84
668.56	52800.15
668.70	52865.68
668.84	52994.41
668.98	53289.32
669.12	52680.78
669.26	52907.81
669.40	52631.63
669.54	52362.46
669.68	52488.85
669.82	52669.08
669.96	52456.09
670.10	52245.44
670.25	52519.28
670.39	52334.38
670.53	52425.66
670.67	52378.85
670.81	53076.33
670.95	52568.43
671.09	52369.49
671.23	52446.72
671.37	52453.75
671.51	52107.35
671.65	51987.98
671.79	51885.00
671.93	51945.85
672.07	51863.93
672.21	51540.94
672.35	51433.27
672.49	51407.53
672.63	51515.19
672.77	51405.19
672.91	51674.35
673.05	51150.07
673.19	50862.18
673.33	51538.60
673.47	51353.69
673.61	50988.57
673.75	51416.89
673.89	51119.64
674.03	51089.21
674.17	50731.11
674.31	50995.59
674.45	50735.79
674.59	50611.74
674.73	50705.37
674.87	50108.53
675.01	49993.84
675.15	50557.91
675.29	50752.18
675.43	50131.93
675.56	49883.84
675.70	50216.19
675.84	50052.36
675.98	49050.61
676.12	50113.21
676.26	49895.54
676.40	49785.54
676.54	49773.83
676.68	49485.95
676.82	48736.98
676.96	49010.82
677.10	49436.80
677.23	48746.34
677.37	48641.01
677.51	48744.00
677.65	48914.86
677.79	48376.53
677.93	48825.92
678.07	48516.96
678.21	48610.59
678.34	48353.13
678.48	48273.55
678.62	47885.02
678.76	47913.11
678.90	47833.53
679.04	47716.50
679.18	47276.48
679.31	46878.59
679.45	47227.33
679.59	46892.63
679.73	47405.21
679.87	47012.00
680.00	46686.67
680.14	46859.87
680.28	46396.44
680.42	47105.62
680.56	46504.10
680.70	46508.79
680.83	46473.68
680.97	46541.55
681.11	46181.11
681.25	45661.51
681.39	45958.76
681.52	45352.56
681.66	45031.91
681.80	44804.88
681.94	44776.79
682.07	44844.66
682.21	44645.72
682.35	44898.50
682.49	44769.77
682.62	44748.70
682.76	44624.65
682.90	44444.43
683.04	44369.54
683.17	44645.72
683.31	44629.34
683.45	44355.49
683.59	43990.37
683.72	43854.62
683.86	43669.72
684.00	43583.12
684.13	43232.04
684.27	43044.79
684.41	42808.40
684.55	42377.74
684.68	42621.16
684.82	42728.82
684.96	42384.76
685.09	42595.41
685.23	42637.54
685.37	41991.55
685.50	42422.21
685.64	42539.24
685.78	42270.08
685.91	42447.96
686.05	42454.98
686.19	42171.77
686.32	41682.60
686.46	40893.84
686.60	41207.47
686.73	41092.79
686.87	40896.18
687.01	40769.79
687.14	40825.96
687.28	40547.44
687.42	40318.07
687.55	40133.17
687.69	39976.35
687.82	40217.43
687.96	40203.38
688.10	39983.37
688.23	39571.44
688.37	39770.38
688.50	39660.38
688.64	39648.68
688.78	39669.74
688.91	38639.90
689.05	39321.00
689.18	38953.54
689.32	38211.59
689.46	37944.76
689.59	38204.56
689.73	38146.05
689.86	38068.81
690.00	37574.96
690.13	37757.52
690.27	37900.29
690.41	38171.80
690.54	37216.86
690.68	37268.35
690.81	37242.60
690.95	37556.24
691.08	37390.06
691.22	36870.46
691.35	37118.56
691.49	36905.57
691.62	36584.91
691.76	36662.15
691.89	36102.76
692.03	35894.46
692.16	35426.35
692.30	35559.76
692.43	35686.15
692.57	35845.30
692.70	36044.25
692.84	35257.83
692.97	34925.47
693.11	35260.17
693.24	35189.95
693.38	35557.42
693.51	35112.72
693.65	35213.36
693.78	35023.78
693.92	34628.23
694.05	34443.32
694.19	34314.59
694.32	33787.97
694.45	33443.91
694.59	33516.47
694.72	33310.50
694.86	33151.35
694.99	32905.59
695.13	33048.36
695.26	33013.26
695.39	32662.18
695.53	32657.49
695.66	33289.44
695.80	32657.49
695.93	32830.69
696.07	32783.88
696.20	32400.04
696.33	32496.00
696.47	32631.75
696.60	32730.05
696.73	31941.29
696.87	31758.73
697.00	31594.89
697.14	31292.96
697.27	31325.73
697.40	31002.74
697.54	30609.53
697.67	30171.85
697.80	30459.73
697.94	30192.91
698.07	30382.49
698.21	30118.01
698.34	30712.51
698.47	29731.83
698.61	29848.85
698.74	29799.70
698.87	29539.90
699.01	29277.76
699.14	29486.07
699.27	29703.74
699.40	28914.98
699.54	29001.58
699.67	28617.73
699.80	28355.59
699.94	28503.04
700.07	28575.60
700.20	28126.22
700.34	28025.57
700.47	28603.69
700.60	28350.91
700.73	28444.53
700.87	28088.77
701.00	27971.74
701.13	27843.01
701.26	27873.44
701.40	28056.00
701.53	27454.48
701.66	27585.55
701.79	27084.68
701.93	27091.70
702.06	26593.17
702.19	26588.49
702.32	26871.69
702.46	26583.80
702.59	26270.17
702.72	26497.20
702.85	25846.54
702.99	26272.51
703.12	25701.42
703.25	25663.97
703.38	25633.55
703.51	25638.23
703.65	25406.52
703.78	25324.60
703.91	25123.31
704.04	25420.56
704.17	25017.99
704.31	24884.58
704.44	24453.92
704.57	24662.22
704.70	24362.64
704.83	24772.23
704.96	24486.68
705.10	24147.31
705.23	24088.79
>>>>>End Processed Spectral Data<<<<<
