SpectraSuite Data File
++++++++++++++++++++++++++++++++++++
Date: Fri Oct 04 11:48:32 GMT-05:00 2013
User: price-jones
Dark Spectrum Present: No
Reference Spectrum Present: No
Number of Sampled Component Spectra: 1
Spectrometers: USB2+H05261
Integration Time (usec): 100000 (USB2+H05261)
Spectra Averaged: 1 (USB2+H05261)
Boxcar Smoothing: 0 (USB2+H05261)
Correct for Electrical Dark: No (USB2+H05261)
Strobe/Lamp Enabled: No (USB2+H05261)
Correct for Detector Non-linearity: No (USB2+H05261)
Correct for Stray Light: No (USB2+H05261)
Number of Pixels in Processed Spectrum: 2048
>>>>>Begin Processed Spectral Data<<<<<
365.73	28.09
365.92	28.09
366.12	28.09
366.32	0.00
366.52	0.00
366.72	0.00
366.91	0.00
367.11	0.00
367.31	0.00
367.51	0.00
367.70	0.00
367.90	14.04
368.10	7.02
368.30	0.00
368.49	0.00
368.69	0.00
368.89	0.00
369.09	0.00
369.28	0.00
369.48	0.00
369.68	0.00
369.87	0.00
370.07	0.00
370.27	0.00
370.47	159.16
370.66	409.59
370.86	320.65
371.06	383.85
371.25	447.04
371.45	407.25
371.65	463.43
371.84	404.91
372.04	393.21
372.24	550.03
372.44	477.47
372.63	507.90
372.83	500.87
373.03	559.39
373.22	550.03
373.42	519.60
373.62	528.96
373.81	624.92
374.01	599.18
374.21	575.77
374.40	526.62
374.60	580.45
374.79	564.07
374.99	608.54
375.19	587.47
375.38	645.99
375.58	648.33
375.78	589.82
375.97	692.80
376.17	774.72
376.37	641.31
376.56	713.86
376.76	613.22
376.95	683.44
377.15	643.65
377.35	674.07
377.54	660.03
377.74	709.18
377.93	727.91
378.13	660.03
378.33	744.29
378.52	634.29
378.72	711.52
378.91	725.57
379.11	688.12
379.31	706.84
379.50	734.93
379.70	695.14
379.89	784.08
380.09	697.48
380.28	690.46
380.48	821.53
380.68	767.70
380.87	788.76
381.07	744.29
381.26	868.34
381.46	758.33
381.65	814.51
381.85	800.46
382.04	816.85
382.24	896.43
382.43	842.59
382.63	805.14
382.83	828.55
383.02	971.32
383.22	877.70
383.41	748.97
383.61	844.93
383.80	868.34
384.00	910.47
384.19	809.83
384.39	894.08
384.58	936.21
384.78	910.47
384.97	903.45
385.17	1022.81
385.36	908.13
385.56	973.66
385.75	952.60
385.95	940.90
386.14	976.00
386.34	936.21
386.53	959.62
386.72	840.25
386.92	1074.31
387.11	980.68
387.31	997.07
387.50	990.05
387.70	1046.22
387.89	1027.50
388.09	940.90
388.28	1036.86
388.48	1125.80
388.67	1114.10
388.86	1104.73
389.06	924.51
389.25	1083.67
389.45	1135.16
389.64	1104.73
389.84	1137.50
390.03	1090.69
390.22	1102.39
390.42	1212.40
390.61	1069.62
390.81	1163.25
391.00	1207.72
391.19	1170.27
391.39	1212.40
391.58	1170.27
391.78	1212.40
391.97	1217.08
392.16	1247.51
392.36	1343.47
392.55	1224.10
392.75	1268.57
392.94	1256.87
393.13	1261.55
393.33	1240.48
393.52	1254.53
393.71	1378.58
393.91	1373.89
394.10	1301.34
394.29	1320.06
394.49	1329.42
394.68	1366.87
394.88	1444.11
395.07	1430.07
395.26	1432.41
395.46	1373.89
395.65	1526.03
395.84	1373.89
396.04	1488.58
396.23	1523.69
396.42	1516.67
396.62	1540.07
396.81	1439.43
397.00	1502.62
397.19	1465.18
397.39	1584.54
397.58	1687.53
397.77	1483.90
397.97	1586.88
398.16	1472.20
398.35	1591.56
398.55	1603.27
398.74	1680.50
398.93	1710.93
399.12	1593.90
399.32	1657.10
399.51	1647.74
399.70	1771.79
399.90	1753.06
400.09	1760.08
400.28	1710.93
400.47	1682.85
400.67	1783.49
400.86	1764.76
401.05	1849.02
401.24	1994.14
401.44	2019.88
401.63	1788.17
401.82	1858.39
402.01	1834.98
402.21	1923.92
402.40	1926.26
402.59	1912.22
402.78	1989.46
402.97	1909.88
403.17	1952.01
403.36	1926.26
403.55	2024.56
403.74	2197.76
403.93	2092.44
404.13	2146.27
404.32	1984.77
404.51	2108.82
404.70	2083.08
404.89	2120.53
405.09	2200.10
405.28	2092.44
405.47	2155.63
405.66	2200.10
405.85	2218.83
406.05	2242.23
406.24	2452.88
406.43	2298.41
406.62	2396.71
406.81	2499.69
407.00	2263.30
407.20	2354.58
407.39	2380.32
407.58	2457.56
407.77	2354.58
407.96	2502.03
408.15	2483.31
408.34	2537.14
408.54	2415.43
408.73	2473.95
408.92	2605.02
409.11	2597.99
409.30	2597.99
409.49	2609.70
409.68	2541.82
409.87	2654.17
410.07	2621.40
410.26	2708.00
410.45	2773.53
410.64	2708.00
410.83	2750.13
411.02	2757.15
411.21	2799.28
411.40	2827.37
411.59	2904.60
411.78	2829.71
411.98	2794.60
412.17	2902.26
412.36	2888.22
412.55	3096.53
412.74	3016.95
412.93	3117.59
413.12	2991.20
413.31	3206.53
413.50	3054.40
413.69	3178.45
413.88	3133.98
414.07	3082.49
414.26	3251.00
414.45	3361.01
414.64	3122.27
414.83	3428.88
415.02	3353.99
415.22	3419.52
415.41	3447.61
415.60	3311.86
415.79	3510.80
415.98	3536.55
416.17	3620.81
416.36	3513.14
416.55	3564.64
416.74	3691.02
416.93	3632.51
417.12	3723.79
417.31	3660.60
417.50	3744.86
417.69	3831.46
417.88	3896.99
418.07	3826.78
418.26	3808.05
418.45	3805.71
418.64	4044.45
418.83	4072.53
419.02	3824.44
419.21	4016.36
419.39	3946.14
419.58	3934.44
419.77	4128.70
419.96	4023.38
420.15	4280.84
420.34	4067.85
420.53	4175.52
420.72	4140.41
420.91	4285.52
421.10	4269.14
421.29	4358.08
421.48	4208.28
421.67	4374.46
421.86	4414.25
422.05	4262.12
422.24	4381.48
422.43	4252.75
422.61	4348.72
422.80	4524.26
422.99	4463.40
423.18	4404.89
423.37	4596.81
423.56	4390.84
423.75	4360.42
423.94	4369.78
424.13	4028.06
424.32	4231.69
424.50	4580.43
424.69	4421.27
424.88	4589.79
425.07	4432.97
425.26	4432.97
425.45	4475.10
425.64	4493.83
425.83	4538.30
426.01	4585.11
426.20	4337.01
426.39	4575.75
426.58	4521.92
426.77	4470.42
426.96	4510.21
427.15	4669.37
427.33	4802.78
427.52	4667.03
427.71	4709.16
427.90	4720.86
428.09	4648.30
428.28	4746.61
428.46	4755.97
428.65	4999.38
428.84	5001.72
429.03	5104.71
429.22	4823.84
429.40	4964.28
429.59	5104.71
429.78	4746.61
429.97	4760.65
430.16	4802.78
430.34	4987.68
430.53	4968.96
430.72	5139.82
430.91	5018.11
431.10	5214.71
431.28	5256.84
431.47	5249.82
431.66	5249.82
431.85	5032.15
432.03	5413.66
432.22	5378.55
432.41	5476.85
432.60	5357.49
432.79	5373.87
432.97	5376.21
433.16	5394.93
433.35	5357.49
433.54	5413.66
433.72	5526.00
433.91	5636.01
434.10	5511.96
434.28	5561.11
434.47	5474.51
434.66	5554.09
434.85	5685.16
435.03	5640.69
435.22	5757.72
435.41	5956.66
435.59	5771.76
435.78	5755.38
435.97	5851.34
436.16	5935.60
436.34	6050.28
436.53	5905.17
436.72	6066.67
436.90	5951.98
437.09	5944.96
437.28	5860.70
437.46	6040.92
437.65	6094.76
437.84	6017.52
438.02	6040.92
438.21	5956.66
438.40	6225.82
438.58	6296.04
438.77	6340.51
438.96	6368.60
439.14	6541.80
439.33	6499.67
439.52	6614.35
439.70	6537.12
439.89	6707.98
440.08	6745.42
440.26	6752.45
440.45	6745.42
440.63	6806.28
440.82	6855.43
441.01	6817.98
441.19	6920.96
441.38	6906.92
441.57	7199.49
441.75	7054.37
441.94	7227.57
442.12	7311.83
442.31	7454.61
442.50	7328.22
442.68	7232.26
442.87	7211.19
443.05	7379.71
443.24	7482.69
443.43	7508.44
443.61	7412.48
443.80	7646.53
443.98	7391.41
444.17	7248.64
444.35	7620.78
444.54	7440.56
444.73	7667.60
444.91	7449.93
445.10	7410.14
445.28	7576.31
445.47	7396.09
445.65	7683.98
445.84	7693.34
446.02	7801.01
446.21	7786.96
446.39	7569.29
446.58	7763.56
446.77	7801.01
446.95	7503.76
447.14	7651.21
447.32	7962.50
447.51	7606.74
447.69	7878.24
447.88	7929.74
448.06	7758.88
448.25	7728.45
448.43	7822.07
448.62	7843.14
448.80	7667.60
448.99	7878.24
449.17	7976.55
449.36	7843.14
449.54	8217.62
449.73	8112.30
449.91	8145.06
450.10	7906.33
450.28	8287.84
450.46	8285.50
450.65	8336.99
450.83	8320.60
451.02	8355.71
451.20	8503.17
451.39	8257.41
451.57	8234.00
451.76	8346.35
451.94	8243.37
452.13	8564.02
452.31	8589.77
452.49	8322.94
452.68	8526.57
452.86	8634.24
453.05	8585.08
453.23	8704.45
453.42	8564.02
453.60	8592.11
453.78	8493.80
453.97	8559.34
454.15	8835.52
454.34	8496.14
454.52	8865.95
454.70	8879.99
454.89	8879.99
455.07	8842.54
455.26	8938.51
455.44	9104.68
455.62	8966.59
455.81	9348.10
455.99	8973.61
456.17	9081.28
456.36	9423.00
456.54	9486.19
456.73	9308.31
456.91	9600.88
457.09	9535.34
457.28	9617.26
457.46	9558.75
457.64	9628.96
457.83	9926.21
458.01	9570.45
458.19	9694.50
458.38	9617.26
458.56	9865.36
458.74	9834.93
458.93	9638.33
459.11	9958.98
459.29	9961.32
459.48	10143.88
459.66	9951.96
459.84	9860.68
460.03	10115.80
460.21	9832.59
460.39	10076.01
460.57	10047.92
460.76	10080.69
460.94	10406.02
461.12	10153.24
461.31	10120.48
461.49	10174.31
461.67	10263.25
461.85	10647.10
462.04	10497.30
462.22	10827.32
462.40	10520.71
462.59	10518.37
462.77	10499.64
462.95	10675.18
463.13	10562.84
463.32	10370.91
463.50	10628.37
463.68	10799.23
463.86	10895.19
464.05	10497.30
464.23	10815.62
464.41	10909.24
464.59	10672.84
464.78	10984.13
464.96	10663.48
465.14	10799.23
465.32	10897.53
465.50	11082.44
465.69	11199.46
465.87	10916.26
466.05	11037.97
466.23	11054.35
466.41	11288.40
466.60	11433.52
466.78	11028.60
466.96	11129.25
467.14	11236.91
467.32	11159.67
467.51	11487.35
467.69	11335.21
467.87	11494.37
468.05	11398.41
468.23	11407.77
468.41	11351.60
468.60	11363.30
468.78	11688.64
468.96	11712.04
469.14	11726.08
469.32	11777.58
469.50	11307.13
469.69	11850.13
469.87	11913.33
470.05	12020.99
470.23	11983.54
470.41	12039.72
470.59	12112.27
470.77	11950.78
470.95	12334.62
471.14	12463.35
471.32	11864.18
471.50	12589.74
471.68	12339.30
471.86	12697.41
472.04	12334.62
472.22	12798.05
472.40	12262.07
472.58	12947.84
472.77	12463.35
472.95	13074.23
473.13	13383.18
473.31	13008.70
473.49	12765.28
473.67	13158.49
473.85	13036.78
474.03	13217.01
474.21	13099.98
474.39	13575.11
474.57	13378.50
474.75	13556.38
474.93	13785.76
475.12	13575.11
475.30	13542.34
475.48	13696.82
475.66	14125.13
475.84	13781.07
476.02	14146.20
476.20	14111.09
476.38	14588.56
476.56	14822.61
476.74	14532.39
476.92	14445.79
477.10	14527.71
477.28	14984.11
477.46	14588.56
477.64	14977.09
477.82	15047.30
478.00	15349.23
478.18	15414.77
478.36	15695.63
478.54	15393.70
478.72	15885.22
478.90	15709.68
479.08	15932.03
479.26	16236.30
479.44	16496.10
479.62	16264.38
479.80	16367.37
479.98	16659.93
480.16	16917.39
480.34	16863.56
480.52	17067.19
480.70	17125.70
480.88	17158.47
481.06	17451.03
481.24	17334.01
481.41	17350.39
481.59	17869.99
481.77	17968.29
481.95	18097.02
482.13	18192.98
482.31	18026.81
482.49	18342.78
482.67	18607.26
482.85	18883.44
483.03	19016.85
483.21	18920.89
483.39	19307.08
483.57	18881.10
483.74	19267.29
483.92	19775.19
484.10	19311.76
484.28	20294.79
484.46	20095.84
484.64	20580.33
484.82	20018.60
485.00	20460.96
485.18	21109.29
485.35	21376.11
485.53	21226.32
485.71	21160.78
485.89	21603.14
486.07	21392.50
486.25	21500.16
486.43	21575.06
486.61	21816.13
486.78	21944.86
486.96	22246.79
487.14	22616.60
487.32	22623.62
487.50	22967.68
487.68	23028.53
487.85	23475.57
488.03	23489.62
488.21	24030.28
488.39	24070.07
488.57	24112.20
488.75	24306.46
488.92	24446.90
489.10	24713.72
489.28	24739.46
489.46	25142.03
489.64	24779.25
489.81	25268.42
489.99	25450.99
490.17	25823.13
490.35	25876.96
490.53	26307.62
490.70	26223.36
490.88	26309.96
491.06	26820.20
491.24	26417.63
491.41	26551.04
491.59	27061.27
491.77	26960.63
491.95	27716.62
492.13	27253.20
492.30	27791.52
492.48	27756.41
492.66	27740.03
492.84	28126.22
493.01	28081.75
493.19	28641.14
493.37	28919.66
493.54	28713.69
493.72	29050.73
493.90	29078.82
494.08	29282.44
494.25	29872.26
494.43	30031.41
494.61	29818.42
494.79	29649.91
494.96	30005.67
495.14	30242.06
495.32	30527.61
495.49	30834.22
495.67	30941.88
495.85	30787.41
496.02	31545.74
496.20	31466.16
496.38	31480.21
496.55	31576.17
496.73	31887.46
496.91	31826.60
497.09	32219.81
497.26	32273.65
497.44	32517.06
497.62	32350.88
497.79	32636.43
497.97	32987.51
498.14	33326.89
498.32	33684.99
498.50	33591.37
498.67	33574.98
498.85	33762.23
499.03	33912.02
499.20	34422.26
499.38	34103.95
499.56	34244.38
499.73	34742.91
499.91	34855.26
500.08	34969.94
500.26	34689.08
500.44	34939.52
500.61	35218.04
500.79	35524.65
500.97	35091.65
501.14	35606.57
501.32	35466.14
501.49	35831.26
501.67	35903.82
501.84	36266.60
502.02	36034.89
502.20	36439.80
502.37	36966.42
502.55	36521.72
502.72	36650.45
502.90	36613.00
503.07	36418.74
503.25	37085.79
503.43	36938.33
503.60	37340.91
503.78	37240.26
503.95	37551.56
504.13	37364.31
504.30	37558.58
504.48	37368.99
504.65	37392.40
504.83	38164.78
505.01	38293.50
505.18	38223.29
505.36	38740.55
505.53	38288.82
505.71	38328.61
505.88	38457.34
506.06	38653.95
506.23	38904.38
506.41	39075.24
506.58	39321.00
506.76	39452.07
506.93	39489.52
507.11	39063.54
507.28	39435.69
507.46	39831.24
507.63	39810.17
507.81	40343.81
507.98	40039.54
508.16	39835.92
508.33	40161.25
508.50	40285.30
508.68	40772.13
508.85	41116.19
509.03	40982.78
509.20	40912.56
509.38	41359.61
509.55	41214.49
509.73	41057.68
509.90	41902.61
510.08	41614.72
510.25	41823.03
510.42	41961.12
510.60	42103.90
510.77	41881.55
510.95	42080.49
511.12	42143.69
511.30	42361.36
511.47	42462.00
511.64	42417.53
511.82	43208.63
511.99	42934.79
512.17	43168.84
512.34	42637.54
512.51	43257.78
512.69	43519.92
512.86	43316.29
513.04	43627.59
513.21	43332.68
513.38	43917.81
513.56	43973.98
513.73	43482.47
513.90	43807.81
514.08	43988.03
514.25	44266.55
514.43	44348.47
514.60	44147.18
514.77	44325.07
514.95	44657.42
515.12	44107.40
515.29	44514.65
515.47	44762.75
515.64	45200.43
515.81	44568.48
515.99	45586.61
516.16	45600.66
516.33	45773.86
516.51	46127.28
516.68	45188.72
516.85	45450.86
517.03	45434.48
517.20	46073.45
517.37	45972.80
517.54	45682.58
517.72	46220.90
517.89	45752.79
518.06	46209.20
518.24	46298.14
518.41	46124.94
518.58	46073.45
518.75	46419.84
518.93	46869.23
519.10	46597.73
519.27	46651.56
519.45	47107.96
519.62	47021.36
519.79	47096.26
519.96	47133.71
520.14	47281.16
520.31	47061.15
520.48	47622.88
520.65	47629.90
520.83	47456.70
521.00	47475.43
521.17	47299.89
521.34	47672.03
521.52	47959.92
521.69	47999.71
521.86	47686.07
522.03	48165.88
522.20	48130.78
522.38	48556.75
522.55	48423.34
522.72	48435.05
522.89	48641.01
523.07	48921.88
523.24	48959.33
523.41	49085.72
523.58	48741.66
523.75	49282.32
523.92	48938.26
524.10	48942.94
524.27	49050.61
524.44	49434.45
524.61	49881.50
524.78	49544.46
524.96	49848.73
525.13	49614.68
525.30	49507.01
525.47	49815.96
525.64	49815.96
525.81	49968.10
525.98	50122.57
526.16	49818.30
526.33	49975.12
526.50	50321.52
526.67	49846.39
526.84	50408.12
527.01	49935.33
527.18	49827.66
527.36	50396.42
527.53	50567.27
527.70	51009.64
527.87	50305.13
528.04	50642.17
528.21	50918.35
528.38	50951.12
528.55	50768.56
528.72	50752.18
528.89	50801.33
529.07	51058.79
529.24	50712.39
529.41	51206.24
529.58	51337.31
529.75	50698.34
529.92	51257.73
530.09	51381.78
530.26	51569.02
530.43	51320.93
530.60	51222.62
530.77	51341.99
530.94	51672.01
531.11	51215.60
531.28	51426.25
531.46	51433.27
531.63	51824.14
531.80	52011.38
531.97	52081.60
532.14	52105.01
532.31	52055.85
532.48	51774.99
532.65	51941.17
532.82	51845.21
532.99	51859.25
533.16	52334.38
533.33	52250.12
533.50	52479.49
533.67	52156.50
533.84	52259.48
534.01	52348.42
534.18	52561.41
534.35	52404.59
534.52	52612.90
534.69	52856.32
534.86	53123.14
535.03	52540.35
535.20	52502.90
535.37	52982.71
535.54	52971.00
535.71	52800.15
535.88	53003.77
536.05	53118.46
536.22	53296.34
536.38	52954.62
536.55	52956.96
536.72	53235.48
536.89	52898.45
537.06	53359.53
537.23	53364.21
537.40	53331.45
537.57	53368.90
537.74	53448.47
537.91	53476.56
538.08	53722.32
538.25	53680.19
538.42	53598.27
538.59	53766.79
538.75	53389.96
538.92	53734.02
539.09	53935.30
539.26	54120.21
539.43	53947.01
539.60	54064.03
539.77	53944.67
539.94	54265.32
540.11	54059.35
540.28	54248.94
540.44	54017.22
540.61	54031.27
540.78	54152.97
540.95	54232.55
541.12	54061.69
541.29	54286.39
541.46	53998.50
541.62	54504.06
541.79	54749.81
541.96	54202.13
542.13	54403.41
542.30	54515.76
542.47	54724.07
542.63	54466.61
542.80	54761.51
542.97	55025.99
543.14	55023.65
543.31	54859.82
543.48	54841.09
543.64	55201.53
543.81	55185.15
543.98	55278.77
544.15	55203.88
544.32	55428.57
544.48	55660.28
544.65	55096.21
544.82	54855.14
544.99	55302.18
545.16	55461.33
545.32	55210.90
545.49	55365.37
545.66	55648.58
545.83	55632.19
546.00	55494.10
546.16	55627.51
546.33	55468.36
546.50	55337.29
546.67	55456.65
546.83	55222.60
547.00	55407.50
547.17	55458.99
547.34	55494.10
547.50	55426.23
547.67	55908.38
547.84	55655.60
548.00	55753.90
548.17	55962.21
548.34	55646.24
548.51	56121.37
548.67	56069.87
548.84	55987.95
549.01	55859.23
549.18	55910.72
549.34	56112.00
549.51	56009.02
549.68	56149.45
549.84	55976.25
550.01	56329.67
550.18	56182.22
550.34	56364.78
550.51	56172.86
550.68	56355.42
550.84	55824.12
551.01	56273.50
551.18	56395.21
551.34	56250.09
551.51	56224.35
551.68	56521.60
551.84	56638.62
552.01	56303.93
552.18	56687.78
552.34	56376.48
552.51	56512.23
552.68	56308.61
552.84	56530.96
553.01	56811.82
553.18	56692.46
553.34	56629.26
553.51	56676.07
553.67	56685.43
553.84	57008.43
554.01	56818.84
554.17	56608.20
554.34	56886.72
554.51	56877.36
554.67	56905.44
554.84	57031.83
555.00	56765.01
555.17	56966.30
555.33	57085.67
555.50	57174.61
555.67	56898.42
555.83	57020.13
556.00	57095.03
556.16	57411.00
556.33	57078.64
556.50	57228.44
556.66	57041.20
556.83	57242.48
556.99	57361.85
557.16	57219.08
557.32	57223.76
557.49	57289.29
557.65	57134.82
557.82	57193.33
557.98	57485.90
558.15	57439.09
558.32	57134.82
558.48	57345.47
558.65	57635.69
558.81	57429.72
558.98	57478.88
559.14	57396.96
559.31	57425.04
559.47	57399.30
559.64	57504.62
559.80	57502.28
559.97	57790.17
560.13	57448.45
560.30	57535.05
560.46	57609.95
560.63	57504.62
560.79	57645.05
560.96	57745.70
561.12	57726.97
561.29	57698.89
561.45	57619.31
561.61	57888.47
561.78	57797.19
561.94	57766.76
562.11	58010.18
562.27	57696.55
562.44	57883.79
562.60	57715.27
562.77	57844.00
562.93	58010.18
563.10	57893.15
563.26	57827.62
563.42	58225.51
563.59	57846.34
563.75	57858.04
563.92	57986.77
564.08	57836.98
564.24	57984.43
564.41	57975.07
564.57	57804.21
564.74	57839.32
564.90	58066.35
565.07	58021.88
565.23	58225.51
565.39	58209.12
565.56	58255.93
565.72	57785.49
565.88	58052.31
566.05	58209.12
566.21	57944.64
566.38	57963.37
566.54	58145.93
566.70	58382.32
566.87	58272.32
567.03	58262.96
567.19	58391.68
567.36	58424.45
567.52	57984.43
567.68	58328.49
567.85	57914.22
568.01	57982.09
568.17	58241.89
568.34	58188.06
568.50	58309.77
568.66	58150.61
568.83	58501.69
568.99	58316.79
569.15	58080.39
569.32	58183.38
569.48	58078.05
569.64	58431.47
569.81	58284.02
569.97	58269.98
570.13	58291.04
570.30	58253.59
570.46	58230.19
570.62	58436.16
570.78	58335.51
570.95	58403.39
571.11	58454.88
571.27	58082.73
571.43	58426.79
571.60	58511.05
571.76	58431.47
571.92	58686.59
572.09	58515.73
572.25	58443.18
572.41	58623.40
572.57	58344.87
572.74	58614.04
572.90	58494.67
573.06	58571.91
573.22	58438.50
573.38	58330.83
573.55	58798.94
573.71	58752.13
573.87	58571.91
574.03	58625.74
574.20	58398.71
574.36	58534.46
574.52	58471.26
574.68	58536.80
574.84	58592.97
575.01	58770.85
575.17	58763.83
575.33	58564.88
575.49	58447.86
575.65	58782.55
575.82	58812.98
575.98	58628.08
576.14	58710.00
576.30	58710.00
576.46	58445.52
576.62	58506.37
576.79	58354.24
576.95	58543.82
577.11	58862.13
577.27	58827.02
577.43	58932.35
577.59	58688.93
577.75	58731.06
577.92	58562.54
578.08	58611.70
578.24	58557.86
578.40	58541.48
578.56	58616.38
578.72	58569.57
578.88	58726.38
579.04	58761.49
579.21	58843.41
579.37	58768.51
579.53	58787.24
579.69	58431.47
579.85	58754.47
580.01	58796.60
580.17	58543.82
580.33	58791.92
580.49	58714.68
580.65	58871.49
580.82	58937.03
580.98	58656.17
581.14	58913.62
581.30	58979.16
581.46	58937.03
581.62	58621.06
581.78	58590.63
581.94	58871.49
582.10	58782.55
582.26	58892.56
582.42	58834.05
582.58	58885.54
582.74	58841.07
582.90	58941.71
583.06	58925.33
583.22	59110.23
583.38	59016.61
583.54	58922.99
583.70	58646.80
583.86	58986.18
584.02	58962.78
584.18	58901.92
584.34	58932.35
584.50	59032.99
584.66	58930.01
584.82	58864.47
584.98	58679.57
585.14	58791.92
585.30	58642.12
585.46	58845.75
585.62	58693.61
585.78	58904.26
585.94	58768.51
586.10	58918.31
586.26	58857.45
586.42	59084.48
586.58	59121.93
586.74	58899.58
586.90	58831.71
587.06	58871.49
587.22	58873.84
587.38	59070.44
587.54	58965.12
587.70	59159.38
587.86	58930.01
588.02	58939.37
588.18	59159.38
588.34	58967.46
588.49	58887.88
588.65	58908.94
588.81	58932.35
588.97	59253.00
589.13	58997.88
589.29	59119.59
589.45	59215.55
589.61	59185.13
589.77	59213.21
589.93	59386.41
590.08	59374.71
590.24	59044.69
590.40	59494.08
590.56	59353.65
590.72	58995.54
590.88	58798.94
591.04	59112.57
591.20	59264.70
591.35	59519.82
591.51	59473.01
591.67	59264.70
591.83	59330.24
591.99	59267.05
592.15	59210.87
592.31	59199.17
592.46	59157.04
592.62	59159.38
592.78	59044.69
592.94	59278.75
593.10	59332.58
593.26	59543.23
593.41	59461.31
593.57	59325.56
593.73	59367.69
593.89	59470.67
594.05	59269.39
594.20	59220.23
594.36	59306.83
594.52	59171.08
594.68	59236.62
594.84	59030.65
594.99	59339.60
595.15	59295.13
595.31	59503.44
595.47	59386.41
595.62	59545.57
595.78	59098.53
595.94	59264.70
596.10	59290.45
596.25	59281.09
596.41	59238.96
596.57	59339.60
596.73	59288.11
596.88	59276.41
597.04	59585.36
597.20	59648.55
597.36	59423.86
597.51	59583.02
597.67	59143.00
597.83	59381.73
597.99	59391.09
598.14	59220.23
598.30	59044.69
598.46	59208.53
598.61	59386.41
598.77	59409.82
598.93	59550.25
599.09	59629.83
599.24	59674.30
599.40	59255.34
599.56	59365.35
599.71	59117.25
599.87	59480.03
600.03	59311.52
600.18	59484.72
600.34	59351.30
600.50	59475.35
600.65	59461.31
600.81	59669.62
600.97	59585.36
601.12	59568.97
601.28	59697.70
601.44	59447.27
601.59	59693.02
601.75	59435.56
601.91	59597.06
602.06	59543.23
602.22	59667.28
602.37	59437.90
602.53	59578.34
602.69	59695.36
602.84	59391.09
603.00	59557.27
603.16	59547.91
603.31	59573.66
603.47	59358.33
603.62	59482.37
603.78	59552.59
603.94	59262.36
604.09	59597.06
604.25	59508.12
604.40	59241.30
604.56	59323.22
604.71	59695.36
604.87	59686.00
605.03	59515.14
605.18	59606.42
605.34	59384.07
605.49	59082.14
605.65	59414.50
605.80	59189.81
605.96	59215.55
606.12	59501.10
606.27	59671.96
606.43	59288.11
606.58	59597.06
606.74	59377.05
606.89	59501.10
607.05	59592.38
607.20	59653.23
607.36	59412.16
607.51	59451.95
607.67	59353.65
607.82	59463.65
607.98	59531.53
608.13	59201.51
608.29	59430.88
608.44	59568.97
608.60	59463.65
608.75	59388.75
608.91	59552.59
609.06	59229.60
609.22	59316.20
609.37	59023.63
609.53	59168.74
609.68	59231.94
609.84	58990.86
609.99	59325.56
610.15	59288.11
610.30	59384.07
610.46	59238.96
610.61	59412.16
610.76	59372.37
610.92	59318.54
611.07	59213.21
611.23	59203.85
611.38	58983.84
611.54	59243.64
611.69	59168.74
611.84	59105.55
612.00	59119.59
612.15	59119.59
612.31	59316.20
612.46	59264.70
612.62	59454.29
612.77	59025.97
612.92	59189.81
613.08	59014.27
613.23	59262.36
613.39	59199.17
613.54	58997.88
613.69	59089.16
613.85	58958.09
614.00	59138.32
614.15	59320.88
614.31	59157.04
614.46	59124.27
614.62	59121.93
614.77	59229.60
614.92	59231.94
615.08	58796.60
615.23	59229.60
615.38	59058.74
615.54	58749.79
615.69	58897.24
615.84	59065.76
616.00	59004.91
616.15	59018.95
616.30	59138.32
616.46	58922.99
616.61	58894.90
616.76	59171.08
616.92	59004.91
617.07	59124.27
617.22	58801.28
617.37	58894.90
617.53	58841.07
617.68	58625.74
617.83	58653.82
617.99	58710.00
618.14	58960.44
618.29	58841.07
618.45	58721.70
618.60	58829.37
618.75	58972.14
618.90	58866.81
619.06	58885.54
619.21	58518.07
619.36	58693.61
619.51	58880.86
619.67	58562.54
619.82	58480.63
619.97	58614.04
620.12	58679.57
620.28	58632.76
620.43	58869.15
620.58	58887.88
620.73	58562.54
620.89	58887.88
621.04	58789.58
621.19	58693.61
621.34	58464.24
621.49	58501.69
621.65	58305.09
621.80	58592.97
621.95	58417.43
622.10	58473.60
622.25	58686.59
622.41	58468.92
622.56	58485.31
622.71	58391.68
622.86	58497.01
623.01	58382.32
623.16	58370.62
623.32	58431.47
623.47	58382.32
623.62	58234.87
623.77	58225.51
623.92	58171.67
624.07	58225.51
624.23	58260.62
624.38	58466.58
624.53	58209.12
624.68	58419.77
624.83	58305.09
624.98	58340.19
625.13	57897.83
625.29	58092.10
625.44	58028.90
625.59	57876.77
625.74	57916.56
625.89	57935.28
626.04	57928.26
626.19	57979.75
626.34	57982.09
626.49	57989.11
626.65	58014.86
626.80	57946.98
626.95	57780.81
627.10	58026.56
627.25	57930.60
627.40	58096.78
627.55	57771.44
627.70	57673.14
627.85	57729.31
628.00	57413.34
628.15	57724.63
628.30	57551.43
628.45	57939.96
628.60	57806.55
628.76	57942.30
628.91	57855.70
629.06	57848.68
629.21	57806.55
629.36	57888.47
629.51	57677.82
629.66	57673.14
629.81	57521.01
629.96	57558.45
630.11	57525.69
630.26	57469.51
630.41	57403.98
630.56	57354.83
630.71	57661.44
630.86	57623.99
631.01	57696.55
631.16	57415.68
631.31	57462.49
631.46	57343.12
631.61	57668.46
631.76	57560.79
631.91	57422.70
632.06	57095.03
632.21	57265.89
632.36	57364.19
632.51	57120.77
632.66	57296.31
632.81	57186.31
632.96	57207.37
633.10	57326.74
633.25	57127.80
633.40	57359.51
633.55	57111.41
633.70	57083.33
633.85	57048.22
634.00	56779.06
634.15	56921.83
634.30	57244.82
634.45	57214.40
634.60	57127.80
634.75	57361.85
634.90	57361.85
635.05	57368.87
635.19	56963.96
635.34	57312.70
635.49	57120.77
635.64	57102.05
635.79	57073.96
635.94	57045.88
636.09	57029.49
636.24	56858.63
636.39	56741.61
636.53	57092.69
636.68	56849.27
636.83	56956.94
636.98	57190.99
637.13	56872.68
637.28	57020.13
637.43	56931.19
637.57	57050.56
637.72	56968.64
637.87	56907.79
638.02	56853.95
638.17	56743.95
638.32	56573.09
638.46	56357.76
638.61	56350.74
638.76	56411.59
638.91	56423.29
639.06	56863.32
639.20	56896.08
639.35	56856.29
639.50	56535.64
639.65	56807.14
639.80	56671.39
639.94	56332.01
640.09	56486.49
640.24	56324.99
640.39	56498.19
640.54	56205.62
640.68	56280.52
640.83	56573.09
640.98	56142.43
641.13	56214.99
641.27	56327.33
641.42	56238.39
641.57	56205.62
641.72	56610.54
641.86	56364.78
642.01	56306.27
642.16	56261.80
642.31	56095.62
642.45	56367.12
642.60	56093.28
642.75	56289.88
642.90	56247.75
643.04	56051.15
643.19	56093.28
643.34	56315.63
643.48	56282.86
643.63	56413.93
643.78	56133.07
643.93	56329.67
644.07	56109.66
644.22	55903.70
644.37	55868.59
644.51	56165.84
644.66	55938.80
644.81	55817.10
644.95	56025.40
645.10	55894.33
645.25	55901.36
645.39	56025.40
645.54	56048.81
645.69	55959.87
645.83	55917.74
645.98	55994.98
646.13	56016.04
646.27	55758.58
646.42	55810.07
646.57	55901.36
646.71	55978.59
646.86	55814.76
647.00	55908.38
647.15	55540.91
647.30	55683.69
647.44	55763.26
647.59	55943.48
647.74	55524.53
647.88	55393.46
648.03	55693.05
648.17	55683.69
648.32	55447.29
648.47	55508.14
648.61	55657.94
648.76	55557.30
648.90	55327.92
649.05	55561.98
649.20	55723.47
649.34	55463.67
649.49	55381.76
649.63	55306.86
649.78	55356.01
649.92	55557.30
650.07	55744.54
650.21	55395.80
650.36	55412.18
650.51	55648.58
650.65	55597.09
650.80	55337.29
650.94	55461.33
651.09	55374.73
651.23	54923.01
651.38	55311.54
651.52	55086.85
651.67	55206.22
651.81	55173.45
651.96	54972.16
652.10	55037.70
652.25	54955.78
652.39	55222.60
652.54	55264.73
652.68	55447.29
652.83	55405.16
652.97	55154.72
653.12	55028.34
653.26	54972.16
653.41	54845.77
653.55	54688.96
653.70	54878.54
653.84	55014.29
653.99	54906.63
654.13	54965.14
654.27	54740.45
654.42	54841.09
654.56	54801.30
654.71	55072.81
654.85	54831.73
655.00	55105.57
655.14	55283.45
655.29	54604.70
655.43	54754.49
655.57	54693.64
655.72	54370.64
655.86	54658.53
656.01	54391.71
656.15	54644.49
656.30	54436.18
656.44	54450.22
656.58	54403.41
656.73	54593.00
656.87	54616.40
657.01	54796.62
657.16	54618.74
657.30	54656.19
657.45	54499.37
657.59	54403.41
657.73	54440.86
657.88	54295.75
658.02	54314.47
658.16	54307.45
658.31	54117.87
658.45	54293.41
658.60	53642.74
658.74	54071.06
658.88	53893.18
659.03	54253.62
659.17	53705.93
659.31	53986.80
659.46	54045.31
659.60	54211.49
659.74	54202.13
659.89	53956.37
660.03	53888.49
660.17	54284.04
660.32	53942.33
660.46	53659.12
660.60	53890.83
660.74	53684.87
660.89	53834.66
661.03	53502.31
661.17	53897.86
661.32	53682.53
661.46	53628.69
661.60	53298.68
661.74	53279.96
661.89	53485.92
662.03	53514.01
662.17	53331.45
662.31	53216.76
662.46	53488.26
662.60	53052.92
662.74	52928.87
662.88	53001.43
663.03	52837.59
663.17	52966.32
663.31	52748.65
663.45	52690.14
663.60	52772.06
663.74	52935.90
663.88	52521.62
664.02	53083.35
664.17	53249.53
664.31	52952.28
664.45	52758.02
664.59	52640.99
664.73	52746.31
664.88	52460.77
665.02	52116.71
665.16	52420.98
665.30	52313.31
665.44	52278.21
665.59	52294.59
665.73	52439.70
665.87	52268.84
666.01	52147.14
666.15	52261.82
666.29	52360.12
666.44	52350.76
666.58	52006.70
666.72	51751.59
666.86	52121.39
667.00	52346.08
667.14	51760.95
667.28	51213.26
667.43	51255.39
667.57	51320.93
667.71	51463.70
667.85	51304.54
667.99	51257.73
668.13	51274.12
668.27	51196.88
668.41	51515.19
668.56	50834.10
668.70	51489.45
668.84	51657.96
668.98	51129.00
669.12	51260.07
669.26	51304.54
669.40	50848.14
669.54	50777.92
669.68	51082.19
669.82	50504.08
669.96	50829.41
670.10	50916.01
670.25	50777.92
670.39	50337.90
670.53	50391.73
670.67	50490.04
670.81	51033.04
670.95	50794.31
671.09	50527.48
671.23	50384.71
671.37	50670.26
671.51	50328.54
671.65	50291.09
671.79	50028.95
671.93	50066.40
672.07	50138.96
672.21	49446.16
672.35	49401.69
672.49	49549.14
672.63	49525.74
672.77	49443.82
672.91	49507.01
673.05	49233.17
673.19	48996.77
673.33	49275.30
673.47	49432.11
673.61	49883.84
673.75	49261.26
673.89	49462.54
674.03	49134.87
674.17	49048.27
674.31	48966.35
674.45	48903.15
674.59	48734.63
674.73	48879.75
674.87	48472.49
675.01	48037.16
675.15	48481.86
675.29	48561.44
675.43	48041.84
675.56	47945.87
675.70	48421.00
675.84	48156.52
675.98	47042.43
676.12	48018.43
676.26	47945.87
676.40	47540.96
676.54	47248.39
676.68	47412.23
676.82	46396.44
676.96	46930.08
677.10	46754.54
677.23	46892.63
677.37	46756.88
677.51	46726.46
677.65	46113.23
677.79	46028.98
677.93	46314.52
678.07	46274.73
678.21	46480.70
678.34	46185.79
678.48	45804.28
678.62	45773.86
678.76	45792.58
678.90	45832.37
679.04	45394.69
679.18	45392.35
679.31	44744.02
679.45	45167.66
679.59	44753.38
679.73	45057.65
679.87	44718.28
680.00	44493.58
680.14	44205.70
680.28	44481.88
680.42	44109.74
680.56	44507.63
680.70	44498.26
680.83	44341.45
680.97	44371.88
681.11	44170.59
681.25	43487.15
681.39	43468.43
681.52	43182.88
681.66	42918.40
681.80	42876.27
681.94	42541.58
682.07	42768.61
682.21	42674.99
682.35	43012.02
682.49	42997.98
682.62	42241.99
682.76	42424.55
682.90	42270.08
683.04	42595.41
683.17	42344.97
683.31	41918.99
683.45	42410.51
683.59	42281.78
683.72	42038.36
683.86	41968.15
684.00	41397.06
684.13	40837.67
684.27	41015.55
684.41	40620.00
684.55	40392.97
684.68	40142.53
684.82	40320.41
684.96	40364.88
685.09	40212.74
685.23	40074.65
685.37	39735.27
685.50	40411.69
685.64	40282.96
685.78	39599.52
685.91	40076.99
686.05	39473.13
686.19	39845.28
686.32	39522.29
686.46	38808.42
686.60	38539.26
686.73	38923.11
686.87	38506.49
687.01	38457.34
687.14	38628.20
687.28	38445.64
687.42	38007.96
687.55	37996.26
687.69	37982.21
687.82	37869.87
687.96	37982.21
688.10	37647.52
688.23	37890.93
688.37	37481.34
688.50	37385.38
688.64	37270.69
688.78	37598.37
688.91	37446.23
689.05	36872.80
689.18	36224.47
689.32	35924.88
689.46	36102.76
689.59	36055.95
689.73	36346.18
689.86	35716.58
690.00	35676.79
690.13	35992.76
690.27	36109.78
690.41	35784.45
690.54	35416.99
690.68	35093.99
690.81	35435.71
690.95	35246.13
691.08	35466.14
691.22	35119.74
691.35	34670.36
691.49	34309.91
691.62	34899.73
691.76	34260.76
691.89	34117.99
692.03	33951.81
692.16	33762.23
692.30	34148.42
692.43	33589.03
692.57	33670.95
692.70	33795.00
692.84	33574.98
692.97	33275.40
693.11	33205.18
693.24	33046.02
693.38	33546.90
693.51	33095.18
693.65	33106.88
693.78	33111.56
693.92	32734.73
694.05	32430.46
694.19	31847.67
694.32	31850.01
694.45	31651.06
694.59	31662.77
694.72	31477.86
694.86	31438.08
694.99	31054.23
695.13	31168.91
695.26	30848.26
695.39	30822.51
695.53	31206.36
695.66	30979.33
695.80	30520.59
695.93	31260.20
696.07	30710.17
696.20	30356.75
696.33	30583.78
696.47	30543.99
696.60	30429.30
696.73	30012.69
696.87	30150.78
697.00	29422.87
697.14	29355.00
697.27	29242.65
697.40	29413.51
697.54	29312.87
697.67	28606.03
697.80	28552.20
697.94	28613.05
698.07	28631.77
698.21	28793.27
698.34	28893.91
698.47	28451.55
698.61	27997.49
698.74	28105.15
698.87	28126.22
699.01	27777.48
699.14	27503.64
699.27	27447.46
699.40	27358.52
699.54	27370.22
699.67	27147.87
699.80	26881.05
699.94	26817.86
700.07	26892.76
700.20	26890.41
700.34	26934.88
700.47	26899.78
700.60	26473.80
700.73	26649.34
700.87	26324.01
701.00	26113.36
701.13	26331.03
701.26	26480.82
701.40	26281.88
701.53	26038.46
701.66	25734.19
701.79	25137.35
701.93	25579.71
702.06	24931.39
702.19	25661.63
702.32	25460.35
702.46	24891.60
702.59	25046.07
702.72	24500.73
702.85	24570.94
702.99	24446.90
703.12	24322.85
703.25	23976.45
703.38	24460.94
703.51	24254.97
703.65	24100.50
703.78	23908.57
703.91	23620.69
704.04	23641.75
704.17	23730.69
704.31	23571.54
704.44	23087.04
704.57	23665.16
704.70	23229.82
704.83	23222.80
704.96	23342.16
705.10	23140.88
705.23	22670.43
>>>>>End Processed Spectral Data<<<<<
