SpectraSuite Data File
++++++++++++++++++++++++++++++++++++
Date: Fri Oct 04 11:48:30 GMT-05:00 2013
User: price-jones
Dark Spectrum Present: No
Reference Spectrum Present: No
Number of Sampled Component Spectra: 1
Spectrometers: USB2+H05261
Integration Time (usec): 100000 (USB2+H05261)
Spectra Averaged: 1 (USB2+H05261)
Boxcar Smoothing: 0 (USB2+H05261)
Correct for Electrical Dark: No (USB2+H05261)
Strobe/Lamp Enabled: No (USB2+H05261)
Correct for Detector Non-linearity: No (USB2+H05261)
Correct for Stray Light: No (USB2+H05261)
Number of Pixels in Processed Spectrum: 2048
>>>>>Begin Processed Spectral Data<<<<<
365.73	0.00
365.92	0.00
366.12	0.00
366.32	0.00
366.52	0.00
366.72	0.00
366.91	0.00
367.11	0.00
367.31	0.00
367.51	0.00
367.70	0.00
367.90	0.00
368.10	0.00
368.30	0.00
368.49	0.00
368.69	0.00
368.89	0.00
369.09	0.00
369.28	4.68
369.48	0.00
369.68	0.00
369.87	0.00
370.07	0.00
370.27	49.15
370.47	98.30
370.66	318.31
370.86	365.12
371.06	421.30
371.25	475.13
371.45	367.46
371.65	510.24
371.84	489.17
372.04	463.43
372.24	528.96
372.44	416.62
372.63	524.28
372.83	648.33
373.03	580.45
373.22	538.32
373.42	580.45
373.62	538.32
373.81	578.11
374.01	594.50
374.21	559.39
374.40	512.58
374.60	615.56
374.79	540.66
374.99	622.58
375.19	617.90
375.38	669.39
375.58	667.05
375.78	664.71
375.97	681.10
376.17	681.10
376.37	669.39
376.56	622.58
376.76	660.03
376.95	674.07
377.15	732.59
377.35	571.09
377.54	683.44
377.74	664.71
377.93	688.12
378.13	718.54
378.33	725.57
378.52	730.25
378.72	767.70
378.91	802.80
379.11	763.01
379.31	704.50
379.50	725.57
379.70	793.44
379.89	786.42
380.09	791.10
380.28	793.44
380.48	727.91
380.68	744.29
380.87	688.12
381.07	833.23
381.26	863.66
381.46	795.78
381.65	849.61
381.85	917.49
382.04	849.61
382.24	908.13
382.43	851.96
382.63	924.51
382.83	861.32
383.02	910.47
383.22	847.27
383.41	849.61
383.61	894.08
383.80	809.83
384.00	851.96
384.19	966.64
384.39	828.55
384.58	903.45
384.78	926.85
384.97	994.73
385.17	910.47
385.36	1006.43
385.56	994.73
385.75	943.24
385.95	912.81
386.14	961.96
386.34	957.28
386.53	1022.81
386.72	1020.47
386.92	1123.46
387.11	1039.20
387.31	1004.09
387.50	919.83
387.70	1013.45
387.89	1057.92
388.09	983.02
388.28	1116.44
388.48	1071.97
388.67	1060.26
388.86	1067.28
389.06	1111.75
389.25	1177.29
389.45	1111.75
389.64	1121.12
389.84	1128.14
390.03	1186.65
390.22	1303.68
390.42	1174.95
390.61	1210.06
390.81	1156.22
391.00	1146.86
391.19	1235.80
391.39	1228.78
391.58	1170.27
391.78	1226.44
391.97	1287.29
392.16	1261.55
392.36	1270.91
392.55	1350.49
392.75	1387.94
392.94	1259.21
393.13	1247.51
393.33	1296.66
393.52	1352.83
393.71	1502.62
393.91	1455.81
394.10	1390.28
394.29	1385.60
394.49	1352.83
394.68	1434.75
394.88	1479.22
395.07	1444.11
395.26	1437.09
395.46	1404.32
395.65	1570.50
395.84	1565.82
396.04	1530.71
396.23	1493.26
396.42	1493.26
396.62	1554.12
396.81	1493.26
397.00	1537.73
397.19	1657.10
397.39	1643.06
397.58	1640.72
397.77	1579.86
397.97	1654.76
398.16	1596.25
398.35	1661.78
398.55	1790.51
398.74	1806.89
398.93	1685.19
399.12	1680.50
399.32	1678.16
399.51	1643.06
399.70	1760.08
399.90	1703.91
400.09	1748.38
400.28	1664.12
400.47	1797.53
400.67	1827.96
400.86	1849.02
401.05	1853.70
401.24	1919.24
401.44	1818.60
401.63	1872.43
401.82	1940.30
402.01	1844.34
402.21	1973.07
402.40	1928.60
402.59	2050.31
402.78	1980.09
402.97	2010.52
403.17	1928.60
403.36	1961.37
403.55	2047.97
403.74	2251.60
403.93	2106.48
404.13	2263.30
404.32	2186.06
404.51	2085.42
404.70	2120.53
404.89	2094.78
405.09	2256.28
405.28	2209.47
405.47	2195.42
405.66	2270.32
405.85	2319.47
406.05	2352.24
406.24	2296.07
406.43	2349.90
406.62	2368.62
406.81	2382.67
407.00	2331.17
407.20	2324.15
407.39	2406.07
407.58	2471.61
407.77	2459.90
407.96	2502.03
408.15	2511.39
408.34	2497.35
408.54	2551.18
408.73	2527.78
408.92	2509.05
409.11	2712.68
409.30	2637.78
409.49	2651.83
409.68	2616.72
409.87	2654.17
410.07	2818.00
410.26	2726.72
410.45	2775.88
410.64	2745.45
410.83	2808.64
411.02	2871.84
411.21	2949.08
411.40	2932.69
411.59	2913.97
411.78	3007.59
411.98	2846.09
412.17	2986.52
412.36	2956.10
412.55	3124.62
412.74	2942.05
412.93	3094.19
413.12	3180.79
413.31	3272.07
413.50	3232.28
413.69	3307.18
413.88	3400.80
414.07	3307.18
414.26	3400.80
414.45	3346.97
414.64	3499.10
414.83	3541.23
415.02	3529.53
415.22	3529.53
415.41	3632.51
415.60	3695.71
415.79	3536.55
415.98	3595.06
416.17	3744.86
416.36	3590.38
416.55	3702.73
416.74	3688.68
416.93	3735.50
417.12	3824.44
417.31	3878.27
417.50	3812.73
417.69	4105.30
417.88	3901.67
418.07	3866.56
418.26	3941.46
418.45	4095.94
418.64	4243.39
418.83	4128.70
419.02	4060.83
419.21	4100.62
419.39	4119.34
419.58	4056.15
419.77	4058.49
419.96	4070.19
420.15	4212.96
420.34	4259.78
420.53	4238.71
420.72	4348.72
420.91	4325.31
421.10	4341.69
421.29	4538.30
421.48	4348.72
421.67	4358.08
421.86	4568.73
422.05	4444.68
422.24	4521.92
422.43	4430.63
422.61	4524.26
422.80	4486.81
422.99	4489.15
423.18	4528.94
423.37	4564.04
423.56	4465.74
423.75	4514.89
423.94	4486.81
424.13	4484.47
424.32	4393.19
424.50	4610.86
424.69	4770.01
424.88	4695.11
425.07	4449.36
425.26	4631.92
425.45	4624.90
425.64	4643.62
425.83	4451.70
426.01	4631.92
426.20	4751.29
426.39	4622.56
426.58	4425.95
426.77	4805.12
426.96	4755.97
427.15	4741.93
427.33	4641.28
427.52	4702.14
427.71	4858.95
427.90	4777.03
428.09	4877.68
428.28	4835.55
428.46	5020.45
428.65	4894.06
428.84	5142.16
429.03	5020.45
429.22	5011.09
429.40	5135.14
429.59	5207.69
429.78	4770.01
429.97	4933.85
430.16	4915.12
430.34	5135.14
430.53	5355.15
430.72	5109.39
430.91	5231.10
431.10	5179.61
431.28	5380.89
431.47	5364.51
431.66	5472.17
431.85	5411.32
432.03	5448.77
432.22	5598.56
432.41	5540.05
432.60	5493.24
432.79	5416.00
432.97	5364.51
433.16	5465.15
433.35	5654.73
433.54	5720.27
433.72	5830.27
433.91	5467.49
434.10	5706.23
434.28	5750.70
434.47	5699.20
434.66	5724.95
434.85	5771.76
435.03	5846.66
435.22	5774.10
435.41	6033.90
435.59	5921.56
435.78	5984.75
435.97	6029.22
436.16	6026.88
436.34	5963.68
436.53	6012.84
436.72	6242.21
436.90	6099.44
437.09	6162.63
437.28	6061.99
437.46	6321.79
437.65	6108.80
437.84	6237.53
438.02	6303.06
438.21	6202.42
438.40	6204.76
438.58	6431.79
438.77	6602.65
438.96	6574.56
439.14	6516.05
439.33	6715.00
439.52	6885.86
439.70	6778.19
439.89	6808.62
440.08	6876.49
440.26	6825.00
440.45	6932.67
440.63	6850.75
440.82	7087.14
441.01	7087.14
441.19	7094.16
441.38	7225.23
441.57	7178.42
441.75	7445.24
441.94	7421.84
442.12	7375.03
442.31	7644.19
442.50	7520.14
442.68	7356.30
442.87	7482.69
443.05	7480.35
443.24	7726.11
443.43	7707.38
443.61	7503.76
443.80	7789.30
443.98	7506.10
444.17	7566.95
444.35	7843.14
444.54	7756.54
444.73	7974.21
444.91	7896.97
445.10	7817.39
445.28	7655.89
445.47	7756.54
445.65	7866.54
445.84	8042.08
446.02	8084.21
446.21	7775.26
446.39	7810.37
446.58	8046.76
446.77	7985.91
446.95	7819.73
447.14	7826.75
447.32	8070.17
447.51	7812.71
447.69	7929.74
447.88	7999.95
448.06	7978.89
448.25	7810.37
448.43	8065.49
448.62	8091.23
448.80	8175.49
448.99	8086.55
449.17	8180.17
449.36	8093.57
449.54	8362.73
449.73	8177.83
449.91	8648.28
450.10	8271.45
450.28	8549.98
450.46	8418.91
450.65	8397.84
450.83	8393.16
451.02	8552.32
451.20	8608.49
451.39	8599.13
451.57	8475.08
451.76	8566.36
451.94	8667.00
452.13	8751.26
452.31	8779.35
452.49	8676.37
452.68	8713.81
452.86	8741.90
453.05	8697.43
453.23	8865.95
453.42	8816.80
453.60	8762.97
453.78	8805.10
453.97	8898.72
454.15	8821.48
454.34	9020.42
454.52	8990.00
454.70	9146.81
454.89	8910.42
455.07	8950.21
455.26	9188.94
455.44	9329.38
455.62	9289.59
455.81	9200.65
455.99	9125.75
456.17	9275.54
456.36	9533.00
456.54	9591.52
456.73	9736.63
456.91	9799.82
457.09	9884.08
457.28	9893.44
457.46	9631.30
457.64	9867.70
457.83	9720.24
458.01	9753.01
458.19	9994.09
458.38	9846.63
458.56	10029.20
458.74	9870.04
458.93	10101.75
459.11	10076.01
459.29	9994.09
459.48	10312.40
459.66	10216.44
459.84	10345.17
460.03	10375.59
460.21	10094.73
460.39	10277.29
460.57	10232.82
460.76	10382.62
460.94	10595.61
461.12	10391.98
461.31	10473.90
461.49	10677.52
461.67	10370.91
461.85	10803.91
462.04	10621.35
462.22	11115.20
462.40	10724.33
462.59	10661.14
462.77	10729.02
462.95	10979.45
463.13	10815.62
463.32	11066.05
463.50	10939.66
463.68	10869.45
463.86	11201.80
464.05	10946.69
464.23	11133.93
464.41	11208.83
464.59	10916.26
464.78	11293.08
464.96	10956.05
465.14	11140.95
465.32	11463.94
465.50	11225.21
465.69	11257.98
465.87	11325.85
466.05	11379.68
466.23	11117.54
466.41	11620.76
466.60	11896.94
466.78	11510.75
466.96	11559.91
467.14	11513.10
467.32	11789.28
467.51	11939.07
467.69	11447.56
467.87	11698.00
468.05	11756.51
468.23	11623.10
468.41	11927.37
468.60	11918.01
468.78	12114.61
468.96	11882.90
469.14	11901.62
469.32	12266.75
469.50	11901.62
469.69	11971.84
469.87	12299.52
470.05	12358.03
470.23	12250.36
470.41	12514.84
470.59	12678.68
470.77	12512.50
470.95	12444.63
471.14	12666.98
471.32	12449.31
471.50	13029.76
471.68	12772.30
471.86	12924.44
472.04	13001.68
472.22	13214.66
472.40	12922.10
472.58	13025.08
472.77	13334.03
472.95	13259.13
473.13	13554.04
473.31	13448.72
473.49	13170.19
473.67	13352.76
473.85	13685.11
474.03	13888.74
474.21	13862.99
474.39	13912.14
474.57	13996.40
474.75	14073.64
474.93	14083.00
475.12	13827.88
475.30	14207.05
475.48	14396.64
475.66	14539.41
475.84	14394.29
476.02	14513.66
476.20	14567.49
476.38	14803.89
476.56	14953.68
476.74	15098.80
476.92	14953.68
477.10	15159.65
477.28	15246.25
477.46	15414.77
477.64	15335.19
477.82	15697.97
478.00	16020.97
478.18	16086.50
478.36	15824.36
478.54	16388.43
478.72	16428.22
478.90	16386.09
479.08	16500.78
479.26	17123.36
479.44	16685.68
479.62	16966.54
479.80	16966.54
479.98	17406.56
480.16	17420.61
480.34	17652.32
480.52	17699.13
480.70	17745.94
480.88	17245.07
481.06	18066.60
481.24	17895.74
481.41	17881.69
481.59	18494.91
481.77	18511.30
481.95	18504.28
482.13	18785.14
482.31	18670.45
482.49	18822.59
482.67	19227.50
482.85	19566.88
483.03	19768.16
483.21	19571.56
483.39	19920.30
483.57	19967.11
483.74	20058.39
483.92	19990.52
484.10	20205.84
484.28	20458.62
484.46	21125.68
484.64	21350.37
484.82	20950.14
485.00	21099.93
485.18	21549.31
485.35	21848.90
485.53	21514.20
485.71	21837.20
485.89	22342.75
486.07	22199.98
486.25	22611.92
486.43	22541.70
486.61	22555.74
486.78	23297.69
486.96	23063.64
487.14	23154.92
487.32	23363.23
487.50	23648.77
487.68	23735.37
487.85	24308.80
488.03	24533.50
488.21	24444.56
488.39	24261.99
488.57	25001.60
488.75	24936.07
488.92	25317.57
489.10	25221.61
489.28	25450.99
489.46	25970.58
489.64	25406.52
489.81	26265.49
489.99	25851.22
490.17	26480.82
490.35	26768.71
490.53	26869.35
490.70	27246.18
490.88	27094.04
491.06	27030.85
491.24	27442.78
491.41	27728.33
491.59	28004.51
491.77	27941.32
491.95	28121.54
492.13	28739.44
492.30	28559.22
492.48	28505.38
492.66	28556.88
492.84	29041.37
493.01	29280.10
493.19	29298.83
493.37	29694.38
493.54	29656.93
493.72	29869.92
493.90	30075.88
494.08	30263.13
494.25	30457.39
494.43	30490.16
494.61	31019.12
494.79	30925.50
494.96	30696.13
495.14	31409.99
495.32	31754.05
495.49	31215.72
495.67	31824.26
495.85	32306.41
496.02	32339.18
496.20	32460.89
496.38	32245.56
496.55	32631.75
496.73	33256.67
496.91	32936.02
497.09	33294.12
497.26	33759.89
497.44	33111.56
497.62	33113.90
497.79	33296.46
497.97	33715.42
498.14	34487.79
498.32	34700.78
498.50	34572.05
498.67	34902.07
498.85	34707.80
499.03	34845.90
499.20	35416.99
499.38	35377.20
499.56	35438.05
499.73	35608.91
499.91	35555.08
500.08	35875.73
500.26	35557.42
500.44	36287.67
500.61	36147.23
500.79	36046.59
500.97	36800.24
501.14	36727.69
501.32	36498.31
501.49	36767.48
501.67	37195.79
501.84	37022.59
502.02	37270.69
502.20	37390.06
502.37	38012.64
502.55	37439.21
502.72	37584.32
502.90	38199.88
503.07	37619.43
503.25	38167.12
503.43	38251.38
503.60	38429.26
503.78	38677.35
503.95	38281.80
504.13	38733.53
504.30	38574.37
504.48	38728.84
504.65	39056.52
504.83	39220.36
505.01	39995.07
505.18	39679.10
505.36	39959.97
505.53	39473.13
505.71	39412.28
505.88	39880.39
506.06	39316.32
506.23	40369.56
506.41	39983.37
506.58	40170.61
506.76	40451.48
506.93	40830.65
507.11	40505.31
507.28	40917.25
507.46	40591.91
507.63	41191.09
507.81	41537.49
507.98	41375.99
508.16	41074.06
508.33	41357.27
508.50	41830.05
508.68	41680.26
508.85	41832.39
509.03	42342.63
509.20	42117.94
509.38	42356.67
509.55	42368.38
509.73	42740.52
509.90	42880.95
510.08	42803.72
510.25	42733.50
510.42	42829.46
510.60	43269.48
510.77	43379.49
510.95	43351.40
511.12	43522.26
511.30	43695.46
511.47	43842.92
511.64	43789.08
511.82	44266.55
511.99	44531.03
512.17	44617.63
512.34	44383.58
512.51	44350.81
512.69	44481.88
512.86	45111.49
513.04	45113.83
513.21	45181.70
513.38	44893.82
513.56	45062.33
513.73	44893.82
513.90	45127.87
514.08	44907.86
514.25	45378.31
514.43	45734.07
514.60	46358.99
514.77	45263.62
514.95	45748.11
515.12	45553.85
515.29	45422.78
515.47	46134.30
515.64	46344.95
515.81	45846.41
515.99	46590.70
516.16	46775.61
516.33	46611.77
516.51	46885.61
516.68	46506.44
516.85	46745.18
517.03	47229.67
517.20	47138.39
517.37	47430.96
517.54	47599.47
517.72	47239.03
517.89	47021.36
518.06	47510.53
518.24	47653.31
518.41	47419.25
518.58	47887.36
518.75	47999.71
518.93	47791.40
519.10	47854.59
519.27	48156.52
519.45	47585.43
519.62	47763.31
519.79	48233.76
519.96	48643.35
520.14	48453.77
520.31	48280.57
520.48	48584.84
520.65	48924.22
520.83	48872.73
521.00	48669.10
521.17	48790.81
521.34	48891.45
521.52	49160.61
521.69	49043.59
521.86	49602.97
522.03	49813.62
522.20	49748.09
522.38	49387.64
522.55	49523.40
522.72	49549.14
522.89	49499.99
523.07	50089.80
523.24	50115.55
523.41	50267.69
523.58	49837.03
523.75	50375.35
523.92	49855.75
524.10	50220.87
524.27	50464.29
524.44	50356.63
524.61	50944.10
524.78	50703.03
524.96	50843.46
525.13	50160.02
525.30	50431.52
525.47	50916.01
525.64	50838.78
525.81	51063.47
525.98	51070.49
526.16	51150.07
526.33	50939.42
526.50	51494.13
526.67	51222.62
526.84	51554.98
527.01	51220.28
527.18	51447.32
527.36	51540.94
527.53	51756.27
527.70	51899.04
527.87	51945.85
528.04	51700.09
528.21	51550.30
528.38	51791.37
528.55	52200.97
528.72	51868.61
528.89	52067.56
529.07	52165.86
529.24	52093.30
529.41	52367.15
529.58	52446.72
529.75	51990.32
529.92	52142.45
530.09	52243.10
530.26	52172.88
530.43	52655.03
530.60	52371.83
530.77	52144.80
530.94	52755.68
531.11	52303.95
531.28	52507.58
531.46	52755.68
531.63	52762.70
531.80	52889.09
531.97	53385.28
532.14	53130.16
532.31	52973.34
532.48	52879.72
532.65	52917.17
532.82	52956.96
532.99	53380.60
533.16	53071.65
533.33	53521.03
533.50	53715.29
533.67	53258.89
533.84	53265.91
534.01	53649.76
534.18	53425.07
534.35	53680.19
534.52	53694.23
534.69	53663.80
534.86	53900.20
535.03	53647.42
535.20	53811.26
535.37	54164.68
535.54	54033.61
535.71	53979.78
535.88	53925.94
536.05	53827.64
536.22	54160.00
536.38	54197.44
536.55	54017.22
536.72	54316.81
536.89	54106.16
537.06	53963.39
537.23	54124.89
537.40	54412.77
537.57	54064.03
537.74	54176.38
537.91	54674.91
538.08	54571.93
538.25	54784.92
538.42	54611.72
538.59	54387.03
538.75	54604.70
538.92	54543.84
539.09	54611.72
539.26	54691.30
539.43	54759.17
539.60	55100.89
539.77	54700.66
539.94	54878.54
540.11	54965.14
540.28	54993.23
540.44	55133.66
540.61	54873.86
540.78	54934.71
540.95	55124.30
541.12	55295.16
541.29	55388.78
541.46	55325.58
541.62	55217.92
541.79	55231.96
541.96	54974.50
542.13	55370.05
542.30	55767.94
542.47	55580.70
542.63	55648.58
542.80	55697.73
542.97	55866.25
543.14	55812.41
543.31	55941.14
543.48	55388.78
543.64	56020.72
543.81	56182.22
543.98	56030.08
544.15	56252.44
544.32	56037.11
544.48	56144.77
544.65	56163.50
544.82	55950.51
544.99	55978.59
545.16	56210.31
545.32	56067.53
545.49	56320.31
545.66	56718.20
545.83	56383.51
546.00	56540.32
546.16	56324.99
546.33	56165.84
546.50	55948.17
546.67	56390.53
546.83	55868.59
547.00	56460.74
547.17	56519.26
547.34	56608.20
547.50	56430.32
547.67	56889.06
547.84	56666.71
548.00	56755.65
548.17	56818.84
548.34	56732.25
548.51	56945.23
548.67	57008.43
548.84	56907.79
549.01	57062.26
549.18	56774.37
549.34	56889.06
549.51	56800.12
549.68	56837.57
549.84	56779.06
550.01	56858.63
550.18	56928.85
550.34	56947.57
550.51	57057.58
550.68	57172.27
550.84	56875.02
551.01	57118.43
551.18	57162.90
551.34	56989.70
551.51	57258.87
551.68	57403.98
551.84	57532.71
552.01	57240.14
552.18	57546.75
552.34	57242.48
552.51	57471.85
552.68	57165.24
552.84	57338.44
553.01	57439.09
553.18	57635.69
553.34	57588.88
553.51	57745.70
553.67	57682.50
553.84	57841.66
554.01	57783.15
554.17	57537.39
554.34	57691.86
554.51	57710.59
554.67	57998.48
554.84	57595.90
555.00	57865.06
555.17	57834.64
555.33	58075.71
555.50	57670.80
555.67	57640.37
555.83	57993.79
556.00	57897.83
556.16	58031.24
556.33	57946.98
556.50	57956.35
556.66	58124.86
556.83	57867.40
556.99	58305.09
557.16	58225.51
557.32	57961.03
557.49	58108.48
557.65	57956.35
557.82	58021.88
557.98	58164.65
558.15	58377.64
558.32	58071.03
558.48	58138.91
558.65	58335.51
558.81	58333.17
558.98	58405.73
559.14	58314.45
559.31	58159.97
559.47	58305.09
559.64	58368.28
559.80	58534.46
559.97	58623.40
560.13	58436.16
560.30	58232.53
560.46	58337.85
560.63	58553.18
560.79	58440.84
560.96	58539.14
561.12	58508.71
561.29	58370.62
561.45	58838.73
561.61	58522.76
561.78	58646.80
561.94	58546.16
562.11	58738.08
562.27	58599.99
562.44	58501.69
562.60	58548.50
562.77	58679.57
562.93	58679.57
563.10	58824.68
563.26	58850.43
563.42	59030.65
563.59	58738.08
563.75	58489.99
563.92	58787.24
564.08	58740.42
564.24	58920.65
564.41	58672.55
564.57	58637.44
564.74	58738.08
564.90	58995.54
565.07	59091.51
565.23	59217.89
565.39	59025.97
565.56	58754.47
565.72	58780.21
565.88	58979.16
566.05	58775.53
566.21	58817.66
566.38	58948.73
566.54	59042.35
566.70	59208.53
566.87	59274.07
567.03	58920.65
567.19	59288.11
567.36	58953.41
567.52	58925.33
567.68	58850.43
567.85	58805.96
568.01	59056.40
568.17	58773.19
568.34	59178.10
568.50	59168.74
568.66	59128.95
568.83	59187.47
568.99	58890.22
569.15	58941.71
569.32	59016.61
569.48	58791.92
569.64	59091.51
569.81	59231.94
569.97	59292.79
570.13	59302.15
570.30	59100.87
570.46	59180.45
570.62	59222.58
570.78	59131.29
570.95	59285.77
571.11	59126.61
571.27	59154.70
571.43	59082.14
571.60	59608.76
571.76	59447.27
571.92	59386.41
572.09	59456.63
572.25	59143.00
572.41	59447.27
572.57	59288.11
572.74	59400.46
572.90	59283.43
573.06	59238.96
573.22	59253.00
573.38	59430.88
573.55	59428.54
573.71	59643.87
573.87	59646.21
574.03	59358.33
574.20	59433.22
574.36	59220.23
574.52	59344.28
574.68	59395.77
574.84	59475.35
575.01	59393.43
575.17	59526.84
575.33	59604.08
575.49	59456.63
575.65	59695.36
575.82	59566.63
575.98	59374.71
576.14	59536.21
576.30	59344.28
576.46	59274.07
576.62	59295.13
576.79	59505.78
576.95	59175.76
577.11	59189.81
577.27	59433.22
577.43	59653.23
577.59	59515.14
577.75	59573.66
577.92	59428.54
578.08	59337.26
578.24	59367.69
578.40	59215.55
578.56	59454.29
578.72	59501.10
578.88	59515.14
579.04	59723.45
579.21	59503.44
579.37	59475.35
579.53	59517.48
579.69	59337.26
579.85	59475.35
580.01	59599.40
580.17	59344.28
580.33	59688.34
580.49	59840.48
580.65	59688.34
580.82	59606.42
580.98	59671.96
581.14	59512.80
581.30	59798.35
581.46	59639.19
581.62	59374.71
581.78	59458.97
581.94	59458.97
582.10	59770.26
582.26	59667.28
582.42	59714.09
582.58	59618.13
582.74	59718.77
582.90	59709.41
583.06	59608.76
583.22	59735.15
583.38	59728.13
583.54	59922.40
583.70	59880.27
583.86	59788.98
584.02	59707.07
584.18	59861.54
584.34	59882.61
584.50	59784.30
584.66	59877.93
584.82	59494.08
584.98	59859.20
585.14	59585.36
585.30	59590.04
585.46	59632.17
585.62	59597.06
585.78	59746.86
585.94	59320.88
586.10	59742.17
586.26	59877.93
586.42	59863.88
586.58	59877.93
586.74	59625.15
586.90	59458.97
587.06	59590.04
587.22	59887.29
587.38	59934.10
587.54	59934.10
587.70	59721.11
587.86	59891.97
588.02	59966.87
588.18	59994.95
588.34	59842.82
588.49	59742.17
588.65	59810.05
588.81	59681.32
588.97	59941.12
589.13	59723.45
589.29	59908.35
589.45	60079.21
589.61	59990.27
589.77	60182.19
589.93	59870.90
590.08	60116.66
590.24	59985.59
590.40	60020.70
590.56	60072.19
590.72	60039.42
590.88	59880.27
591.04	60032.40
591.20	60001.97
591.35	60027.72
591.51	60287.52
591.67	60013.68
591.83	60196.24
591.99	60133.04
592.15	60034.74
592.31	60133.04
592.46	60128.36
592.62	59931.76
592.78	59793.67
592.94	60001.97
593.10	60104.96
593.26	60392.84
593.41	60184.54
593.57	59943.46
593.73	60144.75
593.89	60191.56
594.05	60100.28
594.20	59763.24
594.36	59962.18
594.52	59994.95
594.68	59983.25
594.84	60060.49
594.99	60271.14
595.15	60102.62
595.31	60484.12
595.47	60364.76
595.62	60376.46
595.78	60186.88
595.94	60196.24
596.10	60109.64
596.25	60121.34
596.41	60025.38
596.57	59777.28
596.73	60257.09
596.88	60182.19
597.04	60603.49
597.20	60552.00
597.36	60364.76
597.51	60467.74
597.67	60404.55
597.83	60168.15
597.99	60170.49
598.14	60179.85
598.30	60193.90
598.46	60189.22
598.61	60140.07
598.77	59901.33
598.93	60072.19
599.09	60296.88
599.24	60402.21
599.40	60355.39
599.56	60266.45
599.71	60212.62
599.87	60376.46
600.03	60275.82
600.18	60275.82
600.34	60229.01
600.50	60385.82
600.65	60261.77
600.81	60580.09
600.97	60533.28
601.12	60467.74
601.28	60535.62
601.44	60233.69
601.59	60280.50
601.75	60355.39
601.91	60292.20
602.06	60133.04
602.22	60261.77
602.37	60027.72
602.53	60287.52
602.69	60406.89
602.84	60266.45
603.00	60530.93
603.16	60334.33
603.31	60299.22
603.47	60530.93
603.62	60282.84
603.78	60275.82
603.94	60240.71
604.09	60299.22
604.25	60439.65
604.40	60086.23
604.56	60376.46
604.71	60514.55
604.87	60556.68
605.03	60549.66
605.18	60285.18
605.34	60343.69
605.49	60020.70
605.65	60294.54
605.80	60231.35
605.96	60254.75
606.12	60449.02
606.27	60376.46
606.43	60200.92
606.58	60357.74
606.74	60383.48
606.89	60250.07
607.05	60360.08
607.20	60397.52
607.36	60261.77
607.51	60320.29
607.67	60247.73
607.82	60095.60
607.98	60243.05
608.13	59985.59
608.29	60240.71
608.44	60243.05
608.60	60285.18
608.75	60278.16
608.91	60367.10
609.06	60329.65
609.22	60282.84
609.37	60149.43
609.53	60023.04
609.68	59980.91
609.84	59924.74
609.99	60378.80
610.15	60130.70
610.30	60055.81
610.46	60133.04
610.61	60023.04
610.76	60088.57
610.92	60362.42
611.07	60296.88
611.23	60390.50
611.38	60151.77
611.54	60034.74
611.69	60154.11
611.84	59950.48
612.00	60193.90
612.15	60006.65
612.31	60320.29
612.46	60191.56
612.62	60100.28
612.77	60163.47
612.92	60193.90
613.08	59880.27
613.23	59980.91
613.39	60123.68
613.54	59901.33
613.69	59653.23
613.85	59693.02
614.00	59927.08
614.15	60069.85
614.31	60088.57
614.46	60179.85
614.62	60217.30
614.77	60011.34
614.92	60053.47
615.08	59721.11
615.23	59788.98
615.38	59877.93
615.54	59655.57
615.69	59763.24
615.84	59697.70
616.00	59707.07
616.15	59732.81
616.30	60039.42
616.46	59948.14
616.61	59749.20
616.76	60048.78
616.92	59798.35
617.07	59854.52
617.22	59604.08
617.37	59746.86
617.53	59887.29
617.68	59437.90
617.83	59587.70
617.99	59671.96
618.14	59779.62
618.29	59781.96
618.45	59753.88
618.60	59910.69
618.75	59662.60
618.90	59681.32
619.06	59629.83
619.21	59604.08
619.36	59781.96
619.51	59465.99
619.67	59515.14
619.82	59718.77
619.97	59664.94
620.12	59498.76
620.28	59526.84
620.43	59779.62
620.58	59854.52
620.73	59601.74
620.89	59667.28
621.04	59838.14
621.19	59203.85
621.34	59477.69
621.49	59344.28
621.65	59391.09
621.80	59372.37
621.95	59355.99
622.10	59414.50
622.25	59278.75
622.41	59231.94
622.56	59171.08
622.71	59430.88
622.86	59260.02
623.01	59025.97
623.16	59299.81
623.32	59353.65
623.47	59086.82
623.62	59384.07
623.77	58972.14
623.92	59245.98
624.07	59086.82
624.23	59264.70
624.38	59075.12
624.53	59180.45
624.68	58983.84
624.83	59079.80
624.98	59051.72
625.13	59075.12
625.29	59201.51
625.44	59075.12
625.59	58958.09
625.74	59021.29
625.89	58934.69
626.04	58894.90
626.19	58869.15
626.34	58628.08
626.49	58866.81
626.65	58887.88
626.80	59002.56
626.95	58733.40
627.10	58894.90
627.25	58838.73
627.40	58836.39
627.55	58691.27
627.70	58204.44
627.85	58422.11
628.00	58445.52
628.15	58883.20
628.30	58609.35
628.45	58653.82
628.60	58630.42
628.76	58688.93
628.91	59011.93
629.06	58733.40
629.21	58773.19
629.36	58717.02
629.51	58506.37
629.66	58494.67
629.81	58513.39
629.96	58356.58
630.11	58639.78
630.26	58733.40
630.41	58440.84
630.56	58520.41
630.71	58639.78
630.86	58684.25
631.01	58356.58
631.16	58426.79
631.31	58321.47
631.46	58251.25
631.61	58291.04
631.76	58485.31
631.91	58052.31
632.06	58408.07
632.21	58178.70
632.36	58438.50
632.51	57954.00
632.66	58122.52
632.81	58312.11
632.96	58171.67
633.10	58178.70
633.25	58499.35
633.40	58258.27
633.55	58162.31
633.70	57977.41
633.85	57701.23
634.00	57836.98
634.15	57970.39
634.30	57996.13
634.45	58176.36
634.60	58284.02
634.75	58314.45
634.90	58209.12
635.05	58305.09
635.19	58162.31
635.34	58054.65
635.49	58166.99
635.64	58188.06
635.79	57846.34
635.94	57764.42
636.09	58024.22
636.24	57766.76
636.39	57408.66
636.53	57675.48
636.68	57708.25
636.83	57715.27
636.98	58024.22
637.13	57785.49
637.28	58262.96
637.43	57935.28
637.57	57684.84
637.72	57537.39
637.87	57715.27
638.02	57844.00
638.17	57705.91
638.32	57602.92
638.46	57588.88
638.61	57439.09
638.76	57310.36
638.91	57509.30
639.06	57616.97
639.20	57874.43
639.35	57743.36
639.50	57469.51
639.65	57521.01
639.80	57961.03
639.94	57469.51
640.09	57474.20
640.24	57586.54
640.39	57317.38
640.54	57008.43
640.68	57340.78
640.83	57481.22
640.98	57422.70
641.13	57198.01
641.27	57361.85
641.42	57247.16
641.57	57326.74
641.72	57455.47
641.86	57080.98
642.01	57275.25
642.16	57352.49
642.31	57036.51
642.45	57188.65
642.60	56893.74
642.75	57048.22
642.90	56828.21
643.04	57242.48
643.19	57092.69
643.34	57015.45
643.48	57200.35
643.63	57319.72
643.78	57219.08
643.93	57134.82
644.07	57095.03
644.22	57041.20
644.37	57104.39
644.51	57066.94
644.66	57275.25
644.81	57064.60
644.95	56891.40
645.10	56877.36
645.25	56860.97
645.39	56940.55
645.54	57062.26
645.69	56924.17
645.83	56935.87
645.98	57041.20
646.13	56987.36
646.27	56868.00
646.42	56940.55
646.57	56952.26
646.71	56830.55
646.86	56732.25
647.00	56727.56
647.15	56781.40
647.30	56760.33
647.44	56666.71
647.59	56743.95
647.74	56402.23
647.88	56537.98
648.03	56605.86
648.17	56868.00
648.32	56584.79
648.47	56652.67
648.61	56303.93
648.76	56502.87
648.90	56645.65
649.05	56589.47
649.20	56530.96
649.34	56425.64
649.49	56481.81
649.63	56526.28
649.78	56484.15
649.92	56402.23
650.07	56835.23
650.21	56460.74
650.36	56591.81
650.51	56320.31
650.65	56870.34
650.80	56554.36
650.94	56285.20
651.09	56294.56
651.23	55936.46
651.38	56222.01
651.52	56076.90
651.67	56093.28
651.81	56158.81
651.96	56243.07
652.10	56222.01
652.25	56112.00
652.39	56367.12
652.54	56327.33
652.68	56481.81
652.83	56133.07
652.97	56425.64
653.12	56126.05
653.26	55891.99
653.41	56214.99
653.55	56119.02
653.70	55807.73
653.84	55777.31
653.99	55859.23
654.13	55779.65
654.27	55903.70
654.42	55856.88
654.56	55884.97
654.71	55969.23
654.85	55781.99
655.00	55943.48
655.14	55896.67
655.29	55613.47
655.43	55646.24
655.57	55629.85
655.72	55290.48
655.86	55664.96
656.01	55428.57
656.15	55545.59
656.30	55522.19
656.44	55650.92
656.58	55576.02
656.73	55636.87
656.87	55674.32
657.01	55650.92
657.16	55629.85
657.30	55796.03
657.45	55655.60
657.59	56002.00
657.73	55269.41
657.88	55257.71
658.02	55339.63
658.16	55379.42
658.31	54986.21
658.45	55072.81
658.60	54773.22
658.74	54869.18
658.88	55248.35
659.03	54834.07
659.17	54813.01
659.31	54932.37
659.46	55145.36
659.60	54976.84
659.74	55260.05
659.89	54773.22
660.03	54993.23
660.17	55145.36
660.32	54721.72
660.46	54801.30
660.60	54600.02
660.74	54560.23
660.89	54899.61
661.03	54733.43
661.17	54946.42
661.32	54686.62
661.46	54426.82
661.60	54307.45
661.74	54429.16
661.89	54628.10
662.03	54803.64
662.17	54775.56
662.31	54677.25
662.46	54391.71
662.60	54475.97
662.74	54188.08
662.88	54262.98
663.03	54089.78
663.17	54260.64
663.31	53839.34
663.45	53895.52
663.60	54059.35
663.74	54234.89
663.88	54014.88
664.02	54092.12
664.17	54199.79
664.31	53951.69
664.45	53755.08
664.59	53727.00
664.73	53855.73
664.88	53626.35
665.02	53420.39
665.16	53191.01
665.30	53813.60
665.44	53436.77
665.59	53315.06
665.73	53406.34
665.87	53237.83
666.01	53083.35
666.15	53385.28
666.29	53312.72
666.44	53467.20
666.58	53221.44
666.72	53181.65
666.86	53450.81
667.00	53333.79
667.14	53270.59
667.28	52844.62
667.43	52406.94
667.57	52538.01
667.71	52519.28
667.85	52786.10
667.99	52605.88
668.13	52741.63
668.27	52397.57
668.41	52580.13
668.56	52556.73
668.70	52378.85
668.84	52694.82
668.98	52310.97
669.12	52327.36
669.26	52626.95
669.40	52172.88
669.54	51922.44
669.68	51877.97
669.82	51931.81
669.96	51922.44
670.10	51672.01
670.25	51805.42
670.39	51892.02
670.53	51852.23
670.67	51959.89
670.81	51936.49
670.95	52179.90
671.09	51580.73
671.23	51526.89
671.37	51971.60
671.51	52041.81
671.65	51278.80
671.79	51339.65
671.93	51222.62
672.07	51222.62
672.21	51014.32
672.35	50920.70
672.49	50927.72
672.63	50808.35
672.77	50763.88
672.91	50775.58
673.05	50452.59
673.19	50553.23
673.33	50932.40
673.47	50375.35
673.61	50653.87
673.75	50475.99
673.89	50728.77
674.03	50330.88
674.17	50438.54
674.31	50204.49
674.45	50323.86
674.59	50227.90
674.73	50052.36
674.87	49846.39
675.01	49425.09
675.15	49474.24
675.29	49563.18
675.43	49635.74
675.56	49759.79
675.70	49617.02
675.84	49577.23
675.98	48655.06
676.12	49612.34
676.26	49294.02
676.40	49066.99
676.54	49357.22
676.68	49083.37
676.82	48098.01
676.96	48301.64
677.10	48268.87
677.23	48395.26
677.37	47805.44
677.51	47878.00
677.65	47800.76
677.79	47936.51
677.93	48025.45
678.07	47700.12
678.21	47789.06
678.34	47508.19
678.48	47573.73
678.62	47253.08
678.76	47496.49
678.90	47327.97
679.04	47091.58
679.18	46782.63
679.31	46494.74
679.45	46199.83
679.59	46272.39
679.73	46469.00
679.87	46211.54
680.00	45982.16
680.14	46085.15
680.28	46153.02
680.42	45385.33
680.56	45619.38
680.70	45766.84
680.83	45879.18
680.97	45792.58
681.11	45979.82
681.25	45401.71
681.39	44912.54
681.52	45001.48
681.66	44130.80
681.80	44414.01
681.94	44002.07
682.07	44332.09
682.21	44081.65
682.35	44334.43
682.49	44163.57
682.62	44294.64
682.76	43903.77
682.90	44076.97
683.04	43665.03
683.17	44238.47
683.31	43175.86
683.45	43351.40
683.59	43175.86
683.72	43414.60
683.86	43438.00
684.00	42656.26
684.13	42555.62
684.27	42185.82
684.41	42080.49
684.55	41780.90
684.68	41619.41
684.82	41965.81
684.96	41883.89
685.09	41940.06
685.23	42010.28
685.37	41940.06
685.50	42029.00
685.64	41605.36
685.78	41722.39
685.91	41441.53
686.05	41261.30
686.19	40832.99
686.32	41022.57
686.46	40795.54
686.60	40278.28
686.73	40084.01
686.87	39821.87
687.01	40238.49
687.14	40161.25
687.28	39578.46
687.42	39749.32
687.55	39367.81
687.69	39840.60
687.82	39416.96
687.96	39929.54
688.10	38944.17
688.23	39047.16
688.37	39075.24
688.50	38504.15
688.64	38614.16
688.78	38672.67
688.91	38223.29
689.05	38188.18
689.18	37949.45
689.32	36844.71
689.46	37376.01
689.59	37507.08
689.73	37549.21
689.86	37481.34
690.00	37268.35
690.13	37511.77
690.27	37399.42
690.41	37354.95
690.54	36847.05
690.68	36294.69
690.81	36751.09
690.95	36746.41
691.08	36439.80
691.22	36126.17
691.35	36252.56
691.49	36549.81
691.62	36332.14
691.76	35983.40
691.89	35468.48
692.03	34981.65
692.16	35136.12
692.30	35007.39
692.43	34934.84
692.57	34920.79
692.70	34789.72
692.84	35189.95
692.97	34754.61
693.11	34682.06
693.24	34497.16
693.38	34260.76
693.51	34298.21
693.65	34443.32
693.78	34394.17
693.92	34436.30
694.05	33235.61
694.19	33584.35
694.32	32926.66
694.45	33303.48
694.59	32596.64
694.72	32751.12
694.86	32879.85
694.99	32662.18
695.13	32430.46
695.26	32201.09
695.39	32002.14
695.53	32346.20
695.66	32655.15
695.80	32402.38
695.93	32357.91
696.07	31938.95
696.20	31906.18
696.33	31395.95
696.47	31569.15
696.60	31440.42
696.73	31426.37
696.87	30944.22
697.00	30661.02
697.14	30216.32
697.27	30452.71
697.40	30197.59
697.54	29823.11
697.67	29710.76
697.80	30150.78
697.94	29701.40
698.07	29750.55
698.21	29668.63
698.34	29944.81
698.47	29296.49
698.61	29120.95
698.74	29104.56
698.87	28973.49
699.01	29106.90
699.14	28950.09
699.27	28435.17
699.40	28758.16
699.54	28371.97
699.67	28226.86
699.80	27903.87
699.94	27744.71
700.07	28144.94
700.20	27931.95
700.34	28060.68
700.47	27854.72
700.60	27995.15
700.73	27765.78
700.87	27290.65
701.00	27463.85
701.13	27431.08
701.26	26897.44
701.40	27129.15
701.53	27374.91
701.66	27253.20
701.79	26677.43
701.93	26757.00
702.06	26258.47
702.19	26183.57
702.32	26176.55
702.46	25855.90
702.59	25605.46
702.72	25624.18
702.85	25673.34
702.99	25593.76
703.12	25443.96
703.25	24753.51
703.38	25130.33
703.51	25027.35
703.65	24900.96
703.78	24844.79
703.91	24875.21
704.04	24603.71
704.17	24741.80
704.31	24589.67
704.44	24074.75
704.57	24273.70
704.70	24121.56
704.83	23828.99
704.96	23798.57
705.10	24091.13
705.23	23337.48
>>>>>End Processed Spectral Data<<<<<
