SpectraSuite Data File
++++++++++++++++++++++++++++++++++++
Date: Fri Oct 04 11:48:35 GMT-05:00 2013
User: price-jones
Dark Spectrum Present: No
Reference Spectrum Present: No
Number of Sampled Component Spectra: 1
Spectrometers: USB2+H05261
Integration Time (usec): 100000 (USB2+H05261)
Spectra Averaged: 1 (USB2+H05261)
Boxcar Smoothing: 0 (USB2+H05261)
Correct for Electrical Dark: No (USB2+H05261)
Strobe/Lamp Enabled: No (USB2+H05261)
Correct for Detector Non-linearity: No (USB2+H05261)
Correct for Stray Light: No (USB2+H05261)
Number of Pixels in Processed Spectrum: 2048
>>>>>Begin Processed Spectral Data<<<<<
365.73	77.24
365.92	77.24
366.12	77.24
366.32	0.00
366.52	0.00
366.72	0.00
366.91	0.00
367.11	0.00
367.31	0.00
367.51	0.00
367.70	0.00
367.90	0.00
368.10	0.00
368.30	0.00
368.49	0.00
368.69	0.00
368.89	0.00
369.09	0.00
369.28	0.00
369.48	0.00
369.68	0.00
369.87	25.75
370.07	0.00
370.27	60.85
370.47	32.77
370.66	102.98
370.86	236.39
371.06	339.38
371.25	276.18
371.45	222.35
371.65	301.93
371.84	299.59
372.04	339.38
372.24	372.15
372.44	334.70
372.63	306.61
372.83	416.62
373.03	241.08
373.22	320.65
373.42	311.29
373.62	381.51
373.81	433.00
374.01	362.78
374.21	402.57
374.40	330.02
374.60	435.34
374.79	320.65
374.99	353.42
375.19	421.30
375.38	383.85
375.58	362.78
375.78	465.77
375.97	376.83
376.17	435.34
376.37	421.30
376.56	411.93
376.76	451.72
376.95	409.59
377.15	418.96
377.35	395.55
377.54	374.49
377.74	374.49
377.93	383.85
378.13	400.23
378.33	421.30
378.52	479.81
378.72	491.51
378.91	447.04
379.11	416.62
379.31	451.72
379.50	463.43
379.70	442.36
379.89	472.79
380.09	404.91
380.28	409.59
380.48	449.38
380.68	433.00
380.87	461.09
381.07	503.22
381.26	575.77
381.46	411.93
381.65	557.05
381.85	463.43
382.04	449.38
382.24	491.51
382.43	475.13
382.63	463.43
382.83	482.15
383.02	575.77
383.22	566.41
383.41	449.38
383.61	463.43
383.80	505.56
384.00	566.41
384.19	503.22
384.39	521.94
384.58	587.47
384.78	566.41
384.97	507.90
385.17	528.96
385.36	500.87
385.56	535.98
385.75	568.75
385.95	568.75
386.14	507.90
386.34	428.32
386.53	512.58
386.72	545.34
386.92	657.69
387.11	554.71
387.31	606.20
387.50	601.52
387.70	493.85
387.89	547.69
388.09	594.50
388.28	608.54
388.48	580.45
388.67	592.16
388.86	669.39
389.06	627.26
389.25	753.65
389.45	599.18
389.64	648.33
389.84	638.97
390.03	617.90
390.22	601.52
390.42	641.31
390.61	596.84
390.81	683.44
391.00	671.73
391.19	755.99
391.39	706.84
391.58	690.46
391.78	777.06
391.97	793.44
392.16	704.50
392.36	807.48
392.55	767.70
392.75	730.25
392.94	844.93
393.13	716.20
393.33	770.04
393.52	664.71
393.71	868.34
393.91	823.87
394.10	727.91
394.29	814.51
394.49	730.25
394.68	866.00
394.88	830.89
395.07	868.34
395.26	908.13
395.46	866.00
395.65	833.23
395.84	854.30
396.04	901.11
396.23	891.74
396.42	753.65
396.62	903.45
396.81	861.32
397.00	905.79
397.19	1004.09
397.39	858.98
397.58	950.26
397.77	908.13
397.97	1062.60
398.16	964.30
398.35	940.90
398.55	983.02
398.74	1020.47
398.93	1006.43
399.12	968.98
399.32	910.47
399.51	1043.88
399.70	1067.28
399.90	1041.54
400.09	1104.73
400.28	1177.29
400.47	1064.94
400.67	1128.14
400.86	1184.31
401.05	1034.52
401.24	1118.78
401.44	1116.44
401.63	1261.55
401.82	1163.25
402.01	1086.01
402.21	1186.65
402.40	1083.67
402.59	1282.61
402.78	1191.33
402.97	1259.21
403.17	1256.87
403.36	1334.11
403.55	1352.83
403.74	1343.47
403.93	1299.00
404.13	1359.85
404.32	1329.42
404.51	1343.47
404.70	1306.02
404.89	1299.00
405.09	1451.13
405.28	1369.21
405.47	1423.05
405.66	1423.05
405.85	1469.86
406.05	1474.54
406.24	1423.05
406.43	1439.43
406.62	1544.75
406.81	1624.33
407.00	1519.01
407.20	1479.22
407.39	1519.01
407.58	1521.35
407.77	1540.07
407.96	1626.67
408.15	1612.63
408.34	1727.32
408.54	1666.46
408.73	1724.97
408.92	1666.46
409.11	1692.21
409.30	1717.95
409.49	1778.81
409.68	1647.74
409.87	1877.11
410.07	1715.61
410.26	1886.47
410.45	1743.70
410.64	1839.66
410.83	1898.17
411.02	1919.24
411.21	1959.03
411.40	1909.88
411.59	1966.05
411.78	2083.08
411.98	1874.77
412.17	2064.35
412.36	1966.05
412.55	2127.55
412.74	2139.25
412.93	2108.82
413.12	2165.00
413.31	2200.10
413.50	2139.25
413.69	2275.00
413.88	2314.79
414.07	2277.34
414.26	2279.68
414.45	2265.64
414.64	2319.47
414.83	2312.45
415.02	2438.84
415.22	2363.94
415.41	2415.43
415.60	2413.09
415.79	2499.69
415.98	2502.03
416.17	2520.76
416.36	2511.39
416.55	2569.91
416.74	2731.41
416.93	2719.70
417.12	2628.42
417.31	2686.94
417.50	2691.62
417.69	2785.24
417.88	2745.45
418.07	2722.04
418.26	2740.77
418.45	2827.37
418.64	2883.54
418.83	2822.69
419.02	2750.13
419.21	2904.60
419.39	2991.20
419.58	2829.71
419.77	2808.64
419.96	2878.86
420.15	2979.50
420.34	3061.42
420.53	2958.44
420.72	3101.21
420.91	3133.98
421.10	2974.82
421.29	3183.13
421.48	3075.46
421.67	3141.00
421.86	3225.26
422.05	3110.57
422.24	3260.37
422.43	3187.81
422.61	3101.21
422.80	3232.28
422.99	3192.49
423.18	3258.03
423.37	3311.86
423.56	3225.26
423.75	3218.24
423.94	3267.39
424.13	3143.34
424.32	3136.32
424.50	3197.17
424.69	3234.62
424.88	3379.73
425.07	3229.94
425.26	3255.69
425.45	3243.98
425.64	3145.68
425.83	3194.83
426.01	3435.91
426.20	3295.47
426.39	3445.27
426.58	3297.81
426.77	3417.18
426.96	3265.05
427.15	3445.27
427.33	3407.82
427.52	3468.67
427.71	3428.88
427.90	3358.67
428.09	3501.44
428.28	3459.31
428.46	3576.34
428.65	3520.17
428.84	3662.94
429.03	3552.93
429.22	3421.86
429.40	3566.98
429.59	3548.25
429.78	3391.44
429.97	3534.21
430.16	3613.79
430.34	3676.98
430.53	3712.09
430.72	3754.22
430.91	3688.68
431.10	3688.68
431.28	3836.14
431.47	3871.25
431.66	3845.50
431.85	3824.44
432.03	3836.14
432.22	3791.67
432.41	3932.10
432.60	3948.48
432.79	3829.12
432.97	3871.25
433.16	3988.27
433.35	3854.86
433.54	3957.85
433.72	4025.72
433.91	4009.34
434.10	3922.74
434.28	4044.45
434.47	4259.78
434.66	4196.58
434.85	4269.14
435.03	4152.11
435.22	4184.88
435.41	4304.25
435.59	4418.93
435.78	4070.19
435.97	4161.47
436.16	4262.12
436.34	4341.69
436.53	4227.01
436.72	4423.61
436.90	4248.07
437.09	4318.29
437.28	4280.84
437.46	4325.31
437.65	4322.97
437.84	4491.49
438.02	4407.23
438.21	4292.54
438.40	4540.64
438.58	4500.85
438.77	4603.83
438.96	4552.34
439.14	4744.27
439.33	4798.10
439.52	4758.31
439.70	4545.32
439.89	4884.70
440.08	4873.00
440.26	4896.40
440.45	4908.10
440.63	4865.97
440.82	5027.47
441.01	4861.29
441.19	4875.34
441.38	5121.09
441.57	5008.75
441.75	5203.01
441.94	5317.70
442.12	5139.82
442.31	5221.74
442.50	5294.29
442.68	5135.14
442.87	5242.80
443.05	5334.08
443.24	5547.07
443.43	5418.34
443.61	5427.70
443.80	5652.39
443.98	5266.21
444.17	5165.56
444.35	5500.26
444.54	5458.13
444.73	5511.96
444.91	5535.37
445.10	5621.97
445.28	5416.00
445.47	5547.07
445.65	5563.45
445.84	5537.71
446.02	5654.73
446.21	5640.69
446.39	5369.19
446.58	5598.56
446.77	5713.25
446.95	5427.70
447.14	5535.37
447.32	5643.03
447.51	5589.20
447.69	5556.43
447.88	5589.20
448.06	5640.69
448.25	5645.37
448.43	5617.29
448.62	5511.96
448.80	5659.42
448.99	5767.08
449.17	5715.59
449.36	5694.52
449.54	5860.70
449.73	5715.59
449.91	5888.79
450.10	5703.89
450.28	6059.65
450.46	5727.29
450.65	5846.66
450.83	5942.62
451.02	5991.77
451.20	6106.46
451.39	5961.34
451.57	5830.27
451.76	5984.75
451.94	6083.05
452.13	6148.59
452.31	6176.67
452.49	5951.98
452.68	6188.38
452.86	6106.46
453.05	6284.34
453.23	6113.48
453.42	6333.49
453.60	6094.76
453.78	6272.64
453.97	6296.04
454.15	6319.45
454.34	6157.95
454.52	6314.77
454.70	6340.51
454.89	6377.96
455.07	6377.96
455.26	6513.71
455.44	6527.75
455.62	6513.71
455.81	6527.75
455.99	6707.98
456.17	6487.96
456.36	6607.33
456.54	6731.38
456.73	6668.19
456.91	6846.07
457.09	6949.05
457.28	6909.26
457.46	6857.77
457.64	6925.65
457.83	6827.34
458.01	6729.04
458.19	6874.15
458.38	6930.33
458.56	7103.53
458.74	7016.93
458.93	6972.46
459.11	7023.95
459.29	6927.99
459.48	7133.95
459.66	7234.60
459.84	7215.87
460.03	7318.86
460.21	7066.08
460.39	7115.23
460.57	7023.95
460.76	7428.86
460.94	7262.68
461.12	7304.81
461.31	7412.48
461.49	7356.30
461.67	7463.97
461.85	7599.72
462.04	7452.27
462.22	7861.86
462.40	7651.21
462.59	7513.12
462.77	7604.40
462.95	7541.21
463.13	7569.29
463.32	7644.19
463.50	7597.38
463.68	7686.32
463.86	7667.60
464.05	7590.36
464.23	7520.14
464.41	7733.13
464.59	7534.18
464.78	7721.43
464.96	7782.28
465.14	7691.00
465.32	7843.14
465.50	8042.08
465.69	7976.55
465.87	7786.96
466.05	7831.43
466.23	7915.69
466.41	8124.00
466.60	8245.71
466.78	8072.51
466.96	8149.75
467.14	8124.00
467.32	8147.40
467.51	8229.32
467.69	7964.84
467.87	7903.99
468.05	8308.90
468.23	8208.26
468.41	8184.85
468.60	8081.87
468.78	8297.20
468.96	8147.40
469.14	8269.11
469.32	8292.52
469.50	8138.04
469.69	8451.67
469.87	8610.83
470.05	8690.41
470.23	8568.70
470.41	8549.98
470.59	8514.87
470.77	8596.79
470.95	8741.90
471.14	8716.16
471.32	8552.32
471.50	8868.29
471.68	8854.25
471.86	8737.22
472.04	8709.13
472.22	9029.79
472.40	8992.34
472.58	9013.40
472.77	8966.59
472.95	9109.36
473.13	9448.74
473.31	9144.47
473.49	9092.98
473.67	9259.16
473.85	9359.80
474.03	9455.76
474.21	9523.64
474.39	9535.34
474.57	9404.27
474.75	9722.59
474.93	9790.46
475.12	9846.63
475.30	9834.93
475.48	9633.64
475.66	9724.93
475.84	9734.29
476.02	10038.56
476.20	10054.94
476.38	10265.59
476.56	10160.27
476.74	10319.42
476.92	10314.74
477.10	10211.76
477.28	10464.54
477.46	10626.03
477.64	10588.58
477.82	10853.06
478.00	10937.32
478.18	10878.81
478.36	11012.22
478.54	11133.93
478.72	11096.48
478.90	11370.32
479.08	11328.19
479.26	11375.00
479.44	11400.75
479.62	11545.86
479.80	11824.39
479.98	11527.14
480.16	11941.41
480.34	11747.15
480.52	11976.52
480.70	12023.33
480.88	12135.68
481.06	12013.97
481.24	12060.78
481.41	12512.50
481.59	12290.15
481.77	12416.54
481.95	12512.50
482.13	12872.95
482.31	12926.78
482.49	12910.40
482.67	12884.65
482.85	12947.84
483.03	13287.22
483.21	13303.60
483.39	13394.89
483.57	13525.96
483.74	13507.23
483.92	13729.58
484.10	13804.48
484.28	13944.91
484.46	14052.58
484.64	14530.05
484.82	14284.29
485.00	14508.98
485.18	14548.77
485.35	14977.09
485.53	14658.78
485.71	14864.74
485.89	15096.46
486.07	14827.29
486.25	14941.98
486.43	15276.68
486.61	15482.64
486.78	15609.03
486.96	15719.04
487.14	15758.83
487.32	15829.04
487.50	15910.96
487.68	15810.32
487.85	16243.32
488.03	16229.27
488.21	16428.22
488.39	16489.07
488.57	16903.35
488.75	16819.09
488.92	17163.15
489.10	17191.23
489.28	16947.82
489.46	17706.15
489.64	17294.22
489.81	17865.31
489.99	17975.31
490.17	17916.80
490.35	18300.65
490.53	17855.95
490.70	18382.57
490.88	18068.94
491.06	18417.68
491.24	18548.75
491.41	18726.63
491.59	18609.60
491.77	18890.46
491.95	19386.66
492.13	18977.06
492.30	19220.48
492.48	19389.00
492.66	19704.97
492.84	19644.12
493.01	19733.06
493.19	19641.78
493.37	20130.95
493.54	19775.19
493.72	20255.00
493.90	20166.06
494.08	20484.37
494.25	20659.91
494.43	20753.53
494.61	20512.46
494.79	20989.92
494.96	20730.12
495.14	21053.12
495.32	21209.93
495.49	21200.57
495.67	21481.44
495.85	21542.29
496.02	21792.73
496.20	22005.72
496.38	21783.37
496.55	22033.80
496.73	22190.62
496.91	22302.96
497.09	22562.76
497.26	22785.12
497.44	22101.68
497.62	22146.15
497.79	22878.74
497.97	22602.55
498.14	23264.92
498.32	23267.27
498.50	23454.51
498.67	23524.72
498.85	23222.80
499.03	23543.45
499.20	23679.20
499.38	23655.79
499.56	23974.11
499.73	24091.13
499.91	23976.45
500.08	24336.89
500.26	23854.74
500.44	23866.44
500.61	24299.44
500.79	24467.96
500.97	24500.73
501.14	24886.92
501.32	24718.40
501.49	24655.20
501.67	25029.69
501.84	25165.44
502.02	24713.72
502.20	25277.79
502.37	25600.78
502.55	25401.83
502.72	25355.02
502.90	25352.68
503.07	25230.98
503.25	25701.42
503.43	25633.55
503.60	25956.54
503.78	25823.13
503.95	25942.50
504.13	26073.57
504.30	26139.10
504.48	26242.09
504.65	25972.92
504.83	26410.60
505.01	26794.45
505.18	27037.87
505.36	26771.05
505.53	26588.49
505.71	27047.23
505.88	26874.03
506.06	26925.52
506.23	27250.86
506.41	27094.04
506.58	27227.45
506.76	27339.80
506.93	27300.01
507.11	27332.78
507.28	27407.67
507.46	27646.41
507.63	27770.46
507.81	28004.51
507.98	28151.96
508.16	27901.53
508.33	28191.75
508.50	28311.12
508.68	28325.16
508.85	28570.92
509.03	28147.28
509.20	28573.26
509.38	29076.48
509.55	29167.76
509.73	28938.38
509.90	29125.63
510.08	28950.09
510.25	29174.78
510.42	29078.82
510.60	29116.26
510.77	29329.25
510.95	29769.27
511.12	29181.80
511.30	29628.84
511.47	29771.61
511.64	29867.58
511.82	30089.93
511.99	30045.46
512.17	29951.84
512.34	29940.13
512.51	30197.59
512.69	30359.09
512.86	30143.76
513.04	30625.91
513.21	30499.52
513.38	30686.76
513.56	30780.39
513.73	30450.37
513.90	30515.90
514.08	30539.31
514.25	30932.52
514.43	31119.76
514.60	31229.77
514.77	31215.72
514.95	31159.55
515.12	31377.22
515.29	30871.67
515.47	31452.12
515.64	31442.76
515.81	31714.26
515.99	31381.90
516.16	31803.20
516.33	31985.76
516.51	32093.43
516.68	31686.17
516.85	31709.58
517.03	31983.42
517.20	32027.89
517.37	32011.51
517.54	32065.34
517.72	32079.38
517.89	32280.67
518.06	32182.37
518.24	32795.59
518.41	32252.58
518.58	32671.54
518.75	33048.36
518.93	32912.61
519.10	32917.29
519.27	33195.82
519.45	32865.80
519.62	33214.54
519.79	32788.56
519.96	33200.50
520.14	33195.82
520.31	33263.69
520.48	33797.34
520.65	33310.50
520.83	33518.81
521.00	33825.42
521.17	33495.41
521.34	33944.79
521.52	33888.62
521.69	34127.35
521.86	34080.54
522.03	34209.27
522.20	34396.51
522.38	34558.01
522.55	34328.64
522.72	34103.95
522.89	34169.48
523.07	34553.33
523.24	34738.23
523.41	34511.20
523.58	34218.63
523.75	34785.04
523.92	34225.65
524.10	34817.81
524.27	35213.36
524.44	35267.19
524.61	35496.56
524.78	35213.36
524.96	34862.28
525.13	35065.91
525.30	35391.24
525.47	35321.02
525.64	35143.14
525.81	35665.08
525.98	35580.82
526.16	35735.30
526.33	35559.76
526.50	36079.36
526.67	35784.45
526.84	35531.67
527.01	35517.63
527.18	36229.15
527.36	36439.80
527.53	35782.11
527.70	36697.26
527.87	35955.31
528.04	36477.25
528.21	36282.98
528.38	36165.96
528.55	36414.05
528.72	36767.48
528.89	36280.64
529.07	36383.63
529.24	36587.25
529.41	36715.98
529.58	36229.15
529.75	36556.83
529.92	36818.97
530.09	36825.99
530.26	36767.48
530.43	37144.30
530.60	37015.57
530.77	37181.75
530.94	37364.31
531.11	37160.69
531.28	36954.72
531.46	37514.11
531.63	37546.87
531.80	37703.69
531.97	37893.27
532.14	37544.53
532.31	37455.59
532.48	37378.36
532.65	37947.11
532.82	37207.50
532.99	37481.34
533.16	37670.92
533.33	37759.86
533.50	37909.66
533.67	38169.46
533.84	38155.41
534.01	37776.25
534.18	37897.95
534.35	38272.44
534.52	38260.74
534.69	38443.30
534.86	38485.43
535.03	38251.38
535.20	38239.67
535.37	38403.51
535.54	38644.59
535.71	37862.85
535.88	38522.88
536.05	38412.87
536.22	38749.91
536.38	38848.21
536.55	38644.59
536.72	39000.35
536.89	38586.07
537.06	39093.97
537.23	39150.14
537.40	38756.93
537.57	39124.40
537.74	39220.36
537.91	39480.16
538.08	39613.57
538.25	38995.67
538.42	39292.91
538.59	39431.01
538.75	39372.49
538.92	39234.40
539.09	39423.98
539.26	39402.92
539.43	39611.23
539.60	40069.97
539.77	39606.55
539.94	39683.78
540.11	39583.14
540.28	39683.78
540.44	39573.78
540.61	39353.77
540.78	39487.18
540.95	39709.53
541.12	39695.49
541.29	39873.37
541.46	39924.86
541.62	39913.16
541.79	40032.52
541.96	40013.80
542.13	39821.87
542.30	40025.50
542.47	40126.14
542.63	40507.65
542.80	40222.11
542.97	41008.53
543.14	40357.86
543.31	40144.87
543.48	40549.78
543.64	41233.22
543.81	41263.64
543.98	40954.69
544.15	40779.15
544.32	41085.76
544.48	41067.04
544.65	41338.54
544.82	41343.22
544.99	40456.16
545.16	41368.97
545.32	40928.95
545.49	41518.76
545.66	41579.62
545.83	41331.52
546.00	41502.38
546.16	41434.50
546.33	41130.23
546.50	40622.34
546.67	41518.76
546.83	40767.45
547.00	41977.51
547.17	41546.85
547.34	41446.21
547.50	41432.16
547.67	41766.86
547.84	41338.54
548.00	41790.27
548.17	41827.71
548.34	41291.73
548.51	41949.42
548.67	41748.14
548.84	42171.77
549.01	41743.45
549.18	41551.53
549.34	42160.07
549.51	42148.37
549.68	41935.38
549.84	42117.94
550.01	42199.86
550.18	42122.62
550.34	41989.21
550.51	42487.74
550.68	42389.44
550.84	41673.24
551.01	42513.49
551.18	42167.09
551.34	42115.60
551.51	42586.05
551.68	42366.04
551.84	42761.59
552.01	42314.55
552.18	42780.31
552.34	42473.70
552.51	42817.76
552.68	42471.36
552.84	42728.82
553.01	42354.33
553.18	42733.50
553.34	43070.54
553.51	42616.47
553.67	43115.01
553.84	43096.28
554.01	42927.77
554.17	42766.27
554.34	43007.34
554.51	43257.78
554.67	43358.42
554.84	43171.18
555.00	43173.52
555.17	43346.72
555.33	43655.67
555.50	42953.51
555.67	42951.17
555.83	43194.59
556.00	43461.41
556.16	43775.04
556.33	42939.47
556.50	43002.66
556.66	43714.19
556.83	43386.51
556.99	43313.95
557.16	43749.29
557.32	43688.44
557.49	43447.36
557.65	42845.85
557.82	43285.87
557.98	43360.76
558.15	43744.61
558.32	43618.22
558.48	43379.49
558.65	43613.54
558.81	43885.04
558.98	43899.09
559.14	43765.68
559.31	43791.42
559.47	43753.97
559.64	43643.97
559.80	43922.49
559.97	44135.48
560.13	43952.92
560.30	44093.35
560.46	43842.92
560.63	43920.15
560.79	43779.72
560.96	43922.49
561.12	44020.80
561.29	44158.89
561.45	43941.22
561.61	44198.68
561.78	44217.40
561.94	43742.27
562.11	43873.34
562.27	44226.76
562.44	44165.91
562.60	43819.51
562.77	43756.32
562.93	43854.62
563.10	43969.30
563.26	43796.10
563.42	44247.83
563.59	44130.80
563.75	43819.51
563.92	44203.36
564.08	44037.18
564.24	44446.77
564.41	44390.60
564.57	44215.06
564.74	44423.37
564.90	44322.72
565.07	44671.46
565.23	44570.82
565.39	44406.98
565.56	44250.17
565.72	44149.53
565.88	44346.13
566.05	44399.96
566.21	44168.25
566.38	43901.43
566.54	44898.50
566.70	44355.49
566.87	44985.10
567.03	44559.12
567.19	45165.32
567.36	44727.64
567.52	44130.80
567.68	44409.32
567.85	44224.42
568.01	44210.38
568.17	44807.22
568.34	44713.59
568.50	44460.82
568.66	44509.97
568.83	45151.27
568.99	44582.52
569.15	44353.15
569.32	44381.24
569.48	44575.50
569.64	44474.86
569.81	44701.89
569.97	44296.98
570.13	44584.86
570.30	44222.08
570.46	44643.38
570.62	44411.67
570.78	44383.58
570.95	44409.32
571.11	44605.93
571.27	44194.00
571.43	44594.23
571.60	44739.34
571.76	44882.11
571.92	45006.16
572.09	44587.21
572.25	44767.43
572.41	45010.84
572.57	44643.38
572.74	44797.85
572.90	44629.34
573.06	44629.34
573.22	44479.54
573.38	45092.76
573.55	44748.70
573.71	45165.32
573.87	45633.42
574.03	44807.22
574.20	44802.53
574.36	44636.36
574.52	44502.95
574.68	44830.62
574.84	44765.09
575.01	45088.08
575.17	44622.31
575.33	45205.11
575.49	44601.25
575.65	45099.78
575.82	45097.44
575.98	44917.22
576.14	44999.14
576.30	45188.72
576.46	44928.92
576.62	44910.20
576.79	44744.02
576.95	44545.08
577.11	44692.53
577.27	44498.26
577.43	44851.69
577.59	45312.77
577.75	44891.48
577.92	44460.82
578.08	44477.20
578.24	44924.24
578.40	44832.96
578.56	45031.91
578.72	44830.62
578.88	45153.62
579.04	45155.96
579.21	44879.77
579.37	45095.10
579.53	44844.66
579.69	44938.29
579.85	44561.46
580.01	44971.05
580.17	44484.22
580.33	45137.23
580.49	45111.49
580.65	44779.13
580.82	45574.91
580.98	45291.71
581.14	44437.41
581.30	45071.70
581.46	45120.85
581.62	44737.00
581.78	44746.36
581.94	44856.37
582.10	44882.11
582.26	45153.62
582.42	45710.66
582.58	44921.90
582.74	45024.89
582.90	45177.02
583.06	44947.65
583.22	44856.37
583.38	44992.12
583.54	44863.39
583.70	45090.42
583.86	44989.78
584.02	44968.71
584.18	45303.41
584.34	45258.94
584.50	45020.20
584.66	44985.10
584.82	44755.72
584.98	45202.77
585.14	44832.96
585.30	44949.99
585.46	45205.11
585.62	44917.22
585.78	45029.57
585.94	44907.86
586.10	44978.07
586.26	45055.31
586.42	45006.16
586.58	44896.16
586.74	44856.37
586.90	44893.82
587.06	45097.44
587.22	44971.05
587.38	44914.88
587.54	44811.90
587.70	45319.79
587.86	44926.58
588.02	45207.45
588.18	45581.93
588.34	45170.00
588.49	45146.59
588.65	44905.52
588.81	44872.75
588.97	45045.95
589.13	45280.00
589.29	45099.78
589.45	45518.74
589.61	45247.24
589.77	45567.89
589.93	45411.07
590.08	45701.30
590.24	45462.57
590.40	45450.86
590.56	45731.73
590.72	45146.59
590.88	44828.28
591.04	45003.82
591.20	45368.94
591.35	45565.55
591.51	45823.01
591.67	45165.32
591.83	45879.18
591.99	45851.09
592.15	45558.53
592.31	45333.84
592.46	45207.45
592.62	45221.49
592.78	44835.30
592.94	45432.14
593.10	45558.53
593.26	45380.65
593.41	45879.18
593.57	45207.45
593.73	45371.28
593.89	45401.71
594.05	45130.21
594.20	45600.66
594.36	45558.53
594.52	45528.10
594.68	44994.46
594.84	45076.38
594.99	45378.31
595.15	45481.29
595.31	45675.55
595.47	45839.39
595.62	45394.69
595.78	45595.98
595.94	45759.81
596.10	45158.30
596.25	45151.27
596.41	45270.64
596.57	45006.16
596.73	45230.85
596.88	45434.48
597.04	45310.43
597.20	45633.42
597.36	45394.69
597.51	45593.64
597.67	45162.98
597.83	45031.91
597.99	45504.70
598.14	45570.23
598.30	45469.59
598.46	45553.85
598.61	45539.80
598.77	45067.02
598.93	45553.85
599.09	45326.81
599.24	46052.38
599.40	45525.76
599.56	45598.32
599.71	45750.45
599.87	45776.20
600.03	45354.90
600.18	45724.71
600.34	45708.32
600.50	45500.01
600.65	45514.06
600.81	45872.16
600.97	45841.73
601.12	46068.76
601.28	45521.08
601.44	45621.72
601.59	45420.44
601.75	45549.17
601.91	45272.98
602.06	45366.60
602.22	45895.56
602.37	45422.78
602.53	44926.58
602.69	45474.27
602.84	45492.99
603.00	45366.60
603.16	45916.63
603.31	45862.80
603.47	45422.78
603.62	45031.91
603.78	45003.82
603.94	45123.19
604.09	45277.66
604.25	45270.64
604.40	45015.52
604.56	45277.66
604.71	45720.02
604.87	45193.40
605.03	45221.49
605.18	45422.78
605.34	45298.73
605.49	44980.42
605.65	45418.10
605.80	45076.38
605.96	45713.00
606.12	45088.08
606.27	45315.11
606.43	45153.62
606.58	45165.32
606.74	45205.11
606.89	45453.20
607.05	45179.36
607.20	45287.03
607.36	45265.96
607.51	44945.31
607.67	44839.98
607.82	44868.07
607.98	44692.53
608.13	45265.96
608.29	45155.96
608.44	44652.74
608.60	44697.21
608.75	45497.67
608.91	45085.74
609.06	44535.71
609.22	44683.17
609.37	45090.42
609.53	44870.41
609.68	44734.66
609.84	45125.53
609.99	44507.63
610.15	44542.74
610.30	45205.11
610.46	44872.75
610.61	44919.56
610.76	44690.19
610.92	44814.24
611.07	45083.40
611.23	44615.29
611.38	44603.59
611.54	44790.83
611.69	44526.35
611.84	44385.92
612.00	44818.92
612.15	44645.72
612.31	44851.69
612.46	44547.42
612.62	44804.88
612.77	45254.26
612.92	44928.92
613.08	44306.34
613.23	44479.54
613.39	44369.54
613.54	44596.57
613.69	44561.46
613.85	44390.60
614.00	44669.12
614.15	44428.05
614.31	44442.09
614.46	44629.34
614.62	44421.03
614.77	44404.64
614.92	44219.74
615.08	44781.47
615.23	44477.20
615.38	44444.43
615.54	43901.43
615.69	44076.97
615.84	43770.36
616.00	44158.89
616.15	44102.71
616.30	43899.09
616.46	43826.53
616.61	44161.23
616.76	44535.71
616.92	43992.71
617.07	44098.03
617.22	43973.98
617.37	43683.76
617.53	44238.47
617.68	43658.01
617.83	43704.82
617.99	44313.36
618.14	44051.22
618.29	43807.81
618.45	43735.25
618.60	43730.57
618.75	44079.31
618.90	44065.27
619.06	43896.75
619.21	43526.94
619.36	43484.81
619.51	43426.30
619.67	43152.46
619.82	43201.61
619.97	43889.73
620.12	42972.24
620.28	43693.12
620.43	43533.96
620.58	43487.15
620.73	43828.87
620.89	43543.33
621.04	43650.99
621.19	43992.71
621.34	43100.97
621.49	43056.50
621.65	43276.51
621.80	43461.41
621.95	43234.38
622.10	43136.07
622.25	43430.98
622.41	43335.02
622.56	43168.84
622.71	43421.62
622.86	43269.48
623.01	43103.31
623.16	43112.67
623.32	42890.32
623.47	42979.26
623.62	43285.87
623.77	42864.57
623.92	42838.83
624.07	42871.59
624.23	42775.63
624.38	42892.66
624.53	43075.22
624.68	43026.07
624.83	43030.75
624.98	43030.75
625.13	43037.77
625.29	43112.67
625.44	42522.85
625.59	42529.87
625.74	42501.79
625.89	42878.61
626.04	42295.82
626.19	42665.63
626.34	42600.09
626.49	42469.02
626.65	42527.53
626.80	42728.82
626.95	42494.77
627.10	42674.99
627.25	42735.84
627.40	42150.71
627.55	42234.97
627.70	42244.33
627.85	42337.95
628.00	42092.19
628.15	42071.13
628.30	42052.41
628.45	42127.30
628.60	41991.55
628.76	42014.96
628.91	42550.94
629.06	42717.12
629.21	42164.75
629.36	41675.58
629.51	41858.14
629.66	42031.34
629.81	41752.82
629.96	41963.46
630.11	41935.38
630.26	42146.03
630.41	41624.09
630.56	41631.11
630.71	41935.38
630.86	41666.22
631.01	41366.63
631.16	41970.49
631.31	41928.36
631.46	41366.63
631.61	41848.78
631.76	41942.40
631.91	41792.61
632.06	41656.85
632.21	41509.40
632.36	42131.98
632.51	41347.90
632.66	41294.07
632.81	41394.71
632.96	41464.93
633.10	41373.65
633.25	41263.64
633.40	41226.20
633.55	41214.49
633.70	41141.94
633.85	41041.29
634.00	40973.42
634.15	40954.69
634.30	41216.83
634.45	41317.48
634.60	41200.45
634.75	41130.23
634.90	41324.50
635.05	41455.57
635.19	41387.69
635.34	41338.54
635.49	41099.81
635.64	40790.86
635.79	40933.63
635.94	40559.14
636.09	40652.76
636.24	41006.19
636.39	40158.91
636.53	40989.80
636.68	40215.08
636.83	40718.30
636.98	41064.70
637.13	40765.11
637.28	41001.50
637.43	40402.33
637.57	40526.38
637.72	40369.56
637.87	40964.06
638.02	40774.47
638.17	40837.67
638.32	40596.59
638.46	40336.79
638.61	40545.10
638.76	40437.44
638.91	40772.13
639.06	40832.99
639.20	40886.82
639.35	40594.25
639.50	40371.90
639.65	40355.52
639.80	40538.08
639.94	39889.75
640.09	40278.28
640.24	40137.85
640.39	40325.09
640.54	39908.47
640.68	39562.08
640.83	40170.61
640.98	39852.30
641.13	39384.19
641.27	40360.20
641.42	39746.98
641.57	39723.57
641.72	39819.53
641.86	39758.68
642.01	39395.90
642.16	39882.73
642.31	39566.76
642.45	39707.19
642.60	39456.75
642.75	39501.22
642.90	39728.25
643.04	39653.36
643.19	39173.55
643.34	39262.49
643.48	39459.09
643.63	39456.75
643.78	39693.15
643.93	39566.76
644.07	39636.97
644.22	39765.70
644.37	39171.21
644.51	39321.00
644.66	39522.29
644.81	39629.95
644.95	39714.21
645.10	39473.13
645.25	39442.71
645.39	39330.36
645.54	39285.89
645.69	39501.22
645.83	39517.60
645.98	39693.15
646.13	39124.40
646.27	39533.99
646.42	38768.63
646.57	39311.64
646.71	39037.80
646.86	39033.11
647.00	39147.80
647.15	38960.56
647.30	39084.61
647.44	38934.81
647.59	39285.89
647.74	39040.14
647.88	38871.62
648.03	38986.30
648.17	39019.07
648.32	38726.50
648.47	38990.98
648.61	38785.02
648.76	39007.37
648.90	39267.17
649.05	39349.09
649.20	38899.70
649.34	38979.28
649.49	38396.49
649.63	38328.61
649.78	38824.81
649.92	38562.67
650.07	38803.74
650.21	38836.51
650.36	38642.24
650.51	38529.90
650.65	38932.47
650.80	38773.31
650.94	38934.81
651.09	38490.11
651.23	38059.45
651.38	38440.96
651.52	38249.03
651.67	38476.07
651.81	38389.47
651.96	38270.10
652.10	37944.76
652.25	38473.73
652.39	38101.58
652.54	38291.16
652.68	38234.99
652.83	38429.26
652.97	38735.87
653.12	38010.30
653.26	37975.19
653.41	37820.72
653.55	37521.13
653.70	37846.46
653.84	37851.14
653.99	37954.13
654.13	37701.35
654.27	37589.00
654.42	37483.68
654.56	38007.96
654.71	37640.50
654.85	38209.25
655.00	38134.35
655.14	37724.75
655.29	37839.44
655.43	37586.66
655.57	37247.29
655.72	37425.17
655.86	37139.62
656.01	37439.21
656.15	37373.67
656.30	37668.58
656.44	37682.62
656.58	37053.02
656.73	37408.78
656.87	37539.85
657.01	37404.10
657.16	37820.72
657.30	37617.09
657.45	37333.89
657.59	37904.98
657.73	37226.22
657.88	37191.11
658.02	37347.93
658.16	37102.17
658.31	36786.20
658.45	37095.15
658.60	36610.66
658.74	36739.39
658.88	36978.12
659.03	36868.12
659.17	36840.03
659.31	36924.29
659.46	36835.35
659.60	36800.24
659.74	37003.87
659.89	36704.28
660.03	36409.37
660.17	36402.35
660.32	36746.41
660.46	36741.73
660.60	36219.79
660.74	36428.10
660.89	36137.87
661.03	36130.85
661.17	36238.51
661.32	36023.19
661.46	36662.15
661.60	36299.37
661.74	36526.40
661.89	36325.11
662.03	35976.37
662.17	36177.66
662.31	35791.47
662.46	36088.72
662.60	35866.37
662.74	35826.58
662.88	35803.17
663.03	35700.19
663.17	35192.30
663.31	35679.13
663.45	35395.92
663.60	35424.01
663.74	35641.68
663.88	35330.39
664.02	35234.42
664.17	35777.43
664.31	35576.14
664.45	35201.66
664.59	35496.56
664.73	35091.65
664.88	35187.61
665.02	34836.53
665.16	35047.18
665.30	34590.78
665.44	35070.59
665.59	34586.10
665.73	34785.04
665.87	34637.59
666.01	34567.37
666.15	34686.74
666.29	34824.83
666.44	34396.51
666.58	34766.32
666.72	34338.00
666.86	34946.54
667.00	34522.90
667.14	34258.42
667.28	34007.98
667.43	34298.21
667.57	34742.91
667.71	34431.62
667.85	34246.72
667.99	34003.30
668.13	34113.31
668.27	34143.74
668.41	34176.50
668.56	33813.72
668.70	34094.58
668.84	33858.19
668.98	33673.29
669.12	33778.61
669.26	33635.84
669.40	33612.43
669.54	33436.89
669.68	33352.63
669.82	33247.31
669.96	32751.12
670.10	33015.60
670.25	33219.22
670.39	33067.09
670.53	32854.10
670.67	33212.20
670.81	33446.26
670.95	32994.53
671.09	33174.75
671.23	33020.28
671.37	33055.39
671.51	33078.79
671.65	32999.21
671.79	32463.23
671.93	32573.24
672.07	32238.54
672.21	32393.01
672.35	31960.02
672.49	31819.58
672.63	31821.92
672.77	32114.49
672.91	32252.58
673.05	32046.62
673.19	32173.00
673.33	32254.92
673.47	31817.24
673.61	31608.93
673.75	31754.05
673.89	31358.50
674.03	31826.60
674.17	31592.55
674.31	31555.10
674.45	31505.95
674.59	31459.14
674.73	31161.89
674.87	31101.04
675.01	31180.62
675.15	30953.58
675.29	30960.61
675.43	30780.39
675.56	30869.33
675.70	31208.70
675.84	31182.96
675.98	29956.52
676.12	30574.42
676.26	30764.00
676.40	30602.50
676.54	30452.71
676.68	30394.20
676.82	29905.02
676.96	30050.14
677.10	30281.85
677.23	29902.68
677.37	29900.34
677.51	29635.86
677.65	29626.50
677.79	29689.70
677.93	29518.84
678.07	29603.10
678.21	29825.45
678.34	29252.02
678.48	29266.06
678.62	28959.45
678.76	29132.65
678.90	28795.61
679.04	28954.77
679.18	29097.54
679.31	28168.35
679.45	28346.23
679.59	28418.78
679.73	27833.65
679.87	28067.70
680.00	28418.78
680.14	27920.25
680.28	27953.02
680.42	28292.40
680.56	28112.17
680.70	27725.99
680.83	27826.63
680.97	27690.88
681.11	28098.13
681.25	27934.29
681.39	27735.35
681.52	27587.89
681.66	27119.79
681.80	26993.40
681.94	27037.87
682.07	26906.80
682.21	26707.85
682.35	26574.44
682.49	26843.60
682.62	26632.96
682.76	27145.53
682.90	26326.35
683.04	26647.00
683.17	26403.58
683.31	26277.19
683.45	26649.34
683.59	26443.37
683.72	26003.35
683.86	26298.26
684.00	26132.08
684.13	26040.80
684.27	25439.28
684.41	25731.85
684.55	25146.72
684.68	25336.30
684.82	25064.80
684.96	25408.86
685.09	25020.33
685.23	24964.15
685.37	25144.38
685.50	25139.69
685.64	24849.47
685.78	24641.16
685.91	24926.71
686.05	24678.61
686.19	24753.51
686.32	24964.15
686.46	24318.17
686.60	24346.25
686.73	24147.31
686.87	24013.90
687.01	24079.43
687.14	23885.17
687.28	23644.09
687.42	23857.08
687.55	23730.69
687.69	23793.89
687.82	23538.77
687.96	23426.42
688.10	23269.61
688.23	23381.95
688.37	23047.26
688.50	23555.15
688.64	23122.15
688.78	23124.49
688.91	22899.80
689.05	23037.89
689.18	22965.34
689.32	22361.48
689.46	22476.16
689.59	22455.10
689.73	22796.82
689.86	22459.78
690.00	22366.16
690.13	22485.53
690.27	22328.71
690.41	22089.98
690.54	21855.92
690.68	22094.66
690.81	21972.95
690.95	21806.77
691.08	21755.28
691.22	21858.26
691.35	21483.78
691.49	21493.14
691.62	21490.80
691.76	21245.04
691.89	21139.72
692.03	20945.45
692.16	20966.52
692.30	20613.10
692.43	20538.20
692.57	20886.94
692.70	20514.80
692.84	20655.23
692.97	20702.04
693.11	20776.94
693.24	20549.90
693.38	20484.37
693.51	20308.83
693.65	20418.83
693.78	20217.55
693.92	20198.82
694.05	19857.10
694.19	19751.78
694.32	19829.02
694.45	19681.56
694.59	19480.28
694.72	19531.77
694.86	19503.68
694.99	19520.07
695.13	19590.28
695.26	19360.91
695.39	18845.99
695.53	19377.30
695.66	19150.26
695.80	19108.13
695.93	18991.11
696.07	19066.00
696.20	18848.33
696.33	18672.79
696.47	18838.97
696.60	18389.59
696.73	18239.79
696.87	18523.00
697.00	18260.86
697.14	18239.79
697.27	18202.35
697.40	17954.25
697.54	17996.38
697.67	17912.12
697.80	17626.57
697.94	17762.33
698.07	17575.08
698.21	17617.21
698.34	17752.96
698.47	17645.30
698.61	17448.69
698.74	17659.34
698.87	17474.44
699.01	17074.21
699.14	17202.94
699.27	17310.60
699.40	16994.63
699.54	16807.39
699.67	16681.00
699.80	16774.62
699.94	16652.91
700.07	16318.22
700.20	16484.39
700.34	16430.56
700.47	16269.06
700.60	16175.44
700.73	16229.27
700.87	16264.38
701.00	16060.76
701.13	16252.68
701.26	16027.99
701.40	15995.22
701.53	15831.38
701.66	15747.12
701.79	15646.48
701.93	15819.68
702.06	15487.32
702.19	15557.54
702.32	15342.21
702.46	15269.66
702.59	15250.93
702.72	15033.26
702.85	15180.71
702.99	14815.59
703.12	14939.64
703.25	14752.40
703.38	14850.70
703.51	14855.38
703.65	14949.00
703.78	15077.73
703.91	14663.46
704.04	14759.42
704.17	14424.72
704.31	14574.52
704.44	14185.99
704.57	14120.45
704.70	14298.33
704.83	14153.22
704.96	14270.25
705.10	14129.81
705.23	14125.13
>>>>>End Processed Spectral Data<<<<<
