SpectraSuite Data File
++++++++++++++++++++++++++++++++++++
Date: Fri Oct 04 11:48:28 GMT-05:00 2013
User: price-jones
Dark Spectrum Present: No
Reference Spectrum Present: No
Number of Sampled Component Spectra: 1
Spectrometers: USB2+H05261
Integration Time (usec): 100000 (USB2+H05261)
Spectra Averaged: 1 (USB2+H05261)
Boxcar Smoothing: 0 (USB2+H05261)
Correct for Electrical Dark: No (USB2+H05261)
Strobe/Lamp Enabled: No (USB2+H05261)
Correct for Detector Non-linearity: No (USB2+H05261)
Correct for Stray Light: No (USB2+H05261)
Number of Pixels in Processed Spectrum: 2048
>>>>>Begin Processed Spectral Data<<<<<
365.73	88.94
365.92	88.94
366.12	88.94
366.32	0.00
366.52	0.00
366.72	35.11
366.91	0.00
367.11	0.00
367.31	0.00
367.51	0.00
367.70	0.00
367.90	0.00
368.10	0.00
368.30	0.00
368.49	0.00
368.69	0.00
368.89	0.00
369.09	0.00
369.28	0.00
369.48	0.00
369.68	0.00
369.87	0.00
370.07	0.00
370.27	14.04
370.47	128.73
370.66	358.10
370.86	437.68
371.06	543.00
371.25	489.17
371.45	498.53
371.65	479.81
371.84	461.09
372.04	411.93
372.24	512.58
372.44	517.26
372.63	528.96
372.83	596.84
373.03	559.39
373.22	573.43
373.42	559.39
373.62	587.47
373.81	622.58
374.01	559.39
374.21	601.52
374.40	470.45
374.60	617.90
374.79	627.26
374.99	648.33
375.19	730.25
375.38	660.03
375.58	641.31
375.78	667.05
375.97	627.26
376.17	767.70
376.37	585.13
376.56	699.82
376.76	706.84
376.95	685.78
377.15	763.01
377.35	657.69
377.54	641.31
377.74	706.84
377.93	727.91
378.13	765.36
378.33	741.95
378.52	681.10
378.72	697.48
378.91	793.44
379.11	732.59
379.31	791.10
379.50	753.65
379.70	781.74
379.89	807.48
380.09	760.67
380.28	823.87
380.48	718.54
380.68	699.82
380.87	765.36
381.07	856.64
381.26	819.19
381.46	800.46
381.65	847.27
381.85	788.76
382.04	847.27
382.24	833.23
382.43	922.17
382.63	875.36
382.83	961.96
383.02	866.00
383.22	964.30
383.41	917.49
383.61	915.15
383.80	880.04
384.00	891.74
384.19	924.51
384.39	938.55
384.58	870.68
384.78	929.19
384.97	957.28
385.17	868.34
385.36	994.73
385.56	947.92
385.75	922.17
385.95	987.71
386.14	985.37
386.34	1071.97
386.53	1006.43
386.72	994.73
386.92	997.07
387.11	966.64
387.31	1039.20
387.50	1053.24
387.70	1039.20
387.89	968.98
388.09	1109.41
388.28	1081.33
388.48	1043.88
388.67	1151.54
388.86	1128.14
389.06	1167.93
389.25	1114.10
389.45	1132.82
389.64	1097.71
389.84	1139.84
390.03	1172.61
390.22	1188.99
390.42	1231.12
390.61	1193.67
390.81	1111.75
391.00	1200.69
391.19	1153.88
391.39	1163.25
391.58	1322.40
391.78	1203.04
391.97	1310.70
392.16	1268.57
392.36	1249.85
392.55	1191.33
392.75	1308.36
392.94	1207.72
393.13	1277.93
393.33	1306.02
393.52	1324.74
393.71	1350.49
393.91	1399.64
394.10	1380.92
394.29	1432.41
394.49	1352.83
394.68	1453.47
394.88	1453.47
395.07	1472.20
395.26	1430.07
395.46	1380.92
395.65	1486.24
395.84	1451.13
396.04	1549.43
396.23	1481.56
396.42	1497.94
396.62	1460.49
396.81	1528.37
397.00	1584.54
397.19	1526.03
397.39	1558.80
397.58	1643.06
397.77	1582.20
397.97	1621.99
398.16	1614.97
398.35	1675.82
398.55	1619.65
398.74	1605.61
398.93	1788.17
399.12	1715.61
399.32	1652.42
399.51	1671.14
399.70	1643.06
399.90	1720.29
400.09	1879.45
400.28	1846.68
400.47	1739.02
400.67	1867.75
400.86	1870.09
401.05	1900.52
401.24	1914.56
401.44	1877.11
401.63	1916.90
401.82	1900.52
402.01	1952.01
402.21	1919.24
402.40	1954.35
402.59	1980.09
402.78	1968.39
402.97	1893.49
403.17	2076.06
403.36	1937.96
403.55	2092.44
403.74	2143.93
403.93	2078.40
404.13	2148.61
404.32	2153.29
404.51	2139.25
404.70	2202.44
404.89	2054.99
405.09	2160.31
405.28	2190.74
405.47	2143.93
405.66	2317.13
405.85	2317.13
406.05	2197.76
406.24	2214.15
406.43	2333.51
406.62	2450.54
406.81	2415.43
407.00	2399.05
407.20	2319.47
407.39	2370.96
407.58	2523.10
407.77	2427.14
407.96	2410.75
408.15	2459.90
408.34	2457.56
408.54	2525.44
408.73	2485.65
408.92	2715.02
409.11	2630.76
409.30	2623.74
409.49	2614.38
409.68	2670.55
409.87	2644.81
410.07	2778.22
410.26	2710.34
410.45	2724.38
410.64	2686.94
410.83	2827.37
411.02	2827.37
411.21	2972.48
411.40	2874.18
411.59	2949.08
411.78	2925.67
411.98	2965.46
412.17	2965.46
412.36	2956.10
412.55	3059.08
412.74	3038.02
412.93	3054.40
413.12	3080.14
413.31	3255.69
413.50	3136.32
413.69	3213.56
413.88	3215.90
414.07	3220.58
414.26	3400.80
414.45	3328.24
414.64	3377.39
414.83	3344.63
415.02	3496.76
415.22	3520.17
415.41	3548.25
415.60	3536.55
415.79	3658.26
415.98	3592.72
416.17	3616.13
416.36	3686.34
416.55	3756.56
416.74	3726.13
416.93	3733.15
417.12	3831.46
417.31	3838.48
417.50	3698.05
417.69	4030.40
417.88	4016.36
418.07	3674.64
418.26	3981.25
418.45	3953.16
418.64	4140.41
418.83	4205.94
419.02	4056.15
419.21	4095.94
419.39	4002.32
419.58	4161.47
419.77	4037.42
419.96	4241.05
420.15	4236.37
420.34	4266.80
420.53	4161.47
420.72	4358.08
420.91	4245.73
421.10	4304.25
421.29	4435.32
421.48	4273.82
421.67	4519.57
421.86	4360.42
422.05	4475.10
422.24	4463.40
422.43	4437.66
422.61	4634.26
422.80	4608.51
422.99	4566.39
423.18	4456.38
423.37	4564.04
423.56	4554.68
423.75	4475.10
423.94	4568.73
424.13	4259.78
424.32	4348.72
424.50	4482.13
424.69	4587.45
424.88	4816.82
425.07	4507.87
425.26	4564.04
425.45	4615.54
425.64	4561.70
425.83	4535.96
426.01	4610.86
426.20	4585.11
426.39	4634.26
426.58	4561.70
426.77	4622.56
426.96	4737.24
427.15	4784.06
427.33	4793.42
427.52	4816.82
427.71	4950.23
427.90	4903.42
428.09	4865.97
428.28	4978.32
428.46	4805.12
428.65	4943.21
428.84	5118.75
429.03	5015.77
429.22	5022.79
429.40	5025.13
429.59	5111.73
429.78	4875.34
429.97	4809.80
430.16	4940.87
430.34	5214.71
430.53	5430.04
430.72	5287.27
430.91	5142.16
431.10	5336.42
431.28	5327.06
431.47	5352.81
431.66	5521.32
431.85	5282.59
432.03	5533.03
432.22	5746.02
432.41	5373.87
432.60	5537.71
432.79	5540.05
432.97	5558.77
433.16	5481.53
433.35	5703.89
433.54	5738.99
433.72	5647.71
433.91	5764.74
434.10	5636.01
434.28	5832.62
434.47	5849.00
434.66	5804.53
434.85	5764.74
435.03	5804.53
435.22	5783.46
435.41	5968.37
435.59	5841.98
435.78	5888.79
435.97	6026.88
436.16	5959.00
436.34	5977.73
436.53	6010.50
436.72	6078.37
436.90	5954.32
437.09	6366.26
437.28	6012.84
437.46	6155.61
437.65	6169.65
437.84	6223.48
438.02	6265.61
438.21	6335.83
438.40	6218.80
438.58	6532.44
438.77	6597.97
438.96	6558.18
439.14	6700.95
439.33	6778.19
439.52	6658.82
439.70	6576.91
439.89	6719.68
440.08	7049.69
440.26	6923.30
440.45	6766.49
440.63	6930.33
440.82	7180.76
441.01	6848.41
441.19	7183.10
441.38	7272.04
441.57	7262.68
441.75	7337.58
441.94	7311.83
442.12	7262.68
442.31	7623.12
442.50	7639.51
442.68	7410.14
442.87	7431.20
443.05	7637.17
443.24	7686.32
443.43	7691.00
443.61	7639.51
443.80	7765.90
443.98	7468.65
444.17	7548.23
444.35	7534.18
444.54	7735.47
444.73	7768.24
444.91	7812.71
445.10	7838.45
445.28	7716.75
445.47	7798.66
445.65	7754.19
445.84	7871.22
446.02	7801.01
446.21	7714.41
446.39	7808.03
446.58	7999.95
446.77	7822.07
446.95	7812.71
447.14	8016.33
447.32	8009.31
447.51	8084.21
447.69	8018.68
447.88	7981.23
448.06	8079.53
448.25	7880.58
448.43	8067.83
448.62	8002.29
448.80	8002.29
448.99	8180.17
449.17	8339.33
449.36	8119.32
449.54	8601.47
449.73	8271.45
449.91	8493.80
450.10	8458.70
450.28	8362.73
450.46	8435.29
450.65	8716.16
450.83	8557.00
451.02	8374.44
451.20	8641.26
451.39	8610.83
451.57	8601.47
451.76	8491.46
451.94	8564.02
452.13	8744.24
452.31	8725.52
452.49	8496.14
452.68	8716.16
452.86	8842.54
453.05	8924.46
453.23	8982.98
453.42	8737.22
453.60	8723.18
453.78	8947.87
453.97	8791.05
454.15	8982.98
454.34	9160.86
454.52	9341.08
454.70	8992.34
454.89	9303.63
455.07	9085.96
455.26	9195.96
455.44	9411.29
455.62	9259.16
455.81	9291.93
455.99	9488.53
456.17	9301.29
456.36	9336.40
456.54	9481.51
456.73	9540.02
456.91	9804.50
457.09	9675.77
457.28	10054.94
457.46	9865.36
457.64	9879.40
457.83	9884.08
458.01	9757.69
458.19	10132.18
458.38	9804.50
458.56	10090.05
458.74	10153.24
458.93	10092.39
459.11	9858.34
459.29	10120.48
459.48	10076.01
459.66	10186.01
459.84	10298.36
460.03	10450.49
460.21	10438.79
460.39	10345.17
460.57	10239.84
460.76	10443.47
460.94	10682.20
461.12	10436.45
461.31	10658.80
461.49	10583.90
461.67	10525.39
461.85	10850.72
462.04	10637.73
462.22	11253.30
462.40	10986.47
462.59	10740.72
462.77	10979.45
462.95	10832.00
463.13	10946.69
463.32	11042.65
463.50	11169.04
463.68	11173.72
463.86	10923.28
464.05	11084.78
464.23	11052.01
464.41	11087.12
464.59	10815.62
464.78	11363.30
464.96	11075.42
465.14	11002.86
465.32	11321.17
465.50	11435.86
465.69	11304.79
465.87	11157.33
466.05	11466.28
466.23	11414.79
466.41	11580.97
466.60	11854.81
466.78	11485.01
466.96	11456.92
467.14	11410.11
467.32	11812.68
467.51	11655.87
467.69	11475.65
467.87	11836.09
468.05	11714.38
468.23	11758.85
468.41	11597.35
468.60	11719.06
468.78	12140.36
468.96	11779.92
469.14	11910.99
469.32	12112.27
469.50	11885.24
469.69	12156.74
469.87	12203.55
470.05	12297.17
470.23	12271.43
470.41	12381.43
470.59	12758.26
470.77	12496.12
470.95	12432.93
471.14	12727.83
471.32	12465.69
471.50	12901.03
471.68	12891.67
471.86	12926.78
472.04	12987.63
472.22	13301.26
472.40	12940.82
472.58	13125.72
472.77	13067.21
472.95	13383.18
473.13	13530.64
473.31	13366.80
473.49	13453.40
473.67	13549.36
473.85	13392.55
474.03	13764.69
474.21	13603.19
474.39	13963.64
474.57	13872.36
474.75	14052.58
474.93	14157.90
475.12	14162.58
475.30	14483.24
475.48	14185.99
475.66	14092.37
475.84	14693.88
476.02	14850.70
476.20	14518.34
476.38	14967.73
476.56	15122.20
476.74	15073.05
476.92	14986.45
477.10	15087.09
477.28	15400.72
477.46	15363.28
477.64	15431.15
477.82	15709.68
478.00	15925.00
478.18	16168.42
478.36	16175.44
478.54	16379.07
478.72	16336.94
478.90	16290.13
479.08	16456.31
479.26	16819.09
479.44	16793.34
479.62	17071.87
479.80	17060.16
479.98	17097.61
480.16	17198.26
480.34	16938.46
480.52	17549.34
480.70	17575.08
480.88	17479.12
481.06	17668.70
481.24	17731.90
481.41	18017.44
481.59	18338.10
481.77	18431.72
481.95	18668.11
482.13	18565.13
482.31	19005.15
482.49	18953.66
482.67	18974.72
482.85	19517.73
483.03	19503.68
483.21	19625.39
483.39	20046.69
483.57	19735.40
483.74	20027.96
483.92	20428.20
484.10	20313.51
484.28	20746.51
484.46	20931.41
484.64	21397.18
484.82	20788.64
485.00	21387.82
485.18	21298.88
485.35	21811.45
485.53	21589.10
485.71	22017.42
485.89	22155.51
486.07	22218.71
486.25	21949.54
486.43	22274.88
486.61	22590.85
486.78	23194.71
486.96	23005.13
487.14	23559.83
487.32	23351.52
487.50	23470.89
487.68	23763.46
487.85	24074.75
488.03	24233.91
488.21	24311.14
488.39	25083.52
488.57	24819.04
488.75	24966.49
488.92	25535.24
489.10	25366.73
489.28	25649.93
489.46	25678.02
489.64	25448.64
489.81	26139.10
489.99	26047.82
490.17	26443.37
490.35	26710.19
490.53	26852.97
490.70	27199.37
490.88	26658.70
491.06	27531.72
491.24	27269.58
491.41	27772.80
491.59	27845.35
491.77	27740.03
491.95	28823.70
492.13	28500.70
492.30	28713.69
492.48	28727.74
492.66	28599.01
492.84	28863.49
493.01	29240.31
493.19	29085.84
493.37	29675.65
493.54	29968.22
493.72	30050.14
493.90	30005.67
494.08	30309.94
494.25	30852.94
494.43	30644.63
494.61	31145.51
494.79	31185.30
494.96	30932.52
495.14	31108.06
495.32	31711.92
495.49	31665.11
495.67	31634.68
495.85	32065.34
496.02	32142.58
496.20	32367.27
496.38	32528.77
496.55	32896.23
496.73	33317.53
496.91	32746.44
497.09	33074.11
497.26	33357.32
497.44	33504.77
497.62	33223.90
497.79	33869.89
497.97	34281.83
498.14	34499.50
498.32	34211.61
498.50	34698.44
498.67	34808.45
498.85	34859.94
499.03	34462.05
499.20	35196.98
499.38	35299.96
499.56	35267.19
499.73	35587.85
499.91	35775.09
500.08	35845.30
500.26	36074.68
500.44	35924.88
500.61	35873.39
500.79	36002.12
500.97	36409.37
501.14	36708.96
501.32	36400.01
501.49	36538.10
501.67	36823.65
501.84	37432.19
502.02	36985.15
502.20	37565.60
502.37	37757.52
502.55	37177.07
502.72	37989.24
502.90	38045.41
503.07	37834.76
503.25	37801.99
503.43	38237.33
503.60	38520.54
503.78	38359.04
503.95	38726.50
504.13	38721.82
504.30	38745.23
504.48	38834.17
504.65	38883.32
504.83	39416.96
505.01	39828.90
505.18	39538.67
505.36	39688.46
505.53	39590.16
505.71	39566.76
505.88	39618.25
506.06	39845.28
506.23	40039.54
506.41	40205.72
506.58	40411.69
506.76	40528.72
506.93	40517.01
507.11	40514.67
507.28	40687.87
507.46	40882.14
507.63	40989.80
507.81	41193.43
507.98	41277.69
508.16	41743.45
508.33	41273.01
508.50	41640.47
508.68	42188.16
508.85	42099.22
509.03	41825.37
509.20	42635.20
509.38	42326.25
509.55	42319.23
509.73	42494.77
509.90	42918.40
510.08	42909.04
510.25	42899.68
510.42	42735.84
510.60	43491.83
510.77	43515.24
510.95	43739.93
511.12	43409.92
511.30	43323.32
511.47	43700.14
511.64	43681.42
511.82	43929.51
511.99	44074.63
512.17	44301.66
512.34	44208.04
512.51	44505.29
512.69	44322.72
512.86	44657.42
513.04	44610.61
513.21	45153.62
513.38	44968.71
513.56	45083.40
513.73	45167.66
513.90	45375.97
514.08	45038.93
514.25	45303.41
514.43	45565.55
514.60	45724.71
514.77	45464.91
514.95	46232.60
515.12	45689.60
515.29	45631.08
515.47	46007.91
515.64	46209.20
515.81	46260.69
515.99	46672.62
516.16	46562.62
516.33	46667.94
516.51	46967.53
516.68	46616.45
516.85	46560.28
517.03	46845.82
517.20	47248.39
517.37	47267.12
517.54	47498.83
517.72	47049.45
517.89	46724.11
518.06	47054.13
518.24	47536.28
518.41	47363.08
518.58	47847.57
518.75	48208.01
518.93	48278.23
519.10	47711.82
519.27	48076.94
519.45	48023.11
519.62	48149.50
519.79	48205.67
519.96	48636.33
520.14	48839.96
520.31	48526.33
520.48	48900.81
520.65	48615.27
520.83	48949.96
521.00	48762.72
521.17	48907.83
521.34	49120.82
521.52	49085.72
521.69	49415.73
521.86	49495.31
522.03	49394.67
522.20	49492.97
522.38	49738.72
522.55	49741.06
522.72	49860.43
522.89	49565.52
523.07	50328.54
523.24	50494.72
523.41	50101.51
523.58	49801.92
523.75	50670.26
523.92	50042.99
524.10	50160.02
524.27	50237.26
524.44	50391.73
524.61	50693.66
524.78	50754.52
524.96	50735.79
525.13	50681.96
525.30	50684.30
525.47	50487.70
525.64	50962.82
525.81	51136.02
525.98	51056.45
526.16	51143.05
526.33	50796.65
526.50	51243.69
526.67	51143.05
526.84	51285.82
527.01	51255.39
527.18	51386.46
527.36	51639.24
527.53	51842.87
527.70	51959.89
527.87	51688.39
528.04	51615.83
528.21	51987.98
528.38	51971.60
528.55	52388.21
528.72	51803.08
528.89	51833.50
529.07	52116.71
529.24	51880.31
529.41	52465.45
529.58	52388.21
529.75	52027.77
529.92	51995.00
530.09	52835.25
530.26	52542.69
530.43	52530.98
530.60	52582.48
530.77	52294.59
530.94	52725.25
531.11	52538.01
531.28	52334.38
531.46	52633.97
531.63	52807.17
531.80	52914.83
531.97	53275.27
532.14	53085.69
532.31	52956.96
532.48	53034.20
532.65	53155.91
532.82	52479.49
532.99	53329.11
533.16	53216.76
533.33	53530.39
533.50	53883.81
533.67	53462.52
533.84	53602.95
534.01	53368.90
534.18	53422.73
534.35	53380.60
534.52	53518.69
534.69	53764.45
534.86	53675.51
535.03	53525.71
535.20	53923.60
535.37	54094.46
535.54	53958.71
535.71	53874.45
535.88	54045.31
536.05	53897.86
536.22	54377.67
536.38	54040.63
536.55	54021.90
536.72	54171.70
536.89	53947.01
537.06	54443.20
537.23	54176.38
537.40	54129.57
537.57	54349.58
537.74	54417.46
537.91	54684.28
538.08	54646.83
538.25	54667.89
538.42	54660.87
538.59	54501.71
538.75	54541.50
538.92	54422.14
539.09	54820.03
539.26	54934.71
539.43	54780.24
539.60	54997.91
539.77	55114.94
539.94	55208.56
540.11	55161.75
540.28	55227.28
540.44	55028.34
540.61	54946.42
540.78	54965.14
540.95	55150.04
541.12	55283.45
541.29	55269.41
541.46	55150.04
541.62	54845.77
541.79	55253.03
541.96	55199.19
542.13	55271.75
542.30	55515.17
542.47	55470.70
542.63	55578.36
542.80	55622.83
542.97	55711.77
543.14	55840.50
543.31	55669.64
543.48	55753.90
543.64	55983.27
543.81	56097.96
543.98	56062.85
544.15	56114.34
544.32	56168.18
544.48	56474.79
544.65	56076.90
544.82	55969.23
544.99	55964.55
545.16	56104.98
545.32	56116.68
545.49	56655.01
545.66	56390.53
545.83	56699.48
546.00	56596.49
546.16	56523.94
546.33	56048.81
546.50	56172.86
546.67	56645.65
546.83	56179.88
547.00	56481.81
547.17	56509.89
547.34	56568.41
547.50	56666.71
547.67	56863.32
547.84	56767.35
548.00	56872.68
548.17	56830.55
548.34	56669.05
548.51	57181.63
548.67	57080.98
548.84	56769.69
549.01	56809.48
549.18	56842.25
549.34	56708.84
549.51	57020.13
549.68	56905.44
549.84	56970.98
550.01	57324.40
550.18	57155.88
550.34	57062.26
550.51	57303.34
550.68	57401.64
550.84	56966.30
551.01	57104.39
551.18	57022.47
551.34	56924.17
551.51	57109.07
551.68	57392.28
551.84	57506.96
552.01	57247.16
552.18	57453.13
552.34	57469.51
552.51	57602.92
552.68	57389.94
552.84	57350.15
553.01	57595.90
553.18	57434.41
553.34	57588.88
553.51	57602.92
553.67	57525.69
553.84	57811.23
554.01	57893.15
554.17	57553.77
554.34	57476.54
554.51	57743.36
554.67	57881.45
554.84	57918.90
555.00	57984.43
555.17	57902.51
555.33	57797.19
555.50	58073.37
555.67	57663.78
555.83	57642.71
556.00	57825.28
556.16	57888.47
556.33	57806.55
556.50	57975.07
556.66	57989.11
556.83	57986.77
556.99	58342.53
557.16	58096.78
557.32	58071.03
557.49	58169.33
557.65	57869.75
557.82	58199.76
557.98	58192.74
558.15	58363.60
558.32	58075.71
558.48	58209.12
558.65	58253.59
558.81	58363.60
558.98	58363.60
559.14	58443.18
559.31	58237.21
559.47	58314.45
559.64	58422.11
559.80	58436.16
559.97	58536.80
560.13	58379.98
560.30	58431.47
560.46	58466.58
560.63	58548.50
560.79	58482.97
560.96	58630.42
561.12	58698.30
561.29	58466.58
561.45	58532.12
561.61	58679.57
561.78	58827.02
561.94	58775.53
562.11	58742.77
562.27	58482.97
562.44	58672.55
562.60	58787.24
562.77	58616.38
562.93	58752.13
563.10	58965.12
563.26	58735.74
563.42	58948.73
563.59	58670.21
563.75	58831.71
563.92	58749.79
564.08	58738.08
564.24	58946.39
564.41	58838.73
564.57	58710.00
564.74	58798.94
564.90	59117.25
565.07	58974.48
565.23	59065.76
565.39	58930.01
565.56	58733.40
565.72	58738.08
565.88	58871.49
566.05	58761.49
566.21	58908.94
566.38	58927.67
566.54	58962.78
566.70	59147.68
566.87	59313.86
567.03	59161.72
567.19	59213.21
567.36	59061.08
567.52	59126.61
567.68	59224.92
567.85	58955.75
568.01	59023.63
568.17	58986.18
568.34	58969.80
568.50	59245.98
568.66	59075.12
568.83	59224.92
568.99	59201.51
569.15	59159.38
569.32	59112.57
569.48	59068.10
569.64	59355.99
569.81	59054.06
569.97	59302.15
570.13	59086.82
570.30	59145.34
570.46	59384.07
570.62	59419.18
570.78	59299.81
570.95	59290.45
571.11	59295.13
571.27	58908.94
571.43	59374.71
571.60	59442.59
571.76	59501.10
571.92	59274.07
572.09	59538.55
572.25	59456.63
572.41	59121.93
572.57	59309.18
572.74	59334.92
572.90	59253.00
573.06	59435.56
573.22	59119.59
573.38	59426.20
573.55	59444.93
573.71	59693.02
573.87	59648.55
574.03	59402.80
574.20	59512.80
574.36	59276.41
574.52	59498.76
574.68	59381.73
574.84	59543.23
575.01	59592.38
575.17	59693.02
575.33	59510.46
575.49	59552.59
575.65	59664.94
575.82	59618.13
575.98	59482.37
576.14	59863.88
576.30	59545.57
576.46	59449.61
576.62	59309.18
576.79	59201.51
576.95	59180.45
577.11	59512.80
577.27	59435.56
577.43	59636.85
577.59	59650.89
577.75	59664.94
577.92	59379.39
578.08	59498.76
578.24	59405.14
578.40	59473.01
578.56	59618.13
578.72	59578.34
578.88	59765.58
579.04	59660.26
579.21	59515.14
579.37	59405.14
579.53	59604.08
579.69	59285.77
579.85	59318.54
580.01	59573.66
580.17	59627.49
580.33	59489.40
580.49	59711.75
580.65	59835.80
580.82	59480.03
580.98	59767.92
581.14	59770.26
581.30	59711.75
581.46	59615.79
581.62	59470.67
581.78	59601.74
581.94	59735.15
582.10	59765.58
582.26	59767.92
582.42	59648.55
582.58	59894.31
582.74	59922.40
582.90	59934.10
583.06	59650.89
583.22	59538.55
583.38	59660.26
583.54	59943.46
583.70	59786.64
583.86	59709.41
584.02	59711.75
584.18	59817.07
584.34	60210.28
584.50	59838.14
584.66	60013.68
584.82	59662.60
584.98	59910.69
585.14	59924.74
585.30	59554.93
585.46	59702.38
585.62	59695.36
585.78	59819.41
585.94	59695.36
586.10	59732.81
586.26	59805.37
586.42	59943.46
586.58	59943.46
586.74	59828.77
586.90	59788.98
587.06	60018.36
587.22	59704.73
587.38	59810.05
587.54	60018.36
587.70	59978.57
587.86	59838.14
588.02	59849.84
588.18	60027.72
588.34	59887.29
588.49	59943.46
588.65	59746.86
588.81	59746.86
588.97	59957.50
589.13	59725.79
589.29	60074.53
589.45	60151.77
589.61	60236.03
589.77	60268.79
589.93	60177.51
590.08	60217.30
590.24	60355.39
590.40	60128.36
590.56	60402.21
590.72	60020.70
590.88	59955.16
591.04	60060.49
591.20	60158.79
591.35	60264.11
591.51	60498.17
591.67	60224.32
591.83	60303.90
591.99	60336.67
592.15	60137.72
592.31	60142.41
592.46	59994.95
592.62	60055.81
592.78	60009.00
592.94	60072.19
593.10	59978.57
593.26	60458.38
593.41	60226.66
593.57	60360.08
593.73	60282.84
593.89	60250.07
594.05	60154.11
594.20	60018.36
594.36	60069.85
594.52	60170.49
594.68	60079.21
594.84	60229.01
594.99	60163.47
595.15	60165.81
595.31	60289.86
595.47	60189.22
595.62	60238.37
595.78	60196.24
595.94	60236.03
596.10	60133.04
596.25	60229.01
596.41	60374.12
596.57	59910.69
596.73	60308.58
596.88	60170.49
597.04	60317.95
597.20	60605.83
597.36	60210.28
597.51	60568.38
597.67	60065.17
597.83	60308.58
597.99	60086.23
598.14	60161.13
598.30	60268.79
598.46	60179.85
598.61	60385.82
598.77	60221.98
598.93	60362.42
599.09	60460.72
599.24	60573.06
599.40	60322.63
599.56	60196.24
599.71	60282.84
599.87	60214.96
600.03	60079.21
600.18	60189.22
600.34	60404.55
600.50	60376.46
600.65	60423.27
600.81	60376.46
600.97	60413.91
601.12	60526.25
601.28	60598.81
601.44	60210.28
601.59	60198.58
601.75	60285.18
601.91	60512.21
602.06	60306.24
602.22	60463.06
602.37	60224.32
602.53	60168.15
602.69	60500.51
602.84	60350.71
603.00	60500.51
603.16	60521.57
603.31	60472.42
603.47	60498.17
603.62	60458.38
603.78	60575.40
603.94	60268.79
604.09	60463.06
604.25	60430.29
604.40	60093.25
604.56	60474.76
604.71	60591.79
604.87	60292.20
605.03	60378.80
605.18	60406.89
605.34	60617.53
605.49	60205.60
605.65	60147.09
605.80	60186.88
605.96	60315.61
606.12	60458.38
606.27	60402.21
606.43	60310.92
606.58	60535.62
606.74	60502.85
606.89	60495.83
607.05	60355.39
607.20	60406.89
607.36	60303.90
607.51	60584.77
607.67	60245.39
607.82	60282.84
607.98	60343.69
608.13	60238.37
608.29	60140.07
608.44	60266.45
608.60	60371.78
608.75	60280.50
608.91	60596.47
609.06	60341.35
609.22	60231.35
609.37	60217.30
609.53	60229.01
609.68	60240.71
609.84	60193.90
609.99	60172.83
610.15	60266.45
610.30	60168.15
610.46	60236.03
610.61	60336.67
610.76	60172.83
610.92	60355.39
611.07	60381.14
611.23	60189.22
611.38	60168.15
611.54	60350.71
611.69	60172.83
611.84	59924.74
612.00	59973.89
612.15	59990.27
612.31	60261.77
612.46	60184.54
612.62	60516.89
612.77	60062.83
612.92	60214.96
613.08	60130.70
613.23	60154.11
613.39	59861.54
613.54	59868.56
613.69	60226.66
613.85	59744.51
614.00	60062.83
614.15	59959.84
614.31	60037.08
614.46	60336.67
614.62	60100.28
614.77	60217.30
614.92	60034.74
615.08	59934.10
615.23	59945.80
615.38	59955.16
615.54	59634.51
615.69	59758.56
615.84	59896.65
616.00	60093.25
616.15	59742.17
616.30	59997.29
616.46	60034.74
616.61	59835.80
616.76	60055.81
616.92	60076.87
617.07	59964.52
617.22	59908.35
617.37	59674.30
617.53	59838.14
617.68	59814.73
617.83	59723.45
617.99	59718.77
618.14	60032.40
618.29	59835.80
618.45	59863.88
618.60	59929.42
618.75	59767.92
618.90	59620.47
619.06	59833.46
619.21	59475.35
619.36	59997.29
619.51	59604.08
619.67	59437.90
619.82	59613.44
619.97	59463.65
620.12	59515.14
620.28	59643.87
620.43	59622.81
620.58	59693.02
620.73	59458.97
620.89	59751.54
621.04	59796.01
621.19	59515.14
621.34	59531.53
621.49	59517.48
621.65	59344.28
621.80	59365.35
621.95	59377.05
622.10	59498.76
622.25	59320.88
622.41	59671.96
622.56	59620.47
622.71	59437.90
622.86	59227.26
623.01	59337.26
623.16	59215.55
623.32	59224.92
623.47	59433.22
623.62	59297.47
623.77	59171.08
623.92	59285.77
624.07	59299.81
624.23	59465.99
624.38	59496.42
624.53	59491.74
624.68	59248.32
624.83	59412.16
624.98	59208.53
625.13	58808.30
625.29	59325.56
625.44	59248.32
625.59	59119.59
625.74	59105.55
625.89	58941.71
626.04	58899.58
626.19	58967.46
626.34	58901.92
626.49	59051.72
626.65	59065.76
626.80	59040.01
626.95	58930.01
627.10	59103.21
627.25	58972.14
627.40	58787.24
627.55	58684.25
627.70	58972.14
627.85	58445.52
628.00	58665.53
628.15	58754.47
628.30	58714.68
628.45	58866.81
628.60	59007.25
628.76	58698.30
628.91	58869.15
629.06	59037.67
629.21	58894.90
629.36	58658.51
629.51	58885.54
629.66	58592.97
629.81	58560.20
629.96	58569.57
630.11	58754.47
630.26	58644.46
630.41	58567.23
630.56	58382.32
630.71	58616.38
630.86	58599.99
631.01	58595.31
631.16	58557.86
631.31	58674.89
631.46	58592.97
631.61	58578.93
631.76	58717.02
631.91	58475.94
632.06	58525.10
632.21	58389.34
632.36	58520.41
632.51	58323.81
632.66	58480.63
632.81	58408.07
632.96	58342.53
633.10	58246.57
633.25	58599.99
633.40	58539.14
633.55	58319.13
633.70	58342.53
633.85	58031.24
634.00	58141.25
634.15	57914.22
634.30	58141.25
634.45	58176.36
634.60	58562.54
634.75	58440.84
634.90	58358.92
635.05	58328.49
635.19	58216.14
635.34	58398.71
635.49	58370.62
635.64	58176.36
635.79	58094.44
635.94	57811.23
636.09	58136.57
636.24	57890.81
636.39	57659.10
636.53	58054.65
636.68	57815.91
636.83	57743.36
636.98	58302.74
637.13	57853.36
637.28	58047.63
637.43	58099.12
637.57	57982.09
637.72	57804.21
637.87	58129.54
638.02	58136.57
638.17	57925.92
638.32	57930.60
638.46	57663.78
638.61	57750.38
638.76	57455.47
638.91	57616.97
639.06	57841.66
639.20	57888.47
639.35	57652.08
639.50	57743.36
639.65	57748.04
639.80	57776.12
639.94	57696.55
640.09	57726.97
640.24	57612.29
640.39	57317.38
640.54	57223.76
640.68	57394.62
640.83	57467.17
640.98	57359.51
641.13	57153.54
641.27	57535.05
641.42	57375.89
641.57	57251.84
641.72	57195.67
641.86	57478.88
642.01	57392.28
642.16	57329.08
642.31	57202.69
642.45	57396.96
642.60	57205.03
642.75	57350.15
642.90	56968.64
643.04	57279.93
643.19	57265.89
643.34	57195.67
643.48	57153.54
643.63	57591.22
643.78	57095.03
643.93	57223.76
644.07	57312.70
644.22	57139.50
644.37	56954.60
644.51	56980.34
644.66	57024.81
644.81	57106.73
644.95	57085.67
645.10	56982.68
645.25	57064.60
645.39	56959.28
645.54	57099.71
645.69	57190.99
645.83	57198.01
645.98	57179.29
646.13	57036.51
646.27	57132.48
646.42	57003.75
646.57	57097.37
646.71	56851.61
646.86	56907.79
647.00	56963.96
647.15	56816.50
647.30	56853.95
647.44	56617.56
647.59	56673.73
647.74	56893.74
647.88	56678.41
648.03	56694.80
648.17	56807.14
648.32	56919.49
648.47	56704.16
648.61	56446.70
648.76	56896.08
648.90	56528.62
649.05	56633.94
649.20	56673.73
649.34	56636.28
649.49	56589.47
649.63	56556.70
649.78	56629.26
649.92	56753.31
650.07	56800.12
650.21	56713.52
650.36	56437.34
650.51	56563.73
650.65	56802.46
650.80	56853.95
650.94	56739.27
651.09	56608.20
651.23	56385.85
651.38	56287.54
651.52	56226.69
651.67	56278.18
651.81	56427.98
651.96	55978.59
652.10	55849.86
652.25	56374.14
652.39	56252.44
652.54	56264.14
652.68	56130.73
652.83	56240.73
652.97	56413.93
653.12	56154.13
653.26	56240.73
653.41	56030.08
653.55	56090.94
653.70	56006.68
653.84	56156.47
653.99	56076.90
654.13	55966.89
654.27	56030.08
654.42	56172.86
654.56	56074.55
654.71	56037.11
654.85	55983.27
655.00	56317.97
655.14	56362.44
655.29	55870.93
655.43	55814.76
655.57	55774.97
655.72	55669.64
655.86	55594.74
656.01	55618.15
656.15	55749.22
656.30	55618.15
656.44	55655.60
656.58	55671.98
656.73	55648.58
656.87	55707.09
657.01	55791.35
657.16	55671.98
657.30	55828.80
657.45	55636.87
657.59	55791.35
657.73	55625.17
657.88	55543.25
658.02	55648.58
658.16	55629.85
658.31	55264.73
658.45	55121.96
658.60	55011.95
658.74	55124.30
658.88	55423.89
659.03	54925.35
659.17	55018.97
659.31	55217.92
659.46	55065.78
659.60	55451.97
659.74	55194.51
659.89	55185.15
660.03	55075.15
660.17	55117.28
660.32	55159.41
660.46	54913.65
660.60	54974.50
660.74	55002.59
660.89	55004.93
661.03	54686.62
661.17	54890.24
661.32	55065.78
661.46	54705.34
661.60	54763.85
661.74	54775.56
661.89	54707.68
662.03	54501.71
662.17	54621.08
662.31	54506.40
662.46	54745.13
662.60	54403.41
662.74	54075.74
662.88	54398.73
663.03	54073.40
663.17	54080.42
663.31	53897.86
663.45	54372.99
663.60	54089.78
663.74	53907.22
663.88	54232.55
664.02	53897.86
664.17	54506.40
664.31	54370.64
664.45	54202.13
664.59	53921.26
664.73	53600.61
664.88	53581.88
665.02	53455.50
665.16	53443.79
665.30	53591.25
665.44	53539.75
665.59	53265.91
665.73	53528.05
665.87	53375.92
666.01	53268.25
666.15	53839.34
666.29	53958.71
666.44	53736.36
666.58	53642.74
666.72	53462.52
666.86	53619.33
667.00	53673.16
667.14	53038.88
667.28	53172.29
667.43	52783.76
667.57	52861.00
667.71	52786.10
667.85	52755.68
667.99	52540.35
668.13	52725.25
668.27	52776.74
668.41	52865.68
668.56	52846.96
668.70	52767.38
668.84	52989.73
668.98	52844.62
669.12	52940.58
669.26	52793.12
669.40	52051.17
669.54	52121.39
669.68	52282.89
669.82	52282.89
669.96	52186.92
670.10	51971.60
670.25	51716.48
670.39	51920.10
670.53	52069.90
670.67	51863.93
670.81	52280.55
670.95	52156.50
671.09	52182.24
671.23	51819.46
671.37	51962.23
671.51	51739.88
671.65	51594.77
671.79	51625.20
671.93	51440.29
672.07	51302.20
672.21	51297.52
672.35	51220.28
672.49	51037.72
672.63	50955.80
672.77	50857.50
672.91	51061.13
673.05	51004.95
673.19	50866.86
673.33	51271.78
673.47	51129.00
673.61	51143.05
673.75	50798.99
673.89	50597.70
674.03	50433.86
674.17	50906.65
674.31	50717.07
674.45	50209.17
674.59	50560.25
674.73	50623.45
674.87	50080.44
675.01	49518.71
675.15	49984.48
675.29	49731.70
675.43	49734.04
675.56	49865.11
675.70	49954.05
675.84	49801.92
675.98	48451.43
676.12	49429.77
676.26	49427.43
676.40	49439.14
676.54	48680.80
676.68	48725.27
676.82	48596.54
676.96	48701.87
677.10	48245.46
677.23	48399.94
677.37	48516.96
677.51	48264.19
677.65	48259.51
677.79	47573.73
677.93	48224.40
678.07	48002.05
678.21	47966.94
678.34	47941.19
678.48	47690.76
678.62	47210.95
678.76	47402.87
678.90	47402.87
679.04	47009.66
679.18	47019.02
679.31	46920.72
679.45	46153.02
679.59	46698.37
679.73	46902.00
679.87	46333.24
680.00	46169.41
680.14	45911.95
680.28	46160.05
680.42	46319.20
680.56	46293.46
680.70	46232.60
680.83	46157.70
680.97	46726.46
681.11	45549.17
681.25	45574.91
681.39	45223.83
681.52	44968.71
681.66	44512.31
681.80	44435.07
681.94	44378.90
682.07	44622.31
682.21	44519.33
682.35	44381.24
682.49	44938.29
682.62	44470.18
682.76	44079.31
682.90	44278.25
683.04	43988.03
683.17	44650.40
683.31	43700.14
683.45	43686.10
683.59	43702.48
683.72	43683.76
683.86	43454.39
684.00	42955.85
684.13	43196.93
684.27	42562.64
684.41	42707.76
684.55	42237.31
684.68	42284.12
684.82	42244.33
684.96	42094.53
685.09	42066.45
685.23	42209.22
685.37	41572.60
685.50	41434.50
685.64	41343.22
685.78	41914.31
685.91	41226.20
686.05	41605.36
686.19	41448.55
686.32	41326.84
686.46	40741.71
686.60	40381.26
686.73	40481.91
686.87	40163.59
687.01	40631.70
687.14	40037.20
687.28	39859.32
687.42	39604.20
687.55	39604.20
687.69	39936.56
687.82	39405.26
687.96	39765.70
688.10	39466.11
688.23	39199.29
688.37	39363.13
688.50	38745.23
688.64	39126.74
688.78	38286.48
688.91	38602.46
689.05	38572.03
689.18	38082.86
689.32	37085.79
689.46	37345.59
689.59	37368.99
689.73	37591.34
689.86	37464.96
690.00	37521.13
690.13	37509.43
690.27	37773.91
690.41	37743.48
690.54	37626.45
690.68	36706.62
690.81	37003.87
690.95	36484.27
691.08	36556.83
691.22	36828.33
691.35	36074.68
691.49	36561.51
691.62	36479.59
691.76	36065.31
691.89	35447.41
692.03	35126.76
692.16	34946.54
692.30	35278.89
692.43	35147.82
692.57	35353.79
692.70	35363.15
692.84	34962.92
692.97	35264.85
693.11	34904.41
693.24	34628.23
693.38	35016.75
693.51	34340.34
693.65	34628.23
693.78	34078.20
693.92	34204.59
694.05	33979.90
694.19	33879.25
694.32	33385.40
694.45	33275.40
694.59	33263.69
694.72	32816.65
694.86	32606.00
694.99	32744.09
695.13	32362.59
695.26	32666.86
695.39	32479.61
695.53	32910.27
695.66	32676.22
695.80	32320.46
695.93	32493.66
696.07	32140.24
696.20	31842.99
696.33	31889.80
696.47	32086.40
696.60	31363.18
696.73	31655.75
696.87	31185.30
697.00	31133.81
697.14	30522.93
697.27	30448.03
697.40	30038.44
697.54	30101.63
697.67	30087.59
697.80	29474.37
697.94	29947.15
698.07	29699.06
698.21	29837.15
698.34	30501.86
698.47	30038.44
698.61	29378.40
698.74	29439.26
698.87	29546.92
699.01	29422.87
699.14	29020.30
699.27	28732.42
699.40	29172.44
699.54	28233.88
699.67	28350.91
699.80	28503.04
699.94	28362.61
700.07	27779.82
700.20	27880.46
700.34	28379.00
700.47	27924.93
700.60	27864.08
700.73	28130.90
700.87	27819.61
701.00	27555.13
701.13	27309.37
701.26	27484.91
701.40	27110.43
701.53	27211.07
701.66	27583.21
701.79	26848.29
701.93	26909.14
702.06	26195.28
702.19	25909.73
702.32	26518.27
702.46	25806.75
702.59	26249.11
702.72	25539.93
702.85	25448.64
702.99	25678.02
703.12	25287.15
703.25	25432.26
703.38	25195.87
703.51	25343.32
703.65	25064.80
703.78	24933.73
703.91	25268.42
704.04	25226.29
704.17	24945.43
704.31	24229.23
704.44	24189.44
704.57	24493.71
704.70	24542.86
704.83	24304.12
704.96	24006.87
705.10	24041.98
705.23	23728.35
>>>>>End Processed Spectral Data<<<<<
