SpectraSuite Data File
++++++++++++++++++++++++++++++++++++
Date: Fri Oct 04 11:48:48 GMT-05:00 2013
User: price-jones
Dark Spectrum Present: No
Reference Spectrum Present: No
Number of Sampled Component Spectra: 1
Spectrometers: USB2+H05261
Integration Time (usec): 100000 (USB2+H05261)
Spectra Averaged: 1 (USB2+H05261)
Boxcar Smoothing: 0 (USB2+H05261)
Correct for Electrical Dark: No (USB2+H05261)
Strobe/Lamp Enabled: No (USB2+H05261)
Correct for Detector Non-linearity: No (USB2+H05261)
Correct for Stray Light: No (USB2+H05261)
Number of Pixels in Processed Spectrum: 2048
>>>>>Begin Processed Spectral Data<<<<<
365.73	39.79
365.92	39.79
366.12	39.79
366.32	0.00
366.52	0.00
366.72	0.00
366.91	0.00
367.11	0.00
367.31	0.00
367.51	0.00
367.70	0.00
367.90	0.00
368.10	0.00
368.30	0.00
368.49	0.00
368.69	0.00
368.89	0.00
369.09	0.00
369.28	0.00
369.48	0.00
369.68	0.00
369.87	0.00
370.07	7.02
370.27	28.09
370.47	72.56
370.66	205.97
370.86	217.67
371.06	229.37
371.25	330.02
371.45	339.38
371.65	311.29
371.84	294.91
372.04	395.55
372.24	266.82
372.44	330.02
372.63	365.12
372.83	362.78
373.03	325.33
373.22	337.04
373.42	404.91
373.62	362.78
373.81	379.17
374.01	381.51
374.21	390.87
374.40	388.53
374.60	430.66
374.79	390.87
374.99	400.23
375.19	386.19
375.38	418.96
375.58	463.43
375.78	451.72
375.97	404.91
376.17	451.72
376.37	526.62
376.56	428.32
376.76	414.27
376.95	482.15
377.15	423.64
377.35	482.15
377.54	484.49
377.74	404.91
377.93	482.15
378.13	449.38
378.33	482.15
378.52	479.81
378.72	507.90
378.91	526.62
379.11	421.30
379.31	451.72
379.50	449.38
379.70	498.53
379.89	470.45
380.09	440.02
380.28	449.38
380.48	458.74
380.68	475.13
380.87	442.36
381.07	486.83
381.26	599.18
381.46	493.85
381.65	456.40
381.85	517.26
382.04	540.66
382.24	458.74
382.43	564.07
382.63	433.00
382.83	484.49
383.02	524.28
383.22	599.18
383.41	603.86
383.61	571.09
383.80	543.00
384.00	568.75
384.19	578.11
384.39	641.31
384.58	599.18
384.78	540.66
384.97	514.92
385.17	603.86
385.36	615.56
385.56	653.01
385.75	538.32
385.95	603.86
386.14	622.58
386.34	615.56
386.53	627.26
386.72	627.26
386.92	718.54
387.11	627.26
387.31	620.24
387.50	472.79
387.70	650.67
387.89	653.01
388.09	631.94
388.28	664.71
388.48	704.50
388.67	727.91
388.86	667.05
389.06	784.08
389.25	739.61
389.45	688.12
389.64	727.91
389.84	699.82
390.03	664.71
390.22	760.67
390.42	711.52
390.61	709.18
390.81	645.99
391.00	748.97
391.19	716.20
391.39	770.04
391.58	711.52
391.78	777.06
391.97	748.97
392.16	830.89
392.36	798.12
392.55	784.08
392.75	814.51
392.94	835.57
393.13	915.15
393.33	770.04
393.52	798.12
393.71	917.49
393.91	798.12
394.10	814.51
394.29	840.25
394.49	912.81
394.68	889.40
394.88	856.64
395.07	910.47
395.26	936.21
395.46	947.92
395.65	929.19
395.84	964.30
396.04	959.62
396.23	959.62
396.42	966.64
396.62	976.00
396.81	863.66
397.00	943.24
397.19	1060.26
397.39	994.73
397.58	924.51
397.77	1043.88
397.97	1053.24
398.16	1022.81
398.35	1160.91
398.55	1064.94
398.74	1048.56
398.93	1034.52
399.12	1060.26
399.32	1004.09
399.51	1186.65
399.70	1139.84
399.90	1130.48
400.09	1125.80
400.28	1137.50
400.47	1203.04
400.67	1188.99
400.86	1132.82
401.05	1151.54
401.24	1203.04
401.44	1179.63
401.63	1299.00
401.82	1270.91
402.01	1214.74
402.21	1291.98
402.40	1296.66
402.59	1252.19
402.78	1231.12
402.97	1224.10
403.17	1327.08
403.36	1291.98
403.55	1392.62
403.74	1418.36
403.93	1399.64
404.13	1460.49
404.32	1451.13
404.51	1427.73
404.70	1413.68
404.89	1451.13
405.09	1474.54
405.28	1483.90
405.47	1423.05
405.66	1551.78
405.85	1617.31
406.05	1460.49
406.24	1551.78
406.43	1591.56
406.62	1671.14
406.81	1682.85
407.00	1640.72
407.20	1511.99
407.39	1591.56
407.58	1720.29
407.77	1682.85
407.96	1682.85
408.15	1701.57
408.34	1781.15
408.54	1724.97
408.73	1713.27
408.92	1750.72
409.11	1774.13
409.30	1895.83
409.49	1795.19
409.68	1919.24
409.87	1942.64
410.07	1865.41
410.26	1909.88
410.45	1933.28
410.64	1923.92
410.83	1949.67
411.02	2017.54
411.21	2118.18
411.40	2101.80
411.59	2104.14
411.78	2094.78
411.98	2059.67
412.17	2115.84
412.36	2097.12
412.55	2129.89
412.74	2284.36
412.93	2172.02
413.12	2218.83
413.31	2352.24
413.50	2221.17
413.69	2225.85
413.88	2345.22
414.07	2375.64
414.26	2427.14
414.45	2326.49
414.64	2443.52
414.83	2471.61
415.02	2483.31
415.22	2495.01
415.41	2567.57
415.60	2534.80
415.79	2567.57
415.98	2656.51
416.17	2654.17
416.36	2607.36
416.55	2715.02
416.74	2778.22
416.93	2757.15
417.12	2857.79
417.31	2698.64
417.50	2747.79
417.69	2918.65
417.88	2815.66
418.07	2897.58
418.26	2864.82
418.45	2874.18
418.64	2998.23
418.83	2913.97
419.02	2928.01
419.21	2998.23
419.39	3038.02
419.58	2953.76
419.77	3108.23
419.96	2986.52
420.15	3183.13
420.34	3007.59
420.53	3040.36
420.72	3089.51
420.91	3040.36
421.10	3218.24
421.29	3150.36
421.48	3129.30
421.67	3309.52
421.86	3150.36
422.05	3232.28
422.24	3204.19
422.43	3218.24
422.61	3239.30
422.80	3353.99
422.99	3288.45
423.18	3353.99
423.37	3431.23
423.56	3325.90
423.75	3297.81
423.94	3253.34
424.13	3033.33
424.32	3148.02
424.50	3384.41
424.69	3471.01
424.88	3361.01
425.07	3293.13
425.26	3337.60
425.45	3307.18
425.64	3389.10
425.83	3321.22
426.01	3513.14
426.20	3487.40
426.39	3323.56
426.58	3452.29
426.77	3522.51
426.96	3604.42
427.15	3487.40
427.33	3590.38
427.52	3515.48
427.71	3412.50
427.90	3463.99
428.09	3709.75
428.28	3557.61
428.46	3655.92
428.65	3669.96
428.84	3789.33
429.03	3726.13
429.22	3669.96
429.40	3681.66
429.59	3702.73
429.78	3871.25
429.97	3550.59
430.16	3548.25
430.34	3815.07
430.53	3838.48
430.72	3843.16
430.91	3761.24
431.10	3786.99
431.28	3889.97
431.47	3999.98
431.66	3904.01
431.85	3852.52
432.03	4014.02
432.22	4128.70
432.41	3976.57
432.60	3957.85
432.79	3899.33
432.97	4152.11
433.16	4051.47
433.35	3948.48
433.54	4039.76
433.72	4201.26
433.91	4140.41
434.10	4126.36
434.28	4175.52
434.47	4032.74
434.66	4292.54
434.85	4236.37
435.03	4318.29
435.22	4236.37
435.41	4367.44
435.59	4383.82
435.78	4344.03
435.97	4484.47
436.16	4374.46
436.34	4322.97
436.53	4491.49
436.72	4606.17
436.90	4311.27
437.09	4542.98
437.28	4355.74
437.46	4404.89
437.65	4444.68
437.84	4641.28
438.02	4603.83
438.21	4444.68
438.40	4535.96
438.58	4784.06
438.77	4812.14
438.96	4727.88
439.14	4760.65
439.33	4844.91
439.52	4830.87
439.70	4835.55
439.89	5188.97
440.08	4933.85
440.26	4961.94
440.45	5135.14
440.63	5181.95
440.82	5259.18
441.01	5139.82
441.19	5142.16
441.38	5275.57
441.57	5245.14
441.75	5268.55
441.94	5460.47
442.12	5320.04
442.31	5476.85
442.50	5568.13
442.68	5458.13
442.87	5451.11
443.05	5643.03
443.24	5694.52
443.43	5612.60
443.61	5577.50
443.80	5696.86
443.98	5650.05
444.17	5317.70
444.35	5781.12
444.54	5877.09
444.73	5647.71
444.91	5699.20
445.10	5708.57
445.28	5680.48
445.47	5598.56
445.65	5753.04
445.84	5605.58
446.02	5820.91
446.21	5743.67
446.39	5713.25
446.58	5764.74
446.77	5771.76
446.95	5769.42
447.14	5755.38
447.32	5748.36
447.51	5865.38
447.69	5832.62
447.88	5827.93
448.06	5886.45
448.25	5940.28
448.43	5837.30
448.62	5802.19
448.80	5825.59
448.99	5898.15
449.17	5699.20
449.36	5877.09
449.54	5951.98
449.73	6083.05
449.91	6069.01
450.10	6200.08
450.28	6291.36
450.46	6043.26
450.65	6289.02
450.83	6141.57
451.02	6169.65
451.20	6223.48
451.39	6216.46
451.57	6092.41
451.76	6218.80
451.94	6303.06
452.13	6345.19
452.31	6441.15
452.49	6314.77
452.68	6469.24
452.86	6408.39
453.05	6506.69
453.23	6516.05
453.42	6445.84
453.60	6399.02
453.78	6590.95
453.97	6370.94
454.15	6445.84
454.34	6354.55
454.52	6733.72
454.70	6700.95
454.89	6633.08
455.07	6658.82
455.26	6867.13
455.44	6740.74
455.62	6850.75
455.81	6698.61
455.99	6534.78
456.17	6803.94
456.36	6693.93
456.54	6960.75
456.73	6871.81
456.91	6967.77
457.09	7063.74
457.28	7246.30
457.46	7122.25
457.64	7265.02
457.83	6960.75
458.01	7096.50
458.19	7234.60
458.38	7262.68
458.56	7379.71
458.74	7180.76
458.93	7117.57
459.11	7250.98
459.29	7360.98
459.48	7250.98
459.66	7236.94
459.84	7382.05
460.03	7508.44
460.21	7478.01
460.39	7590.36
460.57	7407.80
460.76	7515.46
460.94	7676.96
461.12	7630.15
461.31	7735.47
461.49	7595.04
461.67	7686.32
461.85	7885.26
462.04	7756.54
462.22	8189.53
462.40	7775.26
462.59	7761.22
462.77	7793.98
462.95	7983.57
463.13	7808.03
463.32	7960.16
463.50	7861.86
463.68	8035.06
463.86	7971.86
464.05	7911.01
464.23	7981.23
464.41	8004.63
464.59	7925.05
464.78	8201.24
464.96	8049.10
465.14	8131.02
465.32	8152.09
465.50	8301.88
465.69	8191.88
465.87	8201.24
466.05	8168.47
466.23	8276.13
466.41	8234.00
466.60	8538.27
466.78	8367.42
466.96	8311.24
467.14	8255.07
467.32	8142.72
467.51	8491.46
467.69	8189.53
467.87	8564.02
468.05	8414.23
468.23	8594.45
468.41	8234.00
468.60	8276.13
468.78	8709.13
468.96	8781.69
469.14	8620.19
469.32	8868.29
469.50	8554.66
469.69	8884.67
469.87	8947.87
470.05	8805.10
470.23	9029.79
470.41	8901.06
470.59	8973.61
470.77	8856.59
470.95	8999.36
471.14	9039.15
471.32	9137.45
471.50	9210.01
471.68	9315.33
471.86	9111.71
472.04	9287.25
472.22	9577.47
472.40	9245.12
472.58	9537.68
472.77	9401.93
472.95	9511.94
473.13	9811.53
473.31	9664.07
473.49	9504.92
473.67	9614.92
473.85	9617.26
474.03	10005.79
474.21	9851.31
474.39	9958.98
474.57	10157.92
474.75	10218.78
474.93	10242.18
475.12	10068.98
475.30	10298.36
475.48	10129.84
475.66	10347.51
475.84	10141.54
476.02	10546.45
476.20	10321.76
476.38	10668.16
476.56	10553.48
476.74	10787.53
476.92	10473.90
477.10	10857.75
477.28	10899.87
477.46	10899.87
477.64	11140.95
477.82	11274.36
478.00	11475.65
478.18	11311.81
478.36	11461.60
478.54	11623.10
478.72	11480.33
478.90	11831.41
479.08	11702.68
479.26	11976.52
479.44	12128.66
479.62	11948.43
479.80	12245.68
479.98	12325.26
480.16	12538.25
480.34	12325.26
480.52	12451.65
480.70	12559.31
480.88	12507.82
481.06	12786.35
481.24	12720.81
481.41	12788.69
481.59	13085.94
481.77	13104.66
481.95	13238.07
482.13	13158.49
482.31	13479.15
482.49	13544.68
482.67	13390.20
482.85	13774.05
483.03	14043.21
483.21	13987.04
483.39	14101.73
483.57	14108.75
483.74	14317.06
483.92	14553.45
484.10	14202.37
484.28	14607.28
484.46	14839.00
484.64	15101.14
484.82	14808.57
485.00	14614.30
485.18	15325.83
485.35	15726.06
485.53	15559.88
485.71	15290.72
485.89	15470.94
486.07	15782.23
486.25	15803.30
486.43	15978.84
486.61	15913.30
486.78	16273.74
486.96	16156.72
487.14	16482.05
487.32	16472.69
487.50	16791.00
487.68	17006.33
487.85	17364.43
488.03	17348.05
488.21	17703.81
488.39	17151.45
488.57	17598.49
488.75	17806.80
488.92	18178.94
489.10	18164.90
489.28	17923.82
489.46	18459.81
489.64	18260.86
489.81	18740.67
489.99	18813.23
490.17	18745.35
490.35	18916.21
490.53	19213.46
490.70	19133.88
490.88	19339.85
491.06	19381.98
491.24	19367.93
491.41	19726.04
491.59	19737.74
491.77	19669.86
491.95	19943.70
492.13	20130.95
492.30	20233.93
492.48	20437.56
492.66	20327.55
492.84	20327.55
493.01	20627.14
493.19	20723.10
493.37	21291.85
493.54	21102.27
493.72	21137.38
493.90	21326.96
494.08	21298.88
494.25	21546.97
494.43	21710.81
494.61	21991.67
494.79	21839.54
494.96	22003.38
495.14	21788.05
495.32	22260.84
495.49	22286.58
495.67	22628.30
495.85	22712.56
496.02	22759.37
496.20	22822.56
496.38	22679.79
496.55	22883.42
496.73	23417.06
496.91	23288.33
497.09	23667.50
497.26	23506.00
497.44	23590.26
497.62	23630.05
497.79	24002.19
497.97	24046.66
498.14	24507.75
498.32	24694.99
498.50	24292.42
498.67	24907.98
498.85	24636.48
499.03	24690.31
499.20	24905.64
499.38	24706.70
499.56	24762.87
499.73	25153.74
499.91	25376.09
500.08	25502.48
500.26	25331.62
500.44	25865.26
500.61	25366.73
500.79	25476.73
500.97	25729.51
501.14	26331.03
501.32	25923.77
501.49	25951.86
501.67	26218.68
501.84	25947.18
502.02	26293.58
502.20	26214.00
502.37	26434.01
502.55	26480.82
502.72	26623.59
502.90	27222.77
503.07	26581.46
503.25	26731.26
503.43	27021.48
503.60	27044.89
503.78	27248.52
503.95	27459.16
504.13	27047.23
504.30	27433.42
504.48	27274.26
504.65	27871.10
504.83	28182.39
505.01	27936.63
505.18	27871.10
505.36	28180.05
505.53	28105.15
505.71	28100.47
505.88	28112.17
506.06	28107.49
506.23	28409.42
506.41	28491.34
506.58	28737.10
506.76	28666.88
506.93	29130.31
507.11	28418.78
507.28	28685.61
507.46	28980.51
507.63	29390.11
507.81	29521.18
507.98	29036.69
508.16	29020.30
508.33	29500.11
508.50	29509.47
508.68	29567.99
508.85	29975.24
509.03	29619.48
509.20	30085.25
509.38	30644.63
509.55	30232.70
509.73	30485.48
509.90	30438.67
510.08	30043.12
510.25	30565.06
510.42	30859.96
510.60	30728.89
510.77	30986.35
510.95	30895.07
511.12	30759.32
511.30	30876.35
511.47	31164.23
511.64	31274.24
511.82	31295.30
511.99	31283.60
512.17	31047.21
512.34	31229.77
512.51	31517.65
512.69	31796.18
512.86	31672.13
513.04	32343.86
513.21	31974.06
513.38	32219.81
513.56	32306.41
513.73	31817.24
513.90	32039.59
514.08	32053.64
514.25	32128.53
514.43	32687.92
514.60	32826.01
514.77	32278.33
514.95	32769.84
515.12	32676.22
515.29	32582.60
515.47	33041.34
515.64	33425.19
515.81	33308.16
515.99	33577.33
516.16	33507.11
516.33	33193.48
516.51	33858.19
516.68	33078.79
516.85	33589.03
517.03	33443.91
517.20	33682.65
517.37	33783.29
517.54	33809.04
517.72	33806.70
517.89	33876.91
518.06	34052.45
518.24	33963.51
518.41	33972.88
518.58	34609.50
518.75	34026.71
518.93	34614.18
519.10	34230.33
519.27	34792.06
519.45	34504.18
519.62	34471.41
519.79	34579.07
519.96	34852.92
520.14	35056.54
520.31	34857.60
520.48	35054.20
520.65	35204.00
520.83	35477.84
521.00	35311.66
521.17	35325.71
521.34	35241.45
521.52	35489.54
521.69	35571.46
521.86	35952.97
522.03	35974.03
522.20	35835.94
522.38	35629.98
522.55	35695.51
522.72	36187.02
522.89	36409.37
523.07	36477.25
523.24	36250.22
523.41	36020.84
523.58	35992.76
523.75	36547.47
523.92	36177.66
524.10	36650.45
524.27	36767.48
524.44	37148.98
524.61	37212.18
524.78	36605.98
524.96	36861.10
525.13	36673.85
525.30	36952.38
525.47	37354.95
525.64	36985.15
525.81	37518.79
525.98	37940.08
526.16	37493.04
526.33	37003.87
526.50	37893.27
526.67	37371.33
526.84	37525.81
527.01	37783.27
527.18	37933.06
527.36	37759.86
527.53	38010.30
527.70	38106.26
527.87	38115.62
528.04	38469.04
528.21	38429.26
528.38	37940.08
528.55	38216.27
528.72	38705.44
528.89	38064.13
529.07	38323.93
529.24	38618.84
529.41	38511.17
529.58	38443.30
529.75	38586.07
529.92	37989.24
530.09	38562.67
530.26	38302.87
530.43	38534.58
530.60	39007.37
530.77	38902.04
530.94	38822.47
531.11	38834.17
531.28	38438.62
531.46	39000.35
531.63	39115.03
531.80	39765.70
531.97	39250.78
532.14	39562.08
532.31	39297.59
532.48	39569.10
532.65	39660.38
532.82	39309.30
532.99	39620.59
533.16	39796.13
533.33	39807.83
533.50	40479.57
533.67	40037.20
533.84	39594.84
534.01	39959.97
534.18	39814.85
534.35	39962.31
534.52	40208.06
534.69	40172.96
534.86	40287.64
535.03	40315.73
535.20	40505.31
535.37	40486.59
535.54	40715.96
535.71	40570.85
535.88	40727.66
536.05	40769.79
536.22	40507.65
536.38	40858.73
536.55	40900.86
536.72	40299.34
536.89	40680.85
537.06	41141.94
537.23	40580.21
537.40	40811.92
537.57	40847.03
537.74	41050.66
537.91	41535.15
538.08	41361.95
538.25	40882.14
538.42	41654.51
538.59	41165.34
538.75	41020.23
538.92	41350.24
539.09	41067.04
539.26	41567.91
539.43	41638.13
539.60	41827.71
539.77	41563.23
539.94	41713.03
540.11	41188.75
540.28	41883.89
540.44	41598.34
540.61	41823.03
540.78	42052.41
540.95	41764.52
541.12	42234.97
541.29	41722.39
541.46	41792.61
541.62	42181.13
541.79	41904.95
541.96	41923.68
542.13	42300.50
542.30	42667.97
542.47	42447.96
542.63	42513.49
542.80	42759.25
542.97	42834.14
543.14	42625.84
543.31	42691.37
543.48	42639.88
543.64	43248.42
543.81	43215.65
543.98	42857.55
544.15	43601.84
544.32	43957.60
544.48	43859.30
544.65	43147.78
544.82	43119.69
544.99	43110.33
545.16	43058.84
545.32	43409.92
545.49	43543.33
545.66	44121.44
545.83	43625.25
546.00	43248.42
546.16	43674.40
546.33	43440.34
546.50	43187.56
546.67	43660.35
546.83	43072.88
547.00	43562.05
547.17	43463.75
547.34	43281.19
547.50	43887.39
547.67	44264.21
547.84	43882.70
548.00	43672.06
548.17	44013.77
548.34	43880.36
548.51	44648.06
548.67	44715.93
548.84	44311.02
549.01	44032.50
549.18	44048.88
549.34	43782.06
549.51	44399.96
549.68	44081.65
549.84	44212.72
550.01	44353.15
550.18	44608.27
550.34	44610.61
550.51	44531.03
550.68	44165.91
550.84	43894.41
551.01	44774.45
551.18	44318.04
551.34	44357.83
551.51	44390.60
551.68	44973.39
551.84	44907.86
552.01	44406.98
552.18	44889.13
552.34	44783.81
552.51	45404.05
552.68	44879.77
552.84	45120.85
553.01	44919.56
553.18	44847.00
553.34	45132.55
553.51	45303.41
553.67	45151.27
553.84	45373.63
554.01	45296.39
554.17	45464.91
554.34	45216.81
554.51	45125.53
554.67	45485.97
554.84	45471.93
555.00	45453.20
555.17	45195.74
555.33	45607.68
555.50	45188.72
555.67	45057.65
555.83	45378.31
556.00	45511.72
556.16	45907.27
556.33	45996.21
556.50	45518.74
556.66	45448.52
556.83	45287.03
556.99	45996.21
557.16	46527.51
557.32	45645.13
557.49	46110.89
557.65	45446.18
557.82	45748.11
557.98	45511.72
558.15	46330.90
558.32	45748.11
558.48	45731.73
558.65	45581.93
558.81	45783.22
558.98	46094.51
559.14	45797.26
559.31	46134.30
559.47	46314.52
559.64	45968.12
559.80	45834.71
559.97	46461.97
560.13	46153.02
560.30	46134.30
560.46	46628.15
560.63	46251.33
560.79	46319.20
560.96	46021.95
561.12	45752.79
561.29	45830.03
561.45	46246.65
561.61	46567.30
561.78	45998.55
561.94	46520.49
562.11	46490.06
562.27	46211.54
562.44	46036.00
562.60	46454.95
562.77	46698.37
562.93	46623.47
563.10	46784.97
563.26	46199.83
563.42	46934.76
563.59	46925.40
563.75	46693.69
563.92	46550.91
564.08	46466.66
564.24	46681.98
564.41	46115.58
564.57	46548.57
564.74	46710.07
564.90	46642.20
565.07	46653.90
565.23	46810.71
565.39	46637.51
565.56	47159.45
565.72	46256.01
565.88	46714.75
566.05	46436.23
566.21	46478.36
566.38	46681.98
566.54	46948.81
566.70	46717.09
566.87	47009.66
567.03	46913.70
567.19	46883.27
567.36	46644.54
567.52	46850.50
567.68	46642.20
567.85	46700.71
568.01	47105.62
568.17	47084.56
568.34	47442.66
568.50	47318.61
568.66	47037.75
568.83	47292.86
568.99	46838.80
569.15	46789.65
569.32	46953.49
569.48	46920.72
569.64	46979.23
569.81	47220.31
569.97	46988.60
570.13	47426.28
570.30	47182.86
570.46	47140.73
570.62	47297.55
570.78	47063.49
570.95	47208.61
571.11	47037.75
571.27	46745.18
571.43	46562.62
571.60	47103.28
571.76	47463.72
571.92	47533.94
572.09	47508.19
572.25	47168.82
572.41	47709.48
572.57	47246.05
572.74	47229.67
572.90	46958.17
573.06	47040.09
573.22	47147.75
573.38	47250.74
573.55	47533.94
573.71	47697.78
573.87	47538.62
574.03	47131.37
574.20	47262.44
574.36	46892.63
574.52	47349.04
574.68	46925.40
574.84	47161.79
575.01	47302.23
575.17	47573.73
575.33	47573.73
575.49	47377.12
575.65	47377.12
575.82	47227.33
575.98	47028.38
576.14	47351.38
576.30	47491.81
576.46	47079.88
576.62	46808.37
576.79	47243.71
576.95	47332.65
577.11	47519.90
577.27	47327.97
577.43	47494.15
577.59	47566.71
577.75	47484.79
577.92	47037.75
578.08	47105.62
578.24	47297.55
578.40	47414.57
578.56	47234.35
578.72	47126.69
578.88	47374.78
579.04	47419.25
579.21	47171.16
579.37	47414.57
579.53	47920.13
579.69	47363.08
579.85	47409.89
580.01	47428.62
580.17	47360.74
580.33	47475.43
580.49	47435.64
580.65	47580.75
580.82	47997.37
580.98	47543.30
581.14	47384.15
581.30	47819.49
581.46	47353.72
581.62	47140.73
581.78	47033.07
581.94	47753.95
582.10	47414.57
582.26	47594.79
582.42	47695.44
582.58	48062.90
582.74	47707.14
582.90	47969.28
583.06	47735.23
583.22	47452.02
583.38	47672.03
583.54	47805.44
583.70	47363.08
583.86	47725.86
584.02	47421.59
584.18	47524.58
584.34	47632.24
584.50	47739.91
584.66	47634.58
584.82	47468.40
584.98	47875.66
585.14	47763.31
585.30	47454.36
585.46	47669.69
585.62	47082.22
585.78	47402.87
585.94	47435.64
586.10	48020.77
586.26	47620.54
586.42	47639.26
586.58	47700.12
586.74	47533.94
586.90	47545.64
587.06	47192.22
587.22	47665.01
587.38	47906.08
587.54	47594.79
587.70	47934.17
587.86	47555.00
588.02	47889.70
588.18	48093.33
588.34	47796.08
588.49	47854.59
588.65	47552.66
588.81	47728.20
588.97	47480.11
589.13	47735.23
589.29	47550.32
589.45	47655.65
589.61	47887.36
589.77	48067.58
589.93	47831.19
590.08	47976.30
590.24	48009.07
590.40	47936.51
590.56	47744.59
590.72	48076.94
590.88	47365.42
591.04	47470.75
591.20	48051.20
591.35	47800.76
591.51	48521.65
591.67	47777.36
591.83	48182.27
591.99	47878.00
592.15	48442.07
592.31	48105.03
592.46	47828.85
592.62	47707.14
592.78	47557.35
592.94	48004.39
593.10	48217.38
593.26	48175.25
593.41	48163.54
593.57	47973.96
593.73	48058.22
593.89	47995.03
594.05	47749.27
594.20	47936.51
594.36	47742.25
594.52	47810.12
594.68	47711.82
594.84	48098.01
594.99	48200.99
595.15	47969.28
595.31	48626.97
595.47	48144.82
595.62	48259.51
595.78	48114.39
595.94	47910.77
596.10	47555.00
596.25	48254.82
596.41	48065.24
596.57	48046.52
596.73	47964.60
596.88	47915.45
597.04	48385.89
597.20	48535.69
597.36	48156.52
597.51	48009.07
597.67	47999.71
597.83	47728.20
597.99	48371.85
598.14	48067.58
598.30	48013.75
598.46	48065.24
598.61	48123.75
598.77	47672.03
598.93	48200.99
599.09	48037.16
599.24	48083.97
599.40	48032.47
599.56	48339.08
599.71	48037.16
599.87	48236.10
600.03	48086.31
600.18	48430.36
600.34	48430.36
600.50	48144.82
600.65	48336.74
600.81	48474.84
600.97	48435.05
601.12	48549.73
601.28	48467.81
601.44	48622.29
601.59	48404.62
601.75	47803.10
601.91	48205.67
602.06	48395.26
602.22	48060.56
602.37	48154.18
602.53	48006.73
602.69	48453.77
602.84	47737.57
603.00	47959.92
603.16	48203.33
603.31	47885.02
603.47	48198.65
603.62	48072.26
603.78	47793.74
603.94	47760.97
604.09	47833.53
604.25	47784.38
604.40	47973.96
604.56	48060.56
604.71	48041.84
604.87	48280.57
605.03	47978.64
605.18	48289.93
605.34	47707.14
605.49	47557.35
605.65	47803.10
605.80	47833.53
605.96	47730.54
606.12	47870.98
606.27	48163.54
606.43	47775.02
606.58	48013.75
606.74	47901.40
606.89	47882.68
607.05	48208.01
607.20	47842.89
607.36	48254.82
607.51	47547.98
607.67	47704.80
607.82	47503.51
607.98	47496.49
608.13	47271.80
608.29	47510.53
608.44	47512.88
608.60	47323.29
608.75	48058.22
608.91	47854.59
609.06	47618.20
609.22	47456.70
609.37	47349.04
609.53	48065.24
609.68	47243.71
609.84	46920.72
609.99	47634.58
610.15	47777.36
610.30	47594.79
610.46	47529.26
610.61	48004.39
610.76	47601.82
610.92	47751.61
611.07	47498.83
611.23	47428.62
611.38	47487.13
611.54	47136.05
611.69	47459.04
611.84	47459.04
612.00	47365.42
612.15	47239.03
612.31	47665.01
612.46	47243.71
612.62	47969.28
612.77	47079.88
612.92	47657.99
613.08	47700.12
613.23	47290.52
613.39	47210.95
613.54	46979.23
613.69	47185.20
613.85	47107.96
614.00	47058.81
614.15	47484.79
614.31	47384.15
614.46	47480.11
614.62	47243.71
614.77	47236.69
614.92	47051.79
615.08	46925.40
615.23	46576.66
615.38	46955.83
615.54	46829.44
615.69	47164.14
615.84	47114.98
616.00	47260.10
616.15	47224.99
616.30	47077.54
616.46	47267.12
616.61	46997.96
616.76	47147.75
616.92	46841.14
617.07	46946.47
617.22	46515.81
617.37	46965.19
617.53	47068.17
617.68	46831.78
617.83	46391.76
617.99	46698.37
618.14	46672.62
618.29	46880.93
618.45	46892.63
618.60	46422.19
618.75	46504.10
618.90	46614.11
619.06	47210.95
619.21	46305.16
619.36	46653.90
619.51	46314.52
619.67	46263.03
619.82	46241.96
619.97	46312.18
620.12	46251.33
620.28	46246.65
620.43	46347.29
620.58	46579.00
620.73	46813.05
620.89	46389.42
621.04	46738.16
621.19	46506.44
621.34	46380.06
621.49	45970.46
621.65	46560.28
621.80	46028.98
621.95	45933.01
622.10	45851.09
622.25	45605.34
622.41	46256.01
622.56	45647.47
622.71	46040.68
622.86	45989.19
623.01	46141.32
623.16	46209.20
623.32	45844.07
623.47	45705.98
623.62	45661.51
623.77	45677.90
623.92	45823.01
624.07	45930.67
624.23	45701.30
624.38	46199.83
624.53	45958.76
624.68	46038.34
624.83	45689.60
624.98	46082.81
625.13	45776.20
625.29	45731.73
625.44	46003.23
625.59	45277.66
625.74	45350.22
625.89	45460.23
626.04	45301.07
626.19	45230.85
626.34	45230.85
626.49	45272.98
626.65	45125.53
626.80	45418.10
626.95	45516.40
627.10	44879.77
627.25	45263.62
627.40	45078.72
627.55	44655.08
627.70	45361.92
627.85	45500.01
628.00	44748.70
628.15	44947.65
628.30	44999.14
628.45	45010.84
628.60	44692.53
628.76	45020.20
628.91	45184.04
629.06	45059.99
629.21	44863.39
629.36	44734.66
629.51	44947.65
629.66	44907.86
629.81	44634.02
629.96	44608.27
630.11	44678.49
630.26	44299.32
630.41	44453.79
630.56	44507.63
630.71	44657.42
630.86	44687.85
631.01	44456.14
631.16	44636.36
631.31	44694.87
631.46	44423.37
631.61	44673.81
631.76	44713.59
631.91	44271.23
632.06	44208.04
632.21	44631.68
632.36	44706.57
632.51	44013.77
632.66	44243.15
632.81	44343.79
632.96	44289.96
633.10	44257.19
633.25	44624.65
633.40	44320.38
633.55	44355.49
633.70	43920.15
633.85	44123.78
634.00	43920.15
634.15	43999.73
634.30	43871.00
634.45	44170.59
634.60	44196.34
634.75	44313.36
634.90	43714.19
635.05	43995.05
635.19	44023.14
635.34	44004.41
635.49	44147.18
635.64	44027.82
635.79	43725.89
635.94	43559.71
636.09	43461.41
636.24	43133.73
636.39	43168.84
636.53	43339.70
636.68	43391.19
636.83	43217.99
636.98	43901.43
637.13	43753.97
637.28	43929.51
637.43	43728.23
637.57	43517.58
637.72	43433.32
637.87	43498.86
638.02	43374.81
638.17	43466.09
638.32	43416.94
638.46	43012.02
638.61	43250.76
638.76	42981.60
638.91	43447.36
639.06	43058.84
639.20	43849.94
639.35	43306.93
639.50	43388.85
639.65	43365.45
639.80	43323.32
639.94	42965.21
640.09	42799.04
640.24	43077.56
640.39	42890.32
640.54	42288.80
640.68	42546.26
640.83	43201.61
640.98	42958.19
641.13	42925.42
641.27	43037.77
641.42	42569.66
641.57	42876.27
641.72	42789.67
641.86	42473.70
642.01	42436.25
642.16	42890.32
642.31	42417.53
642.45	42831.80
642.60	42220.92
642.75	42408.17
642.90	42094.53
643.04	41876.86
643.19	42513.49
643.34	42277.10
643.48	42462.00
643.63	42660.94
643.78	42422.21
643.93	42792.01
644.07	42541.58
644.22	42754.57
644.37	42298.16
644.51	42075.81
644.66	42272.42
644.81	42227.95
644.95	41640.47
645.10	41935.38
645.25	41944.74
645.39	42005.59
645.54	42525.19
645.69	42377.74
645.83	42148.37
645.98	42375.40
646.13	42153.05
646.27	42040.70
646.42	41715.37
646.57	42139.00
646.71	41820.69
646.86	42120.28
647.00	41706.01
647.15	41677.92
647.30	41911.97
647.44	41881.55
647.59	41958.78
647.74	41897.93
647.88	41780.90
648.03	41666.22
648.17	41549.19
648.32	41509.40
648.47	41242.58
648.61	41251.94
648.76	41752.82
648.90	41954.10
649.05	41167.68
649.20	41333.86
649.34	41373.65
649.49	41127.89
649.63	41596.00
649.78	41525.78
649.92	41497.70
650.07	41570.25
650.21	41593.66
650.36	41127.89
650.51	41195.77
650.65	41130.23
650.80	41862.82
650.94	41689.62
651.09	41628.77
651.23	41350.24
651.38	41478.97
651.52	40964.06
651.67	41207.47
651.81	40727.66
651.96	40898.52
652.10	41202.79
652.25	41326.84
652.39	41076.40
652.54	40938.31
652.68	41275.35
652.83	40793.20
652.97	41310.46
653.12	40809.58
653.26	40704.26
653.41	40786.18
653.55	40643.40
653.70	40498.29
653.84	40133.17
653.99	40182.32
654.13	40449.14
654.27	39992.73
654.42	40547.44
654.56	40362.54
654.71	40381.26
654.85	40737.02
655.00	40762.77
655.14	40772.13
655.29	40025.50
655.43	39852.30
655.57	40252.53
655.72	40208.06
655.86	40147.21
656.01	40095.72
656.15	39913.16
656.30	39859.32
656.44	40098.06
656.58	40013.80
656.73	39739.96
656.87	39978.69
657.01	40088.70
657.16	40268.92
657.30	40484.25
657.45	40491.27
657.59	40285.30
657.73	40126.14
657.88	40509.99
658.02	40032.52
658.16	39533.99
658.31	40004.44
658.45	39143.12
658.60	39400.58
658.74	39608.89
658.88	39667.40
659.03	39583.14
659.17	39201.63
659.31	39115.03
659.46	39447.39
659.60	39700.17
659.74	39423.98
659.89	39445.05
660.03	39009.71
660.17	39203.97
660.32	38967.58
660.46	39040.14
660.60	38822.47
660.74	39283.55
660.89	38909.07
661.03	38763.95
661.17	39005.03
661.32	38806.08
661.46	38960.56
661.60	39033.11
661.74	39072.90
661.89	39285.89
662.03	38864.60
662.17	39173.55
662.31	38710.12
662.46	38878.64
662.60	38602.46
662.74	38632.88
662.88	38146.05
663.03	37806.67
663.17	37886.25
663.31	37935.40
663.45	37769.22
663.60	37926.04
663.74	37563.26
663.88	37820.72
664.02	37825.40
664.17	38284.14
664.31	37720.07
664.45	37450.91
664.59	37659.22
664.73	37830.08
664.88	37514.11
665.02	37235.58
665.16	37343.25
665.30	37263.67
665.44	37343.25
665.59	37111.53
665.73	36943.02
665.87	37134.94
666.01	37008.55
666.15	37020.25
666.29	37418.14
666.44	37727.10
666.58	36816.63
666.72	36809.61
666.86	37172.39
667.00	37221.54
667.14	36994.51
667.28	36912.59
667.43	36486.61
667.57	36711.30
667.71	36531.08
667.85	36624.70
667.99	35981.06
668.13	36327.45
668.27	36517.04
668.41	36781.52
668.56	36144.89
668.70	36299.37
668.84	36414.05
668.98	35959.99
669.12	36044.25
669.26	35943.61
669.40	36095.74
669.54	35751.68
669.68	35957.65
669.82	35278.89
669.96	35407.62
670.10	35496.56
670.25	35522.31
670.39	35789.13
670.53	35283.58
670.67	35498.91
670.81	35793.81
670.95	35676.79
671.09	35543.38
671.23	35061.22
671.37	35442.73
671.51	35381.88
671.65	35548.06
671.79	35056.54
671.93	35201.66
672.07	35241.45
672.21	34689.08
672.35	34609.50
672.49	34246.72
672.63	34663.33
672.77	34335.66
672.91	34644.61
673.05	34450.35
673.19	34354.38
673.33	34494.82
673.47	34504.18
673.61	34579.07
673.75	34204.59
673.89	33986.92
674.03	34274.80
674.17	34211.61
674.31	33951.81
674.45	34106.29
674.59	33628.82
674.73	33626.48
674.87	33359.66
675.01	33254.33
675.15	33198.16
675.29	33317.53
675.43	33214.54
675.56	33352.63
675.70	33347.95
675.84	33141.99
675.98	32390.67
676.12	32921.98
676.26	33024.96
676.40	32467.91
676.54	32404.72
676.68	32299.39
676.82	31992.78
676.96	32329.82
677.10	31945.97
677.23	32163.64
677.37	31985.76
677.51	31482.55
677.65	31700.22
677.79	31545.74
677.93	31328.07
678.07	31571.49
678.21	31072.95
678.34	31524.68
678.48	30768.68
678.62	31049.55
678.76	31180.62
678.90	30663.36
679.04	30981.67
679.18	30827.20
679.31	30637.61
679.45	30312.28
679.59	30541.65
679.73	30204.61
679.87	30342.70
680.00	30195.25
680.14	29692.04
680.28	29984.60
680.42	29624.16
680.56	29935.45
680.70	30209.29
680.83	30232.70
680.97	29832.47
681.11	29614.80
681.25	29638.20
681.39	29102.22
681.52	29488.41
681.66	29244.99
681.80	28968.81
681.94	28772.21
682.07	28739.44
682.21	28379.00
682.35	28659.86
682.49	28762.84
682.62	28627.09
682.76	28533.47
682.90	28451.55
683.04	28435.17
683.17	28474.96
683.31	28381.34
683.45	28594.32
683.59	28236.22
683.72	28070.04
683.86	28224.52
684.00	27489.59
684.13	27613.64
684.27	27393.63
684.41	27421.72
684.55	26993.40
684.68	27056.59
684.82	27028.51
684.96	27328.10
685.09	27192.34
685.23	26745.30
685.37	26923.18
685.50	26881.05
685.64	26965.31
685.78	26480.82
685.91	26534.65
686.05	26359.11
686.19	26363.79
686.32	26443.37
686.46	26277.19
686.60	26199.96
686.73	25799.73
686.87	25956.54
687.01	26260.81
687.14	25666.31
687.28	25591.42
687.42	25289.49
687.55	25619.50
687.69	25415.88
687.82	25291.83
687.96	25546.95
688.10	25116.29
688.23	25020.33
688.37	24980.54
688.50	24931.39
688.64	24931.39
688.78	24720.74
688.91	24570.94
689.05	24311.14
689.18	24435.19
689.32	23557.49
689.46	23695.58
689.59	24173.05
689.73	23950.70
689.86	23988.15
690.00	23924.96
690.13	24411.79
690.27	23838.36
690.41	23646.43
690.54	23646.43
690.68	23321.10
690.81	23536.43
690.95	23843.04
691.08	23206.41
691.22	23524.72
691.35	23068.32
691.49	22876.40
691.62	23047.26
691.76	22651.70
691.89	22471.48
692.03	22434.03
692.16	22429.35
692.30	22429.35
692.43	22317.01
692.57	21984.65
692.70	22080.61
692.84	22148.49
692.97	21844.22
693.11	21879.33
693.24	21743.58
693.38	22419.99
693.51	21783.37
693.65	22026.78
693.78	21703.79
693.92	21869.97
694.05	21451.01
694.19	21317.60
694.32	21312.92
694.45	21390.16
694.59	20886.94
694.72	20933.75
694.86	21008.65
694.99	20627.14
695.13	20776.94
695.26	20535.86
695.39	20292.44
695.53	20599.05
695.66	20262.02
695.80	20292.44
695.93	20409.47
696.07	20149.67
696.20	20217.55
696.33	20109.88
696.47	19924.98
696.60	19819.66
696.73	19953.07
696.87	19871.15
697.00	19709.65
697.14	19484.96
697.27	19550.49
697.40	19089.41
697.54	19176.01
697.67	18806.20
697.80	19459.21
697.94	18768.76
698.07	18956.00
698.21	19021.53
698.34	18890.46
698.47	19103.45
698.61	18623.64
698.74	19037.92
698.87	18668.11
699.01	18459.81
699.14	18307.67
699.27	18260.86
699.40	18146.17
699.54	17947.23
699.67	17942.55
699.80	17956.59
699.94	17584.44
700.07	17750.62
700.20	17621.89
700.34	17598.49
700.47	17385.50
700.60	17537.63
700.73	17750.62
700.87	17322.30
701.00	17249.75
701.13	17294.22
701.26	17104.64
701.40	17352.73
701.53	16912.71
701.66	17043.78
701.79	16903.35
701.93	16594.40
702.06	16439.92
702.19	16638.87
702.32	16809.73
702.46	16524.18
702.59	16355.66
702.72	16166.08
702.85	16381.41
702.99	16074.80
703.12	16252.68
703.25	16067.78
703.38	15899.26
703.51	15775.21
703.65	15934.37
703.78	16081.82
703.91	15466.26
704.04	15655.84
704.17	15697.97
704.31	15339.87
704.44	15264.97
704.57	15513.07
704.70	15648.82
704.83	15033.26
704.96	15040.28
705.10	15157.31
705.23	14895.17
>>>>>End Processed Spectral Data<<<<<
