SpectraSuite Data File
++++++++++++++++++++++++++++++++++++
Date: Fri Oct 04 11:39:51 GMT-05:00 2013
User: price-jones
Dark Spectrum Present: No
Reference Spectrum Present: No
Number of Sampled Component Spectra: 1
Spectrometers: USB2+H05261
Integration Time (usec): 100000 (USB2+H05261)
Spectra Averaged: 1 (USB2+H05261)
Boxcar Smoothing: 0 (USB2+H05261)
Correct for Electrical Dark: No (USB2+H05261)
Strobe/Lamp Enabled: No (USB2+H05261)
Correct for Detector Non-linearity: No (USB2+H05261)
Correct for Stray Light: No (USB2+H05261)
Number of Pixels in Processed Spectrum: 2048
>>>>>Begin Processed Spectral Data<<<<<
365.73	44.47
365.92	44.47
366.12	44.47
366.32	0.00
366.52	0.00
366.72	0.00
366.91	0.00
367.11	0.00
367.31	0.00
367.51	0.00
367.70	7.02
367.90	0.00
368.10	0.00
368.30	0.00
368.49	0.00
368.69	0.00
368.89	0.00
369.09	0.00
369.28	0.00
369.48	0.00
369.68	0.00
369.87	16.38
370.07	0.00
370.27	28.09
370.47	0.00
370.66	39.79
370.86	74.90
371.06	107.66
371.25	72.56
371.45	128.73
371.65	79.58
371.84	21.06
372.04	56.17
372.24	72.56
372.44	110.01
372.63	105.32
372.83	212.99
373.03	184.90
373.22	63.19
373.42	74.90
373.62	102.98
373.81	126.39
374.01	135.75
374.21	128.73
374.40	117.03
374.60	152.13
374.79	189.58
374.99	128.73
375.19	81.92
375.38	119.37
375.58	170.86
375.78	145.11
375.97	159.16
376.17	131.07
376.37	131.07
376.56	112.35
376.76	67.88
376.95	79.58
377.15	93.62
377.35	170.86
377.54	133.41
377.74	35.11
377.93	119.37
378.13	95.96
378.33	95.96
378.52	175.54
378.72	135.75
378.91	184.90
379.11	93.62
379.31	121.71
379.50	117.03
379.70	147.45
379.89	126.39
380.09	98.30
380.28	138.09
380.48	60.85
380.68	117.03
380.87	93.62
381.07	93.62
381.26	53.83
381.46	98.30
381.65	42.13
381.85	0.00
382.04	107.66
382.24	126.39
382.43	93.62
382.63	107.66
382.83	131.07
383.02	126.39
383.22	175.54
383.41	121.71
383.61	117.03
383.80	163.84
384.00	140.43
384.19	70.22
384.39	65.54
384.58	110.01
384.78	67.88
384.97	117.03
385.17	86.60
385.36	79.58
385.56	81.92
385.75	128.73
385.95	56.17
386.14	170.86
386.34	105.32
386.53	154.48
386.72	39.79
386.92	131.07
387.11	70.22
387.31	121.71
387.50	161.50
387.70	49.15
387.89	93.62
388.09	42.13
388.28	128.73
388.48	65.54
388.67	98.30
388.86	107.66
389.06	107.66
389.25	161.50
389.45	112.35
389.64	154.48
389.84	133.41
390.03	91.28
390.22	147.45
390.42	77.24
390.61	112.35
390.81	100.64
391.00	114.69
391.19	147.45
391.39	105.32
391.58	126.39
391.78	159.16
391.97	126.39
392.16	168.52
392.36	154.48
392.55	117.03
392.75	117.03
392.94	32.77
393.13	166.18
393.33	77.24
393.52	65.54
393.71	138.09
393.91	135.75
394.10	145.11
394.29	65.54
394.49	72.56
394.68	161.50
394.88	161.50
395.07	100.64
395.26	152.13
395.46	140.43
395.65	170.86
395.84	126.39
396.04	212.99
396.23	112.35
396.42	102.98
396.62	124.05
396.81	149.79
397.00	105.32
397.19	203.63
397.39	86.60
397.58	161.50
397.77	163.84
397.97	156.82
398.16	147.45
398.35	168.52
398.55	46.81
398.74	28.09
398.93	121.71
399.12	159.16
399.32	126.39
399.51	100.64
399.70	166.18
399.90	145.11
400.09	173.20
400.28	121.71
400.47	191.92
400.67	161.50
400.86	53.83
401.05	159.16
401.24	110.01
401.44	100.64
401.63	187.24
401.82	121.71
402.01	105.32
402.21	175.54
402.40	112.35
402.59	53.83
402.78	79.58
402.97	86.60
403.17	86.60
403.36	114.69
403.55	135.75
403.74	156.82
403.93	194.26
404.13	259.80
404.32	203.63
404.51	212.99
404.70	229.37
404.89	173.20
405.09	203.63
405.28	131.07
405.47	84.26
405.66	138.09
405.85	124.05
406.05	107.66
406.24	159.16
406.43	182.56
406.62	177.88
406.81	149.79
407.00	152.13
407.20	124.05
407.39	189.58
407.58	189.58
407.77	142.77
407.96	182.56
408.15	161.50
408.34	196.60
408.54	191.92
408.73	152.13
408.92	126.39
409.11	201.29
409.30	173.20
409.49	117.03
409.68	133.41
409.87	201.29
410.07	166.18
410.26	79.58
410.45	147.45
410.64	119.37
410.83	102.98
411.02	168.52
411.21	140.43
411.40	196.60
411.59	138.09
411.78	135.75
411.98	152.13
412.17	175.54
412.36	112.35
412.55	93.62
412.74	166.18
412.93	110.01
413.12	114.69
413.31	208.31
413.50	135.75
413.69	131.07
413.88	138.09
414.07	140.43
414.26	159.16
414.45	124.05
414.64	152.13
414.83	194.26
415.02	205.97
415.22	142.77
415.41	140.43
415.60	84.26
415.79	187.24
415.98	215.33
416.17	135.75
416.36	131.07
416.55	102.98
416.74	117.03
416.93	170.86
417.12	147.45
417.31	131.07
417.50	180.22
417.69	177.88
417.88	184.90
418.07	124.05
418.26	86.60
418.45	147.45
418.64	191.92
418.83	105.32
419.02	79.58
419.21	86.60
419.39	77.24
419.58	133.41
419.77	170.86
419.96	182.56
420.15	210.65
420.34	98.30
420.53	184.90
420.72	180.22
420.91	117.03
421.10	184.90
421.29	170.86
421.48	189.58
421.67	138.09
421.86	149.79
422.05	156.82
422.24	191.92
422.43	140.43
422.61	154.48
422.80	227.03
422.99	156.82
423.18	110.01
423.37	175.54
423.56	241.08
423.75	205.97
423.94	159.16
424.13	220.01
424.32	163.84
424.50	135.75
424.69	98.30
424.88	161.50
425.07	105.32
425.26	126.39
425.45	131.07
425.64	184.90
425.83	236.39
426.01	147.45
426.20	173.20
426.39	88.94
426.58	105.32
426.77	196.60
426.96	117.03
427.15	145.11
427.33	156.82
427.52	128.73
427.71	138.09
427.90	163.84
428.09	128.73
428.28	138.09
428.46	238.73
428.65	159.16
428.84	142.77
429.03	215.33
429.22	161.50
429.40	159.16
429.59	138.09
429.78	255.12
429.97	173.20
430.16	177.88
430.34	86.60
430.53	138.09
430.72	126.39
430.91	196.60
431.10	98.30
431.28	187.24
431.47	203.63
431.66	133.41
431.85	117.03
432.03	126.39
432.22	217.67
432.41	182.56
432.60	217.67
432.79	161.50
432.97	208.31
433.16	212.99
433.35	154.48
433.54	166.18
433.72	238.73
433.91	215.33
434.10	147.45
434.28	196.60
434.47	203.63
434.66	201.29
434.85	212.99
435.03	304.27
435.22	608.54
435.41	1071.97
435.59	1093.03
435.78	765.36
435.97	498.53
436.16	285.55
436.34	210.65
436.53	210.65
436.72	212.99
436.90	194.26
437.09	156.82
437.28	224.69
437.46	53.83
437.65	166.18
437.84	191.92
438.02	163.84
438.21	184.90
438.40	152.13
438.58	133.41
438.77	182.56
438.96	198.95
439.14	142.77
439.33	187.24
439.52	210.65
439.70	159.16
439.89	205.97
440.08	140.43
440.26	210.65
440.45	163.84
440.63	227.03
440.82	194.26
441.01	163.84
441.19	166.18
441.38	102.98
441.57	173.20
441.75	131.07
441.94	266.82
442.12	170.86
442.31	121.71
442.50	168.52
442.68	159.16
442.87	154.48
443.05	166.18
443.24	203.63
443.43	257.46
443.61	182.56
443.80	175.54
443.98	191.92
444.17	121.71
444.35	189.58
444.54	149.79
444.73	166.18
444.91	215.33
445.10	189.58
445.28	189.58
445.47	224.69
445.65	210.65
445.84	210.65
446.02	201.29
446.21	131.07
446.39	231.71
446.58	133.41
446.77	161.50
446.95	102.98
447.14	236.39
447.32	159.16
447.51	243.42
447.69	191.92
447.88	168.52
448.06	154.48
448.25	194.26
448.43	180.22
448.62	184.90
448.80	170.86
448.99	220.01
449.17	180.22
449.36	194.26
449.54	224.69
449.73	163.84
449.91	138.09
450.10	149.79
450.28	255.12
450.46	163.84
450.65	201.29
450.83	156.82
451.02	229.37
451.20	173.20
451.39	194.26
451.57	173.20
451.76	191.92
451.94	110.01
452.13	227.03
452.31	203.63
452.49	205.97
452.68	191.92
452.86	126.39
453.05	297.25
453.23	173.20
453.42	166.18
453.60	168.52
453.78	208.31
453.97	173.20
454.15	67.88
454.34	191.92
454.52	196.60
454.70	170.86
454.89	189.58
455.07	177.88
455.26	250.44
455.44	180.22
455.62	114.69
455.81	184.90
455.99	196.60
456.17	173.20
456.36	224.69
456.54	112.35
456.73	156.82
456.91	168.52
457.09	227.03
457.28	308.95
457.46	220.01
457.64	212.99
457.83	135.75
458.01	161.50
458.19	243.42
458.38	205.97
458.56	208.31
458.74	175.54
458.93	154.48
459.11	147.45
459.29	138.09
459.48	205.97
459.66	201.29
459.84	180.22
460.03	271.50
460.21	140.43
460.39	241.08
460.57	184.90
460.76	210.65
460.94	215.33
461.12	191.92
461.31	266.82
461.49	152.13
461.67	173.20
461.85	194.26
462.04	168.52
462.22	634.29
462.40	126.39
462.59	227.03
462.77	222.35
462.95	170.86
463.13	107.66
463.32	231.71
463.50	245.76
463.68	208.31
463.86	205.97
464.05	173.20
464.23	215.33
464.41	196.60
464.59	121.71
464.78	245.76
464.96	161.50
465.14	81.92
465.32	217.67
465.50	255.12
465.69	231.71
465.87	135.75
466.05	180.22
466.23	180.22
466.41	156.82
466.60	166.18
466.78	220.01
466.96	255.12
467.14	205.97
467.32	250.44
467.51	217.67
467.69	220.01
467.87	224.69
468.05	215.33
468.23	220.01
468.41	201.29
468.60	187.24
468.78	217.67
468.96	203.63
469.14	170.86
469.32	159.16
469.50	229.37
469.69	269.16
469.87	220.01
470.05	196.60
470.23	229.37
470.41	163.84
470.59	119.37
470.77	245.76
470.95	180.22
471.14	189.58
471.32	88.94
471.50	250.44
471.68	166.18
471.86	187.24
472.04	170.86
472.22	262.14
472.40	163.84
472.58	131.07
472.77	224.69
472.95	149.79
473.13	107.66
473.31	210.65
473.49	117.03
473.67	177.88
473.85	255.12
474.03	255.12
474.21	149.79
474.39	262.14
474.57	276.18
474.75	250.44
474.93	189.58
475.12	156.82
475.30	173.20
475.48	269.16
475.66	180.22
475.84	191.92
476.02	208.31
476.20	234.05
476.38	217.67
476.56	266.82
476.74	229.37
476.92	168.52
477.10	264.48
477.28	166.18
477.46	163.84
477.64	194.26
477.82	205.97
478.00	180.22
478.18	187.24
478.36	182.56
478.54	224.69
478.72	203.63
478.90	243.42
479.08	198.95
479.26	189.58
479.44	283.20
479.62	142.77
479.80	140.43
479.98	241.08
480.16	252.78
480.34	245.76
480.52	224.69
480.70	231.71
480.88	276.18
481.06	170.86
481.24	142.77
481.41	212.99
481.59	271.50
481.77	205.97
481.95	252.78
482.13	215.33
482.31	191.92
482.49	208.31
482.67	280.86
482.85	299.59
483.03	290.23
483.21	241.08
483.39	294.91
483.57	255.12
483.74	212.99
483.92	259.80
484.10	252.78
484.28	322.99
484.46	372.15
484.64	259.80
484.82	280.86
485.00	210.65
485.18	353.42
485.35	409.59
485.53	297.25
485.71	339.38
485.89	250.44
486.07	294.91
486.25	332.36
486.43	388.53
486.61	346.40
486.78	259.80
486.96	304.27
487.14	285.55
487.32	334.70
487.50	287.89
487.68	325.33
487.85	285.55
488.03	322.99
488.21	330.02
488.39	353.42
488.57	273.84
488.75	346.40
488.92	587.47
489.10	313.63
489.28	395.55
489.46	320.65
489.64	273.84
489.81	327.68
489.99	292.57
490.17	278.52
490.35	383.85
490.53	367.46
490.70	273.84
490.88	290.23
491.06	376.83
491.24	315.97
491.41	351.08
491.59	315.97
491.77	269.16
491.95	212.99
492.13	414.27
492.30	280.86
492.48	311.29
492.66	255.12
492.84	224.69
493.01	290.23
493.19	292.57
493.37	351.08
493.54	360.44
493.72	301.93
493.90	388.53
494.08	351.08
494.25	332.36
494.43	320.65
494.61	271.50
494.79	308.95
494.96	269.16
495.14	318.31
495.32	271.50
495.49	330.02
495.67	423.64
495.85	234.05
496.02	271.50
496.20	264.48
496.38	304.27
496.55	372.15
496.73	337.04
496.91	257.46
497.09	386.19
497.26	243.42
497.44	372.15
497.62	273.84
497.79	337.04
497.97	257.46
498.14	301.93
498.32	280.86
498.50	330.02
498.67	252.78
498.85	325.33
499.03	306.61
499.20	292.57
499.38	339.38
499.56	278.52
499.73	320.65
499.91	276.18
500.08	325.33
500.26	287.89
500.44	292.57
500.61	369.80
500.79	280.86
500.97	276.18
501.14	346.40
501.32	229.37
501.49	292.57
501.67	318.31
501.84	259.80
502.02	248.10
502.20	231.71
502.37	255.12
502.55	259.80
502.72	351.08
502.90	283.20
503.07	327.68
503.25	365.12
503.43	313.63
503.60	259.80
503.78	278.52
503.95	243.42
504.13	231.71
504.30	259.80
504.48	313.63
504.65	280.86
504.83	332.36
505.01	269.16
505.18	315.97
505.36	266.82
505.53	297.25
505.71	250.44
505.88	224.69
506.06	318.31
506.23	299.59
506.41	285.55
506.58	283.20
506.76	259.80
506.93	337.04
507.11	308.95
507.28	269.16
507.46	257.46
507.63	290.23
507.81	276.18
507.98	236.39
508.16	222.35
508.33	266.82
508.50	297.25
508.68	294.91
508.85	322.99
509.03	285.55
509.20	224.69
509.38	344.06
509.55	290.23
509.73	287.89
509.90	325.33
510.08	271.50
510.25	315.97
510.42	346.40
510.60	397.89
510.77	236.39
510.95	259.80
511.12	285.55
511.30	358.10
511.47	325.33
511.64	266.82
511.82	266.82
511.99	280.86
512.17	182.56
512.34	278.52
512.51	301.93
512.69	262.14
512.86	344.06
513.04	252.78
513.21	241.08
513.38	299.59
513.56	332.36
513.73	269.16
513.90	280.86
514.08	278.52
514.25	231.71
514.43	215.33
514.60	318.31
514.77	248.10
514.95	294.91
515.12	250.44
515.29	360.44
515.47	269.16
515.64	327.68
515.81	273.84
515.99	351.08
516.16	292.57
516.33	248.10
516.51	299.59
516.68	269.16
516.85	248.10
517.03	245.76
517.20	348.74
517.37	320.65
517.54	365.12
517.72	266.82
517.89	255.12
518.06	243.42
518.24	311.29
518.41	271.50
518.58	299.59
518.75	266.82
518.93	294.91
519.10	297.25
519.27	318.31
519.45	257.46
519.62	313.63
519.79	287.89
519.96	330.02
520.14	348.74
520.31	376.83
520.48	252.78
520.65	292.57
520.83	313.63
521.00	325.33
521.17	287.89
521.34	287.89
521.52	297.25
521.69	273.84
521.86	271.50
522.03	243.42
522.20	353.42
522.38	332.36
522.55	360.44
522.72	271.50
522.89	320.65
523.07	365.12
523.24	262.14
523.41	248.10
523.58	360.44
523.75	372.15
523.92	276.18
524.10	367.46
524.27	341.72
524.44	313.63
524.61	407.25
524.78	271.50
524.96	327.68
525.13	355.76
525.30	264.48
525.47	292.57
525.64	308.95
525.81	367.46
525.98	311.29
526.16	271.50
526.33	325.33
526.50	285.55
526.67	217.67
526.84	262.14
527.01	308.95
527.18	280.86
527.36	236.39
527.53	255.12
527.70	315.97
527.87	241.08
528.04	407.25
528.21	306.61
528.38	269.16
528.55	269.16
528.72	283.20
528.89	383.85
529.07	320.65
529.24	304.27
529.41	369.80
529.58	297.25
529.75	297.25
529.92	388.53
530.09	290.23
530.26	339.38
530.43	290.23
530.60	374.49
530.77	285.55
530.94	278.52
531.11	320.65
531.28	285.55
531.46	330.02
531.63	395.55
531.80	344.06
531.97	318.31
532.14	299.59
532.31	367.46
532.48	315.97
532.65	369.80
532.82	299.59
532.99	381.51
533.16	418.96
533.33	334.70
533.50	337.04
533.67	330.02
533.84	379.17
534.01	259.80
534.18	351.08
534.35	318.31
534.52	374.49
534.69	304.27
534.86	292.57
535.03	285.55
535.20	358.10
535.37	402.57
535.54	379.17
535.71	365.12
535.88	374.49
536.05	341.72
536.22	388.53
536.38	388.53
536.55	351.08
536.72	463.43
536.89	437.68
537.06	395.55
537.23	416.62
537.40	351.08
537.57	433.00
537.74	468.11
537.91	348.74
538.08	524.28
538.25	498.53
538.42	514.92
538.59	601.52
538.75	498.53
538.92	479.81
539.09	477.47
539.26	486.83
539.43	610.88
539.60	613.22
539.77	608.54
539.94	655.35
540.11	706.84
540.28	690.46
540.44	779.40
540.61	784.08
540.78	884.72
540.95	983.02
541.12	1060.26
541.29	1135.16
541.46	1270.91
541.62	1343.47
541.79	1270.91
541.96	1224.10
542.13	1177.29
542.30	1259.21
542.47	1219.42
542.63	1179.63
542.80	1116.44
542.97	1205.38
543.14	1086.01
543.31	1284.95
543.48	1172.61
543.64	1132.82
543.81	1177.29
543.98	1153.88
544.15	1151.54
544.32	1060.26
544.48	1121.12
544.65	1078.99
544.82	1053.24
544.99	983.02
545.16	1086.01
545.32	1184.31
545.49	1612.63
545.66	2436.50
545.83	2918.65
546.00	2675.23
546.16	1926.26
546.33	1404.32
546.50	1149.20
546.67	976.00
546.83	952.60
547.00	823.87
547.17	767.70
547.34	791.10
547.50	840.25
547.67	697.48
547.84	765.36
548.00	681.10
548.17	697.48
548.34	725.57
548.51	805.14
548.67	770.04
548.84	634.29
549.01	727.91
549.18	716.20
549.34	669.39
549.51	657.69
549.68	650.67
549.84	645.99
550.01	578.11
550.18	571.09
550.34	589.82
550.51	559.39
550.68	641.31
550.84	566.41
551.01	575.77
551.18	624.92
551.34	524.28
551.51	514.92
551.68	512.58
551.84	526.62
552.01	500.87
552.18	423.64
552.34	425.98
552.51	493.85
552.68	425.98
552.84	447.04
553.01	449.38
553.18	447.04
553.34	496.19
553.51	425.98
553.67	376.83
553.84	437.68
554.01	440.02
554.17	421.30
554.34	433.00
554.51	367.46
554.67	400.23
554.84	425.98
555.00	435.34
555.17	353.42
555.33	365.12
555.50	311.29
555.67	374.49
555.83	404.91
556.00	390.87
556.16	550.03
556.33	351.08
556.50	322.99
556.66	437.68
556.83	341.72
556.99	337.04
557.16	374.49
557.32	332.36
557.49	358.10
557.65	294.91
557.82	304.27
557.98	311.29
558.15	301.93
558.32	294.91
558.48	271.50
558.65	262.14
558.81	383.85
558.98	351.08
559.14	397.89
559.31	346.40
559.47	306.61
559.64	262.14
559.80	388.53
559.97	423.64
560.13	397.89
560.30	238.73
560.46	362.78
560.63	362.78
560.79	348.74
560.96	344.06
561.12	273.84
561.29	313.63
561.45	273.84
561.61	367.46
561.78	355.76
561.94	290.23
562.11	315.97
562.27	393.21
562.44	297.25
562.60	348.74
562.77	362.78
562.93	327.68
563.10	304.27
563.26	383.85
563.42	297.25
563.59	365.12
563.75	238.73
563.92	344.06
564.08	332.36
564.24	346.40
564.41	367.46
564.57	306.61
564.74	327.68
564.90	367.46
565.07	337.04
565.23	369.80
565.39	322.99
565.56	374.49
565.72	264.48
565.88	346.40
566.05	337.04
566.21	271.50
566.38	304.27
566.54	259.80
566.70	278.52
566.87	283.20
567.03	306.61
567.19	374.49
567.36	390.87
567.52	341.72
567.68	334.70
567.85	315.97
568.01	285.55
568.17	273.84
568.34	334.70
568.50	304.27
568.66	276.18
568.83	416.62
568.99	304.27
569.15	294.91
569.32	306.61
569.48	245.76
569.64	229.37
569.81	322.99
569.97	325.33
570.13	383.85
570.30	283.20
570.46	301.93
570.62	257.46
570.78	287.89
570.95	311.29
571.11	271.50
571.27	395.55
571.43	269.16
571.60	308.95
571.76	330.02
571.92	388.53
572.09	367.46
572.25	292.57
572.41	299.59
572.57	346.40
572.74	372.15
572.90	346.40
573.06	376.83
573.22	344.06
573.38	351.08
573.55	355.76
573.71	304.27
573.87	425.98
574.03	325.33
574.20	400.23
574.36	360.44
574.52	311.29
574.68	339.38
574.84	322.99
575.01	360.44
575.17	330.02
575.33	301.93
575.49	379.17
575.65	351.08
575.82	294.91
575.98	491.51
576.14	294.91
576.30	449.38
576.46	547.69
576.62	739.61
576.79	835.57
576.95	655.35
577.11	531.30
577.27	433.00
577.43	402.57
577.59	428.32
577.75	346.40
577.92	297.25
578.08	365.12
578.24	372.15
578.40	456.40
578.56	592.16
578.72	786.42
578.88	781.74
579.04	620.24
579.21	512.58
579.37	526.62
579.53	395.55
579.69	451.72
579.85	395.55
580.01	454.06
580.17	484.49
580.33	510.24
580.49	472.79
580.65	449.38
580.82	440.02
580.98	374.49
581.14	428.32
581.30	447.04
581.46	416.62
581.62	416.62
581.78	519.60
581.94	514.92
582.10	440.02
582.26	458.74
582.42	496.19
582.58	475.13
582.74	440.02
582.90	505.56
583.06	507.90
583.22	573.43
583.38	510.24
583.54	482.15
583.70	517.26
583.86	514.92
584.02	535.98
584.18	568.75
584.34	505.56
584.50	557.05
584.66	482.15
584.82	383.85
584.98	430.66
585.14	568.75
585.30	538.32
585.46	528.96
585.62	479.81
585.78	367.46
585.94	461.09
586.10	461.09
586.26	519.60
586.42	596.84
586.58	603.86
586.74	535.98
586.90	636.63
587.06	695.14
587.22	627.26
587.38	634.29
587.54	638.97
587.70	688.12
587.86	608.54
588.02	528.96
588.18	437.68
588.34	444.70
588.49	367.46
588.65	465.77
588.81	414.27
588.97	407.25
589.13	433.00
589.29	414.27
589.45	423.64
589.61	337.04
589.77	393.21
589.93	416.62
590.08	388.53
590.24	414.27
590.40	418.96
590.56	433.00
590.72	367.46
590.88	367.46
591.04	458.74
591.20	390.87
591.35	425.98
591.51	341.72
591.67	409.59
591.83	395.55
591.99	421.30
592.15	493.85
592.31	559.39
592.46	505.56
592.62	561.73
592.78	533.64
592.94	594.50
593.10	531.30
593.26	503.22
593.41	566.41
593.57	566.41
593.73	484.49
593.89	496.19
594.05	383.85
594.20	440.02
594.36	414.27
594.52	409.59
594.68	383.85
594.84	379.17
594.99	442.36
595.15	386.19
595.31	463.43
595.47	390.87
595.62	315.97
595.78	449.38
595.94	362.78
596.10	435.34
596.25	360.44
596.41	386.19
596.57	409.59
596.73	381.51
596.88	313.63
597.04	353.42
597.20	360.44
597.36	428.32
597.51	360.44
597.67	386.19
597.83	430.66
597.99	456.40
598.14	395.55
598.30	486.83
598.46	463.43
598.61	411.93
598.77	411.93
598.93	451.72
599.09	496.19
599.24	486.83
599.40	449.38
599.56	451.72
599.71	440.02
599.87	390.87
600.03	379.17
600.18	395.55
600.34	348.74
600.50	400.23
600.65	402.57
600.81	421.30
600.97	351.08
601.12	433.00
601.28	475.13
601.44	402.57
601.59	374.49
601.75	395.55
601.91	315.97
602.06	367.46
602.22	444.70
602.37	404.91
602.53	411.93
602.69	271.50
602.84	353.42
603.00	376.83
603.16	421.30
603.31	360.44
603.47	365.12
603.62	301.93
603.78	339.38
603.94	367.46
604.09	423.64
604.25	402.57
604.40	369.80
604.56	390.87
604.71	358.10
604.87	294.91
605.03	362.78
605.18	430.66
605.34	355.76
605.49	362.78
605.65	346.40
605.80	362.78
605.96	351.08
606.12	383.85
606.27	465.77
606.43	311.29
606.58	393.21
606.74	493.85
606.89	372.15
607.05	327.68
607.20	416.62
607.36	451.72
607.51	383.85
607.67	444.70
607.82	381.51
607.98	500.87
608.13	463.43
608.29	496.19
608.44	543.00
608.60	496.19
608.75	540.66
608.91	554.71
609.06	568.75
609.22	645.99
609.37	655.35
609.53	674.07
609.68	713.86
609.84	791.10
609.99	866.00
610.15	973.66
610.30	1205.38
610.46	1399.64
610.61	1694.55
610.76	2118.18
610.92	2490.33
611.07	2850.77
611.23	2789.92
611.38	2684.59
611.54	2305.43
611.69	1916.90
611.84	1813.92
612.00	1493.26
612.15	1329.42
612.31	1214.74
612.46	1069.62
612.62	954.94
612.77	1027.50
612.92	964.30
613.08	950.26
613.23	957.28
613.39	924.51
613.54	861.32
613.69	905.79
613.85	877.70
614.00	933.87
614.15	751.31
614.31	812.17
614.46	849.61
614.62	737.27
614.77	767.70
614.92	678.76
615.08	739.61
615.23	723.23
615.38	629.60
615.54	615.56
615.69	547.69
615.84	596.84
616.00	531.30
616.15	409.59
616.30	582.79
616.46	456.40
616.61	519.60
616.76	454.06
616.92	512.58
617.07	393.21
617.22	449.38
617.37	409.59
617.53	433.00
617.68	393.21
617.83	463.43
617.99	383.85
618.14	418.96
618.29	463.43
618.45	416.62
618.60	362.78
618.75	454.06
618.90	320.65
619.06	444.70
619.21	479.81
619.36	421.30
619.51	367.46
619.67	503.22
619.82	402.57
619.97	430.66
620.12	477.47
620.28	435.34
620.43	447.04
620.58	404.91
620.73	435.34
620.89	454.06
621.04	435.34
621.19	493.85
621.34	383.85
621.49	395.55
621.65	386.19
621.80	411.93
621.95	491.51
622.10	379.17
622.25	475.13
622.41	383.85
622.56	376.83
622.71	491.51
622.86	489.17
623.01	418.96
623.16	351.08
623.32	451.72
623.47	451.72
623.62	416.62
623.77	372.15
623.92	468.11
624.07	433.00
624.23	365.12
624.38	306.61
624.53	416.62
624.68	500.87
624.83	374.49
624.98	402.57
625.13	440.02
625.29	362.78
625.44	379.17
625.59	386.19
625.74	346.40
625.89	451.72
626.04	402.57
626.19	383.85
626.34	358.10
626.49	433.00
626.65	388.53
626.80	372.15
626.95	341.72
627.10	351.08
627.25	416.62
627.40	407.25
627.55	386.19
627.70	400.23
627.85	418.96
628.00	400.23
628.15	379.17
628.30	355.76
628.45	308.95
628.60	330.02
628.76	393.21
628.91	355.76
629.06	442.36
629.21	353.42
629.36	358.10
629.51	381.51
629.66	353.42
629.81	486.83
629.96	381.51
630.11	400.23
630.26	395.55
630.41	440.02
630.56	514.92
630.71	514.92
630.86	512.58
631.01	425.98
631.16	594.50
631.31	573.43
631.46	409.59
631.61	411.93
631.76	411.93
631.91	409.59
632.06	379.17
632.21	353.42
632.36	388.53
632.51	400.23
632.66	320.65
632.81	229.37
632.96	301.93
633.10	386.19
633.25	388.53
633.40	304.27
633.55	262.14
633.70	327.68
633.85	255.12
634.00	271.50
634.15	276.18
634.30	334.70
634.45	266.82
634.60	311.29
634.75	248.10
634.90	252.78
635.05	358.10
635.19	212.99
635.34	287.89
635.49	322.99
635.64	346.40
635.79	353.42
635.94	341.72
636.09	351.08
636.24	320.65
636.39	259.80
636.53	337.04
636.68	290.23
636.83	351.08
636.98	341.72
637.13	280.86
637.28	308.95
637.43	386.19
637.57	313.63
637.72	360.44
637.87	287.89
638.02	229.37
638.17	205.97
638.32	276.18
638.46	269.16
638.61	294.91
638.76	252.78
638.91	245.76
639.06	220.01
639.20	376.83
639.35	259.80
639.50	280.86
639.65	315.97
639.80	276.18
639.94	304.27
640.09	301.93
640.24	369.80
640.39	306.61
640.54	280.86
640.68	262.14
640.83	297.25
640.98	292.57
641.13	283.20
641.27	245.76
641.42	301.93
641.57	266.82
641.72	229.37
641.86	234.05
642.01	294.91
642.16	243.42
642.31	299.59
642.45	327.68
642.60	353.42
642.75	297.25
642.90	344.06
643.04	231.71
643.19	180.22
643.34	255.12
643.48	271.50
643.63	243.42
643.78	306.61
643.93	332.36
644.07	229.37
644.22	294.91
644.37	287.89
644.51	285.55
644.66	278.52
644.81	313.63
644.95	297.25
645.10	245.76
645.25	313.63
645.39	215.33
645.54	262.14
645.69	287.89
645.83	297.25
645.98	330.02
646.13	346.40
646.27	271.50
646.42	238.73
646.57	243.42
646.71	231.71
646.86	264.48
647.00	294.91
647.15	318.31
647.30	227.03
647.44	252.78
647.59	250.44
647.74	243.42
647.88	264.48
648.03	196.60
648.17	308.95
648.32	255.12
648.47	280.86
648.61	238.73
648.76	257.46
648.90	255.12
649.05	273.84
649.20	259.80
649.34	257.46
649.49	243.42
649.63	313.63
649.78	292.57
649.92	255.12
650.07	318.31
650.21	266.82
650.36	341.72
650.51	369.80
650.65	318.31
650.80	301.93
650.94	273.84
651.09	318.31
651.23	238.73
651.38	276.18
651.52	217.67
651.67	243.42
651.81	313.63
651.96	313.63
652.10	301.93
652.25	255.12
652.39	276.18
652.54	346.40
652.68	374.49
652.83	346.40
652.97	290.23
653.12	311.29
653.26	365.12
653.41	264.48
653.55	315.97
653.70	292.57
653.84	248.10
653.99	290.23
654.13	273.84
654.27	311.29
654.42	234.05
654.56	304.27
654.71	285.55
654.85	222.35
655.00	271.50
655.14	259.80
655.29	262.14
655.43	290.23
655.57	166.18
655.72	208.31
655.86	245.76
656.01	266.82
656.15	276.18
656.30	212.99
656.44	222.35
656.58	236.39
656.73	189.58
656.87	280.86
657.01	266.82
657.16	327.68
657.30	315.97
657.45	266.82
657.59	266.82
657.73	229.37
657.88	252.78
658.02	358.10
658.16	215.33
658.31	257.46
658.45	222.35
658.60	285.55
658.74	266.82
658.88	294.91
659.03	177.88
659.17	243.42
659.31	276.18
659.46	248.10
659.60	217.67
659.74	229.37
659.89	255.12
660.03	257.46
660.17	248.10
660.32	236.39
660.46	308.95
660.60	198.95
660.74	217.67
660.89	290.23
661.03	255.12
661.17	184.90
661.32	245.76
661.46	191.92
661.60	337.04
661.74	299.59
661.89	217.67
662.03	276.18
662.17	220.01
662.31	346.40
662.46	358.10
662.60	332.36
662.74	292.57
662.88	308.95
663.03	273.84
663.17	243.42
663.31	245.76
663.45	266.82
663.60	250.44
663.74	217.67
663.88	220.01
664.02	217.67
664.17	262.14
664.31	234.05
664.45	252.78
664.59	227.03
664.73	201.29
664.88	273.84
665.02	220.01
665.16	322.99
665.30	313.63
665.44	250.44
665.59	255.12
665.73	273.84
665.87	264.48
666.01	227.03
666.15	318.31
666.29	203.63
666.44	348.74
666.58	266.82
666.72	306.61
666.86	285.55
667.00	227.03
667.14	194.26
667.28	248.10
667.43	203.63
667.57	215.33
667.71	201.29
667.85	212.99
667.99	271.50
668.13	250.44
668.27	271.50
668.41	278.52
668.56	280.86
668.70	276.18
668.84	266.82
668.98	238.73
669.12	198.95
669.26	287.89
669.40	292.57
669.54	210.65
669.68	271.50
669.82	259.80
669.96	252.78
670.10	191.92
670.25	217.67
670.39	182.56
670.53	285.55
670.67	229.37
670.81	224.69
670.95	278.52
671.09	227.03
671.23	208.31
671.37	229.37
671.51	278.52
671.65	299.59
671.79	220.01
671.93	217.67
672.07	238.73
672.21	257.46
672.35	203.63
672.49	180.22
672.63	266.82
672.77	231.71
672.91	227.03
673.05	135.75
673.19	170.86
673.33	224.69
673.47	262.14
673.61	212.99
673.75	250.44
673.89	259.80
674.03	255.12
674.17	175.54
674.31	234.05
674.45	264.48
674.59	250.44
674.73	173.20
674.87	252.78
675.01	212.99
675.15	224.69
675.29	271.50
675.43	255.12
675.56	290.23
675.70	262.14
675.84	215.33
675.98	196.60
676.12	243.42
676.26	173.20
676.40	177.88
676.54	184.90
676.68	297.25
676.82	266.82
676.96	290.23
677.10	339.38
677.23	217.67
677.37	231.71
677.51	266.82
677.65	280.86
677.79	177.88
677.93	243.42
678.07	276.18
678.21	250.44
678.34	208.31
678.48	191.92
678.62	241.08
678.76	229.37
678.90	215.33
679.04	250.44
679.18	149.79
679.31	220.01
679.45	273.84
679.59	229.37
679.73	189.58
679.87	205.97
680.00	248.10
680.14	252.78
680.28	182.56
680.42	203.63
680.56	243.42
680.70	276.18
680.83	203.63
680.97	245.76
681.11	184.90
681.25	241.08
681.39	175.54
681.52	330.02
681.66	250.44
681.80	189.58
681.94	198.95
682.07	205.97
682.21	191.92
682.35	175.54
682.49	182.56
682.62	250.44
682.76	217.67
682.90	236.39
683.04	187.24
683.17	191.92
683.31	215.33
683.45	220.01
683.59	182.56
683.72	229.37
683.86	236.39
684.00	156.82
684.13	287.89
684.27	152.13
684.41	250.44
684.55	248.10
684.68	217.67
684.82	248.10
684.96	210.65
685.09	173.20
685.23	227.03
685.37	194.26
685.50	271.50
685.64	285.55
685.78	156.82
685.91	217.67
686.05	224.69
686.19	138.09
686.32	285.55
686.46	189.58
686.60	161.50
686.73	250.44
686.87	259.80
687.01	234.05
687.14	182.56
687.28	149.79
687.42	159.16
687.55	227.03
687.69	227.03
687.82	138.09
687.96	138.09
688.10	161.50
688.23	210.65
688.37	215.33
688.50	215.33
688.64	189.58
688.78	182.56
688.91	170.86
689.05	173.20
689.18	163.84
689.32	229.37
689.46	163.84
689.59	175.54
689.73	168.52
689.86	161.50
690.00	173.20
690.13	215.33
690.27	138.09
690.41	168.52
690.54	205.97
690.68	215.33
690.81	173.20
690.95	187.24
691.08	250.44
691.22	163.84
691.35	238.73
691.49	224.69
691.62	175.54
691.76	184.90
691.89	180.22
692.03	145.11
692.16	236.39
692.30	175.54
692.43	161.50
692.57	180.22
692.70	196.60
692.84	180.22
692.97	248.10
693.11	210.65
693.24	168.52
693.38	168.52
693.51	215.33
693.65	142.77
693.78	217.67
693.92	231.71
694.05	201.29
694.19	198.95
694.32	131.07
694.45	191.92
694.59	173.20
694.72	138.09
694.86	189.58
694.99	159.16
695.13	229.37
695.26	245.76
695.39	149.79
695.53	177.88
695.66	175.54
695.80	227.03
695.93	152.13
696.07	203.63
696.20	163.84
696.33	194.26
696.47	175.54
696.60	182.56
696.73	266.82
696.87	191.92
697.00	149.79
697.14	154.48
697.27	119.37
697.40	168.52
697.54	182.56
697.67	166.18
697.80	140.43
697.94	154.48
698.07	128.73
698.21	198.95
698.34	147.45
698.47	198.95
698.61	180.22
698.74	152.13
698.87	191.92
699.01	238.73
699.14	227.03
699.27	175.54
699.40	276.18
699.54	163.84
699.67	107.66
699.80	196.60
699.94	175.54
700.07	184.90
700.20	121.71
700.34	161.50
700.47	81.92
700.60	170.86
700.73	147.45
700.87	147.45
701.00	187.24
701.13	189.58
701.26	177.88
701.40	112.35
701.53	152.13
701.66	126.39
701.79	110.01
701.93	184.90
702.06	224.69
702.19	145.11
702.32	222.35
702.46	227.03
702.59	152.13
702.72	152.13
702.85	198.95
702.99	212.99
703.12	198.95
703.25	140.43
703.38	210.65
703.51	180.22
703.65	105.32
703.78	133.41
703.91	112.35
704.04	121.71
704.17	124.05
704.31	105.32
704.44	198.95
704.57	175.54
704.70	159.16
704.83	201.29
704.96	133.41
705.10	180.22
705.23	238.73
>>>>>End Processed Spectral Data<<<<<
