SpectraSuite Data File
++++++++++++++++++++++++++++++++++++
Date: Fri Oct 04 11:39:17 GMT-05:00 2013
User: price-jones
Dark Spectrum Present: No
Reference Spectrum Present: No
Number of Sampled Component Spectra: 1
Spectrometers: USB2+H05261
Integration Time (usec): 100000 (USB2+H05261)
Spectra Averaged: 1 (USB2+H05261)
Boxcar Smoothing: 0 (USB2+H05261)
Correct for Electrical Dark: No (USB2+H05261)
Strobe/Lamp Enabled: No (USB2+H05261)
Correct for Detector Non-linearity: No (USB2+H05261)
Correct for Stray Light: No (USB2+H05261)
Number of Pixels in Processed Spectrum: 2048
>>>>>Begin Processed Spectral Data<<<<<
365.73	51.49
365.92	51.49
366.12	51.49
366.32	0.00
366.52	0.00
366.72	0.00
366.91	0.00
367.11	0.00
367.31	2.34
367.51	0.00
367.70	0.00
367.90	0.00
368.10	16.38
368.30	0.00
368.49	0.00
368.69	0.00
368.89	0.00
369.09	0.00
369.28	23.41
369.48	56.17
369.68	11.70
369.87	7.02
370.07	0.00
370.27	70.22
370.47	77.24
370.66	168.52
370.86	250.44
371.06	311.29
371.25	287.89
371.45	264.48
371.65	264.48
371.84	250.44
372.04	283.20
372.24	301.93
372.44	341.72
372.63	346.40
372.83	395.55
373.03	245.76
373.22	292.57
373.42	369.80
373.62	353.42
373.81	379.17
374.01	292.57
374.21	318.31
374.40	320.65
374.60	479.81
374.79	330.02
374.99	388.53
375.19	353.42
375.38	463.43
375.58	386.19
375.78	404.91
375.97	346.40
376.17	402.57
376.37	383.85
376.56	465.77
376.76	393.21
376.95	374.49
377.15	402.57
377.35	458.74
377.54	388.53
377.74	393.21
377.93	381.51
378.13	388.53
378.33	390.87
378.52	397.89
378.72	472.79
378.91	388.53
379.11	484.49
379.31	369.80
379.50	360.44
379.70	444.70
379.89	423.64
380.09	369.80
380.28	491.51
380.48	393.21
380.68	447.04
380.87	360.44
381.07	461.09
381.26	388.53
381.46	514.92
381.65	425.98
381.85	521.94
382.04	409.59
382.24	402.57
382.43	510.24
382.63	498.53
382.83	458.74
383.02	442.36
383.22	484.49
383.41	409.59
383.61	491.51
383.80	503.22
384.00	599.18
384.19	493.85
384.39	535.98
384.58	484.49
384.78	472.79
384.97	517.26
385.17	430.66
385.36	505.56
385.56	489.17
385.75	437.68
385.95	498.53
386.14	524.28
386.34	491.51
386.53	538.32
386.72	524.28
386.92	603.86
387.11	596.84
387.31	601.52
387.50	596.84
387.70	564.07
387.89	547.69
388.09	580.45
388.28	587.47
388.48	547.69
388.67	547.69
388.86	615.56
389.06	564.07
389.25	615.56
389.45	624.92
389.64	669.39
389.84	606.20
390.03	683.44
390.22	685.78
390.42	671.73
390.61	617.90
390.81	662.37
391.00	636.63
391.19	608.54
391.39	606.20
391.58	594.50
391.78	660.03
391.97	706.84
392.16	631.94
392.36	739.61
392.55	737.27
392.75	702.16
392.94	655.35
393.13	720.88
393.33	688.12
393.52	676.41
393.71	704.50
393.91	758.33
394.10	697.48
394.29	734.93
394.49	751.31
394.68	847.27
394.88	805.14
395.07	791.10
395.26	763.01
395.46	763.01
395.65	807.48
395.84	898.77
396.04	828.55
396.23	849.61
396.42	779.40
396.62	784.08
396.81	828.55
397.00	915.15
397.19	959.62
397.39	931.53
397.58	950.26
397.77	901.11
397.97	894.08
398.16	847.27
398.35	842.59
398.55	837.91
398.74	1025.15
398.93	997.07
399.12	875.36
399.32	947.92
399.51	964.30
399.70	931.53
399.90	917.49
400.09	1013.45
400.28	1055.58
400.47	1076.65
400.67	983.02
400.86	1081.33
401.05	1076.65
401.24	1029.84
401.44	1050.90
401.63	1069.62
401.82	1074.31
402.01	1081.33
402.21	1151.54
402.40	1067.28
402.59	1144.52
402.78	1163.25
402.97	1158.57
403.17	1104.73
403.36	1198.35
403.55	1142.18
403.74	1174.95
403.93	1146.86
404.13	1256.87
404.32	1249.85
404.51	1301.34
404.70	1310.70
404.89	1184.31
405.09	1280.27
405.28	1270.91
405.47	1327.08
405.66	1291.98
405.85	1296.66
406.05	1324.74
406.24	1327.08
406.43	1341.13
406.62	1341.13
406.81	1446.45
407.00	1385.60
407.20	1254.53
407.39	1437.09
407.58	1474.54
407.77	1486.24
407.96	1467.52
408.15	1535.39
408.34	1474.54
408.54	1427.73
408.73	1565.82
408.92	1607.95
409.11	1549.43
409.30	1530.71
409.49	1519.01
409.68	1605.61
409.87	1607.95
410.07	1598.59
410.26	1706.25
410.45	1687.53
410.64	1685.19
410.83	1643.06
411.02	1706.25
411.21	1720.29
411.40	1699.23
411.59	1788.17
411.78	1909.88
411.98	1825.62
412.17	1844.34
412.36	1795.19
412.55	1849.02
412.74	1942.64
412.93	1963.71
413.12	1928.60
413.31	1984.77
413.50	1853.70
413.69	2078.40
413.88	2057.33
414.07	2167.34
414.26	2094.78
414.45	2162.66
414.64	2078.40
414.83	2214.15
415.02	2134.57
415.22	2162.66
415.41	2221.17
415.60	2235.21
415.79	2148.61
415.98	2289.04
416.17	2235.21
416.36	2286.70
416.55	2335.85
416.74	2363.94
416.93	2321.81
417.12	2389.69
417.31	2457.56
417.50	2534.80
417.69	2553.52
417.88	2520.76
418.07	2413.09
418.26	2448.20
418.45	2597.99
418.64	2607.36
418.83	2663.53
419.02	2523.10
419.21	2621.40
419.39	2583.95
419.58	2621.40
419.77	2583.95
419.96	2588.63
420.15	2705.66
420.34	2705.66
420.53	2621.40
420.72	2712.68
420.91	2712.68
421.10	2899.92
421.29	2738.43
421.48	2761.83
421.67	2874.18
421.86	2834.39
422.05	2806.30
422.24	2750.13
422.43	2876.52
422.61	2944.39
422.80	2920.99
422.99	2963.12
423.18	2963.12
423.37	3014.61
423.56	2937.37
423.75	2960.78
423.94	2878.86
424.13	2724.38
424.32	2925.67
424.50	3021.63
424.69	2991.20
424.88	3082.49
425.07	2909.29
425.26	2935.03
425.45	2967.80
425.64	2951.42
425.83	3133.98
426.01	3110.57
426.20	3007.59
426.39	2958.44
426.58	2986.52
426.77	3129.30
426.96	3042.70
427.15	3143.34
427.33	3026.31
427.52	3267.39
427.71	3255.69
427.90	3173.77
428.09	3021.63
428.28	3206.53
428.46	3199.51
428.65	3119.93
428.84	3243.98
429.03	3482.72
429.22	3190.15
429.40	3372.71
429.59	3335.26
429.78	3281.43
429.97	3075.46
430.16	3042.70
430.34	3251.00
430.53	3288.45
430.72	3412.50
430.91	3332.92
431.10	3302.50
431.28	3405.48
431.47	3468.67
431.66	3574.00
431.85	3487.40
432.03	3756.56
432.22	3566.98
432.41	3623.15
432.60	3585.70
432.79	3370.37
432.97	3510.80
433.16	3597.40
433.35	3655.92
433.54	3522.51
433.72	3623.15
433.91	3655.92
434.10	3665.28
434.28	3665.28
434.47	3871.25
434.66	3791.67
434.85	3763.58
435.03	3761.24
435.22	3976.57
435.41	4315.95
435.59	4250.41
435.78	4051.47
435.97	4084.23
436.16	3871.25
436.34	3906.35
436.53	3955.51
436.72	3983.59
436.90	3819.75
437.09	3850.18
437.28	3838.48
437.46	3953.16
437.65	4021.04
437.84	3964.87
438.02	3999.98
438.21	3950.82
438.40	4100.62
438.58	4299.56
438.77	4229.35
438.96	4219.99
439.14	4299.56
439.33	4243.39
439.52	4430.63
439.70	4325.31
439.89	4421.27
440.08	4512.55
440.26	4400.21
440.45	4397.87
440.63	4444.68
440.82	4645.96
441.01	4514.89
441.19	4730.22
441.38	4741.93
441.57	4760.65
441.75	4753.63
441.94	4765.33
442.12	4758.31
442.31	4919.81
442.50	4678.73
442.68	4685.75
442.87	4652.98
443.05	4753.63
443.24	4954.91
443.43	4940.87
443.61	5034.49
443.80	5041.51
443.98	4915.12
444.17	4788.74
444.35	4873.00
444.54	5107.05
444.73	5050.88
444.91	5184.29
445.10	5039.17
445.28	5109.39
445.47	5004.07
445.65	4983.00
445.84	4999.38
446.02	5015.77
446.21	5022.79
446.39	5018.11
446.58	5135.14
446.77	5172.58
446.95	5060.24
447.14	4990.02
447.32	5212.37
447.51	5149.18
447.69	5252.16
447.88	5093.01
448.06	5273.23
448.25	5153.86
448.43	5343.44
448.62	5324.72
448.80	5104.71
448.99	5221.74
449.17	5401.96
449.36	5205.35
449.54	5336.42
449.73	5490.90
449.91	5432.38
450.10	5416.00
450.28	5680.48
450.46	5507.28
450.65	5465.15
450.83	5708.57
451.02	5533.03
451.20	5593.88
451.39	5518.98
451.57	5467.49
451.76	5448.77
451.94	5563.45
452.13	5568.13
452.31	5556.43
452.49	5643.03
452.68	5640.69
452.86	5547.07
453.05	5738.99
453.23	5900.49
453.42	5626.65
453.60	5619.63
453.78	5727.29
453.97	5621.97
454.15	5968.37
454.34	5605.58
454.52	5954.32
454.70	5884.11
454.89	5935.60
455.07	5825.59
455.26	5851.34
455.44	5940.28
455.62	6019.86
455.81	6146.25
455.99	5942.62
456.17	6127.52
456.36	6029.22
456.54	6092.41
456.73	6230.51
456.91	6204.76
457.09	6174.33
457.28	6272.64
457.46	6169.65
457.64	6277.32
457.83	6305.40
458.01	6272.64
458.19	6417.75
458.38	6338.17
458.56	6396.68
458.74	6431.79
458.93	6452.86
459.11	6399.02
459.29	6679.89
459.48	6427.11
459.66	6450.52
459.84	6506.69
460.03	6803.94
460.21	6546.48
460.39	6810.96
460.57	6626.06
460.76	6562.86
460.94	6801.60
461.12	6679.89
461.31	6684.57
461.49	6722.02
461.67	6722.02
461.85	6904.58
462.04	6939.69
462.22	7337.58
462.40	6902.24
462.59	6981.82
462.77	7016.93
462.95	7005.22
463.13	7096.50
463.32	6864.79
463.50	7112.89
463.68	7021.61
463.86	7094.16
464.05	7054.37
464.23	7040.33
464.41	7232.26
464.59	6935.01
464.78	7185.44
464.96	7143.32
465.14	7269.70
465.32	7222.89
465.50	7171.40
465.69	7433.54
465.87	7311.83
466.05	7155.02
466.23	7311.83
466.41	7375.03
466.60	7463.97
466.78	7389.07
466.96	7368.01
467.14	7346.94
467.32	7410.14
467.51	7564.61
467.69	7447.58
467.87	7349.28
468.05	7503.76
468.23	7522.48
468.41	7447.58
468.60	7894.63
468.78	7875.90
468.96	7541.21
469.14	7620.78
469.32	7857.18
469.50	7576.31
469.69	7939.10
469.87	7969.52
470.05	8028.04
470.23	7793.98
470.41	7723.77
470.59	7920.37
470.77	7843.14
470.95	7939.10
471.14	8107.62
471.32	7826.75
471.50	8166.13
471.68	8116.98
471.86	8154.43
472.04	8138.04
472.22	8360.39
472.40	8327.63
472.58	8528.91
472.77	8109.96
472.95	8421.25
473.13	8720.84
473.31	8526.57
473.49	8341.67
473.67	8641.26
473.85	8741.90
474.03	8659.98
474.21	8615.51
474.39	8835.52
474.57	8929.14
474.75	8947.87
474.93	8847.22
475.12	8938.51
475.30	8926.80
475.48	8999.36
475.66	9146.81
475.84	8959.57
476.02	9289.59
476.20	9181.92
476.38	9338.74
476.56	9577.47
476.74	9722.59
476.92	9537.68
477.10	9525.98
477.28	9816.21
477.46	9734.29
477.64	9802.16
477.82	9795.14
478.00	10078.35
478.18	10171.97
478.36	10209.42
478.54	10335.81
478.72	10237.50
478.90	10303.04
479.08	10394.32
479.26	10572.20
479.44	10677.52
479.62	10731.36
479.80	10757.10
479.98	10902.22
480.16	11012.22
480.34	10906.90
480.52	11115.20
480.70	11454.58
480.88	10920.94
481.06	11157.33
481.24	11119.89
481.41	11447.56
481.59	11721.40
481.77	11747.15
481.95	11667.57
482.13	11737.79
482.31	11815.02
482.49	12152.06
482.67	12224.62
482.85	12266.75
483.03	12339.30
483.21	12409.52
483.39	12608.47
483.57	12336.96
483.74	12538.25
483.92	12674.00
484.10	12248.02
484.28	12994.65
484.46	13128.06
484.64	13118.70
484.82	13022.74
485.00	13350.42
485.18	13451.06
485.35	13720.22
485.53	13610.22
485.71	14022.15
485.89	14019.81
486.07	13839.59
486.25	13851.29
486.43	14256.20
486.61	14427.06
486.78	14391.95
486.96	14328.76
487.14	14867.08
487.32	14523.02
487.50	14684.52
487.68	14920.92
487.85	15276.68
488.03	15108.16
488.21	15449.88
488.39	15592.65
488.57	15597.33
488.75	15534.14
488.92	15899.26
489.10	16123.95
489.28	15988.20
489.46	16367.37
489.64	16379.07
489.81	16563.97
489.99	16442.26
490.17	16517.16
490.35	16681.00
490.53	17006.33
490.70	17118.68
490.88	17109.32
491.06	17355.07
491.24	17109.32
491.41	17352.73
491.59	17631.26
491.77	17584.44
491.95	17963.61
492.13	17972.97
492.30	17898.08
492.48	17872.33
492.66	18434.06
492.84	18249.16
493.01	18317.03
493.19	18150.85
493.37	18497.25
493.54	18588.53
493.72	19007.49
493.90	18705.56
494.08	18710.24
494.25	19330.48
494.43	19344.53
494.61	19278.99
494.79	19353.89
494.96	19552.84
495.14	19335.17
495.32	19583.26
495.49	19810.29
495.67	20070.09
495.85	20315.85
496.02	20063.07
496.20	20264.36
496.38	20421.17
496.55	20339.26
496.73	20989.92
496.91	20568.63
497.09	20786.30
497.26	20917.37
497.44	21139.72
497.62	21362.07
497.79	21195.89
497.97	21233.34
498.14	21329.30
498.32	21769.32
498.50	21593.78
498.67	21879.33
498.85	22031.46
499.03	21750.60
499.20	21900.39
499.38	22001.04
499.56	21893.37
499.73	22417.65
499.91	22698.52
500.08	22658.73
500.26	22419.99
500.44	22689.15
500.61	22478.50
500.79	22380.20
500.97	22916.19
501.14	23061.30
501.32	23150.24
501.49	23335.14
501.67	23300.03
501.84	23227.48
502.02	23136.20
502.20	23187.69
502.37	23449.83
502.55	23632.39
502.72	23644.09
502.90	23800.91
503.07	23721.33
503.25	23934.32
503.43	23716.65
503.60	24030.28
503.78	24402.43
503.95	24121.56
504.13	24357.96
504.30	24177.73
504.48	24538.18
504.65	24664.57
504.83	24641.16
505.01	24680.95
505.18	24812.02
505.36	24933.73
505.53	24683.29
505.71	24980.54
505.88	25039.05
506.06	24947.77
506.23	25338.64
506.41	25214.59
506.58	25348.00
506.76	25621.84
506.93	25483.75
507.11	25383.11
507.28	25584.40
507.46	25280.13
507.63	25771.64
507.81	26078.25
507.98	25872.28
508.16	26026.76
508.33	25977.61
508.50	25982.29
508.68	26508.91
508.85	26295.92
509.03	26197.62
509.20	26410.60
509.38	26869.35
509.55	26700.83
509.73	26981.70
509.90	27283.62
510.08	26824.88
510.25	26808.50
510.42	27505.98
510.60	27227.45
510.77	27335.12
510.95	27580.87
511.12	27438.10
511.30	27281.28
511.47	27456.82
511.64	27627.68
511.82	28166.01
511.99	27707.26
512.17	27880.46
512.34	27934.29
512.51	28142.60
512.69	28063.02
512.86	27880.46
513.04	28376.66
513.21	28620.07
513.38	28737.10
513.56	28608.37
513.73	28566.24
513.90	28779.23
514.08	28634.11
514.25	28479.64
514.43	28823.70
514.60	28617.73
514.77	28858.81
514.95	29216.91
515.12	28828.38
515.29	28830.72
515.47	29273.08
515.64	29249.67
515.81	29244.99
515.99	29366.70
516.16	29689.70
516.33	29837.15
516.51	29336.27
516.68	29450.96
516.85	29631.18
517.03	30216.32
517.20	30387.18
517.37	30122.69
517.54	29942.47
517.72	29827.79
517.89	30277.17
518.06	30345.05
518.24	30438.67
518.41	30221.00
518.58	30380.15
518.75	30356.75
518.93	30951.24
519.10	30541.65
519.27	30993.37
519.45	30464.41
519.62	30848.26
519.79	30520.59
519.96	30536.97
520.14	31208.70
520.31	30841.24
520.48	31477.86
520.65	30904.43
520.83	31477.86
521.00	31557.44
521.17	31477.86
521.34	31634.68
521.52	31700.22
521.69	31744.69
521.86	31929.59
522.03	31978.74
522.20	31992.78
522.38	32212.79
522.55	31831.29
522.72	32140.24
522.89	31962.36
523.07	32053.64
523.24	32374.29
523.41	32992.19
523.58	31983.42
523.75	32378.97
523.92	32395.35
524.10	32552.17
524.27	32683.24
524.44	32734.73
524.61	32891.55
524.78	32889.21
524.96	33013.26
525.13	33106.88
525.30	32870.48
525.47	33158.37
525.64	33207.52
525.81	33390.08
525.98	33434.55
526.16	33223.90
526.33	33291.78
526.50	33418.17
526.67	33514.13
526.84	33127.94
527.01	33315.19
527.18	33301.14
527.36	34068.84
527.53	34143.74
527.70	34230.33
527.87	34499.50
528.04	33881.60
528.21	34141.39
528.38	33993.94
528.55	34284.17
528.72	34328.64
528.89	34476.09
529.07	34389.49
529.24	34338.00
529.41	34763.98
529.58	34033.73
529.75	34295.87
529.92	34555.67
530.09	34696.10
530.26	34689.08
530.43	34993.35
530.60	34909.09
530.77	34630.57
530.94	35110.38
531.11	34686.74
531.28	34775.68
531.46	34738.23
531.63	35253.15
531.80	35257.83
531.97	35381.88
532.14	35398.26
532.31	35035.48
532.48	35136.12
532.65	35573.80
532.82	35302.30
532.99	35339.75
533.16	35524.65
533.33	35377.20
533.50	35777.43
533.67	35732.96
533.84	35852.33
534.01	35859.35
534.18	35257.83
534.35	36032.55
534.52	35681.47
534.69	35789.13
534.86	36091.06
535.03	36383.63
535.20	36133.19
535.37	36182.34
535.54	36299.37
535.71	36238.51
535.88	36421.08
536.05	36285.33
536.22	36746.41
536.38	36598.96
536.55	36577.89
536.72	36755.77
536.89	36685.56
537.06	36521.72
537.23	36245.54
537.40	36861.10
537.57	36659.81
537.74	36886.84
537.91	37659.22
538.08	37282.39
538.25	37111.53
538.42	37022.59
538.59	37495.38
538.75	37010.89
538.92	36734.71
539.09	37256.65
539.26	37361.97
539.43	37420.48
539.60	37486.02
539.77	37900.29
539.94	37902.64
540.11	37558.58
540.28	37577.30
540.44	37848.80
540.61	37427.51
540.78	37596.03
540.95	38199.88
541.12	38150.73
541.29	38394.15
541.46	38281.80
541.62	37881.57
541.79	38370.74
541.96	37743.48
542.13	37624.11
542.30	38337.98
542.47	38244.35
542.63	38579.05
542.80	39023.75
542.97	38904.38
543.14	38897.36
543.31	38745.23
543.48	38565.01
543.64	38815.44
543.81	38918.43
543.98	39173.55
544.15	39313.98
544.32	39349.09
544.48	39271.85
544.65	39126.74
544.82	39215.68
544.99	38562.67
545.16	38738.21
545.32	39229.72
545.49	39732.93
545.66	40561.48
545.83	40243.17
546.00	40559.14
546.16	40179.98
546.33	39489.52
546.50	39313.98
546.67	39880.39
546.83	39208.65
547.00	39302.28
547.17	39377.17
547.34	39737.62
547.50	39704.85
547.67	40114.44
547.84	39952.94
548.00	39821.87
548.17	40091.04
548.34	39782.09
548.51	39838.26
548.67	39899.11
548.84	40142.53
549.01	40285.30
549.18	40229.13
549.34	40229.13
549.51	39487.18
549.68	40240.83
549.84	40151.89
550.01	40561.48
550.18	39913.16
550.34	40582.55
550.51	40411.69
550.68	40222.11
550.84	40006.78
551.01	39732.93
551.18	40168.27
551.34	40041.88
551.51	40133.17
551.68	40257.21
551.84	40421.05
552.01	40638.72
552.18	40776.81
552.34	40458.50
552.51	41050.66
552.68	40474.88
552.84	40610.64
553.01	40671.49
553.18	40435.10
553.34	40804.90
553.51	40507.65
553.67	41160.66
553.84	40879.80
554.01	40924.27
554.17	40973.42
554.34	40809.58
554.51	41015.55
554.67	41383.01
554.84	41088.10
555.00	40802.56
555.17	40931.29
555.33	41060.02
555.50	40879.80
555.67	41364.29
555.83	41434.50
556.00	41008.53
556.16	41670.90
556.33	41036.61
556.50	41179.39
556.66	41509.40
556.83	41448.55
556.99	41614.72
557.16	41443.87
557.32	41565.57
557.49	41331.52
557.65	41340.88
557.82	41572.60
557.98	41476.63
558.15	41570.25
558.32	41598.34
558.48	41172.36
558.65	41448.55
558.81	41750.48
558.98	41806.65
559.14	42181.13
559.31	41497.70
559.47	41455.57
559.64	42110.92
559.80	41738.77
559.97	42094.53
560.13	41631.11
560.30	42059.43
560.46	42522.85
560.63	41909.63
560.79	42085.17
560.96	42064.11
561.12	41958.78
561.29	41928.36
561.45	41488.34
561.61	41933.04
561.78	42302.84
561.94	42096.88
562.11	42457.32
562.27	42316.89
562.44	42403.49
562.60	42218.58
562.77	42197.52
562.93	41865.16
563.10	42447.96
563.26	41785.58
563.42	42445.62
563.59	42380.08
563.75	42792.01
563.92	42567.32
564.08	42188.16
564.24	41888.57
564.41	42031.34
564.57	42080.49
564.74	42256.03
564.90	42471.36
565.07	42391.78
565.23	42733.50
565.39	42171.77
565.56	42354.33
565.72	42590.73
565.88	42396.46
566.05	42272.42
566.21	42258.37
566.38	42080.49
566.54	42590.73
566.70	42667.97
566.87	42780.31
567.03	42433.91
567.19	43044.79
567.36	42391.78
567.52	42581.37
567.68	42766.27
567.85	42773.29
568.01	42564.98
568.17	42696.05
568.34	42939.47
568.50	42838.83
568.66	42843.51
568.83	42651.58
568.99	42689.03
569.15	42740.52
569.32	42742.86
569.48	42773.29
569.64	42698.39
569.81	42775.63
569.97	42735.84
570.13	43360.76
570.30	42656.26
570.46	42965.21
570.62	42843.51
570.78	42389.44
570.95	42305.18
571.11	42841.17
571.27	42822.44
571.43	42700.73
571.60	43098.62
571.76	42920.74
571.92	43377.15
572.09	43592.48
572.25	43096.28
572.41	42576.69
572.57	43150.12
572.74	43325.66
572.90	42754.57
573.06	42890.32
573.22	43021.39
573.38	42916.06
573.55	42857.55
573.71	43571.41
573.87	43318.64
574.03	43023.73
574.20	42873.93
574.36	42794.36
574.52	43391.19
574.68	42831.80
574.84	43374.81
575.01	43248.42
575.17	42897.34
575.33	43208.63
575.49	43107.99
575.65	43428.64
575.82	43316.29
575.98	43044.79
576.14	43777.38
576.30	43452.05
576.46	43557.37
576.62	42834.14
576.79	43306.93
576.95	43035.43
577.11	43618.22
577.27	43194.59
577.43	43082.24
577.59	43435.66
577.75	43241.40
577.92	43428.64
578.08	43000.32
578.24	42983.94
578.40	42937.13
578.56	42895.00
578.72	43143.09
578.88	43903.77
579.04	43496.52
579.21	43461.41
579.37	43922.49
579.53	44147.18
579.69	43456.73
579.85	43386.51
580.01	42993.30
580.17	43430.98
580.33	43349.06
580.49	43318.64
580.65	43402.89
580.82	43548.01
580.98	43658.01
581.14	43456.73
581.30	43737.59
581.46	42974.58
581.62	43344.38
581.78	43320.98
581.94	43459.07
582.10	43885.04
582.26	43763.34
582.42	43622.90
582.58	43765.68
582.74	43412.26
582.90	43791.42
583.06	44023.14
583.22	43070.54
583.38	43398.21
583.54	43824.19
583.70	43590.14
583.86	43246.08
584.02	43346.72
584.18	43529.28
584.34	43786.74
584.50	44151.87
584.66	43463.75
584.82	43416.94
584.98	43243.74
585.14	43573.75
585.30	43112.67
585.46	43536.30
585.62	43257.78
585.78	43498.86
585.94	43606.52
586.10	43686.10
586.26	43473.11
586.42	43531.62
586.58	43566.73
586.74	43611.20
586.90	43704.82
587.06	43999.73
587.22	43648.65
587.38	43379.49
587.54	44151.87
587.70	44037.18
587.86	43634.61
588.02	43948.24
588.18	44201.02
588.34	43658.01
588.49	43632.27
588.65	43693.12
588.81	43536.30
588.97	43810.15
589.13	43658.01
589.29	43901.43
589.45	43838.23
589.61	43931.86
589.77	44053.56
589.93	44320.38
590.08	43941.22
590.24	44240.81
590.40	44229.10
590.56	44313.36
590.72	44107.40
590.88	43601.84
591.04	43587.80
591.20	44339.11
591.35	44444.43
591.51	44622.31
591.67	44170.59
591.83	44399.96
591.99	43978.67
592.15	44189.31
592.31	43985.69
592.46	43292.89
592.62	43618.22
592.78	43955.26
592.94	43491.83
593.10	43842.92
593.26	44264.21
593.41	44100.37
593.57	44423.37
593.73	44229.10
593.89	44189.31
594.05	44294.64
594.20	43943.56
594.36	43899.09
594.52	43784.40
594.68	43718.87
594.84	43856.96
594.99	44341.45
595.15	44315.70
595.31	44245.49
595.47	44528.69
595.62	44318.04
595.78	44266.55
595.94	44355.49
596.10	44381.24
596.25	44203.36
596.41	43744.61
596.57	43873.34
596.73	43868.66
596.88	44198.68
597.04	44376.56
597.20	44245.49
597.36	44610.61
597.51	44811.90
597.67	44336.77
597.83	43955.26
597.99	44643.38
598.14	44100.37
598.30	44502.95
598.46	44240.81
598.61	43908.45
598.77	43962.28
598.93	44004.41
599.09	44425.71
599.24	44797.85
599.40	44406.98
599.56	44566.14
599.71	44301.66
599.87	44729.98
600.03	44465.50
600.18	44341.45
600.34	44514.65
600.50	44566.14
600.65	44247.83
600.81	44554.44
600.97	44832.96
601.12	44713.59
601.28	44666.78
601.44	44161.23
601.59	44275.91
601.75	44402.30
601.91	44451.45
602.06	43866.32
602.22	44296.98
602.37	44184.63
602.53	44334.43
602.69	44392.94
602.84	44109.74
603.00	44369.54
603.16	44755.72
603.31	44584.86
603.47	44493.58
603.62	43856.96
603.78	43938.88
603.94	44238.47
604.09	44154.21
604.25	44142.50
604.40	44039.52
604.56	44395.28
604.71	44519.33
604.87	44079.31
605.03	44296.98
605.18	44605.93
605.34	44172.93
605.49	43803.13
605.65	44385.92
605.80	43924.83
605.96	44112.08
606.12	44236.12
606.27	44519.33
606.43	44184.63
606.58	44341.45
606.74	44287.62
606.89	44453.79
607.05	44107.40
607.20	43959.94
607.36	44095.69
607.51	44589.55
607.67	43440.34
607.82	44032.50
607.98	44406.98
608.13	43796.10
608.29	44011.43
608.44	44315.70
608.60	44105.06
608.75	43990.37
608.91	44299.32
609.06	43962.28
609.22	44318.04
609.37	44044.20
609.53	44470.18
609.68	43744.61
609.84	43791.42
609.99	43849.94
610.15	43952.92
610.30	44140.16
610.46	44163.57
610.61	44884.45
610.76	44744.02
610.92	44495.92
611.07	44949.99
611.23	44947.65
611.38	44428.05
611.54	44474.86
611.69	44147.18
611.84	44456.14
612.00	44079.31
612.15	44072.29
612.31	44135.48
612.46	43746.95
612.62	44205.70
612.77	44458.48
612.92	44835.30
613.08	44191.65
613.23	44065.27
613.39	43700.14
613.54	43875.68
613.69	43854.62
613.85	43688.44
614.00	43328.00
614.15	43702.48
614.31	43854.62
614.46	43908.45
614.62	43784.40
614.77	43433.32
614.92	43908.45
615.08	43931.86
615.23	43753.97
615.38	43648.65
615.54	43065.86
615.69	43466.09
615.84	42988.62
616.00	43019.05
616.15	42993.30
616.30	43454.39
616.46	43426.30
616.61	43000.32
616.76	43374.81
616.92	42883.30
617.07	42993.30
617.22	42721.80
617.37	42904.36
617.53	43086.92
617.68	43597.16
617.83	42777.97
617.99	43068.20
618.14	43318.64
618.29	43304.59
618.45	42810.74
618.60	42710.10
618.75	42490.09
618.90	42862.23
619.06	42967.55
619.21	42698.39
619.36	42792.01
619.51	42239.65
619.67	42429.23
619.82	42321.57
619.97	42920.74
620.12	42768.61
620.28	42417.53
620.43	42878.61
620.58	43475.45
620.73	42841.17
620.89	43070.54
621.04	43079.90
621.19	42787.33
621.34	42955.85
621.49	42897.34
621.65	42607.11
621.80	42845.85
621.95	42209.22
622.10	42618.81
622.25	42410.51
622.41	42204.54
622.56	42714.78
622.71	42520.51
622.86	42621.16
623.01	42670.31
623.16	42466.68
623.32	42054.75
623.47	41968.15
623.62	42174.11
623.77	41897.93
623.92	42302.84
624.07	42232.63
624.23	42354.33
624.38	42204.54
624.53	42040.70
624.68	42085.17
624.83	42141.35
624.98	42429.23
625.13	42073.47
625.29	42693.71
625.44	42078.15
625.59	41947.08
625.74	41572.60
625.89	41713.03
626.04	41422.80
626.19	41495.36
626.34	41614.72
626.49	41710.69
626.65	41635.79
626.80	42089.85
626.95	41741.11
627.10	41773.88
627.25	42043.04
627.40	41308.11
627.55	41661.54
627.70	41588.98
627.85	41640.47
628.00	41628.77
628.15	42134.32
628.30	41476.63
628.45	41588.98
628.60	41677.92
628.76	42050.06
628.91	41729.41
629.06	41289.39
629.21	41343.22
629.36	41446.21
629.51	41546.85
629.66	41581.96
629.81	41151.30
629.96	41289.39
630.11	41364.29
630.26	41144.28
630.41	41546.85
630.56	40938.31
630.71	41240.24
630.86	41212.15
631.01	41053.00
631.16	40959.38
631.31	40776.81
631.46	40634.04
631.61	41146.62
631.76	41074.06
631.91	40844.69
632.06	40699.58
632.21	40559.14
632.36	40891.50
632.51	40879.80
632.66	40861.07
632.81	40849.37
632.96	41027.25
633.10	41085.76
633.25	41265.99
633.40	41308.11
633.55	41268.33
633.70	40907.88
633.85	40470.20
634.00	40189.34
634.15	40563.82
634.30	40404.67
634.45	40629.36
634.60	40495.95
634.75	40795.54
634.90	41099.81
635.05	40907.88
635.19	40521.69
635.34	40514.67
635.49	40570.85
635.64	40502.97
635.79	40898.52
635.94	40011.46
636.09	40266.58
636.24	39915.50
636.39	39791.45
636.53	40210.40
636.68	39992.73
636.83	40161.25
636.98	40414.03
637.13	40224.45
637.28	40212.74
637.43	40105.08
637.57	40016.14
637.72	40053.59
637.87	39927.20
638.02	39971.67
638.17	40027.84
638.32	39861.66
638.46	39611.23
638.61	40105.08
638.76	40016.14
638.91	39613.57
639.06	39428.66
639.20	39786.77
639.35	39817.19
639.50	39533.99
639.65	39889.75
639.80	40013.80
639.94	39859.32
640.09	39782.09
640.24	39945.92
640.39	39431.01
640.54	39131.42
640.68	39161.84
640.83	39384.19
640.98	39356.11
641.13	38705.44
641.27	39288.23
641.42	39119.71
641.57	39421.64
641.72	39814.85
641.86	39381.85
642.01	39161.84
642.16	39374.83
642.31	39117.37
642.45	39150.14
642.60	38993.32
642.75	39056.52
642.90	38782.68
643.04	39138.44
643.19	38827.15
643.34	39026.09
643.48	38719.48
643.63	39459.09
643.78	39019.07
643.93	39332.70
644.07	39529.31
644.22	39374.83
644.37	38895.02
644.51	38916.09
644.66	38841.19
644.81	38511.17
644.95	38778.00
645.10	38796.72
645.25	38946.51
645.39	38787.36
645.54	38955.88
645.69	38766.29
645.83	38775.66
645.98	38909.07
646.13	39096.31
646.27	38925.45
646.42	38696.08
646.57	38829.49
646.71	39084.61
646.86	38557.99
647.00	38644.59
647.15	38925.45
647.30	38335.63
647.44	38506.49
647.59	38698.42
647.74	38012.64
647.88	38464.36
648.03	38312.23
648.17	38391.81
648.32	38225.63
648.47	38363.72
648.61	38417.55
648.76	38471.39
648.90	38361.38
649.05	38321.59
649.20	38284.14
649.34	38124.99
649.49	38546.28
649.63	37851.14
649.78	38562.67
649.92	38155.41
650.07	38768.63
650.21	38204.56
650.36	38602.46
650.51	38426.92
650.65	38525.22
650.80	38335.63
650.94	38469.04
651.09	38583.73
651.23	38265.42
651.38	37801.99
651.52	37549.21
651.67	37949.45
651.81	38583.73
651.96	37682.62
652.10	37399.42
652.25	38206.90
652.39	38225.63
652.54	37984.55
652.68	37923.70
652.83	38249.03
652.97	37811.35
653.12	37701.35
653.26	37621.77
653.41	37546.87
653.55	37406.44
653.70	37614.75
653.84	37357.29
653.99	37258.99
654.13	37940.08
654.27	37827.74
654.42	37708.37
654.56	37443.89
654.71	37542.19
654.85	37338.57
655.00	37755.18
655.14	37532.83
655.29	37165.37
655.43	37516.45
655.57	36921.95
655.72	36914.93
655.86	37493.04
656.01	37043.66
656.15	37221.54
656.30	37085.79
656.44	36737.05
656.58	36748.75
656.73	36980.46
656.87	36804.92
657.01	37514.11
657.16	37144.30
657.30	37490.70
657.45	36973.44
657.59	37305.80
657.73	36833.01
657.88	36896.20
658.02	36678.54
658.16	36926.63
658.31	36973.44
658.45	36968.76
658.60	36615.34
658.74	36825.99
658.88	36732.37
659.03	36346.18
659.17	36463.21
659.31	36978.12
659.46	36465.55
659.60	37064.72
659.74	36870.46
659.89	36573.21
660.03	36495.97
660.17	36893.86
660.32	36442.14
660.46	36346.18
660.60	36149.57
660.74	36451.50
660.89	36381.29
661.03	35615.93
661.17	36041.91
661.32	35695.51
661.46	36465.55
661.60	35990.42
661.74	35463.80
661.89	35931.90
662.03	35810.20
662.17	35922.54
662.31	35796.15
662.46	35871.05
662.60	35908.50
662.74	35435.71
662.88	35644.02
663.03	35604.23
663.17	35065.91
663.31	35379.54
663.45	35718.92
663.60	35274.21
663.74	35318.68
663.88	35433.37
664.02	35248.47
664.17	35775.09
664.31	35398.26
664.45	35360.81
664.59	35548.06
664.73	35145.48
664.88	34941.86
665.02	34763.98
665.16	34550.99
665.30	34464.39
665.44	34689.08
665.59	34562.69
665.73	35049.52
665.87	34438.64
666.01	35131.44
666.15	34857.60
666.29	34813.13
666.44	34817.81
666.58	35110.38
666.72	34651.63
666.86	34429.28
667.00	34019.69
667.14	34487.79
667.28	34532.26
667.43	34227.99
667.57	34244.38
667.71	33710.74
667.85	33951.81
667.99	34171.82
668.13	33780.95
668.27	33879.25
668.41	33687.33
668.56	33574.98
668.70	34143.74
668.84	34096.92
668.98	33862.87
669.12	33607.75
669.26	33268.37
669.40	33804.36
669.54	33773.93
669.68	33462.64
669.82	33296.46
669.96	33345.61
670.10	32840.06
670.25	33418.17
670.39	33205.18
670.53	33198.16
670.67	32465.57
670.81	33172.41
670.95	32669.20
671.09	33298.80
671.23	32774.52
671.37	32795.59
671.51	33149.01
671.65	32795.59
671.79	32339.18
671.93	32554.51
672.07	32886.87
672.21	33015.60
672.35	32175.34
672.49	32507.70
672.63	32507.70
672.77	32168.32
672.91	32243.22
673.05	32535.79
673.19	32208.11
673.33	31941.29
673.47	32247.90
673.61	31784.48
673.75	32584.94
673.89	32163.64
674.03	32156.62
674.17	31880.44
674.31	31854.69
674.45	31241.47
674.59	31571.49
674.73	31419.35
674.87	31557.44
675.01	31648.72
675.15	31494.25
675.29	31744.69
675.43	31398.29
675.56	31138.49
675.70	31344.45
675.84	31189.98
675.98	30085.25
676.12	31124.44
676.26	31227.43
676.40	30628.25
676.54	30387.18
676.68	30160.14
676.82	29696.72
676.96	29951.84
677.10	30103.97
677.23	29977.58
677.37	29865.24
677.51	30017.37
677.65	30005.67
677.79	29656.93
677.93	29820.77
678.07	30024.39
678.21	29502.45
678.34	29600.76
678.48	29481.39
678.62	29645.23
678.76	29708.42
678.90	29228.61
679.04	28610.71
679.18	29057.75
679.31	29329.25
679.45	28788.59
679.59	28730.08
679.73	28730.08
679.87	28472.62
680.00	28645.82
680.14	28463.25
680.28	28276.01
680.42	28318.14
680.56	28315.80
680.70	28112.17
680.83	27784.50
680.97	28032.60
681.11	28259.63
681.25	27934.29
681.39	28208.14
681.52	27850.03
681.66	27887.48
681.80	27641.73
681.94	27000.42
682.07	27601.94
682.21	27033.19
682.35	27070.64
682.49	27435.76
682.62	27082.34
682.76	27150.21
682.90	26977.01
683.04	27061.27
683.17	27150.21
683.31	27290.65
683.45	26904.46
683.59	26951.27
683.72	26764.03
683.86	26630.62
684.00	26583.80
684.13	26719.56
684.27	26375.50
684.41	26466.78
684.55	25872.28
684.68	25898.03
684.82	25916.75
684.96	25205.23
685.09	25319.92
685.23	25277.79
685.37	25429.92
685.50	25420.56
685.64	25706.10
685.78	25507.16
685.91	25399.49
686.05	25137.35
686.19	24905.64
686.32	25064.80
686.46	24685.63
686.60	24704.35
686.73	24994.58
686.87	24929.05
687.01	24521.79
687.14	24437.53
687.28	24629.46
687.42	24243.27
687.55	24482.00
687.69	24353.27
687.82	23906.23
687.96	24081.77
688.10	24271.36
688.23	24336.89
688.37	23836.02
688.50	23906.23
688.64	23756.44
688.78	23817.29
688.91	23431.10
689.05	23585.58
689.18	23491.96
689.32	22803.84
689.46	23075.34
689.59	23152.58
689.73	23122.15
689.86	23091.73
690.00	22965.34
690.13	22845.97
690.27	22415.31
690.41	22621.28
690.54	22469.14
690.68	22410.63
690.81	22820.22
690.95	22845.97
691.08	22471.48
691.22	22256.15
691.35	22061.89
691.49	22214.02
691.62	21816.13
691.76	21888.69
691.89	21806.77
692.03	21568.04
692.16	21516.54
692.30	21465.05
692.43	21535.27
692.57	21181.85
692.70	21490.80
692.84	21198.23
692.97	21305.90
693.11	21460.37
693.24	21352.71
693.38	21085.89
693.51	21226.32
693.65	21050.78
693.78	20833.11
693.92	20622.46
694.05	20446.92
694.19	20517.14
694.32	20315.85
694.45	20435.22
694.59	20128.61
694.72	20198.82
694.86	20112.22
694.99	20088.82
695.13	20161.37
695.26	20299.47
695.39	19702.63
695.53	19627.73
695.66	19932.00
695.80	19859.45
695.93	19531.77
696.07	19590.28
696.20	19477.94
696.33	19459.21
696.47	19328.14
696.60	19351.55
696.73	19171.33
696.87	19494.32
697.00	18822.59
697.14	18845.99
697.27	18651.73
697.40	18420.02
697.54	18560.45
697.67	18518.32
697.80	18122.77
697.94	18317.03
698.07	18157.88
698.21	18197.67
698.34	18499.59
698.47	18207.03
698.61	18078.30
698.74	18036.17
698.87	18122.77
699.01	18017.44
699.14	17947.23
699.27	17607.85
699.40	17823.18
699.54	17476.78
699.67	17167.83
699.80	17224.00
699.94	17233.36
700.07	17266.13
700.20	17312.94
700.34	16957.18
700.47	16755.90
700.60	16889.31
700.73	17001.65
700.87	16987.61
701.00	16608.44
701.13	17001.65
701.26	16936.12
701.40	16587.38
701.53	16657.59
701.66	16512.48
701.79	16369.71
701.93	16278.43
702.06	16416.52
702.19	16187.14
702.32	16425.88
702.46	16006.92
702.59	15583.29
702.72	15899.26
702.85	15910.96
702.99	15892.24
703.12	15843.09
703.25	15775.21
703.38	15679.25
703.51	15641.80
703.65	15552.86
703.78	15468.60
703.91	15096.46
704.04	15197.10
704.17	15220.50
704.31	15335.19
704.44	15112.84
704.57	15159.65
704.70	14693.88
704.83	14747.72
704.96	14663.46
705.10	14626.01
705.23	14684.52
>>>>>End Processed Spectral Data<<<<<
