SpectraSuite Data File
++++++++++++++++++++++++++++++++++++
Date: Fri Oct 04 11:39:24 GMT-05:00 2013
User: price-jones
Dark Spectrum Present: No
Reference Spectrum Present: No
Number of Sampled Component Spectra: 1
Spectrometers: USB2+H05261
Integration Time (usec): 100000 (USB2+H05261)
Spectra Averaged: 1 (USB2+H05261)
Boxcar Smoothing: 0 (USB2+H05261)
Correct for Electrical Dark: No (USB2+H05261)
Strobe/Lamp Enabled: No (USB2+H05261)
Correct for Detector Non-linearity: No (USB2+H05261)
Correct for Stray Light: No (USB2+H05261)
Number of Pixels in Processed Spectrum: 2048
>>>>>Begin Processed Spectral Data<<<<<
365.73	32.77
365.92	32.77
366.12	32.77
366.32	0.00
366.52	0.00
366.72	23.41
366.91	0.00
367.11	0.00
367.31	0.00
367.51	0.00
367.70	0.00
367.90	21.06
368.10	0.00
368.30	0.00
368.49	0.00
368.69	0.00
368.89	0.00
369.09	0.00
369.28	91.28
369.48	0.00
369.68	0.00
369.87	9.36
370.07	11.70
370.27	0.00
370.47	100.64
370.66	210.65
370.86	266.82
371.06	287.89
371.25	311.29
371.45	301.93
371.65	276.18
371.84	287.89
372.04	236.39
372.24	379.17
372.44	308.95
372.63	320.65
372.83	360.44
373.03	397.89
373.22	292.57
373.42	297.25
373.62	269.16
373.81	313.63
374.01	325.33
374.21	320.65
374.40	360.44
374.60	376.83
374.79	379.17
374.99	346.40
375.19	400.23
375.38	367.46
375.58	367.46
375.78	411.93
375.97	386.19
376.17	451.72
376.37	479.81
376.56	402.57
376.76	388.53
376.95	362.78
377.15	437.68
377.35	409.59
377.54	337.04
377.74	390.87
377.93	327.68
378.13	440.02
378.33	418.96
378.52	358.10
378.72	414.27
378.91	414.27
379.11	393.21
379.31	395.55
379.50	358.10
379.70	376.83
379.89	444.70
380.09	458.74
380.28	414.27
380.48	458.74
380.68	383.85
380.87	344.06
381.07	479.81
381.26	463.43
381.46	498.53
381.65	397.89
381.85	463.43
382.04	528.96
382.24	444.70
382.43	397.89
382.63	498.53
382.83	440.02
383.02	503.22
383.22	437.68
383.41	421.30
383.61	505.56
383.80	498.53
384.00	465.77
384.19	440.02
384.39	458.74
384.58	475.13
384.78	430.66
384.97	564.07
385.17	505.56
385.36	454.06
385.56	566.41
385.75	430.66
385.95	524.28
386.14	552.37
386.34	472.79
386.53	552.37
386.72	479.81
386.92	603.86
387.11	596.84
387.31	554.71
387.50	528.96
387.70	456.40
387.89	552.37
388.09	554.71
388.28	559.39
388.48	521.94
388.67	575.77
388.86	620.24
389.06	564.07
389.25	559.39
389.45	606.20
389.64	550.03
389.84	601.52
390.03	582.79
390.22	594.50
390.42	613.22
390.61	533.64
390.81	575.77
391.00	571.09
391.19	606.20
391.39	657.69
391.58	615.56
391.78	571.09
391.97	606.20
392.16	674.07
392.36	706.84
392.55	727.91
392.75	695.14
392.94	690.46
393.13	674.07
393.33	608.54
393.52	664.71
393.71	786.42
393.91	732.59
394.10	692.80
394.29	692.80
394.49	664.71
394.68	802.80
394.88	791.10
395.07	720.88
395.26	774.72
395.46	777.06
395.65	755.99
395.84	800.46
396.04	840.25
396.23	802.80
396.42	709.18
396.62	835.57
396.81	812.17
397.00	844.93
397.19	800.46
397.39	858.98
397.58	968.98
397.77	947.92
397.97	933.87
398.16	889.40
398.35	849.61
398.55	861.32
398.74	915.15
398.93	889.40
399.12	844.93
399.32	976.00
399.51	954.94
399.70	994.73
399.90	912.81
400.09	917.49
400.28	1074.31
400.47	1043.88
400.67	978.34
400.86	959.62
401.05	1048.56
401.24	976.00
401.44	1022.81
401.63	1046.22
401.82	1083.67
402.01	1156.22
402.21	1135.16
402.40	1151.54
402.59	1149.20
402.78	1095.37
402.97	1188.99
403.17	1039.20
403.36	1132.82
403.55	1188.99
403.74	1149.20
403.93	1247.51
404.13	1308.36
404.32	1181.97
404.51	1289.64
404.70	1320.06
404.89	1343.47
405.09	1320.06
405.28	1359.85
405.47	1322.40
405.66	1261.55
405.85	1240.48
406.05	1263.89
406.24	1336.45
406.43	1423.05
406.62	1317.72
406.81	1460.49
407.00	1409.00
407.20	1401.98
407.39	1458.15
407.58	1439.43
407.77	1612.63
407.96	1441.77
408.15	1509.65
408.34	1448.79
408.54	1511.99
408.73	1549.43
408.92	1586.88
409.11	1589.22
409.30	1657.10
409.49	1650.08
409.68	1600.93
409.87	1584.54
410.07	1629.01
410.26	1710.93
410.45	1778.81
410.64	1741.36
410.83	1898.17
411.02	1734.34
411.21	1834.98
411.40	1933.28
411.59	1827.96
411.78	1842.00
411.98	1816.26
412.17	1849.02
412.36	1895.83
412.55	1977.75
412.74	1888.81
412.93	2029.24
413.12	2008.18
413.31	2090.10
413.50	2057.33
413.69	2090.10
413.88	2204.78
414.07	2139.25
414.26	2122.87
414.45	2073.71
414.64	2186.06
414.83	2275.00
415.02	2253.94
415.22	2284.36
415.41	2366.28
415.60	2317.13
415.79	2305.43
415.98	2324.15
416.17	2394.37
416.36	2370.96
416.55	2469.27
416.74	2424.80
416.93	2471.61
417.12	2607.36
417.31	2576.93
417.50	2532.46
417.69	2609.70
417.88	2792.26
418.07	2705.66
418.26	2750.13
418.45	2630.76
418.64	2703.32
418.83	2808.64
419.02	2644.81
419.21	2745.45
419.39	2794.60
419.58	2761.83
419.77	2719.70
419.96	2789.92
420.15	2827.37
420.34	2857.79
420.53	2803.96
420.72	2892.90
420.91	2988.86
421.10	3000.57
421.29	3012.27
421.48	2876.52
421.67	3073.12
421.86	2979.50
422.05	3061.42
422.24	2974.82
422.43	3091.85
422.61	2923.33
422.80	3131.64
422.99	3103.55
423.18	3009.93
423.37	3190.15
423.56	3098.87
423.75	3073.12
423.94	3089.51
424.13	2958.44
424.32	3098.87
424.50	3253.34
424.69	3162.06
424.88	3173.77
425.07	3061.42
425.26	3229.94
425.45	3105.89
425.64	3262.71
425.83	3124.62
426.01	3265.05
426.20	3110.57
426.39	3323.56
426.58	3222.92
426.77	3213.56
426.96	3283.77
427.15	3131.64
427.33	3318.88
427.52	3344.63
427.71	3267.39
427.90	3337.60
428.09	3410.16
428.28	3300.16
428.46	3473.36
428.65	3361.01
428.84	3545.91
429.03	3496.76
429.22	3276.75
429.40	3499.10
429.59	3606.77
429.78	3211.22
429.97	3456.97
430.16	3562.30
430.34	3576.34
430.53	3527.19
430.72	3679.32
430.91	3627.83
431.10	3566.98
431.28	3646.55
431.47	3543.57
431.66	3702.73
431.85	3658.26
432.03	3810.39
432.22	3845.50
432.41	3805.71
432.60	3915.72
432.79	3742.52
432.97	3756.56
433.16	3913.38
433.35	3854.86
433.54	3955.51
433.72	3847.84
433.91	3882.95
434.10	3960.19
434.28	3838.48
434.47	3936.78
434.66	4049.13
434.85	3962.53
435.03	4152.11
435.22	4273.82
435.41	4355.74
435.59	4418.93
435.78	4304.25
435.97	4210.62
436.16	4159.13
436.34	4117.00
436.53	4067.85
436.72	4264.46
436.90	4259.78
437.09	4234.03
437.28	4241.05
437.46	4163.81
437.65	4121.68
437.84	4194.24
438.02	4311.27
438.21	4156.79
438.40	4229.35
438.58	4341.69
438.77	4402.55
438.96	4414.25
439.14	4486.81
439.33	4561.70
439.52	4552.34
439.70	4760.65
439.89	4526.60
440.08	4681.07
440.26	4685.75
440.45	4730.22
440.63	4669.37
440.82	4870.65
441.01	4992.36
441.19	4816.82
441.38	4732.56
441.57	4863.63
441.75	4938.53
441.94	4957.25
442.12	4978.32
442.31	5053.22
442.50	4952.57
442.68	5036.83
442.87	5205.35
443.05	5104.71
443.24	5172.58
443.43	5245.14
443.61	5296.63
443.80	5406.64
443.98	5170.24
444.17	5270.89
444.35	5268.55
444.54	5331.74
444.73	5465.15
444.91	5259.18
445.10	5268.55
445.28	5233.44
445.47	5434.72
445.65	5214.71
445.84	5490.90
446.02	5420.68
446.21	5444.09
446.39	5341.10
446.58	5507.28
446.77	5327.06
446.95	5282.59
447.14	5420.68
447.32	5479.19
447.51	5387.91
447.69	5441.75
447.88	5542.39
448.06	5521.32
448.25	5495.58
448.43	5408.98
448.62	5462.81
448.80	5479.19
448.99	5586.86
449.17	5511.96
449.36	5528.35
449.54	5687.50
449.73	5706.23
449.91	5703.89
450.10	5809.21
450.28	5968.37
450.46	5708.57
450.65	5778.78
450.83	5783.46
451.02	5582.18
451.20	6099.44
451.39	5818.57
451.57	5921.56
451.76	5881.77
451.94	5898.15
452.13	6146.25
452.31	5891.13
452.49	5898.15
452.68	6022.20
452.86	5942.62
453.05	6125.18
453.23	6127.52
453.42	5947.30
453.60	5926.24
453.78	5956.66
453.97	6080.71
454.15	6258.59
454.34	6134.54
454.52	6169.65
454.70	6286.68
454.89	6342.85
455.07	6251.57
455.26	6139.23
455.44	6155.61
455.62	6342.85
455.81	6464.56
455.99	6333.49
456.17	6487.96
456.36	6356.90
456.54	6530.09
456.73	6663.51
456.91	6586.27
457.09	6597.97
457.28	6794.58
457.46	6420.09
457.64	6750.10
457.83	6752.45
458.01	6583.93
458.19	6801.60
458.38	6600.31
458.56	6752.45
458.74	6899.90
458.93	6841.39
459.11	6843.73
459.29	6860.11
459.48	6918.62
459.66	6881.18
459.84	6956.07
460.03	6977.14
460.21	6967.77
460.39	7094.16
460.57	7126.93
460.76	7066.08
460.94	7117.57
461.12	7033.31
461.31	7052.03
461.49	7091.82
461.67	7234.60
461.85	7269.70
462.04	7323.54
462.22	7667.60
462.40	7187.79
462.59	7389.07
462.77	7454.61
462.95	7194.81
463.13	7349.28
463.32	7449.93
463.50	7435.88
463.68	7559.93
463.86	7557.59
464.05	7314.17
464.23	7452.27
464.41	7644.19
464.59	7337.58
464.78	7737.81
464.96	7658.23
465.14	7410.14
465.32	7571.63
465.50	7702.70
465.69	7758.88
465.87	7592.70
466.05	7768.24
466.23	7599.72
466.41	7667.60
466.60	8173.15
466.78	7653.55
466.96	7508.44
467.14	7831.43
467.32	7852.50
467.51	7847.82
467.69	7812.71
467.87	7857.18
468.05	8046.76
468.23	7871.22
468.41	7946.12
468.60	8086.55
468.78	8056.12
468.96	7957.82
469.14	8205.92
469.32	8217.62
469.50	7882.92
469.69	8334.65
469.87	8374.44
470.05	8327.63
470.23	8435.29
470.41	8390.82
470.59	8444.65
470.77	8306.56
470.95	8451.67
471.14	8704.45
471.32	8329.97
471.50	8737.22
471.68	8645.94
471.86	8613.17
472.04	8688.07
472.22	8772.33
472.40	8720.84
472.58	8727.86
472.77	8655.30
472.95	8760.63
473.13	9228.73
473.31	8940.85
473.49	9029.79
473.67	8997.02
473.85	9153.84
474.03	9282.56
474.21	9322.35
474.39	9352.78
474.57	9376.19
474.75	9441.72
474.93	9628.96
475.12	9277.88
475.30	9460.45
475.48	9572.79
475.66	9748.33
475.84	9626.62
476.02	9724.93
476.20	9745.99
476.38	9891.10
476.56	10043.24
476.74	10031.54
476.92	9909.83
477.10	9991.75
477.28	10092.39
477.46	10253.89
477.64	10366.23
477.82	10303.04
478.00	10492.62
478.18	10846.04
478.36	10567.52
478.54	10590.92
478.72	10789.87
478.90	10925.62
479.08	10878.81
479.26	11265.00
479.44	11267.34
479.62	11211.17
479.80	11250.96
479.98	11421.81
480.16	11583.31
480.34	11630.12
480.52	11756.51
480.70	12112.27
480.88	11765.87
481.06	11854.81
481.24	11833.75
481.41	11955.46
481.59	11955.46
481.77	12238.66
481.95	12126.32
482.13	12472.71
482.31	12367.39
482.49	12596.76
482.67	12629.53
482.85	12753.58
483.03	13137.43
483.21	13130.41
483.39	13427.65
483.57	13315.31
483.74	13331.69
483.92	13282.54
484.10	13486.17
484.28	13884.06
484.46	13785.76
484.64	13991.72
484.82	13965.98
485.00	13813.84
485.18	14377.91
485.35	14658.78
485.53	14143.86
485.71	14387.27
485.89	14939.64
486.07	14647.07
486.25	14693.88
486.43	15033.26
486.61	15075.39
486.78	15229.87
486.96	15466.26
487.14	15463.92
487.32	15290.72
487.50	15508.39
487.68	15513.07
487.85	15793.94
488.03	16072.46
488.21	16137.99
488.39	16336.94
488.57	16552.27
488.75	16343.96
488.92	16912.71
489.10	16847.18
489.28	16924.41
489.46	17081.23
489.64	16886.97
489.81	17371.46
489.99	17729.56
490.17	17376.14
490.35	17750.62
490.53	17799.77
490.70	17958.93
490.88	18026.81
491.06	18174.26
491.24	17809.14
491.41	18335.76
491.59	18232.77
491.77	18417.68
491.95	18366.18
492.13	19014.51
492.30	18747.69
492.48	18689.18
492.66	18934.93
492.84	19288.35
493.01	19360.91
493.19	19302.40
493.37	19616.03
493.54	19480.28
493.72	19686.25
493.90	19992.86
494.08	19711.99
494.25	20065.41
494.43	20245.63
494.61	20400.11
494.79	20695.02
494.96	20636.50
495.14	20823.75
495.32	20769.91
495.49	21018.01
495.67	20950.14
495.85	21216.96
496.02	21558.67
496.20	21270.79
496.38	21458.03
496.55	21694.43
496.73	21965.93
496.91	21556.33
497.09	22104.02
497.26	21998.70
497.44	21841.88
497.62	22113.38
497.79	22569.79
497.97	22244.45
498.14	22546.38
498.32	22890.44
498.50	22726.60
498.67	22745.33
498.85	22913.84
499.03	23293.01
499.20	23016.83
499.38	23328.12
499.56	23014.49
499.73	23442.81
499.91	23295.35
500.08	23892.19
500.26	23377.27
500.44	23786.86
500.61	23740.05
500.79	23817.29
500.97	24046.66
501.14	24261.99
501.32	24336.89
501.49	23997.51
501.67	23653.45
501.84	24341.57
502.02	24177.73
502.20	24673.93
502.37	24561.58
502.55	25053.09
502.72	25099.90
502.90	24636.48
503.07	24950.11
503.25	25259.06
503.43	25355.02
503.60	24915.00
503.78	25261.40
503.95	25682.70
504.13	25544.61
504.30	25614.82
504.48	25528.22
504.65	25855.90
504.83	25865.26
505.01	26202.30
505.18	25771.64
505.36	26401.24
505.53	26115.70
505.71	25986.97
505.88	26380.18
506.06	26064.21
506.23	26459.76
506.41	26424.65
506.58	26576.78
506.76	26562.74
506.93	26644.66
507.11	26639.98
507.28	27058.93
507.46	27077.66
507.63	27332.78
507.81	27630.02
507.98	27314.05
508.16	27257.88
508.33	27019.14
508.50	27201.71
508.68	27262.56
508.85	27751.73
509.03	27852.38
509.20	27742.37
509.38	28135.58
509.55	28133.24
509.73	28056.00
509.90	28086.43
510.08	28222.18
510.25	28627.09
510.42	28355.59
510.60	28599.01
510.77	28797.95
510.95	28865.83
511.12	28627.09
511.30	28697.31
511.47	28826.04
511.64	28952.43
511.82	29366.70
511.99	29195.84
512.17	29387.77
512.34	29003.92
512.51	29401.81
512.69	29591.39
512.86	29493.09
513.04	29708.42
513.21	29635.86
513.38	30141.42
513.56	30024.39
513.73	29385.43
513.90	29916.73
514.08	29773.95
514.25	30466.75
514.43	30216.32
514.60	30424.62
514.77	30576.76
514.95	30487.82
515.12	30176.53
515.29	30251.42
515.47	30717.19
515.64	30663.36
515.81	30581.44
515.99	31002.74
516.16	31117.42
516.33	31299.98
516.51	31342.11
516.68	31292.96
516.85	31133.81
517.03	31276.58
517.20	31290.62
517.37	31475.52
517.54	31910.86
517.72	31782.13
517.89	31353.82
518.06	31814.90
518.24	31435.74
518.41	31648.72
518.58	31714.26
518.75	31868.73
518.93	31903.84
519.10	32219.81
519.27	31971.72
519.45	32245.56
519.62	32252.58
519.79	32566.21
519.96	32617.71
520.14	32842.40
520.31	32690.26
520.48	32966.45
520.65	32706.65
520.83	32966.45
521.00	32914.95
521.17	32826.01
521.34	32744.09
521.52	33163.05
521.69	33207.52
521.86	33064.75
522.03	33331.57
522.20	33247.31
522.38	33586.69
522.55	33640.52
522.72	33345.61
522.89	33783.29
523.07	33893.30
523.24	33600.73
523.41	34005.64
523.58	33895.64
523.75	34176.50
523.92	33792.65
524.10	33776.27
524.27	34464.39
524.44	34242.04
524.61	34401.19
524.78	34443.32
524.96	34539.29
525.13	34438.64
525.30	34389.49
525.47	34710.14
525.64	34773.34
525.81	34948.88
525.98	34859.94
526.16	34813.13
526.33	34916.11
526.50	34895.05
526.67	34848.24
526.84	34911.43
527.01	34958.24
527.18	35288.26
527.36	35012.07
527.53	35117.40
527.70	36070.00
527.87	35578.48
528.04	35283.58
528.21	35791.47
528.38	35838.28
528.55	35857.01
528.72	35676.79
528.89	36140.21
529.07	35744.66
529.24	35515.29
529.41	36037.23
529.58	35894.46
529.75	35433.37
529.92	35915.52
530.09	36175.32
530.26	36418.74
530.43	36435.12
530.60	36451.50
530.77	36238.51
530.94	36374.27
531.11	36355.54
531.28	36128.51
531.46	36397.67
531.63	36706.62
531.80	36676.19
531.97	37024.93
532.14	37127.92
532.31	37053.02
532.48	37062.38
532.65	37406.44
532.82	37144.30
532.99	36975.78
533.16	37284.73
533.33	37500.06
533.50	37371.33
533.67	37509.43
533.84	36708.96
534.01	37160.69
534.18	36989.83
534.35	37556.24
534.52	37507.08
534.69	37874.55
534.86	37755.18
535.03	37605.39
535.20	37713.05
535.37	37755.18
535.54	37748.16
535.71	37773.91
535.88	37776.25
536.05	38139.03
536.22	38052.43
536.38	38429.26
536.55	38061.79
536.72	38246.69
536.89	37947.11
537.06	37720.07
537.23	38330.95
537.40	38167.12
537.57	38347.34
537.74	38363.72
537.91	39096.31
538.08	38480.75
538.25	38778.00
538.42	38586.07
538.59	38693.74
538.75	38314.57
538.92	38712.46
539.09	38600.12
539.26	39182.91
539.43	39316.32
539.60	39466.11
539.77	38937.15
539.94	39683.78
540.11	39627.61
540.28	39351.43
540.44	39454.41
540.61	39377.17
540.78	39337.38
540.95	39707.19
541.12	39817.19
541.29	39709.53
541.46	39826.56
541.62	39615.91
541.79	39789.11
541.96	39058.86
542.13	39782.09
542.30	40027.84
542.47	40004.44
542.63	40495.95
542.80	40292.32
542.97	39917.84
543.14	40392.97
543.31	40339.13
543.48	40540.42
543.64	40404.67
543.81	40357.86
543.98	40507.65
544.15	41146.62
544.32	40704.26
544.48	40835.33
544.65	40734.68
544.82	40601.27
544.99	40713.62
545.16	40715.96
545.32	40603.61
545.49	41769.20
545.66	42178.79
545.83	42167.09
546.00	41607.70
546.16	41071.72
546.33	40804.90
546.50	40699.58
546.67	40935.97
546.83	40694.89
547.00	41254.28
547.17	41368.97
547.34	41081.08
547.50	41579.62
547.67	41549.19
547.84	41074.06
548.00	41469.61
548.17	41371.31
548.34	41305.77
548.51	41495.36
548.67	41422.80
548.84	41720.05
549.01	41724.73
549.18	41755.16
549.34	41530.47
549.51	41387.69
549.68	41907.29
549.84	41219.17
550.01	41467.27
550.18	41617.07
550.34	41837.08
550.51	41750.48
550.68	42319.23
550.84	41462.59
551.01	42045.38
551.18	41605.36
551.34	41816.01
551.51	42073.47
551.68	41872.18
551.84	42359.02
552.01	41944.74
552.18	42066.45
552.34	41722.39
552.51	41904.95
552.68	42059.43
552.84	42176.45
553.01	42319.23
553.18	42211.56
553.34	42108.58
553.51	42160.07
553.67	42380.08
553.84	42574.34
554.01	42426.89
554.17	42663.28
554.34	42483.06
554.51	42742.86
554.67	42499.45
554.84	42625.84
555.00	42115.60
555.17	42682.01
555.33	42579.03
555.50	42157.73
555.67	42590.73
555.83	42319.23
556.00	42817.76
556.16	42707.76
556.33	42705.41
556.50	42466.68
556.66	42852.87
556.83	42288.80
556.99	42972.24
557.16	43199.27
557.32	43023.73
557.49	43264.80
557.65	42703.07
557.82	42560.30
557.98	42820.10
558.15	42792.01
558.32	43248.42
558.48	43157.14
558.65	43318.64
558.81	43217.99
558.98	43292.89
559.14	42782.65
559.31	43072.88
559.47	42813.08
559.64	43302.25
559.80	43152.46
559.97	43021.39
560.13	43372.47
560.30	43367.79
560.46	43274.16
560.63	43335.02
560.79	43241.40
560.96	43913.13
561.12	43178.20
561.29	43515.24
561.45	43573.75
561.61	43168.84
561.78	43456.73
561.94	43290.55
562.11	43580.78
562.27	43866.32
562.44	43641.63
562.60	43536.30
562.77	43255.44
562.93	43344.38
563.10	44189.31
563.26	43498.86
563.42	44058.24
563.59	43592.48
563.75	43732.91
563.92	43983.35
564.08	43585.46
564.24	43693.12
564.41	43540.99
564.57	43540.99
564.74	43826.53
564.90	43679.08
565.07	43920.15
565.23	44212.72
565.39	43709.50
565.56	43817.17
565.72	43636.95
565.88	43683.76
566.05	43915.47
566.21	43386.51
566.38	43831.21
566.54	43721.21
566.70	44179.95
566.87	44156.55
567.03	43730.57
567.19	44521.67
567.36	44079.31
567.52	43786.74
567.68	44411.67
567.85	43714.19
568.01	43571.41
568.17	43950.58
568.34	44121.44
568.50	43835.89
568.66	44322.72
568.83	44140.16
568.99	44037.18
569.15	43852.28
569.32	43349.06
569.48	43751.63
569.64	43880.36
569.81	44341.45
569.97	44091.01
570.13	44102.71
570.30	44083.99
570.46	44612.95
570.62	44212.72
570.78	43894.41
570.95	43810.15
571.11	44140.16
571.27	43601.84
571.43	43871.00
571.60	44128.46
571.76	44519.33
571.92	44634.02
572.09	44542.74
572.25	44254.85
572.41	44355.49
572.57	44421.03
572.74	44446.77
572.90	44502.95
573.06	43899.09
573.22	43868.66
573.38	44563.80
573.55	44233.78
573.71	44678.49
573.87	44912.54
574.03	43981.01
574.20	44327.41
574.36	44051.22
574.52	44208.04
574.68	44463.16
574.84	44076.97
575.01	44360.17
575.17	44030.16
575.33	44074.63
575.49	44423.37
575.65	44615.29
575.82	44687.85
575.98	44240.81
576.14	44418.69
576.30	44229.10
576.46	44149.53
576.62	44641.04
576.79	44594.23
576.95	44954.67
577.11	44278.25
577.27	44470.18
577.43	44598.91
577.59	44346.13
577.75	44133.14
577.92	44013.77
578.08	44151.87
578.24	44238.47
578.40	44741.68
578.56	44629.34
578.72	44521.67
578.88	45165.32
579.04	44708.91
579.21	44598.91
579.37	44727.64
579.53	44804.88
579.69	44058.24
579.85	44493.58
580.01	44402.30
580.17	44278.25
580.33	44701.89
580.49	44364.85
580.65	44861.05
580.82	44479.54
580.98	44638.70
581.14	44322.72
581.30	44744.02
581.46	44332.09
581.62	44364.85
581.78	44802.53
581.94	44769.77
582.10	44289.96
582.26	44542.74
582.42	44559.12
582.58	44362.51
582.74	44779.13
582.90	44957.01
583.06	44795.51
583.22	44231.44
583.38	44430.39
583.54	44493.58
583.70	44332.09
583.86	44416.35
584.02	44879.77
584.18	44666.78
584.34	44811.90
584.50	45202.77
584.66	44416.35
584.82	44535.71
584.98	44678.49
585.14	44495.92
585.30	44619.97
585.46	44704.23
585.62	44430.39
585.78	44666.78
585.94	43992.71
586.10	44774.45
586.26	44830.62
586.42	45104.46
586.58	45074.04
586.74	44343.79
586.90	44275.91
587.06	44208.04
587.22	44720.62
587.38	45024.89
587.54	44507.63
587.70	44652.74
587.86	44973.39
588.02	44994.46
588.18	44978.07
588.34	44954.67
588.49	45116.17
588.65	44189.31
588.81	44999.14
588.97	44882.11
589.13	44779.13
589.29	44549.76
589.45	44865.73
589.61	44741.68
589.77	45141.91
589.93	44942.97
590.08	44882.11
590.24	44596.57
590.40	45460.23
590.56	44835.30
590.72	44671.46
590.88	45170.00
591.04	45165.32
591.20	45146.59
591.35	45411.07
591.51	45500.01
591.67	45265.96
591.83	46010.25
591.99	45467.25
592.15	45282.34
592.31	45069.36
592.46	45158.30
592.62	45001.48
592.78	45045.95
592.94	44914.88
593.10	45642.79
593.26	45003.82
593.41	45265.96
593.57	44910.20
593.73	45074.04
593.89	45263.62
594.05	45352.56
594.20	45003.82
594.36	45064.67
594.52	45165.32
594.68	44741.68
594.84	44671.46
594.99	45448.52
595.15	45268.30
595.31	45577.25
595.47	45610.02
595.62	45020.20
595.78	45132.55
595.94	45155.96
596.10	44889.13
596.25	44865.73
596.41	44786.15
596.57	44615.29
596.73	45074.04
596.88	44800.19
597.04	45188.72
597.20	45820.67
597.36	45570.23
597.51	45579.59
597.67	44788.49
597.83	45092.76
597.99	45261.28
598.14	44924.24
598.30	45251.92
598.46	44924.24
598.61	45064.67
598.77	45207.45
598.93	45277.66
599.09	45378.31
599.24	45656.83
599.40	45144.25
599.56	45624.06
599.71	45055.31
599.87	45511.72
600.03	45331.50
600.18	45055.31
600.34	45184.04
600.50	45394.69
600.65	45558.53
600.81	45415.76
600.97	45603.00
601.12	45862.80
601.28	45359.58
601.44	45738.75
601.59	45420.44
601.75	44868.07
601.91	45317.45
602.06	44795.51
602.22	45343.20
602.37	45291.71
602.53	45401.71
602.69	45181.70
602.84	45546.82
603.00	45277.66
603.16	45205.11
603.31	45132.55
603.47	45099.78
603.62	44495.92
603.78	45322.13
603.94	44589.55
604.09	45455.54
604.25	44847.00
604.40	45294.05
604.56	44891.48
604.71	45347.88
604.87	45141.91
605.03	45261.28
605.18	45003.82
605.34	44952.33
605.49	44692.53
605.65	44734.66
605.80	44800.19
605.96	45221.49
606.12	44849.35
606.27	45343.20
606.43	44893.82
606.58	45029.57
606.74	45359.58
606.89	44940.63
607.05	45249.58
607.20	45165.32
607.36	45308.09
607.51	44966.37
607.67	44453.79
607.82	44318.04
607.98	44650.40
608.13	44837.64
608.29	44971.05
608.44	45162.98
608.60	44659.76
608.75	45413.41
608.91	45233.19
609.06	44910.20
609.22	44655.08
609.37	44460.82
609.53	44919.56
609.68	45160.64
609.84	44814.24
609.99	44596.57
610.15	44472.52
610.30	44704.23
610.46	44694.87
610.61	45315.11
610.76	45647.47
610.92	45375.97
611.07	45865.14
611.23	45268.30
611.38	45371.28
611.54	45188.72
611.69	44942.97
611.84	44992.12
612.00	44741.68
612.15	44657.42
612.31	44863.39
612.46	44612.95
612.62	44802.53
612.77	44889.13
612.92	44910.20
613.08	44559.12
613.23	44500.61
613.39	44257.19
613.54	44683.17
613.69	44142.50
613.85	44327.41
614.00	44416.35
614.15	44531.03
614.31	44154.21
614.46	44524.01
614.62	44414.01
614.77	44601.25
614.92	44737.00
615.08	44189.31
615.23	44222.08
615.38	44364.85
615.54	44006.75
615.69	44151.87
615.84	44154.21
616.00	43807.81
616.15	43948.24
616.30	43995.05
616.46	43847.60
616.61	43606.52
616.76	44608.27
616.92	44055.90
617.07	44044.20
617.22	43756.32
617.37	43782.06
617.53	43882.70
617.68	43391.19
617.83	43400.55
617.99	43447.36
618.14	43423.96
618.29	43606.52
618.45	43882.70
618.60	43973.98
618.75	43381.83
618.90	43889.73
619.06	43569.07
619.21	43360.76
619.36	43543.33
619.51	42918.40
619.67	43306.93
619.82	43222.67
619.97	43370.13
620.12	43442.68
620.28	43180.54
620.43	43641.63
620.58	43667.37
620.73	43225.01
620.89	43650.99
621.04	43742.27
621.19	43489.49
621.34	43133.73
621.49	43150.12
621.65	43140.75
621.80	43260.12
621.95	43115.01
622.10	43107.99
622.25	42801.38
622.41	43100.97
622.56	42745.20
622.71	43309.27
622.86	42988.62
623.01	42813.08
623.16	43182.88
623.32	42848.19
623.47	43264.80
623.62	42965.21
623.77	42684.35
623.92	43192.25
624.07	42752.23
624.23	43051.81
624.38	43054.15
624.53	42670.31
624.68	42995.64
624.83	43182.88
624.98	42862.23
625.13	42784.99
625.29	42773.29
625.44	42983.94
625.59	42588.39
625.74	42000.91
625.89	42326.25
626.04	41865.16
626.19	42026.66
626.34	42497.11
626.49	42696.05
626.65	42342.63
626.80	42588.39
626.95	42073.47
627.10	42010.28
627.25	42366.04
627.40	41940.06
627.55	42586.05
627.70	42040.70
627.85	41579.62
628.00	42183.48
628.15	42220.92
628.30	41808.99
628.45	42295.82
628.60	42014.96
628.76	42087.51
628.91	42410.51
629.06	42047.72
629.21	42087.51
629.36	41567.91
629.51	41216.83
629.66	41551.53
629.81	41942.40
629.96	41668.56
630.11	41865.16
630.26	41996.23
630.41	42326.25
630.56	41736.43
630.71	42230.29
630.86	42239.65
631.01	41811.33
631.16	42101.56
631.31	41441.53
631.46	41694.30
631.61	41500.04
631.76	41720.05
631.91	41228.54
632.06	41102.15
632.21	41474.29
632.36	41359.61
632.51	41270.67
632.66	41549.19
632.81	41319.82
632.96	41689.62
633.10	41493.02
633.25	41254.28
633.40	41167.68
633.55	40989.80
633.70	40762.77
633.85	41020.23
634.00	40446.80
634.15	41151.30
634.30	40767.45
634.45	40706.60
634.60	41139.60
634.75	41375.99
634.90	41366.63
635.05	41305.77
635.19	41188.75
635.34	40940.65
635.49	40985.12
635.64	40727.66
635.79	40795.54
635.94	40893.84
636.09	40971.08
636.24	40603.61
636.39	40659.79
636.53	41139.60
636.68	40423.39
636.83	40325.09
636.98	40472.54
637.13	40573.19
637.28	40823.62
637.43	40643.40
637.57	40402.33
637.72	40708.94
637.87	40980.44
638.02	40823.62
638.17	40495.95
638.32	40091.04
638.46	40039.54
638.61	40385.94
638.76	40046.57
638.91	40350.84
639.06	40371.90
639.20	40273.60
639.35	39974.01
639.50	40411.69
639.65	40306.37
639.80	40046.57
639.94	39859.32
640.09	40020.82
640.24	39873.37
640.39	40069.97
640.54	40105.08
640.68	40287.64
640.83	40231.47
640.98	39791.45
641.13	39962.31
641.27	40123.80
641.42	40437.44
641.57	39917.84
641.72	40669.15
641.86	40219.77
642.01	39643.99
642.16	39742.30
642.31	39166.52
642.45	39672.08
642.60	39587.82
642.75	39538.67
642.90	39342.06
643.04	39608.89
643.19	39236.74
643.34	39370.15
643.48	39283.55
643.63	39770.38
643.78	39789.11
643.93	39793.79
644.07	39136.10
644.22	39512.92
644.37	39648.68
644.51	39306.96
644.66	39201.63
644.81	39129.08
644.95	39264.83
645.10	39098.65
645.25	39461.43
645.39	39278.87
645.54	39746.98
645.69	39182.91
645.83	39283.55
645.98	39676.76
646.13	39431.01
646.27	39194.61
646.42	39512.92
646.57	39056.52
646.71	38974.60
646.86	39115.03
647.00	39016.73
647.15	38780.34
647.30	38675.01
647.44	38593.09
647.59	38646.93
647.74	38995.67
647.88	38700.76
648.03	38813.10
648.17	39248.44
648.32	39068.22
648.47	39054.18
648.61	38761.61
648.76	38869.28
648.90	38782.68
649.05	38834.17
649.20	38773.31
649.34	38745.23
649.49	38548.62
649.63	38267.76
649.78	39096.31
649.92	38569.69
650.07	39182.91
650.21	38733.53
650.36	38623.52
650.51	38476.07
650.65	38845.87
650.80	39164.18
650.94	38260.74
651.09	38234.99
651.23	38244.35
651.38	38162.43
651.52	38309.89
651.67	38457.34
651.81	38333.29
651.96	38951.20
652.10	38307.55
652.25	38043.07
652.39	38450.32
652.54	38494.79
652.68	38377.76
652.83	38686.71
652.97	38628.20
653.12	37989.24
653.26	38426.92
653.41	38330.95
653.55	37916.68
653.70	38171.80
653.84	38031.36
653.99	38007.96
654.13	38150.73
654.27	37495.38
654.42	38246.69
654.56	37544.53
654.71	38029.02
654.85	37996.26
655.00	37958.81
655.14	37855.82
655.29	37331.54
655.43	37890.93
655.57	37823.06
655.72	37535.17
655.86	37663.90
656.01	37191.11
656.15	37333.89
656.30	36964.08
656.44	37191.11
656.58	37198.13
656.73	37357.29
656.87	37296.44
657.01	37640.50
657.16	37589.00
657.30	37659.22
657.45	37628.79
657.59	37617.09
657.73	37626.45
657.88	37076.43
658.02	37165.37
658.16	36971.10
658.31	37326.86
658.45	37429.85
658.60	36657.47
658.74	37179.41
658.88	36811.95
659.03	36987.49
659.17	36854.08
659.31	37062.38
659.46	36924.29
659.60	37158.34
659.74	37050.68
659.89	36828.33
660.03	36690.24
660.17	36900.89
660.32	36498.31
660.46	36275.96
660.60	35824.24
660.74	36261.92
660.89	36407.03
661.03	36114.47
661.17	36718.32
661.32	35824.24
661.46	36503.00
661.60	36165.96
661.74	36603.64
661.89	36287.67
662.03	36252.56
662.17	35903.82
662.31	36547.47
662.46	35969.35
662.60	36018.50
662.74	35889.77
662.88	35779.77
663.03	35370.18
663.17	35835.94
663.31	35325.71
663.45	35828.92
663.60	35358.47
663.74	35416.99
663.88	35447.41
664.02	35360.81
664.17	36053.61
664.31	35222.72
664.45	35063.57
664.59	35180.59
664.73	35180.59
664.88	35613.59
665.02	34670.36
665.16	34948.88
665.30	35201.66
665.44	34988.67
665.59	34602.48
665.73	34995.69
665.87	34621.20
666.01	34754.61
666.15	35082.29
666.29	34724.19
666.44	35133.78
666.58	34529.92
666.72	34560.35
666.86	34625.89
667.00	34675.04
667.14	34176.50
667.28	33998.62
667.43	34029.05
667.57	34429.28
667.71	34110.97
667.85	34216.29
667.99	34160.12
668.13	34066.50
668.27	33883.94
668.41	34342.68
668.56	33787.97
668.70	34581.42
668.84	34543.97
668.98	34235.02
669.12	33872.23
669.26	33209.86
669.40	33727.12
669.54	33532.86
669.68	33670.95
669.82	33448.60
669.96	33123.26
670.10	33043.68
670.25	33209.86
670.39	33511.79
670.53	33551.58
670.67	33170.07
670.81	33193.48
670.95	33003.89
671.09	33219.22
671.23	32994.53
671.37	33113.90
671.51	33039.00
671.65	33158.37
671.79	32893.89
671.93	32467.91
672.07	32645.79
672.21	32294.71
672.35	32666.86
672.49	32549.83
672.63	32409.40
672.77	32233.86
672.91	31786.82
673.05	32114.49
673.19	32268.97
673.33	32079.38
673.47	32105.13
673.61	32168.32
673.75	32070.02
673.89	31885.12
674.03	32257.26
674.17	31695.53
674.31	31831.29
674.45	31412.33
674.59	31435.74
674.73	31716.60
674.87	30895.07
675.01	31077.63
675.15	31178.28
675.29	31023.80
675.43	31407.65
675.56	31250.83
675.70	31456.80
675.84	31534.04
675.98	30389.52
676.12	31005.08
676.26	30909.11
676.40	31227.43
676.54	30974.65
676.68	30813.15
676.82	30054.82
676.96	30558.03
677.10	30045.46
677.23	29853.53
677.37	30089.93
677.51	29748.21
677.65	29914.39
677.79	29570.33
677.93	29406.49
678.07	29563.31
678.21	29799.70
678.34	29652.25
678.48	29666.29
678.62	29371.38
678.76	28971.15
678.90	28685.61
679.04	29081.16
679.18	28992.22
679.31	28809.65
679.45	28694.97
679.59	28559.22
679.73	28528.79
679.87	28240.90
680.00	28395.38
680.14	28147.28
680.28	28680.92
680.42	28240.90
680.56	28240.90
680.70	28027.92
680.83	28283.03
680.97	27728.33
681.11	28039.62
681.25	28051.32
681.39	27850.03
681.52	27697.90
681.66	27697.90
681.80	27681.52
681.94	27365.54
682.07	27700.24
682.21	27056.59
682.35	27150.21
682.49	27147.87
682.62	26852.97
682.76	26726.58
682.90	26754.66
683.04	26742.96
683.17	26654.02
683.31	26501.89
683.45	26567.42
683.59	26796.79
683.72	26478.48
683.86	26281.88
684.00	26143.78
684.13	26412.95
684.27	25912.07
684.41	26108.68
684.55	25720.15
684.68	25563.33
684.82	25436.94
684.96	25135.01
685.09	25443.96
685.23	24966.49
685.37	25766.96
685.50	25275.45
685.64	25319.92
685.78	25348.00
685.91	25111.61
686.05	25118.63
686.19	24940.75
686.32	24797.98
686.46	24496.05
686.60	24421.15
686.73	24690.31
686.87	24694.99
687.01	24217.52
687.14	24269.01
687.28	24271.36
687.42	24198.80
687.55	23798.57
687.69	24311.14
687.82	23623.03
687.96	23943.68
688.10	23838.36
688.23	23585.58
688.37	23695.58
688.50	24009.22
688.64	23770.48
688.78	23056.62
688.91	23073.00
689.05	23225.14
689.18	22649.36
689.32	22628.30
689.46	22618.94
689.59	22609.58
689.73	22546.38
689.86	22726.60
690.00	22424.67
690.13	22300.62
690.27	22132.11
690.41	22417.65
690.54	22097.00
690.68	22258.49
690.81	22368.50
690.95	22342.75
691.08	22338.07
691.22	22251.47
691.35	21813.79
691.49	21944.86
691.62	21769.32
691.76	21458.03
691.89	21656.98
692.03	21085.89
692.16	21221.64
692.30	20912.69
692.43	21355.05
692.57	21378.45
692.70	21193.55
692.84	21308.24
692.97	20774.60
693.11	20823.75
693.24	20716.08
693.38	20486.71
693.51	20652.89
693.65	20587.35
693.78	20477.35
693.92	20458.62
694.05	20168.40
694.19	20091.16
694.32	19934.34
694.45	19819.66
694.59	19950.73
694.72	19789.23
694.86	19744.76
694.99	19445.17
695.13	19260.27
695.26	19733.06
695.39	19414.74
695.53	19719.01
695.66	19466.24
695.80	19403.04
695.93	19349.21
696.07	19192.39
696.20	19087.07
696.33	19063.66
696.47	19030.90
696.60	18537.04
696.73	18864.72
696.87	18848.33
697.00	18703.22
697.14	18534.70
697.27	18370.86
697.40	18363.84
697.54	18260.86
697.67	18265.54
697.80	18277.24
697.94	17790.41
698.07	17989.36
698.21	17699.13
698.34	17752.96
698.47	17785.73
698.61	17399.54
698.74	17532.95
698.87	17851.27
699.01	17448.69
699.14	17219.32
699.27	17429.97
699.40	17486.14
699.54	17191.23
699.67	16952.50
699.80	16751.21
699.94	16884.62
700.07	16699.72
700.20	16723.13
700.34	16507.80
700.47	16718.45
700.60	16547.59
700.73	16753.55
700.87	16404.81
701.00	16376.73
701.13	16304.17
701.26	16219.91
701.40	16194.17
701.53	16035.01
701.66	16077.14
701.79	16084.16
701.93	15967.13
702.06	15859.47
702.19	15569.24
702.32	15716.70
702.46	15618.39
702.59	15559.88
702.72	15183.06
702.85	15314.13
702.99	15566.90
703.12	15171.35
703.25	15000.49
703.38	15012.20
703.51	15084.75
703.65	15197.10
703.78	15051.99
703.91	14995.81
704.04	15012.20
704.17	14850.70
704.31	14429.40
704.44	14567.49
704.57	14492.60
704.70	14551.11
704.83	14466.85
704.96	14305.35
705.10	14389.61
705.23	14195.35
>>>>>End Processed Spectral Data<<<<<
