SpectraSuite Data File
++++++++++++++++++++++++++++++++++++
Date: Fri Oct 04 11:39:40 GMT-05:00 2013
User: price-jones
Dark Spectrum Present: No
Reference Spectrum Present: No
Number of Sampled Component Spectra: 1
Spectrometers: USB2+H05261
Integration Time (usec): 100000 (USB2+H05261)
Spectra Averaged: 1 (USB2+H05261)
Boxcar Smoothing: 0 (USB2+H05261)
Correct for Electrical Dark: No (USB2+H05261)
Strobe/Lamp Enabled: No (USB2+H05261)
Correct for Detector Non-linearity: No (USB2+H05261)
Correct for Stray Light: No (USB2+H05261)
Number of Pixels in Processed Spectrum: 2048
>>>>>Begin Processed Spectral Data<<<<<
365.73	0.00
365.92	0.00
366.12	0.00
366.32	0.00
366.52	2.34
366.72	0.00
366.91	0.00
367.11	0.00
367.31	0.00
367.51	0.00
367.70	23.41
367.90	0.00
368.10	0.00
368.30	0.00
368.49	0.00
368.69	0.00
368.89	0.00
369.09	0.00
369.28	0.00
369.48	0.00
369.68	16.38
369.87	51.49
370.07	0.00
370.27	74.90
370.47	131.07
370.66	271.50
370.86	318.31
371.06	308.95
371.25	465.77
371.45	355.76
371.65	386.19
371.84	381.51
372.04	416.62
372.24	402.57
372.44	444.70
372.63	374.49
372.83	444.70
373.03	376.83
373.22	430.66
373.42	475.13
373.62	454.06
373.81	425.98
374.01	428.32
374.21	437.68
374.40	507.90
374.60	468.11
374.79	475.13
374.99	531.30
375.19	486.83
375.38	550.03
375.58	533.64
375.78	514.92
375.97	449.38
376.17	580.45
376.37	500.87
376.56	486.83
376.76	468.11
376.95	496.19
377.15	505.56
377.35	465.77
377.54	489.17
377.74	510.24
377.93	594.50
378.13	517.26
378.33	594.50
378.52	463.43
378.72	552.37
378.91	578.11
379.11	573.43
379.31	543.00
379.50	599.18
379.70	535.98
379.89	533.64
380.09	664.71
380.28	580.45
380.48	561.73
380.68	550.03
380.87	554.71
381.07	664.71
381.26	624.92
381.46	706.84
381.65	582.79
381.85	636.63
382.04	564.07
382.24	648.33
382.43	674.07
382.63	613.22
382.83	716.20
383.02	678.76
383.22	653.01
383.41	638.97
383.61	603.86
383.80	732.59
384.00	596.84
384.19	631.94
384.39	678.76
384.58	699.82
384.78	751.31
384.97	688.12
385.17	608.54
385.36	674.07
385.56	784.08
385.75	692.80
385.95	690.46
386.14	777.06
386.34	664.71
386.53	753.65
386.72	681.10
386.92	873.02
387.11	753.65
387.31	770.04
387.50	720.88
387.70	784.08
387.89	702.16
388.09	819.19
388.28	781.74
388.48	894.08
388.67	786.42
388.86	798.12
389.06	732.59
389.25	851.96
389.45	835.57
389.64	781.74
389.84	917.49
390.03	807.48
390.22	835.57
390.42	912.81
390.61	842.59
390.81	819.19
391.00	940.90
391.19	929.19
391.39	954.94
391.58	929.19
391.78	788.76
391.97	912.81
392.16	844.93
392.36	964.30
392.55	954.94
392.75	929.19
392.94	891.74
393.13	999.41
393.33	985.37
393.52	978.34
393.71	1011.11
393.91	994.73
394.10	978.34
394.29	973.66
394.49	926.85
394.68	957.28
394.88	1069.62
395.07	1114.10
395.26	1053.24
395.46	1064.94
395.65	1121.12
395.84	1139.84
396.04	1132.82
396.23	1090.69
396.42	1086.01
396.62	1135.16
396.81	1057.92
397.00	1153.88
397.19	1207.72
397.39	1121.12
397.58	1191.33
397.77	1240.48
397.97	1233.46
398.16	1228.78
398.35	1184.31
398.55	1165.59
398.74	1186.65
398.93	1238.14
399.12	1327.08
399.32	1313.04
399.51	1296.66
399.70	1235.80
399.90	1338.79
400.09	1376.24
400.28	1322.40
400.47	1362.19
400.67	1362.19
400.86	1376.24
401.05	1437.09
401.24	1394.96
401.44	1448.79
401.63	1427.73
401.82	1387.94
402.01	1434.75
402.21	1504.96
402.40	1483.90
402.59	1476.88
402.78	1399.64
402.97	1535.39
403.17	1530.71
403.36	1528.37
403.55	1547.09
403.74	1514.33
403.93	1596.25
404.13	1654.76
404.32	1682.85
404.51	1605.61
404.70	1755.40
404.89	1631.35
405.09	1633.69
405.28	1633.69
405.47	1610.29
405.66	1757.74
405.85	1734.34
406.05	1783.49
406.24	1713.27
406.43	1654.76
406.62	1785.83
406.81	1902.86
407.00	1760.08
407.20	1792.85
407.39	1827.96
407.58	1823.28
407.77	1895.83
407.96	1933.28
408.15	1928.60
408.34	1893.49
408.54	2019.88
408.73	1991.80
408.92	1914.56
409.11	2076.06
409.30	2080.74
409.49	2015.20
409.68	1966.05
409.87	2099.46
410.07	2181.38
410.26	2167.34
410.45	2076.06
410.64	2146.27
410.83	2260.96
411.02	2148.61
411.21	2094.78
411.40	2148.61
411.59	2202.44
411.78	2251.60
411.98	2286.70
412.17	2317.13
412.36	2324.15
412.55	2300.75
412.74	2399.05
412.93	2408.41
413.12	2502.03
413.31	2548.84
413.50	2441.18
413.69	2623.74
413.88	2612.04
414.07	2562.89
414.26	2546.50
414.45	2626.08
414.64	2764.17
414.83	2780.56
415.02	2715.02
415.22	2684.59
415.41	2785.24
415.60	2825.03
415.79	2836.73
415.98	2925.67
416.17	2904.60
416.36	2871.84
416.55	2897.58
416.74	3059.08
416.93	3110.57
417.12	3047.38
417.31	2995.89
417.50	3040.36
417.69	3059.08
417.88	3187.81
418.07	3211.22
418.26	3248.66
418.45	3178.45
418.64	3410.16
418.83	3365.69
419.02	3288.45
419.21	3318.88
419.39	3204.19
419.58	3321.22
419.77	3251.00
419.96	3349.31
420.15	3428.88
420.34	3459.31
420.53	3405.48
420.72	3550.59
420.91	3480.38
421.10	3529.53
421.29	3552.93
421.48	3538.89
421.67	3487.40
421.86	3517.83
422.05	3637.19
422.24	3648.90
422.43	3667.62
422.61	3726.13
422.80	3578.68
422.99	3662.94
423.18	3676.98
423.37	3838.48
423.56	3545.91
423.75	3648.90
423.94	3735.50
424.13	3485.06
424.32	3548.25
424.50	3597.40
424.69	3801.03
424.88	3730.81
425.07	3705.07
425.26	3803.37
425.45	3669.96
425.64	3786.99
425.83	3716.77
426.01	3925.08
426.20	3712.09
426.39	3660.60
426.58	3672.30
426.77	3829.12
426.96	3836.14
427.15	3922.74
427.33	3824.44
427.52	3857.20
427.71	3885.29
427.90	3927.42
428.09	4046.79
428.28	4135.73
428.46	4023.38
428.65	3955.51
428.84	4131.05
429.03	4117.00
429.22	3953.16
429.40	4135.73
429.59	4091.26
429.78	3925.08
429.97	3962.53
430.16	4016.36
430.34	4187.22
430.53	4280.84
430.72	4175.52
430.91	4173.18
431.10	4278.50
431.28	4276.16
431.47	4348.72
431.66	4458.72
431.85	4440.00
432.03	4482.13
432.22	4421.27
432.41	4430.63
432.60	4449.36
432.79	4510.21
432.97	4533.62
433.16	4542.98
433.35	4503.19
433.54	4613.20
433.72	4463.40
433.91	4458.72
434.10	4596.81
434.28	4615.54
434.47	4486.81
434.66	4681.07
434.85	4667.03
435.03	4849.59
435.22	5114.07
435.41	5219.39
435.59	5088.32
435.78	5188.97
435.97	4861.29
436.16	4840.23
436.34	4924.49
436.53	4873.00
436.72	5041.51
436.90	4861.29
437.09	4964.28
437.28	4854.27
437.46	4954.91
437.65	5085.98
437.84	5074.28
438.02	5181.95
438.21	5163.22
438.40	5100.03
438.58	4983.00
438.77	5334.08
438.96	5266.21
439.14	5301.31
439.33	5327.06
439.52	5455.79
439.70	5401.96
439.89	5350.46
440.08	5577.50
440.26	5462.81
440.45	5493.24
440.63	5556.43
440.82	5612.60
441.01	5647.71
441.19	5675.80
441.38	5755.38
441.57	5879.43
441.75	5872.40
441.94	5774.10
442.12	6073.69
442.31	6080.71
442.50	6045.60
442.68	5968.37
442.87	5980.07
443.05	5858.36
443.24	6085.39
443.43	6179.01
443.61	6279.66
443.80	6319.45
443.98	6179.01
444.17	5853.68
444.35	6249.23
444.54	6150.93
444.73	6258.59
444.91	6197.74
445.10	6141.57
445.28	6305.40
445.47	6080.71
445.65	6106.46
445.84	6186.04
446.02	6380.30
446.21	6422.43
446.39	6237.53
446.58	6265.61
446.77	6396.68
446.95	6314.77
447.14	6349.87
447.32	6225.82
447.51	6363.92
447.69	6413.07
447.88	6537.12
448.06	6263.27
448.25	6370.94
448.43	6326.47
448.62	6394.34
448.80	6569.88
448.99	6576.91
449.17	6686.91
449.36	6459.88
449.54	6675.21
449.73	6553.50
449.91	6576.91
450.10	6668.19
450.28	6700.95
450.46	6682.23
450.65	6885.86
450.83	6717.34
451.02	6738.40
451.20	6794.58
451.39	6705.63
451.57	6775.85
451.76	6944.37
451.94	6843.73
452.13	6820.32
452.31	6911.60
452.49	6740.74
452.68	6892.88
452.86	7005.22
453.05	6899.90
453.23	7176.08
453.42	6918.62
453.60	6923.30
453.78	6925.65
453.97	7070.76
454.15	7054.37
454.34	7119.91
454.52	7119.91
454.70	7075.44
454.89	7190.13
455.07	7269.70
455.26	7431.20
455.44	7335.24
455.62	7318.86
455.81	7297.79
455.99	7222.89
456.17	7311.83
456.36	7297.79
456.54	7480.35
456.73	7740.15
456.91	7999.95
457.09	7665.25
457.28	7801.01
457.46	7747.17
457.64	7840.79
457.83	7878.24
458.01	7667.60
458.19	7985.91
458.38	7847.82
458.56	7812.71
458.74	7866.54
458.93	7882.92
459.11	7927.39
459.29	7733.13
459.48	7880.58
459.66	8013.99
459.84	7889.95
460.03	8313.58
460.21	8100.59
460.39	8266.77
460.57	8119.32
460.76	8119.32
460.94	8224.64
461.12	8334.65
461.31	8297.20
461.49	8285.50
461.67	8344.01
461.85	8439.97
462.04	8297.20
462.22	8737.22
462.40	8444.65
462.59	8332.31
462.77	8542.96
462.95	8587.43
463.13	8500.83
463.32	8585.08
463.50	8575.72
463.68	8589.77
463.86	8613.17
464.05	8435.29
464.23	8777.01
464.41	8744.24
464.59	8461.04
464.78	8746.58
464.96	8423.59
465.14	8484.44
465.32	8784.03
465.50	9158.52
465.69	8980.64
465.87	8968.93
466.05	8931.48
466.23	8915.10
466.41	9160.86
466.60	9247.46
466.78	8982.98
466.96	8997.02
467.14	9006.38
467.32	9104.68
467.51	9312.99
467.69	8816.80
467.87	9221.71
468.05	9057.87
468.23	8980.64
468.41	9102.34
468.60	9149.15
468.78	9472.15
468.96	9137.45
469.14	9167.88
469.32	9312.99
469.50	9153.84
469.69	9289.59
469.87	9577.47
470.05	9448.74
470.23	9577.47
470.41	9530.66
470.59	9497.89
470.77	9380.87
470.95	9577.47
471.14	9799.82
471.32	9614.92
471.50	10164.95
471.68	9706.20
471.86	9909.83
472.04	9940.26
472.22	10249.21
472.40	9968.34
472.58	10087.71
472.77	10237.50
472.95	10228.14
473.13	10403.68
473.31	10061.96
473.49	10399.00
473.67	10340.49
473.85	10396.66
474.03	10752.42
474.21	10506.66
474.39	10565.18
474.57	10853.06
474.75	10846.04
474.93	10906.90
475.12	10637.73
475.30	11084.78
475.48	10785.19
475.66	10944.34
475.84	11044.99
476.02	11257.98
476.20	11243.93
476.38	11147.97
476.56	11398.41
476.74	11501.39
476.92	11342.24
477.10	11599.70
477.28	11665.23
477.46	11808.00
477.64	11836.09
477.82	11871.20
478.00	12329.94
478.18	12336.96
478.36	12133.34
478.54	12280.79
478.72	12336.96
478.90	12531.23
479.08	12393.14
479.26	12676.34
479.44	12507.82
479.62	12922.10
479.80	12678.68
479.98	13231.05
480.16	13336.37
480.34	12943.16
480.52	13458.08
480.70	13214.66
480.88	13359.78
481.06	13792.78
481.24	13631.28
481.41	13750.65
481.59	14017.47
481.77	14148.54
481.95	14218.75
482.13	14003.43
482.31	14333.44
482.49	14398.98
482.67	14413.02
482.85	14696.22
483.03	14949.00
483.21	15026.24
483.39	14974.75
483.57	15082.41
483.74	15389.02
483.92	15428.81
484.10	15499.03
484.28	15618.39
484.46	15887.56
484.64	15873.51
484.82	15955.43
485.00	15899.26
485.18	16154.38
485.35	16652.91
485.53	16435.24
485.71	16723.13
485.89	16999.31
486.07	17146.76
486.25	16919.73
486.43	16903.35
486.61	17200.60
486.78	17397.20
486.96	17666.36
487.14	17586.79
487.32	17584.44
487.50	17612.53
487.68	17965.95
487.85	18045.53
488.03	18544.06
488.21	18331.08
488.39	18995.79
488.57	18625.98
488.75	18899.83
488.92	19293.04
489.10	19061.32
489.28	19185.37
489.46	19716.67
489.64	19527.09
489.81	19768.16
489.99	19749.44
490.17	19749.44
490.35	20177.76
490.53	20149.67
490.70	20322.87
490.88	20678.63
491.06	20556.93
491.24	20746.51
491.41	20627.14
491.59	20950.14
491.77	21036.74
491.95	21067.16
492.13	21280.15
492.30	21268.45
492.48	21324.62
492.66	21355.05
492.84	21497.82
493.01	21893.37
493.19	21827.84
493.37	22352.12
493.54	22689.15
493.72	22368.50
493.90	22342.75
494.08	22806.18
494.25	22808.52
494.43	23021.51
494.61	23087.04
494.79	23538.77
494.96	23353.87
495.14	23648.77
495.32	23648.77
495.49	23889.85
495.67	24013.90
495.85	23960.06
496.02	24226.89
496.20	24259.65
496.38	24369.66
496.55	24428.17
496.73	24987.56
496.91	24751.17
497.09	25127.99
497.26	25046.07
497.44	25167.78
497.62	25116.29
497.79	25125.65
497.97	25303.53
498.14	25570.35
498.32	25804.41
498.50	25727.17
498.67	26153.15
498.85	25876.96
499.03	26185.91
499.20	26162.51
499.38	26544.02
499.56	26319.32
499.73	26232.72
499.91	26693.81
500.08	26562.74
500.26	26473.80
500.44	27002.76
500.61	27056.59
500.79	26962.97
500.97	27288.31
501.14	27737.69
501.32	27669.81
501.49	27768.12
501.67	27370.22
501.84	27505.98
502.02	27819.61
502.20	27850.03
502.37	28322.82
502.55	27927.27
502.72	28257.29
502.90	27953.02
503.07	27611.30
503.25	28486.66
503.43	28184.73
503.60	28573.26
503.78	28533.47
503.95	28856.46
504.13	28924.34
504.30	29106.90
504.48	28886.89
504.65	29039.03
504.83	29289.46
505.01	29392.45
505.18	29575.01
505.36	29755.23
505.53	29553.94
505.71	29577.35
505.88	29701.40
506.06	29783.32
506.23	29830.13
506.41	30185.89
506.58	30134.40
506.76	29961.20
506.93	30244.40
507.11	30242.06
507.28	30326.32
507.46	29956.52
507.63	30656.34
507.81	30759.32
507.98	30775.70
508.16	30705.49
508.33	30595.48
508.50	30911.46
508.68	30686.76
508.85	31232.11
509.03	31213.38
509.20	31531.70
509.38	31512.97
509.55	31749.37
509.73	31882.78
509.90	31765.75
510.08	31538.72
510.25	31512.97
510.42	32086.40
510.60	32348.54
510.77	32318.12
510.95	32086.40
511.12	32154.28
511.30	32278.33
511.47	32165.98
511.64	32095.77
511.82	32687.92
511.99	32748.78
512.17	32690.26
512.34	32727.71
512.51	33123.26
512.69	32931.34
512.86	33284.76
513.04	33841.81
513.21	33333.91
513.38	33387.74
513.56	33596.05
513.73	33399.44
513.90	33078.79
514.08	33631.16
514.25	33890.96
514.43	34120.33
514.60	34085.22
514.77	34017.35
514.95	34618.86
515.12	33914.36
515.29	34286.51
515.47	34237.36
515.64	34426.94
515.81	34569.71
515.99	34836.53
516.16	34986.33
516.33	34593.12
516.51	34972.28
516.68	34864.62
516.85	34869.30
517.03	34979.31
517.20	35168.89
517.37	35189.95
517.54	34948.88
517.72	35257.83
517.89	35110.38
518.06	35580.82
518.24	35426.35
518.41	35526.99
518.58	35426.35
518.75	35349.11
518.93	35569.12
519.10	35864.03
519.27	36449.16
519.45	36053.61
519.62	35990.42
519.79	36156.60
519.96	36133.19
520.14	36243.20
520.31	36203.41
520.48	36758.11
520.65	36465.55
520.83	36884.50
521.00	36861.10
521.17	36685.56
521.34	37067.06
521.52	37118.56
521.69	36554.49
521.86	37020.25
522.03	37329.20
522.20	37221.54
522.38	37357.29
522.55	37237.92
522.72	37148.98
522.89	37638.15
523.07	37443.89
523.24	37897.95
523.41	37727.10
523.58	37514.11
523.75	37633.47
523.92	37691.99
524.10	38206.90
524.27	38169.46
524.44	38080.52
524.61	38845.87
524.78	38256.06
524.96	38335.63
525.13	38157.75
525.30	38857.57
525.47	38431.60
525.64	38623.52
525.81	38803.74
525.98	38885.66
526.16	38679.69
526.33	38749.91
526.50	38806.08
526.67	38712.46
526.84	38726.50
527.01	38693.74
527.18	39278.87
527.36	39545.69
527.53	39555.05
527.70	39948.26
527.87	39466.11
528.04	39377.17
528.21	39683.78
528.38	39274.19
528.55	39903.79
528.72	39896.77
528.89	39704.85
529.07	39477.82
529.24	39683.78
529.41	39803.15
529.58	39735.27
529.75	40095.72
529.92	40016.14
530.09	39866.34
530.26	40217.43
530.43	40140.19
530.60	39903.79
530.77	40416.37
530.94	40229.13
531.11	40629.36
531.28	40327.43
531.46	40278.28
531.63	40313.39
531.80	40697.24
531.97	40823.62
532.14	41053.00
532.31	40781.49
532.48	40863.41
532.65	40601.27
532.82	40739.36
532.99	40924.27
533.16	40884.48
533.33	41507.06
533.50	41399.40
533.67	41097.47
533.84	41516.42
534.01	40769.79
534.18	40950.01
534.35	41574.94
534.52	41132.57
534.69	41823.03
534.86	41970.49
535.03	41207.47
535.20	41902.61
535.37	42171.77
535.54	41642.81
535.71	41818.35
535.88	41401.74
536.05	42040.70
536.22	42188.16
536.38	42220.92
536.55	41937.72
536.72	42099.22
536.89	41858.14
537.06	42543.92
537.23	42485.40
537.40	42387.10
537.57	42117.94
537.74	42452.64
537.91	42731.16
538.08	42452.64
538.25	42227.95
538.42	42422.21
538.59	42902.02
538.75	42504.13
538.92	42218.58
539.09	42766.27
539.26	43217.99
539.43	42728.82
539.60	43253.10
539.77	42955.85
539.94	43566.73
540.11	43084.58
540.28	43136.07
540.44	43173.52
540.61	42932.45
540.78	43115.01
540.95	43545.67
541.12	43620.56
541.29	43831.21
541.46	43922.49
541.62	43636.95
541.79	43739.93
541.96	43395.87
542.13	43906.11
542.30	43842.92
542.47	43819.51
542.63	44224.42
542.80	44062.93
542.97	44514.65
543.14	44278.25
543.31	44390.60
543.48	44105.06
543.64	44870.41
543.81	44236.12
543.98	44570.82
544.15	44406.98
544.32	44751.04
544.48	45127.87
544.65	44879.77
544.82	44669.12
544.99	44060.58
545.16	44378.90
545.32	44744.02
545.49	44891.48
545.66	45872.16
545.83	45270.64
546.00	45837.05
546.16	45022.54
546.33	44800.19
546.50	44065.27
546.67	45139.57
546.83	44662.10
547.00	45024.89
547.17	45062.33
547.34	44957.01
547.50	44971.05
547.67	45284.68
547.84	44861.05
548.00	45132.55
548.17	45055.31
548.34	45109.14
548.51	45354.90
548.67	45434.48
548.84	45118.51
549.01	45177.02
549.18	45226.17
549.34	45368.94
549.51	45708.32
549.68	45347.88
549.84	45207.45
550.01	45514.06
550.18	45436.82
550.34	45797.26
550.51	45741.09
550.68	45518.74
550.84	45457.88
551.01	45507.04
551.18	45900.25
551.34	45539.80
551.51	45727.05
551.68	45595.98
551.84	45240.21
552.01	45483.63
552.18	45923.65
552.34	45867.48
552.51	45848.75
552.68	46146.00
552.84	46199.83
553.01	45904.93
553.18	46108.55
553.34	46225.58
553.51	46157.70
553.67	46174.09
553.84	46291.12
554.01	46445.59
554.17	46389.42
554.34	45996.21
554.51	46131.96
554.67	46171.75
554.84	46148.34
555.00	46401.12
555.17	46047.70
555.33	46607.09
555.50	45731.73
555.67	46220.90
555.83	46525.17
556.00	46391.76
556.16	46705.39
556.33	46265.37
556.50	46529.85
556.66	46579.00
556.83	46019.61
556.99	46962.85
557.16	46637.51
557.32	46735.82
557.49	46909.02
557.65	46569.64
557.82	46639.86
557.98	46773.27
558.15	46677.30
558.32	46775.61
558.48	46810.71
558.65	47138.39
558.81	46787.31
558.98	46810.71
559.14	46714.75
559.31	46656.24
559.47	46686.67
559.64	47002.64
559.80	47243.71
559.97	47056.47
560.13	46962.85
560.30	47033.07
560.46	47356.06
560.63	46726.46
560.79	46876.25
560.96	47105.62
561.12	46925.40
561.29	46698.37
561.45	46843.48
561.61	46897.31
561.78	47182.86
561.94	47122.01
562.11	47182.86
562.27	46775.61
562.44	46876.25
562.60	47075.19
562.77	46726.46
562.93	47220.31
563.10	47384.15
563.26	46967.53
563.42	47985.66
563.59	46995.62
563.75	47309.25
563.92	47725.86
564.08	47344.36
564.24	47152.43
564.41	47129.03
564.57	47166.48
564.74	47433.30
564.90	47290.52
565.07	47262.44
565.23	47269.46
565.39	47573.73
565.56	47655.65
565.72	47323.29
565.88	47257.76
566.05	47402.87
566.21	47306.91
566.38	47012.00
566.54	47372.44
566.70	47466.06
566.87	47966.94
567.03	47564.37
567.19	47976.30
567.36	47580.75
567.52	47515.22
567.68	47501.17
567.85	47386.49
568.01	47407.55
568.17	47772.67
568.34	47391.17
568.50	47494.15
568.66	47662.67
568.83	47749.27
568.99	47686.07
569.15	47662.67
569.32	47384.15
569.48	47187.54
569.64	47480.11
569.81	47667.35
569.97	47269.46
570.13	47737.57
570.30	47356.06
570.46	47592.45
570.62	47730.54
570.78	47327.97
570.95	47309.25
571.11	47566.71
571.27	47164.14
571.43	47386.49
571.60	47585.43
571.76	47250.74
571.92	48196.31
572.09	47789.06
572.25	47503.51
572.41	47845.23
572.57	47863.96
572.74	48182.27
572.90	47271.80
573.06	47992.68
573.22	47517.56
573.38	47767.99
573.55	48027.79
573.71	48226.74
573.87	47758.63
574.03	47903.74
574.20	47613.52
574.36	47571.39
574.52	47735.23
574.68	47592.45
574.84	48086.31
575.01	47819.49
575.17	47463.72
575.33	47845.23
575.49	47622.88
575.65	47908.43
575.82	47901.40
575.98	47667.35
576.14	48023.11
576.30	47587.77
576.46	47732.89
576.62	47531.60
576.79	47735.23
576.95	47709.48
577.11	48067.58
577.27	47929.49
577.43	47948.21
577.59	47571.39
577.75	48034.81
577.92	47674.37
578.08	47772.67
578.24	47344.36
578.40	47704.80
578.56	47901.40
578.72	47885.02
578.88	48076.94
579.04	48215.04
579.21	47564.37
579.37	47922.47
579.53	47927.15
579.69	47428.62
579.85	47831.19
580.01	47618.20
580.17	47760.97
580.33	48018.43
580.49	48100.35
580.65	48137.80
580.82	47814.80
580.98	47992.68
581.14	47985.66
581.30	48135.46
581.46	47803.10
581.62	48039.50
581.78	47379.46
581.94	47812.46
582.10	47590.11
582.26	47775.02
582.42	47980.98
582.58	48292.27
582.74	47585.43
582.90	47840.55
583.06	48051.20
583.22	47599.47
583.38	47828.85
583.54	47707.14
583.70	47866.30
583.86	47606.50
584.02	47709.48
584.18	48231.42
584.34	48203.33
584.50	48083.97
584.66	48069.92
584.82	47613.52
584.98	47693.10
585.14	48053.54
585.30	48020.77
585.46	47999.71
585.62	47943.53
585.78	47927.15
585.94	47503.51
586.10	48140.14
586.26	47908.43
586.42	48034.81
586.58	48259.51
586.74	47746.93
586.90	47969.28
587.06	47555.00
587.22	48273.55
587.38	47950.56
587.54	48048.86
587.70	47983.32
587.86	47847.57
588.02	48016.09
588.18	48095.67
588.34	48046.52
588.49	48404.62
588.65	47927.15
588.81	47800.76
588.97	48121.41
589.13	47859.27
589.29	47814.80
589.45	47931.83
589.61	48158.86
589.77	48767.40
589.93	48336.74
590.08	48226.74
590.24	48409.30
590.40	48051.20
590.56	48102.69
590.72	48011.41
590.88	47634.58
591.04	47863.96
591.20	47917.79
591.35	48292.27
591.51	48406.96
591.67	47950.56
591.83	48367.17
591.99	48381.21
592.15	48037.16
592.31	48140.14
592.46	48067.58
592.62	48095.67
592.78	48065.24
592.94	48383.55
593.10	48135.46
593.26	48320.36
593.41	48200.99
593.57	48327.38
593.73	48182.27
593.89	48287.59
594.05	47763.31
594.20	47990.34
594.36	48488.88
594.52	47702.46
594.68	48329.72
594.84	47662.67
594.99	48289.93
595.15	48147.16
595.31	48030.13
595.47	48465.47
595.62	48240.78
595.78	48432.71
595.94	47995.03
596.10	48292.27
596.25	48156.52
596.41	47931.83
596.57	48198.65
596.73	48303.98
596.88	48165.88
597.04	48343.77
597.20	48385.89
597.36	48353.13
597.51	48280.57
597.67	48083.97
597.83	48074.60
597.99	48158.86
598.14	47784.38
598.30	48114.39
598.46	48222.06
598.61	48238.44
598.77	48189.29
598.93	48477.18
599.09	48416.32
599.24	48648.03
599.40	48088.65
599.56	48142.48
599.71	48435.05
599.87	48193.97
600.03	47952.90
600.18	48011.41
600.34	48231.42
600.50	48200.99
600.65	48172.91
600.81	47997.37
600.97	48072.26
601.12	48048.86
601.28	48245.46
601.44	48329.72
601.59	48102.69
601.75	47821.83
601.91	48067.58
602.06	47885.02
602.22	47849.91
602.37	48121.41
602.53	48018.43
602.69	48123.75
602.84	47936.51
603.00	48011.41
603.16	48381.21
603.31	47983.32
603.47	48079.28
603.62	47779.70
603.78	47770.33
603.94	47948.21
604.09	47782.04
604.25	47950.56
604.40	47936.51
604.56	48238.44
604.71	48514.62
604.87	47693.10
605.03	47632.24
605.18	47887.36
605.34	48016.09
605.49	47430.96
605.65	47569.05
605.80	47648.63
605.96	47739.91
606.12	47819.49
606.27	47948.21
606.43	47622.88
606.58	48116.73
606.74	48100.35
606.89	48027.79
607.05	47938.85
607.20	47775.02
607.36	47407.55
607.51	47466.06
607.67	47491.81
607.82	47655.65
607.98	47419.25
608.13	47384.15
608.29	47821.83
608.44	47913.11
608.60	47566.71
608.75	47735.23
608.91	48105.03
609.06	47650.97
609.22	47828.85
609.37	47426.28
609.53	47758.63
609.68	47381.80
609.84	47379.46
609.99	47519.90
610.15	47765.65
610.30	48032.47
610.46	47676.71
610.61	47854.59
610.76	48385.89
610.92	48119.07
611.07	48208.01
611.23	48584.84
611.38	48200.99
611.54	47779.70
611.69	47655.65
611.84	47739.91
612.00	47124.35
612.15	47363.08
612.31	47519.90
612.46	46958.17
612.62	47917.79
612.77	47388.83
612.92	47468.40
613.08	47512.88
613.23	47271.80
613.39	47351.38
613.54	46948.81
613.69	47077.54
613.85	46981.57
614.00	47281.16
614.15	47215.63
614.31	47096.26
614.46	47037.75
614.62	47047.11
614.77	47054.13
614.92	47456.70
615.08	47042.43
615.23	46789.65
615.38	47227.33
615.54	46726.46
615.69	46857.52
615.84	46244.30
616.00	46639.86
616.15	46770.93
616.30	46918.38
616.46	46780.29
616.61	46630.49
616.76	46740.50
616.92	46593.04
617.07	46541.55
617.22	46571.98
617.37	46485.38
617.53	46604.75
617.68	46277.07
617.83	46377.72
617.99	46499.42
618.14	46036.00
618.29	46396.44
618.45	46789.65
618.60	46087.49
618.75	46026.63
618.90	45928.33
619.06	46279.41
619.21	46389.42
619.36	46403.46
619.51	46064.08
619.67	45649.81
619.82	46316.86
619.97	46164.73
620.12	45411.07
620.28	45460.23
620.43	45996.21
620.58	46454.95
620.73	45986.85
620.89	45860.46
621.04	46176.43
621.19	46066.42
621.34	46043.02
621.49	45893.22
621.65	45743.43
621.80	45883.86
621.95	45441.50
622.10	45893.22
622.25	45729.39
622.41	45680.24
622.56	45574.91
622.71	46010.25
622.86	45488.31
623.01	45755.13
623.16	45551.51
623.32	45366.60
623.47	45219.15
623.62	45059.99
623.77	45301.07
623.92	45191.06
624.07	45254.26
624.23	45773.86
624.38	45137.23
624.53	45399.37
624.68	45401.71
624.83	45485.97
624.98	45525.76
625.13	45198.09
625.29	44914.88
625.44	45034.25
625.59	45221.49
625.74	44601.25
625.89	45172.34
626.04	44865.73
626.19	44608.27
626.34	44608.27
626.49	44685.51
626.65	44453.79
626.80	45338.52
626.95	44818.92
627.10	45251.92
627.25	44538.05
627.40	44872.75
627.55	44975.73
627.70	44423.37
627.85	44774.45
628.00	44449.11
628.15	44278.25
628.30	44189.31
628.45	44540.39
628.60	44186.97
628.76	44839.98
628.91	44318.04
629.06	44353.15
629.21	44495.92
629.36	44296.98
629.51	44367.20
629.66	44542.74
629.81	44044.20
629.96	44287.62
630.11	44409.32
630.26	44107.40
630.41	43796.10
630.56	44128.46
630.71	44301.66
630.86	44392.94
631.01	44332.09
631.16	44418.69
631.31	44156.55
631.46	44397.62
631.61	43981.01
631.76	43885.04
631.91	43660.35
632.06	44076.97
632.21	43688.44
632.36	43796.10
632.51	43508.22
632.66	43384.17
632.81	43407.58
632.96	43770.36
633.10	43920.15
633.25	43456.73
633.40	43873.34
633.55	43732.91
633.70	43625.25
633.85	43438.00
634.00	43643.97
634.15	43232.04
634.30	43012.02
634.45	43433.32
634.60	43243.74
634.75	43428.64
634.90	43112.67
635.05	43264.80
635.19	43339.70
635.34	43320.98
635.49	43124.37
635.64	43227.35
635.79	43100.97
635.94	42707.76
636.09	42880.95
636.24	42887.98
636.39	43014.37
636.53	43154.80
636.68	42560.30
636.83	43075.22
636.98	43037.77
637.13	42803.72
637.28	43019.05
637.43	43433.32
637.57	43019.05
637.72	42576.69
637.87	42857.55
638.02	42623.50
638.17	42485.40
638.32	42532.22
638.46	42277.10
638.61	42314.55
638.76	42515.83
638.91	42607.11
639.06	42354.33
639.20	42408.17
639.35	42803.72
639.50	42693.71
639.65	42794.36
639.80	42611.79
639.94	42146.03
640.09	42103.90
640.24	42169.43
640.39	42117.94
640.54	41769.20
640.68	42110.92
640.83	42139.00
640.98	41759.84
641.13	41661.54
641.27	42197.52
641.42	41940.06
641.57	41816.01
641.72	42127.30
641.86	42099.22
642.01	42050.06
642.16	41858.14
642.31	41626.43
642.45	42068.79
642.60	41551.53
642.75	41621.75
642.90	41787.92
643.04	41530.47
643.19	41848.78
643.34	41483.66
643.48	41830.05
643.63	41944.74
643.78	41563.23
643.93	41610.04
644.07	41600.68
644.22	41724.73
644.37	41619.41
644.51	41476.63
644.66	41537.49
644.81	41567.91
644.95	41249.60
645.10	41216.83
645.25	41413.44
645.39	41223.86
645.54	41380.67
645.69	41729.41
645.83	41247.26
645.98	41415.78
646.13	41752.82
646.27	41586.64
646.42	41462.59
646.57	40966.40
646.71	41350.24
646.86	41113.85
647.00	41233.22
647.15	41076.40
647.30	41249.60
647.44	40573.19
647.59	40870.43
647.74	40725.32
647.88	40432.75
648.03	41153.64
648.17	41324.50
648.32	41090.44
648.47	41237.90
648.61	40921.93
648.76	40905.54
648.90	40622.34
649.05	40650.42
649.20	40608.29
649.34	40842.35
649.49	40432.75
649.63	40308.71
649.78	40687.87
649.92	40339.13
650.07	41212.15
650.21	40807.24
650.36	40481.91
650.51	40339.13
650.65	40739.36
650.80	40584.89
650.94	40350.84
651.09	40385.94
651.23	40004.44
651.38	40418.71
651.52	40086.36
651.67	40287.64
651.81	40060.61
651.96	40669.15
652.10	40109.76
652.25	39749.32
652.39	40182.32
652.54	40172.96
652.68	40287.64
652.83	39978.69
652.97	40257.21
653.12	40304.02
653.26	39903.79
653.41	40177.64
653.55	39847.62
653.70	39931.88
653.84	40067.63
653.99	39730.59
654.13	39817.19
654.27	39739.96
654.42	39871.03
654.56	39519.95
654.71	39838.26
654.85	39821.87
655.00	39796.13
655.14	39793.79
655.29	39775.06
655.43	39620.59
655.57	39313.98
655.72	39054.18
655.86	39229.72
656.01	39203.97
656.15	38859.91
656.30	39061.20
656.44	38965.24
656.58	39030.77
656.73	39438.03
656.87	39498.88
657.01	39344.41
657.16	39604.20
657.30	39152.48
657.45	39180.57
657.59	39136.10
657.73	38719.48
657.88	38740.55
658.02	39122.05
658.16	38871.62
658.31	38742.89
658.45	38993.32
658.60	38396.49
658.74	38693.74
658.88	38506.49
659.03	38827.15
659.17	38232.65
659.31	38469.04
659.46	38419.89
659.60	38806.08
659.74	38635.22
659.89	38352.02
660.03	38267.76
660.17	38555.64
660.32	38080.52
660.46	38150.73
660.60	38192.86
660.74	37823.06
660.89	38026.68
661.03	37336.23
661.17	38050.09
661.32	37748.16
661.46	38113.28
661.60	37947.11
661.74	38078.18
661.89	37495.38
662.03	37949.45
662.17	37481.34
662.31	37521.13
662.46	37741.14
662.60	37305.80
662.74	37050.68
662.88	37233.24
663.03	36959.40
663.17	37401.76
663.31	37167.71
663.45	36804.92
663.60	37380.70
663.74	37432.19
663.88	37212.18
664.02	37013.23
664.17	37221.54
664.31	36779.18
664.45	36823.65
664.59	36744.07
664.73	36952.38
664.88	36905.57
665.02	36484.27
665.16	36383.63
665.30	36414.05
665.44	36634.06
665.59	36484.27
665.73	36400.01
665.87	36119.15
666.01	36526.40
666.15	36575.55
666.29	36388.31
666.44	36788.54
666.58	36201.07
666.72	35892.12
666.86	35983.40
667.00	36252.56
667.14	35695.51
667.28	35887.43
667.43	35747.00
667.57	35985.74
667.71	35562.10
667.85	35541.03
667.99	35655.72
668.13	35438.05
668.27	35569.12
668.41	35515.29
668.56	35426.35
668.70	35416.99
668.84	35658.06
668.98	35662.74
669.12	35290.60
669.26	35292.94
669.40	35285.92
669.54	35019.10
669.68	35126.76
669.82	34375.45
669.96	34721.85
670.10	34412.90
670.25	34644.61
670.39	34888.03
670.53	34703.12
670.67	34085.22
670.81	34951.22
670.95	34749.93
671.09	34637.59
671.23	34672.70
671.37	34455.03
671.51	34939.52
671.65	34349.70
671.79	34291.19
671.93	33935.43
672.07	33778.61
672.21	34010.32
672.35	33574.98
672.49	33996.28
672.63	33589.03
672.77	33462.64
672.91	33373.70
673.05	33614.77
673.19	33663.93
673.33	33479.02
673.47	33436.89
673.61	33268.37
673.75	33436.89
673.89	33362.00
674.03	33055.39
674.17	32994.53
674.31	32975.81
674.45	32858.78
674.59	32964.10
674.73	32507.70
674.87	32465.57
675.01	32587.28
675.15	32512.38
675.29	32236.20
675.43	32388.33
675.56	32297.05
675.70	32254.92
675.84	32297.05
675.98	31637.02
676.12	32123.85
676.26	32708.99
676.40	32456.21
676.54	31999.80
676.68	31637.02
676.82	31229.77
676.96	31150.19
677.10	31564.46
677.23	31332.75
677.37	31295.30
677.51	31040.18
677.65	31426.37
677.79	30689.10
677.93	30803.79
678.07	30895.07
678.21	30838.90
678.34	30761.66
678.48	30761.66
678.62	30398.88
678.76	30232.70
678.90	30125.04
679.04	30005.67
679.18	30143.76
679.31	29633.52
679.45	29638.20
679.59	29830.13
679.73	29661.61
679.87	29275.42
680.00	29450.96
680.14	29399.47
680.28	29123.29
680.42	29476.71
680.56	29064.77
680.70	29465.00
680.83	29137.33
680.97	28856.46
681.11	29088.18
681.25	29120.95
681.39	28556.88
681.52	28783.91
681.66	29024.98
681.80	28694.97
681.94	28374.31
682.07	28212.82
682.21	27941.32
682.35	28016.21
682.49	27857.06
682.62	27557.47
682.76	27655.77
682.90	27960.04
683.04	28093.45
683.17	27922.59
683.31	27513.00
683.45	27768.12
683.59	27402.99
683.72	27290.65
683.86	27159.58
684.00	27049.57
684.13	27433.42
684.27	26668.06
684.41	26698.49
684.55	26497.20
684.68	26738.28
684.82	26188.25
684.96	26597.85
685.09	26178.89
685.23	25998.67
685.37	26277.19
685.50	26300.60
685.64	26291.24
685.78	26225.70
685.91	26120.38
686.05	26099.31
686.19	25811.43
686.32	25696.74
686.46	25106.93
686.60	25324.60
686.73	25441.62
686.87	25479.07
687.01	25256.72
687.14	24950.11
687.28	25090.54
687.42	25015.65
687.55	24821.38
687.69	24533.50
687.82	24606.05
687.96	24889.26
688.10	24690.31
688.23	24547.54
688.37	25015.65
688.50	24456.26
688.64	24116.88
688.78	24261.99
688.91	24196.46
689.05	24231.57
689.18	23953.04
689.32	23335.14
689.46	23571.54
689.59	23590.26
689.73	23295.35
689.86	23014.49
690.00	23044.91
690.13	23119.81
690.27	23206.41
690.41	23225.14
690.54	23110.45
690.68	23183.01
690.81	22705.54
690.95	23070.66
691.08	22792.14
691.22	22918.53
691.35	22738.30
691.49	22721.92
691.62	22473.82
691.76	22146.15
691.89	21919.12
692.03	21977.63
692.16	22157.85
692.30	21876.99
692.43	21799.75
692.57	21923.80
692.70	21797.41
692.84	21689.74
692.97	21556.33
693.11	21525.91
693.24	21331.64
693.38	21666.34
693.51	21170.15
693.65	21518.89
693.78	21315.26
693.92	21317.60
694.05	20861.19
694.19	20858.85
694.32	20842.47
694.45	20908.01
694.59	20350.96
694.72	20542.88
694.86	20430.54
694.99	20432.88
695.13	20339.26
695.26	20121.59
695.39	19880.51
695.53	19920.30
695.66	20020.94
695.80	20126.27
695.93	20156.69
696.07	19623.05
696.20	19880.51
696.33	19922.64
696.47	19702.63
696.60	19569.22
696.73	19302.40
696.87	19098.77
697.00	19239.20
697.14	18988.77
697.27	18724.29
697.40	18773.44
697.54	18637.69
697.67	18588.53
697.80	18609.60
697.94	18415.34
698.07	18640.03
698.21	18347.46
698.34	18618.96
698.47	18637.69
698.61	18209.37
698.74	17951.91
698.87	18317.03
699.01	18054.89
699.14	17874.67
699.27	17820.84
699.40	18202.35
699.54	17523.59
699.67	17516.57
699.80	17128.04
699.94	17170.17
700.07	17209.96
700.20	17188.89
700.34	16947.82
700.47	17106.98
700.60	16952.50
700.73	17071.87
700.87	17041.44
701.00	16978.25
701.13	17207.62
701.26	16627.17
701.40	16695.04
701.53	16851.86
701.66	16671.64
701.79	16416.52
701.93	16430.56
702.06	16259.70
702.19	16079.48
702.32	16102.89
702.46	15754.15
702.59	16009.26
702.72	15807.98
702.85	15639.46
702.99	15969.48
703.12	15815.00
703.25	15625.42
703.38	15737.76
703.51	15566.90
703.65	15353.91
703.78	15166.67
703.91	15075.39
704.04	15506.05
704.17	15332.85
704.31	14902.19
704.44	15042.62
704.57	15066.03
704.70	14995.81
704.83	14747.72
704.96	14717.29
705.10	14539.41
705.23	14490.26
>>>>>End Processed Spectral Data<<<<<
