SpectraSuite Data File
++++++++++++++++++++++++++++++++++++
Date: Fri Oct 04 11:39:22 GMT-05:00 2013
User: price-jones
Dark Spectrum Present: No
Reference Spectrum Present: No
Number of Sampled Component Spectra: 1
Spectrometers: USB2+H05261
Integration Time (usec): 100000 (USB2+H05261)
Spectra Averaged: 1 (USB2+H05261)
Boxcar Smoothing: 0 (USB2+H05261)
Correct for Electrical Dark: No (USB2+H05261)
Strobe/Lamp Enabled: No (USB2+H05261)
Correct for Detector Non-linearity: No (USB2+H05261)
Correct for Stray Light: No (USB2+H05261)
Number of Pixels in Processed Spectrum: 2048
>>>>>Begin Processed Spectral Data<<<<<
365.73	135.75
365.92	135.75
366.12	135.75
366.32	0.00
366.52	0.00
366.72	4.68
366.91	0.00
367.11	0.00
367.31	0.00
367.51	0.00
367.70	0.00
367.90	25.75
368.10	0.00
368.30	0.00
368.49	0.00
368.69	32.77
368.89	0.00
369.09	0.00
369.28	0.00
369.48	0.00
369.68	2.34
369.87	30.43
370.07	0.00
370.27	67.88
370.47	46.81
370.66	215.33
370.86	283.20
371.06	273.84
371.25	222.35
371.45	290.23
371.65	252.78
371.84	280.86
372.04	313.63
372.24	290.23
372.44	271.50
372.63	292.57
372.83	304.27
373.03	301.93
373.22	344.06
373.42	315.97
373.62	337.04
373.81	351.08
374.01	404.91
374.21	332.36
374.40	353.42
374.60	351.08
374.79	299.59
374.99	418.96
375.19	355.76
375.38	388.53
375.58	374.49
375.78	402.57
375.97	346.40
376.17	376.83
376.37	341.72
376.56	421.30
376.76	358.10
376.95	299.59
377.15	393.21
377.35	433.00
377.54	383.85
377.74	404.91
377.93	358.10
378.13	404.91
378.33	493.85
378.52	482.15
378.72	332.36
378.91	369.80
379.11	423.64
379.31	379.17
379.50	390.87
379.70	435.34
379.89	458.74
380.09	416.62
380.28	341.72
380.48	461.09
380.68	365.12
380.87	414.27
381.07	454.06
381.26	433.00
381.46	447.04
381.65	489.17
381.85	418.96
382.04	447.04
382.24	468.11
382.43	437.68
382.63	451.72
382.83	440.02
383.02	486.83
383.22	526.62
383.41	433.00
383.61	484.49
383.80	550.03
384.00	442.36
384.19	414.27
384.39	430.66
384.58	486.83
384.78	500.87
384.97	482.15
385.17	484.49
385.36	458.74
385.56	524.28
385.75	475.13
385.95	547.69
386.14	528.96
386.34	517.26
386.53	524.28
386.72	442.36
386.92	566.41
387.11	561.73
387.31	540.66
387.50	550.03
387.70	468.11
387.89	526.62
388.09	582.79
388.28	519.60
388.48	505.56
388.67	561.73
388.86	535.98
389.06	484.49
389.25	601.52
389.45	552.37
389.64	636.63
389.84	589.82
390.03	582.79
390.22	631.94
390.42	671.73
390.61	531.30
390.81	585.13
391.00	587.47
391.19	667.05
391.39	566.41
391.58	535.98
391.78	617.90
391.97	692.80
392.16	713.86
392.36	676.41
392.55	711.52
392.75	660.03
392.94	688.12
393.13	683.44
393.33	744.29
393.52	741.95
393.71	732.59
393.91	648.33
394.10	702.16
394.29	681.10
394.49	706.84
394.68	777.06
394.88	763.01
395.07	777.06
395.26	805.14
395.46	746.63
395.65	718.54
395.84	837.91
396.04	877.70
396.23	858.98
396.42	737.27
396.62	802.80
396.81	812.17
397.00	856.64
397.19	910.47
397.39	891.74
397.58	770.04
397.77	849.61
397.97	847.27
398.16	858.98
398.35	814.51
398.55	840.25
398.74	992.39
398.93	964.30
399.12	915.15
399.32	973.66
399.51	924.51
399.70	999.41
399.90	954.94
400.09	940.90
400.28	1046.22
400.47	945.58
400.67	1022.81
400.86	987.71
401.05	1015.79
401.24	980.68
401.44	1050.90
401.63	1006.43
401.82	1097.71
402.01	1055.58
402.21	1111.75
402.40	1055.58
402.59	1041.54
402.78	1032.18
402.97	1064.94
403.17	1128.14
403.36	1137.50
403.55	1123.46
403.74	1055.58
403.93	1177.29
404.13	1203.04
404.32	1273.25
404.51	1203.04
404.70	1259.21
404.89	1193.67
405.09	1350.49
405.28	1242.82
405.47	1186.65
405.66	1303.68
405.85	1289.64
406.05	1287.29
406.24	1352.83
406.43	1376.24
406.62	1376.24
406.81	1369.21
407.00	1299.00
407.20	1266.23
407.39	1376.24
407.58	1376.24
407.77	1460.49
407.96	1511.99
408.15	1509.65
408.34	1558.80
408.54	1600.93
408.73	1558.80
408.92	1577.52
409.11	1540.07
409.30	1535.39
409.49	1537.73
409.68	1633.69
409.87	1643.06
410.07	1619.65
410.26	1668.80
410.45	1624.33
410.64	1675.82
410.83	1708.59
411.02	1605.61
411.21	1785.83
411.40	1823.28
411.59	1717.95
411.78	1785.83
411.98	1748.38
412.17	1830.30
412.36	1834.98
412.55	1933.28
412.74	1849.02
412.93	1942.64
413.12	1893.49
413.31	2057.33
413.50	1987.11
413.69	1996.48
413.88	2047.97
414.07	2062.01
414.26	2057.33
414.45	2186.06
414.64	2092.44
414.83	2260.96
415.02	2064.35
415.22	2303.09
415.41	2216.49
415.60	2300.75
415.79	2256.28
415.98	2422.45
416.17	2328.83
416.36	2363.94
416.55	2399.05
416.74	2525.44
416.93	2312.45
417.12	2272.66
417.31	2509.05
417.50	2422.45
417.69	2637.78
417.88	2523.10
418.07	2530.12
418.26	2555.86
418.45	2511.39
418.64	2696.30
418.83	2670.55
419.02	2677.57
419.21	2708.00
419.39	2644.81
419.58	2708.00
419.77	2726.72
419.96	2717.36
420.15	2834.39
420.34	2724.38
420.53	2780.56
420.72	2862.48
420.91	2853.11
421.10	2827.37
421.29	2951.42
421.48	2825.03
421.67	2836.73
421.86	2813.32
422.05	2986.52
422.24	2736.09
422.43	2839.07
422.61	2932.69
422.80	2878.86
422.99	2972.48
423.18	3091.85
423.37	3054.40
423.56	2986.52
423.75	2928.01
423.94	2832.05
424.13	2700.98
424.32	2963.12
424.50	2911.63
424.69	3005.25
424.88	3082.49
425.07	3105.89
425.26	3075.46
425.45	2953.76
425.64	3101.21
425.83	3197.17
426.01	3159.72
426.20	3040.36
426.39	3063.76
426.58	3084.83
426.77	3138.66
426.96	3187.81
427.15	3094.19
427.33	3068.44
427.52	3241.64
427.71	3220.58
427.90	3316.54
428.09	3337.60
428.28	3332.92
428.46	3346.97
428.65	3265.05
428.84	3424.20
429.03	3302.50
429.22	3201.85
429.40	3353.99
429.59	3389.10
429.78	3243.98
429.97	3405.48
430.16	3372.71
430.34	3466.33
430.53	3506.12
430.72	3391.44
430.91	3480.38
431.10	3468.67
431.28	3485.06
431.47	3592.72
431.66	3620.81
431.85	3492.08
432.03	3641.87
432.22	3740.18
432.41	3765.92
432.60	3674.64
432.79	3630.17
432.97	3611.45
433.16	3545.91
433.35	3662.94
433.54	3700.39
433.72	3796.35
433.91	3843.16
434.10	3815.07
434.28	3880.61
434.47	3822.09
434.66	3735.50
434.85	3911.04
435.03	4042.11
435.22	4049.13
435.41	4477.44
435.59	4407.23
435.78	4145.09
435.97	4102.96
436.16	4114.66
436.34	3913.38
436.53	3981.25
436.72	3983.59
436.90	4023.38
437.09	3943.80
437.28	3803.37
437.46	4065.51
437.65	4086.58
437.84	4227.01
438.02	4194.24
438.21	4159.13
438.40	4114.66
438.58	4287.86
438.77	4411.91
438.96	4280.84
439.14	4358.08
439.33	4383.82
439.52	4451.70
439.70	4414.25
439.89	4491.49
440.08	4657.67
440.26	4407.23
440.45	4589.79
440.63	4613.20
440.82	4709.16
441.01	4699.80
441.19	4645.96
441.38	4772.35
441.57	4578.09
441.75	4896.40
441.94	4961.94
442.12	5067.26
442.31	5013.43
442.50	4823.84
442.68	4987.68
442.87	5107.05
443.05	4919.81
443.24	5104.71
443.43	5085.98
443.61	5128.11
443.80	5296.63
443.98	5060.24
444.17	4908.10
444.35	5062.58
444.54	5006.41
444.73	5078.96
444.91	5156.20
445.10	5118.75
445.28	5111.73
445.47	5170.24
445.65	5088.32
445.84	5142.16
446.02	5254.50
446.21	5160.88
446.39	5252.16
446.58	5294.29
446.77	5596.22
446.95	5184.29
447.14	5284.93
447.32	5305.99
447.51	5350.46
447.69	5242.80
447.88	5242.80
448.06	5355.15
448.25	5329.40
448.43	5418.34
448.62	5310.68
448.80	5207.69
448.99	5451.11
449.17	5341.10
449.36	5310.68
449.54	5371.53
449.73	5362.17
449.91	5579.84
450.10	5598.56
450.28	5631.33
450.46	5720.27
450.65	5565.79
450.83	5610.26
451.02	5472.17
451.20	5783.46
451.39	5680.48
451.57	5628.99
451.76	5619.63
451.94	5701.54
452.13	5926.24
452.31	5818.57
452.49	5598.56
452.68	5856.02
452.86	5799.85
453.05	5823.25
453.23	5785.80
453.42	5863.04
453.60	5746.02
453.78	5816.23
453.97	5802.19
454.15	6022.20
454.34	5851.34
454.52	5940.28
454.70	5954.32
454.89	5968.37
455.07	6010.50
455.26	5928.58
455.44	6235.19
455.62	6099.44
455.81	6066.67
455.99	6150.93
456.17	6076.03
456.36	6303.06
456.54	6384.98
456.73	6307.74
456.91	6356.90
457.09	6387.32
457.28	6588.61
457.46	6352.21
457.64	6576.91
457.83	6693.93
458.01	6499.67
458.19	6649.46
458.38	6754.79
458.56	6569.88
458.74	6541.80
458.93	6588.61
459.11	6731.38
459.29	6520.73
459.48	6628.40
459.66	6558.18
459.84	6644.78
460.03	6759.47
460.21	6729.04
460.39	6736.06
460.57	6745.42
460.76	6759.47
460.94	6909.26
461.12	6932.67
461.31	6988.84
461.49	6916.28
461.67	6740.74
461.85	7129.27
462.04	6843.73
462.22	7548.23
462.40	6979.48
462.59	6995.86
462.77	7288.43
462.95	7304.81
463.13	7267.36
463.32	6984.16
463.50	7405.46
463.68	7110.55
463.86	7229.91
464.05	7047.35
464.23	7290.77
464.41	7222.89
464.59	7211.19
464.78	7410.14
464.96	7288.43
465.14	7229.91
465.32	7447.58
465.50	7562.27
465.69	7557.59
465.87	7314.17
466.05	7534.18
466.23	7307.15
466.41	7520.14
466.60	7742.49
466.78	7482.69
466.96	7459.29
467.14	7597.38
467.32	7681.64
467.51	7683.98
467.69	7454.61
467.87	7644.19
468.05	7786.96
468.23	7761.22
468.41	7583.34
468.60	7735.47
468.78	7997.61
468.96	7730.79
469.14	7934.42
469.32	7997.61
469.50	7772.92
469.69	8098.25
469.87	8121.66
470.05	8065.49
470.23	8154.43
470.41	8294.86
470.59	8156.77
470.77	8278.47
470.95	8112.30
471.14	8257.41
471.32	8189.53
471.50	8294.86
471.68	8308.90
471.86	8461.04
472.04	8414.23
472.22	8601.47
472.40	8308.90
472.58	8697.43
472.77	8575.72
472.95	8781.69
473.13	8779.35
473.31	8528.91
473.49	8760.63
473.67	8631.90
473.85	8760.63
474.03	8908.08
474.21	8608.49
474.39	8952.55
474.57	9090.64
474.75	9121.07
474.93	9193.62
475.12	9167.88
475.30	9167.88
475.48	9305.97
475.66	9240.44
475.84	9235.75
476.02	9259.16
476.20	9355.12
476.38	9430.02
476.56	9788.12
476.74	9713.22
476.92	9635.99
477.10	9598.54
477.28	9699.18
477.46	9811.53
477.64	10064.30
477.82	9944.94
478.00	10181.33
478.18	10272.61
478.36	10396.66
478.54	10579.22
478.72	10558.16
478.90	10586.24
479.08	10298.36
479.26	10815.62
479.44	10684.55
479.62	11005.20
479.80	11108.18
479.98	11152.65
480.16	11342.24
480.34	11108.18
480.52	11510.75
480.70	11442.88
480.88	11232.23
481.06	11562.25
481.24	11173.72
481.41	11653.53
481.59	11836.09
481.77	11824.39
481.95	11805.66
482.13	11943.75
482.31	12100.57
482.49	12301.86
482.67	12453.99
482.85	12306.54
483.03	12458.67
483.21	12964.23
483.39	12898.69
483.57	12744.22
483.74	12940.82
483.92	12975.93
484.10	13039.12
484.28	13228.71
484.46	13547.02
484.64	13589.15
484.82	13404.25
485.00	13549.36
485.18	13715.54
485.35	14113.43
485.53	13769.37
485.71	14218.75
485.89	14410.68
486.07	14054.92
486.25	14260.88
486.43	14380.25
486.61	14628.35
486.78	14789.85
486.96	14869.42
487.14	14867.08
487.32	15077.73
487.50	14937.30
487.68	15059.01
487.85	15328.17
488.03	15330.51
488.21	15571.58
488.39	15604.35
488.57	15763.51
488.75	16039.69
488.92	16154.38
489.10	16472.69
489.28	16168.42
489.46	16346.30
489.64	16435.24
489.81	16938.46
489.99	16589.72
490.17	16816.75
490.35	17062.51
490.53	17011.01
490.70	17085.91
490.88	17198.26
491.06	17242.73
491.24	17642.96
491.41	17392.52
491.59	17687.43
491.77	17846.58
491.95	18050.21
492.13	18202.35
492.30	18281.92
492.48	18228.09
492.66	18087.66
492.84	18448.10
493.01	18810.89
493.19	18750.03
493.37	19281.33
493.54	18738.33
493.72	19304.74
493.90	19363.25
494.08	19253.25
494.25	19379.64
494.43	19323.46
494.61	19910.94
494.79	19894.55
494.96	19758.80
495.14	19988.18
495.32	19917.96
495.49	20388.41
495.67	20205.84
495.85	20294.79
496.02	20418.83
496.20	20680.97
496.38	20414.15
496.55	20601.40
496.73	20919.71
496.91	20732.47
497.09	21039.08
497.26	21460.37
497.44	21350.37
497.62	21757.62
497.79	21397.18
497.97	21326.96
498.14	21926.14
498.32	22129.77
498.50	22139.13
498.67	22235.09
498.85	22352.12
499.03	22141.47
499.20	22157.85
499.38	22387.22
499.56	22225.73
499.73	22361.48
499.91	22794.48
500.08	23089.38
500.26	22682.13
500.44	22794.48
500.61	22841.29
500.79	23051.94
500.97	23122.15
501.14	23084.70
501.32	23330.46
501.49	23379.61
501.67	23377.27
501.84	23604.30
502.02	23229.82
502.20	23623.03
502.37	23819.63
502.55	23714.31
502.72	23789.20
502.90	24023.26
503.07	23880.49
503.25	23924.96
503.43	24151.99
503.60	24592.01
503.78	24287.74
503.95	24191.78
504.13	24247.95
504.30	24294.76
504.48	24659.88
504.65	24929.05
504.83	24989.90
505.01	24797.98
505.18	24943.09
505.36	25436.94
505.53	25226.29
505.71	25069.48
505.88	25209.91
506.06	25202.89
506.23	25322.26
506.41	25223.95
506.58	25645.25
506.76	25469.71
506.93	25841.85
507.11	25977.61
507.28	25879.30
507.46	26153.15
507.63	25839.51
507.81	26122.72
507.98	26230.38
508.16	26195.28
508.33	26019.74
508.50	26494.86
508.68	26698.49
508.85	26710.19
509.03	26647.00
509.20	27035.53
509.38	26885.73
509.55	26977.01
509.73	26946.59
509.90	27044.89
510.08	27187.66
510.25	27063.61
510.42	27360.86
510.60	27461.51
510.77	27587.89
510.95	27653.43
511.12	27524.70
511.30	27665.13
511.47	27899.19
511.64	27938.97
511.82	28203.46
511.99	28231.54
512.17	28540.49
512.34	27974.08
512.51	28332.18
512.69	28238.56
512.86	28409.42
513.04	28753.48
513.21	28882.21
513.38	28425.81
513.56	29039.03
513.73	28634.11
513.90	28943.06
514.08	28425.81
514.25	28907.96
514.43	29261.38
514.60	29282.44
514.77	29315.21
514.95	29528.20
515.12	29165.42
515.29	29619.48
515.47	29921.41
515.64	29734.17
515.81	29104.56
515.99	29872.26
516.16	30115.67
516.33	29888.64
516.51	30279.51
516.68	30047.80
516.85	29837.15
517.03	29989.28
517.20	30539.31
517.37	30033.75
517.54	30260.79
517.72	30424.62
517.89	30092.27
518.06	30361.43
518.24	30717.19
518.41	30511.22
518.58	30771.02
518.75	30810.81
518.93	30993.37
519.10	31044.87
519.27	31173.60
519.45	30916.14
519.62	31192.32
519.79	31159.55
519.96	31133.81
520.14	31477.86
520.31	31487.23
520.48	31541.06
520.65	31854.69
520.83	31468.50
521.00	31751.71
521.17	31477.86
521.34	31857.03
521.52	31945.97
521.69	31908.52
521.86	32100.45
522.03	32217.47
522.20	32587.28
522.38	32561.53
522.55	32488.98
522.72	32222.16
522.89	32275.99
523.07	32704.31
523.24	32233.86
523.41	32491.32
523.58	32610.68
523.75	32921.98
523.92	32652.81
524.10	32833.04
524.27	33010.92
524.44	33041.34
524.61	33284.76
524.78	32964.10
524.96	33195.82
525.13	33577.33
525.30	33816.06
525.47	33383.06
525.64	33603.07
525.81	33310.50
525.98	33876.91
526.16	33640.52
526.33	33684.99
526.50	33832.44
526.67	33567.96
526.84	33832.44
527.01	33677.97
527.18	33991.60
527.36	33968.19
527.53	33834.78
527.70	34223.31
527.87	34218.63
528.04	34377.79
528.21	34134.37
528.38	34302.89
528.55	34632.91
528.72	34637.59
528.89	34202.25
529.07	34651.63
529.24	34623.54
529.41	35030.80
529.58	34518.22
529.75	34455.03
529.92	34686.74
530.09	35007.39
530.26	35040.16
530.43	34920.79
530.60	34677.38
530.77	34756.96
530.94	35283.58
531.11	34773.34
531.28	34932.50
531.46	34948.88
531.63	35314.00
531.80	35943.61
531.97	35578.48
532.14	35974.03
532.31	35456.78
532.48	35316.34
532.65	35501.25
532.82	35229.74
532.99	35618.27
533.16	35501.25
533.33	35676.79
533.50	36308.73
533.67	36100.42
533.84	35639.34
534.01	35854.67
534.18	35814.88
534.35	36147.23
534.52	35725.94
534.69	36442.14
534.86	36290.01
535.03	36545.12
535.20	36201.07
535.37	36378.95
535.54	36517.04
535.71	36217.45
535.88	36552.15
536.05	36081.70
536.22	36910.25
536.38	36896.20
536.55	36893.86
536.72	36676.19
536.89	36924.29
537.06	36692.58
537.23	36704.28
537.40	37109.19
537.57	36971.10
537.74	36861.10
537.91	37280.05
538.08	37078.77
538.25	36800.24
538.42	37200.47
538.59	37195.79
538.75	37249.63
538.92	37102.17
539.09	37486.02
539.26	37460.27
539.43	37757.52
539.60	37797.31
539.77	37799.65
539.94	38080.52
540.11	38181.16
540.28	37734.12
540.44	37881.57
540.61	37734.12
540.78	38003.28
540.95	38316.91
541.12	38309.89
541.29	38667.99
541.46	37968.17
541.62	38373.08
541.79	38637.56
541.96	37865.19
542.13	38146.05
542.30	38962.90
542.47	38836.51
542.63	38803.74
542.80	38667.99
542.97	39054.18
543.14	39196.95
543.31	38892.68
543.48	38754.59
543.64	39187.59
543.81	39400.58
543.98	39208.65
544.15	39587.82
544.32	39222.70
544.48	39765.70
544.65	39517.60
544.82	39079.92
544.99	39021.41
545.16	39688.46
545.32	39175.89
545.49	40313.39
545.66	40570.85
545.83	40570.85
546.00	40875.12
546.16	39997.41
546.33	39674.42
546.50	39304.62
546.67	39669.74
546.83	39056.52
547.00	39681.44
547.17	39704.85
547.34	39943.58
547.50	40374.24
547.67	40456.16
547.84	39730.59
548.00	40051.25
548.17	40254.87
548.34	40004.44
548.51	40175.30
548.67	40184.66
548.84	40018.48
549.01	39824.22
549.18	40187.00
549.34	40154.23
549.51	39798.47
549.68	39878.05
549.84	40194.02
550.01	40037.20
550.18	39864.00
550.34	40374.24
550.51	40713.62
550.68	40526.38
550.84	40388.28
551.01	40437.44
551.18	40306.37
551.34	40046.57
551.51	40315.73
551.68	40519.35
551.84	40620.00
552.01	40416.37
552.18	40868.09
552.34	40451.48
552.51	40694.89
552.68	40444.46
552.84	40804.90
553.01	40631.70
553.18	41013.21
553.34	40467.86
553.51	40917.25
553.67	41055.34
553.84	41228.54
554.01	41139.60
554.17	40928.95
554.34	40779.15
554.51	40821.28
554.67	40549.78
554.84	40966.40
555.00	40865.75
555.17	41228.54
555.33	40524.04
555.50	40872.78
555.67	41090.44
555.83	41324.50
556.00	40999.16
556.16	41460.25
556.33	41177.04
556.50	41406.42
556.66	41766.86
556.83	41570.25
556.99	41663.88
557.16	41422.80
557.32	41488.34
557.49	41226.20
557.65	41457.91
557.82	41574.94
557.98	41310.46
558.15	41371.31
558.32	41801.97
558.48	41174.70
558.65	41813.67
558.81	41820.69
558.98	41808.99
559.14	42085.17
559.31	41663.88
559.47	41390.03
559.64	41750.48
559.80	41727.07
559.97	42171.77
560.13	41762.18
560.30	41691.96
560.46	41888.57
560.63	42029.00
560.79	42052.41
560.96	42139.00
561.12	41645.15
561.29	41844.10
561.45	42256.03
561.61	42101.56
561.78	42110.92
561.94	41951.76
562.11	41979.85
562.27	41986.87
562.44	41841.76
562.60	41668.56
562.77	42227.95
562.93	42120.28
563.10	42658.60
563.26	42234.97
563.42	42417.53
563.59	42038.36
563.75	42043.04
563.92	42096.88
564.08	41855.80
564.24	42124.96
564.41	41928.36
564.57	42113.26
564.74	42361.36
564.90	42333.27
565.07	42387.10
565.23	42377.74
565.39	42508.81
565.56	42232.63
565.72	42029.00
565.88	42192.84
566.05	42143.69
566.21	42323.91
566.38	42525.19
566.54	42169.43
566.70	42321.57
566.87	42412.85
567.03	42628.18
567.19	42953.51
567.36	42115.60
567.52	42281.78
567.68	42747.54
567.85	42555.62
568.01	42457.32
568.17	42529.87
568.34	42281.78
568.50	42176.45
568.66	42403.49
568.83	43093.94
568.99	42333.27
569.15	42504.13
569.32	42335.61
569.48	42684.35
569.64	42801.38
569.81	42263.05
569.97	42520.51
570.13	42717.12
570.30	42866.91
570.46	42862.23
570.62	42630.52
570.78	42260.71
570.95	42260.71
571.11	42653.92
571.27	42251.35
571.43	42113.26
571.60	42831.80
571.76	42766.27
571.92	42541.58
572.09	42621.16
572.25	42682.01
572.41	42440.93
572.57	42188.16
572.74	42698.39
572.90	42845.85
573.06	42527.53
573.22	42541.58
573.38	42808.40
573.55	42705.41
573.71	42967.55
573.87	43391.19
574.03	42941.81
574.20	42672.65
574.36	42927.77
574.52	42632.86
574.68	42738.18
574.84	42932.45
575.01	43225.01
575.17	43089.26
575.33	42417.53
575.49	42604.77
575.65	43283.53
575.82	42918.40
575.98	43145.44
576.14	43065.86
576.30	42469.02
576.46	43037.77
576.62	43086.92
576.79	42951.17
576.95	42733.50
577.11	43232.04
577.27	43086.92
577.43	42810.74
577.59	42890.32
577.75	42906.70
577.92	42717.12
578.08	42536.90
578.24	42625.84
578.40	43007.34
578.56	43517.58
578.72	43112.67
578.88	43690.78
579.04	43239.06
579.21	43253.10
579.37	42852.87
579.53	43063.52
579.69	42927.77
579.85	42880.95
580.01	43157.14
580.17	43185.22
580.33	43091.60
580.49	43548.01
580.65	43168.84
580.82	43571.41
580.98	43217.99
581.14	42845.85
581.30	42988.62
581.46	42686.69
581.62	42848.19
581.78	43026.07
581.94	43763.34
582.10	42698.39
582.26	43161.82
582.42	43356.08
582.58	43213.31
582.74	43278.85
582.90	43171.18
583.06	43210.97
583.22	43519.92
583.38	43302.25
583.54	43194.59
583.70	42742.86
583.86	42815.42
584.02	43005.00
584.18	43676.74
584.34	43391.19
584.50	43161.82
584.66	43297.57
584.82	42913.72
584.98	43037.77
585.14	43068.20
585.30	42747.54
585.46	43079.90
585.62	43316.29
585.78	43442.68
585.94	42845.85
586.10	43540.99
586.26	43037.77
586.42	43735.25
586.58	43625.25
586.74	43445.02
586.90	43423.96
587.06	43552.69
587.22	43395.87
587.38	43173.52
587.54	43250.76
587.70	43639.29
587.86	43285.87
588.02	43072.88
588.18	43629.93
588.34	43295.23
588.49	43398.21
588.65	43316.29
588.81	43379.49
588.97	43164.16
589.13	43423.96
589.29	43021.39
589.45	43157.14
589.61	43393.53
589.77	44018.46
589.93	43669.72
590.08	43536.30
590.24	43693.12
590.40	43611.20
590.56	43576.09
590.72	43402.89
590.88	42808.40
591.04	43264.80
591.20	43475.45
591.35	43674.40
591.51	44381.24
591.67	43662.69
591.83	43494.18
591.99	44074.63
592.15	44013.77
592.31	43564.39
592.46	43035.43
592.62	43559.71
592.78	43555.03
592.94	43676.74
593.10	43456.73
593.26	43632.27
593.41	43796.10
593.57	43732.91
593.73	43606.52
593.89	43681.42
594.05	43973.98
594.20	43620.56
594.36	43611.20
594.52	43587.80
594.68	43473.11
594.84	43316.29
594.99	43491.83
595.15	43426.30
595.31	43533.96
595.47	43866.32
595.62	43515.24
595.78	43796.10
595.94	43833.55
596.10	43178.20
596.25	43243.74
596.41	42927.77
596.57	43225.01
596.73	43517.58
596.88	43847.60
597.04	43580.78
597.20	43920.15
597.36	44088.67
597.51	43894.41
597.67	43842.92
597.83	43758.66
597.99	43625.25
598.14	43749.29
598.30	43761.00
598.46	43744.61
598.61	43981.01
598.77	43328.00
598.93	43274.16
599.09	44123.78
599.24	44346.13
599.40	43948.24
599.56	44011.43
599.71	43435.66
599.87	43796.10
600.03	44168.25
600.18	43536.30
600.34	43601.84
600.50	43730.57
600.65	43772.70
600.81	43718.87
600.97	43964.62
601.12	43669.72
601.28	44421.03
601.44	43309.27
601.59	43763.34
601.75	43576.09
601.91	43693.12
602.06	43531.62
602.22	43899.09
602.37	43501.20
602.53	43765.68
602.69	44053.56
602.84	43475.45
603.00	43842.92
603.16	43461.41
603.31	43714.19
603.47	43674.40
603.62	43627.59
603.78	43182.88
603.94	43328.00
604.09	43775.04
604.25	43423.96
604.40	43938.88
604.56	43182.88
604.71	43882.70
604.87	43580.78
605.03	43613.54
605.18	43278.85
605.34	43454.39
605.49	43323.32
605.65	43470.77
605.80	43021.39
605.96	43856.96
606.12	43405.23
606.27	43833.55
606.43	43667.37
606.58	43328.00
606.74	43438.00
606.89	43618.22
607.05	42967.55
607.20	43548.01
607.36	43105.65
607.51	43253.10
607.67	43044.79
607.82	43304.59
607.98	42829.46
608.13	43791.42
608.29	43540.99
608.44	43227.35
608.60	43091.60
608.75	43655.67
608.91	43901.43
609.06	43873.34
609.22	43569.07
609.37	43100.97
609.53	43620.56
609.68	43323.32
609.84	43267.14
609.99	43709.50
610.15	43370.13
610.30	43611.20
610.46	43810.15
610.61	44034.84
610.76	44357.83
610.92	44472.52
611.07	44500.61
611.23	44378.90
611.38	44254.85
611.54	43648.65
611.69	43498.86
611.84	43445.02
612.00	43793.76
612.15	43276.51
612.31	43487.15
612.46	43381.83
612.62	43349.06
612.77	43753.97
612.92	43435.66
613.08	43007.34
613.23	42904.36
613.39	43103.31
613.54	42398.80
613.69	42920.74
613.85	42731.16
614.00	42696.05
614.15	43152.46
614.31	42880.95
614.46	43227.35
614.62	42976.92
614.77	42962.87
614.92	43381.83
615.08	42600.09
615.23	43143.09
615.38	42796.70
615.54	42342.63
615.69	42183.48
615.84	42464.34
616.00	42555.62
616.15	42401.14
616.30	42405.83
616.46	42429.23
616.61	42775.63
616.76	42906.70
616.92	42309.86
617.07	42354.33
617.22	42026.66
617.37	42492.43
617.53	42366.04
617.68	41937.72
617.83	41984.53
617.99	42387.10
618.14	42288.80
618.29	42398.80
618.45	42288.80
618.60	42146.03
618.75	42272.42
618.90	42555.62
619.06	42080.49
619.21	41855.80
619.36	42164.75
619.51	41858.14
619.67	41319.82
619.82	41792.61
619.97	42162.41
620.12	41504.72
620.28	41516.42
620.43	41923.68
620.58	42038.36
620.73	41872.18
620.89	42007.94
621.04	42094.53
621.19	41769.20
621.34	41720.05
621.49	41617.07
621.65	41282.37
621.80	41329.18
621.95	41600.68
622.10	41680.26
622.25	41764.52
622.41	41490.68
622.56	41254.28
622.71	42017.30
622.86	41432.16
623.01	41270.67
623.16	41441.53
623.32	41310.46
623.47	41715.37
623.62	41324.50
623.77	41436.84
623.92	41684.94
624.07	41027.25
624.23	41588.98
624.38	41581.96
624.53	41137.26
624.68	41195.77
624.83	41535.15
624.98	41411.10
625.13	41258.96
625.29	41006.19
625.44	41310.46
625.59	40786.18
625.74	40683.19
625.89	41060.02
626.04	40957.03
626.19	40821.28
626.34	41064.70
626.49	41315.14
626.65	40758.09
626.80	41373.65
626.95	41020.23
627.10	40697.24
627.25	41071.72
627.40	40627.02
627.55	40336.79
627.70	40282.96
627.85	40470.20
628.00	40306.37
628.15	40409.35
628.30	40343.81
628.45	40615.32
628.60	40636.38
628.76	40699.58
628.91	40950.01
629.06	40755.75
629.21	40563.82
629.36	40257.21
629.51	40182.32
629.66	40844.69
629.81	39976.35
629.96	40299.34
630.11	40502.97
630.26	40285.30
630.41	40215.08
630.56	40119.12
630.71	40196.36
630.86	40261.90
631.01	40287.64
631.16	40451.48
631.31	40161.25
631.46	40058.27
631.61	40486.59
631.76	40264.24
631.91	40158.91
632.06	39798.47
632.21	39737.62
632.36	39992.73
632.51	39810.17
632.66	39934.22
632.81	39372.49
632.96	39920.18
633.10	39952.94
633.25	39391.22
633.40	40023.16
633.55	39723.57
633.70	39463.77
633.85	39227.38
634.00	39688.46
634.15	39718.89
634.30	39758.68
634.45	39117.37
634.60	39065.88
634.75	39777.40
634.90	39435.69
635.05	39285.89
635.19	39346.75
635.34	39374.83
635.49	39529.31
635.64	39299.94
635.79	39159.50
635.94	39248.44
636.09	39594.84
636.24	39023.75
636.39	39002.69
636.53	39086.95
636.68	39363.13
636.83	39210.99
636.98	39498.88
637.13	39054.18
637.28	38745.23
637.43	39218.02
637.57	39147.80
637.72	38665.65
637.87	38597.77
638.02	38967.58
638.17	39189.93
638.32	39161.84
638.46	38712.46
638.61	39023.75
638.76	38623.52
638.91	38609.48
639.06	39138.44
639.20	38543.94
639.35	39061.20
639.50	38684.37
639.65	39044.82
639.80	38557.99
639.94	38478.41
640.09	38429.26
640.24	38462.02
640.39	38614.16
640.54	38204.56
640.68	38520.54
640.83	38464.36
640.98	38057.11
641.13	37979.87
641.27	38719.48
641.42	38359.04
641.57	38031.36
641.72	38440.96
641.86	38391.81
642.01	38300.53
642.16	38345.00
642.31	38213.93
642.45	37958.81
642.60	37680.28
642.75	37879.23
642.90	37640.50
643.04	38096.90
643.19	37907.32
643.34	38054.77
643.48	38185.84
643.63	38178.82
643.78	38567.35
643.93	38513.52
644.07	38265.42
644.22	38164.78
644.37	37633.47
644.51	37897.95
644.66	37816.04
644.81	37888.59
644.95	38052.43
645.10	37832.42
645.25	37500.06
645.39	37717.73
645.54	37944.76
645.69	37558.58
645.83	37642.84
645.98	37691.99
646.13	37921.36
646.27	38129.67
646.42	37666.24
646.57	38148.39
646.71	37617.09
646.86	37766.88
647.00	37816.04
647.15	37530.49
647.30	37862.85
647.44	37303.46
647.59	37432.19
647.74	37572.62
647.88	37364.31
648.03	37830.08
648.17	37361.97
648.32	37762.20
648.47	37563.26
648.61	37123.24
648.76	37371.33
648.90	37083.45
649.05	37160.69
649.20	37280.05
649.34	37188.77
649.49	37305.80
649.63	37111.53
649.78	37099.83
649.92	37193.45
650.07	37193.45
650.21	37228.56
650.36	37261.33
650.51	37205.16
650.65	37249.63
650.80	36966.42
650.94	37350.27
651.09	36865.78
651.23	36926.63
651.38	36835.35
651.52	36875.14
651.67	36825.99
651.81	36931.31
651.96	36430.44
652.10	36744.07
652.25	36636.41
652.39	36392.99
652.54	37270.69
652.68	36669.17
652.83	36563.85
652.97	37022.59
653.12	36723.01
653.26	36776.84
653.41	36407.03
653.55	36495.97
653.70	36341.50
653.84	36474.91
653.99	36378.95
654.13	36463.21
654.27	36353.20
654.42	36493.63
654.56	36598.96
654.71	36524.06
654.85	36730.03
655.00	36407.03
655.14	36079.36
655.29	35931.90
655.43	36446.82
655.57	36219.79
655.72	36236.17
655.86	35894.46
656.01	36077.02
656.15	35711.89
656.30	35779.77
656.44	36058.29
656.58	35810.20
656.73	36147.23
656.87	35985.74
657.01	36077.02
657.16	36062.97
657.30	35967.01
657.45	36233.83
657.59	36198.73
657.73	35721.26
657.88	35765.73
658.02	35517.63
658.16	35454.44
658.31	35847.64
658.45	35576.14
658.60	34567.37
658.74	35480.18
658.88	35452.09
659.03	35393.58
659.17	35194.64
659.31	35299.96
659.46	35536.35
659.60	35681.47
659.74	35379.54
659.89	35393.58
660.03	35047.18
660.17	34670.36
660.32	35082.29
660.46	34993.35
660.60	34665.67
660.74	34932.50
660.89	34771.00
661.03	34724.19
661.17	34890.37
661.32	35058.88
661.46	35049.52
661.60	34705.46
661.74	34885.68
661.89	34754.61
662.03	35168.89
662.17	34604.82
662.31	34003.30
662.46	34326.30
662.60	34307.57
662.74	34803.77
662.88	34309.91
663.03	34101.61
663.17	34190.55
663.31	34057.14
663.45	34064.16
663.60	34380.13
663.74	33879.25
663.88	33963.51
664.02	34087.56
664.17	34387.15
664.31	34078.20
664.45	34071.18
664.59	33851.17
664.73	33654.56
664.88	33869.89
665.02	33504.77
665.16	33996.28
665.30	33525.83
665.44	33488.38
665.59	33457.96
665.73	33170.07
665.87	32989.85
666.01	33392.42
666.15	33441.57
666.29	33427.53
666.44	32924.32
666.58	33195.82
666.72	33048.36
666.86	33333.91
667.00	33483.70
667.14	32828.35
667.28	32774.52
667.43	33202.84
667.57	33116.24
667.71	32903.25
667.85	32397.70
667.99	32418.76
668.13	32378.97
668.27	32608.34
668.41	32854.10
668.56	32275.99
668.70	32767.50
668.84	32662.18
668.98	32467.91
669.12	32067.68
669.26	32465.57
669.40	32009.17
669.54	32271.31
669.68	32077.04
669.82	31938.95
669.96	31718.94
670.10	31964.70
670.25	31779.79
670.39	31543.40
670.53	31672.13
670.67	31538.72
670.81	31924.91
670.95	31627.66
671.09	31957.67
671.23	31538.72
671.37	31604.25
671.51	31435.74
671.65	31597.23
671.79	31171.25
671.93	31288.28
672.07	31199.34
672.21	31346.79
672.35	31431.05
672.49	30752.30
672.63	31222.75
672.77	30635.27
672.91	30752.30
673.05	30972.31
673.19	30813.15
673.33	31122.10
673.47	30775.70
673.61	30995.71
673.75	30576.76
673.89	30583.78
674.03	30164.82
674.17	30366.11
674.31	30237.38
674.45	30169.51
674.59	29993.97
674.73	30305.26
674.87	29975.24
675.01	29919.07
675.15	29670.97
675.29	29914.39
675.43	29947.15
675.56	30279.51
675.70	30288.87
675.84	29827.79
675.98	28587.30
676.12	30213.98
676.26	29809.06
676.40	29647.57
676.54	29509.47
676.68	29443.94
676.82	28678.58
676.96	29078.82
677.10	29167.76
677.23	28561.56
677.37	28367.29
677.51	28402.40
677.65	28453.89
677.79	28919.66
677.93	28449.21
678.07	28514.75
678.21	27971.74
678.34	28259.63
678.48	28140.26
678.62	28360.27
678.76	27917.91
678.90	27665.13
679.04	27936.63
679.18	27653.43
679.31	27611.30
679.45	27700.24
679.59	27098.72
679.73	27470.87
679.87	27033.19
680.00	27407.67
680.14	27147.87
680.28	27058.93
680.42	26778.07
680.56	27292.99
680.70	26972.33
680.83	27035.53
680.97	26740.62
681.11	26946.59
681.25	26731.26
681.39	26462.10
681.52	26546.36
681.66	26235.06
681.80	25797.38
681.94	26422.31
682.07	26230.38
682.21	26391.88
682.35	25593.76
682.49	25235.66
682.62	25568.01
682.76	25544.61
682.90	25659.29
683.04	25579.71
683.17	25759.94
683.31	25331.62
683.45	25432.26
683.59	25352.68
683.72	25106.93
683.86	25034.37
684.00	24861.17
684.13	25032.03
684.27	24594.35
684.41	25123.31
684.55	24809.68
684.68	24395.40
684.82	24411.79
684.96	24437.53
685.09	24191.78
685.23	24224.54
685.37	24224.54
685.50	24603.71
685.64	24383.70
685.78	23850.06
685.91	24060.71
686.05	24032.62
686.19	23482.59
686.32	23683.88
686.46	23431.10
686.60	23403.02
686.73	23590.26
686.87	23124.49
687.01	23180.67
687.14	23054.28
687.28	23084.70
687.42	23044.91
687.55	23063.64
687.69	23150.24
687.82	22471.48
687.96	22742.99
688.10	22293.60
688.23	22822.56
688.37	22672.77
688.50	22988.74
688.64	22621.28
688.78	22209.34
688.91	22155.51
689.05	22141.47
689.18	22370.84
689.32	21774.00
689.46	21776.34
689.59	22225.73
689.73	21741.24
689.86	21551.65
690.00	21301.22
690.13	21624.21
690.27	21443.99
690.41	21390.16
690.54	21418.24
690.68	21490.80
690.81	21371.43
690.95	21151.42
691.08	21062.48
691.22	21001.63
691.35	21041.42
691.49	20573.31
691.62	20737.15
691.76	20601.40
691.89	20505.43
692.03	20304.15
692.16	20510.11
692.30	20350.96
692.43	20105.20
692.57	20091.16
692.70	20049.03
692.84	19836.04
692.97	19906.26
693.11	19953.07
693.24	19985.83
693.38	19665.18
693.51	19721.35
693.65	19957.75
693.78	19552.84
693.92	19503.68
694.05	19522.41
694.19	19227.50
694.32	19267.29
694.45	19108.13
694.59	19075.37
694.72	18663.43
694.86	18923.23
694.99	18920.89
695.13	18658.75
695.26	18572.15
695.39	18480.87
695.53	18604.92
695.66	18593.22
695.80	18537.04
695.93	18391.93
696.07	18239.79
696.20	18059.57
696.33	18003.40
696.47	18108.72
696.60	18307.67
696.73	18068.94
696.87	17949.57
697.00	17558.70
697.14	17802.11
697.27	17642.96
697.40	17633.60
697.54	17355.07
697.67	17165.49
697.80	17200.60
697.94	17088.25
698.07	16985.27
698.21	17298.90
698.34	16884.62
698.47	17165.49
698.61	16877.60
698.74	16947.82
698.87	16872.92
699.01	16737.17
699.14	16514.82
699.27	16627.17
699.40	16325.24
699.54	16180.12
699.67	16334.60
699.80	15896.92
699.94	15988.20
700.07	15976.50
700.20	15623.08
700.34	15496.69
700.47	15992.88
700.60	15686.27
700.73	15967.13
700.87	15716.70
701.00	15482.64
701.13	15747.12
701.26	15349.23
701.40	15824.36
701.53	15445.20
701.66	15360.94
701.79	15047.30
701.93	15421.79
702.06	15288.38
702.19	14857.72
702.32	15154.97
702.46	14848.36
702.59	14663.46
702.72	14487.92
702.85	14689.20
702.99	14670.48
703.12	14462.17
703.25	14427.06
703.38	14415.36
703.51	14483.24
703.65	14499.62
703.78	14251.52
703.91	14501.96
704.04	14445.79
704.17	14061.94
704.31	13942.57
704.44	13905.12
704.57	13813.84
704.70	13727.24
704.83	13930.87
704.96	13532.98
705.10	13429.99
705.23	13589.15
>>>>>End Processed Spectral Data<<<<<
