SpectraSuite Data File
++++++++++++++++++++++++++++++++++++
Date: Fri Oct 04 11:39:52 GMT-05:00 2013
User: price-jones
Dark Spectrum Present: No
Reference Spectrum Present: No
Number of Sampled Component Spectra: 1
Spectrometers: USB2+H05261
Integration Time (usec): 100000 (USB2+H05261)
Spectra Averaged: 1 (USB2+H05261)
Boxcar Smoothing: 0 (USB2+H05261)
Correct for Electrical Dark: No (USB2+H05261)
Strobe/Lamp Enabled: No (USB2+H05261)
Correct for Detector Non-linearity: No (USB2+H05261)
Correct for Stray Light: No (USB2+H05261)
Number of Pixels in Processed Spectrum: 2048
>>>>>Begin Processed Spectral Data<<<<<
365.73	37.45
365.92	37.45
366.12	37.45
366.32	0.00
366.52	0.00
366.72	18.72
366.91	0.00
367.11	0.00
367.31	0.00
367.51	0.00
367.70	0.00
367.90	0.00
368.10	0.00
368.30	0.00
368.49	0.00
368.69	21.06
368.89	11.70
369.09	0.00
369.28	0.00
369.48	0.00
369.68	0.00
369.87	0.00
370.07	11.70
370.27	0.00
370.47	7.02
370.66	93.62
370.86	88.94
371.06	110.01
371.25	159.16
371.45	170.86
371.65	210.65
371.84	156.82
372.04	81.92
372.24	138.09
372.44	159.16
372.63	175.54
372.83	212.99
373.03	250.44
373.22	156.82
373.42	217.67
373.62	201.29
373.81	196.60
374.01	201.29
374.21	184.90
374.40	210.65
374.60	222.35
374.79	140.43
374.99	182.56
375.19	168.52
375.38	245.76
375.58	142.77
375.78	196.60
375.97	231.71
376.17	212.99
376.37	229.37
376.56	201.29
376.76	208.31
376.95	147.45
377.15	212.99
377.35	217.67
377.54	248.10
377.74	149.79
377.93	208.31
378.13	166.18
378.33	173.20
378.52	210.65
378.72	222.35
378.91	264.48
379.11	208.31
379.31	220.01
379.50	208.31
379.70	245.76
379.89	224.69
380.09	184.90
380.28	189.58
380.48	227.03
380.68	215.33
380.87	208.31
381.07	177.88
381.26	210.65
381.46	259.80
381.65	276.18
381.85	250.44
382.04	177.88
382.24	215.33
382.43	222.35
382.63	229.37
382.83	276.18
383.02	128.73
383.22	285.55
383.41	203.63
383.61	271.50
383.80	177.88
384.00	177.88
384.19	217.67
384.39	208.31
384.58	201.29
384.78	177.88
384.97	175.54
385.17	257.46
385.36	177.88
385.56	311.29
385.75	269.16
385.95	245.76
386.14	318.31
386.34	257.46
386.53	325.33
386.72	215.33
386.92	304.27
387.11	280.86
387.31	198.95
387.50	163.84
387.70	241.08
387.89	234.05
388.09	231.71
388.28	227.03
388.48	215.33
388.67	332.36
388.86	273.84
389.06	341.72
389.25	241.08
389.45	257.46
389.64	285.55
389.84	203.63
390.03	262.14
390.22	266.82
390.42	234.05
390.61	236.39
390.81	243.42
391.00	234.05
391.19	297.25
391.39	215.33
391.58	243.42
391.78	315.97
391.97	278.52
392.16	234.05
392.36	318.31
392.55	351.08
392.75	322.99
392.94	327.68
393.13	315.97
393.33	266.82
393.52	311.29
393.71	308.95
393.91	292.57
394.10	266.82
394.29	245.76
394.49	344.06
394.68	278.52
394.88	386.19
395.07	411.93
395.26	365.12
395.46	362.78
395.65	418.96
395.84	376.83
396.04	315.97
396.23	334.70
396.42	374.49
396.62	313.63
396.81	278.52
397.00	355.76
397.19	374.49
397.39	334.70
397.58	322.99
397.77	330.02
397.97	388.53
398.16	367.46
398.35	433.00
398.55	388.53
398.74	395.55
398.93	365.12
399.12	322.99
399.32	367.46
399.51	411.93
399.70	383.85
399.90	437.68
400.09	458.74
400.28	388.53
400.47	461.09
400.67	477.47
400.86	402.57
401.05	442.36
401.24	383.85
401.44	444.70
401.63	425.98
401.82	512.58
402.01	414.27
402.21	411.93
402.40	428.32
402.59	433.00
402.78	397.89
402.97	486.83
403.17	512.58
403.36	489.17
403.55	477.47
403.74	491.51
403.93	582.79
404.13	524.28
404.32	573.43
404.51	521.94
404.70	491.51
404.89	496.19
405.09	545.34
405.28	507.90
405.47	505.56
405.66	552.37
405.85	538.32
406.05	592.16
406.24	498.53
406.43	610.88
406.62	631.94
406.81	594.50
407.00	596.84
407.20	608.54
407.39	575.77
407.58	507.90
407.77	610.88
407.96	678.76
408.15	681.10
408.34	603.86
408.54	667.05
408.73	636.63
408.92	674.07
409.11	669.39
409.30	699.82
409.49	676.41
409.68	634.29
409.87	669.39
410.07	706.84
410.26	674.07
410.45	594.50
410.64	641.31
410.83	711.52
411.02	770.04
411.21	758.33
411.40	662.37
411.59	777.06
411.78	748.97
411.98	763.01
412.17	802.80
412.36	711.52
412.55	805.14
412.74	788.76
412.93	884.72
413.12	863.66
413.31	901.11
413.50	926.85
413.69	866.00
413.88	898.77
414.07	826.21
414.26	844.93
414.45	856.64
414.64	877.70
414.83	863.66
415.02	924.51
415.22	961.96
415.41	905.79
415.60	861.32
415.79	896.43
415.98	1015.79
416.17	971.32
416.36	875.36
416.55	912.81
416.74	1029.84
416.93	1032.18
417.12	1013.45
417.31	1041.54
417.50	990.05
417.69	1036.86
417.88	1004.09
418.07	973.66
418.26	1043.88
418.45	1034.52
418.64	1097.71
418.83	1020.47
419.02	1139.84
419.21	1156.22
419.39	1135.16
419.58	1107.07
419.77	1128.14
419.96	1109.41
420.15	1184.31
420.34	1067.28
420.53	1100.05
420.72	1170.27
420.91	1203.04
421.10	1207.72
421.29	1200.69
421.48	1160.91
421.67	1238.14
421.86	1167.93
422.05	1200.69
422.24	1242.82
422.43	1179.63
422.61	1207.72
422.80	1156.22
422.99	1149.20
423.18	1303.68
423.37	1268.57
423.56	1357.51
423.75	1249.85
423.94	1217.08
424.13	1156.22
424.32	1240.48
424.50	1247.51
424.69	1207.72
424.88	1273.25
425.07	1179.63
425.26	1242.82
425.45	1324.74
425.64	1266.23
425.83	1315.38
426.01	1226.44
426.20	1299.00
426.39	1167.93
426.58	1291.98
426.77	1301.34
426.96	1308.36
427.15	1268.57
427.33	1390.28
427.52	1310.70
427.71	1352.83
427.90	1376.24
428.09	1376.24
428.28	1299.00
428.46	1289.64
428.65	1392.62
428.84	1418.36
429.03	1430.07
429.22	1329.42
429.40	1406.66
429.59	1320.06
429.78	1334.11
429.97	1313.04
430.16	1308.36
430.34	1390.28
430.53	1376.24
430.72	1413.68
430.91	1401.98
431.10	1430.07
431.28	1451.13
431.47	1411.34
431.66	1437.09
431.85	1458.15
432.03	1514.33
432.22	1680.50
432.41	1390.28
432.60	1600.93
432.79	1437.09
432.97	1483.90
433.16	1547.09
433.35	1500.28
433.54	1600.93
433.72	1610.29
433.91	1605.61
434.10	1521.35
434.28	1500.28
434.47	1563.48
434.66	1605.61
434.85	1636.03
435.03	1743.70
435.22	1790.51
435.41	1858.39
435.59	1956.69
435.78	1795.19
435.97	1750.72
436.16	1678.16
436.34	1727.32
436.53	1629.01
436.72	1682.85
436.90	1664.12
437.09	1582.20
437.28	1570.50
437.46	1703.91
437.65	1701.57
437.84	1652.42
438.02	1689.87
438.21	1727.32
438.40	1680.50
438.58	1715.61
438.77	1755.40
438.96	1797.53
439.14	1717.95
439.33	1785.83
439.52	1863.07
439.70	1853.70
439.89	1842.00
440.08	1813.92
440.26	1907.54
440.45	1900.52
440.63	1783.49
440.82	1900.52
441.01	1884.13
441.19	1886.47
441.38	1984.77
441.57	1956.69
441.75	2029.24
441.94	1956.69
442.12	2052.65
442.31	1973.07
442.50	1970.73
442.68	2057.33
442.87	2036.27
443.05	1914.56
443.24	2008.18
443.43	2101.80
443.61	2052.65
443.80	2104.14
443.98	1884.13
444.17	2054.99
444.35	1942.64
444.54	2094.78
444.73	2097.12
444.91	2181.38
445.10	2047.97
445.28	2043.29
445.47	2080.74
445.65	2054.99
445.84	1975.41
446.02	2062.01
446.21	2118.18
446.39	2125.21
446.58	2162.66
446.77	2057.33
446.95	2148.61
447.14	2197.76
447.32	2122.87
447.51	2176.70
447.69	2143.93
447.88	2195.42
448.06	2165.00
448.25	2132.23
448.43	2230.53
448.62	2129.89
448.80	2195.42
448.99	2165.00
449.17	2153.29
449.36	2157.97
449.54	2340.54
449.73	2153.29
449.91	2277.34
450.10	2155.63
450.28	2263.30
450.46	2277.34
450.65	2382.67
450.83	2319.47
451.02	2230.53
451.20	2263.30
451.39	2392.03
451.57	2277.34
451.76	2291.38
451.94	2282.02
452.13	2345.22
452.31	2394.37
452.49	2363.94
452.68	2321.81
452.86	2230.53
453.05	2366.28
453.23	2331.17
453.42	2354.58
453.60	2326.49
453.78	2321.81
453.97	2373.30
454.15	2373.30
454.34	2363.94
454.52	2333.51
454.70	2539.48
454.89	2490.33
455.07	2478.63
455.26	2527.78
455.44	2403.73
455.62	2511.39
455.81	2459.90
455.99	2527.78
456.17	2565.23
456.36	2527.78
456.54	2593.31
456.73	2483.31
456.91	2651.83
457.09	2651.83
457.28	2663.53
457.46	2567.57
457.64	2607.36
457.83	2626.08
458.01	2647.15
458.19	2691.62
458.38	2581.61
458.56	2647.15
458.74	2633.10
458.93	2516.08
459.11	2766.51
459.29	2574.59
459.48	2654.17
459.66	2785.24
459.84	2647.15
460.03	2726.72
460.21	2775.88
460.39	2789.92
460.57	2705.66
460.76	2696.30
460.94	2761.83
461.12	2773.53
461.31	2846.09
461.49	2789.92
461.67	2752.47
461.85	2988.86
462.04	2810.98
462.22	3365.69
462.40	2839.07
462.59	2792.26
462.77	2953.76
462.95	2857.79
463.13	2895.24
463.32	2937.37
463.50	2951.42
463.68	2906.95
463.86	2963.12
464.05	2935.03
464.23	2920.99
464.41	2977.16
464.59	2986.52
464.78	3014.61
464.96	3038.02
465.14	3000.57
465.32	2888.22
465.50	2787.58
465.69	2993.55
465.87	2977.16
466.05	3021.63
466.23	2972.48
466.41	2993.55
466.60	3082.49
466.78	2944.39
466.96	3016.95
467.14	3075.46
467.32	3038.02
467.51	3080.14
467.69	3012.27
467.87	3012.27
468.05	3063.76
468.23	3234.62
468.41	3068.44
468.60	3070.78
468.78	3201.85
468.96	3084.83
469.14	3141.00
469.32	3169.09
469.50	3059.08
469.69	3211.22
469.87	3190.15
470.05	3213.56
470.23	3164.40
470.41	3220.58
470.59	3201.85
470.77	3124.62
470.95	3368.03
471.14	3323.56
471.32	3276.75
471.50	3417.18
471.68	3318.88
471.86	3342.28
472.04	3318.88
472.22	3393.78
472.40	3302.50
472.58	3426.54
472.77	3375.05
472.95	3412.50
473.13	3599.74
473.31	3466.33
473.49	3426.54
473.67	3435.91
473.85	3456.97
474.03	3529.53
474.21	3623.15
474.39	3606.77
474.57	3574.00
474.75	3569.32
474.93	3616.13
475.12	3733.15
475.30	3716.77
475.48	3585.70
475.66	3733.15
475.84	3609.11
476.02	3695.71
476.20	3803.37
476.38	3878.27
476.56	3953.16
476.74	3803.37
476.92	3847.84
477.10	4016.36
477.28	3913.38
477.46	3887.63
477.64	3922.74
477.82	4058.49
478.00	4088.92
478.18	4011.68
478.36	4201.26
478.54	4098.28
478.72	4215.30
478.90	4245.73
479.08	4219.99
479.26	4311.27
479.44	4208.28
479.62	4311.27
479.80	4283.18
479.98	4369.78
480.16	4327.65
480.34	4493.83
480.52	4337.01
480.70	4449.36
480.88	4458.72
481.06	4660.01
481.24	4507.87
481.41	4559.36
481.59	4636.60
481.77	4688.09
481.95	4725.54
482.13	4727.88
482.31	4788.74
482.49	4868.31
482.67	4723.20
482.85	4943.21
483.03	4945.55
483.21	5118.75
483.39	4992.36
483.57	5055.56
483.74	5041.51
483.92	5135.14
484.10	4947.89
484.28	5327.06
484.46	5355.15
484.64	5310.68
484.82	5359.83
485.00	5198.33
485.18	5401.96
485.35	5479.19
485.53	5481.53
485.71	5554.09
485.89	5628.99
486.07	5563.45
486.25	5540.05
486.43	5790.49
486.61	5659.42
486.78	5921.56
486.96	5909.85
487.14	5755.38
487.32	5767.08
487.50	5998.79
487.68	5954.32
487.85	6078.37
488.03	6382.64
488.21	6246.89
488.39	6284.34
488.57	6282.00
488.75	6251.57
488.92	6436.47
489.10	6310.08
489.28	6340.51
489.46	6457.54
489.64	6492.65
489.81	6541.80
489.99	6602.65
490.17	6555.84
490.35	6820.32
490.53	6541.80
490.70	6810.96
490.88	6707.98
491.06	6993.52
491.24	6764.15
491.41	6930.33
491.59	7042.67
491.77	7005.22
491.95	7091.82
492.13	7171.40
492.30	7094.16
492.48	7122.25
492.66	7211.19
492.84	7140.97
493.01	7342.26
493.19	7360.98
493.37	7545.89
493.54	7302.47
493.72	7581.00
493.90	7445.24
494.08	7463.97
494.25	7604.40
494.43	7796.32
494.61	7662.91
494.79	7700.36
494.96	7737.81
495.14	7798.66
495.32	7955.48
495.49	7953.14
495.67	7957.82
495.85	8009.31
496.02	8002.29
496.20	8086.55
496.38	8184.85
496.55	7922.71
496.73	8173.15
496.91	8077.19
497.09	8203.58
497.26	8273.79
497.44	8339.33
497.62	8234.00
497.79	8496.14
497.97	8549.98
498.14	8507.85
498.32	8629.56
498.50	8685.73
498.67	8585.08
498.85	8545.30
499.03	8585.08
499.20	8587.43
499.38	8781.69
499.56	8837.86
499.73	8781.69
499.91	8807.44
500.08	8840.20
500.26	8762.97
500.44	9027.45
500.61	8905.74
500.79	8964.25
500.97	9081.28
501.14	9210.01
501.32	9280.22
501.49	9221.71
501.67	8950.21
501.84	9252.14
502.02	9165.54
502.20	9277.88
502.37	9411.29
502.55	9392.57
502.72	9125.75
502.90	9533.00
503.07	9327.03
503.25	9453.42
503.43	9483.85
503.60	9570.45
503.78	9476.83
503.95	9516.62
504.13	9558.75
504.30	9504.92
504.48	9439.38
504.65	9664.07
504.83	9837.27
505.01	9900.47
505.18	9844.29
505.36	9823.23
505.53	9619.60
505.71	9832.59
505.88	9762.37
506.06	9582.15
506.23	10080.69
506.41	10120.48
506.58	10026.86
506.76	10045.58
506.93	9879.40
507.11	10113.45
507.28	10160.27
507.46	10204.74
507.63	10148.56
507.81	10183.67
507.98	10200.05
508.16	10272.61
508.33	10153.24
508.50	10340.49
508.68	10235.16
508.85	10377.94
509.03	10354.53
509.20	10296.02
509.38	10483.26
509.55	10497.30
509.73	10588.58
509.90	10607.31
510.08	10736.04
510.25	10796.89
510.42	10689.23
510.60	10740.72
510.77	10714.97
510.95	10726.68
511.12	10637.73
511.30	10778.17
511.47	11028.60
511.64	11002.86
511.82	10925.62
511.99	10832.00
512.17	11126.91
512.34	10939.66
512.51	11147.97
512.69	11075.42
512.86	11016.90
513.04	11201.80
513.21	11325.85
513.38	11131.59
513.56	11250.96
513.73	11136.27
513.90	11176.06
514.08	11220.53
514.25	11171.38
514.43	11435.86
514.60	11487.35
514.77	11447.56
514.95	11459.26
515.12	11372.66
515.29	11281.38
515.47	11557.57
515.64	11604.38
515.81	11585.65
515.99	11339.90
516.16	11660.55
516.33	11850.13
516.51	11737.79
516.68	11592.67
516.85	11808.00
517.03	11875.88
517.20	11829.07
517.37	11915.67
517.54	11810.34
517.72	11700.34
517.89	11861.84
518.06	11878.22
518.24	11896.94
518.41	11950.78
518.58	12042.06
518.75	11995.25
518.93	11974.18
519.10	12037.38
519.27	11836.09
519.45	11941.41
519.62	12072.48
519.79	12098.23
519.96	12203.55
520.14	12159.08
520.31	12224.62
520.48	12262.07
520.65	12166.10
520.83	12294.83
521.00	12425.90
521.17	12365.05
521.34	12372.07
521.52	12386.12
521.69	12493.78
521.86	12540.59
522.03	12594.42
522.20	12313.56
522.38	12491.44
522.55	12538.25
522.72	12552.29
522.89	12636.55
523.07	12587.40
523.24	12896.35
523.41	12774.64
523.58	12545.27
523.75	12830.82
523.92	12830.82
524.10	12762.94
524.27	13151.47
524.44	12868.27
524.61	13376.16
524.78	12898.69
524.96	12999.34
525.13	12978.27
525.30	13214.66
525.47	13043.81
525.64	13025.08
525.81	13125.72
525.98	13319.99
526.16	13280.20
526.33	13184.24
526.50	13247.43
526.67	13160.83
526.84	13085.94
527.01	13331.69
527.18	13202.96
527.36	13418.29
527.53	13231.05
527.70	13523.62
527.87	13441.70
528.04	13444.04
528.21	13547.02
528.38	13549.36
528.55	13298.92
528.72	13497.87
528.89	13523.62
529.07	13577.45
529.24	13441.70
529.41	13437.02
529.58	13294.24
529.75	13231.05
529.92	13617.24
530.09	13549.36
530.26	13617.24
530.43	13799.80
530.60	13771.71
530.77	13891.08
530.94	13729.58
531.11	13390.20
531.28	13575.11
531.46	13743.63
531.63	13947.25
531.80	13736.60
531.97	13954.27
532.14	14209.39
532.31	13848.95
532.48	13994.06
532.65	14017.47
532.82	13837.25
532.99	13708.52
533.16	13996.40
533.33	14038.53
533.50	14146.20
533.67	14111.09
533.84	14024.49
534.01	14150.88
534.18	13879.38
534.35	14193.01
534.52	14022.15
534.69	14228.12
534.86	14368.55
535.03	14122.79
535.20	14347.48
535.37	14464.51
535.54	14251.52
535.71	14097.05
535.88	14260.88
536.05	14448.13
536.22	14539.41
536.38	14684.52
536.55	14572.18
536.72	14431.74
536.89	14427.06
537.06	14342.80
537.23	14487.92
537.40	14523.02
537.57	14443.45
537.74	14600.26
537.91	14801.55
538.08	14581.54
538.25	14614.30
538.42	14494.94
538.59	14649.41
538.75	14675.16
538.92	14794.53
539.09	14728.99
539.26	14614.30
539.43	14647.07
539.60	15115.18
539.77	14443.45
539.94	14504.30
540.11	15084.75
540.28	14813.25
540.44	15122.20
540.61	15056.67
540.78	15117.52
540.95	15012.20
541.12	15068.37
541.29	15136.24
541.46	15115.18
541.62	15131.56
541.79	15157.31
541.96	15241.57
542.13	15152.63
542.30	15138.58
542.47	15403.07
542.63	15204.12
542.80	15501.37
542.97	15484.98
543.14	15215.82
543.31	15447.54
543.48	15236.89
543.64	15545.84
543.81	15569.24
543.98	15770.53
544.15	15382.00
544.32	15740.10
544.48	15693.29
544.65	15428.81
544.82	15442.85
544.99	15662.86
545.16	15735.42
545.32	15641.80
545.49	16229.27
545.66	16512.48
545.83	16603.76
546.00	16343.96
546.16	16079.48
546.33	15723.72
546.50	15377.32
546.67	15704.99
546.83	15754.15
547.00	15934.37
547.17	15864.15
547.34	15492.01
547.50	15709.68
547.67	15875.85
547.84	15541.16
548.00	15697.97
548.17	15751.81
548.34	15744.78
548.51	15864.15
548.67	15517.75
548.84	15920.32
549.01	15604.35
549.18	15735.42
549.34	15864.15
549.51	15880.53
549.68	15910.96
549.84	15829.04
550.01	15833.72
550.18	16105.23
550.34	15948.41
550.51	15644.14
550.68	16067.78
550.84	15569.24
551.01	16009.26
551.18	16002.24
551.34	15964.79
551.51	16217.57
551.68	15873.51
551.84	16142.67
552.01	15950.75
552.18	16013.95
552.34	15983.52
552.51	16030.33
552.68	15740.10
552.84	15913.30
553.01	15934.37
553.18	16198.85
553.34	15939.05
553.51	15967.13
553.67	16236.30
553.84	16212.89
554.01	16217.57
554.17	16077.14
554.34	16224.59
554.51	15932.03
554.67	16287.79
554.84	16091.18
555.00	16198.85
555.17	16194.17
555.33	16166.08
555.50	16093.52
555.67	16194.17
555.83	15990.54
556.00	16252.68
556.16	16432.90
556.33	16486.73
556.50	16044.37
556.66	16168.42
556.83	16238.64
556.99	16259.70
557.16	16592.06
557.32	16315.87
557.49	16451.63
557.65	16346.30
557.82	16348.64
557.98	16152.04
558.15	16283.11
558.32	16390.77
558.48	16439.92
558.65	16257.36
558.81	16308.85
558.98	16098.20
559.14	16456.31
559.31	16025.65
559.47	16334.60
559.64	16276.09
559.80	16358.00
559.97	16545.25
560.13	16570.99
560.30	16346.30
560.46	16409.50
560.63	16601.42
560.79	16629.51
560.96	16762.92
561.12	16603.76
561.29	16229.27
561.45	16287.79
561.61	16697.38
561.78	16601.42
561.94	16446.94
562.11	16493.76
562.27	16739.51
562.44	16439.92
562.60	16627.17
562.77	16533.54
562.93	16919.73
563.10	16620.14
563.26	16535.88
563.42	16812.07
563.59	16748.87
563.75	16587.38
563.92	16575.67
564.08	16624.83
564.24	16734.83
564.41	16393.11
564.57	16566.31
564.74	16678.66
564.90	16870.58
565.07	16739.51
565.23	16739.51
565.39	16533.54
565.56	16791.00
565.72	16472.69
565.88	16819.09
566.05	16683.34
566.21	16727.81
566.38	16615.46
566.54	16636.53
566.70	16781.64
566.87	16690.36
567.03	16704.40
567.19	17011.01
567.36	16865.90
567.52	16760.58
567.68	16994.63
567.85	16772.28
568.01	16863.56
568.17	16893.99
568.34	16760.58
568.50	16767.60
568.66	16798.02
568.83	16681.00
568.99	16730.15
569.15	16673.98
569.32	17104.64
569.48	16664.61
569.64	16554.61
569.81	16760.58
569.97	16821.43
570.13	16833.13
570.30	16500.78
570.46	16702.06
570.62	16673.98
570.78	17029.74
570.95	16552.27
571.11	16758.24
571.27	16638.87
571.43	16629.51
571.60	16833.13
571.76	16751.21
571.92	16783.98
572.09	16681.00
572.25	16847.18
572.41	16945.48
572.57	16706.74
572.74	17011.01
572.90	16702.06
573.06	16954.84
573.22	16856.54
573.38	16849.52
573.55	16898.67
573.71	17118.68
573.87	17191.23
574.03	17060.16
574.20	16924.41
574.36	16908.03
574.52	16950.16
574.68	16814.41
574.84	16964.20
575.01	16933.78
575.17	17216.98
575.33	16905.69
575.49	16912.71
575.65	17385.50
575.82	16716.11
575.98	16987.61
576.14	16910.37
576.30	17053.14
576.46	16938.46
576.62	16973.56
576.79	17144.42
576.95	17020.38
577.11	17146.76
577.27	16992.29
577.43	17085.91
577.59	16870.58
577.75	17048.46
577.92	16933.78
578.08	16716.11
578.24	16959.52
578.40	16966.54
578.56	17184.21
578.72	17121.02
578.88	17422.95
579.04	17036.76
579.21	16989.95
579.37	17078.89
579.53	17282.52
579.69	16994.63
579.85	17163.15
580.01	16842.50
580.17	16940.80
580.33	16936.12
580.49	17287.20
580.65	17083.57
580.82	17008.67
580.98	17011.01
581.14	16973.56
581.30	16816.75
581.46	16980.59
581.62	16723.13
581.78	16992.29
581.94	17177.19
582.10	17064.85
582.26	17104.64
582.42	17266.13
582.58	17128.04
582.74	17259.11
582.90	17200.60
583.06	16973.56
583.22	17137.40
583.38	17135.06
583.54	16868.24
583.70	17008.67
583.86	16975.91
584.02	17102.29
584.18	17350.39
584.34	17195.92
584.50	17399.54
584.66	17125.70
584.82	16872.92
584.98	17310.60
585.14	17184.21
585.30	17081.23
585.46	17224.00
585.62	17516.57
585.78	17298.90
585.94	17219.32
586.10	17184.21
586.26	16882.28
586.42	17359.75
586.58	17696.79
586.74	17277.83
586.90	17144.42
587.06	17153.79
587.22	17132.72
587.38	17146.76
587.54	17228.68
587.70	17088.25
587.86	17366.78
588.02	17027.40
588.18	17434.65
588.34	16992.29
588.49	17095.27
588.65	16996.97
588.81	17090.59
588.97	16805.05
589.13	17006.33
589.29	17249.75
589.45	17238.05
589.61	17137.40
589.77	17404.22
589.93	17053.14
590.08	17376.14
590.24	17308.26
590.40	17439.33
590.56	17301.24
590.72	17287.20
590.88	16929.09
591.04	17282.52
591.20	17453.37
591.35	17514.23
591.51	17172.51
591.67	17507.21
591.83	17394.86
591.99	17348.05
592.15	17502.53
592.31	17184.21
592.46	16954.84
592.62	17198.26
592.78	17057.82
592.94	17179.53
593.10	17214.64
593.26	17301.24
593.41	17778.71
593.57	17102.29
593.73	17209.96
593.89	17607.85
594.05	17472.10
594.20	16994.63
594.36	17352.73
594.52	17256.77
594.68	17053.14
594.84	17053.14
594.99	17535.29
595.15	17219.32
595.31	17331.67
595.47	17577.42
595.62	17401.88
595.78	17371.46
595.94	17202.94
596.10	17357.41
596.25	17170.17
596.41	17338.69
596.57	17366.78
596.73	17319.96
596.88	17687.43
597.04	17444.01
597.20	17385.50
597.36	17310.60
597.51	17451.03
597.67	17427.63
597.83	17479.12
597.99	17266.13
598.14	17497.84
598.30	17626.57
598.46	17530.61
598.61	17624.23
598.77	17305.92
598.93	17399.54
599.09	17252.09
599.24	17586.79
599.40	17825.52
599.56	17310.60
599.71	17366.78
599.87	17734.24
600.03	17310.60
600.18	17326.99
600.34	17570.40
600.50	17270.81
600.65	17362.09
600.81	17869.99
600.97	17387.84
601.12	17458.06
601.28	17549.34
601.44	17296.56
601.59	17635.94
601.75	17490.82
601.91	17289.54
602.06	17446.35
602.22	17532.95
602.37	17326.99
602.53	17301.24
602.69	17633.60
602.84	17228.68
603.00	17692.11
603.16	17577.42
603.31	17458.06
603.47	17144.42
603.62	17469.76
603.78	17280.18
603.94	16922.07
604.09	17179.53
604.25	17493.16
604.40	17202.94
604.56	17422.95
604.71	17521.25
604.87	17369.12
605.03	17097.61
605.18	17083.57
605.34	17256.77
605.49	17329.33
605.65	17266.13
605.80	17144.42
605.96	17142.08
606.12	17341.03
606.27	17380.82
606.43	17465.08
606.58	17373.80
606.74	17441.67
606.89	17074.21
607.05	17579.76
607.20	17429.97
607.36	17106.98
607.51	17067.19
607.67	17116.34
607.82	17006.33
607.98	17142.08
608.13	17046.12
608.29	16933.78
608.44	17245.07
608.60	17343.37
608.75	17179.53
608.91	17448.69
609.06	17364.43
609.22	17429.97
609.37	17081.23
609.53	17287.20
609.68	17654.66
609.84	17273.15
609.99	17465.08
610.15	17563.38
610.30	17390.18
610.46	17570.40
610.61	17699.13
610.76	17731.90
610.92	18036.17
611.07	18150.85
611.23	18108.72
611.38	17916.80
611.54	17762.33
611.69	17422.95
611.84	17579.76
612.00	17694.45
612.15	17331.67
612.31	17532.95
612.46	17202.94
612.62	17441.67
612.77	17441.67
612.92	17481.46
613.08	17088.25
613.23	17355.07
613.39	17280.18
613.54	16975.91
613.69	17109.32
613.85	17181.87
614.00	16978.25
614.15	17242.73
614.31	16830.79
614.46	17322.30
614.62	17348.05
614.77	17186.55
614.92	17317.62
615.08	17144.42
615.23	17111.66
615.38	17390.18
615.54	16786.32
615.69	17006.33
615.84	16893.99
616.00	16821.43
616.15	17057.82
616.30	16971.22
616.46	17039.10
616.61	16952.50
616.76	17277.83
616.92	16912.71
617.07	16903.35
617.22	16692.70
617.37	16681.00
617.53	16512.48
617.68	16844.84
617.83	16903.35
617.99	16985.27
618.14	17015.69
618.29	17081.23
618.45	16802.71
618.60	16606.10
618.75	16774.62
618.90	16521.84
619.06	16999.31
619.21	16500.78
619.36	16624.83
619.51	16666.95
619.67	16418.86
619.82	16648.23
619.97	16624.83
620.12	16685.68
620.28	16350.98
620.43	16655.25
620.58	16996.97
620.73	16599.08
620.89	16629.51
621.04	16575.67
621.19	16468.01
621.34	16360.34
621.49	16449.28
621.65	16493.76
621.80	16692.70
621.95	16545.25
622.10	16290.13
622.25	16252.68
622.41	16446.94
622.56	16709.08
622.71	16369.71
622.86	16432.90
623.01	16606.10
623.16	16692.70
623.32	16425.88
623.47	16645.89
623.62	16734.83
623.77	16428.22
623.92	16276.09
624.07	16589.72
624.23	16643.55
624.38	16620.14
624.53	16664.61
624.68	16559.29
624.83	16350.98
624.98	16376.73
625.13	16535.88
625.29	16301.83
625.44	16004.58
625.59	16013.95
625.74	16313.53
625.89	16074.80
626.04	16074.80
626.19	16030.33
626.34	16362.69
626.49	16135.65
626.65	16233.96
626.80	16248.00
626.95	15992.88
627.10	16100.55
627.25	16568.65
627.40	16196.51
627.55	16166.08
627.70	15847.77
627.85	15957.77
628.00	16203.53
628.15	15976.50
628.30	15943.73
628.45	16123.95
628.60	16266.72
628.76	16145.02
628.91	16201.19
629.06	16262.04
629.21	16468.01
629.36	15950.75
629.51	15847.77
629.66	16283.11
629.81	16053.73
629.96	15854.79
630.11	16037.35
630.26	16149.70
630.41	15807.98
630.56	16128.63
630.71	15957.77
630.86	16058.42
631.01	16121.61
631.16	16280.77
631.31	16121.61
631.46	15822.02
631.61	15983.52
631.76	16081.82
631.91	15913.30
632.06	15630.10
632.21	15845.43
632.36	15878.19
632.51	15733.08
632.66	15889.90
632.81	15850.11
632.96	15651.16
633.10	15871.17
633.25	15934.37
633.40	15896.92
633.55	15838.41
633.70	15690.95
633.85	15702.65
634.00	15578.61
634.15	15681.59
634.30	15854.79
634.45	15594.99
634.60	15594.99
634.75	15756.49
634.90	15463.92
635.05	15772.87
635.19	15681.59
635.34	15782.23
635.49	15810.32
635.64	15456.90
635.79	15639.46
635.94	15599.67
636.09	15702.65
636.24	15431.15
636.39	15438.17
636.53	15719.04
636.68	15466.26
636.83	15704.99
636.98	15728.40
637.13	15342.21
637.28	15412.43
637.43	15506.05
637.57	15836.06
637.72	15728.40
637.87	15477.96
638.02	15573.92
638.17	15662.86
638.32	15592.65
638.46	15494.35
638.61	15466.26
638.76	15082.41
638.91	15382.00
639.06	15456.90
639.20	15571.58
639.35	15482.64
639.50	15419.45
639.65	15283.70
639.80	15344.55
639.94	15613.71
640.09	15431.15
640.24	15541.16
640.39	15166.67
640.54	15264.97
640.68	15129.22
640.83	15213.48
640.98	15253.27
641.13	15243.91
641.27	15325.83
641.42	15033.26
641.57	15372.64
641.72	15398.38
641.86	15314.13
642.01	15325.83
642.16	15204.12
642.31	14956.02
642.45	15477.96
642.60	15304.76
642.75	15073.05
642.90	15302.42
643.04	15147.95
643.19	14979.43
643.34	14897.51
643.48	14970.07
643.63	15253.27
643.78	15084.75
643.93	15398.38
644.07	15026.24
644.22	15023.90
644.37	14906.87
644.51	15028.58
644.66	15033.26
644.81	15295.40
644.95	14984.11
645.10	15091.77
645.25	14972.41
645.39	15164.33
645.54	14848.36
645.69	15185.40
645.83	14953.68
645.98	15066.03
646.13	15007.52
646.27	15180.71
646.42	15021.56
646.57	15225.18
646.71	15138.58
646.86	14930.28
647.00	14963.04
647.15	15009.86
647.30	15250.93
647.44	15084.75
647.59	14874.10
647.74	14794.53
647.88	15089.43
648.03	14731.33
648.17	15028.58
648.32	15236.89
648.47	14951.34
648.61	14721.97
648.76	14958.36
648.90	14672.82
649.05	15047.30
649.20	14597.92
649.34	14611.96
649.49	14977.09
649.63	14647.07
649.78	14883.47
649.92	14642.39
650.07	14780.48
650.21	14822.61
650.36	15012.20
650.51	14604.94
650.65	14623.67
650.80	14602.60
650.94	14731.33
651.09	14834.32
651.23	14881.13
651.38	14574.52
651.52	14684.52
651.67	14719.63
651.81	14506.64
651.96	14459.83
652.10	14436.42
652.25	14602.60
652.39	14480.89
652.54	14642.39
652.68	14743.03
652.83	14609.62
652.97	14752.40
653.12	14635.37
653.26	14647.07
653.41	14616.65
653.55	14544.09
653.70	14410.68
653.84	14504.30
653.99	14398.98
654.13	14637.71
654.27	14342.80
654.42	14537.07
654.56	14686.86
654.71	14501.96
654.85	14684.52
655.00	14600.26
655.14	14656.43
655.29	14368.55
655.43	14471.53
655.57	14195.35
655.72	14209.39
655.86	14640.05
656.01	14382.59
656.15	14303.01
656.30	14099.39
656.44	14017.47
656.58	14373.23
656.73	14164.92
656.87	14445.79
657.01	14314.72
657.16	14284.29
657.30	14527.71
657.45	14288.97
657.59	14286.63
657.73	14274.93
657.88	14185.99
658.02	14235.14
658.16	14267.91
658.31	14211.73
658.45	14218.75
658.60	14097.05
658.74	14050.24
658.88	14005.77
659.03	14162.58
659.17	14249.18
659.31	14113.43
659.46	14080.66
659.60	14090.02
659.74	14223.44
659.89	13933.21
660.03	14258.54
660.17	14237.48
660.32	14181.31
660.46	14064.28
660.60	13870.01
660.74	13844.27
660.89	13937.89
661.03	13884.06
661.17	13785.76
661.32	13944.91
661.46	13785.76
661.60	13987.04
661.74	13940.23
661.89	13872.36
662.03	13722.56
662.17	13820.86
662.31	14099.39
662.46	13769.37
662.60	13607.87
662.74	13748.31
662.88	13561.06
663.03	13834.91
663.17	13586.81
663.31	13575.11
663.45	13640.64
663.60	13680.43
663.74	13556.38
663.88	13640.64
664.02	13771.71
664.17	13865.33
664.31	13579.79
664.45	13715.54
664.59	13570.43
664.73	13720.22
664.88	13666.39
665.02	13380.84
665.16	13521.27
665.30	13242.75
665.44	13245.09
665.59	13301.26
665.73	13312.97
665.87	13420.63
666.01	13460.42
666.15	13504.89
666.29	13291.90
666.44	13633.62
666.58	13191.26
666.72	13191.26
666.86	13254.45
667.00	13422.97
667.14	13064.87
667.28	13177.22
667.43	13341.05
667.57	12926.78
667.71	13242.75
667.85	13209.98
667.99	13095.30
668.13	13186.58
668.27	13067.21
668.41	12915.08
668.56	12957.21
668.70	13165.51
668.84	12940.82
668.98	12683.36
669.12	12922.10
669.26	13062.53
669.40	13032.10
669.54	12840.18
669.68	12901.03
669.82	12568.68
669.96	12793.37
670.10	12706.77
670.25	12688.04
670.39	12524.21
670.53	12854.22
670.67	12662.30
670.81	12458.67
670.95	12753.58
671.09	12690.38
671.23	12819.11
671.37	12954.87
671.51	12666.98
671.65	12727.83
671.79	12475.06
671.93	12369.73
672.07	12463.35
672.21	12421.22
672.35	12451.65
672.49	12463.35
672.63	12395.48
672.77	12292.49
672.91	12311.22
673.05	12236.32
673.19	12400.16
673.33	12491.44
673.47	12645.91
673.61	12332.28
673.75	12486.76
673.89	12039.72
674.03	12107.59
674.17	12280.79
674.31	12131.00
674.45	12131.00
674.59	12095.89
674.73	11929.71
674.87	11758.85
675.01	11908.65
675.15	12161.42
675.29	12163.76
675.43	11932.05
675.56	12112.27
675.70	12105.25
675.84	12170.79
675.98	11492.03
676.12	11789.28
676.26	12004.61
676.40	12121.63
676.54	11751.83
676.68	11735.45
676.82	11510.75
676.96	11517.78
677.10	11492.03
677.23	11620.76
677.37	11456.92
677.51	11440.54
677.65	11749.49
677.79	11463.94
677.93	11611.40
678.07	11335.21
678.21	11145.63
678.34	11435.86
678.48	11318.83
678.62	11281.38
678.76	11489.69
678.90	11183.08
679.04	11019.24
679.18	10995.84
679.31	11232.23
679.45	11176.06
679.59	11145.63
679.73	11176.06
679.87	10822.64
680.00	10881.15
680.14	10995.84
680.28	10757.10
680.42	10904.56
680.56	10757.10
680.70	10970.09
680.83	10803.91
680.97	10890.51
681.11	10909.24
681.25	10780.51
681.39	10899.87
681.52	10675.18
681.66	10876.47
681.80	10670.50
681.94	10427.09
682.07	10679.86
682.21	10303.04
682.35	10361.55
682.49	10380.28
682.62	10574.54
682.76	10455.17
682.90	10525.39
683.04	10450.49
683.17	10286.65
683.31	10097.07
683.45	10221.12
683.59	10370.91
683.72	10195.37
683.86	10111.11
684.00	10164.95
684.13	10104.09
684.27	9982.38
684.41	9895.78
684.55	9839.61
684.68	9879.40
684.82	9820.89
684.96	9657.05
685.09	9790.46
685.23	9724.93
685.37	9804.50
685.50	9717.90
685.64	9558.75
685.78	9612.58
685.91	9790.46
686.05	9652.37
686.19	9680.46
686.32	9717.90
686.46	9570.45
686.60	9479.17
686.73	9624.28
686.87	9399.59
687.01	9432.36
687.14	9291.93
687.28	9282.56
687.42	9366.82
687.55	9359.80
687.69	9287.25
687.82	9184.26
687.96	9469.81
688.10	9350.44
688.23	9252.14
688.37	9261.50
688.50	9135.11
688.64	9004.04
688.78	9315.33
688.91	8954.89
689.05	8828.50
689.18	8922.12
689.32	8662.32
689.46	8812.12
689.59	8826.16
689.73	8997.02
689.86	8690.41
690.00	8760.63
690.13	8674.03
690.27	8690.41
690.41	8557.00
690.54	8620.19
690.68	8821.48
690.81	8528.91
690.95	8617.85
691.08	8582.74
691.22	8475.08
691.35	8557.00
691.49	8393.16
691.62	8566.36
691.76	8552.32
691.89	8592.11
692.03	8201.24
692.16	8248.05
692.30	8201.24
692.43	8294.86
692.57	8119.32
692.70	8243.37
692.84	8393.16
692.97	8133.36
693.11	8126.34
693.24	8105.28
693.38	8021.02
693.51	7859.52
693.65	8063.15
693.78	7929.74
693.92	7735.47
694.05	7976.55
694.19	7908.67
694.32	7714.41
694.45	7789.30
694.59	7485.03
694.72	7634.83
694.86	7709.72
694.99	7424.18
695.13	7529.50
695.26	7761.22
695.39	7489.71
695.53	7716.75
695.66	7702.70
695.80	7473.33
695.93	7573.97
696.07	7492.05
696.20	7185.44
696.33	7414.82
696.47	7438.22
696.60	7246.30
696.73	7353.96
696.87	7248.64
697.00	7300.13
697.14	7176.08
697.27	7066.08
697.40	6986.50
697.54	7045.01
697.67	7133.95
697.80	7239.28
697.94	7033.31
698.07	7129.27
698.21	7105.87
698.34	7145.66
698.47	6979.48
698.61	6853.09
698.74	6876.49
698.87	6944.37
699.01	6876.49
699.14	6953.73
699.27	6813.30
699.40	7070.76
699.54	6745.42
699.67	6864.79
699.80	6724.36
699.94	6499.67
700.07	6583.93
700.20	6469.24
700.34	6471.58
700.47	6516.05
700.60	6600.31
700.73	6546.48
700.87	6588.61
701.00	6459.88
701.13	6352.21
701.26	6408.39
701.40	6324.13
701.53	6389.66
701.66	6312.42
701.79	6183.70
701.93	6197.74
702.06	6328.81
702.19	6256.25
702.32	6466.90
702.46	6047.94
702.59	6040.92
702.72	6001.13
702.85	6076.03
702.99	6132.20
703.12	6036.24
703.25	6005.81
703.38	5973.05
703.51	6221.14
703.65	5884.11
703.78	5809.21
703.91	5884.11
704.04	5933.26
704.17	5874.74
704.31	5834.96
704.44	5764.74
704.57	5556.43
704.70	5675.80
704.83	5687.50
704.96	5631.33
705.10	5584.52
705.23	5668.78
>>>>>End Processed Spectral Data<<<<<
