SpectraSuite Data File
++++++++++++++++++++++++++++++++++++
Date: Fri Oct 04 11:39:51 GMT-05:00 2013
User: price-jones
Dark Spectrum Present: No
Reference Spectrum Present: No
Number of Sampled Component Spectra: 1
Spectrometers: USB2+H05261
Integration Time (usec): 100000 (USB2+H05261)
Spectra Averaged: 1 (USB2+H05261)
Boxcar Smoothing: 0 (USB2+H05261)
Correct for Electrical Dark: No (USB2+H05261)
Strobe/Lamp Enabled: No (USB2+H05261)
Correct for Detector Non-linearity: No (USB2+H05261)
Correct for Stray Light: No (USB2+H05261)
Number of Pixels in Processed Spectrum: 2048
>>>>>Begin Processed Spectral Data<<<<<
365.73	81.92
365.92	81.92
366.12	81.92
366.32	9.36
366.52	0.00
366.72	0.00
366.91	18.72
367.11	0.00
367.31	0.00
367.51	0.00
367.70	0.00
367.90	11.70
368.10	0.00
368.30	0.00
368.49	0.00
368.69	0.00
368.89	14.04
369.09	0.00
369.28	0.00
369.48	44.47
369.68	0.00
369.87	0.00
370.07	2.34
370.27	18.72
370.47	28.09
370.66	4.68
370.86	25.75
371.06	67.88
371.25	58.51
371.45	65.54
371.65	35.11
371.84	98.30
372.04	30.43
372.24	81.92
372.44	65.54
372.63	77.24
372.83	182.56
373.03	4.68
373.22	112.35
373.42	44.47
373.62	95.96
373.81	133.41
374.01	107.66
374.21	140.43
374.40	95.96
374.60	140.43
374.79	156.82
374.99	142.77
375.19	112.35
375.38	114.69
375.58	142.77
375.78	191.92
375.97	79.58
376.17	241.08
376.37	131.07
376.56	182.56
376.76	159.16
376.95	166.18
377.15	114.69
377.35	114.69
377.54	114.69
377.74	30.43
377.93	182.56
378.13	189.58
378.33	95.96
378.52	149.79
378.72	107.66
378.91	107.66
379.11	135.75
379.31	126.39
379.50	102.98
379.70	98.30
379.89	128.73
380.09	60.85
380.28	84.26
380.48	131.07
380.68	72.56
380.87	53.83
381.07	79.58
381.26	229.37
381.46	168.52
381.65	128.73
381.85	112.35
382.04	84.26
382.24	117.03
382.43	138.09
382.63	128.73
382.83	124.05
383.02	154.48
383.22	156.82
383.41	119.37
383.61	142.77
383.80	126.39
384.00	135.75
384.19	121.71
384.39	135.75
384.58	72.56
384.78	173.20
384.97	58.51
385.17	84.26
385.36	114.69
385.56	105.32
385.75	114.69
385.95	100.64
386.14	180.22
386.34	81.92
386.53	128.73
386.72	135.75
386.92	110.01
387.11	131.07
387.31	161.50
387.50	168.52
387.70	74.90
387.89	117.03
388.09	58.51
388.28	67.88
388.48	98.30
388.67	156.82
388.86	51.49
389.06	133.41
389.25	124.05
389.45	191.92
389.64	212.99
389.84	161.50
390.03	84.26
390.22	81.92
390.42	135.75
390.61	77.24
390.81	114.69
391.00	100.64
391.19	128.73
391.39	140.43
391.58	128.73
391.78	93.62
391.97	142.77
392.16	112.35
392.36	58.51
392.55	135.75
392.75	98.30
392.94	72.56
393.13	163.84
393.33	51.49
393.52	105.32
393.71	140.43
393.91	77.24
394.10	100.64
394.29	98.30
394.49	152.13
394.68	105.32
394.88	124.05
395.07	147.45
395.26	149.79
395.46	63.19
395.65	133.41
395.84	84.26
396.04	194.26
396.23	65.54
396.42	112.35
396.62	135.75
396.81	79.58
397.00	128.73
397.19	102.98
397.39	100.64
397.58	110.01
397.77	159.16
397.97	133.41
398.16	100.64
398.35	86.60
398.55	121.71
398.74	156.82
398.93	159.16
399.12	105.32
399.32	147.45
399.51	107.66
399.70	131.07
399.90	145.11
400.09	77.24
400.28	203.63
400.47	238.73
400.67	166.18
400.86	154.48
401.05	161.50
401.24	131.07
401.44	72.56
401.63	138.09
401.82	147.45
402.01	70.22
402.21	168.52
402.40	163.84
402.59	135.75
402.78	161.50
402.97	135.75
403.17	154.48
403.36	189.58
403.55	133.41
403.74	152.13
403.93	194.26
404.13	180.22
404.32	322.99
404.51	250.44
404.70	168.52
404.89	208.31
405.09	215.33
405.28	194.26
405.47	91.28
405.66	177.88
405.85	149.79
406.05	140.43
406.24	170.86
406.43	163.84
406.62	241.08
406.81	112.35
407.00	212.99
407.20	135.75
407.39	156.82
407.58	105.32
407.77	105.32
407.96	161.50
408.15	149.79
408.34	95.96
408.54	156.82
408.73	135.75
408.92	128.73
409.11	140.43
409.30	168.52
409.49	81.92
409.68	173.20
409.87	147.45
410.07	119.37
410.26	173.20
410.45	147.45
410.64	173.20
410.83	163.84
411.02	86.60
411.21	133.41
411.40	128.73
411.59	159.16
411.78	156.82
411.98	145.11
412.17	110.01
412.36	145.11
412.55	154.48
412.74	126.39
412.93	161.50
413.12	163.84
413.31	173.20
413.50	189.58
413.69	131.07
413.88	177.88
414.07	102.98
414.26	60.85
414.45	121.71
414.64	128.73
414.83	149.79
415.02	119.37
415.22	177.88
415.41	238.73
415.60	102.98
415.79	124.05
415.98	222.35
416.17	138.09
416.36	91.28
416.55	124.05
416.74	135.75
416.93	196.60
417.12	121.71
417.31	81.92
417.50	149.79
417.69	163.84
417.88	161.50
418.07	65.54
418.26	112.35
418.45	170.86
418.64	198.95
418.83	121.71
419.02	196.60
419.21	88.94
419.39	44.47
419.58	175.54
419.77	98.30
419.96	224.69
420.15	161.50
420.34	142.77
420.53	161.50
420.72	107.66
420.91	191.92
421.10	110.01
421.29	102.98
421.48	166.18
421.67	163.84
421.86	112.35
422.05	74.90
422.24	142.77
422.43	142.77
422.61	133.41
422.80	159.16
422.99	201.29
423.18	156.82
423.37	156.82
423.56	170.86
423.75	180.22
423.94	126.39
424.13	156.82
424.32	131.07
424.50	170.86
424.69	173.20
424.88	147.45
425.07	182.56
425.26	114.69
425.45	133.41
425.64	194.26
425.83	110.01
426.01	112.35
426.20	145.11
426.39	215.33
426.58	180.22
426.77	170.86
426.96	86.60
427.15	124.05
427.33	114.69
427.52	163.84
427.71	42.13
427.90	124.05
428.09	117.03
428.28	72.56
428.46	166.18
428.65	131.07
428.84	173.20
429.03	201.29
429.22	180.22
429.40	102.98
429.59	194.26
429.78	166.18
429.97	161.50
430.16	208.31
430.34	168.52
430.53	212.99
430.72	173.20
430.91	262.14
431.10	163.84
431.28	67.88
431.47	250.44
431.66	121.71
431.85	166.18
432.03	191.92
432.22	152.13
432.41	128.73
432.60	173.20
432.79	131.07
432.97	161.50
433.16	133.41
433.35	145.11
433.54	131.07
433.72	147.45
433.91	231.71
434.10	182.56
434.28	138.09
434.47	177.88
434.66	210.65
434.85	184.90
435.03	290.23
435.22	653.01
435.41	1069.62
435.59	1081.33
435.78	837.91
435.97	470.45
436.16	262.14
436.34	184.90
436.53	222.35
436.72	180.22
436.90	245.76
437.09	215.33
437.28	142.77
437.46	77.24
437.65	128.73
437.84	117.03
438.02	234.05
438.21	163.84
438.40	128.73
438.58	166.18
438.77	182.56
438.96	250.44
439.14	142.77
439.33	184.90
439.52	182.56
439.70	147.45
439.89	163.84
440.08	166.18
440.26	198.95
440.45	234.05
440.63	159.16
440.82	154.48
441.01	166.18
441.19	114.69
441.38	191.92
441.57	138.09
441.75	210.65
441.94	203.63
442.12	184.90
442.31	182.56
442.50	154.48
442.68	161.50
442.87	126.39
443.05	170.86
443.24	189.58
443.43	262.14
443.61	182.56
443.80	196.60
443.98	163.84
444.17	187.24
444.35	189.58
444.54	220.01
444.73	163.84
444.91	229.37
445.10	140.43
445.28	126.39
445.47	173.20
445.65	168.52
445.84	170.86
446.02	170.86
446.21	135.75
446.39	177.88
446.58	154.48
446.77	110.01
446.95	198.95
447.14	208.31
447.32	161.50
447.51	145.11
447.69	161.50
447.88	154.48
448.06	180.22
448.25	170.86
448.43	217.67
448.62	119.37
448.80	231.71
448.99	222.35
449.17	166.18
449.36	140.43
449.54	236.39
449.73	177.88
449.91	161.50
450.10	152.13
450.28	229.37
450.46	210.65
450.65	250.44
450.83	203.63
451.02	156.82
451.20	227.03
451.39	138.09
451.57	224.69
451.76	102.98
451.94	166.18
452.13	168.52
452.31	234.05
452.49	180.22
452.68	220.01
452.86	161.50
453.05	182.56
453.23	117.03
453.42	198.95
453.60	201.29
453.78	170.86
453.97	145.11
454.15	173.20
454.34	224.69
454.52	196.60
454.70	175.54
454.89	210.65
455.07	98.30
455.26	208.31
455.44	205.97
455.62	241.08
455.81	163.84
455.99	166.18
456.17	201.29
456.36	121.71
456.54	252.78
456.73	182.56
456.91	210.65
457.09	182.56
457.28	245.76
457.46	208.31
457.64	189.58
457.83	170.86
458.01	173.20
458.19	149.79
458.38	149.79
458.56	175.54
458.74	170.86
458.93	194.26
459.11	182.56
459.29	145.11
459.48	163.84
459.66	175.54
459.84	128.73
460.03	205.97
460.21	175.54
460.39	105.32
460.57	180.22
460.76	245.76
460.94	175.54
461.12	194.26
461.31	215.33
461.49	191.92
461.67	159.16
461.85	205.97
462.04	205.97
462.22	688.12
462.40	238.73
462.59	222.35
462.77	173.20
462.95	217.67
463.13	196.60
463.32	177.88
463.50	191.92
463.68	231.71
463.86	154.48
464.05	184.90
464.23	224.69
464.41	175.54
464.59	175.54
464.78	112.35
464.96	184.90
465.14	175.54
465.32	203.63
465.50	189.58
465.69	163.84
465.87	177.88
466.05	198.95
466.23	220.01
466.41	100.64
466.60	198.95
466.78	147.45
466.96	227.03
467.14	203.63
467.32	149.79
467.51	161.50
467.69	229.37
467.87	245.76
468.05	156.82
468.23	252.78
468.41	166.18
468.60	234.05
468.78	224.69
468.96	145.11
469.14	231.71
469.32	173.20
469.50	238.73
469.69	170.86
469.87	147.45
470.05	168.52
470.23	229.37
470.41	215.33
470.59	170.86
470.77	231.71
470.95	255.12
471.14	231.71
471.32	220.01
471.50	262.14
471.68	210.65
471.86	196.60
472.04	177.88
472.22	177.88
472.40	191.92
472.58	175.54
472.77	194.26
472.95	175.54
473.13	262.14
473.31	308.95
473.49	152.13
473.67	189.58
473.85	217.67
474.03	110.01
474.21	177.88
474.39	224.69
474.57	285.55
474.75	212.99
474.93	215.33
475.12	191.92
475.30	241.08
475.48	194.26
475.66	250.44
475.84	152.13
476.02	182.56
476.20	248.10
476.38	191.92
476.56	236.39
476.74	238.73
476.92	156.82
477.10	170.86
477.28	208.31
477.46	191.92
477.64	273.84
477.82	294.91
478.00	191.92
478.18	189.58
478.36	210.65
478.54	208.31
478.72	229.37
478.90	205.97
479.08	234.05
479.26	248.10
479.44	229.37
479.62	198.95
479.80	215.33
479.98	194.26
480.16	224.69
480.34	262.14
480.52	224.69
480.70	222.35
480.88	135.75
481.06	175.54
481.24	187.24
481.41	205.97
481.59	236.39
481.77	278.52
481.95	205.97
482.13	259.80
482.31	201.29
482.49	215.33
482.67	236.39
482.85	245.76
483.03	259.80
483.21	259.80
483.39	212.99
483.57	299.59
483.74	278.52
483.92	278.52
484.10	252.78
484.28	304.27
484.46	334.70
484.64	276.18
484.82	351.08
485.00	306.61
485.18	308.95
485.35	227.03
485.53	238.73
485.71	330.02
485.89	294.91
486.07	264.48
486.25	383.85
486.43	372.15
486.61	313.63
486.78	315.97
486.96	276.18
487.14	322.99
487.32	313.63
487.50	304.27
487.68	407.25
487.85	306.61
488.03	351.08
488.21	322.99
488.39	255.12
488.57	388.53
488.75	327.68
488.92	540.66
489.10	341.72
489.28	362.78
489.46	339.38
489.64	248.10
489.81	308.95
489.99	292.57
490.17	355.76
490.35	421.30
490.53	332.36
490.70	344.06
490.88	351.08
491.06	372.15
491.24	362.78
491.41	402.57
491.59	318.31
491.77	320.65
491.95	273.84
492.13	271.50
492.30	334.70
492.48	264.48
492.66	308.95
492.84	255.12
493.01	299.59
493.19	337.04
493.37	313.63
493.54	304.27
493.72	411.93
493.90	332.36
494.08	304.27
494.25	334.70
494.43	339.38
494.61	311.29
494.79	241.08
494.96	278.52
495.14	276.18
495.32	322.99
495.49	386.19
495.67	308.95
495.85	299.59
496.02	257.46
496.20	287.89
496.38	332.36
496.55	395.55
496.73	304.27
496.91	285.55
497.09	322.99
497.26	332.36
497.44	266.82
497.62	283.20
497.79	210.65
497.97	273.84
498.14	320.65
498.32	311.29
498.50	327.68
498.67	257.46
498.85	341.72
499.03	238.73
499.20	304.27
499.38	315.97
499.56	353.42
499.73	360.44
499.91	304.27
500.08	325.33
500.26	220.01
500.44	292.57
500.61	250.44
500.79	301.93
500.97	299.59
501.14	313.63
501.32	273.84
501.49	311.29
501.67	315.97
501.84	306.61
502.02	292.57
502.20	360.44
502.37	297.25
502.55	252.78
502.72	238.73
502.90	264.48
503.07	266.82
503.25	304.27
503.43	238.73
503.60	280.86
503.78	269.16
503.95	266.82
504.13	304.27
504.30	351.08
504.48	337.04
504.65	294.91
504.83	241.08
505.01	273.84
505.18	306.61
505.36	257.46
505.53	285.55
505.71	292.57
505.88	320.65
506.06	266.82
506.23	255.12
506.41	245.76
506.58	266.82
506.76	271.50
506.93	269.16
507.11	315.97
507.28	191.92
507.46	241.08
507.63	320.65
507.81	210.65
507.98	208.31
508.16	278.52
508.33	229.37
508.50	301.93
508.68	234.05
508.85	224.69
509.03	205.97
509.20	290.23
509.38	287.89
509.55	334.70
509.73	304.27
509.90	320.65
510.08	210.65
510.25	330.02
510.42	299.59
510.60	290.23
510.77	299.59
510.95	327.68
511.12	229.37
511.30	262.14
511.47	341.72
511.64	327.68
511.82	360.44
511.99	266.82
512.17	257.46
512.34	245.76
512.51	212.99
512.69	236.39
512.86	243.42
513.04	292.57
513.21	318.31
513.38	243.42
513.56	304.27
513.73	308.95
513.90	283.20
514.08	259.80
514.25	315.97
514.43	315.97
514.60	269.16
514.77	252.78
514.95	259.80
515.12	243.42
515.29	273.84
515.47	325.33
515.64	283.20
515.81	248.10
515.99	299.59
516.16	315.97
516.33	257.46
516.51	259.80
516.68	229.37
516.85	285.55
517.03	250.44
517.20	257.46
517.37	355.76
517.54	276.18
517.72	276.18
517.89	245.76
518.06	227.03
518.24	367.46
518.41	353.42
518.58	255.12
518.75	294.91
518.93	318.31
519.10	229.37
519.27	245.76
519.45	341.72
519.62	283.20
519.79	344.06
519.96	243.42
520.14	318.31
520.31	346.40
520.48	299.59
520.65	381.51
520.83	351.08
521.00	355.76
521.17	280.86
521.34	212.99
521.52	271.50
521.69	269.16
521.86	297.25
522.03	297.25
522.20	358.10
522.38	238.73
522.55	320.65
522.72	299.59
522.89	325.33
523.07	341.72
523.24	341.72
523.41	365.12
523.58	255.12
523.75	311.29
523.92	355.76
524.10	292.57
524.27	369.80
524.44	311.29
524.61	332.36
524.78	325.33
524.96	400.23
525.13	287.89
525.30	339.38
525.47	348.74
525.64	334.70
525.81	325.33
525.98	376.83
526.16	257.46
526.33	264.48
526.50	341.72
526.67	224.69
526.84	255.12
527.01	241.08
527.18	276.18
527.36	301.93
527.53	229.37
527.70	344.06
527.87	339.38
528.04	330.02
528.21	318.31
528.38	376.83
528.55	320.65
528.72	344.06
528.89	365.12
529.07	341.72
529.24	301.93
529.41	355.76
529.58	327.68
529.75	318.31
529.92	269.16
530.09	271.50
530.26	362.78
530.43	283.20
530.60	388.53
530.77	311.29
530.94	318.31
531.11	339.38
531.28	325.33
531.46	341.72
531.63	334.70
531.80	339.38
531.97	299.59
532.14	299.59
532.31	301.93
532.48	325.33
532.65	355.76
532.82	362.78
532.99	372.15
533.16	259.80
533.33	320.65
533.50	245.76
533.67	292.57
533.84	358.10
534.01	379.17
534.18	292.57
534.35	334.70
534.52	313.63
534.69	351.08
534.86	360.44
535.03	334.70
535.20	390.87
535.37	252.78
535.54	332.36
535.71	367.46
535.88	372.15
536.05	360.44
536.22	360.44
536.38	348.74
536.55	388.53
536.72	414.27
536.89	355.76
537.06	393.21
537.23	397.89
537.40	447.04
537.57	458.74
537.74	416.62
537.91	486.83
538.08	479.81
538.25	423.64
538.42	468.11
538.59	386.19
538.75	510.24
538.92	500.87
539.09	552.37
539.26	411.93
539.43	587.47
539.60	566.41
539.77	587.47
539.94	784.08
540.11	786.42
540.28	788.76
540.44	800.46
540.61	748.97
540.78	791.10
540.95	1057.92
541.12	1156.22
541.29	1214.74
541.46	1310.70
541.62	1221.76
541.79	1327.08
541.96	1348.15
542.13	1322.40
542.30	1256.87
542.47	1078.99
542.63	1184.31
542.80	1179.63
542.97	1235.80
543.14	1139.84
543.31	1123.46
543.48	1125.80
543.64	1259.21
543.81	1188.99
543.98	1137.50
544.15	1167.93
544.32	1144.52
544.48	1074.31
544.65	1146.86
544.82	1074.31
544.99	1020.47
545.16	1132.82
545.32	1130.48
545.49	1757.74
545.66	2551.18
545.83	3061.42
546.00	2724.38
546.16	1966.05
546.33	1486.24
546.50	1184.31
546.67	1069.62
546.83	837.91
547.00	828.55
547.17	826.21
547.34	912.81
547.50	695.14
547.67	788.76
547.84	730.25
548.00	870.68
548.17	709.18
548.34	730.25
548.51	699.82
548.67	755.99
548.84	667.05
549.01	795.78
549.18	676.41
549.34	643.65
549.51	718.54
549.68	648.33
549.84	629.60
550.01	528.96
550.18	669.39
550.34	587.47
550.51	512.58
550.68	552.37
550.84	550.03
551.01	578.11
551.18	521.94
551.34	564.07
551.51	514.92
551.68	461.09
551.84	578.11
552.01	505.56
552.18	440.02
552.34	521.94
552.51	559.39
552.68	477.47
552.84	465.77
553.01	428.32
553.18	463.43
553.34	390.87
553.51	379.17
553.67	388.53
553.84	484.49
554.01	435.34
554.17	400.23
554.34	383.85
554.51	381.51
554.67	472.79
554.84	437.68
555.00	372.15
555.17	400.23
555.33	418.96
555.50	367.46
555.67	362.78
555.83	395.55
556.00	416.62
556.16	526.62
556.33	430.66
556.50	355.76
556.66	369.80
556.83	259.80
556.99	325.33
557.16	365.12
557.32	383.85
557.49	320.65
557.65	372.15
557.82	381.51
557.98	379.17
558.15	276.18
558.32	339.38
558.48	318.31
558.65	353.42
558.81	346.40
558.98	252.78
559.14	304.27
559.31	376.83
559.47	315.97
559.64	339.38
559.80	367.46
559.97	341.72
560.13	355.76
560.30	250.44
560.46	285.55
560.63	325.33
560.79	337.04
560.96	315.97
561.12	339.38
561.29	283.20
561.45	374.49
561.61	360.44
561.78	421.30
561.94	344.06
562.11	294.91
562.27	280.86
562.44	234.05
562.60	355.76
562.77	351.08
562.93	330.02
563.10	304.27
563.26	311.29
563.42	318.31
563.59	252.78
563.75	393.21
563.92	374.49
564.08	458.74
564.24	365.12
564.41	428.32
564.57	292.57
564.74	325.33
564.90	365.12
565.07	334.70
565.23	374.49
565.39	360.44
565.56	341.72
565.72	330.02
565.88	341.72
566.05	325.33
566.21	346.40
566.38	290.23
566.54	306.61
566.70	285.55
566.87	292.57
567.03	252.78
567.19	304.27
567.36	315.97
567.52	376.83
567.68	334.70
567.85	311.29
568.01	346.40
568.17	376.83
568.34	402.57
568.50	367.46
568.66	299.59
568.83	390.87
568.99	301.93
569.15	257.46
569.32	283.20
569.48	313.63
569.64	231.71
569.81	287.89
569.97	287.89
570.13	330.02
570.30	294.91
570.46	339.38
570.62	278.52
570.78	271.50
570.95	294.91
571.11	339.38
571.27	369.80
571.43	334.70
571.60	308.95
571.76	322.99
571.92	383.85
572.09	278.52
572.25	334.70
572.41	259.80
572.57	393.21
572.74	376.83
572.90	355.76
573.06	339.38
573.22	330.02
573.38	283.20
573.55	334.70
573.71	304.27
573.87	337.04
574.03	318.31
574.20	337.04
574.36	315.97
574.52	376.83
574.68	344.06
574.84	332.36
575.01	262.14
575.17	306.61
575.33	255.12
575.49	402.57
575.65	390.87
575.82	369.80
575.98	400.23
576.14	353.42
576.30	414.27
576.46	498.53
576.62	781.74
576.79	755.99
576.95	674.07
577.11	500.87
577.27	416.62
577.43	463.43
577.59	369.80
577.75	444.70
577.92	337.04
578.08	318.31
578.24	334.70
578.40	393.21
578.56	547.69
578.72	732.59
578.88	812.17
579.04	690.46
579.21	472.79
579.37	512.58
579.53	489.17
579.69	510.24
579.85	437.68
580.01	500.87
580.17	578.11
580.33	416.62
580.49	388.53
580.65	444.70
580.82	444.70
580.98	416.62
581.14	369.80
581.30	484.49
581.46	365.12
581.62	421.30
581.78	500.87
581.94	479.81
582.10	470.45
582.26	484.49
582.42	491.51
582.58	535.98
582.74	582.79
582.90	463.43
583.06	521.94
583.22	557.05
583.38	519.60
583.54	589.82
583.70	510.24
583.86	484.49
584.02	547.69
584.18	543.00
584.34	543.00
584.50	470.45
584.66	458.74
584.82	418.96
584.98	496.19
585.14	496.19
585.30	472.79
585.46	465.77
585.62	489.17
585.78	472.79
585.94	503.22
586.10	437.68
586.26	503.22
586.42	543.00
586.58	557.05
586.74	601.52
586.90	674.07
587.06	716.20
587.22	683.44
587.38	671.73
587.54	622.58
587.70	613.22
587.86	566.41
588.02	526.62
588.18	486.83
588.34	451.72
588.49	451.72
588.65	440.02
588.81	374.49
588.97	433.00
589.13	472.79
589.29	465.77
589.45	400.23
589.61	430.66
589.77	402.57
589.93	440.02
590.08	411.93
590.24	456.40
590.40	409.59
590.56	482.15
590.72	383.85
590.88	355.76
591.04	351.08
591.20	318.31
591.35	538.32
591.51	465.77
591.67	414.27
591.83	430.66
591.99	521.94
592.15	552.37
592.31	550.03
592.46	444.70
592.62	615.56
592.78	547.69
592.94	486.83
593.10	477.47
593.26	454.06
593.41	491.51
593.57	489.17
593.73	493.85
593.89	414.27
594.05	514.92
594.20	400.23
594.36	407.25
594.52	449.38
594.68	395.55
594.84	400.23
594.99	418.96
595.15	379.17
595.31	416.62
595.47	437.68
595.62	344.06
595.78	299.59
595.94	374.49
596.10	404.91
596.25	393.21
596.41	477.47
596.57	325.33
596.73	440.02
596.88	433.00
597.04	337.04
597.20	440.02
597.36	444.70
597.51	379.17
597.67	367.46
597.83	362.78
597.99	376.83
598.14	416.62
598.30	428.32
598.46	440.02
598.61	421.30
598.77	491.51
598.93	451.72
599.09	440.02
599.24	379.17
599.40	524.28
599.56	456.40
599.71	451.72
599.87	367.46
600.03	444.70
600.18	456.40
600.34	395.55
600.50	346.40
600.65	332.36
600.81	381.51
600.97	351.08
601.12	306.61
601.28	402.57
601.44	416.62
601.59	304.27
601.75	327.68
601.91	313.63
602.06	416.62
602.22	383.85
602.37	315.97
602.53	353.42
602.69	414.27
602.84	334.70
603.00	351.08
603.16	280.86
603.31	337.04
603.47	304.27
603.62	362.78
603.78	341.72
603.94	252.78
604.09	358.10
604.25	397.89
604.40	416.62
604.56	315.97
604.71	348.74
604.87	334.70
605.03	325.33
605.18	388.53
605.34	433.00
605.49	477.47
605.65	390.87
605.80	367.46
605.96	388.53
606.12	362.78
606.27	327.68
606.43	360.44
606.58	355.76
606.74	428.32
606.89	451.72
607.05	325.33
607.20	456.40
607.36	407.25
607.51	381.51
607.67	407.25
607.82	456.40
607.98	498.53
608.13	479.81
608.29	463.43
608.44	580.45
608.60	505.56
608.75	507.90
608.91	589.82
609.06	620.24
609.22	545.34
609.37	655.35
609.53	599.18
609.68	720.88
609.84	746.63
609.99	964.30
610.15	1069.62
610.30	1247.51
610.46	1423.05
610.61	1755.40
610.76	2249.25
610.92	2567.57
611.07	2888.22
611.23	2843.75
611.38	2731.41
611.54	2415.43
611.69	2129.89
611.84	1769.44
612.00	1591.56
612.15	1383.26
612.31	1210.06
612.46	1088.35
612.62	1027.50
612.77	1048.56
612.92	994.73
613.08	912.81
613.23	898.77
613.39	833.23
613.54	851.96
613.69	870.68
613.85	863.66
614.00	863.66
614.15	830.89
614.31	882.38
614.46	830.89
614.62	772.38
614.77	861.32
614.92	788.76
615.08	706.84
615.23	746.63
615.38	643.65
615.54	592.16
615.69	653.01
615.84	477.47
616.00	615.56
616.15	500.87
616.30	557.05
616.46	486.83
616.61	603.86
616.76	498.53
616.92	461.09
617.07	421.30
617.22	458.74
617.37	414.27
617.53	503.22
617.68	512.58
617.83	472.79
617.99	425.98
618.14	465.77
618.29	435.34
618.45	407.25
618.60	337.04
618.75	395.55
618.90	435.34
619.06	442.36
619.21	498.53
619.36	461.09
619.51	451.72
619.67	528.96
619.82	402.57
619.97	477.47
620.12	526.62
620.28	456.40
620.43	416.62
620.58	402.57
620.73	503.22
620.89	440.02
621.04	379.17
621.19	383.85
621.34	472.79
621.49	470.45
621.65	533.64
621.80	425.98
621.95	416.62
622.10	425.98
622.25	358.10
622.41	414.27
622.56	416.62
622.71	362.78
622.86	461.09
623.01	430.66
623.16	472.79
623.32	435.34
623.47	517.26
623.62	458.74
623.77	433.00
623.92	444.70
624.07	390.87
624.23	433.00
624.38	365.12
624.53	397.89
624.68	395.55
624.83	456.40
624.98	395.55
625.13	313.63
625.29	421.30
625.44	505.56
625.59	411.93
625.74	423.64
625.89	421.30
626.04	348.74
626.19	376.83
626.34	358.10
626.49	411.93
626.65	402.57
626.80	353.42
626.95	440.02
627.10	407.25
627.25	404.91
627.40	362.78
627.55	372.15
627.70	433.00
627.85	414.27
628.00	433.00
628.15	425.98
628.30	395.55
628.45	369.80
628.60	411.93
628.76	388.53
628.91	381.51
629.06	388.53
629.21	402.57
629.36	470.45
629.51	404.91
629.66	435.34
629.81	414.27
629.96	421.30
630.11	416.62
630.26	454.06
630.41	468.11
630.56	486.83
630.71	435.34
630.86	491.51
631.01	528.96
631.16	496.19
631.31	503.22
631.46	447.04
631.61	411.93
631.76	388.53
631.91	367.46
632.06	367.46
632.21	372.15
632.36	337.04
632.51	315.97
632.66	304.27
632.81	365.12
632.96	348.74
633.10	372.15
633.25	339.38
633.40	297.25
633.55	337.04
633.70	332.36
633.85	287.89
634.00	325.33
634.15	245.76
634.30	285.55
634.45	285.55
634.60	322.99
634.75	250.44
634.90	217.67
635.05	280.86
635.19	264.48
635.34	266.82
635.49	306.61
635.64	285.55
635.79	297.25
635.94	292.57
636.09	304.27
636.24	264.48
636.39	273.84
636.53	330.02
636.68	358.10
636.83	306.61
636.98	339.38
637.13	276.18
637.28	273.84
637.43	285.55
637.57	301.93
637.72	276.18
637.87	320.65
638.02	184.90
638.17	276.18
638.32	313.63
638.46	299.59
638.61	327.68
638.76	250.44
638.91	182.56
639.06	301.93
639.20	313.63
639.35	376.83
639.50	322.99
639.65	315.97
639.80	252.78
639.94	315.97
640.09	346.40
640.24	304.27
640.39	262.14
640.54	372.15
640.68	229.37
640.83	327.68
640.98	250.44
641.13	212.99
641.27	196.60
641.42	362.78
641.57	337.04
641.72	308.95
641.86	248.10
642.01	252.78
642.16	299.59
642.31	280.86
642.45	292.57
642.60	222.35
642.75	266.82
642.90	241.08
643.04	292.57
643.19	283.20
643.34	283.20
643.48	280.86
643.63	280.86
643.78	299.59
643.93	337.04
644.07	252.78
644.22	318.31
644.37	332.36
644.51	259.80
644.66	262.14
644.81	212.99
644.95	299.59
645.10	280.86
645.25	222.35
645.39	276.18
645.54	301.93
645.69	276.18
645.83	269.16
645.98	320.65
646.13	294.91
646.27	231.71
646.42	248.10
646.57	287.89
646.71	208.31
646.86	276.18
647.00	245.76
647.15	332.36
647.30	227.03
647.44	287.89
647.59	196.60
647.74	299.59
647.88	252.78
648.03	245.76
648.17	283.20
648.32	236.39
648.47	308.95
648.61	227.03
648.76	248.10
648.90	210.65
649.05	285.55
649.20	180.22
649.34	194.26
649.49	227.03
649.63	292.57
649.78	290.23
649.92	308.95
650.07	271.50
650.21	266.82
650.36	358.10
650.51	264.48
650.65	327.68
650.80	266.82
650.94	241.08
651.09	297.25
651.23	241.08
651.38	257.46
651.52	280.86
651.67	269.16
651.81	308.95
651.96	292.57
652.10	292.57
652.25	280.86
652.39	273.84
652.54	287.89
652.68	236.39
652.83	297.25
652.97	259.80
653.12	259.80
653.26	301.93
653.41	290.23
653.55	318.31
653.70	252.78
653.84	194.26
653.99	266.82
654.13	248.10
654.27	325.33
654.42	313.63
654.56	297.25
654.71	269.16
654.85	215.33
655.00	243.42
655.14	215.33
655.29	236.39
655.43	243.42
655.57	266.82
655.72	266.82
655.86	257.46
656.01	212.99
656.15	276.18
656.30	273.84
656.44	234.05
656.58	217.67
656.73	271.50
656.87	250.44
657.01	238.73
657.16	262.14
657.30	201.29
657.45	297.25
657.59	241.08
657.73	222.35
657.88	294.91
658.02	367.46
658.16	332.36
658.31	189.58
658.45	238.73
658.60	283.20
658.74	273.84
658.88	308.95
659.03	294.91
659.17	217.67
659.31	208.31
659.46	205.97
659.60	278.52
659.74	238.73
659.89	297.25
660.03	212.99
660.17	266.82
660.32	322.99
660.46	257.46
660.60	217.67
660.74	315.97
660.89	276.18
661.03	212.99
661.17	259.80
661.32	252.78
661.46	290.23
661.60	205.97
661.74	201.29
661.89	255.12
662.03	262.14
662.17	283.20
662.31	313.63
662.46	360.44
662.60	351.08
662.74	243.42
662.88	224.69
663.03	236.39
663.17	220.01
663.31	266.82
663.45	313.63
663.60	301.93
663.74	271.50
663.88	248.10
664.02	262.14
664.17	234.05
664.31	184.90
664.45	222.35
664.59	229.37
664.73	201.29
664.88	252.78
665.02	222.35
665.16	238.73
665.30	355.76
665.44	227.03
665.59	245.76
665.73	210.65
665.87	184.90
666.01	255.12
666.15	248.10
666.29	205.97
666.44	259.80
666.58	353.42
666.72	208.31
666.86	276.18
667.00	152.13
667.14	271.50
667.28	283.20
667.43	255.12
667.57	255.12
667.71	238.73
667.85	278.52
667.99	250.44
668.13	177.88
668.27	273.84
668.41	212.99
668.56	278.52
668.70	227.03
668.84	262.14
668.98	287.89
669.12	238.73
669.26	163.84
669.40	262.14
669.54	257.46
669.68	259.80
669.82	152.13
669.96	264.48
670.10	262.14
670.25	280.86
670.39	273.84
670.53	273.84
670.67	278.52
670.81	175.54
670.95	215.33
671.09	241.08
671.23	257.46
671.37	231.71
671.51	212.99
671.65	264.48
671.79	294.91
671.93	224.69
672.07	264.48
672.21	245.76
672.35	229.37
672.49	170.86
672.63	243.42
672.77	147.45
672.91	208.31
673.05	255.12
673.19	198.95
673.33	212.99
673.47	264.48
673.61	234.05
673.75	170.86
673.89	257.46
674.03	222.35
674.17	259.80
674.31	227.03
674.45	212.99
674.59	360.44
674.73	205.97
674.87	196.60
675.01	191.92
675.15	231.71
675.29	292.57
675.43	276.18
675.56	238.73
675.70	168.52
675.84	217.67
675.98	215.33
676.12	194.26
676.26	196.60
676.40	238.73
676.54	252.78
676.68	182.56
676.82	276.18
676.96	203.63
677.10	287.89
677.23	262.14
677.37	184.90
677.51	241.08
677.65	339.38
677.79	224.69
677.93	231.71
678.07	189.58
678.21	159.16
678.34	189.58
678.48	234.05
678.62	168.52
678.76	196.60
678.90	175.54
679.04	220.01
679.18	217.67
679.31	262.14
679.45	276.18
679.59	224.69
679.73	241.08
679.87	182.56
680.00	175.54
680.14	220.01
680.28	248.10
680.42	238.73
680.56	285.55
680.70	208.31
680.83	304.27
680.97	250.44
681.11	234.05
681.25	156.82
681.39	227.03
681.52	234.05
681.66	210.65
681.80	248.10
681.94	245.76
682.07	203.63
682.21	173.20
682.35	182.56
682.49	154.48
682.62	215.33
682.76	156.82
682.90	241.08
683.04	229.37
683.17	227.03
683.31	189.58
683.45	234.05
683.59	203.63
683.72	238.73
683.86	234.05
684.00	245.76
684.13	224.69
684.27	229.37
684.41	229.37
684.55	189.58
684.68	283.20
684.82	227.03
684.96	194.26
685.09	196.60
685.23	243.42
685.37	210.65
685.50	215.33
685.64	184.90
685.78	147.45
685.91	128.73
686.05	231.71
686.19	245.76
686.32	173.20
686.46	180.22
686.60	189.58
686.73	290.23
686.87	152.13
687.01	264.48
687.14	124.05
687.28	161.50
687.42	175.54
687.55	166.18
687.69	273.84
687.82	145.11
687.96	215.33
688.10	259.80
688.23	215.33
688.37	229.37
688.50	227.03
688.64	184.90
688.78	159.16
688.91	236.39
689.05	184.90
689.18	145.11
689.32	131.07
689.46	196.60
689.59	262.14
689.73	266.82
689.86	159.16
690.00	145.11
690.13	163.84
690.27	184.90
690.41	236.39
690.54	222.35
690.68	273.84
690.81	112.35
690.95	231.71
691.08	114.69
691.22	119.37
691.35	131.07
691.49	203.63
691.62	198.95
691.76	229.37
691.89	163.84
692.03	198.95
692.16	119.37
692.30	224.69
692.43	220.01
692.57	184.90
692.70	159.16
692.84	220.01
692.97	243.42
693.11	135.75
693.24	201.29
693.38	126.39
693.51	280.86
693.65	201.29
693.78	187.24
693.92	250.44
694.05	264.48
694.19	119.37
694.32	166.18
694.45	264.48
694.59	205.97
694.72	198.95
694.86	175.54
694.99	217.67
695.13	196.60
695.26	227.03
695.39	234.05
695.53	294.91
695.66	170.86
695.80	175.54
695.93	100.64
696.07	212.99
696.20	124.05
696.33	152.13
696.47	133.41
696.60	163.84
696.73	159.16
696.87	168.52
697.00	198.95
697.14	88.94
697.27	271.50
697.40	142.77
697.54	98.30
697.67	182.56
697.80	154.48
697.94	156.82
698.07	140.43
698.21	121.71
698.34	201.29
698.47	163.84
698.61	163.84
698.74	145.11
698.87	227.03
699.01	168.52
699.14	140.43
699.27	131.07
699.40	227.03
699.54	154.48
699.67	124.05
699.80	110.01
699.94	210.65
700.07	147.45
700.20	187.24
700.34	170.86
700.47	93.62
700.60	177.88
700.73	170.86
700.87	285.55
701.00	117.03
701.13	154.48
701.26	203.63
701.40	77.24
701.53	135.75
701.66	105.32
701.79	203.63
701.93	149.79
702.06	231.71
702.19	191.92
702.32	191.92
702.46	187.24
702.59	145.11
702.72	161.50
702.85	222.35
702.99	93.62
703.12	187.24
703.25	102.98
703.38	163.84
703.51	147.45
703.65	133.41
703.78	182.56
703.91	210.65
704.04	220.01
704.17	133.41
704.31	100.64
704.44	161.50
704.57	126.39
704.70	259.80
704.83	215.33
704.96	156.82
705.10	187.24
705.23	191.92
>>>>>End Processed Spectral Data<<<<<
