SpectraSuite Data File
++++++++++++++++++++++++++++++++++++
Date: Fri Oct 04 11:40:04 GMT-05:00 2013
User: price-jones
Dark Spectrum Present: No
Reference Spectrum Present: No
Number of Sampled Component Spectra: 1
Spectrometers: USB2+H05261
Integration Time (usec): 100000 (USB2+H05261)
Spectra Averaged: 1 (USB2+H05261)
Boxcar Smoothing: 0 (USB2+H05261)
Correct for Electrical Dark: No (USB2+H05261)
Strobe/Lamp Enabled: No (USB2+H05261)
Correct for Detector Non-linearity: No (USB2+H05261)
Correct for Stray Light: No (USB2+H05261)
Number of Pixels in Processed Spectrum: 2048
>>>>>Begin Processed Spectral Data<<<<<
365.73	88.94
365.92	88.94
366.12	88.94
366.32	0.00
366.52	0.00
366.72	0.00
366.91	0.00
367.11	0.00
367.31	0.00
367.51	0.00
367.70	0.00
367.90	0.00
368.10	0.00
368.30	0.00
368.49	0.00
368.69	0.00
368.89	0.00
369.09	0.00
369.28	0.00
369.48	0.00
369.68	32.77
369.87	16.38
370.07	0.00
370.27	63.19
370.47	23.41
370.66	0.00
370.86	2.34
371.06	147.45
371.25	39.79
371.45	63.19
371.65	53.83
371.84	79.58
372.04	0.00
372.24	114.69
372.44	56.17
372.63	112.35
372.83	124.05
373.03	74.90
373.22	102.98
373.42	102.98
373.62	161.50
373.81	105.32
374.01	175.54
374.21	234.05
374.40	124.05
374.60	208.31
374.79	212.99
374.99	128.73
375.19	95.96
375.38	70.22
375.58	135.75
375.78	145.11
375.97	152.13
376.17	135.75
376.37	70.22
376.56	138.09
376.76	184.90
376.95	121.71
377.15	91.28
377.35	119.37
377.54	81.92
377.74	110.01
377.93	53.83
378.13	135.75
378.33	156.82
378.52	147.45
378.72	184.90
378.91	98.30
379.11	98.30
379.31	117.03
379.50	112.35
379.70	119.37
379.89	173.20
380.09	114.69
380.28	35.11
380.48	142.77
380.68	98.30
380.87	98.30
381.07	70.22
381.26	72.56
381.46	133.41
381.65	252.78
381.85	180.22
382.04	112.35
382.24	102.98
382.43	156.82
382.63	56.17
382.83	126.39
383.02	95.96
383.22	138.09
383.41	126.39
383.61	128.73
383.80	84.26
384.00	142.77
384.19	77.24
384.39	105.32
384.58	84.26
384.78	86.60
384.97	112.35
385.17	79.58
385.36	86.60
385.56	79.58
385.75	114.69
385.95	128.73
386.14	238.73
386.34	91.28
386.53	91.28
386.72	65.54
386.92	100.64
387.11	121.71
387.31	98.30
387.50	105.32
387.70	91.28
387.89	121.71
388.09	149.79
388.28	53.83
388.48	84.26
388.67	145.11
388.86	168.52
389.06	203.63
389.25	147.45
389.45	93.62
389.64	110.01
389.84	140.43
390.03	112.35
390.22	184.90
390.42	100.64
390.61	98.30
390.81	149.79
391.00	198.95
391.19	147.45
391.39	119.37
391.58	154.48
391.78	88.94
391.97	182.56
392.16	91.28
392.36	86.60
392.55	114.69
392.75	119.37
392.94	112.35
393.13	77.24
393.33	14.04
393.52	37.45
393.71	110.01
393.91	184.90
394.10	98.30
394.29	147.45
394.49	142.77
394.68	98.30
394.88	53.83
395.07	138.09
395.26	159.16
395.46	154.48
395.65	98.30
395.84	88.94
396.04	215.33
396.23	149.79
396.42	110.01
396.62	154.48
396.81	152.13
397.00	110.01
397.19	154.48
397.39	77.24
397.58	128.73
397.77	98.30
397.97	159.16
398.16	91.28
398.35	112.35
398.55	119.37
398.74	142.77
398.93	100.64
399.12	74.90
399.32	114.69
399.51	126.39
399.70	149.79
399.90	88.94
400.09	107.66
400.28	142.77
400.47	145.11
400.67	154.48
400.86	159.16
401.05	156.82
401.24	222.35
401.44	117.03
401.63	95.96
401.82	145.11
402.01	95.96
402.21	86.60
402.40	117.03
402.59	161.50
402.78	159.16
402.97	79.58
403.17	124.05
403.36	91.28
403.55	182.56
403.74	170.86
403.93	215.33
404.13	259.80
404.32	201.29
404.51	238.73
404.70	196.60
404.89	110.01
405.09	205.97
405.28	93.62
405.47	168.52
405.66	173.20
405.85	100.64
406.05	173.20
406.24	170.86
406.43	173.20
406.62	177.88
406.81	198.95
407.00	102.98
407.20	154.48
407.39	196.60
407.58	135.75
407.77	79.58
407.96	152.13
408.15	170.86
408.34	133.41
408.54	138.09
408.73	133.41
408.92	133.41
409.11	154.48
409.30	126.39
409.49	145.11
409.68	124.05
409.87	152.13
410.07	117.03
410.26	119.37
410.45	86.60
410.64	133.41
410.83	142.77
411.02	105.32
411.21	191.92
411.40	227.03
411.59	98.30
411.78	114.69
411.98	154.48
412.17	138.09
412.36	168.52
412.55	163.84
412.74	154.48
412.93	203.63
413.12	210.65
413.31	262.14
413.50	156.82
413.69	88.94
413.88	212.99
414.07	84.26
414.26	156.82
414.45	154.48
414.64	159.16
414.83	147.45
415.02	166.18
415.22	191.92
415.41	175.54
415.60	131.07
415.79	191.92
415.98	222.35
416.17	149.79
416.36	229.37
416.55	210.65
416.74	224.69
416.93	212.99
417.12	156.82
417.31	173.20
417.50	184.90
417.69	147.45
417.88	203.63
418.07	107.66
418.26	138.09
418.45	187.24
418.64	191.92
418.83	222.35
419.02	170.86
419.21	184.90
419.39	149.79
419.58	100.64
419.77	145.11
419.96	159.16
420.15	154.48
420.34	154.48
420.53	257.46
420.72	203.63
420.91	180.22
421.10	198.95
421.29	220.01
421.48	196.60
421.67	224.69
421.86	147.45
422.05	154.48
422.24	156.82
422.43	194.26
422.61	107.66
422.80	88.94
422.99	266.82
423.18	212.99
423.37	168.52
423.56	145.11
423.75	222.35
423.94	135.75
424.13	163.84
424.32	133.41
424.50	205.97
424.69	147.45
424.88	234.05
425.07	234.05
425.26	159.16
425.45	210.65
425.64	140.43
425.83	161.50
426.01	189.58
426.20	175.54
426.39	184.90
426.58	131.07
426.77	149.79
426.96	154.48
427.15	252.78
427.33	168.52
427.52	156.82
427.71	292.57
427.90	182.56
428.09	168.52
428.28	128.73
428.46	184.90
428.65	180.22
428.84	210.65
429.03	168.52
429.22	222.35
429.40	175.54
429.59	140.43
429.78	140.43
429.97	210.65
430.16	121.71
430.34	224.69
430.53	154.48
430.72	189.58
430.91	177.88
431.10	152.13
431.28	170.86
431.47	210.65
431.66	264.48
431.85	140.43
432.03	252.78
432.22	250.44
432.41	257.46
432.60	191.92
432.79	234.05
432.97	220.01
433.16	128.73
433.35	140.43
433.54	250.44
433.72	266.82
433.91	259.80
434.10	189.58
434.28	229.37
434.47	212.99
434.66	248.10
434.85	201.29
435.03	276.18
435.22	709.18
435.41	1146.86
435.59	1177.29
435.78	788.76
435.97	489.17
436.16	318.31
436.34	215.33
436.53	201.29
436.72	245.76
436.90	255.12
437.09	182.56
437.28	173.20
437.46	135.75
437.65	227.03
437.84	227.03
438.02	191.92
438.21	334.70
438.40	187.24
438.58	220.01
438.77	252.78
438.96	276.18
439.14	177.88
439.33	194.26
439.52	203.63
439.70	145.11
439.89	238.73
440.08	220.01
440.26	220.01
440.45	248.10
440.63	299.59
440.82	294.91
441.01	210.65
441.19	217.67
441.38	248.10
441.57	252.78
441.75	180.22
441.94	292.57
442.12	301.93
442.31	264.48
442.50	252.78
442.68	220.01
442.87	215.33
443.05	212.99
443.24	220.01
443.43	259.80
443.61	311.29
443.80	222.35
443.98	212.99
444.17	224.69
444.35	248.10
444.54	212.99
444.73	276.18
444.91	234.05
445.10	210.65
445.28	175.54
445.47	241.08
445.65	173.20
445.84	227.03
446.02	220.01
446.21	194.26
446.39	234.05
446.58	241.08
446.77	201.29
446.95	189.58
447.14	215.33
447.32	191.92
447.51	166.18
447.69	208.31
447.88	220.01
448.06	184.90
448.25	255.12
448.43	191.92
448.62	243.42
448.80	212.99
448.99	210.65
449.17	156.82
449.36	250.44
449.54	283.20
449.73	220.01
449.91	290.23
450.10	168.52
450.28	299.59
450.46	210.65
450.65	360.44
450.83	264.48
451.02	257.46
451.20	236.39
451.39	280.86
451.57	184.90
451.76	269.16
451.94	224.69
452.13	236.39
452.31	283.20
452.49	245.76
452.68	245.76
452.86	283.20
453.05	276.18
453.23	257.46
453.42	208.31
453.60	269.16
453.78	177.88
453.97	231.71
454.15	159.16
454.34	208.31
454.52	191.92
454.70	283.20
454.89	250.44
455.07	187.24
455.26	245.76
455.44	250.44
455.62	161.50
455.81	236.39
455.99	236.39
456.17	203.63
456.36	243.42
456.54	175.54
456.73	175.54
456.91	224.69
457.09	271.50
457.28	234.05
457.46	257.46
457.64	210.65
457.83	212.99
458.01	255.12
458.19	308.95
458.38	269.16
458.56	262.14
458.74	285.55
458.93	234.05
459.11	250.44
459.29	271.50
459.48	264.48
459.66	287.89
459.84	285.55
460.03	341.72
460.21	262.14
460.39	271.50
460.57	297.25
460.76	217.67
460.94	245.76
461.12	308.95
461.31	344.06
461.49	236.39
461.67	238.73
461.85	217.67
462.04	196.60
462.22	772.38
462.40	250.44
462.59	241.08
462.77	210.65
462.95	229.37
463.13	262.14
463.32	238.73
463.50	212.99
463.68	234.05
463.86	311.29
464.05	231.71
464.23	241.08
464.41	264.48
464.59	210.65
464.78	248.10
464.96	180.22
465.14	231.71
465.32	234.05
465.50	306.61
465.69	269.16
465.87	187.24
466.05	245.76
466.23	294.91
466.41	285.55
466.60	273.84
466.78	196.60
466.96	301.93
467.14	217.67
467.32	280.86
467.51	264.48
467.69	259.80
467.87	308.95
468.05	227.03
468.23	276.18
468.41	227.03
468.60	149.79
468.78	191.92
468.96	250.44
469.14	269.16
469.32	234.05
469.50	264.48
469.69	238.73
469.87	252.78
470.05	229.37
470.23	222.35
470.41	203.63
470.59	194.26
470.77	330.02
470.95	290.23
471.14	276.18
471.32	297.25
471.50	332.36
471.68	252.78
471.86	273.84
472.04	220.01
472.22	271.50
472.40	259.80
472.58	222.35
472.77	276.18
472.95	292.57
473.13	341.72
473.31	283.20
473.49	196.60
473.67	205.97
473.85	229.37
474.03	285.55
474.21	231.71
474.39	299.59
474.57	273.84
474.75	276.18
474.93	264.48
475.12	276.18
475.30	290.23
475.48	266.82
475.66	191.92
475.84	210.65
476.02	259.80
476.20	227.03
476.38	276.18
476.56	355.76
476.74	266.82
476.92	229.37
477.10	297.25
477.28	292.57
477.46	273.84
477.64	299.59
477.82	297.25
478.00	241.08
478.18	236.39
478.36	217.67
478.54	294.91
478.72	250.44
478.90	283.20
479.08	327.68
479.26	276.18
479.44	262.14
479.62	194.26
479.80	238.73
479.98	264.48
480.16	301.93
480.34	304.27
480.52	266.82
480.70	358.10
480.88	315.97
481.06	304.27
481.24	276.18
481.41	322.99
481.59	262.14
481.77	334.70
481.95	348.74
482.13	330.02
482.31	278.52
482.49	346.40
482.67	322.99
482.85	234.05
483.03	290.23
483.21	369.80
483.39	332.36
483.57	332.36
483.74	383.85
483.92	360.44
484.10	393.21
484.28	386.19
484.46	475.13
484.64	273.84
484.82	477.47
485.00	397.89
485.18	318.31
485.35	365.12
485.53	334.70
485.71	458.74
485.89	421.30
486.07	425.98
486.25	514.92
486.43	498.53
486.61	465.77
486.78	456.40
486.96	440.02
487.14	383.85
487.32	461.09
487.50	454.06
487.68	465.77
487.85	402.57
488.03	437.68
488.21	430.66
488.39	411.93
488.57	423.64
488.75	440.02
488.92	730.25
489.10	458.74
489.28	482.15
489.46	477.47
489.64	437.68
489.81	472.79
489.99	477.47
490.17	484.49
490.35	482.15
490.53	404.91
490.70	454.06
490.88	430.66
491.06	388.53
491.24	498.53
491.41	449.38
491.59	456.40
491.77	430.66
491.95	449.38
492.13	407.25
492.30	428.32
492.48	442.36
492.66	421.30
492.84	360.44
493.01	447.04
493.19	430.66
493.37	505.56
493.54	416.62
493.72	528.96
493.90	442.36
494.08	433.00
494.25	484.49
494.43	430.66
494.61	414.27
494.79	449.38
494.96	425.98
495.14	454.06
495.32	395.55
495.49	573.43
495.67	531.30
495.85	484.49
496.02	470.45
496.20	475.13
496.38	418.96
496.55	505.56
496.73	435.34
496.91	454.06
497.09	528.96
497.26	498.53
497.44	402.57
497.62	418.96
497.79	479.81
497.97	514.92
498.14	540.66
498.32	500.87
498.50	484.49
498.67	416.62
498.85	512.58
499.03	454.06
499.20	505.56
499.38	435.34
499.56	470.45
499.73	447.04
499.91	510.24
500.08	503.22
500.26	475.13
500.44	437.68
500.61	465.77
500.79	463.43
500.97	425.98
501.14	477.47
501.32	496.19
501.49	491.51
501.67	472.79
501.84	498.53
502.02	454.06
502.20	423.64
502.37	430.66
502.55	430.66
502.72	489.17
502.90	425.98
503.07	428.32
503.25	465.77
503.43	421.30
503.60	461.09
503.78	461.09
503.95	442.36
504.13	484.49
504.30	472.79
504.48	538.32
504.65	498.53
504.83	505.56
505.01	535.98
505.18	491.51
505.36	458.74
505.53	379.17
505.71	437.68
505.88	535.98
506.06	416.62
506.23	468.11
506.41	489.17
506.58	386.19
506.76	444.70
506.93	465.77
507.11	433.00
507.28	444.70
507.46	381.51
507.63	526.62
507.81	493.85
507.98	458.74
508.16	454.06
508.33	461.09
508.50	507.90
508.68	454.06
508.85	540.66
509.03	500.87
509.20	498.53
509.38	547.69
509.55	559.39
509.73	512.58
509.90	531.30
510.08	437.68
510.25	486.83
510.42	566.41
510.60	449.38
510.77	512.58
510.95	500.87
511.12	414.27
511.30	531.30
511.47	538.32
511.64	568.75
511.82	454.06
511.99	559.39
512.17	472.79
512.34	449.38
512.51	463.43
512.69	465.77
512.86	489.17
513.04	528.96
513.21	437.68
513.38	517.26
513.56	512.58
513.73	561.73
513.90	461.09
514.08	418.96
514.25	519.60
514.43	447.04
514.60	531.30
514.77	388.53
514.95	479.81
515.12	461.09
515.29	512.58
515.47	463.43
515.64	411.93
515.81	486.83
515.99	477.47
516.16	500.87
516.33	477.47
516.51	512.58
516.68	517.26
516.85	416.62
517.03	559.39
517.20	528.96
517.37	521.94
517.54	512.58
517.72	484.49
517.89	507.90
518.06	440.02
518.24	507.90
518.41	533.64
518.58	531.30
518.75	489.17
518.93	507.90
519.10	531.30
519.27	528.96
519.45	505.56
519.62	538.32
519.79	486.83
519.96	578.11
520.14	468.11
520.31	538.32
520.48	557.05
520.65	454.06
520.83	514.92
521.00	573.43
521.17	535.98
521.34	568.75
521.52	442.36
521.69	521.94
521.86	587.47
522.03	510.24
522.20	571.09
522.38	603.86
522.55	594.50
522.72	437.68
522.89	557.05
523.07	557.05
523.24	524.28
523.41	517.26
523.58	559.39
523.75	521.94
523.92	554.71
524.10	599.18
524.27	554.71
524.44	587.47
524.61	503.22
524.78	442.36
524.96	496.19
525.13	479.81
525.30	624.92
525.47	596.84
525.64	498.53
525.81	498.53
525.98	470.45
526.16	543.00
526.33	517.26
526.50	456.40
526.67	404.91
526.84	564.07
527.01	472.79
527.18	540.66
527.36	573.43
527.53	585.13
527.70	631.94
527.87	627.26
528.04	524.28
528.21	631.94
528.38	606.20
528.55	655.35
528.72	615.56
528.89	653.01
529.07	587.47
529.24	550.03
529.41	526.62
529.58	535.98
529.75	477.47
529.92	538.32
530.09	517.26
530.26	603.86
530.43	559.39
530.60	587.47
530.77	524.28
530.94	589.82
531.11	554.71
531.28	594.50
531.46	578.11
531.63	594.50
531.80	582.79
531.97	585.13
532.14	526.62
532.31	599.18
532.48	535.98
532.65	543.00
532.82	582.79
532.99	629.60
533.16	643.65
533.33	662.37
533.50	690.46
533.67	674.07
533.84	613.22
534.01	624.92
534.18	613.22
534.35	636.63
534.52	697.48
534.69	660.03
534.86	638.97
535.03	528.96
535.20	629.60
535.37	648.33
535.54	660.03
535.71	589.82
535.88	643.65
536.05	592.16
536.22	624.92
536.38	636.63
536.55	627.26
536.72	692.80
536.89	587.47
537.06	664.71
537.23	641.31
537.40	669.39
537.57	671.73
537.74	685.78
537.91	748.97
538.08	655.35
538.25	720.88
538.42	734.93
538.59	725.57
538.75	699.82
538.92	741.95
539.09	702.16
539.26	854.30
539.43	828.55
539.60	940.90
539.77	875.36
539.94	978.34
540.11	912.81
540.28	929.19
540.44	1095.37
540.61	1095.37
540.78	1121.12
540.95	1254.53
541.12	1390.28
541.29	1460.49
541.46	1483.90
541.62	1523.69
541.79	1549.43
541.96	1540.07
542.13	1474.54
542.30	1446.45
542.47	1577.52
542.63	1420.71
542.80	1465.18
542.97	1411.34
543.14	1380.92
543.31	1423.05
543.48	1308.36
543.64	1451.13
543.81	1336.45
543.98	1446.45
544.15	1469.86
544.32	1380.92
544.48	1315.38
544.65	1263.89
544.82	1287.29
544.99	1235.80
545.16	1418.36
545.32	1355.17
545.49	1940.30
545.66	2860.13
545.83	3447.61
546.00	2935.03
546.16	2153.29
546.33	1708.59
546.50	1331.76
546.67	1299.00
546.83	1242.82
547.00	1053.24
547.17	1118.78
547.34	1043.88
547.50	1048.56
547.67	1036.86
547.84	994.73
548.00	992.39
548.17	1043.88
548.34	1025.15
548.51	1078.99
548.67	999.41
548.84	961.96
549.01	898.77
549.18	889.40
549.34	912.81
549.51	863.66
549.68	858.98
549.84	889.40
550.01	887.06
550.18	887.06
550.34	908.13
550.51	819.19
550.68	891.74
550.84	858.98
551.01	791.10
551.18	720.88
551.34	821.53
551.51	828.55
551.68	683.44
551.84	800.46
552.01	772.38
552.18	798.12
552.34	772.38
552.51	702.16
552.68	699.82
552.84	674.07
553.01	720.88
553.18	709.18
553.34	748.97
553.51	746.63
553.67	734.93
553.84	758.33
554.01	697.48
554.17	613.22
554.34	660.03
554.51	730.25
554.67	608.54
554.84	603.86
555.00	620.24
555.17	678.76
555.33	585.13
555.50	629.60
555.67	638.97
555.83	664.71
556.00	641.31
556.16	800.46
556.33	622.58
556.50	603.86
556.66	638.97
556.83	521.94
556.99	580.45
557.16	660.03
557.32	526.62
557.49	585.13
557.65	503.22
557.82	592.16
557.98	620.24
558.15	624.92
558.32	613.22
558.48	571.09
558.65	624.92
558.81	601.52
558.98	603.86
559.14	739.61
559.31	566.41
559.47	599.18
559.64	653.01
559.80	594.50
559.97	589.82
560.13	596.84
560.30	589.82
560.46	615.56
560.63	571.09
560.79	550.03
560.96	606.20
561.12	573.43
561.29	491.51
561.45	662.37
561.61	617.90
561.78	653.01
561.94	662.37
562.11	613.22
562.27	540.66
562.44	622.58
562.60	608.54
562.77	617.90
562.93	650.67
563.10	599.18
563.26	594.50
563.42	648.33
563.59	634.29
563.75	596.84
563.92	643.65
564.08	519.60
564.24	631.94
564.41	697.48
564.57	575.77
564.74	582.79
564.90	554.71
565.07	660.03
565.23	624.92
565.39	538.32
565.56	561.73
565.72	573.43
565.88	608.54
566.05	538.32
566.21	627.26
566.38	657.69
566.54	575.77
566.70	564.07
566.87	561.73
567.03	550.03
567.19	599.18
567.36	648.33
567.52	699.82
567.68	554.71
567.85	566.41
568.01	631.94
568.17	514.92
568.34	498.53
568.50	601.52
568.66	535.98
568.83	627.26
568.99	543.00
569.15	613.22
569.32	631.94
569.48	557.05
569.64	561.73
569.81	615.56
569.97	580.45
570.13	533.64
570.30	601.52
570.46	566.41
570.62	566.41
570.78	545.34
570.95	599.18
571.11	706.84
571.27	603.86
571.43	596.84
571.60	580.45
571.76	564.07
571.92	627.26
572.09	540.66
572.25	606.20
572.41	547.69
572.57	578.11
572.74	638.97
572.90	603.86
573.06	613.22
573.22	648.33
573.38	580.45
573.55	657.69
573.71	657.69
573.87	610.88
574.03	580.45
574.20	575.77
574.36	594.50
574.52	606.20
574.68	528.96
574.84	613.22
575.01	648.33
575.17	578.11
575.33	575.77
575.49	685.78
575.65	629.60
575.82	645.99
575.98	636.63
576.14	603.86
576.30	692.80
576.46	957.28
576.62	1004.09
576.79	1076.65
576.95	933.87
577.11	770.04
577.27	723.23
577.43	727.91
577.59	772.38
577.75	564.07
577.92	617.90
578.08	587.47
578.24	566.41
578.40	599.18
578.56	807.48
578.72	1034.52
578.88	1095.37
579.04	901.11
579.21	908.13
579.37	819.19
579.53	692.80
579.69	725.57
579.85	695.14
580.01	837.91
580.17	798.12
580.33	842.59
580.49	758.33
580.65	720.88
580.82	683.44
580.98	697.48
581.14	709.18
581.30	770.04
581.46	692.80
581.62	753.65
581.78	627.26
581.94	660.03
582.10	699.82
582.26	718.54
582.42	727.91
582.58	774.72
582.74	734.93
582.90	751.31
583.06	821.53
583.22	802.80
583.38	770.04
583.54	755.99
583.70	791.10
583.86	788.76
584.02	709.18
584.18	826.21
584.34	744.29
584.50	802.80
584.66	798.12
584.82	770.04
584.98	760.67
585.14	746.63
585.30	704.50
585.46	760.67
585.62	788.76
585.78	744.29
585.94	798.12
586.10	781.74
586.26	788.76
586.42	809.83
586.58	866.00
586.74	866.00
586.90	957.28
587.06	950.26
587.22	1015.79
587.38	821.53
587.54	819.19
587.70	863.66
587.86	821.53
588.02	751.31
588.18	767.70
588.34	784.08
588.49	674.07
588.65	653.01
588.81	683.44
588.97	688.12
589.13	667.05
589.29	641.31
589.45	711.52
589.61	695.14
589.77	662.37
589.93	748.97
590.08	610.88
590.24	589.82
590.40	613.22
590.56	805.14
590.72	620.24
590.88	610.88
591.04	781.74
591.20	732.59
591.35	730.25
591.51	716.20
591.67	709.18
591.83	697.48
591.99	669.39
592.15	704.50
592.31	732.59
592.46	770.04
592.62	835.57
592.78	819.19
592.94	826.21
593.10	697.48
593.26	755.99
593.41	795.78
593.57	746.63
593.73	781.74
593.89	683.44
594.05	704.50
594.20	610.88
594.36	697.48
594.52	622.58
594.68	526.62
594.84	552.37
594.99	660.03
595.15	627.26
595.31	725.57
595.47	580.45
595.62	660.03
595.78	585.13
595.94	573.43
596.10	683.44
596.25	641.31
596.41	589.82
596.57	627.26
596.73	645.99
596.88	638.97
597.04	655.35
597.20	617.90
597.36	662.37
597.51	627.26
597.67	622.58
597.83	650.67
597.99	683.44
598.14	667.05
598.30	713.86
598.46	533.64
598.61	767.70
598.77	779.40
598.93	739.61
599.09	734.93
599.24	779.40
599.40	711.52
599.56	678.76
599.71	674.07
599.87	678.76
600.03	676.41
600.18	681.10
600.34	669.39
600.50	690.46
600.65	608.54
600.81	723.23
600.97	692.80
601.12	685.78
601.28	655.35
601.44	648.33
601.59	669.39
601.75	617.90
601.91	592.16
602.06	636.63
602.22	718.54
602.37	641.31
602.53	580.45
602.69	620.24
602.84	643.65
603.00	571.09
603.16	608.54
603.31	636.63
603.47	617.90
603.62	543.00
603.78	571.09
603.94	613.22
604.09	528.96
604.25	545.34
604.40	692.80
604.56	592.16
604.71	631.94
604.87	578.11
605.03	636.63
605.18	678.76
605.34	671.73
605.49	603.86
605.65	610.88
605.80	650.67
605.96	617.90
606.12	650.67
606.27	634.29
606.43	573.43
606.58	702.16
606.74	648.33
606.89	753.65
607.05	702.16
607.20	594.50
607.36	636.63
607.51	641.31
607.67	767.70
607.82	753.65
607.98	744.29
608.13	697.48
608.29	723.23
608.44	662.37
608.60	760.67
608.75	800.46
608.91	802.80
609.06	837.91
609.22	870.68
609.37	882.38
609.53	915.15
609.68	978.34
609.84	1083.67
609.99	1151.54
610.15	1235.80
610.30	1385.60
610.46	1696.89
610.61	1970.73
610.76	2415.43
610.92	2743.11
611.07	3035.67
611.23	3152.70
611.38	2984.18
611.54	2663.53
611.69	2312.45
611.84	2015.20
612.00	1720.29
612.15	1584.54
612.31	1432.41
612.46	1338.79
612.62	1301.34
612.77	1249.85
612.92	1284.95
613.08	1146.86
613.23	1156.22
613.39	1109.41
613.54	1081.33
613.69	1142.18
613.85	1078.99
614.00	1107.07
614.15	1025.15
614.31	1036.86
614.46	1102.39
614.62	1020.47
614.77	1011.11
614.92	980.68
615.08	954.94
615.23	1004.09
615.38	950.26
615.54	828.55
615.69	842.59
615.84	767.70
616.00	858.98
616.15	758.33
616.30	725.57
616.46	793.44
616.61	734.93
616.76	748.97
616.92	695.14
617.07	755.99
617.22	650.67
617.37	671.73
617.53	653.01
617.68	615.56
617.83	671.73
617.99	660.03
618.14	755.99
618.29	638.97
618.45	664.71
618.60	603.86
618.75	739.61
618.90	655.35
619.06	650.67
619.21	664.71
619.36	655.35
619.51	538.32
619.67	702.16
619.82	662.37
619.97	653.01
620.12	641.31
620.28	711.52
620.43	627.26
620.58	617.90
620.73	674.07
620.89	655.35
621.04	688.12
621.19	716.20
621.34	697.48
621.49	599.18
621.65	617.90
621.80	683.44
621.95	601.52
622.10	669.39
622.25	594.50
622.41	657.69
622.56	631.94
622.71	704.50
622.86	678.76
623.01	669.39
623.16	699.82
623.32	676.41
623.47	739.61
623.62	641.31
623.77	725.57
623.92	620.24
624.07	629.60
624.23	631.94
624.38	592.16
624.53	664.71
624.68	585.13
624.83	648.33
624.98	702.16
625.13	606.20
625.29	585.13
625.44	641.31
625.59	638.97
625.74	667.05
625.89	624.92
626.04	641.31
626.19	606.20
626.34	594.50
626.49	669.39
626.65	587.47
626.80	610.88
626.95	571.09
627.10	627.26
627.25	624.92
627.40	685.78
627.55	559.39
627.70	561.73
627.85	566.41
628.00	538.32
628.15	657.69
628.30	592.16
628.45	589.82
628.60	655.35
628.76	613.22
628.91	554.71
629.06	547.69
629.21	603.86
629.36	657.69
629.51	622.58
629.66	589.82
629.81	613.22
629.96	641.31
630.11	657.69
630.26	690.46
630.41	627.26
630.56	748.97
630.71	739.61
630.86	730.25
631.01	695.14
631.16	737.27
631.31	704.50
631.46	629.60
631.61	671.73
631.76	645.99
631.91	601.52
632.06	622.58
632.21	543.00
632.36	599.18
632.51	564.07
632.66	430.66
632.81	545.34
632.96	512.58
633.10	505.56
633.25	519.60
633.40	458.74
633.55	533.64
633.70	477.47
633.85	435.34
634.00	472.79
634.15	535.98
634.30	538.32
634.45	512.58
634.60	468.11
634.75	479.81
634.90	514.92
635.05	463.43
635.19	510.24
635.34	472.79
635.49	496.19
635.64	451.72
635.79	479.81
635.94	517.26
636.09	610.88
636.24	503.22
636.39	503.22
636.53	517.26
636.68	461.09
636.83	543.00
636.98	468.11
637.13	491.51
637.28	547.69
637.43	519.60
637.57	533.64
637.72	564.07
637.87	484.49
638.02	461.09
638.17	510.24
638.32	535.98
638.46	482.15
638.61	533.64
638.76	514.92
638.91	470.45
639.06	468.11
639.20	550.03
639.35	507.90
639.50	477.47
639.65	475.13
639.80	472.79
639.94	491.51
640.09	547.69
640.24	571.09
640.39	524.28
640.54	566.41
640.68	463.43
640.83	470.45
640.98	484.49
641.13	512.58
641.27	531.30
641.42	461.09
641.57	533.64
641.72	472.79
641.86	479.81
642.01	456.40
642.16	512.58
642.31	472.79
642.45	559.39
642.60	528.96
642.75	367.46
642.90	440.02
643.04	421.30
643.19	428.32
643.34	468.11
643.48	402.57
643.63	543.00
643.78	503.22
643.93	594.50
644.07	489.17
644.22	482.15
644.37	496.19
644.51	475.13
644.66	540.66
644.81	526.62
644.95	472.79
645.10	507.90
645.25	475.13
645.39	489.17
645.54	496.19
645.69	484.49
645.83	407.25
645.98	510.24
646.13	451.72
646.27	538.32
646.42	498.53
646.57	500.87
646.71	442.36
646.86	442.36
647.00	463.43
647.15	465.77
647.30	395.55
647.44	444.70
647.59	416.62
647.74	470.45
647.88	507.90
648.03	461.09
648.17	498.53
648.32	449.38
648.47	491.51
648.61	491.51
648.76	425.98
648.90	418.96
649.05	447.04
649.20	472.79
649.34	421.30
649.49	451.72
649.63	524.28
649.78	409.59
649.92	566.41
650.07	554.71
650.21	500.87
650.36	512.58
650.51	533.64
650.65	599.18
650.80	512.58
650.94	507.90
651.09	461.09
651.23	407.25
651.38	493.85
651.52	451.72
651.67	505.56
651.81	521.94
651.96	444.70
652.10	517.26
652.25	465.77
652.39	550.03
652.54	498.53
652.68	472.79
652.83	491.51
652.97	425.98
653.12	442.36
653.26	472.79
653.41	433.00
653.55	430.66
653.70	423.64
653.84	444.70
653.99	554.71
654.13	498.53
654.27	454.06
654.42	505.56
654.56	397.89
654.71	512.58
654.85	423.64
655.00	447.04
655.14	489.17
655.29	440.02
655.43	512.58
655.57	433.00
655.72	411.93
655.86	491.51
656.01	500.87
656.15	440.02
656.30	479.81
656.44	456.40
656.58	468.11
656.73	379.17
656.87	411.93
657.01	472.79
657.16	505.56
657.30	465.77
657.45	589.82
657.59	397.89
657.73	428.32
657.88	454.06
658.02	507.90
658.16	421.30
658.31	395.55
658.45	367.46
658.60	503.22
658.74	512.58
658.88	458.74
659.03	463.43
659.17	418.96
659.31	411.93
659.46	514.92
659.60	491.51
659.74	500.87
659.89	365.12
660.03	337.04
660.17	454.06
660.32	433.00
660.46	454.06
660.60	435.34
660.74	468.11
660.89	437.68
661.03	428.32
661.17	493.85
661.32	435.34
661.46	461.09
661.60	418.96
661.74	489.17
661.89	482.15
662.03	475.13
662.17	451.72
662.31	449.38
662.46	449.38
662.60	444.70
662.74	470.45
662.88	500.87
663.03	517.26
663.17	496.19
663.31	423.64
663.45	428.32
663.60	402.57
663.74	390.87
663.88	440.02
664.02	496.19
664.17	500.87
664.31	475.13
664.45	465.77
664.59	397.89
664.73	325.33
664.88	503.22
665.02	390.87
665.16	381.51
665.30	468.11
665.44	435.34
665.59	383.85
665.73	374.49
665.87	437.68
666.01	339.38
666.15	442.36
666.29	435.34
666.44	484.49
666.58	524.28
666.72	388.53
666.86	475.13
667.00	440.02
667.14	463.43
667.28	493.85
667.43	454.06
667.57	475.13
667.71	393.21
667.85	395.55
667.99	374.49
668.13	369.80
668.27	461.09
668.41	430.66
668.56	444.70
668.70	447.04
668.84	393.21
668.98	367.46
669.12	388.53
669.26	376.83
669.40	430.66
669.54	454.06
669.68	425.98
669.82	468.11
669.96	421.30
670.10	440.02
670.25	388.53
670.39	404.91
670.53	402.57
670.67	449.38
670.81	428.32
670.95	486.83
671.09	337.04
671.23	358.10
671.37	428.32
671.51	365.12
671.65	472.79
671.79	374.49
671.93	393.21
672.07	374.49
672.21	393.21
672.35	472.79
672.49	456.40
672.63	407.25
672.77	414.27
672.91	365.12
673.05	374.49
673.19	327.68
673.33	322.99
673.47	430.66
673.61	372.15
673.75	388.53
673.89	322.99
674.03	393.21
674.17	400.23
674.31	409.59
674.45	442.36
674.59	383.85
674.73	397.89
674.87	346.40
675.01	379.17
675.15	411.93
675.29	400.23
675.43	451.72
675.56	407.25
675.70	327.68
675.84	379.17
675.98	365.12
676.12	341.72
676.26	367.46
676.40	414.27
676.54	362.78
676.68	402.57
676.82	365.12
676.96	397.89
677.10	437.68
677.23	365.12
677.37	341.72
677.51	320.65
677.65	451.72
677.79	271.50
677.93	318.31
678.07	358.10
678.21	341.72
678.34	355.76
678.48	344.06
678.62	327.68
678.76	341.72
678.90	397.89
679.04	383.85
679.18	353.42
679.31	318.31
679.45	355.76
679.59	320.65
679.73	332.36
679.87	353.42
680.00	374.49
680.14	402.57
680.28	386.19
680.42	489.17
680.56	376.83
680.70	322.99
680.83	367.46
680.97	325.33
681.11	294.91
681.25	418.96
681.39	325.33
681.52	320.65
681.66	428.32
681.80	301.93
681.94	337.04
682.07	306.61
682.21	360.44
682.35	348.74
682.49	318.31
682.62	381.51
682.76	245.76
682.90	320.65
683.04	290.23
683.17	297.25
683.31	318.31
683.45	276.18
683.59	304.27
683.72	355.76
683.86	353.42
684.00	360.44
684.13	358.10
684.27	341.72
684.41	379.17
684.55	287.89
684.68	365.12
684.82	339.38
684.96	386.19
685.09	397.89
685.23	259.80
685.37	351.08
685.50	365.12
685.64	334.70
685.78	337.04
685.91	304.27
686.05	386.19
686.19	337.04
686.32	332.36
686.46	358.10
686.60	339.38
686.73	290.23
686.87	271.50
687.01	266.82
687.14	231.71
687.28	306.61
687.42	318.31
687.55	404.91
687.69	346.40
687.82	374.49
687.96	318.31
688.10	383.85
688.23	320.65
688.37	330.02
688.50	334.70
688.64	269.16
688.78	287.89
688.91	360.44
689.05	362.78
689.18	313.63
689.32	322.99
689.46	306.61
689.59	259.80
689.73	337.04
689.86	248.10
690.00	299.59
690.13	278.52
690.27	292.57
690.41	339.38
690.54	327.68
690.68	311.29
690.81	217.67
690.95	250.44
691.08	264.48
691.22	297.25
691.35	280.86
691.49	250.44
691.62	255.12
691.76	280.86
691.89	322.99
692.03	271.50
692.16	311.29
692.30	292.57
692.43	248.10
692.57	264.48
692.70	252.78
692.84	332.36
692.97	248.10
693.11	285.55
693.24	229.37
693.38	283.20
693.51	322.99
693.65	290.23
693.78	205.97
693.92	292.57
694.05	330.02
694.19	313.63
694.32	311.29
694.45	215.33
694.59	224.69
694.72	264.48
694.86	250.44
694.99	308.95
695.13	234.05
695.26	292.57
695.39	311.29
695.53	292.57
695.66	290.23
695.80	294.91
695.93	259.80
696.07	222.35
696.20	238.73
696.33	224.69
696.47	259.80
696.60	306.61
696.73	353.42
696.87	269.16
697.00	271.50
697.14	175.54
697.27	297.25
697.40	346.40
697.54	187.24
697.67	217.67
697.80	276.18
697.94	177.88
698.07	269.16
698.21	299.59
698.34	243.42
698.47	299.59
698.61	248.10
698.74	292.57
698.87	290.23
699.01	299.59
699.14	177.88
699.27	245.76
699.40	381.51
699.54	201.29
699.67	259.80
699.80	177.88
699.94	177.88
700.07	255.12
700.20	194.26
700.34	238.73
700.47	271.50
700.60	283.20
700.73	257.46
700.87	224.69
701.00	161.50
701.13	201.29
701.26	313.63
701.40	248.10
701.53	276.18
701.66	231.71
701.79	220.01
701.93	241.08
702.06	278.52
702.19	280.86
702.32	264.48
702.46	231.71
702.59	198.95
702.72	222.35
702.85	184.90
702.99	280.86
703.12	224.69
703.25	236.39
703.38	245.76
703.51	245.76
703.65	229.37
703.78	227.03
703.91	339.38
704.04	257.46
704.17	278.52
704.31	236.39
704.44	191.92
704.57	229.37
704.70	241.08
704.83	255.12
704.96	210.65
705.10	210.65
705.23	283.20
>>>>>End Processed Spectral Data<<<<<
