SpectraSuite Data File
++++++++++++++++++++++++++++++++++++
Date: Fri Oct 04 11:39:20 GMT-05:00 2013
User: price-jones
Dark Spectrum Present: No
Reference Spectrum Present: No
Number of Sampled Component Spectra: 1
Spectrometers: USB2+H05261
Integration Time (usec): 100000 (USB2+H05261)
Spectra Averaged: 1 (USB2+H05261)
Boxcar Smoothing: 0 (USB2+H05261)
Correct for Electrical Dark: No (USB2+H05261)
Strobe/Lamp Enabled: No (USB2+H05261)
Correct for Detector Non-linearity: No (USB2+H05261)
Correct for Stray Light: No (USB2+H05261)
Number of Pixels in Processed Spectrum: 2048
>>>>>Begin Processed Spectral Data<<<<<
365.73	63.19
365.92	63.19
366.12	63.19
366.32	18.72
366.52	0.00
366.72	32.77
366.91	0.00
367.11	0.00
367.31	0.00
367.51	0.00
367.70	0.00
367.90	0.00
368.10	0.00
368.30	0.00
368.49	0.00
368.69	0.00
368.89	0.00
369.09	0.00
369.28	0.00
369.48	0.00
369.68	0.00
369.87	2.34
370.07	0.00
370.27	84.26
370.47	18.72
370.66	175.54
370.86	287.89
371.06	273.84
371.25	369.80
371.45	243.42
371.65	327.68
371.84	241.08
372.04	278.52
372.24	367.46
372.44	369.80
372.63	358.10
372.83	388.53
373.03	337.04
373.22	390.87
373.42	313.63
373.62	372.15
373.81	416.62
374.01	376.83
374.21	409.59
374.40	379.17
374.60	456.40
374.79	376.83
374.99	425.98
375.19	437.68
375.38	348.74
375.58	407.25
375.78	463.43
375.97	493.85
376.17	433.00
376.37	489.17
376.56	372.15
376.76	407.25
376.95	416.62
377.15	578.11
377.35	456.40
377.54	407.25
377.74	482.15
377.93	454.06
378.13	440.02
378.33	440.02
378.52	400.23
378.72	433.00
378.91	535.98
379.11	376.83
379.31	386.19
379.50	365.12
379.70	533.64
379.89	507.90
380.09	447.04
380.28	543.00
380.48	463.43
380.68	379.17
380.87	433.00
381.07	444.70
381.26	545.34
381.46	503.22
381.65	510.24
381.85	444.70
382.04	482.15
382.24	519.60
382.43	559.39
382.63	557.05
382.83	507.90
383.02	566.41
383.22	496.19
383.41	540.66
383.61	580.45
383.80	517.26
384.00	566.41
384.19	486.83
384.39	524.28
384.58	561.73
384.78	594.50
384.97	596.84
385.17	566.41
385.36	540.66
385.56	526.62
385.75	557.05
385.95	613.22
386.14	578.11
386.34	662.37
386.53	587.47
386.72	547.69
386.92	592.16
387.11	594.50
387.31	514.92
387.50	571.09
387.70	580.45
387.89	631.94
388.09	660.03
388.28	601.52
388.48	655.35
388.67	603.86
388.86	585.13
389.06	564.07
389.25	650.67
389.45	676.41
389.64	685.78
389.84	741.95
390.03	683.44
390.22	748.97
390.42	638.97
390.61	685.78
390.81	709.18
391.00	786.42
391.19	720.88
391.39	669.39
391.58	770.04
391.78	690.46
391.97	788.76
392.16	688.12
392.36	784.08
392.55	828.55
392.75	753.65
392.94	753.65
393.13	816.85
393.33	725.57
393.52	716.20
393.71	873.02
393.91	894.08
394.10	763.01
394.29	866.00
394.49	866.00
394.68	898.77
394.88	833.23
395.07	898.77
395.26	760.67
395.46	877.70
395.65	933.87
395.84	835.57
396.04	861.32
396.23	856.64
396.42	896.43
396.62	966.64
396.81	880.04
397.00	826.21
397.19	894.08
397.39	826.21
397.58	922.17
397.77	943.24
397.97	990.05
398.16	1076.65
398.35	976.00
398.55	1048.56
398.74	1053.24
398.93	1029.84
399.12	968.98
399.32	1032.18
399.51	994.73
399.70	1186.65
399.90	987.71
400.09	1076.65
400.28	1205.38
400.47	1062.60
400.67	1196.01
400.86	1165.59
401.05	1196.01
401.24	1137.50
401.44	1153.88
401.63	1212.40
401.82	1160.91
402.01	1186.65
402.21	1193.67
402.40	1100.05
402.59	1217.08
402.78	1144.52
402.97	1200.69
403.17	1174.95
403.36	1357.51
403.55	1200.69
403.74	1240.48
403.93	1404.32
404.13	1458.15
404.32	1364.53
404.51	1383.26
404.70	1390.28
404.89	1331.76
405.09	1394.96
405.28	1371.55
405.47	1441.77
405.66	1504.96
405.85	1432.41
406.05	1423.05
406.24	1460.49
406.43	1490.92
406.62	1474.54
406.81	1533.05
407.00	1542.41
407.20	1481.56
407.39	1500.28
407.58	1526.03
407.77	1657.10
407.96	1633.69
408.15	1643.06
408.34	1633.69
408.54	1614.97
408.73	1687.53
408.92	1666.46
409.11	1717.95
409.30	1781.15
409.49	1783.49
409.68	1715.61
409.87	1858.39
410.07	1830.30
410.26	1767.10
410.45	1849.02
410.64	1865.41
410.83	1907.54
411.02	1916.90
411.21	1952.01
411.40	1834.98
411.59	1926.26
411.78	1952.01
411.98	2022.22
412.17	2104.14
412.36	1928.60
412.55	2066.69
412.74	2036.27
412.93	2172.02
413.12	2029.24
413.31	2083.08
413.50	2197.76
413.69	2359.26
413.88	2237.55
414.07	2174.36
414.26	2242.23
414.45	2286.70
414.64	2387.35
414.83	2382.67
415.02	2296.07
415.22	2370.96
415.41	2441.18
415.60	2396.71
415.79	2511.39
415.98	2558.21
416.17	2546.50
416.36	2537.14
416.55	2518.42
416.74	2637.78
416.93	2710.34
417.12	2693.96
417.31	2672.89
417.50	2668.21
417.69	2736.09
417.88	2729.06
418.07	2712.68
418.26	2733.75
418.45	2834.39
418.64	2860.13
418.83	2911.63
419.02	2935.03
419.21	2850.77
419.39	2864.82
419.58	2808.64
419.77	2881.20
419.96	2904.60
420.15	3159.72
420.34	2918.65
420.53	3038.02
420.72	3002.91
420.91	2988.86
421.10	3038.02
421.29	3150.36
421.48	3038.02
421.67	3141.00
421.86	3286.11
422.05	3187.81
422.24	3171.43
422.43	3033.33
422.61	3136.32
422.80	3344.63
422.99	3141.00
423.18	3281.43
423.37	3236.96
423.56	3279.09
423.75	3157.38
423.94	3082.49
424.13	2993.55
424.32	3272.07
424.50	3215.90
424.69	3368.03
424.88	3351.65
425.07	3197.17
425.26	3206.53
425.45	3368.03
425.64	3344.63
425.83	3258.03
426.01	3318.88
426.20	3283.77
426.39	3398.46
426.58	3349.31
426.77	3335.26
426.96	3365.69
427.15	3323.56
427.33	3386.76
427.52	3398.46
427.71	3377.39
427.90	3503.78
428.09	3468.67
428.28	3571.66
428.46	3545.91
428.65	3604.42
428.84	3536.55
429.03	3651.24
429.22	3475.70
429.40	3620.81
429.59	3574.00
429.78	3438.25
429.97	3559.95
430.16	3564.64
430.34	3810.39
430.53	3747.20
430.72	3742.52
430.91	3641.87
431.10	3751.88
431.28	3777.62
431.47	3920.40
431.66	4016.36
431.85	3819.75
432.03	3880.61
432.22	4100.62
432.41	4002.32
432.60	4067.85
432.79	3913.38
432.97	3964.87
433.16	3904.01
433.35	3946.14
433.54	4004.66
433.72	4112.32
433.91	4002.32
434.10	4021.04
434.28	4109.98
434.47	4084.23
434.66	4173.18
434.85	4241.05
435.03	4276.16
435.22	4407.23
435.41	4744.27
435.59	4629.58
435.78	4528.94
435.97	4547.66
436.16	4362.76
436.34	4379.14
436.53	4379.14
436.72	4447.02
436.90	4358.08
437.09	4381.48
437.28	4248.07
437.46	4456.38
437.65	4505.53
437.84	4444.68
438.02	4402.55
438.21	4428.29
438.40	4397.87
438.58	4704.48
438.77	4683.41
438.96	4620.22
439.14	4767.67
439.33	4784.06
439.52	4805.12
439.70	4802.78
439.89	4786.40
440.08	4786.40
440.26	4929.17
440.45	4905.76
440.63	4947.89
440.82	4997.04
441.01	5104.71
441.19	5090.67
441.38	5188.97
441.57	5102.37
441.75	5146.84
441.94	5376.21
442.12	5338.76
442.31	5313.02
442.50	5324.72
442.68	5331.74
442.87	5170.24
443.05	5364.51
443.24	5404.30
443.43	5528.35
443.61	5486.22
443.80	5582.18
443.98	5327.06
444.17	5205.35
444.35	5523.66
444.54	5682.82
444.73	5675.80
444.91	5561.11
445.10	5626.65
445.28	5451.11
445.47	5427.70
445.65	5586.86
445.84	5631.33
446.02	5692.18
446.21	5666.44
446.39	5444.09
446.58	5654.73
446.77	5607.92
446.95	5746.02
447.14	5666.44
447.32	5746.02
447.51	5640.69
447.69	5675.80
447.88	5598.56
448.06	5687.50
448.25	5715.59
448.43	5666.44
448.62	5799.85
448.80	5626.65
448.99	5870.06
449.17	5743.67
449.36	5727.29
449.54	5865.38
449.73	5940.28
449.91	5954.32
450.10	6040.92
450.28	6076.03
450.46	6052.63
450.65	6113.48
450.83	6108.80
451.02	6073.69
451.20	6160.29
451.39	6272.64
451.57	6202.42
451.76	6207.10
451.94	6031.56
452.13	6193.06
452.31	6345.19
452.49	6106.46
452.68	6097.10
452.86	6272.64
453.05	6312.42
453.23	6349.87
453.42	6406.05
453.60	6218.80
453.78	6438.81
453.97	6314.77
454.15	6441.15
454.34	6265.61
454.52	6562.86
454.70	6455.20
454.89	6494.99
455.07	6572.22
455.26	6651.80
455.44	6654.14
455.62	6560.52
455.81	6562.86
455.99	6724.36
456.17	6715.00
456.36	6616.69
456.54	6897.56
456.73	6895.22
456.91	6953.73
457.09	6867.13
457.28	7133.95
457.46	6883.52
457.64	7045.01
457.83	6883.52
458.01	6832.02
458.19	7059.06
458.38	7019.27
458.56	7145.66
458.74	7023.95
458.93	7178.42
459.11	7126.93
459.29	7140.97
459.48	7197.15
459.66	7103.53
459.84	7389.07
460.03	7470.99
460.21	7353.96
460.39	7302.47
460.57	7248.64
460.76	7368.01
460.94	7459.29
461.12	7555.25
461.31	7403.11
461.49	7407.80
461.67	7508.44
461.85	7520.14
462.04	7566.95
462.22	8138.04
462.40	7599.72
462.59	7618.44
462.77	7829.09
462.95	7693.34
463.13	7733.13
463.32	7667.60
463.50	7688.66
463.68	7737.81
463.86	7765.90
464.05	7875.90
464.23	7669.94
464.41	8051.44
464.59	7819.73
464.78	7882.92
464.96	7829.09
465.14	7840.79
465.32	8023.36
465.50	7939.10
465.69	7981.23
465.87	7953.14
466.05	8023.36
466.23	8212.94
466.41	8060.80
466.60	8234.00
466.78	8222.30
466.96	8084.21
467.14	8112.30
467.32	8180.17
467.51	8512.53
467.69	8250.39
467.87	8327.63
468.05	8444.65
468.23	8322.94
468.41	8215.28
468.60	8360.39
468.78	8395.50
468.96	8517.21
469.14	8575.72
469.32	8617.85
469.50	8271.45
469.69	8613.17
469.87	8835.52
470.05	8896.38
470.23	8720.84
470.41	8702.11
470.59	8975.95
470.77	8573.38
470.95	8638.92
471.14	8926.80
471.32	8718.50
471.50	9233.41
471.68	9137.45
471.86	9036.81
472.04	8938.51
472.22	9320.01
472.40	9062.55
472.58	9488.53
472.77	9329.38
472.95	9390.23
473.13	9753.01
473.31	9362.14
473.49	9219.37
473.67	9462.79
473.85	9453.42
474.03	9631.30
474.21	9554.07
474.39	9816.21
474.57	9951.96
474.75	9914.51
474.93	9958.98
475.12	10085.37
475.30	10083.03
475.48	9846.63
475.66	10122.82
475.84	10104.09
476.02	10214.10
476.20	10284.31
476.38	10272.61
476.56	10525.39
476.74	10471.56
476.92	10462.19
477.10	10651.78
477.28	10382.62
477.46	10619.01
477.64	10855.40
477.82	10679.86
478.00	11140.95
478.18	11316.49
478.36	11307.13
478.54	11246.27
478.72	11599.70
478.90	11571.61
479.08	11543.52
479.26	11557.57
479.44	11639.48
479.62	11899.28
479.80	11702.68
479.98	11698.00
480.16	11932.05
480.34	12229.30
480.52	12388.46
480.70	12512.50
480.88	12126.32
481.06	12482.08
481.24	12472.71
481.41	12837.84
481.59	12786.35
481.77	12699.75
481.95	12886.99
482.13	12982.95
482.31	12765.28
482.49	13397.23
482.67	13429.99
482.85	13687.45
483.03	13837.25
483.21	13785.76
483.39	13809.16
483.57	13771.71
483.74	14057.26
483.92	13881.72
484.10	14015.13
484.28	14523.02
484.46	14221.10
484.64	14803.89
484.82	14537.07
485.00	14640.05
485.18	14967.73
485.35	15318.81
485.53	15030.92
485.71	15082.41
485.89	15578.61
486.07	15307.10
486.25	15449.88
486.43	15815.00
486.61	15653.50
486.78	16020.97
486.96	15765.85
487.14	16362.69
487.32	16365.03
487.50	16505.46
487.68	16521.84
487.85	16615.46
488.03	16929.09
488.21	17067.19
488.39	17062.51
488.57	17331.67
488.75	17504.87
488.92	17514.23
489.10	17476.78
489.28	17895.74
489.46	18190.64
489.64	17839.56
489.81	18155.54
489.99	18244.48
490.17	18319.37
490.35	18499.59
490.53	18661.09
490.70	18422.36
490.88	18649.39
491.06	19417.08
491.24	19192.39
491.41	19180.69
491.59	19150.26
491.77	19225.16
491.95	19379.64
492.13	19700.29
492.30	19950.73
492.48	19852.42
492.66	20011.58
492.84	19875.83
493.01	20456.28
493.19	20500.75
493.37	20620.12
493.54	21015.67
493.72	20943.11
493.90	20943.11
494.08	20790.98
494.25	20992.26
494.43	21205.25
494.61	21460.37
494.79	21514.20
494.96	21436.97
495.14	21734.21
495.32	22012.74
495.49	21708.47
495.67	22089.98
495.85	22207.00
496.02	22553.40
496.20	22368.50
496.38	22195.30
496.55	22717.24
496.73	23058.96
496.91	22590.85
497.09	23543.45
497.26	23269.61
497.44	23150.24
497.62	23068.32
497.79	23459.19
497.97	23515.36
498.14	23906.23
498.32	24177.73
498.50	23992.83
498.67	24105.18
498.85	23885.17
499.03	24362.64
499.20	24159.01
499.38	24219.86
499.56	24334.55
499.73	24680.95
499.91	24758.19
500.08	25050.75
500.26	24886.92
500.44	24889.26
500.61	25092.88
500.79	25247.36
500.97	25205.23
501.14	25422.90
501.32	25640.57
501.49	25762.28
501.67	25525.88
501.84	25350.34
502.02	25661.63
502.20	26057.18
502.37	25940.16
502.55	26148.46
502.72	26115.70
502.90	26274.85
503.07	25902.71
503.25	26256.13
503.43	26291.24
503.60	27131.49
503.78	26129.74
503.95	26656.36
504.13	26799.13
504.30	26682.11
504.48	27241.50
504.65	26852.97
504.83	27400.65
505.01	27246.18
505.18	27098.72
505.36	27428.74
505.53	27644.07
505.71	27379.59
505.88	28013.87
506.06	27381.93
506.23	27915.57
506.41	28093.45
506.58	27850.03
506.76	27831.31
506.93	28355.59
507.11	28283.03
507.28	28266.65
507.46	28376.66
507.63	28739.44
507.81	28538.15
507.98	28077.07
508.16	28493.68
508.33	28521.77
508.50	28788.59
508.68	28914.98
508.85	28739.44
509.03	29394.79
509.20	29317.55
509.38	29385.43
509.55	29284.78
509.73	29256.70
509.90	29352.66
510.08	29340.96
510.25	29303.51
510.42	29886.30
510.60	29841.83
510.77	29926.09
510.95	30363.77
511.12	30099.29
511.30	30066.52
511.47	30110.99
511.64	30707.83
511.82	30396.54
511.99	30895.07
512.17	31082.31
512.34	30700.81
512.51	30932.52
512.69	30740.60
512.86	31091.68
513.04	31386.58
513.21	31405.31
513.38	31501.27
513.56	31924.91
513.73	31419.35
513.90	31409.99
514.08	31503.61
514.25	31775.11
514.43	31995.12
514.60	31885.12
514.77	32027.89
514.95	32144.92
515.12	32081.72
515.29	32180.03
515.47	32107.47
515.64	32275.99
515.81	32362.59
515.99	32496.00
516.16	32921.98
516.33	32987.51
516.51	32940.70
516.68	32680.90
516.85	32371.95
517.03	32538.13
517.20	33139.65
517.37	33244.97
517.54	33486.04
517.72	33294.12
517.89	33104.54
518.06	33350.29
518.24	33593.71
518.41	33670.95
518.58	33563.28
518.75	33446.26
518.93	33677.97
519.10	33514.13
519.27	34153.10
519.45	33780.95
519.62	33883.94
519.79	34232.68
519.96	33937.77
520.14	34103.95
520.31	34000.96
520.48	34366.09
520.65	34148.42
520.83	34644.61
521.00	34745.25
521.17	34663.33
521.34	34527.58
521.52	34265.44
521.69	35072.93
521.86	34829.51
522.03	35405.28
522.20	35295.28
522.38	35337.41
522.55	35384.22
522.72	35154.85
522.89	35498.91
523.07	35367.84
523.24	35426.35
523.41	35644.02
523.58	35037.82
523.75	35981.06
523.92	36027.87
524.10	35812.54
524.27	36062.97
524.44	35959.99
524.61	36123.83
524.78	36369.58
524.96	36278.30
525.13	36086.38
525.30	36350.86
525.47	36596.62
525.64	36350.86
525.81	37280.05
525.98	37116.22
526.16	36690.24
526.33	37170.05
526.50	36795.56
526.67	36800.24
526.84	36821.31
527.01	37015.57
527.18	37041.32
527.36	37418.14
527.53	37607.73
527.70	37457.93
527.87	37233.24
528.04	37460.27
528.21	37642.84
528.38	37347.93
528.55	37261.33
528.72	37624.11
528.89	37949.45
529.07	37942.42
529.24	37656.88
529.41	38092.22
529.58	38014.98
529.75	37907.32
529.92	37979.87
530.09	37603.05
530.26	38167.12
530.43	38216.27
530.60	37965.83
530.77	38513.52
530.94	38443.30
531.11	38604.80
531.28	38195.20
531.46	38356.70
531.63	38696.08
531.80	38782.68
531.97	38934.81
532.14	38616.50
532.31	38806.08
532.48	38815.44
532.65	38993.32
532.82	38607.14
532.99	38602.46
533.16	38871.62
533.33	39328.02
533.50	39388.88
533.67	39489.52
533.84	38944.17
534.01	38803.74
534.18	39093.97
534.35	39594.84
534.52	39468.45
534.69	39833.58
534.86	39683.78
535.03	39423.98
535.20	40037.20
535.37	39765.70
535.54	39749.32
535.71	39285.89
535.88	39924.86
536.05	39941.24
536.22	40266.58
536.38	39852.30
536.55	40526.38
536.72	40509.99
536.89	39917.84
537.06	40030.18
537.23	40311.05
537.40	40072.31
537.57	40013.80
537.74	40254.87
537.91	40959.38
538.08	40470.20
538.25	40264.24
538.42	40678.51
538.59	40767.45
538.75	40432.75
538.92	40917.25
539.09	41060.02
539.26	40800.22
539.43	41038.95
539.60	40900.86
539.77	41202.79
539.94	41483.66
540.11	41067.04
540.28	41265.99
540.44	41172.36
540.61	41212.15
540.78	41212.15
540.95	41387.69
541.12	41364.29
541.29	41308.11
541.46	41422.80
541.62	41490.68
541.79	41827.71
541.96	41116.19
542.13	41773.88
542.30	42300.50
542.47	42167.09
542.63	41979.85
542.80	42230.29
542.97	42550.94
543.14	42838.83
543.31	42522.85
543.48	42115.60
543.64	42693.71
543.81	42794.36
543.98	43070.54
544.15	43065.86
544.32	42806.06
544.48	43178.20
544.65	43091.60
544.82	42644.56
544.99	42721.80
545.16	42955.85
545.32	43047.13
545.49	43672.06
545.66	44032.50
545.83	44126.12
546.00	44261.87
546.16	43395.87
546.33	43077.56
546.50	42871.59
546.67	43440.34
546.83	42293.48
547.00	43344.38
547.17	43349.06
547.34	43267.14
547.50	43215.65
547.67	43894.41
547.84	43531.62
548.00	43697.80
548.17	43728.23
548.34	43433.32
548.51	43721.21
548.67	43871.00
548.84	43459.07
549.01	43517.58
549.18	43704.82
549.34	43765.68
549.51	43524.60
549.68	43634.61
549.84	43957.60
550.01	44196.34
550.18	43955.26
550.34	43728.23
550.51	44105.06
550.68	44296.98
550.84	43587.80
551.01	43896.75
551.18	44142.50
551.34	43901.43
551.51	44135.48
551.68	44238.47
551.84	43866.32
552.01	44161.23
552.18	44282.94
552.34	44320.38
552.51	44254.85
552.68	43952.92
552.84	44163.57
553.01	44486.56
553.18	44692.53
553.34	44769.77
553.51	44044.20
553.67	44729.98
553.84	44732.32
554.01	45020.20
554.17	44392.94
554.34	44215.06
554.51	44385.92
554.67	44418.69
554.84	44847.00
555.00	44739.34
555.17	44842.32
555.33	44676.15
555.50	45200.43
555.67	44847.00
555.83	44561.46
556.00	44472.52
556.16	45326.81
556.33	44397.62
556.50	44818.92
556.66	45495.33
556.83	44755.72
556.99	45263.62
557.16	45287.03
557.32	44856.37
557.49	45553.85
557.65	45380.65
557.82	45010.84
557.98	45170.00
558.15	45209.79
558.32	45708.32
558.48	45497.67
558.65	44973.39
558.81	45333.84
558.98	45507.04
559.14	45652.15
559.31	45216.81
559.47	45368.94
559.64	45588.95
559.80	45549.17
559.97	45893.22
560.13	45432.14
560.30	45668.53
560.46	45619.38
560.63	45446.18
560.79	45958.76
560.96	45581.93
561.12	45514.06
561.29	45614.70
561.45	45806.62
561.61	45471.93
561.78	45825.35
561.94	45867.48
562.11	46038.34
562.27	45801.94
562.44	45785.56
562.60	45872.16
562.77	45947.06
562.93	46312.18
563.10	46052.38
563.26	45631.08
563.42	45858.12
563.59	46452.61
563.75	46164.73
563.92	46398.78
564.08	45862.80
564.24	46134.30
564.41	45942.38
564.57	45830.03
564.74	46129.62
564.90	45785.56
565.07	45717.68
565.23	46014.93
565.39	46019.61
565.56	46410.48
565.72	46146.00
565.88	45778.54
566.05	45750.45
566.21	45713.00
566.38	46410.48
566.54	46045.36
566.70	46541.55
566.87	46871.57
567.03	46239.62
567.19	46583.68
567.36	45984.51
567.52	46211.54
567.68	46349.63
567.85	46520.49
568.01	46026.63
568.17	46471.34
568.34	46433.89
568.50	46845.82
568.66	46487.72
568.83	46752.20
568.99	46286.43
569.15	46422.19
569.32	46258.35
569.48	46309.84
569.64	46628.15
569.81	46333.24
569.97	46239.62
570.13	46358.99
570.30	46454.95
570.46	46476.02
570.62	46309.84
570.78	46429.21
570.95	46429.21
571.11	46775.61
571.27	46520.49
571.43	46316.86
571.60	46321.54
571.76	46583.68
571.92	46527.51
572.09	46770.93
572.25	46571.98
572.41	46487.72
572.57	46628.15
572.74	46852.84
572.90	46777.95
573.06	46469.00
573.22	46260.69
573.38	46522.83
573.55	47107.96
573.71	47267.12
573.87	46494.74
574.03	46527.51
574.20	46719.43
574.36	46520.49
574.52	46939.44
574.68	46852.84
574.84	46492.40
575.01	47208.61
575.17	47014.34
575.33	46871.57
575.49	46670.28
575.65	47040.09
575.82	47002.64
575.98	46394.10
576.14	46738.16
576.30	46384.74
576.46	46623.47
576.62	46979.23
576.79	46670.28
576.95	46777.95
577.11	47009.66
577.27	47119.66
577.43	46799.01
577.59	46796.67
577.75	46831.78
577.92	46843.48
578.08	46534.53
578.24	46831.78
578.40	46815.40
578.56	47112.64
578.72	47117.32
578.88	47522.24
579.04	47590.11
579.21	46890.29
579.37	47281.16
579.53	47110.30
579.69	46405.80
579.85	47112.64
580.01	47012.00
580.17	46698.37
580.33	46902.00
580.49	46972.21
580.65	47119.66
580.82	47180.52
580.98	46763.90
581.14	46815.40
581.30	47313.93
581.46	46969.87
581.62	46976.89
581.78	46672.62
581.94	47068.17
582.10	46866.89
582.26	47208.61
582.42	47030.72
582.58	46902.00
582.74	47145.41
582.90	46733.48
583.06	47063.49
583.22	47201.58
583.38	46721.77
583.54	47096.26
583.70	46897.31
583.86	47023.70
584.02	46607.09
584.18	47086.90
584.34	47143.07
584.50	47196.90
584.66	47426.28
584.82	46712.41
584.98	47145.41
585.14	47229.67
585.30	46607.09
585.46	46953.49
585.62	47210.95
585.78	47470.75
585.94	46850.50
586.10	47426.28
586.26	47344.36
586.42	47327.97
586.58	47182.86
586.74	47012.00
586.90	47014.34
587.06	47093.92
587.22	47562.03
587.38	47124.35
587.54	47433.30
587.70	47304.57
587.86	47592.45
588.02	47739.91
588.18	47309.25
588.34	47583.09
588.49	47395.85
588.65	46696.03
588.81	47562.03
588.97	47320.95
589.13	47084.56
589.29	47426.28
589.45	47288.18
589.61	47316.27
589.77	47524.58
589.93	47426.28
590.08	47302.23
590.24	47805.44
590.40	47459.04
590.56	47798.42
590.72	47777.36
590.88	47262.44
591.04	47449.68
591.20	47587.77
591.35	47875.66
591.51	47941.19
591.67	47899.06
591.83	47697.78
591.99	47791.40
592.15	47552.66
592.31	47672.03
592.46	47365.42
592.62	47236.69
592.78	47517.56
592.94	47271.80
593.10	47686.07
593.26	47878.00
593.41	47690.76
593.57	47325.63
593.73	47494.15
593.89	47812.46
594.05	47852.25
594.20	47622.88
594.36	47395.85
594.52	47098.60
594.68	47363.08
594.84	47449.68
594.99	47866.30
595.15	47920.13
595.31	47917.79
595.47	47789.06
595.62	48023.11
595.78	47517.56
595.94	47246.05
596.10	47466.06
596.25	47388.83
596.41	47351.38
596.57	47456.70
596.73	47929.49
596.88	47775.02
597.04	47779.70
597.20	48172.91
597.36	47547.98
597.51	48109.71
597.67	47721.18
597.83	47566.71
597.99	48090.99
598.14	47587.77
598.30	47983.32
598.46	47821.83
598.61	47721.18
598.77	47683.73
598.93	47566.71
599.09	47646.29
599.24	48245.46
599.40	47817.14
599.56	47618.20
599.71	48142.48
599.87	47831.19
600.03	48058.22
600.18	47945.87
600.34	47934.17
600.50	47915.45
600.65	47707.14
600.81	48301.64
600.97	48240.78
601.12	47969.28
601.28	47896.72
601.44	47625.22
601.59	47770.33
601.75	47737.57
601.91	47194.56
602.06	47728.20
602.22	48004.39
602.37	47889.70
602.53	48196.31
602.69	47779.70
602.84	47669.69
603.00	48198.65
603.16	47945.87
603.31	47606.50
603.47	47445.00
603.62	47494.15
603.78	47580.75
603.94	47021.36
604.09	47775.02
604.25	47384.15
604.40	47812.46
604.56	47646.29
604.71	47622.88
604.87	47826.51
605.03	47650.97
605.18	47892.04
605.34	47870.98
605.49	47669.69
605.65	47618.20
605.80	47576.07
605.96	47559.69
606.12	47171.16
606.27	47412.23
606.43	47313.93
606.58	47667.35
606.74	47639.26
606.89	47531.60
607.05	47309.25
607.20	47613.52
607.36	47569.05
607.51	47608.84
607.67	47175.84
607.82	47459.04
607.98	47573.73
608.13	46997.96
608.29	47388.83
608.44	47194.56
608.60	46937.10
608.75	47084.56
608.91	47899.06
609.06	47126.69
609.22	47276.48
609.37	47105.62
609.53	47173.50
609.68	47267.12
609.84	47213.29
609.99	47208.61
610.15	47643.94
610.30	47789.06
610.46	47908.43
610.61	48076.94
610.76	47828.85
610.92	47681.39
611.07	48121.41
611.23	47847.57
611.38	48224.40
611.54	47707.14
611.69	47320.95
611.84	47508.19
612.00	47311.59
612.15	47175.84
612.31	47463.72
612.46	47665.01
612.62	47627.56
612.77	47171.16
612.92	47636.92
613.08	47210.95
613.23	47180.52
613.39	47327.97
613.54	47049.45
613.69	47096.26
613.85	47129.03
614.00	47306.91
614.15	47365.42
614.31	47157.11
614.46	47531.60
614.62	47084.56
614.77	47026.04
614.92	47030.72
615.08	47166.48
615.23	46717.09
615.38	47295.21
615.54	46871.57
615.69	46630.49
615.84	46286.43
616.00	46756.88
616.15	46527.51
616.30	46925.40
616.46	46703.05
616.61	46824.76
616.76	46948.81
616.92	46466.66
617.07	46513.47
617.22	46761.56
617.37	46122.60
617.53	46312.18
617.68	46267.71
617.83	46534.53
617.99	46464.32
618.14	46230.26
618.29	46848.16
618.45	46574.32
618.60	46291.12
618.75	46330.90
618.90	46529.85
619.06	46136.64
619.21	46497.08
619.36	46024.29
619.51	45811.31
619.67	46117.92
619.82	46092.17
619.97	45848.75
620.12	46218.56
620.28	45808.96
620.43	45970.46
620.58	46227.92
620.73	46045.36
620.89	45977.48
621.04	46146.00
621.19	46087.49
621.34	45640.45
621.49	45820.67
621.65	45708.32
621.80	45783.22
621.95	45656.83
622.10	45619.38
622.25	45134.89
622.41	45221.49
622.56	45710.66
622.71	46040.68
622.86	45858.12
623.01	46014.93
623.16	45450.86
623.32	45497.67
623.47	45617.04
623.62	45258.94
623.77	45521.08
623.92	45565.55
624.07	45586.61
624.23	45366.60
624.38	46094.51
624.53	45799.60
624.68	45586.61
624.83	45832.37
624.98	45914.29
625.13	45207.45
625.29	45677.90
625.44	45296.39
625.59	45008.50
625.74	44648.06
625.89	44861.05
626.04	45326.81
626.19	45256.60
626.34	45116.17
626.49	44697.21
626.65	45162.98
626.80	45418.10
626.95	44786.15
627.10	44753.38
627.25	45050.63
627.40	45045.95
627.55	45186.38
627.70	44634.02
627.85	44552.10
628.00	44194.00
628.15	45036.59
628.30	44629.34
628.45	44320.38
628.60	44224.42
628.76	45354.90
628.91	44395.28
629.06	45120.85
629.21	44877.43
629.36	44495.92
629.51	44481.88
629.66	44364.85
629.81	43990.37
629.96	43831.21
630.11	44247.83
630.26	44495.92
630.41	44697.21
630.56	44299.32
630.71	44767.43
630.86	44261.87
631.01	44783.81
631.16	44493.58
631.31	44737.00
631.46	44076.97
631.61	44713.59
631.76	44268.89
631.91	44500.61
632.06	43821.85
632.21	43981.01
632.36	43873.34
632.51	43992.71
632.66	43896.75
632.81	43819.51
632.96	44334.43
633.10	44367.20
633.25	44142.50
633.40	44002.07
633.55	44278.25
633.70	43959.94
633.85	43929.51
634.00	44067.61
634.15	43285.87
634.30	43772.70
634.45	43847.60
634.60	43433.32
634.75	43854.62
634.90	44018.46
635.05	44177.61
635.19	43543.33
635.34	43936.54
635.49	43641.63
635.64	43924.83
635.79	43384.17
635.94	43147.78
636.09	43868.66
636.24	43372.47
636.39	42988.62
636.53	43299.91
636.68	43009.68
636.83	43625.25
636.98	43688.44
637.13	43026.07
637.28	43297.57
637.43	43681.42
637.57	43295.23
637.72	42574.34
637.87	42843.51
638.02	42738.18
638.17	42983.94
638.32	42871.59
638.46	42808.40
638.61	42412.85
638.76	42773.29
638.91	42932.45
639.06	42527.53
639.20	43065.86
639.35	43243.74
639.50	43171.18
639.65	43342.04
639.80	42864.57
639.94	42644.56
640.09	42916.06
640.24	42614.13
640.39	42630.52
640.54	42164.75
640.68	42389.44
640.83	42684.35
640.98	42356.67
641.13	42366.04
641.27	42738.18
641.42	42930.11
641.57	43159.48
641.72	42906.70
641.86	42616.47
642.01	42426.89
642.16	42572.00
642.31	42511.15
642.45	42651.58
642.60	42148.37
642.75	41846.44
642.90	42089.85
643.04	42024.32
643.19	41759.84
643.34	42211.56
643.48	42068.79
643.63	42197.52
643.78	42169.43
643.93	42359.02
644.07	41977.51
644.22	42160.07
644.37	41759.84
644.51	41722.39
644.66	41691.96
644.81	42078.15
644.95	41663.88
645.10	41839.42
645.25	41888.57
645.39	41897.93
645.54	41801.97
645.69	41841.76
645.83	42120.28
645.98	41827.71
646.13	42155.39
646.27	42337.95
646.42	41701.32
646.57	41783.24
646.71	41787.92
646.86	41827.71
647.00	41579.62
647.15	41563.23
647.30	41411.10
647.44	41525.78
647.59	41823.03
647.74	41860.48
647.88	41769.20
648.03	41315.14
648.17	41900.27
648.32	41902.61
648.47	41837.08
648.61	41368.97
648.76	41390.03
648.90	41301.09
649.05	41060.02
649.20	41013.21
649.34	41275.35
649.49	40612.98
649.63	41116.19
649.78	41111.51
649.92	40521.69
650.07	41240.24
650.21	40804.90
650.36	41195.77
650.51	40847.03
650.65	41144.28
650.80	41179.39
650.94	41439.18
651.09	41261.30
651.23	41071.72
651.38	40774.47
651.52	40900.86
651.67	41113.85
651.81	40704.26
651.96	40598.93
652.10	41275.35
652.25	40301.68
652.39	40601.27
652.54	41055.34
652.68	40559.14
652.83	41069.38
652.97	40629.36
653.12	40856.39
653.26	41001.50
653.41	41081.08
653.55	40456.16
653.70	40287.64
653.84	40343.81
653.99	40350.84
654.13	40210.40
654.27	40282.96
654.42	39777.40
654.56	40442.12
654.71	40023.16
654.85	40201.04
655.00	40638.72
655.14	40201.04
655.29	40109.76
655.43	39878.05
655.57	40318.07
655.72	40179.98
655.86	39901.45
656.01	39924.86
656.15	39564.42
656.30	39927.20
656.44	39880.39
656.58	40187.00
656.73	39711.87
656.87	39744.64
657.01	39585.48
657.16	40135.51
657.30	40030.18
657.45	40179.98
657.59	39990.39
657.73	39580.80
657.88	39395.90
658.02	39171.21
658.16	39353.77
658.31	39604.20
658.45	39679.10
658.60	39278.87
658.74	39304.62
658.88	39323.34
659.03	39880.39
659.17	39220.36
659.31	38998.01
659.46	39044.82
659.60	39594.84
659.74	39648.68
659.89	39105.67
660.03	38637.56
660.17	38930.13
660.32	38899.70
660.46	39323.34
660.60	38787.36
660.74	38637.56
660.89	38560.33
661.03	38623.52
661.17	38785.02
661.32	38513.52
661.46	38553.30
661.60	38527.56
661.74	38595.43
661.89	38061.79
662.03	38190.52
662.17	38761.61
662.31	38588.41
662.46	38176.48
662.60	38274.78
662.74	38443.30
662.88	38099.24
663.03	38061.79
663.17	38092.22
663.31	37778.59
663.45	37888.59
663.60	38003.28
663.74	37422.83
663.88	38117.96
664.02	37699.01
664.17	37989.24
664.31	38164.78
664.45	37710.71
664.59	37649.86
664.73	37949.45
664.88	37567.94
665.02	37338.57
665.16	37249.63
665.30	37837.10
665.44	36947.70
665.59	36865.78
665.73	37284.73
665.87	37254.31
666.01	36655.13
666.15	36652.79
666.29	36772.16
666.44	37053.02
666.58	36435.12
666.72	36879.82
666.86	37046.00
667.00	36446.82
667.14	36266.60
667.28	36613.00
667.43	36392.99
667.57	36437.46
667.71	36467.89
667.85	36615.34
667.99	36631.72
668.13	36552.15
668.27	36353.20
668.41	36556.83
668.56	36311.07
668.70	36175.32
668.84	36238.51
668.98	36240.86
669.12	36236.17
669.26	36119.15
669.40	36020.84
669.54	35732.96
669.68	36121.49
669.82	35578.48
669.96	35292.94
670.10	35693.17
670.25	35400.60
670.39	35632.32
670.53	35536.35
670.67	35147.82
670.81	35580.82
670.95	35402.94
671.09	35365.49
671.23	35379.54
671.37	34991.01
671.51	35187.61
671.65	35260.17
671.79	35325.71
671.93	34976.97
672.07	34707.80
672.21	34822.49
672.35	34267.78
672.49	34478.43
672.63	34518.22
672.77	34300.55
672.91	34183.52
673.05	34197.57
673.19	34092.24
673.33	33975.22
673.47	34291.19
673.61	34132.03
673.75	33757.55
673.89	33956.49
674.03	33984.58
674.17	33717.76
674.31	33776.27
674.45	33490.73
674.59	33645.20
674.73	33362.00
674.87	33879.25
675.01	33336.25
675.15	33446.26
675.29	33397.10
675.43	33418.17
675.56	33251.99
675.70	33500.09
675.84	33394.76
675.98	32343.86
676.12	33331.57
676.26	33502.43
676.40	33053.05
676.54	33172.41
676.68	32879.85
676.82	32425.78
676.96	32636.43
677.10	32521.74
677.23	32266.63
677.37	32011.51
677.51	32142.58
677.65	31800.86
677.79	32142.58
677.93	31934.27
678.07	31838.31
678.21	31585.53
678.34	31517.65
678.48	31108.06
678.62	31777.45
678.76	31234.45
678.90	31119.76
679.04	30871.67
679.18	31292.96
679.31	30829.54
679.45	31154.87
679.59	30689.10
679.73	30487.82
679.87	30443.35
680.00	30279.51
680.14	30401.22
680.28	30274.83
680.42	30143.76
680.56	30033.75
680.70	30345.05
680.83	29818.42
680.97	29977.58
681.11	29930.77
681.25	29607.78
681.39	29741.19
681.52	30134.40
681.66	29495.43
681.80	29610.12
681.94	29373.72
682.07	29415.85
682.21	29254.36
682.35	29088.18
682.49	28996.90
682.62	28849.44
682.76	28856.46
682.90	28498.36
683.04	28802.63
683.17	28521.77
683.31	28645.82
683.45	28732.42
683.59	28608.37
683.72	28278.35
683.86	28229.20
684.00	28379.00
684.13	27988.13
684.27	27974.08
684.41	27576.19
684.55	27812.59
684.68	27786.84
684.82	27337.46
684.96	27370.22
685.09	27367.88
685.23	27323.41
685.37	27353.84
685.50	27356.18
685.64	27300.01
685.78	27157.24
685.91	27061.27
686.05	26759.34
686.19	26728.92
686.32	26806.16
686.46	26338.05
686.60	26010.37
686.73	26824.88
686.87	26349.75
687.01	26096.97
687.14	25748.23
687.28	26089.95
687.42	26008.03
687.55	25881.64
687.69	25666.31
687.82	25408.86
687.96	25773.98
688.10	25448.64
688.23	25216.93
688.37	25350.34
688.50	25696.74
688.64	25294.17
688.78	25158.42
688.91	25003.94
689.05	25289.49
689.18	24348.59
689.32	24709.04
689.46	24720.74
689.59	24484.34
689.73	24587.33
689.86	24498.39
690.00	24299.44
690.13	24402.43
690.27	24474.98
690.41	24271.36
690.54	23854.74
690.68	23716.65
690.81	23847.72
690.95	24002.19
691.08	23988.15
691.22	23793.89
691.35	23267.27
691.49	23498.98
691.62	23253.22
691.76	22892.78
691.89	23143.22
692.03	22714.90
692.16	22778.09
692.30	22661.07
692.43	22291.26
692.57	22478.50
692.70	22412.97
692.84	22555.74
692.97	22721.92
693.11	22871.72
693.24	22331.05
693.38	22408.29
693.51	22410.63
693.65	22424.67
693.78	21944.86
693.92	22122.74
694.05	22204.66
694.19	21715.49
694.32	21748.26
694.45	21806.77
694.59	21525.91
694.72	21341.00
694.86	21249.72
694.99	21479.10
695.13	20905.66
695.26	20954.82
695.39	20844.81
695.53	20947.79
695.66	20924.39
695.80	20622.46
695.93	21090.57
696.07	20730.12
696.20	20732.47
696.33	20786.30
696.47	20620.12
696.60	20205.84
696.73	20343.94
696.87	20414.15
697.00	20397.77
697.14	19976.47
697.27	19831.36
697.40	19803.27
697.54	19499.00
697.67	19543.47
697.80	19613.69
697.94	19548.15
698.07	19260.27
698.21	19194.73
698.34	19421.77
698.47	19257.93
698.61	19023.87
698.74	19180.69
698.87	19159.63
699.01	18473.85
699.14	19040.26
699.27	19049.62
699.40	19077.71
699.54	18876.42
699.67	18431.72
699.80	18101.70
699.94	18178.94
700.07	17982.34
700.20	17804.46
700.34	17685.09
700.47	17762.33
700.60	17624.23
700.73	17497.84
700.87	17654.66
701.00	17652.32
701.13	17589.13
701.26	17277.83
701.40	17832.54
701.53	17633.60
701.66	17284.86
701.79	17455.72
701.93	17245.07
702.06	17069.53
702.19	16922.07
702.32	17013.35
702.46	16753.55
702.59	16491.41
702.72	16582.70
702.85	16496.10
702.99	16388.43
703.12	16362.69
703.25	16182.46
703.38	16425.88
703.51	16489.07
703.65	16245.66
703.78	16418.86
703.91	16039.69
704.04	16465.67
704.17	15836.06
704.31	15819.68
704.44	15990.54
704.57	15719.04
704.70	15463.92
704.83	15482.64
704.96	15438.17
705.10	15426.47
705.23	15286.04
>>>>>End Processed Spectral Data<<<<<
