SpectraSuite Data File
++++++++++++++++++++++++++++++++++++
Date: Fri Oct 04 11:39:52 GMT-05:00 2013
User: price-jones
Dark Spectrum Present: No
Reference Spectrum Present: No
Number of Sampled Component Spectra: 1
Spectrometers: USB2+H05261
Integration Time (usec): 100000 (USB2+H05261)
Spectra Averaged: 1 (USB2+H05261)
Boxcar Smoothing: 0 (USB2+H05261)
Correct for Electrical Dark: No (USB2+H05261)
Strobe/Lamp Enabled: No (USB2+H05261)
Correct for Detector Non-linearity: No (USB2+H05261)
Correct for Stray Light: No (USB2+H05261)
Number of Pixels in Processed Spectrum: 2048
>>>>>Begin Processed Spectral Data<<<<<
365.73	0.00
365.92	0.00
366.12	0.00
366.32	7.02
366.52	0.00
366.72	0.00
366.91	0.00
367.11	0.00
367.31	0.00
367.51	0.00
367.70	0.00
367.90	0.00
368.10	0.00
368.30	0.00
368.49	0.00
368.69	0.00
368.89	18.72
369.09	0.00
369.28	0.00
369.48	0.00
369.68	37.45
369.87	0.00
370.07	49.15
370.27	72.56
370.47	51.49
370.66	0.00
370.86	25.75
371.06	72.56
371.25	131.07
371.45	126.39
371.65	170.86
371.84	0.00
372.04	23.41
372.24	121.71
372.44	81.92
372.63	142.77
372.83	107.66
373.03	74.90
373.22	63.19
373.42	156.82
373.62	145.11
373.81	166.18
374.01	163.84
374.21	95.96
374.40	117.03
374.60	203.63
374.79	79.58
374.99	102.98
375.19	25.75
375.38	107.66
375.58	124.05
375.78	93.62
375.97	126.39
376.17	117.03
376.37	135.75
376.56	56.17
376.76	140.43
376.95	107.66
377.15	166.18
377.35	135.75
377.54	191.92
377.74	124.05
377.93	147.45
378.13	145.11
378.33	168.52
378.52	117.03
378.72	168.52
378.91	156.82
379.11	72.56
379.31	170.86
379.50	74.90
379.70	91.28
379.89	102.98
380.09	119.37
380.28	53.83
380.48	138.09
380.68	51.49
380.87	149.79
381.07	189.58
381.26	224.69
381.46	159.16
381.65	133.41
381.85	131.07
382.04	112.35
382.24	191.92
382.43	65.54
382.63	65.54
382.83	88.94
383.02	86.60
383.22	166.18
383.41	107.66
383.61	121.71
383.80	131.07
384.00	98.30
384.19	156.82
384.39	131.07
384.58	154.48
384.78	170.86
384.97	100.64
385.17	107.66
385.36	74.90
385.56	81.92
385.75	105.32
385.95	184.90
386.14	114.69
386.34	112.35
386.53	65.54
386.72	42.13
386.92	102.98
387.11	147.45
387.31	138.09
387.50	154.48
387.70	95.96
387.89	135.75
388.09	128.73
388.28	72.56
388.48	100.64
388.67	112.35
388.86	117.03
389.06	91.28
389.25	175.54
389.45	217.67
389.64	140.43
389.84	196.60
390.03	72.56
390.22	152.13
390.42	161.50
390.61	117.03
390.81	114.69
391.00	133.41
391.19	135.75
391.39	119.37
391.58	161.50
391.78	159.16
391.97	149.79
392.16	170.86
392.36	238.73
392.55	159.16
392.75	107.66
392.94	166.18
393.13	208.31
393.33	138.09
393.52	107.66
393.71	131.07
393.91	203.63
394.10	140.43
394.29	124.05
394.49	81.92
394.68	175.54
394.88	224.69
395.07	196.60
395.26	156.82
395.46	173.20
395.65	98.30
395.84	107.66
396.04	271.50
396.23	147.45
396.42	198.95
396.62	121.71
396.81	117.03
397.00	159.16
397.19	187.24
397.39	128.73
397.58	159.16
397.77	91.28
397.97	217.67
398.16	107.66
398.35	271.50
398.55	168.52
398.74	166.18
398.93	149.79
399.12	131.07
399.32	283.20
399.51	227.03
399.70	166.18
399.90	147.45
400.09	147.45
400.28	173.20
400.47	182.56
400.67	180.22
400.86	212.99
401.05	262.14
401.24	201.29
401.44	149.79
401.63	224.69
401.82	234.05
402.01	194.26
402.21	135.75
402.40	163.84
402.59	131.07
402.78	140.43
402.97	131.07
403.17	154.48
403.36	276.18
403.55	208.31
403.74	154.48
403.93	156.82
404.13	264.48
404.32	205.97
404.51	222.35
404.70	248.10
404.89	147.45
405.09	210.65
405.28	217.67
405.47	224.69
405.66	187.24
405.85	250.44
406.05	147.45
406.24	304.27
406.43	212.99
406.62	203.63
406.81	360.44
407.00	229.37
407.20	259.80
407.39	166.18
407.58	283.20
407.77	227.03
407.96	229.37
408.15	280.86
408.34	243.42
408.54	182.56
408.73	196.60
408.92	173.20
409.11	231.71
409.30	222.35
409.49	227.03
409.68	168.52
409.87	194.26
410.07	248.10
410.26	212.99
410.45	196.60
410.64	287.89
410.83	229.37
411.02	290.23
411.21	287.89
411.40	273.84
411.59	283.20
411.78	311.29
411.98	245.76
412.17	255.12
412.36	276.18
412.55	208.31
412.74	299.59
412.93	266.82
413.12	269.16
413.31	299.59
413.50	290.23
413.69	257.46
413.88	304.27
414.07	269.16
414.26	327.68
414.45	259.80
414.64	262.14
414.83	290.23
415.02	252.78
415.22	337.04
415.41	280.86
415.60	320.65
415.79	285.55
415.98	297.25
416.17	266.82
416.36	266.82
416.55	304.27
416.74	285.55
416.93	234.05
417.12	292.57
417.31	332.36
417.50	283.20
417.69	388.53
417.88	369.80
418.07	280.86
418.26	255.12
418.45	283.20
418.64	376.83
418.83	271.50
419.02	262.14
419.21	372.15
419.39	322.99
419.58	264.48
419.77	299.59
419.96	341.72
420.15	374.49
420.34	376.83
420.53	304.27
420.72	397.89
420.91	325.33
421.10	386.19
421.29	362.78
421.48	404.91
421.67	369.80
421.86	395.55
422.05	358.10
422.24	344.06
422.43	402.57
422.61	355.76
422.80	313.63
422.99	339.38
423.18	313.63
423.37	414.27
423.56	430.66
423.75	348.74
423.94	290.23
424.13	348.74
424.32	400.23
424.50	367.46
424.69	290.23
424.88	402.57
425.07	367.46
425.26	348.74
425.45	402.57
425.64	322.99
425.83	355.76
426.01	297.25
426.20	400.23
426.39	358.10
426.58	339.38
426.77	330.02
426.96	407.25
427.15	433.00
427.33	383.85
427.52	351.08
427.71	365.12
427.90	430.66
428.09	456.40
428.28	386.19
428.46	348.74
428.65	325.33
428.84	416.62
429.03	489.17
429.22	339.38
429.40	353.42
429.59	290.23
429.78	355.76
429.97	353.42
430.16	365.12
430.34	355.76
430.53	437.68
430.72	376.83
430.91	437.68
431.10	416.62
431.28	330.02
431.47	367.46
431.66	304.27
431.85	351.08
432.03	402.57
432.22	430.66
432.41	444.70
432.60	493.85
432.79	456.40
432.97	458.74
433.16	402.57
433.35	369.80
433.54	397.89
433.72	337.04
433.91	376.83
434.10	430.66
434.28	475.13
434.47	414.27
434.66	496.19
434.85	395.55
435.03	489.17
435.22	716.20
435.41	882.38
435.59	849.61
435.78	660.03
435.97	543.00
436.16	449.38
436.34	447.04
436.53	430.66
436.72	489.17
436.90	463.43
437.09	477.47
437.28	472.79
437.46	486.83
437.65	484.49
437.84	449.38
438.02	486.83
438.21	425.98
438.40	435.34
438.58	442.36
438.77	482.15
438.96	454.06
439.14	484.49
439.33	498.53
439.52	440.02
439.70	454.06
439.89	585.13
440.08	510.24
440.26	468.11
440.45	547.69
440.63	496.19
440.82	535.98
441.01	512.58
441.19	468.11
441.38	482.15
441.57	468.11
441.75	528.96
441.94	545.34
442.12	594.50
442.31	519.60
442.50	444.70
442.68	517.26
442.87	547.69
443.05	521.94
443.24	500.87
443.43	496.19
443.61	578.11
443.80	526.62
443.98	554.71
444.17	428.32
444.35	594.50
444.54	535.98
444.73	543.00
444.91	580.45
445.10	535.98
445.28	503.22
445.47	519.60
445.65	571.09
445.84	561.73
446.02	559.39
446.21	521.94
446.39	503.22
446.58	531.30
446.77	528.96
446.95	533.64
447.14	517.26
447.32	585.13
447.51	550.03
447.69	521.94
447.88	547.69
448.06	564.07
448.25	575.77
448.43	571.09
448.62	559.39
448.80	477.47
448.99	568.75
449.17	559.39
449.36	540.66
449.54	603.86
449.73	538.32
449.91	580.45
450.10	592.16
450.28	622.58
450.46	648.33
450.65	662.37
450.83	655.35
451.02	564.07
451.20	538.32
451.39	585.13
451.57	543.00
451.76	592.16
451.94	514.92
452.13	545.34
452.31	557.05
452.49	599.18
452.68	524.28
452.86	566.41
453.05	622.58
453.23	624.92
453.42	573.43
453.60	510.24
453.78	571.09
453.97	568.75
454.15	561.73
454.34	603.86
454.52	594.50
454.70	638.97
454.89	695.14
455.07	573.43
455.26	617.90
455.44	702.16
455.62	596.84
455.81	730.25
455.99	592.16
456.17	617.90
456.36	674.07
456.54	603.86
456.73	711.52
456.91	559.39
457.09	622.58
457.28	681.10
457.46	610.88
457.64	643.65
457.83	613.22
458.01	636.63
458.19	627.26
458.38	622.58
458.56	638.97
458.74	662.37
458.93	699.82
459.11	674.07
459.29	606.20
459.48	699.82
459.66	713.86
459.84	695.14
460.03	681.10
460.21	650.67
460.39	678.76
460.57	674.07
460.76	699.82
460.94	683.44
461.12	788.76
461.31	706.84
461.49	671.73
461.67	643.65
461.85	674.07
462.04	617.90
462.22	1200.69
462.40	702.16
462.59	674.07
462.77	599.18
462.95	697.48
463.13	641.31
463.32	784.08
463.50	739.61
463.68	704.50
463.86	674.07
464.05	718.54
464.23	704.50
464.41	753.65
464.59	653.01
464.78	589.82
464.96	648.33
465.14	674.07
465.32	702.16
465.50	713.86
465.69	760.67
465.87	763.01
466.05	744.29
466.23	676.41
466.41	603.86
466.60	697.48
466.78	725.57
466.96	716.20
467.14	770.04
467.32	660.03
467.51	697.48
467.69	695.14
467.87	793.44
468.05	793.44
468.23	800.46
468.41	704.50
468.60	751.31
468.78	739.61
468.96	650.67
469.14	798.12
469.32	683.44
469.50	826.21
469.69	828.55
469.87	744.29
470.05	854.30
470.23	732.59
470.41	718.54
470.59	802.80
470.77	842.59
470.95	741.95
471.14	755.99
471.32	795.78
471.50	765.36
471.68	744.29
471.86	826.21
472.04	823.87
472.22	741.95
472.40	767.70
472.58	706.84
472.77	798.12
472.95	880.04
473.13	840.25
473.31	798.12
473.49	866.00
473.67	823.87
473.85	781.74
474.03	891.74
474.21	905.79
474.39	924.51
474.57	866.00
474.75	837.91
474.93	844.93
475.12	814.51
475.30	837.91
475.48	882.38
475.66	854.30
475.84	903.45
476.02	851.96
476.20	931.53
476.38	875.36
476.56	940.90
476.74	744.29
476.92	887.06
477.10	870.68
477.28	968.98
477.46	945.58
477.64	910.47
477.82	887.06
478.00	938.55
478.18	901.11
478.36	933.87
478.54	959.62
478.72	936.21
478.90	924.51
479.08	973.66
479.26	1004.09
479.44	959.62
479.62	1053.24
479.80	987.71
479.98	983.02
480.16	1006.43
480.34	1008.77
480.52	999.41
480.70	1022.81
480.88	973.66
481.06	985.37
481.24	1022.81
481.41	1048.56
481.59	1076.65
481.77	1076.65
481.95	1043.88
482.13	1083.67
482.31	1090.69
482.49	1093.03
482.67	1097.71
482.85	1104.73
483.03	1011.11
483.21	1137.50
483.39	1104.73
483.57	1121.12
483.74	1160.91
483.92	1139.84
484.10	1111.75
484.28	1198.35
484.46	1219.42
484.64	1170.27
484.82	1200.69
485.00	1193.67
485.18	1198.35
485.35	1210.06
485.53	1284.95
485.71	1301.34
485.89	1263.89
486.07	1242.82
486.25	1348.15
486.43	1212.40
486.61	1282.61
486.78	1341.13
486.96	1273.25
487.14	1289.64
487.32	1336.45
487.50	1231.12
487.68	1362.19
487.85	1357.51
488.03	1317.72
488.21	1390.28
488.39	1437.09
488.57	1289.64
488.75	1352.83
488.92	1706.25
489.10	1432.41
489.28	1507.30
489.46	1289.64
489.64	1355.17
489.81	1380.92
489.99	1392.62
490.17	1453.47
490.35	1483.90
490.53	1502.62
490.70	1469.86
490.88	1551.78
491.06	1462.83
491.24	1465.18
491.41	1455.81
491.59	1526.03
491.77	1404.32
491.95	1446.45
492.13	1434.75
492.30	1514.33
492.48	1537.73
492.66	1544.75
492.84	1446.45
493.01	1519.01
493.19	1474.54
493.37	1497.94
493.54	1610.29
493.72	1624.33
493.90	1652.42
494.08	1570.50
494.25	1685.19
494.43	1528.37
494.61	1582.20
494.79	1715.61
494.96	1621.99
495.14	1715.61
495.32	1699.23
495.49	1748.38
495.67	1678.16
495.85	1694.55
496.02	1699.23
496.20	1717.95
496.38	1645.40
496.55	1701.57
496.73	1764.76
496.91	1654.76
497.09	1834.98
497.26	1750.72
497.44	1692.21
497.62	1675.82
497.79	1795.19
497.97	1818.60
498.14	1769.44
498.32	1802.21
498.50	1818.60
498.67	1755.40
498.85	1802.21
499.03	1842.00
499.20	1830.30
499.38	1863.07
499.56	1764.76
499.73	1823.28
499.91	1870.09
500.08	1933.28
500.26	1806.89
500.44	1884.13
500.61	1865.41
500.79	1884.13
500.97	1790.51
501.14	1827.96
501.32	1858.39
501.49	1916.90
501.67	1902.86
501.84	1968.39
502.02	1842.00
502.20	1949.67
502.37	1895.83
502.55	1942.64
502.72	1970.73
502.90	1870.09
503.07	1961.37
503.25	1937.96
503.43	1921.58
503.60	1984.77
503.78	1926.26
503.95	1975.41
504.13	1942.64
504.30	2108.82
504.48	1909.88
504.65	2087.76
504.83	1963.71
505.01	2022.22
505.18	2069.03
505.36	2076.06
505.53	1954.35
505.71	1952.01
505.88	2043.29
506.06	2045.63
506.23	1996.48
506.41	2010.52
506.58	2090.10
506.76	1996.48
506.93	2090.10
507.11	2022.22
507.28	2054.99
507.46	2094.78
507.63	2076.06
507.81	2024.56
507.98	2040.95
508.16	2160.31
508.33	2069.03
508.50	2165.00
508.68	2186.06
508.85	2244.57
509.03	2115.84
509.20	2169.68
509.38	2174.36
509.55	2214.15
509.73	2157.97
509.90	2148.61
510.08	2150.95
510.25	2176.70
510.42	2207.13
510.60	2246.91
510.77	2216.49
510.95	2179.04
511.12	2235.21
511.30	2169.68
511.47	2228.19
511.64	2235.21
511.82	2195.42
511.99	2221.17
512.17	2239.89
512.34	2146.27
512.51	2211.81
512.69	2289.04
512.86	2321.81
513.04	2286.70
513.21	2272.66
513.38	2188.40
513.56	2246.91
513.73	2326.49
513.90	2153.29
514.08	2127.55
514.25	2377.98
514.43	2312.45
514.60	2326.49
514.77	2377.98
514.95	2368.62
515.12	2282.02
515.29	2385.01
515.47	2246.91
515.64	2354.58
515.81	2363.94
515.99	2370.96
516.16	2466.92
516.33	2298.41
516.51	2225.85
516.68	2291.38
516.85	2317.13
517.03	2431.82
517.20	2406.07
517.37	2445.86
517.54	2359.26
517.72	2490.33
517.89	2385.01
518.06	2359.26
518.24	2347.56
518.41	2333.51
518.58	2438.84
518.75	2366.28
518.93	2616.72
519.10	2502.03
519.27	2415.43
519.45	2317.13
519.62	2452.88
519.79	2485.65
519.96	2401.39
520.14	2417.77
520.31	2572.25
520.48	2417.77
520.65	2480.97
520.83	2516.08
521.00	2553.52
521.17	2504.37
521.34	2495.01
521.52	2495.01
521.69	2532.46
521.86	2471.61
522.03	2457.56
522.20	2565.23
522.38	2576.93
522.55	2523.10
522.72	2502.03
522.89	2593.31
523.07	2558.21
523.24	2635.44
523.41	2590.97
523.58	2562.89
523.75	2537.14
523.92	2619.06
524.10	2502.03
524.27	2546.50
524.44	2614.38
524.61	2537.14
524.78	2665.87
524.96	2605.02
525.13	2626.08
525.30	2497.35
525.47	2619.06
525.64	2607.36
525.81	2567.57
525.98	2686.94
526.16	2626.08
526.33	2633.10
526.50	2647.15
526.67	2530.12
526.84	2656.51
527.01	2605.02
527.18	2661.19
527.36	2850.77
527.53	2569.91
527.70	2771.19
527.87	2649.49
528.04	2703.32
528.21	2642.46
528.38	2593.31
528.55	2710.34
528.72	2693.96
528.89	2736.09
529.07	2649.49
529.24	2612.04
529.41	2733.75
529.58	2820.35
529.75	2670.55
529.92	2832.05
530.09	2740.77
530.26	2649.49
530.43	2792.26
530.60	2663.53
530.77	2752.47
530.94	2712.68
531.11	2724.38
531.28	2710.34
531.46	2677.57
531.63	2672.89
531.80	2693.96
531.97	2761.83
532.14	2761.83
532.31	2780.56
532.48	2722.04
532.65	2834.39
532.82	2745.45
532.99	2771.19
533.16	2679.91
533.33	2759.49
533.50	2794.60
533.67	2881.20
533.84	2789.92
534.01	2822.69
534.18	2731.41
534.35	2738.43
534.52	2839.07
534.69	2974.82
534.86	2843.75
535.03	2832.05
535.20	2855.45
535.37	2834.39
535.54	2775.88
535.71	2773.53
535.88	2832.05
536.05	2736.09
536.22	2876.52
536.38	2935.03
536.55	2836.73
536.72	2874.18
536.89	2892.90
537.06	3070.78
537.23	2906.95
537.40	2712.68
537.57	2956.10
537.74	2906.95
537.91	2960.78
538.08	2918.65
538.25	2979.50
538.42	3061.42
538.59	3007.59
538.75	2881.20
538.92	2930.35
539.09	2995.89
539.26	3023.97
539.43	2920.99
539.60	3035.67
539.77	2897.58
539.94	3021.63
540.11	3080.14
540.28	3094.19
540.44	3124.62
540.61	3152.70
540.78	3225.26
540.95	3213.56
541.12	3302.50
541.29	3281.43
541.46	3330.58
541.62	3424.20
541.79	3328.24
541.96	3124.62
542.13	3262.71
542.30	3211.22
542.47	3330.58
542.63	3304.84
542.80	3396.12
542.97	3335.26
543.14	3309.52
543.31	3279.09
543.48	3232.28
543.64	3258.03
543.81	3295.47
543.98	3323.56
544.15	3307.18
544.32	3307.18
544.48	3185.47
544.65	3379.73
544.82	3426.54
544.99	3206.53
545.16	3396.12
545.32	3241.64
545.49	3620.81
545.66	3992.95
545.83	4133.39
546.00	4042.11
546.16	3569.32
546.33	3396.12
546.50	3325.90
546.67	3307.18
546.83	3220.58
547.00	3300.16
547.17	3171.43
547.34	3258.03
547.50	3183.13
547.67	3229.94
547.84	3136.32
548.00	3215.90
548.17	3206.53
548.34	3187.81
548.51	3028.65
548.67	3145.68
548.84	3293.13
549.01	3269.73
549.18	3227.60
549.34	3119.93
549.51	3176.11
549.68	3229.94
549.84	3131.64
550.01	3059.08
550.18	3269.73
550.34	3295.47
550.51	3077.80
550.68	3070.78
550.84	3066.10
551.01	3038.02
551.18	2937.37
551.34	3141.00
551.51	3152.70
551.68	3098.87
551.84	3063.76
552.01	3162.06
552.18	3155.04
552.34	3073.12
552.51	3054.40
552.68	3122.27
552.84	3070.78
553.01	3145.68
553.18	3246.32
553.34	3124.62
553.51	3075.46
553.67	2977.16
553.84	3220.58
554.01	3187.81
554.17	3155.04
554.34	3110.57
554.51	3028.65
554.67	3199.51
554.84	3183.13
555.00	3049.72
555.17	3103.55
555.33	3101.21
555.50	3162.06
555.67	3038.02
555.83	3059.08
556.00	3117.59
556.16	3400.80
556.33	3073.12
556.50	3136.32
556.66	3087.17
556.83	3084.83
556.99	3082.49
557.16	3138.66
557.32	3068.44
557.49	3122.27
557.65	3138.66
557.82	3194.83
557.98	3098.87
558.15	3192.49
558.32	3066.10
558.48	3155.04
558.65	3143.34
558.81	3061.42
558.98	3129.30
559.14	3033.33
559.31	2984.18
559.47	3173.77
559.64	3049.72
559.80	3019.29
559.97	3047.38
560.13	3026.31
560.30	3192.49
560.46	3201.85
560.63	3152.70
560.79	3082.49
560.96	3173.77
561.12	3119.93
561.29	3152.70
561.45	3138.66
561.61	3253.34
561.78	3234.62
561.94	3126.96
562.11	3007.59
562.27	3133.98
562.44	3112.91
562.60	3112.91
562.77	3206.53
562.93	3204.19
563.10	3164.40
563.26	3108.23
563.42	3295.47
563.59	3124.62
563.75	3101.21
563.92	3094.19
564.08	3185.47
564.24	3035.67
564.41	3176.11
564.57	3173.77
564.74	3101.21
564.90	3192.49
565.07	3225.26
565.23	3129.30
565.39	3030.99
565.56	3159.72
565.72	3112.91
565.88	3056.74
566.05	3101.21
566.21	3152.70
566.38	3150.36
566.54	3047.38
566.70	3087.17
566.87	3066.10
567.03	3080.14
567.19	3185.47
567.36	3349.31
567.52	3199.51
567.68	3084.83
567.85	3136.32
568.01	3066.10
568.17	3075.46
568.34	3023.97
568.50	3059.08
568.66	3155.04
568.83	3246.32
568.99	3063.76
569.15	3073.12
569.32	3136.32
569.48	3208.87
569.64	3141.00
569.81	3094.19
569.97	3201.85
570.13	3066.10
570.30	3169.09
570.46	3129.30
570.62	3059.08
570.78	3103.55
570.95	3145.68
571.11	3108.23
571.27	3171.43
571.43	3054.40
571.60	3082.49
571.76	3035.67
571.92	3129.30
572.09	3293.13
572.25	3164.40
572.41	3138.66
572.57	3094.19
572.74	3251.00
572.90	3084.83
573.06	3180.79
573.22	3061.42
573.38	3351.65
573.55	3159.72
573.71	3096.53
573.87	3288.45
574.03	3077.80
574.20	3215.90
574.36	3157.38
574.52	3239.30
574.68	2967.80
574.84	3180.79
575.01	3206.53
575.17	3110.57
575.33	3159.72
575.49	3171.43
575.65	3272.07
575.82	3293.13
575.98	3272.07
576.14	3236.96
576.30	3260.37
576.46	3302.50
576.62	3283.77
576.79	3262.71
576.95	3300.16
577.11	3274.41
577.27	3122.27
577.43	3183.13
577.59	3213.56
577.75	3089.51
577.92	3016.95
578.08	3052.06
578.24	3218.24
578.40	3258.03
578.56	3379.73
578.72	3279.09
578.88	3412.50
579.04	3201.85
579.21	3337.60
579.37	3229.94
579.53	3173.77
579.69	3211.22
579.85	3185.47
580.01	3197.17
580.17	3229.94
580.33	3321.22
580.49	3112.91
580.65	3239.30
580.82	3080.14
580.98	3243.98
581.14	3115.25
581.30	3162.06
581.46	3192.49
581.62	3201.85
581.78	3190.15
581.94	3241.64
582.10	3180.79
582.26	3056.74
582.42	3346.97
582.58	3096.53
582.74	3311.86
582.90	3304.84
583.06	3040.36
583.22	3239.30
583.38	3274.41
583.54	3323.56
583.70	3243.98
583.86	3307.18
584.02	3201.85
584.18	3300.16
584.34	3258.03
584.50	3396.12
584.66	3185.47
584.82	3101.21
584.98	3150.36
585.14	3049.72
585.30	3211.22
585.46	3124.62
585.62	3176.11
585.78	3288.45
585.94	3337.60
586.10	3243.98
586.26	3279.09
586.42	3211.22
586.58	3211.22
586.74	3260.37
586.90	3351.65
587.06	3253.34
587.22	3272.07
587.38	3213.56
587.54	3246.32
587.70	3220.58
587.86	3201.85
588.02	3255.69
588.18	3258.03
588.34	3176.11
588.49	3222.92
588.65	3260.37
588.81	3133.98
588.97	3030.99
589.13	3136.32
589.29	3187.81
589.45	3274.41
589.61	3265.05
589.77	3131.64
589.93	3318.88
590.08	3241.64
590.24	3138.66
590.40	3148.02
590.56	3272.07
590.72	3246.32
590.88	3112.91
591.04	3185.47
591.20	3234.62
591.35	3262.71
591.51	3119.93
591.67	3307.18
591.83	3421.86
591.99	3265.05
592.15	3218.24
592.31	3309.52
592.46	3173.77
592.62	3178.45
592.78	3391.44
592.94	3225.26
593.10	3286.11
593.26	3138.66
593.41	3164.40
593.57	3208.87
593.73	3190.15
593.89	3190.15
594.05	3094.19
594.20	3178.45
594.36	3323.56
594.52	3262.71
594.68	3190.15
594.84	3145.68
594.99	3253.34
595.15	3103.55
595.31	3225.26
595.47	3346.97
595.62	3133.98
595.78	3236.96
595.94	3138.66
596.10	3173.77
596.25	3187.81
596.41	3143.34
596.57	3169.09
596.73	3279.09
596.88	3204.19
597.04	3150.36
597.20	3215.90
597.36	3194.83
597.51	3220.58
597.67	3173.77
597.83	3110.57
597.99	3258.03
598.14	3246.32
598.30	3227.60
598.46	3248.66
598.61	3251.00
598.77	3087.17
598.93	3178.45
599.09	3316.54
599.24	3103.55
599.40	3372.71
599.56	3309.52
599.71	3222.92
599.87	3169.09
600.03	3180.79
600.18	3208.87
600.34	3253.34
600.50	3290.79
600.65	3143.34
600.81	3260.37
600.97	3236.96
601.12	3246.32
601.28	3248.66
601.44	3248.66
601.59	3323.56
601.75	3145.68
601.91	3169.09
602.06	3119.93
602.22	3215.90
602.37	3126.96
602.53	3098.87
602.69	3131.64
602.84	3180.79
603.00	3281.43
603.16	3241.64
603.31	3197.17
603.47	3220.58
603.62	3253.34
603.78	3173.77
603.94	3009.93
604.09	3101.21
604.25	3080.14
604.40	3173.77
604.56	3201.85
604.71	3183.13
604.87	3187.81
605.03	3187.81
605.18	3124.62
605.34	3300.16
605.49	3133.98
605.65	3246.32
605.80	3164.40
605.96	3157.38
606.12	3272.07
606.27	3232.28
606.43	3222.92
606.58	3222.92
606.74	3136.32
606.89	3218.24
607.05	3094.19
607.20	3145.68
607.36	2986.52
607.51	3148.02
607.67	3206.53
607.82	3192.49
607.98	3199.51
608.13	3159.72
608.29	3260.37
608.44	3265.05
608.60	3243.98
608.75	3314.20
608.91	3157.38
609.06	3328.24
609.22	3267.39
609.37	3176.11
609.53	3159.72
609.68	3234.62
609.84	3309.52
609.99	3339.94
610.15	3414.84
610.30	3644.21
610.46	3482.72
610.61	3719.11
610.76	3794.01
610.92	4065.51
611.07	4156.79
611.23	4229.35
611.38	4102.96
611.54	4018.70
611.69	3730.81
611.84	3705.07
612.00	3585.70
612.15	3508.46
612.31	3529.53
612.46	3548.25
612.62	3300.16
612.77	3503.78
612.92	3426.54
613.08	3417.18
613.23	3262.71
613.39	3400.80
613.54	3248.66
613.69	3236.96
613.85	3260.37
614.00	3164.40
614.15	3302.50
614.31	3173.77
614.46	3236.96
614.62	3255.69
614.77	3227.60
614.92	3279.09
615.08	3255.69
615.23	3258.03
615.38	3164.40
615.54	3105.89
615.69	3038.02
615.84	3094.19
616.00	3155.04
616.15	3108.23
616.30	3087.17
616.46	3164.40
616.61	3028.65
616.76	3108.23
616.92	3012.27
617.07	3131.64
617.22	3007.59
617.37	3035.67
617.53	3033.33
617.68	2953.76
617.83	2986.52
617.99	3129.30
618.14	3052.06
618.29	3019.29
618.45	3021.63
618.60	2991.20
618.75	3052.06
618.90	3068.44
619.06	2984.18
619.21	3084.83
619.36	3084.83
619.51	3091.85
619.67	2944.39
619.82	3166.74
619.97	2986.52
620.12	3066.10
620.28	2984.18
620.43	2974.82
620.58	3112.91
620.73	3063.76
620.89	2972.48
621.04	3119.93
621.19	3145.68
621.34	3019.29
621.49	2991.20
621.65	3063.76
621.80	2998.23
621.95	2904.60
622.10	2916.31
622.25	2923.33
622.41	2911.63
622.56	2967.80
622.71	3030.99
622.86	3082.49
623.01	3045.04
623.16	2874.18
623.32	2871.84
623.47	2993.55
623.62	2822.69
623.77	3101.21
623.92	3045.04
624.07	2981.84
624.23	2937.37
624.38	2876.52
624.53	2902.26
624.68	3012.27
624.83	2993.55
624.98	3023.97
625.13	2895.24
625.29	2953.76
625.44	2913.97
625.59	2899.92
625.74	2913.97
625.89	2925.67
626.04	2850.77
626.19	2930.35
626.34	2864.82
626.49	2857.79
626.65	3040.36
626.80	2944.39
626.95	2911.63
627.10	3009.93
627.25	2946.73
627.40	3000.57
627.55	2984.18
627.70	2913.97
627.85	2909.29
628.00	2899.92
628.15	2855.45
628.30	2939.71
628.45	2977.16
628.60	2991.20
628.76	2871.84
628.91	2979.50
629.06	3033.33
629.21	2942.05
629.36	2993.55
629.51	2930.35
629.66	2836.73
629.81	2794.60
629.96	2813.32
630.11	2785.24
630.26	2864.82
630.41	2822.69
630.56	2974.82
630.71	3033.33
630.86	2839.07
631.01	2883.54
631.16	2939.71
631.31	2974.82
631.46	2885.88
631.61	2883.54
631.76	2942.05
631.91	2883.54
632.06	2818.00
632.21	2803.96
632.36	2778.22
632.51	2839.07
632.66	2832.05
632.81	2775.88
632.96	2810.98
633.10	2843.75
633.25	2867.16
633.40	2878.86
633.55	2813.32
633.70	2668.21
633.85	2722.04
634.00	2876.52
634.15	2761.83
634.30	2869.50
634.45	2888.22
634.60	2855.45
634.75	2822.69
634.90	2724.38
635.05	2698.64
635.19	2752.47
635.34	2848.43
635.49	2693.96
635.64	2792.26
635.79	2693.96
635.94	2715.02
636.09	2846.09
636.24	2843.75
636.39	2904.60
636.53	2818.00
636.68	2766.51
636.83	2775.88
636.98	2750.13
637.13	2574.59
637.28	2693.96
637.43	2813.32
637.57	2729.06
637.72	2815.66
637.87	2677.57
638.02	2787.58
638.17	2897.58
638.32	2853.11
638.46	2789.92
638.61	2789.92
638.76	2698.64
638.91	2829.71
639.06	2682.25
639.20	2825.03
639.35	2799.28
639.50	2665.87
639.65	2794.60
639.80	2743.11
639.94	2745.45
640.09	2822.69
640.24	2750.13
640.39	2773.53
640.54	2883.54
640.68	2703.32
640.83	2747.79
640.98	2668.21
641.13	2656.51
641.27	2736.09
641.42	2710.34
641.57	2818.00
641.72	2832.05
641.86	2698.64
642.01	2754.81
642.16	2705.66
642.31	2651.83
642.45	2658.85
642.60	2628.42
642.75	2562.89
642.90	2773.53
643.04	2668.21
643.19	2729.06
643.34	2651.83
643.48	2670.55
643.63	2689.28
643.78	2810.98
643.93	2722.04
644.07	2651.83
644.22	2799.28
644.37	2705.66
644.51	2780.56
644.66	2726.72
644.81	2724.38
644.95	2766.51
645.10	2722.04
645.25	2689.28
645.39	2754.81
645.54	2548.84
645.69	2670.55
645.83	2719.70
645.98	2799.28
646.13	2663.53
646.27	2693.96
646.42	2626.08
646.57	2754.81
646.71	2712.68
646.86	2703.32
647.00	2576.93
647.15	2609.70
647.30	2642.46
647.44	2574.59
647.59	2621.40
647.74	2546.50
647.88	2705.66
648.03	2719.70
648.17	2754.81
648.32	2581.61
648.47	2712.68
648.61	2703.32
648.76	2614.38
648.90	2689.28
649.05	2626.08
649.20	2675.23
649.34	2682.25
649.49	2572.25
649.63	2642.46
649.78	2504.37
649.92	2736.09
650.07	2698.64
650.21	2644.81
650.36	2677.57
650.51	2623.74
650.65	2836.73
650.80	2644.81
650.94	2656.51
651.09	2689.28
651.23	2583.95
651.38	2532.46
651.52	2525.44
651.67	2553.52
651.81	2581.61
651.96	2602.68
652.10	2715.02
652.25	2567.57
652.39	2630.76
652.54	2572.25
652.68	2658.85
652.83	2700.98
652.97	2693.96
653.12	2609.70
653.26	2520.76
653.41	2677.57
653.55	2663.53
653.70	2513.74
653.84	2595.65
653.99	2588.63
654.13	2576.93
654.27	2583.95
654.42	2537.14
654.56	2605.02
654.71	2626.08
654.85	2586.29
655.00	2614.38
655.14	2623.74
655.29	2452.88
655.43	2609.70
655.57	2565.23
655.72	2544.16
655.86	2565.23
656.01	2534.80
656.15	2375.64
656.30	2649.49
656.44	2532.46
656.58	2544.16
656.73	2583.95
656.87	2396.71
657.01	2586.29
657.16	2511.39
657.30	2670.55
657.45	2537.14
657.59	2574.59
657.73	2607.36
657.88	2544.16
658.02	2602.68
658.16	2448.20
658.31	2471.61
658.45	2478.63
658.60	2485.65
658.74	2630.76
658.88	2450.54
659.03	2593.31
659.17	2385.01
659.31	2455.22
659.46	2499.69
659.60	2448.20
659.74	2361.60
659.89	2551.18
660.03	2487.99
660.17	2485.65
660.32	2434.16
660.46	2541.82
660.60	2434.16
660.74	2520.76
660.89	2464.58
661.03	2389.69
661.17	2424.80
661.32	2553.52
661.46	2443.52
661.60	2492.67
661.74	2544.16
661.89	2502.03
662.03	2445.86
662.17	2558.21
662.31	2377.98
662.46	2513.74
662.60	2429.48
662.74	2487.99
662.88	2424.80
663.03	2370.96
663.17	2345.22
663.31	2459.90
663.45	2387.35
663.60	2352.24
663.74	2431.82
663.88	2345.22
664.02	2420.11
664.17	2424.80
664.31	2408.41
664.45	2469.27
664.59	2368.62
664.73	2448.20
664.88	2375.64
665.02	2293.72
665.16	2377.98
665.30	2431.82
665.44	2370.96
665.59	2450.54
665.73	2345.22
665.87	2340.54
666.01	2377.98
666.15	2415.43
666.29	2396.71
666.44	2347.56
666.58	2373.30
666.72	2251.60
666.86	2267.98
667.00	2307.77
667.14	2413.09
667.28	2333.51
667.43	2363.94
667.57	2270.32
667.71	2333.51
667.85	2413.09
667.99	2328.83
668.13	2359.26
668.27	2272.66
668.41	2399.05
668.56	2317.13
668.70	2368.62
668.84	2338.20
668.98	2218.83
669.12	2237.55
669.26	2317.13
669.40	2382.67
669.54	2291.38
669.68	2338.20
669.82	2293.72
669.96	2216.49
670.10	2328.83
670.25	2253.94
670.39	2267.98
670.53	2176.70
670.67	2200.10
670.81	2258.62
670.95	2291.38
671.09	2300.75
671.23	2181.38
671.37	2230.53
671.51	2258.62
671.65	2214.15
671.79	2270.32
671.93	2183.72
672.07	2275.00
672.21	2204.78
672.35	2214.15
672.49	2120.53
672.63	2230.53
672.77	2176.70
672.91	2174.36
673.05	2256.28
673.19	2153.29
673.33	2106.48
673.47	2244.57
673.61	2165.00
673.75	2120.53
673.89	2169.68
674.03	2139.25
674.17	2111.16
674.31	2024.56
674.45	1982.43
674.59	2165.00
674.73	2083.08
674.87	2132.23
675.01	2122.87
675.15	2104.14
675.29	2115.84
675.43	2073.71
675.56	2186.06
675.70	2223.51
675.84	2221.17
675.98	1989.46
676.12	2017.54
676.26	2017.54
676.40	2038.61
676.54	2146.27
676.68	2090.10
676.82	2019.88
676.96	1998.82
677.10	2094.78
677.23	2073.71
677.37	2059.67
677.51	2129.89
677.65	2080.74
677.79	1963.71
677.93	2080.74
678.07	1947.33
678.21	2001.16
678.34	1980.09
678.48	2005.84
678.62	2054.99
678.76	1902.86
678.90	1947.33
679.04	1956.69
679.18	2047.97
679.31	1963.71
679.45	1884.13
679.59	1879.45
679.73	1905.20
679.87	1813.92
680.00	1858.39
680.14	1942.64
680.28	1952.01
680.42	1853.70
680.56	1968.39
680.70	1877.11
680.83	1954.35
680.97	1839.66
681.11	2073.71
681.25	1975.41
681.39	1919.24
681.52	1954.35
681.66	1886.47
681.80	1895.83
681.94	1788.17
682.07	1851.36
682.21	1820.94
682.35	1907.54
682.49	1755.40
682.62	1870.09
682.76	1825.62
682.90	1717.95
683.04	1849.02
683.17	1860.73
683.31	1781.15
683.45	1746.04
683.59	1799.87
683.72	1776.47
683.86	1820.94
684.00	1739.02
684.13	1776.47
684.27	1781.15
684.41	1739.02
684.55	1694.55
684.68	1743.70
684.82	1797.53
684.96	1724.97
685.09	1764.76
685.23	1713.27
685.37	1610.29
685.50	1739.02
685.64	1769.44
685.78	1720.29
685.91	1638.38
686.05	1633.69
686.19	1666.46
686.32	1771.79
686.46	1687.53
686.60	1694.55
686.73	1673.48
686.87	1706.25
687.01	1664.12
687.14	1621.99
687.28	1633.69
687.42	1652.42
687.55	1577.52
687.69	1629.01
687.82	1624.33
687.96	1692.21
688.10	1643.06
688.23	1645.40
688.37	1612.63
688.50	1511.99
688.64	1664.12
688.78	1528.37
688.91	1668.80
689.05	1542.41
689.18	1448.79
689.32	1671.14
689.46	1586.88
689.59	1458.15
689.73	1600.93
689.86	1589.22
690.00	1579.86
690.13	1547.09
690.27	1540.07
690.41	1572.84
690.54	1528.37
690.68	1540.07
690.81	1472.20
690.95	1432.41
691.08	1554.12
691.22	1479.22
691.35	1497.94
691.49	1455.81
691.62	1521.35
691.76	1413.68
691.89	1504.96
692.03	1423.05
692.16	1441.77
692.30	1483.90
692.43	1481.56
692.57	1427.73
692.70	1434.75
692.84	1439.43
692.97	1448.79
693.11	1467.52
693.24	1483.90
693.38	1364.53
693.51	1434.75
693.65	1430.07
693.78	1336.45
693.92	1357.51
694.05	1371.55
694.19	1502.62
694.32	1455.81
694.45	1416.02
694.59	1453.47
694.72	1359.85
694.86	1306.02
694.99	1406.66
695.13	1338.79
695.26	1343.47
695.39	1277.93
695.53	1413.68
695.66	1406.66
695.80	1376.24
695.93	1331.76
696.07	1228.78
696.20	1341.13
696.33	1364.53
696.47	1317.72
696.60	1261.55
696.73	1324.74
696.87	1296.66
697.00	1320.06
697.14	1210.06
697.27	1301.34
697.40	1355.17
697.54	1231.12
697.67	1348.15
697.80	1184.31
697.94	1327.08
698.07	1247.51
698.21	1214.74
698.34	1270.91
698.47	1231.12
698.61	1191.33
698.74	1142.18
698.87	1270.91
699.01	1245.16
699.14	1252.19
699.27	1280.27
699.40	1268.57
699.54	1242.82
699.67	1146.86
699.80	1111.75
699.94	1163.25
700.07	1100.05
700.20	1135.16
700.34	1226.44
700.47	1109.41
700.60	1177.29
700.73	1181.97
700.87	1165.59
701.00	1153.88
701.13	1205.38
701.26	1177.29
701.40	1100.05
701.53	1095.37
701.66	1163.25
701.79	1181.97
701.93	1167.93
702.06	1121.12
702.19	1041.54
702.32	1055.58
702.46	1153.88
702.59	1029.84
702.72	1067.28
702.85	1151.54
702.99	1043.88
703.12	1078.99
703.25	1064.94
703.38	1060.26
703.51	1039.20
703.65	1034.52
703.78	1041.54
703.91	1118.78
704.04	1067.28
704.17	1123.46
704.31	997.07
704.44	987.71
704.57	1011.11
704.70	1041.54
704.83	1025.15
704.96	997.07
705.10	887.06
705.23	1008.77
>>>>>End Processed Spectral Data<<<<<
