SpectraSuite Data File
++++++++++++++++++++++++++++++++++++
Date: Fri Oct 04 11:39:49 GMT-05:00 2013
User: price-jones
Dark Spectrum Present: No
Reference Spectrum Present: No
Number of Sampled Component Spectra: 1
Spectrometers: USB2+H05261
Integration Time (usec): 100000 (USB2+H05261)
Spectra Averaged: 1 (USB2+H05261)
Boxcar Smoothing: 0 (USB2+H05261)
Correct for Electrical Dark: No (USB2+H05261)
Strobe/Lamp Enabled: No (USB2+H05261)
Correct for Detector Non-linearity: No (USB2+H05261)
Correct for Stray Light: No (USB2+H05261)
Number of Pixels in Processed Spectrum: 2048
>>>>>Begin Processed Spectral Data<<<<<
365.73	119.37
365.92	119.37
366.12	119.37
366.32	0.00
366.52	0.00
366.72	0.00
366.91	0.00
367.11	0.00
367.31	0.00
367.51	0.00
367.70	0.00
367.90	0.00
368.10	0.00
368.30	0.00
368.49	0.00
368.69	0.00
368.89	0.00
369.09	0.00
369.28	0.00
369.48	0.00
369.68	95.96
369.87	0.00
370.07	0.00
370.27	16.38
370.47	49.15
370.66	16.38
370.86	105.32
371.06	196.60
371.25	119.37
371.45	135.75
371.65	147.45
371.84	124.05
372.04	67.88
372.24	107.66
372.44	224.69
372.63	100.64
372.83	163.84
373.03	60.85
373.22	100.64
373.42	117.03
373.62	142.77
373.81	170.86
374.01	166.18
374.21	187.24
374.40	224.69
374.60	180.22
374.79	187.24
374.99	135.75
375.19	124.05
375.38	175.54
375.58	198.95
375.78	205.97
375.97	152.13
376.17	231.71
376.37	163.84
376.56	189.58
376.76	93.62
376.95	142.77
377.15	110.01
377.35	234.05
377.54	140.43
377.74	170.86
377.93	145.11
378.13	149.79
378.33	227.03
378.52	196.60
378.72	173.20
378.91	170.86
379.11	152.13
379.31	131.07
379.50	187.24
379.70	208.31
379.89	205.97
380.09	182.56
380.28	133.41
380.48	182.56
380.68	173.20
380.87	152.13
381.07	159.16
381.26	208.31
381.46	201.29
381.65	189.58
381.85	121.71
382.04	74.90
382.24	138.09
382.43	170.86
382.63	163.84
382.83	159.16
383.02	259.80
383.22	187.24
383.41	173.20
383.61	154.48
383.80	135.75
384.00	222.35
384.19	215.33
384.39	170.86
384.58	124.05
384.78	191.92
384.97	170.86
385.17	152.13
385.36	203.63
385.56	196.60
385.75	159.16
385.95	156.82
386.14	173.20
386.34	191.92
386.53	201.29
386.72	163.84
386.92	236.39
387.11	147.45
387.31	220.01
387.50	243.42
387.70	168.52
387.89	184.90
388.09	107.66
388.28	100.64
388.48	107.66
388.67	217.67
388.86	201.29
389.06	180.22
389.25	196.60
389.45	194.26
389.64	138.09
389.84	175.54
390.03	212.99
390.22	290.23
390.42	117.03
390.61	196.60
390.81	229.37
391.00	159.16
391.19	264.48
391.39	189.58
391.58	243.42
391.78	205.97
391.97	184.90
392.16	196.60
392.36	250.44
392.55	159.16
392.75	220.01
392.94	205.97
393.13	231.71
393.33	252.78
393.52	173.20
393.71	220.01
393.91	212.99
394.10	133.41
394.29	257.46
394.49	215.33
394.68	229.37
394.88	187.24
395.07	236.39
395.26	196.60
395.46	238.73
395.65	292.57
395.84	271.50
396.04	234.05
396.23	205.97
396.42	203.63
396.62	320.65
396.81	241.08
397.00	231.71
397.19	220.01
397.39	117.03
397.58	266.82
397.77	234.05
397.97	161.50
398.16	224.69
398.35	234.05
398.55	257.46
398.74	276.18
398.93	264.48
399.12	243.42
399.32	287.89
399.51	252.78
399.70	201.29
399.90	283.20
400.09	241.08
400.28	290.23
400.47	229.37
400.67	320.65
400.86	306.61
401.05	313.63
401.24	294.91
401.44	313.63
401.63	255.12
401.82	313.63
402.01	245.76
402.21	308.95
402.40	252.78
402.59	241.08
402.78	222.35
402.97	292.57
403.17	252.78
403.36	341.72
403.55	322.99
403.74	322.99
403.93	341.72
404.13	383.85
404.32	297.25
404.51	367.46
404.70	418.96
404.89	337.04
405.09	395.55
405.28	304.27
405.47	327.68
405.66	276.18
405.85	376.83
406.05	341.72
406.24	320.65
406.43	372.15
406.62	344.06
406.81	437.68
407.00	330.02
407.20	360.44
407.39	330.02
407.58	339.38
407.77	407.25
407.96	430.66
408.15	414.27
408.34	400.23
408.54	390.87
408.73	388.53
408.92	442.36
409.11	390.87
409.30	461.09
409.49	400.23
409.68	433.00
409.87	383.85
410.07	383.85
410.26	379.17
410.45	435.34
410.64	367.46
410.83	444.70
411.02	395.55
411.21	433.00
411.40	465.77
411.59	475.13
411.78	374.49
411.98	418.96
412.17	372.15
412.36	510.24
412.55	496.19
412.74	418.96
412.93	552.37
413.12	512.58
413.31	517.26
413.50	461.09
413.69	554.71
413.88	552.37
414.07	374.49
414.26	477.47
414.45	510.24
414.64	517.26
414.83	592.16
415.02	472.79
415.22	603.86
415.41	568.75
415.60	449.38
415.79	538.32
415.98	603.86
416.17	575.77
416.36	531.30
416.55	503.22
416.74	491.51
416.93	671.73
417.12	568.75
417.31	571.09
417.50	585.13
417.69	629.60
417.88	620.24
418.07	564.07
418.26	645.99
418.45	585.13
418.64	641.31
418.83	559.39
419.02	587.47
419.21	615.56
419.39	702.16
419.58	543.00
419.77	678.76
419.96	695.14
420.15	653.01
420.34	557.05
420.53	634.29
420.72	697.48
420.91	667.05
421.10	664.71
421.29	622.58
421.48	723.23
421.67	695.14
421.86	655.35
422.05	732.59
422.24	592.16
422.43	765.36
422.61	711.52
422.80	655.35
422.99	627.26
423.18	627.26
423.37	709.18
423.56	737.27
423.75	777.06
423.94	671.73
424.13	683.44
424.32	636.63
424.50	624.92
424.69	718.54
424.88	723.23
425.07	706.84
425.26	706.84
425.45	767.70
425.64	730.25
425.83	720.88
426.01	732.59
426.20	746.63
426.39	734.93
426.58	725.57
426.77	709.18
426.96	774.72
427.15	770.04
427.33	706.84
427.52	695.14
427.71	709.18
427.90	720.88
428.09	706.84
428.28	758.33
428.46	774.72
428.65	704.50
428.84	828.55
429.03	777.06
429.22	697.48
429.40	805.14
429.59	732.59
429.78	837.91
429.97	777.06
430.16	777.06
430.34	760.67
430.53	755.99
430.72	741.95
430.91	741.95
431.10	737.27
431.28	798.12
431.47	830.89
431.66	840.25
431.85	802.80
432.03	812.17
432.22	873.02
432.41	875.36
432.60	807.48
432.79	704.50
432.97	760.67
433.16	795.78
433.35	875.36
433.54	842.59
433.72	835.57
433.91	798.12
434.10	936.21
434.28	800.46
434.47	887.06
434.66	938.55
434.85	842.59
435.03	896.43
435.22	1081.33
435.41	1261.55
435.59	1191.33
435.78	1041.54
435.97	976.00
436.16	915.15
436.34	880.04
436.53	894.08
436.72	912.81
436.90	922.17
437.09	978.34
437.28	814.51
437.46	933.87
437.65	901.11
437.84	903.45
438.02	873.02
438.21	896.43
438.40	880.04
438.58	929.19
438.77	912.81
438.96	961.96
439.14	959.62
439.33	992.39
439.52	966.64
439.70	950.26
439.89	931.53
440.08	952.60
440.26	983.02
440.45	1027.50
440.63	976.00
440.82	1081.33
441.01	1011.11
441.19	945.58
441.38	1036.86
441.57	952.60
441.75	1074.31
441.94	1144.52
442.12	1078.99
442.31	1041.54
442.50	1064.94
442.68	1076.65
442.87	978.34
443.05	1025.15
443.24	1107.07
443.43	1128.14
443.61	1165.59
443.80	1060.26
443.98	1064.94
444.17	1011.11
444.35	1128.14
444.54	1081.33
444.73	1041.54
444.91	1123.46
445.10	1123.46
445.28	1146.86
445.47	1076.65
445.65	1036.86
445.84	1100.05
446.02	1064.94
446.21	1053.24
446.39	1039.20
446.58	1167.93
446.77	1107.07
446.95	1064.94
447.14	1095.37
447.32	1177.29
447.51	1086.01
447.69	1128.14
447.88	1130.48
448.06	1193.67
448.25	1043.88
448.43	1088.35
448.62	1095.37
448.80	1146.86
448.99	1167.93
449.17	1107.07
449.36	1165.59
449.54	1205.38
449.73	1170.27
449.91	1102.39
450.10	1114.10
450.28	1172.61
450.46	1226.44
450.65	1135.16
450.83	1142.18
451.02	1296.66
451.20	1132.82
451.39	1207.72
451.57	1163.25
451.76	1188.99
451.94	1153.88
452.13	1277.93
452.31	1196.01
452.49	1289.64
452.68	1184.31
452.86	1287.29
453.05	1174.95
453.23	1205.38
453.42	1181.97
453.60	1135.16
453.78	1214.74
453.97	1231.12
454.15	1107.07
454.34	1181.97
454.52	1170.27
454.70	1219.42
454.89	1338.79
455.07	1224.10
455.26	1252.19
455.44	1240.48
455.62	1184.31
455.81	1334.11
455.99	1259.21
456.17	1275.59
456.36	1266.23
456.54	1254.53
456.73	1352.83
456.91	1184.31
457.09	1481.56
457.28	1380.92
457.46	1392.62
457.64	1378.58
457.83	1331.76
458.01	1315.38
458.19	1266.23
458.38	1423.05
458.56	1437.09
458.74	1331.76
458.93	1287.29
459.11	1343.47
459.29	1378.58
459.48	1373.89
459.66	1418.36
459.84	1315.38
460.03	1472.20
460.21	1448.79
460.39	1362.19
460.57	1369.21
460.76	1483.90
460.94	1483.90
461.12	1394.96
461.31	1497.94
461.49	1416.02
461.67	1320.06
461.85	1448.79
462.04	1451.13
462.22	1806.89
462.40	1476.88
462.59	1453.47
462.77	1462.83
462.95	1439.43
463.13	1469.86
463.32	1420.71
463.50	1556.46
463.68	1462.83
463.86	1399.64
464.05	1458.15
464.23	1409.00
464.41	1544.75
464.59	1392.62
464.78	1439.43
464.96	1500.28
465.14	1507.30
465.32	1526.03
465.50	1514.33
465.69	1430.07
465.87	1420.71
466.05	1446.45
466.23	1432.41
466.41	1514.33
466.60	1593.90
466.78	1519.01
466.96	1549.43
467.14	1486.24
467.32	1556.46
467.51	1537.73
467.69	1462.83
467.87	1537.73
468.05	1607.95
468.23	1511.99
468.41	1600.93
468.60	1488.58
468.78	1551.78
468.96	1502.62
469.14	1589.22
469.32	1528.37
469.50	1511.99
469.69	1591.56
469.87	1636.03
470.05	1586.88
470.23	1586.88
470.41	1713.27
470.59	1614.97
470.77	1619.65
470.95	1650.08
471.14	1741.36
471.32	1521.35
471.50	1757.74
471.68	1575.18
471.86	1680.50
472.04	1696.89
472.22	1706.25
472.40	1664.12
472.58	1654.76
472.77	1781.15
472.95	1757.74
473.13	1722.63
473.31	1673.48
473.49	1638.38
473.67	1626.67
473.85	1689.87
474.03	1785.83
474.21	1764.76
474.39	1846.68
474.57	1771.79
474.75	1769.44
474.93	1884.13
475.12	1727.32
475.30	1940.30
475.48	1851.36
475.66	1732.00
475.84	1830.30
476.02	1797.53
476.20	1774.13
476.38	1982.43
476.56	1921.58
476.74	1865.41
476.92	1905.20
477.10	1961.37
477.28	1858.39
477.46	1982.43
477.64	1916.90
477.82	1881.79
478.00	1966.05
478.18	1947.33
478.36	1919.24
478.54	1984.77
478.72	2136.91
478.90	2146.27
479.08	2017.54
479.26	2043.29
479.44	2113.50
479.62	2029.24
479.80	2179.04
479.98	2272.66
480.16	2052.65
480.34	2132.23
480.52	2104.14
480.70	2190.74
480.88	2211.81
481.06	2204.78
481.24	2132.23
481.41	2291.38
481.59	2181.38
481.77	2312.45
481.95	2359.26
482.13	2509.05
482.31	2324.15
482.49	2305.43
482.67	2354.58
482.85	2462.24
483.03	2492.67
483.21	2422.45
483.39	2347.56
483.57	2333.51
483.74	2448.20
483.92	2420.11
484.10	2525.44
484.28	2471.61
484.46	2541.82
484.64	2567.57
484.82	2513.74
485.00	2588.63
485.18	2576.93
485.35	2766.51
485.53	2541.82
485.71	2672.89
485.89	2698.64
486.07	2712.68
486.25	2864.82
486.43	2754.81
486.61	2799.28
486.78	2752.47
486.96	2801.62
487.14	2864.82
487.32	2925.67
487.50	2902.26
487.68	2876.52
487.85	2869.50
488.03	3063.76
488.21	3033.33
488.39	3000.57
488.57	2951.42
488.75	2944.39
488.92	3234.62
489.10	2913.97
489.28	3089.51
489.46	3143.34
489.64	3112.91
489.81	3110.57
489.99	3141.00
490.17	3049.72
490.35	3187.81
490.53	3155.04
490.70	3183.13
490.88	3246.32
491.06	3096.53
491.24	3089.51
491.41	3276.75
491.59	3276.75
491.77	3229.94
491.95	3236.96
492.13	3353.99
492.30	3222.92
492.48	3353.99
492.66	3372.71
492.84	3419.52
493.01	3522.51
493.19	3389.10
493.37	3485.06
493.54	3463.99
493.72	3487.40
493.90	3609.11
494.08	3559.95
494.25	3574.00
494.43	3592.72
494.61	3651.24
494.79	3646.55
494.96	3588.04
495.14	3616.13
495.32	3684.00
495.49	3686.34
495.67	3765.92
495.85	3658.26
496.02	3665.28
496.20	3859.54
496.38	3735.50
496.55	3777.62
496.73	3889.97
496.91	3836.14
497.09	3843.16
497.26	3901.67
497.44	4009.34
497.62	4004.66
497.79	3871.25
497.97	3854.86
498.14	3976.57
498.32	3946.14
498.50	4187.22
498.67	3943.80
498.85	3995.29
499.03	3946.14
499.20	4098.28
499.38	3955.51
499.56	3824.44
499.73	4095.94
499.91	4095.94
500.08	4063.17
500.26	4121.68
500.44	4014.02
500.61	4074.87
500.79	4227.01
500.97	4170.83
501.14	4278.50
501.32	4224.67
501.49	4175.52
501.67	4126.36
501.84	4212.96
502.02	4212.96
502.20	4299.56
502.37	4353.40
502.55	4234.03
502.72	4236.37
502.90	4362.76
503.07	4362.76
503.25	4283.18
503.43	4388.50
503.60	4304.25
503.78	4503.19
503.95	4447.02
504.13	4414.25
504.30	4456.38
504.48	4383.82
504.65	4489.15
504.83	4404.89
505.01	4437.66
505.18	4337.01
505.36	4489.15
505.53	4423.61
505.71	4615.54
505.88	4606.17
506.06	4479.79
506.23	4690.43
506.41	4493.83
506.58	4629.58
506.76	4629.58
506.93	4650.64
507.11	4468.08
507.28	4744.27
507.46	4540.64
507.63	4685.75
507.81	4711.50
507.98	4622.56
508.16	4566.39
508.33	4674.05
508.50	4739.58
508.68	4727.88
508.85	4667.03
509.03	4823.84
509.20	4690.43
509.38	4751.29
509.55	4777.03
509.73	4898.74
509.90	4762.99
510.08	4924.49
510.25	4873.00
510.42	4926.83
510.60	4695.11
510.77	4975.98
510.95	4933.85
511.12	4973.64
511.30	4854.27
511.47	4985.34
511.64	5043.85
511.82	4990.02
511.99	4943.21
512.17	5006.41
512.34	4896.40
512.51	5006.41
512.69	4940.87
512.86	4973.64
513.04	5090.67
513.21	4985.34
513.38	5238.12
513.56	5071.94
513.73	5130.45
513.90	5186.63
514.08	5142.16
514.25	5144.50
514.43	5114.07
514.60	5149.18
514.77	5095.35
514.95	5203.01
515.12	5226.42
515.29	5266.21
515.47	5259.18
515.64	5184.29
515.81	5163.22
515.99	5139.82
516.16	5366.85
516.33	5205.35
516.51	5238.12
516.68	5310.68
516.85	5270.89
517.03	5277.91
517.20	5334.08
517.37	5336.42
517.54	5359.83
517.72	5373.87
517.89	5203.01
518.06	5177.26
518.24	5434.72
518.41	5305.99
518.58	5376.21
518.75	5219.39
518.93	5383.23
519.10	5401.96
519.27	5322.38
519.45	5654.73
519.62	5481.53
519.79	5495.58
519.96	5303.65
520.14	5596.22
520.31	5455.79
520.48	5521.32
520.65	5565.79
520.83	5575.16
521.00	5558.77
521.17	5685.16
521.34	5638.35
521.52	5561.11
521.69	5645.37
521.86	5561.11
522.03	5659.42
522.20	5657.07
522.38	5589.20
522.55	5598.56
522.72	5392.59
522.89	5755.38
523.07	5631.33
523.24	5701.54
523.41	5701.54
523.58	5699.20
523.75	5689.84
523.92	5865.38
524.10	5774.10
524.27	5628.99
524.44	5846.66
524.61	5860.70
524.78	5853.68
524.96	5748.36
525.13	5783.46
525.30	5980.07
525.47	5783.46
525.64	5717.93
525.81	5788.14
525.98	5865.38
526.16	5881.77
526.33	5776.44
526.50	5870.06
526.67	5863.04
526.84	5858.36
527.01	5776.44
527.18	5891.13
527.36	5823.25
527.53	5923.90
527.70	6029.22
527.87	6001.13
528.04	5839.64
528.21	5914.53
528.38	5991.77
528.55	5989.43
528.72	6043.26
528.89	6015.18
529.07	5994.11
529.24	5898.15
529.41	6148.59
529.58	5954.32
529.75	6038.58
529.92	6085.39
530.09	6160.29
530.26	6085.39
530.43	6108.80
530.60	6019.86
530.77	6167.31
530.94	6120.50
531.11	5991.77
531.28	6115.82
531.46	6118.16
531.63	6134.54
531.80	6256.25
531.97	6190.72
532.14	6083.05
532.31	6141.57
532.48	6132.20
532.65	6228.17
532.82	6249.23
532.99	6090.07
533.16	6263.27
533.33	6157.95
533.50	6202.42
533.67	6282.00
533.84	6141.57
534.01	6340.51
534.18	6108.80
534.35	6235.19
534.52	6251.57
534.69	6277.32
534.86	6310.08
535.03	6380.30
535.20	6349.87
535.37	6335.83
535.54	6380.30
535.71	6113.48
535.88	6312.42
536.05	6382.64
536.22	6162.63
536.38	6408.39
536.55	6438.81
536.72	6382.64
536.89	6270.30
537.06	6354.55
537.23	6424.77
537.40	6436.47
537.57	6244.55
537.74	6331.15
537.91	6462.22
538.08	6345.19
538.25	6457.54
538.42	6511.37
538.59	6490.31
538.75	6602.65
538.92	6396.68
539.09	6396.68
539.26	6422.43
539.43	6609.67
539.60	6586.27
539.77	6434.13
539.94	6434.13
540.11	6410.73
540.28	6604.99
540.44	6572.22
540.61	6541.80
540.78	6761.81
540.95	6913.94
541.12	6799.26
541.29	6871.81
541.46	6904.58
541.62	6974.80
541.79	6923.30
541.96	6775.85
542.13	6619.04
542.30	6946.71
542.47	6974.80
542.63	7005.22
542.80	6939.69
542.97	6965.43
543.14	6871.81
543.31	6977.14
543.48	6920.96
543.64	6988.84
543.81	6899.90
543.98	7005.22
544.15	6862.45
544.32	6658.82
544.48	6918.62
544.65	6925.65
544.82	6869.47
544.99	6787.55
545.16	7007.56
545.32	6876.49
545.49	7417.16
545.66	7578.65
545.83	7728.45
546.00	7576.31
546.16	7295.45
546.33	7213.53
546.50	6944.37
546.67	6974.80
546.83	6981.82
547.00	6761.81
547.17	7030.97
547.34	6960.75
547.50	6909.26
547.67	6862.45
547.84	6810.96
548.00	7009.90
548.17	6951.39
548.34	6988.84
548.51	6846.07
548.67	6939.69
548.84	6991.18
549.01	7045.01
549.18	6853.09
549.34	6780.53
549.51	6991.18
549.68	6953.73
549.84	6836.70
550.01	7021.61
550.18	6897.56
550.34	7023.95
550.51	6939.69
550.68	6984.16
550.84	7002.88
551.01	6820.32
551.18	6792.23
551.34	6918.62
551.51	6869.47
551.68	6754.79
551.84	6888.20
552.01	6815.64
552.18	6967.77
552.34	6902.24
552.51	7056.72
552.68	6857.77
552.84	6923.30
553.01	6993.52
553.18	6918.62
553.34	6862.45
553.51	6892.88
553.67	6977.14
553.84	7169.06
554.01	6885.86
554.17	6944.37
554.34	6825.00
554.51	7122.25
554.67	7026.29
554.84	6939.69
555.00	7091.82
555.17	7040.33
555.33	6785.21
555.50	6911.60
555.67	7030.97
555.83	6925.65
556.00	6916.28
556.16	7070.76
556.33	7052.03
556.50	7080.12
556.66	6918.62
556.83	6888.20
556.99	6892.88
557.16	6864.79
557.32	7014.59
557.49	6993.52
557.65	7019.27
557.82	6860.11
557.98	6935.01
558.15	6949.05
558.32	6904.58
558.48	6935.01
558.65	6958.41
558.81	6942.03
558.98	6998.20
559.14	6752.45
559.31	7155.02
559.47	7258.00
559.64	7117.57
559.80	6885.86
559.97	7019.27
560.13	6902.24
560.30	7023.95
560.46	7030.97
560.63	6984.16
560.79	6890.54
560.96	6986.50
561.12	6920.96
561.29	6958.41
561.45	7091.82
561.61	7040.33
561.78	7164.38
561.94	7040.33
562.11	6953.73
562.27	7082.46
562.44	7005.22
562.60	6981.82
562.77	7070.76
562.93	7068.42
563.10	7255.66
563.26	7119.91
563.42	7145.66
563.59	7089.48
563.75	7192.47
563.92	7052.03
564.08	6913.94
564.24	7066.08
564.41	7052.03
564.57	7023.95
564.74	7063.74
564.90	7016.93
565.07	7152.68
565.23	7124.59
565.39	7068.42
565.56	7056.72
565.72	6974.80
565.88	7094.16
566.05	7016.93
566.21	7056.72
566.38	7169.06
566.54	7035.65
566.70	7110.55
566.87	7045.01
567.03	7068.42
567.19	7140.97
567.36	7007.56
567.52	7002.88
567.68	7063.74
567.85	6991.18
568.01	7063.74
568.17	7166.72
568.34	7108.21
568.50	7094.16
568.66	7033.31
568.83	7150.34
568.99	6946.71
569.15	6960.75
569.32	6984.16
569.48	6974.80
569.64	6991.18
569.81	6993.52
569.97	7110.55
570.13	7232.26
570.30	7115.23
570.46	7056.72
570.62	7218.21
570.78	7145.66
570.95	7108.21
571.11	7014.59
571.27	7000.54
571.43	7070.76
571.60	7019.27
571.76	6958.41
571.92	7007.56
572.09	7075.44
572.25	6935.01
572.41	7211.19
572.57	7028.63
572.74	7157.36
572.90	7101.19
573.06	7094.16
573.22	7108.21
573.38	7016.93
573.55	7218.21
573.71	7241.62
573.87	7129.27
574.03	6977.14
574.20	7068.42
574.36	7016.93
574.52	7110.55
574.68	6967.77
574.84	7227.57
575.01	7066.08
575.17	7019.27
575.33	7148.00
575.49	7330.56
575.65	7126.93
575.82	7119.91
575.98	7143.32
576.14	7105.87
576.30	7171.40
576.46	7220.55
576.62	7201.83
576.79	7368.01
576.95	7208.85
577.11	7140.97
577.27	6986.50
577.43	7236.94
577.59	6993.52
577.75	7204.17
577.92	7005.22
578.08	7068.42
578.24	7115.23
578.40	7169.06
578.56	7265.02
578.72	7138.63
578.88	7356.30
579.04	7400.77
579.21	7122.25
579.37	6956.07
579.53	7173.74
579.69	7178.42
579.85	7052.03
580.01	7255.66
580.17	7239.28
580.33	7192.47
580.49	6972.46
580.65	7112.89
580.82	7201.83
580.98	7197.15
581.14	7005.22
581.30	7040.33
581.46	7016.93
581.62	7136.29
581.78	6960.75
581.94	7136.29
582.10	7143.32
582.26	7061.40
582.42	7183.10
582.58	7145.66
582.74	7246.30
582.90	7253.32
583.06	7183.10
583.22	7246.30
583.38	7213.53
583.54	7045.01
583.70	6946.71
583.86	7173.74
584.02	7105.87
584.18	7222.89
584.34	7225.23
584.50	7159.70
584.66	7005.22
584.82	7187.79
584.98	6967.77
585.14	7246.30
585.30	7059.06
585.46	7377.37
585.62	7066.08
585.78	7220.55
585.94	7192.47
586.10	7138.63
586.26	7318.86
586.42	7328.22
586.58	7016.93
586.74	7105.87
586.90	7026.29
587.06	7262.68
587.22	7108.21
587.38	7131.61
587.54	7204.17
587.70	7119.91
587.86	7318.86
588.02	7229.91
588.18	7176.08
588.34	7119.91
588.49	6927.99
588.65	7129.27
588.81	6902.24
588.97	7007.56
589.13	7091.82
589.29	7133.95
589.45	7229.91
589.61	7145.66
589.77	7190.13
589.93	6986.50
590.08	7248.64
590.24	7091.82
590.40	7178.42
590.56	7152.68
590.72	7211.19
590.88	7148.00
591.04	7143.32
591.20	7185.44
591.35	7183.10
591.51	6995.86
591.67	7145.66
591.83	6970.12
591.99	7281.41
592.15	7199.49
592.31	7208.85
592.46	7176.08
592.62	7096.50
592.78	7169.06
592.94	7091.82
593.10	7250.98
593.26	7087.14
593.41	7152.68
593.57	7124.59
593.73	7339.92
593.89	7162.04
594.05	7101.19
594.20	7040.33
594.36	6899.90
594.52	6869.47
594.68	7204.17
594.84	7084.80
594.99	7286.09
595.15	7054.37
595.31	7122.25
595.47	7213.53
595.62	7136.29
595.78	6951.39
595.94	7148.00
596.10	7140.97
596.25	6942.03
596.41	7157.36
596.57	7087.14
596.73	7187.79
596.88	6995.86
597.04	7108.21
597.20	7063.74
597.36	7222.89
597.51	7143.32
597.67	6974.80
597.83	7112.89
597.99	7176.08
598.14	7063.74
598.30	7353.96
598.46	7173.74
598.61	6965.43
598.77	7176.08
598.93	7335.24
599.09	7077.78
599.24	7262.68
599.40	7213.53
599.56	7243.96
599.71	7229.91
599.87	7159.70
600.03	7136.29
600.18	7019.27
600.34	7101.19
600.50	7169.06
600.65	7185.44
600.81	7066.08
600.97	6937.35
601.12	7431.20
601.28	7215.87
601.44	7005.22
601.59	7007.56
601.75	7131.61
601.91	7101.19
602.06	7283.75
602.22	7119.91
602.37	6998.20
602.53	7007.56
602.69	7016.93
602.84	7138.63
603.00	7157.36
603.16	7119.91
603.31	7054.37
603.47	7115.23
603.62	7014.59
603.78	6902.24
603.94	7176.08
604.09	6895.22
604.25	6925.65
604.40	7056.72
604.56	7047.35
604.71	7000.54
604.87	7061.40
605.03	7082.46
605.18	7054.37
605.34	6885.86
605.49	7077.78
605.65	6988.84
605.80	6930.33
605.96	7052.03
606.12	7016.93
606.27	7007.56
606.43	6986.50
606.58	7056.72
606.74	6946.71
606.89	7080.12
607.05	7234.60
607.20	6967.77
607.36	7091.82
607.51	6991.18
607.67	6986.50
607.82	6757.13
607.98	7194.81
608.13	6988.84
608.29	6963.09
608.44	7066.08
608.60	7066.08
608.75	6946.71
608.91	7052.03
609.06	7007.56
609.22	7023.95
609.37	6963.09
609.53	6869.47
609.68	7133.95
609.84	7005.22
609.99	7056.72
610.15	7157.36
610.30	7103.53
610.46	7297.79
610.61	7372.69
610.76	7695.68
610.92	7789.30
611.07	7765.90
611.23	7686.32
611.38	7658.23
611.54	7571.63
611.69	7529.50
611.84	7250.98
612.00	7227.57
612.15	7386.73
612.31	7295.45
612.46	7194.81
612.62	7108.21
612.77	7145.66
612.92	7164.38
613.08	6977.14
613.23	7091.82
613.39	7227.57
613.54	7084.80
613.69	6974.80
613.85	6899.90
614.00	7129.27
614.15	7009.90
614.31	7157.36
614.46	7054.37
614.62	6911.60
614.77	7124.59
614.92	7016.93
615.08	6944.37
615.23	6942.03
615.38	6916.28
615.54	6792.23
615.69	6899.90
615.84	6923.30
616.00	6949.05
616.15	6588.61
616.30	6689.25
616.46	6836.70
616.61	6890.54
616.76	6906.92
616.92	6810.96
617.07	6927.99
617.22	6703.29
617.37	6689.25
617.53	6743.08
617.68	6754.79
617.83	6766.49
617.99	6710.32
618.14	6876.49
618.29	6782.87
618.45	6752.45
618.60	6736.06
618.75	6766.49
618.90	6782.87
619.06	6555.84
619.21	6768.83
619.36	6932.67
619.51	6523.07
619.67	6490.31
619.82	6785.21
619.97	6700.95
620.12	6616.69
620.28	6834.36
620.43	6775.85
620.58	6729.04
620.73	6883.52
620.89	6918.62
621.04	6761.81
621.19	6696.27
621.34	6740.74
621.49	6506.69
621.65	6532.44
621.80	6567.54
621.95	6642.44
622.10	6679.89
622.25	6696.27
622.41	6712.66
622.56	6649.46
622.71	6712.66
622.86	6590.95
623.01	6773.51
623.16	6546.48
623.32	6448.18
623.47	6686.91
623.62	6789.89
623.77	6590.95
623.92	6766.49
624.07	6623.72
624.23	6473.92
624.38	6654.14
624.53	6452.86
624.68	6607.33
624.83	6562.86
624.98	6670.53
625.13	6527.75
625.29	6583.93
625.44	6506.69
625.59	6448.18
625.74	6487.96
625.89	6604.99
626.04	6389.66
626.19	6487.96
626.34	6539.46
626.49	6457.54
626.65	6413.07
626.80	6546.48
626.95	6455.20
627.10	6490.31
627.25	6427.11
627.40	6626.06
627.55	6516.05
627.70	6588.61
627.85	6530.09
628.00	6368.60
628.15	6604.99
628.30	6415.41
628.45	6387.32
628.60	6637.76
628.76	6366.26
628.91	6457.54
629.06	6342.85
629.21	6424.77
629.36	6452.86
629.51	6417.75
629.66	6539.46
629.81	6305.40
629.96	6492.65
630.11	6387.32
630.26	6249.23
630.41	6396.68
630.56	6300.72
630.71	6232.85
630.86	6370.94
631.01	6441.15
631.16	6565.20
631.31	6387.32
631.46	6368.60
631.61	6228.17
631.76	6363.92
631.91	6225.82
632.06	6401.37
632.21	6319.45
632.36	6342.85
632.51	6249.23
632.66	6246.89
632.81	6244.55
632.96	6286.68
633.10	6197.74
633.25	6239.87
633.40	6108.80
633.55	6340.51
633.70	6190.72
633.85	6164.97
634.00	6312.42
634.15	6209.44
634.30	6399.02
634.45	6237.53
634.60	6223.48
634.75	6174.33
634.90	6101.78
635.05	6244.55
635.19	6209.44
635.34	6223.48
635.49	6179.01
635.64	6122.84
635.79	6202.42
635.94	6225.82
636.09	6249.23
636.24	6181.35
636.39	6150.93
636.53	6118.16
636.68	6242.21
636.83	6214.12
636.98	6314.77
637.13	6218.80
637.28	6237.53
637.43	6160.29
637.57	6169.65
637.72	6073.69
637.87	6242.21
638.02	6193.06
638.17	6216.46
638.32	6120.50
638.46	6183.70
638.61	5881.77
638.76	5991.77
638.91	6143.91
639.06	6054.97
639.20	6296.04
639.35	6167.31
639.50	6099.44
639.65	6251.57
639.80	6104.12
639.94	5930.92
640.09	6106.46
640.24	6141.57
640.39	5947.30
640.54	5923.90
640.68	6031.56
640.83	6078.37
640.98	6026.88
641.13	6017.52
641.27	5956.66
641.42	6005.81
641.57	6017.52
641.72	6012.84
641.86	5975.39
642.01	5893.47
642.16	6045.60
642.31	6087.73
642.45	6045.60
642.60	5846.66
642.75	6083.05
642.90	5912.19
643.04	6017.52
643.19	5877.09
643.34	5935.60
643.48	6052.63
643.63	5837.30
643.78	5762.40
643.93	5916.87
644.07	6043.26
644.22	5980.07
644.37	5804.53
644.51	5851.34
644.66	5919.21
644.81	5891.13
644.95	5916.87
645.10	6024.54
645.25	5806.87
645.39	6015.18
645.54	6090.07
645.69	5996.45
645.83	5919.21
645.98	6036.24
646.13	6015.18
646.27	5891.13
646.42	5912.19
646.57	5987.09
646.71	5867.72
646.86	5832.62
647.00	6024.54
647.15	5841.98
647.30	5802.19
647.44	5788.14
647.59	5841.98
647.74	5795.17
647.88	5841.98
648.03	5879.43
648.17	5881.77
648.32	5788.14
648.47	5891.13
648.61	5643.03
648.76	5746.02
648.90	5741.33
649.05	5790.49
649.20	5652.39
649.34	5832.62
649.49	5757.72
649.63	5748.36
649.78	5734.31
649.92	5776.44
650.07	5757.72
650.21	5790.49
650.36	5877.09
650.51	5879.43
650.65	5860.70
650.80	5792.83
650.94	5813.89
651.09	5610.26
651.23	5647.71
651.38	5834.96
651.52	5659.42
651.67	5811.55
651.81	5757.72
651.96	5816.23
652.10	5788.14
652.25	5699.20
652.39	5680.48
652.54	5916.87
652.68	5825.59
652.83	5856.02
652.97	5748.36
653.12	5902.83
653.26	5530.69
653.41	5589.20
653.55	5731.97
653.70	5755.38
653.84	5610.26
653.99	5643.03
654.13	5570.48
654.27	5614.95
654.42	5816.23
654.56	5710.91
654.71	5809.21
654.85	5717.93
655.00	5666.44
655.14	5507.28
655.29	5738.99
655.43	5624.31
655.57	5654.73
655.72	5579.84
655.86	5804.53
656.01	5776.44
656.15	5497.92
656.30	5771.76
656.44	5689.84
656.58	5699.20
656.73	5556.43
656.87	5696.86
657.01	5764.74
657.16	5692.18
657.30	5722.61
657.45	5526.00
657.59	5755.38
657.73	5636.01
657.88	5591.54
658.02	5692.18
658.16	5589.20
658.31	5633.67
658.45	5420.68
658.60	5556.43
658.74	5500.26
658.88	5495.58
659.03	5509.62
659.17	5418.34
659.31	5481.53
659.46	5462.81
659.60	5596.22
659.74	5598.56
659.89	5537.71
660.03	5324.72
660.17	5530.69
660.32	5462.81
660.46	5430.04
660.60	5455.79
660.74	5610.26
660.89	5497.92
661.03	5399.62
661.17	5298.97
661.32	5577.50
661.46	5341.10
661.60	5369.19
661.74	5500.26
661.89	5472.17
662.03	5544.73
662.17	5399.62
662.31	5584.52
662.46	5348.12
662.60	5451.11
662.74	5249.82
662.88	5483.88
663.03	5411.32
663.17	5282.59
663.31	5324.72
663.45	5448.77
663.60	5526.00
663.74	5277.91
663.88	5357.49
664.02	5348.12
664.17	5259.18
664.31	5282.59
664.45	5301.31
664.59	5277.91
664.73	5277.91
664.88	5401.96
665.02	5195.99
665.16	5275.57
665.30	5270.89
665.44	5170.24
665.59	5158.54
665.73	5167.90
665.87	5294.29
666.01	5205.35
666.15	5071.94
666.29	5282.59
666.44	5228.76
666.58	5280.25
666.72	5282.59
666.86	5167.90
667.00	5158.54
667.14	5233.44
667.28	5132.79
667.43	5034.49
667.57	5193.65
667.71	5198.33
667.85	5224.08
667.99	5184.29
668.13	5203.01
668.27	5046.20
668.41	5095.35
668.56	5205.35
668.70	5025.13
668.84	4933.85
668.98	5104.71
669.12	5060.24
669.26	5060.24
669.40	5287.27
669.54	5207.69
669.68	5130.45
669.82	5177.26
669.96	5006.41
670.10	4950.23
670.25	4973.64
670.39	5093.01
670.53	4957.25
670.67	4950.23
670.81	4966.62
670.95	5071.94
671.09	4978.32
671.23	4802.78
671.37	4945.55
671.51	5001.72
671.65	4863.63
671.79	4725.54
671.93	4887.04
672.07	5001.72
672.21	4891.72
672.35	4741.93
672.49	4966.62
672.63	4819.16
672.77	4833.21
672.91	4849.59
673.05	4725.54
673.19	4706.82
673.33	4814.48
673.47	4884.70
673.61	4954.91
673.75	4662.35
673.89	4844.91
674.03	4770.01
674.17	4709.16
674.31	4870.65
674.45	4910.44
674.59	4678.73
674.73	4660.01
674.87	4545.32
675.01	4610.86
675.15	4660.01
675.29	4603.83
675.43	4709.16
675.56	4709.16
675.70	4657.67
675.84	4798.10
675.98	4557.02
676.12	4535.96
676.26	4561.70
676.40	4521.92
676.54	4596.81
676.68	4526.60
676.82	4407.23
676.96	4355.74
677.10	4533.62
677.23	4409.57
677.37	4397.87
677.51	4332.33
677.65	4442.34
677.79	4411.91
677.93	4444.68
678.07	4521.92
678.21	4311.27
678.34	4400.21
678.48	4402.55
678.62	4227.01
678.76	4381.48
678.90	4348.72
679.04	4360.42
679.18	4393.19
679.31	4320.63
679.45	4222.33
679.59	4259.78
679.73	4187.22
679.87	4327.65
680.00	4320.63
680.14	4252.75
680.28	4234.03
680.42	4152.11
680.56	4149.77
680.70	4091.26
680.83	4117.00
680.97	4126.36
681.11	4018.70
681.25	4166.15
681.39	3946.14
681.52	3932.10
681.66	4063.17
681.80	4039.76
681.94	4191.90
682.07	4030.40
682.21	3934.44
682.35	3953.16
682.49	3948.48
682.62	4128.70
682.76	4016.36
682.90	3922.74
683.04	4037.42
683.17	4039.76
683.31	4028.06
683.45	4021.04
683.59	3913.38
683.72	3859.54
683.86	3918.06
684.00	3868.91
684.13	3864.22
684.27	3934.44
684.41	3805.71
684.55	3882.95
684.68	3822.09
684.82	3719.11
684.96	3878.27
685.09	3779.97
685.23	3763.58
685.37	3831.46
685.50	3854.86
685.64	3695.71
685.78	3604.42
685.91	3712.09
686.05	3702.73
686.19	3829.12
686.32	3742.52
686.46	3684.00
686.60	3698.05
686.73	3716.77
686.87	3779.97
687.01	3531.87
687.14	3471.01
687.28	3541.23
687.42	3473.36
687.55	3510.80
687.69	3597.40
687.82	3597.40
687.96	3627.83
688.10	3522.51
688.23	3581.02
688.37	3618.47
688.50	3452.29
688.64	3592.72
688.78	3555.27
688.91	3503.78
689.05	3428.88
689.18	3424.20
689.32	3574.00
689.46	3471.01
689.59	3461.65
689.73	3377.39
689.86	3426.54
690.00	3344.63
690.13	3339.94
690.27	3187.81
690.41	3293.13
690.54	3276.75
690.68	3269.73
690.81	3276.75
690.95	3323.56
691.08	3260.37
691.22	3295.47
691.35	3201.85
691.49	3218.24
691.62	3389.10
691.76	3215.90
691.89	3183.13
692.03	3258.03
692.16	3108.23
692.30	3115.25
692.43	3108.23
692.57	3157.38
692.70	3094.19
692.84	3112.91
692.97	3056.74
693.11	3185.47
693.24	3194.83
693.38	3047.38
693.51	3023.97
693.65	3136.32
693.78	3155.04
693.92	3009.93
694.05	3019.29
694.19	3009.93
694.32	3059.08
694.45	2977.16
694.59	2902.26
694.72	2946.73
694.86	3026.31
694.99	3035.67
695.13	2974.82
695.26	2869.50
695.39	2944.39
695.53	2977.16
695.66	3047.38
695.80	2911.63
695.93	2836.73
696.07	2888.22
696.20	2902.26
696.33	2855.45
696.47	2825.03
696.60	2841.41
696.73	2850.77
696.87	2703.32
697.00	2757.15
697.14	2738.43
697.27	2717.36
697.40	2750.13
697.54	2684.59
697.67	2799.28
697.80	2691.62
697.94	2576.93
698.07	2644.81
698.21	2616.72
698.34	2593.31
698.47	2663.53
698.61	2663.53
698.74	2640.12
698.87	2679.91
699.01	2642.46
699.14	2684.59
699.27	2642.46
699.40	2679.91
699.54	2558.21
699.67	2581.61
699.80	2567.57
699.94	2518.42
700.07	2532.46
700.20	2502.03
700.34	2520.76
700.47	2471.61
700.60	2511.39
700.73	2492.67
700.87	2506.71
701.00	2513.74
701.13	2583.95
701.26	2436.50
701.40	2387.35
701.53	2347.56
701.66	2366.28
701.79	2408.41
701.93	2469.27
702.06	2445.86
702.19	2417.77
702.32	2413.09
702.46	2328.83
702.59	2324.15
702.72	2356.92
702.85	2319.47
702.99	2188.40
703.12	2165.00
703.25	2291.38
703.38	2176.70
703.51	2289.04
703.65	2230.53
703.78	2366.28
703.91	2267.98
704.04	2284.36
704.17	2244.57
704.31	2230.53
704.44	2188.40
704.57	2279.68
704.70	2190.74
704.83	2179.04
704.96	2064.35
705.10	2279.68
705.23	2232.87
>>>>>End Processed Spectral Data<<<<<
