SpectraSuite Data File
++++++++++++++++++++++++++++++++++++
Date: Fri Oct 04 11:39:32 GMT-05:00 2013
User: price-jones
Dark Spectrum Present: No
Reference Spectrum Present: No
Number of Sampled Component Spectra: 1
Spectrometers: USB2+H05261
Integration Time (usec): 100000 (USB2+H05261)
Spectra Averaged: 1 (USB2+H05261)
Boxcar Smoothing: 0 (USB2+H05261)
Correct for Electrical Dark: No (USB2+H05261)
Strobe/Lamp Enabled: No (USB2+H05261)
Correct for Detector Non-linearity: No (USB2+H05261)
Correct for Stray Light: No (USB2+H05261)
Number of Pixels in Processed Spectrum: 2048
>>>>>Begin Processed Spectral Data<<<<<
365.73	32.77
365.92	32.77
366.12	32.77
366.32	0.00
366.52	0.00
366.72	0.00
366.91	0.00
367.11	0.00
367.31	0.00
367.51	0.00
367.70	0.00
367.90	0.00
368.10	0.00
368.30	0.00
368.49	0.00
368.69	0.00
368.89	0.00
369.09	0.00
369.28	0.00
369.48	49.15
369.68	14.04
369.87	11.70
370.07	0.00
370.27	21.06
370.47	32.77
370.66	147.45
370.86	184.90
371.06	205.97
371.25	236.39
371.45	161.50
371.65	196.60
371.84	212.99
372.04	166.18
372.24	327.68
372.44	191.92
372.63	257.46
372.83	234.05
373.03	168.52
373.22	248.10
373.42	245.76
373.62	285.55
373.81	257.46
374.01	297.25
374.21	215.33
374.40	257.46
374.60	280.86
374.79	280.86
374.99	306.61
375.19	313.63
375.38	341.72
375.58	245.76
375.78	320.65
375.97	355.76
376.17	402.57
376.37	332.36
376.56	348.74
376.76	327.68
376.95	360.44
377.15	383.85
377.35	271.50
377.54	344.06
377.74	304.27
377.93	250.44
378.13	322.99
378.33	280.86
378.52	255.12
378.72	344.06
378.91	327.68
379.11	390.87
379.31	308.95
379.50	313.63
379.70	344.06
379.89	379.17
380.09	407.25
380.28	351.08
380.48	299.59
380.68	327.68
380.87	332.36
381.07	351.08
381.26	276.18
381.46	355.76
381.65	315.97
381.85	407.25
382.04	292.57
382.24	369.80
382.43	346.40
382.63	379.17
382.83	358.10
383.02	353.42
383.22	411.93
383.41	322.99
383.61	358.10
383.80	404.91
384.00	393.21
384.19	463.43
384.39	383.85
384.58	351.08
384.78	454.06
384.97	390.87
385.17	409.59
385.36	465.77
385.56	393.21
385.75	381.51
385.95	346.40
386.14	409.59
386.34	418.96
386.53	388.53
386.72	372.15
386.92	444.70
387.11	435.34
387.31	395.55
387.50	362.78
387.70	320.65
387.89	362.78
388.09	421.30
388.28	435.34
388.48	393.21
388.67	433.00
388.86	533.64
389.06	433.00
389.25	365.12
389.45	456.40
389.64	465.77
389.84	416.62
390.03	468.11
390.22	454.06
390.42	440.02
390.61	442.36
390.81	355.76
391.00	463.43
391.19	500.87
391.39	531.30
391.58	564.07
391.78	482.15
391.97	540.66
392.16	475.13
392.36	543.00
392.55	575.77
392.75	496.19
392.94	456.40
393.13	535.98
393.33	519.60
393.52	482.15
393.71	603.86
393.91	580.45
394.10	561.73
394.29	533.64
394.49	547.69
394.68	594.50
394.88	575.77
395.07	538.32
395.26	606.20
395.46	571.09
395.65	561.73
395.84	575.77
396.04	645.99
396.23	613.22
396.42	624.92
396.62	706.84
396.81	678.76
397.00	608.54
397.19	671.73
397.39	685.78
397.58	638.97
397.77	620.24
397.97	727.91
398.16	716.20
398.35	753.65
398.55	681.10
398.74	748.97
398.93	741.95
399.12	727.91
399.32	727.91
399.51	751.31
399.70	791.10
399.90	821.53
400.09	758.33
400.28	779.40
400.47	763.01
400.67	781.74
400.86	837.91
401.05	798.12
401.24	887.06
401.44	926.85
401.63	847.27
401.82	826.21
402.01	898.77
402.21	894.08
402.40	917.49
402.59	917.49
402.78	987.71
402.97	868.34
403.17	961.96
403.36	994.73
403.55	1004.09
403.74	936.21
403.93	1078.99
404.13	1036.86
404.32	1046.22
404.51	1025.15
404.70	1076.65
404.89	1132.82
405.09	1121.12
405.28	1076.65
405.47	1086.01
405.66	1071.97
405.85	1193.67
406.05	1212.40
406.24	1282.61
406.43	1233.46
406.62	1188.99
406.81	1228.78
407.00	1144.52
407.20	1184.31
407.39	1179.63
407.58	1188.99
407.77	1217.08
407.96	1320.06
408.15	1310.70
408.34	1273.25
408.54	1394.96
408.73	1394.96
408.92	1366.87
409.11	1420.71
409.30	1352.83
409.49	1420.71
409.68	1446.45
409.87	1434.75
410.07	1423.05
410.26	1607.95
410.45	1533.05
410.64	1547.09
410.83	1544.75
411.02	1465.18
411.21	1612.63
411.40	1600.93
411.59	1556.46
411.78	1610.29
411.98	1638.38
412.17	1668.80
412.36	1626.67
412.55	1739.02
412.74	1727.32
412.93	1837.32
413.12	1799.87
413.31	1881.79
413.50	1827.96
413.69	1902.86
413.88	1879.45
414.07	1919.24
414.26	1919.24
414.45	1987.11
414.64	1933.28
414.83	1996.48
415.02	2113.50
415.22	2038.61
415.41	2094.78
415.60	2064.35
415.79	2188.40
415.98	2136.91
416.17	2204.78
416.36	2101.80
416.55	2197.76
416.74	2244.57
416.93	2232.87
417.12	2167.34
417.31	2319.47
417.50	2338.20
417.69	2448.20
417.88	2394.37
418.07	2284.36
418.26	2366.28
418.45	2436.50
418.64	2525.44
418.83	2422.45
419.02	2518.42
419.21	2597.99
419.39	2602.68
419.58	2443.52
419.77	2644.81
419.96	2642.46
420.15	2630.76
420.34	2672.89
420.53	2649.49
420.72	2684.59
420.91	2672.89
421.10	2691.62
421.29	2726.72
421.48	2642.46
421.67	2789.92
421.86	2799.28
422.05	2827.37
422.24	2841.41
422.43	2682.25
422.61	2850.77
422.80	2792.26
422.99	2888.22
423.18	2925.67
423.37	2916.31
423.56	2822.69
423.75	2829.71
423.94	2829.71
424.13	2684.59
424.32	2818.00
424.50	2956.10
424.69	3005.25
424.88	2902.26
425.07	2885.88
425.26	2871.84
425.45	2841.41
425.64	2864.82
425.83	2946.73
426.01	2937.37
426.20	3023.97
426.39	2918.65
426.58	2946.73
426.77	3002.91
426.96	3035.67
427.15	3103.55
427.33	2928.01
427.52	3040.36
427.71	3030.99
427.90	2967.80
428.09	3206.53
428.28	3148.02
428.46	3274.41
428.65	3267.39
428.84	3229.94
429.03	3323.56
429.22	3096.53
429.40	3197.17
429.59	3227.60
429.78	3265.05
429.97	3042.70
430.16	3323.56
430.34	3232.28
430.53	3330.58
430.72	3351.65
430.91	3370.37
431.10	3353.99
431.28	3499.10
431.47	3424.20
431.66	3414.84
431.85	3478.04
432.03	3602.08
432.22	3583.36
432.41	3527.19
432.60	3613.79
432.79	3569.32
432.97	3576.34
433.16	3669.96
433.35	3555.27
433.54	3597.40
433.72	3597.40
433.91	3576.34
434.10	3700.39
434.28	3660.60
434.47	3751.88
434.66	3747.20
434.85	3768.26
435.03	3859.54
435.22	3896.99
435.41	4252.75
435.59	4117.00
435.78	3981.25
435.97	3992.95
436.16	3948.48
436.34	3990.61
436.53	3786.99
436.72	4063.17
436.90	3838.48
437.09	4030.40
437.28	3955.51
437.46	3920.40
437.65	4049.13
437.84	3964.87
438.02	3962.53
438.21	4135.73
438.40	4107.64
438.58	4224.67
438.77	4238.71
438.96	4241.05
439.14	4269.14
439.33	4372.12
439.52	4285.52
439.70	4327.65
439.89	4404.89
440.08	4437.66
440.26	4262.12
440.45	4283.18
440.63	4400.21
440.82	4578.09
441.01	4456.38
441.19	4627.24
441.38	4468.08
441.57	4524.26
441.75	4634.26
441.94	4720.86
442.12	4664.69
442.31	4854.27
442.50	4793.42
442.68	4725.54
442.87	4765.33
443.05	4762.99
443.24	4990.02
443.43	4966.62
443.61	4837.89
443.80	5132.79
443.98	4840.23
444.17	4699.80
444.35	4954.91
444.54	4992.36
444.73	5146.84
444.91	5032.15
445.10	5032.15
445.28	4828.53
445.47	4919.81
445.65	5034.49
445.84	5146.84
446.02	5041.51
446.21	4994.70
446.39	5008.75
446.58	5078.96
446.77	5060.24
446.95	5041.51
447.14	4924.49
447.32	5266.21
447.51	5036.83
447.69	4978.32
447.88	5256.84
448.06	5064.92
448.25	4997.04
448.43	5184.29
448.62	5064.92
448.80	5165.56
448.99	5226.42
449.17	5245.14
449.36	5210.03
449.54	5303.65
449.73	5284.93
449.91	5327.06
450.10	5458.13
450.28	5418.34
450.46	5252.16
450.65	5380.89
450.83	5200.67
451.02	5369.19
451.20	5420.68
451.39	5591.54
451.57	5380.89
451.76	5521.32
451.94	5448.77
452.13	5701.54
452.31	5645.37
452.49	5575.16
452.68	5547.07
452.86	5699.20
453.05	5572.82
453.23	5774.10
453.42	5591.54
453.60	5434.72
453.78	5600.90
453.97	5685.16
454.15	5682.82
454.34	5570.48
454.52	5738.99
454.70	5834.96
454.89	5731.97
455.07	5774.10
455.26	5841.98
455.44	5884.11
455.62	5820.91
455.81	5888.79
455.99	5937.94
456.17	6022.20
456.36	5818.57
456.54	6092.41
456.73	6104.12
456.91	6193.06
457.09	6202.42
457.28	6218.80
457.46	6183.70
457.64	6300.72
457.83	6284.34
458.01	6150.93
458.19	6399.02
458.38	6122.84
458.56	6258.59
458.74	6342.85
458.93	6193.06
459.11	6413.07
459.29	6298.38
459.48	6251.57
459.66	6520.73
459.84	6572.22
460.03	6413.07
460.21	6452.86
460.39	6546.48
460.57	6380.30
460.76	6452.86
460.94	6700.95
461.12	6583.93
461.31	6562.86
461.49	6609.67
461.67	6640.10
461.85	6689.25
462.04	6665.85
462.22	6951.39
462.40	6860.11
462.59	6902.24
462.77	6698.61
462.95	6881.18
463.13	6754.79
463.32	6930.33
463.50	6888.20
463.68	7056.72
463.86	6850.75
464.05	6794.58
464.23	6927.99
464.41	6993.52
464.59	6935.01
464.78	7045.01
464.96	7143.32
465.14	7023.95
465.32	7002.88
465.50	7222.89
465.69	7229.91
465.87	7206.51
466.05	7119.91
466.23	7187.79
466.41	7386.73
466.60	7239.28
466.78	7204.17
466.96	7194.81
467.14	7171.40
467.32	7368.01
467.51	7302.47
467.69	7124.59
467.87	7431.20
468.05	7482.69
468.23	7253.32
468.41	7339.92
468.60	7363.33
468.78	7573.97
468.96	7520.14
469.14	7721.43
469.32	7765.90
469.50	7288.43
469.69	7644.19
469.87	7782.28
470.05	7770.58
470.23	7712.07
470.41	7857.18
470.59	7700.36
470.77	7555.25
470.95	7927.39
471.14	7955.48
471.32	7749.51
471.50	7978.89
471.68	8079.53
471.86	7925.05
472.04	8236.35
472.22	8269.11
472.40	7962.50
472.58	8278.47
472.77	8229.32
472.95	8306.56
473.13	8652.96
473.31	8091.23
473.49	8257.41
473.67	8472.74
473.85	8512.53
474.03	8486.78
474.21	8573.38
474.39	8674.03
474.57	8755.94
474.75	8875.31
474.93	8657.64
475.12	8819.14
475.30	8769.99
475.48	8816.80
475.66	8961.91
475.84	8786.37
476.02	9193.62
476.20	9107.02
476.38	9202.99
476.56	9469.81
476.74	9235.75
476.92	9181.92
477.10	9455.76
477.28	9404.27
477.46	9401.93
477.64	9507.26
477.82	9610.24
478.00	9832.59
478.18	9827.91
478.36	9767.06
478.54	10083.03
478.72	9870.04
478.90	10066.64
479.08	10068.98
479.26	10174.31
479.44	10197.71
479.62	10246.87
479.80	10200.05
479.98	10581.56
480.16	10785.19
480.34	10501.98
480.52	10752.42
480.70	10806.25
480.88	10661.14
481.06	10799.23
481.24	10832.00
481.41	10925.62
481.59	11159.67
481.77	11435.86
481.95	11442.88
482.13	11688.64
482.31	11412.45
482.49	11564.59
482.67	11613.74
482.85	11838.43
483.03	12133.34
483.21	12028.01
483.39	12128.66
483.57	12430.59
483.74	12311.22
483.92	12400.16
484.10	12575.70
484.28	12697.41
484.46	13081.25
484.64	13057.85
484.82	12779.32
485.00	12886.99
485.18	13029.76
485.35	13261.48
485.53	13453.40
485.71	13263.82
485.89	13664.05
486.07	13455.74
486.25	13661.71
486.43	13666.39
486.61	13612.56
486.78	14162.58
486.96	14146.20
487.14	14394.29
487.32	14010.45
487.50	14448.13
487.68	14267.91
487.85	14438.76
488.03	14885.81
488.21	14977.09
488.39	14867.08
488.57	15304.76
488.75	15150.29
488.92	15417.11
489.10	15290.72
489.28	15702.65
489.46	15723.72
489.64	15681.59
489.81	15857.13
489.99	15789.25
490.17	16063.10
490.35	16273.74
490.53	16315.87
490.70	16339.28
490.88	16376.73
491.06	16341.62
491.24	16538.23
491.41	16601.42
491.59	16856.54
491.77	16709.08
491.95	16945.48
492.13	17170.17
492.30	17191.23
492.48	17139.74
492.66	17502.53
492.84	17589.13
493.01	17598.49
493.19	17745.94
493.37	17947.23
493.54	18113.41
493.72	18111.07
493.90	17879.35
494.08	18288.95
494.25	18501.93
494.43	18707.90
494.61	18640.03
494.79	18635.35
494.96	18590.88
495.14	18686.84
495.32	18689.18
495.49	18939.62
495.67	19257.93
495.85	19260.27
496.02	19367.93
496.20	19723.69
496.38	19508.37
496.55	19688.59
496.73	19847.74
496.91	19852.42
497.09	20135.63
497.26	20144.99
497.44	20339.26
497.62	20278.40
497.79	20514.80
497.97	20255.00
498.14	20318.19
498.32	20732.47
498.50	20393.09
498.67	21083.55
498.85	20790.98
499.03	20788.64
499.20	21170.15
499.38	21324.62
499.56	21451.01
499.73	21542.29
499.91	21631.23
500.08	21645.27
500.26	21605.49
500.44	21568.04
500.61	21788.05
500.79	21813.79
500.97	21921.46
501.14	22157.85
501.32	22071.25
501.49	22417.65
501.67	22017.42
501.84	22256.15
502.02	22375.52
502.20	22616.60
502.37	22466.80
502.55	22618.94
502.72	22728.94
502.90	22602.55
503.07	22572.13
503.25	22675.11
503.43	22888.10
503.60	22967.68
503.78	23267.27
503.95	23073.00
504.13	23267.27
504.30	23353.87
504.48	23150.24
504.65	23866.44
504.83	23587.92
505.01	23857.08
505.18	23754.10
505.36	23789.20
505.53	23601.96
505.71	23953.04
505.88	23903.89
506.06	23749.42
506.23	24123.90
506.41	24027.94
506.58	24327.53
506.76	24063.05
506.93	24168.37
507.11	24217.52
507.28	24493.71
507.46	24460.94
507.63	24524.13
507.81	24648.18
507.98	24491.37
508.16	24828.40
508.33	24919.68
508.50	25053.09
508.68	25034.37
508.85	24800.32
509.03	25233.32
509.20	25392.47
509.38	25357.36
509.55	25860.58
509.73	25436.94
509.90	25731.85
510.08	25551.63
510.25	26101.65
510.42	26176.55
510.60	26169.53
510.77	26576.78
510.95	26565.08
511.12	25940.16
511.30	26080.59
511.47	26256.13
511.64	26178.89
511.82	26684.45
511.99	26366.13
512.17	26682.11
512.34	26326.35
512.51	26890.41
512.69	26586.15
512.86	27150.21
513.04	26977.01
513.21	27220.43
513.38	27501.29
513.56	27304.69
513.73	27061.27
513.90	27351.50
514.08	27337.46
514.25	27520.02
514.43	27527.04
514.60	27992.81
514.77	27520.02
514.95	27777.48
515.12	27709.60
515.29	27723.65
515.47	27887.48
515.64	28046.64
515.81	27964.72
515.99	28666.88
516.16	28357.93
516.33	28481.98
516.51	28678.58
516.68	28023.23
516.85	28261.97
517.03	28390.70
517.20	28739.44
517.37	28900.94
517.54	28535.81
517.72	28430.49
517.89	28973.49
518.06	28617.73
518.24	28980.51
518.41	28795.61
518.58	29125.63
518.75	29174.78
518.93	29127.97
519.10	29479.05
519.27	29132.65
519.45	29006.26
519.62	29647.57
519.79	29193.50
519.96	29586.71
520.14	29308.19
520.31	29703.74
520.48	29923.75
520.65	29685.01
520.83	29890.98
521.00	29862.90
521.17	29977.58
521.34	30202.27
521.52	30398.88
521.69	29907.37
521.86	30199.93
522.03	30005.67
522.20	30543.99
522.38	30771.02
522.55	30213.98
522.72	30501.86
522.89	30511.22
523.07	31164.23
523.24	30691.44
523.41	30843.58
523.58	30899.75
523.75	30754.64
523.92	30363.77
524.10	30976.99
524.27	31089.34
524.44	31009.76
524.61	31332.75
524.78	31332.75
524.96	31290.62
525.13	31105.72
525.30	31594.89
525.47	31667.45
525.64	31512.97
525.81	31952.99
525.98	31985.76
526.16	31910.86
526.33	31323.39
526.50	32187.05
526.67	31644.04
526.84	31777.45
527.01	31517.65
527.18	32055.98
527.36	31697.88
527.53	31845.33
527.70	32175.34
527.87	32685.58
528.04	32100.45
528.21	32622.39
528.38	32224.50
528.55	32486.64
528.72	32561.53
528.89	32582.60
529.07	32556.85
529.24	32252.58
529.41	32587.28
529.58	32418.76
529.75	32425.78
529.92	32601.32
530.09	32540.47
530.26	33069.43
530.43	33048.36
530.60	32903.25
530.77	32849.42
530.94	33406.47
531.11	32856.44
531.28	32950.06
531.46	32800.27
531.63	33240.29
531.80	33345.61
531.97	33493.07
532.14	33441.57
532.31	33354.97
532.48	33039.00
532.65	33303.48
532.82	33125.60
532.99	33692.01
533.16	33659.24
533.33	33352.63
533.50	33937.77
533.67	33539.88
533.84	33764.57
534.01	33944.79
534.18	33383.06
534.35	34125.01
534.52	34115.65
534.69	34452.69
534.86	34368.43
535.03	34494.82
535.20	34277.15
535.37	34265.44
535.54	34445.66
535.71	34352.04
535.88	34005.64
536.05	34440.98
536.22	34513.54
536.38	34630.57
536.55	34574.39
536.72	34857.60
536.89	34309.91
537.06	34387.15
537.23	34623.54
537.40	34560.35
537.57	34756.96
537.74	35023.78
537.91	35119.74
538.08	35173.57
538.25	35299.96
538.42	35079.95
538.59	35213.36
538.75	34515.88
538.92	34768.66
539.09	35613.59
539.26	35243.79
539.43	35414.65
539.60	35711.89
539.77	35384.22
539.94	35393.58
540.11	35999.78
540.28	35688.49
540.44	35519.97
540.61	35360.81
540.78	35660.40
540.95	35934.24
541.12	35653.38
541.29	36004.46
541.46	36004.46
541.62	36128.51
541.79	36320.43
541.96	35618.27
542.13	36208.09
542.30	36371.92
542.47	36048.93
542.63	36870.46
542.80	36610.66
542.97	36467.89
543.14	37046.00
543.31	36421.08
543.48	36685.56
543.64	36580.23
543.81	36727.69
543.98	36966.42
544.15	36886.84
544.32	36814.29
544.48	37418.14
544.65	36463.21
544.82	36943.02
544.99	36935.99
545.16	37153.66
545.32	36781.52
545.49	37668.58
545.66	37724.75
545.83	38047.75
546.00	37848.80
546.16	37326.86
546.33	36779.18
546.50	36985.15
546.67	37303.46
546.83	36538.10
547.00	36903.23
547.17	37317.50
547.34	37050.68
547.50	37413.46
547.67	37593.68
547.84	37268.35
548.00	37467.30
548.17	37598.37
548.34	37818.38
548.51	37462.61
548.67	37516.45
548.84	37895.61
549.01	37500.06
549.18	37537.51
549.34	37354.95
549.51	37392.40
549.68	37113.87
549.84	37411.12
550.01	37801.99
550.18	37603.05
550.34	37724.75
550.51	37834.76
550.68	38284.14
550.84	37745.82
551.01	37626.45
551.18	37825.40
551.34	37523.47
551.51	37909.66
551.68	37841.78
551.84	38213.93
552.01	37923.70
552.18	38330.95
552.34	38059.45
552.51	38237.33
552.68	37904.98
552.84	38045.41
553.01	37715.39
553.18	37708.37
553.34	38352.02
553.51	37958.81
553.67	38459.68
553.84	38473.73
554.01	38548.62
554.17	38253.72
554.34	38066.47
554.51	38389.47
554.67	38600.12
554.84	38073.49
555.00	38412.87
555.17	37872.21
555.33	38543.94
555.50	38080.52
555.67	37862.85
555.83	38078.18
556.00	38447.98
556.16	38253.72
556.33	38436.28
556.50	38464.36
556.66	38866.94
556.83	38452.66
556.99	38710.12
557.16	39051.84
557.32	38862.26
557.49	39072.90
557.65	38333.29
557.82	38600.12
557.98	38572.03
558.15	38550.96
558.32	39122.05
558.48	38768.63
558.65	38808.42
558.81	38539.26
558.98	38553.30
559.14	38904.38
559.31	38380.10
559.47	38368.40
559.64	38967.58
559.80	39171.21
559.97	39171.21
560.13	38742.89
560.30	38892.68
560.46	39051.84
560.63	39171.21
560.79	39262.49
560.96	38873.96
561.12	39019.07
561.29	39007.37
561.45	38988.64
561.61	38871.62
561.78	39543.35
561.94	39028.43
562.11	39218.02
562.27	39365.47
562.44	38880.98
562.60	39414.62
562.77	38782.68
562.93	38836.51
563.10	39323.34
563.26	39047.16
563.42	39426.32
563.59	39225.04
563.75	39281.21
563.92	39597.18
564.08	38684.37
564.24	38946.51
564.41	38939.49
564.57	38976.94
564.74	39295.25
564.90	39311.64
565.07	39325.68
565.23	39564.42
565.39	39316.32
565.56	39082.27
565.72	38944.17
565.88	39241.42
566.05	39442.71
566.21	38967.58
566.38	39112.69
566.54	39150.14
566.70	39583.14
566.87	39379.51
567.03	39576.12
567.19	39854.64
567.36	39683.78
567.52	39587.82
567.68	39393.56
567.85	39346.75
568.01	39185.25
568.17	39318.66
568.34	39372.49
568.50	39573.78
568.66	39835.92
568.83	39325.68
568.99	39356.11
569.15	39276.53
569.32	39304.62
569.48	38778.00
569.64	39695.49
569.81	39402.92
569.97	39271.85
570.13	39440.37
570.30	38993.32
570.46	39583.14
570.62	39749.32
570.78	39400.58
570.95	39098.65
571.11	39974.01
571.27	39328.02
571.43	39136.10
571.60	39735.27
571.76	39531.65
571.92	39491.86
572.09	39648.68
572.25	39929.54
572.41	39482.50
572.57	39721.23
572.74	39732.93
572.90	39290.57
573.06	39049.50
573.22	39395.90
573.38	39590.16
573.55	39796.13
573.71	39938.90
573.87	40009.12
574.03	39374.83
574.20	39002.69
574.36	39571.44
574.52	39632.29
574.68	39566.76
574.84	39641.65
575.01	39533.99
575.17	39927.20
575.33	39496.54
575.49	39438.03
575.65	39608.89
575.82	39573.78
575.98	39555.05
576.14	39742.30
576.30	40006.78
576.46	39796.13
576.62	39606.55
576.79	39894.43
576.95	39096.31
577.11	39906.13
577.27	40006.78
577.43	39854.64
577.59	39892.09
577.75	40013.80
577.92	39239.08
578.08	39632.29
578.24	39210.99
578.40	39173.55
578.56	39758.68
578.72	39739.96
578.88	40360.20
579.04	40128.48
579.21	39777.40
579.37	39629.95
579.53	39716.55
579.69	39342.06
579.85	39768.04
580.01	39400.58
580.17	39615.91
580.33	39363.13
580.49	39754.00
580.65	40189.34
580.82	39756.34
580.98	39524.63
581.14	39999.76
581.30	39845.28
581.46	39515.26
581.62	39957.63
581.78	39779.74
581.94	39655.70
582.10	39489.52
582.26	39903.79
582.42	39798.47
582.58	39440.37
582.74	39985.71
582.90	39791.45
583.06	40009.12
583.22	39721.23
583.38	40018.48
583.54	39817.19
583.70	39608.89
583.86	39959.97
584.02	39779.74
584.18	39796.13
584.34	39959.97
584.50	39974.01
584.66	39695.49
584.82	39342.06
584.98	39730.59
585.14	39674.42
585.30	39498.88
585.46	39917.84
585.62	39826.56
585.78	39709.53
585.94	39849.96
586.10	39653.36
586.26	39859.32
586.42	39716.55
586.58	40065.29
586.74	39985.71
586.90	39782.09
587.06	39735.27
587.22	40224.45
587.38	39704.85
587.54	40018.48
587.70	40140.19
587.86	40011.46
588.02	39880.39
588.18	40112.10
588.34	39723.57
588.49	39885.07
588.65	39807.83
588.81	39646.33
588.97	39983.37
589.13	39910.82
589.29	39957.63
589.45	40280.62
589.61	40229.13
589.77	40287.64
589.93	40121.46
590.08	39903.79
590.24	39770.38
590.40	40250.19
590.56	40189.34
590.72	39978.69
590.88	39690.80
591.04	40116.78
591.20	40472.54
591.35	40020.82
591.51	40498.29
591.67	40229.13
591.83	40549.78
591.99	40196.36
592.15	40685.53
592.31	40027.84
592.46	39842.94
592.62	40170.61
592.78	40289.98
592.94	40102.74
593.10	40128.48
593.26	40020.82
593.41	40196.36
593.57	40137.85
593.73	40210.40
593.89	40198.70
594.05	40509.99
594.20	40023.16
594.36	39826.56
594.52	39784.43
594.68	39976.35
594.84	39901.45
594.99	40261.90
595.15	39775.06
595.31	40594.25
595.47	40067.63
595.62	40259.55
595.78	39824.22
595.94	40355.52
596.10	39772.72
596.25	40039.54
596.41	40184.66
596.57	39896.77
596.73	40093.38
596.88	40165.93
597.04	40381.26
597.20	40119.12
597.36	40055.93
597.51	40203.38
597.67	39978.69
597.83	39981.03
597.99	39999.76
598.14	39910.82
598.30	40245.51
598.46	39704.85
598.61	40308.71
598.77	40374.24
598.93	40093.38
599.09	40187.00
599.24	40657.45
599.40	40233.81
599.56	40201.04
599.71	40322.75
599.87	40093.38
600.03	40268.92
600.18	39927.20
600.34	39941.24
600.50	40196.36
600.65	40030.18
600.81	40311.05
600.97	40273.60
601.12	40187.00
601.28	40282.96
601.44	40289.98
601.59	40135.51
601.75	39789.11
601.91	39597.18
602.06	39873.37
602.22	39950.60
602.37	39618.25
602.53	40142.53
602.69	40266.58
602.84	40062.95
603.00	39693.15
603.16	39765.70
603.31	39999.76
603.47	40055.93
603.62	39929.54
603.78	39974.01
603.94	39798.47
604.09	39845.28
604.25	39992.73
604.40	39875.71
604.56	39789.11
604.71	40390.62
604.87	39625.27
605.03	40119.12
605.18	40062.95
605.34	39882.73
605.49	39541.01
605.65	39814.85
605.80	39894.43
605.96	39924.86
606.12	39557.39
606.27	39934.22
606.43	39690.80
606.58	39908.47
606.74	39475.48
606.89	39791.45
607.05	40074.65
607.20	39882.73
607.36	39658.04
607.51	39313.98
607.67	39489.52
607.82	39845.28
607.98	39510.58
608.13	39569.10
608.29	39629.95
608.44	39215.68
608.60	39580.80
608.75	39885.07
608.91	39826.56
609.06	39473.13
609.22	39669.74
609.37	39248.44
609.53	39777.40
609.68	39447.39
609.84	39477.82
609.99	39683.78
610.15	39447.39
610.30	40126.14
610.46	40088.70
610.61	40196.36
610.76	40339.13
610.92	40500.63
611.07	40182.32
611.23	40179.98
611.38	40250.19
611.54	40285.30
611.69	39864.00
611.84	39519.95
612.00	39756.34
612.15	39409.94
612.31	39548.03
612.46	39379.51
612.62	39391.22
612.77	39243.76
612.92	39929.54
613.08	39276.53
613.23	39484.84
613.39	39285.89
613.54	39248.44
613.69	39030.77
613.85	38969.92
614.00	38653.95
614.15	39325.68
614.31	38976.94
614.46	39096.31
614.62	39023.75
614.77	39374.83
614.92	38981.62
615.08	39014.39
615.23	39182.91
615.38	38529.90
615.54	38497.13
615.69	38909.07
615.84	38204.56
616.00	38913.75
616.15	38431.60
616.30	39040.14
616.46	38850.55
616.61	38309.89
616.76	38869.28
616.92	38614.16
617.07	38239.67
617.22	38017.32
617.37	37965.83
617.53	38721.82
617.68	37846.46
617.83	38639.90
617.99	38330.95
618.14	38258.40
618.29	38330.95
618.45	38288.82
618.60	38572.03
618.75	38621.18
618.90	38115.62
619.06	38462.02
619.21	38295.85
619.36	37975.19
619.51	38249.03
619.67	37762.20
619.82	37937.74
619.97	38066.47
620.12	38029.02
620.28	38274.78
620.43	38359.04
620.58	37790.29
620.73	38068.81
620.89	38270.10
621.04	38337.98
621.19	37954.13
621.34	37940.08
621.49	38073.49
621.65	37666.24
621.80	37986.89
621.95	37645.18
622.10	37998.60
622.25	37853.48
622.41	37818.38
622.56	37570.28
622.71	37907.32
622.86	37914.34
623.01	37865.19
623.16	37102.17
623.32	37523.47
623.47	37532.83
623.62	37680.28
623.77	37961.15
623.92	37589.00
624.07	37420.48
624.23	37432.19
624.38	37553.90
624.53	37357.29
624.68	37308.14
624.83	37390.06
624.98	37581.98
625.13	37308.14
625.29	37469.64
625.44	36935.99
625.59	37081.11
625.74	37326.86
625.89	37123.24
626.04	36886.84
626.19	36886.84
626.34	37312.82
626.49	37060.04
626.65	36823.65
626.80	37450.91
626.95	37078.77
627.10	36982.80
627.25	37013.23
627.40	36907.91
627.55	36680.88
627.70	36732.37
627.85	36837.69
628.00	36458.52
628.15	36505.34
628.30	36807.26
628.45	36655.13
628.60	36840.03
628.76	36954.72
628.91	36493.63
629.06	37074.09
629.21	36629.38
629.36	36336.82
629.51	36385.97
629.66	36584.91
629.81	36194.04
629.96	36692.58
630.11	36437.46
630.26	36378.95
630.41	36458.52
630.56	36135.53
630.71	36453.84
630.86	36683.22
631.01	36472.57
631.16	36378.95
631.31	36549.81
631.46	36114.47
631.61	36037.23
631.76	35948.29
631.91	35955.31
632.06	36346.18
632.21	35770.41
632.36	35917.86
632.51	35578.48
632.66	35967.01
632.81	35840.62
632.96	36332.14
633.10	36130.85
633.25	35985.74
633.40	35896.80
633.55	35695.51
633.70	36004.46
633.85	35686.15
634.00	35395.92
634.15	35653.38
634.30	35805.52
634.45	35580.82
634.60	35601.89
634.75	35999.78
634.90	35538.69
635.05	35559.76
635.19	35548.06
635.34	36074.68
635.49	35847.64
635.64	35768.07
635.79	35508.27
635.94	35409.96
636.09	35529.33
636.24	35424.01
636.39	35084.63
636.53	35559.76
636.68	35168.89
636.83	35126.76
636.98	35688.49
637.13	35442.73
637.28	35508.27
637.43	35424.01
637.57	35592.53
637.72	35421.67
637.87	35122.08
638.02	34979.31
638.17	35297.62
638.32	35456.78
638.46	34829.51
638.61	34876.32
638.76	34895.05
638.91	35042.50
639.06	35372.52
639.20	35182.93
639.35	35101.01
639.50	34906.75
639.65	34932.50
639.80	35248.47
639.94	35079.95
640.09	35012.07
640.24	34789.72
640.39	34660.99
640.54	34462.05
640.68	34960.58
640.83	34450.35
640.98	34543.97
641.13	34494.82
641.27	34983.99
641.42	34644.61
641.57	34508.86
641.72	35122.08
641.86	34817.81
642.01	34866.96
642.16	34689.08
642.31	34300.55
642.45	34583.76
642.60	34433.96
642.75	34394.17
642.90	34202.25
643.04	34394.17
643.19	34448.00
643.34	34000.96
643.48	34525.24
643.63	34717.17
643.78	34558.01
643.93	34806.11
644.07	34321.62
644.22	34033.73
644.37	34099.26
644.51	34754.61
644.66	34101.61
644.81	34321.62
644.95	34106.29
645.10	34197.57
645.25	34064.16
645.39	34110.97
645.54	34319.28
645.69	34052.45
645.83	34394.17
645.98	34632.91
646.13	34082.88
646.27	34433.96
646.42	34237.36
646.57	34089.90
646.71	33989.26
646.86	34300.55
647.00	33851.17
647.15	33837.12
647.30	33759.89
647.44	33699.03
647.59	34354.38
647.74	33439.23
647.88	33883.94
648.03	33656.90
648.17	33958.83
648.32	33916.70
648.47	34132.03
648.61	33551.58
648.76	33851.17
648.90	33914.36
649.05	33689.67
649.20	33432.21
649.34	33745.84
649.49	33294.12
649.63	33544.56
649.78	33715.42
649.92	33607.75
650.07	33596.05
650.21	33661.58
650.36	33570.30
650.51	33582.01
650.65	33610.09
650.80	33415.83
650.94	33053.05
651.09	33509.45
651.23	33193.48
651.38	33457.96
651.52	32985.17
651.67	33544.56
651.81	33184.12
651.96	33167.73
652.10	33031.98
652.25	33003.89
652.39	33184.12
652.54	33450.94
652.68	32797.93
652.83	33392.42
652.97	33544.56
653.12	33364.34
653.26	33268.37
653.41	32875.16
653.55	33074.11
653.70	32959.42
653.84	32989.85
653.99	33039.00
654.13	33001.55
654.27	32980.49
654.42	32802.61
654.56	32657.49
654.71	32772.18
654.85	32676.22
655.00	33088.15
655.14	32943.04
655.29	32388.33
655.43	32807.29
655.57	33118.58
655.72	32404.72
655.86	32423.44
656.01	32383.65
656.15	32613.02
656.30	32634.09
656.44	32201.09
656.58	32711.33
656.73	32481.95
656.87	32299.39
657.01	32077.04
657.16	32760.48
657.30	32608.34
657.45	32168.32
657.59	32577.92
657.73	32173.00
657.88	32055.98
658.02	32376.63
658.16	32231.52
658.31	31964.70
658.45	31723.62
658.60	31721.28
658.74	31812.56
658.88	31885.12
659.03	31952.99
659.17	31658.09
659.31	31732.98
659.46	31824.26
659.60	32259.60
659.74	31938.95
659.89	31651.06
660.03	31948.31
660.17	32016.19
660.32	31564.46
660.46	31634.68
660.60	31145.51
660.74	31840.65
660.89	31424.03
661.03	31002.74
661.17	31239.13
661.32	31391.26
661.46	31817.24
661.60	31583.19
661.74	31391.26
661.89	31227.43
662.03	30925.50
662.17	31239.13
662.31	30773.36
662.46	31262.54
662.60	30803.79
662.74	30930.18
662.88	31054.23
663.03	30698.47
663.17	30658.68
663.31	30878.69
663.45	30773.36
663.60	30583.78
663.74	30651.66
663.88	30913.80
664.02	30918.48
664.17	30948.90
664.31	30717.19
664.45	30405.90
664.59	30590.80
664.73	30391.86
664.88	30487.82
665.02	30094.61
665.16	30274.83
665.30	30174.19
665.44	29921.41
665.59	30216.32
665.73	30277.17
665.87	29869.92
666.01	30115.67
666.15	30253.76
666.29	30300.58
666.44	29785.66
666.58	29731.83
666.72	30043.12
666.86	30103.97
667.00	30115.67
667.14	29862.90
667.28	29567.99
667.43	29589.05
667.57	29469.69
667.71	29696.72
667.85	29598.41
667.99	29694.38
668.13	29312.87
668.27	28982.85
668.41	29067.11
668.56	29277.76
668.70	29333.93
668.84	29153.71
668.98	29371.38
669.12	29106.90
669.26	29120.95
669.40	29060.09
669.54	29127.97
669.68	28671.56
669.82	28879.87
669.96	28802.63
670.10	28940.72
670.25	28388.36
670.39	28491.34
670.53	28613.05
670.67	28407.08
670.81	28374.31
670.95	28552.20
671.09	28748.80
671.23	28624.75
671.37	28568.58
671.51	28271.33
671.65	28734.76
671.79	28259.63
671.93	27955.36
672.07	28491.34
672.21	28060.68
672.35	27920.25
672.49	27587.89
672.63	27510.66
672.77	27625.34
672.91	28065.36
673.05	27850.03
673.19	27459.16
673.33	27796.20
673.47	27740.03
673.61	27688.54
673.75	27463.85
673.89	27208.73
674.03	27505.98
674.17	27393.63
674.31	27302.35
674.45	27531.72
674.59	27276.60
674.73	26993.40
674.87	26923.18
675.01	27133.83
675.15	26939.57
675.29	26859.99
675.43	26878.71
675.56	26848.29
675.70	27019.14
675.84	26766.37
675.98	25891.01
676.12	26698.49
676.26	26738.28
676.40	26775.73
676.54	26647.00
676.68	26099.31
676.82	25455.67
676.96	25841.85
677.10	26139.10
677.23	25900.37
677.37	25603.12
677.51	25741.21
677.65	25685.04
677.79	25282.47
677.93	25174.80
678.07	25717.81
678.21	25282.47
678.34	25682.70
678.48	25259.06
678.62	25507.16
678.76	25266.08
678.90	25132.67
679.04	25198.21
679.18	24779.25
679.31	24648.18
679.45	24584.99
679.59	24559.24
679.73	24322.85
679.87	24318.17
680.00	24697.33
680.14	24067.73
680.28	24294.76
680.42	24273.70
680.56	24250.29
680.70	24336.89
680.83	23934.32
680.97	23892.19
681.11	24374.34
681.25	24196.46
681.39	23782.18
681.52	23770.48
681.66	23608.98
681.80	23442.81
681.94	23400.68
682.07	23665.16
682.21	23325.78
682.35	23075.34
682.49	23293.01
682.62	23262.58
682.76	23077.68
682.90	22895.12
683.04	23040.23
683.17	22787.46
683.31	22740.64
683.45	22934.91
683.59	23098.75
683.72	22611.92
683.86	22569.79
684.00	22401.27
684.13	22476.16
684.27	22199.98
684.41	22302.96
684.55	22094.66
684.68	21994.01
684.82	21699.11
684.96	21916.78
685.09	21830.18
685.23	21455.69
685.37	21731.87
685.50	21689.74
685.64	21738.90
685.78	21481.44
685.91	21544.63
686.05	21694.43
686.19	21411.22
686.32	21296.53
686.46	21418.24
686.60	20893.96
686.73	21099.93
686.87	20964.18
687.01	20737.15
687.14	20826.09
687.28	20685.65
687.42	20638.84
687.55	20379.04
687.69	20528.84
687.82	20545.22
687.96	20224.57
688.10	20280.74
688.23	20327.55
688.37	20395.43
688.50	19875.83
688.64	20222.23
688.78	20290.10
688.91	19871.15
689.05	20081.80
689.18	19791.57
689.32	19147.92
689.46	19513.05
689.59	19569.22
689.73	19286.01
689.86	19267.29
690.00	19161.97
690.13	19433.47
690.27	19145.58
690.41	19147.92
690.54	18869.40
690.68	19262.61
690.81	19115.16
690.95	18909.19
691.08	18991.11
691.22	18941.96
691.35	18724.29
691.49	19056.64
691.62	18817.91
691.76	18441.08
691.89	18265.54
692.03	17965.95
692.16	17972.97
692.30	18125.11
692.43	18298.31
692.57	18001.06
692.70	18197.67
692.84	17961.27
692.97	18026.81
693.11	17874.67
693.24	17851.27
693.38	17919.14
693.51	17624.23
693.65	17561.04
693.78	17446.35
693.92	17509.55
694.05	17301.24
694.19	17266.13
694.32	17275.49
694.45	17263.79
694.59	17006.33
694.72	17039.10
694.86	16938.46
694.99	16514.82
695.13	16547.59
695.26	16645.89
695.39	16615.46
695.53	16603.76
695.66	16465.67
695.80	16610.78
695.93	16430.56
696.07	16343.96
696.20	16458.65
696.33	16313.53
696.47	16304.17
696.60	15969.48
696.73	16027.99
696.87	16259.70
697.00	16006.92
697.14	15880.53
697.27	15529.45
697.40	15578.61
697.54	15374.98
697.67	15403.07
697.80	15417.11
697.94	15145.61
698.07	15199.44
698.21	15337.53
698.34	15335.19
698.47	15234.55
698.61	14960.70
698.74	15075.39
698.87	15374.98
699.01	14960.70
699.14	15194.76
699.27	14864.74
699.40	14834.32
699.54	14665.80
699.67	14595.58
699.80	14235.14
699.94	14307.69
700.07	14319.40
700.20	14218.75
700.34	13963.64
700.47	13984.70
700.60	14195.35
700.73	14209.39
700.87	14104.07
701.00	14085.34
701.13	14211.73
701.26	13973.00
701.40	13940.23
701.53	13888.74
701.66	13956.61
701.79	13666.39
701.93	13507.23
702.06	13621.92
702.19	13631.28
702.32	13350.42
702.46	13348.08
702.59	13043.81
702.72	13116.36
702.85	12915.08
702.99	13139.77
703.12	12980.61
703.25	13167.85
703.38	13071.89
703.51	12978.27
703.65	12905.71
703.78	12688.04
703.91	12620.17
704.04	12772.30
704.17	12641.23
704.31	12549.95
704.44	12540.59
704.57	12505.48
704.70	12292.49
704.83	12131.00
704.96	12327.60
705.10	11967.16
705.23	12095.89
>>>>>End Processed Spectral Data<<<<<
