SpectraSuite Data File
++++++++++++++++++++++++++++++++++++
Date: Fri Oct 04 11:39:15 GMT-05:00 2013
User: price-jones
Dark Spectrum Present: No
Reference Spectrum Present: No
Number of Sampled Component Spectra: 1
Spectrometers: USB2+H05261
Integration Time (usec): 100000 (USB2+H05261)
Spectra Averaged: 1 (USB2+H05261)
Boxcar Smoothing: 0 (USB2+H05261)
Correct for Electrical Dark: No (USB2+H05261)
Strobe/Lamp Enabled: No (USB2+H05261)
Correct for Detector Non-linearity: No (USB2+H05261)
Correct for Stray Light: No (USB2+H05261)
Number of Pixels in Processed Spectrum: 2048
>>>>>Begin Processed Spectral Data<<<<<
365.73	9.36
365.92	9.36
366.12	9.36
366.32	0.00
366.52	0.00
366.72	9.36
366.91	0.00
367.11	7.02
367.31	0.00
367.51	0.00
367.70	0.00
367.90	0.00
368.10	16.38
368.30	0.00
368.49	0.00
368.69	0.00
368.89	25.75
369.09	0.00
369.28	74.90
369.48	0.00
369.68	7.02
369.87	0.00
370.07	14.04
370.27	2.34
370.47	9.36
370.66	138.09
370.86	180.22
371.06	332.36
371.25	278.52
371.45	241.08
371.65	250.44
371.84	215.33
372.04	203.63
372.24	236.39
372.44	241.08
372.63	273.84
372.83	330.02
373.03	330.02
373.22	252.78
373.42	210.65
373.62	259.80
373.81	299.59
374.01	313.63
374.21	325.33
374.40	290.23
374.60	379.17
374.79	442.36
374.99	280.86
375.19	360.44
375.38	383.85
375.58	372.15
375.78	292.57
375.97	341.72
376.17	344.06
376.37	330.02
376.56	369.80
376.76	304.27
376.95	315.97
377.15	358.10
377.35	360.44
377.54	315.97
377.74	325.33
377.93	330.02
378.13	315.97
378.33	355.76
378.52	404.91
378.72	334.70
378.91	374.49
379.11	315.97
379.31	402.57
379.50	315.97
379.70	451.72
379.89	327.68
380.09	367.46
380.28	362.78
380.48	400.23
380.68	388.53
380.87	430.66
381.07	407.25
381.26	440.02
381.46	369.80
381.65	442.36
381.85	386.19
382.04	344.06
382.24	437.68
382.43	379.17
382.63	418.96
382.83	463.43
383.02	388.53
383.22	454.06
383.41	341.72
383.61	379.17
383.80	482.15
384.00	386.19
384.19	411.93
384.39	397.89
384.58	414.27
384.78	433.00
384.97	435.34
385.17	421.30
385.36	388.53
385.56	454.06
385.75	367.46
385.95	505.56
386.14	440.02
386.34	416.62
386.53	430.66
386.72	423.64
386.92	498.53
387.11	456.40
387.31	444.70
387.50	437.68
387.70	470.45
387.89	566.41
388.09	454.06
388.28	479.81
388.48	472.79
388.67	498.53
388.86	543.00
389.06	440.02
389.25	444.70
389.45	514.92
389.64	594.50
389.84	482.15
390.03	528.96
390.22	535.98
390.42	535.98
390.61	521.94
390.81	568.75
391.00	601.52
391.19	531.30
391.39	503.22
391.58	575.77
391.78	489.17
391.97	524.28
392.16	489.17
392.36	519.60
392.55	610.88
392.75	624.92
392.94	627.26
393.13	716.20
393.33	657.69
393.52	638.97
393.71	713.86
393.91	650.67
394.10	566.41
394.29	683.44
394.49	547.69
394.68	723.23
394.88	596.84
395.07	683.44
395.26	664.71
395.46	634.29
395.65	702.16
395.84	716.20
396.04	716.20
396.23	695.14
396.42	683.44
396.62	648.33
396.81	763.01
397.00	620.24
397.19	608.54
397.39	709.18
397.58	753.65
397.77	730.25
397.97	709.18
398.16	716.20
398.35	774.72
398.55	727.91
398.74	688.12
398.93	763.01
399.12	734.93
399.32	774.72
399.51	748.97
399.70	858.98
399.90	842.59
400.09	819.19
400.28	819.19
400.47	732.59
400.67	947.92
400.86	821.53
401.05	814.51
401.24	898.77
401.44	880.04
401.63	945.58
401.82	903.45
402.01	856.64
402.21	933.87
402.40	957.28
402.59	887.06
402.78	844.93
402.97	887.06
403.17	950.26
403.36	943.24
403.55	873.02
403.74	922.17
403.93	1022.81
404.13	1039.20
404.32	983.02
404.51	990.05
404.70	1060.26
404.89	1053.24
405.09	999.41
405.28	1067.28
405.47	1093.03
405.66	1053.24
405.85	1060.26
406.05	1107.07
406.24	1067.28
406.43	1020.47
406.62	1114.10
406.81	1135.16
407.00	1118.78
407.20	1097.71
407.39	1149.20
407.58	1179.63
407.77	1172.61
407.96	1233.46
408.15	1242.82
408.34	1196.01
408.54	1184.31
408.73	1191.33
408.92	1177.29
409.11	1158.57
409.30	1249.85
409.49	1238.14
409.68	1233.46
409.87	1284.95
410.07	1313.04
410.26	1306.02
410.45	1299.00
410.64	1469.86
410.83	1355.17
411.02	1357.51
411.21	1434.75
411.40	1308.36
411.59	1416.02
411.78	1366.87
411.98	1469.86
412.17	1406.66
412.36	1483.90
412.55	1446.45
412.74	1493.26
412.93	1530.71
413.12	1530.71
413.31	1561.14
413.50	1612.63
413.69	1490.92
413.88	1678.16
414.07	1530.71
414.26	1561.14
414.45	1626.67
414.64	1577.52
414.83	1671.14
415.02	1671.14
415.22	1694.55
415.41	1827.96
415.60	1701.57
415.79	1706.25
415.98	1762.42
416.17	1729.66
416.36	1809.23
416.55	1851.36
416.74	1783.49
416.93	1914.56
417.12	1827.96
417.31	1900.52
417.50	1849.02
417.69	1982.43
417.88	1984.77
418.07	1973.07
418.26	2047.97
418.45	1947.33
418.64	2104.14
418.83	1944.99
419.02	2033.93
419.21	2092.44
419.39	2108.82
419.58	2033.93
419.77	1954.35
419.96	1956.69
420.15	2218.83
420.34	2120.53
420.53	2162.66
420.72	2132.23
420.91	2165.00
421.10	2188.40
421.29	2265.64
421.48	2169.68
421.67	2148.61
421.86	2050.31
422.05	2284.36
422.24	2284.36
422.43	2267.98
422.61	2150.95
422.80	2345.22
422.99	2312.45
423.18	2319.47
423.37	2361.60
423.56	2270.32
423.75	2275.00
423.94	2216.49
424.13	2143.93
424.32	2169.68
424.50	2286.70
424.69	2356.92
424.88	2340.54
425.07	2256.28
425.26	2228.19
425.45	2244.57
425.64	2363.94
425.83	2307.77
426.01	2380.32
426.20	2408.41
426.39	2368.62
426.58	2347.56
426.77	2312.45
426.96	2303.09
427.15	2406.07
427.33	2476.29
427.52	2413.09
427.71	2452.88
427.90	2415.43
428.09	2455.22
428.28	2483.31
428.46	2560.55
428.65	2541.82
428.84	2530.12
429.03	2534.80
429.22	2370.96
429.40	2497.35
429.59	2516.08
429.78	2551.18
429.97	2443.52
430.16	2480.97
430.34	2588.63
430.53	2651.83
430.72	2607.36
430.91	2513.74
431.10	2567.57
431.28	2665.87
431.47	2691.62
431.66	2668.21
431.85	2747.79
432.03	2670.55
432.22	2738.43
432.41	2820.35
432.60	2848.43
432.79	2722.04
432.97	2787.58
433.16	2677.57
433.35	2752.47
433.54	2754.81
433.72	2778.22
433.91	2808.64
434.10	2869.50
434.28	2841.41
434.47	2888.22
434.66	2857.79
434.85	3007.59
435.03	3080.14
435.22	3087.17
435.41	3243.98
435.59	3232.28
435.78	3143.34
435.97	3124.62
436.16	2974.82
436.34	3033.33
436.53	3068.44
436.72	3169.09
436.90	2904.60
437.09	3213.56
437.28	2918.65
437.46	3084.83
437.65	3190.15
437.84	3229.94
438.02	3136.32
438.21	3084.83
438.40	3063.76
438.58	3201.85
438.77	3342.28
438.96	3274.41
439.14	3339.94
439.33	3332.92
439.52	3459.31
439.70	3349.31
439.89	3351.65
440.08	3508.46
440.26	3419.52
440.45	3370.37
440.63	3447.61
440.82	3503.78
441.01	3421.86
441.19	3501.44
441.38	3583.36
441.57	3531.87
441.75	3620.81
441.94	3562.30
442.12	3581.02
442.31	3691.02
442.50	3651.24
442.68	3700.39
442.87	3894.65
443.05	3829.12
443.24	3843.16
443.43	3712.09
443.61	3941.46
443.80	3934.44
443.98	3716.77
444.17	3658.26
444.35	3840.82
444.54	3934.44
444.73	3911.04
444.91	3845.50
445.10	3763.58
445.28	3838.48
445.47	3749.54
445.65	3861.88
445.84	4009.34
446.02	3838.48
446.21	3929.76
446.39	3878.27
446.58	3854.86
446.77	4002.32
446.95	3798.69
447.14	3845.50
447.32	3950.82
447.51	3950.82
447.69	3948.48
447.88	3985.93
448.06	3981.25
448.25	3845.50
448.43	3894.65
448.62	3936.78
448.80	3840.82
448.99	4091.26
449.17	4051.47
449.36	4119.34
449.54	4028.06
449.73	4011.68
449.91	4161.47
450.10	4212.96
450.28	4198.92
450.46	4212.96
450.65	4084.23
450.83	4140.41
451.02	4180.20
451.20	4374.46
451.39	4224.67
451.57	4126.36
451.76	4191.90
451.94	4461.06
452.13	4358.08
452.31	4269.14
452.49	4224.67
452.68	4341.69
452.86	4294.88
453.05	4498.51
453.23	4360.42
453.42	4248.07
453.60	4318.29
453.78	4250.41
453.97	4318.29
454.15	4369.78
454.34	4306.59
454.52	4428.29
454.70	4430.63
454.89	4531.28
455.07	4519.57
455.26	4390.84
455.44	4580.43
455.62	4369.78
455.81	4678.73
455.99	4770.01
456.17	4662.35
456.36	4542.98
456.54	4512.55
456.73	4711.50
456.91	4795.76
457.09	4695.11
457.28	4957.25
457.46	4903.42
457.64	4933.85
457.83	4772.35
458.01	4779.37
458.19	4854.27
458.38	4830.87
458.56	4873.00
458.74	4931.51
458.93	4840.23
459.11	4943.21
459.29	4755.97
459.48	4933.85
459.66	5118.75
459.84	4887.04
460.03	5282.59
460.21	5067.26
460.39	5022.79
460.57	4933.85
460.76	5050.88
460.94	5160.88
461.12	5221.74
461.31	5149.18
461.49	5287.27
461.67	5041.51
461.85	5245.14
462.04	5331.74
462.22	5453.45
462.40	5259.18
462.59	5387.91
462.77	5254.50
462.95	5301.31
463.13	5334.08
463.32	5357.49
463.50	5298.97
463.68	5446.43
463.86	5446.43
464.05	5455.79
464.23	5432.38
464.41	5338.76
464.59	5219.39
464.78	5502.60
464.96	5490.90
465.14	5364.51
465.32	5549.41
465.50	5577.50
465.69	5469.83
465.87	5568.13
466.05	5502.60
466.23	5481.53
466.41	5626.65
466.60	5694.52
466.78	5507.28
466.96	5764.74
467.14	5481.53
467.32	5783.46
467.51	6001.13
467.69	5593.88
467.87	5687.50
468.05	5748.36
468.23	5685.16
468.41	5682.82
468.60	5593.88
468.78	5715.59
468.96	5661.76
469.14	5902.83
469.32	5951.98
469.50	5708.57
469.69	5994.11
469.87	5886.45
470.05	6129.86
470.23	5879.43
470.41	5975.39
470.59	6066.67
470.77	5900.49
470.95	6134.54
471.14	5996.45
471.32	6064.33
471.50	6169.65
471.68	6148.59
471.86	6115.82
472.04	6221.14
472.22	6464.56
472.40	6392.00
472.58	6230.51
472.77	6408.39
472.95	6352.21
473.13	6579.25
473.31	6513.71
473.49	6485.62
473.67	6401.37
473.85	6471.58
474.03	6635.42
474.21	6757.13
474.39	6904.58
474.57	6644.78
474.75	6806.28
474.93	6817.98
475.12	6745.42
475.30	6796.92
475.48	6792.23
475.66	6848.41
475.84	6918.62
476.02	6970.12
476.20	7243.96
476.38	7302.47
476.56	7330.56
476.74	7356.30
476.92	7201.83
477.10	7190.13
477.28	7459.29
477.46	7339.92
477.64	7487.37
477.82	7485.03
478.00	7728.45
478.18	7709.72
478.36	7541.21
478.54	7735.47
478.72	7812.71
478.90	7829.09
479.08	7948.46
479.26	7936.76
479.44	7920.37
479.62	8067.83
479.80	8255.07
479.98	7999.95
480.16	8325.29
480.34	8290.18
480.52	8533.59
480.70	8329.97
480.88	8322.94
481.06	8557.00
481.24	8774.67
481.41	8805.10
481.59	8753.60
481.77	8737.22
481.95	8795.73
482.13	8968.93
482.31	8933.82
482.49	9055.53
482.67	9076.60
482.85	9139.79
483.03	9352.78
483.21	9479.17
483.39	9556.41
483.57	9614.92
483.74	9692.16
483.92	9673.43
484.10	9577.47
484.28	9926.21
484.46	9909.83
484.64	10087.71
484.82	10113.45
485.00	9884.08
485.18	10223.46
485.35	10349.85
485.53	10263.25
485.71	10441.13
485.89	10693.91
486.07	10478.58
486.25	10480.92
486.43	10551.14
486.61	10647.10
486.78	10932.64
486.96	10956.05
487.14	11318.83
487.32	11267.34
487.50	11220.53
487.68	11328.19
487.85	11616.08
488.03	11536.50
488.21	11831.41
488.39	11707.36
488.57	11737.79
488.75	11910.99
488.92	12299.52
489.10	12049.08
489.28	12154.40
489.46	12226.96
489.64	12166.10
489.81	12526.55
489.99	12596.76
490.17	12355.69
490.35	12510.16
490.53	12765.28
490.70	12996.99
490.88	12931.46
491.06	13102.32
491.24	13088.28
491.41	13205.30
491.59	13233.39
491.77	13214.66
491.95	13350.42
492.13	13331.69
492.30	13348.08
492.48	13582.13
492.66	13497.87
492.84	13729.58
493.01	13837.25
493.19	13661.71
493.37	13914.48
493.54	14090.02
493.72	14403.66
493.90	14122.79
494.08	14122.79
494.25	14373.23
494.43	14516.00
494.61	14876.44
494.79	14452.81
494.96	14511.32
495.14	14724.31
495.32	15082.41
495.49	14867.08
495.67	15185.40
495.85	15426.47
496.02	15208.80
496.20	15377.32
496.38	15435.83
496.55	15250.93
496.73	15672.23
496.91	15417.11
497.09	15871.17
497.26	15950.75
497.44	15529.45
497.62	15917.98
497.79	16140.33
497.97	16035.01
498.14	16250.34
498.32	16231.62
498.50	16084.16
498.67	16269.06
498.85	16395.45
499.03	16449.28
499.20	16524.18
499.38	16318.22
499.56	16601.42
499.73	16592.06
499.91	17055.48
500.08	16971.22
500.26	16650.57
500.44	16875.26
500.61	17245.07
500.79	17118.68
500.97	17118.68
501.14	17050.80
501.32	17572.74
501.49	17296.56
501.67	17186.55
501.84	17764.67
502.02	17638.28
502.20	17916.80
502.37	17640.62
502.55	17645.30
502.72	17841.90
502.90	18052.55
503.07	17846.58
503.25	18001.06
503.43	17858.29
503.60	18075.96
503.78	17844.24
503.95	18288.95
504.13	18139.15
504.30	18214.05
504.48	18427.04
504.65	18401.29
504.83	18714.92
505.01	18651.73
505.18	18766.42
505.36	18841.31
505.53	18857.70
505.71	18747.69
505.88	19023.87
506.06	18855.36
506.23	19208.78
506.41	18806.20
506.58	19211.12
506.76	19012.17
506.93	19321.12
507.11	19379.64
507.28	19417.08
507.46	19344.53
507.63	19363.25
507.81	19543.47
507.98	19527.09
508.16	19660.50
508.33	19653.48
508.50	19484.96
508.68	19847.74
508.85	20114.56
509.03	19740.08
509.20	20056.05
509.38	19819.66
509.55	20435.22
509.73	20163.72
509.90	20243.29
510.08	20311.17
510.25	20212.87
510.42	20365.00
510.60	20233.93
510.77	20559.27
510.95	20657.57
511.12	20306.49
511.30	20601.40
511.47	20875.24
511.64	20879.92
511.82	20877.58
511.99	20692.68
512.17	21235.68
512.34	20933.75
512.51	21144.40
512.69	21078.86
512.86	21146.74
513.04	21252.06
513.21	21453.35
513.38	21502.50
513.56	21736.56
513.73	21479.10
513.90	21525.91
514.08	21397.18
514.25	21853.58
514.43	21914.44
514.60	21781.03
514.77	21881.67
514.95	21867.63
515.12	22059.55
515.29	21673.36
515.47	21668.68
515.64	22024.44
515.81	22047.85
515.99	22223.39
516.16	22363.82
516.33	22614.26
516.51	22415.31
516.68	22188.28
516.85	22265.52
517.03	22628.30
517.20	22754.69
517.37	22429.35
517.54	22452.76
517.72	22696.17
517.89	22874.06
518.06	22621.28
518.24	22686.81
518.41	22616.60
518.58	23019.17
518.75	22867.03
518.93	23166.62
519.10	23475.57
519.27	23199.39
519.45	22864.69
519.62	23175.98
519.79	23215.77
519.96	23040.23
520.14	23316.42
520.31	23576.22
520.48	23625.37
520.65	23749.42
520.83	23585.58
521.00	23765.80
521.17	23679.20
521.34	23573.88
521.52	23770.48
521.69	24011.56
521.86	24041.98
522.03	24079.43
522.20	23899.21
522.38	23826.65
522.55	24238.59
522.72	24025.60
522.89	24428.17
523.07	24706.70
523.24	24233.91
523.41	24716.06
523.58	24163.69
523.75	24617.75
523.92	24308.80
524.10	24524.13
524.27	24400.08
524.44	24453.92
524.61	24589.67
524.78	24397.74
524.96	25062.46
525.13	24732.44
525.30	24690.31
525.47	24877.55
525.64	25048.41
525.81	24889.26
525.98	25324.60
526.16	25223.95
526.33	25207.57
526.50	25177.14
526.67	25017.99
526.84	24954.79
527.01	25256.72
527.18	25443.96
527.36	25364.39
527.53	25263.74
527.70	25865.26
527.87	25764.62
528.04	25355.02
528.21	25703.76
528.38	25418.22
528.55	26003.35
528.72	25827.81
528.89	25703.76
529.07	25797.38
529.24	25722.49
529.41	26312.30
529.58	25717.81
529.75	25577.37
529.92	26127.40
530.09	25905.05
530.26	26384.86
530.43	26258.47
530.60	26022.08
530.77	26108.68
530.94	26288.90
531.11	26078.25
531.28	26045.48
531.46	26436.35
531.63	26590.83
531.80	26644.66
531.97	26827.22
532.14	26553.38
532.31	26103.99
532.48	26852.97
532.65	26719.56
532.82	26352.09
532.99	26581.46
533.16	27005.10
533.33	27105.74
533.50	26988.72
533.67	27316.39
533.84	26757.00
534.01	26726.58
534.18	26988.72
534.35	27541.08
534.52	26845.94
534.69	27171.28
534.86	27026.17
535.03	27009.78
535.20	27475.55
535.37	27260.22
535.54	27690.88
535.71	27115.11
535.88	27370.22
536.05	27199.37
536.22	27866.42
536.38	27536.40
536.55	27861.74
536.72	27784.50
536.89	27318.73
537.06	27571.51
537.23	27969.40
537.40	27817.27
537.57	27777.48
537.74	27529.38
537.91	27974.08
538.08	28093.45
538.25	28002.17
538.42	28056.00
538.59	28133.24
538.75	28123.88
538.92	28081.75
539.09	28320.48
539.26	28395.38
539.43	27964.72
539.60	28332.18
539.77	28100.47
539.94	28549.85
540.11	28613.05
540.28	28442.19
540.44	28318.14
540.61	28474.96
540.78	28620.07
540.95	28613.05
541.12	28856.46
541.29	28893.91
541.46	29092.86
541.62	28833.06
541.79	28837.74
541.96	28397.72
542.13	28952.43
542.30	28889.23
542.47	29373.72
542.63	29179.46
542.80	29369.04
542.97	29329.25
543.14	29352.66
543.31	29144.35
543.48	29441.60
543.64	29462.66
543.81	29745.87
543.98	29893.32
544.15	29598.41
544.32	29347.98
544.48	29694.38
544.65	29610.12
544.82	29696.72
544.99	29970.56
545.16	29434.58
545.32	29226.27
545.49	30249.08
545.66	30206.95
545.83	30878.69
546.00	30178.87
546.16	30450.37
546.33	29743.53
546.50	29340.96
546.67	30143.76
546.83	29628.84
547.00	30075.88
547.17	29865.24
547.34	29638.20
547.50	29949.50
547.67	30146.10
547.84	29790.34
548.00	30141.42
548.17	30328.66
548.34	30043.12
548.51	30146.10
548.67	30534.63
548.84	30375.47
549.01	30326.32
549.18	30309.94
549.34	30356.75
549.51	30323.98
549.68	30494.84
549.84	30204.61
550.01	30398.88
550.18	30361.43
550.34	30572.08
550.51	30501.86
550.68	30473.78
550.84	29986.94
551.01	30581.44
551.18	30635.27
551.34	30494.84
551.51	30340.36
551.68	30752.30
551.84	30485.48
552.01	30366.11
552.18	30789.75
552.34	30363.77
552.51	31077.63
552.68	30841.24
552.84	30827.20
553.01	30766.34
553.18	30726.55
553.34	30419.94
553.51	30789.75
553.67	31061.25
553.84	31353.82
554.01	31405.31
554.17	31028.48
554.34	30740.60
554.51	30951.24
554.67	31218.07
554.84	31070.61
555.00	31077.63
555.17	30780.39
555.33	30857.62
555.50	30944.22
555.67	31115.08
555.83	31112.74
556.00	31051.89
556.16	31606.59
556.33	31016.78
556.50	31168.91
556.66	31278.92
556.83	31321.05
556.99	31400.63
557.16	31257.85
557.32	31997.46
557.49	31541.06
557.65	31194.66
557.82	31536.38
557.98	31424.03
558.15	31597.23
558.32	31512.97
558.48	31166.57
558.65	31417.01
558.81	31442.76
558.98	31824.26
559.14	31494.25
559.31	31407.65
559.47	31625.32
559.64	31941.29
559.80	31868.73
559.97	31899.16
560.13	31524.68
560.30	32039.59
560.46	31786.82
560.63	31625.32
560.79	31807.88
560.96	31901.50
561.12	31597.23
561.29	31644.04
561.45	31817.24
561.61	31768.09
561.78	31779.79
561.94	31758.73
562.11	32254.92
562.27	31768.09
562.44	31938.95
562.60	31681.49
562.77	31861.71
562.93	31789.16
563.10	32072.36
563.26	31852.35
563.42	32259.60
563.59	32189.39
563.75	31847.67
563.92	32140.24
564.08	31868.73
564.24	31819.58
564.41	31751.71
564.57	32081.72
564.74	31889.80
564.90	32165.98
565.07	32467.91
565.23	32400.04
565.39	31751.71
565.56	32180.03
565.72	32154.28
565.88	32584.94
566.05	32587.28
566.21	31929.59
566.38	32390.67
566.54	32254.92
566.70	32198.75
566.87	32416.42
567.03	32163.64
567.19	33062.41
567.36	32348.54
567.52	32320.46
567.68	32156.62
567.85	31873.42
568.01	32119.17
568.17	32020.87
568.34	32329.82
568.50	32708.99
568.66	32416.42
568.83	32467.91
568.99	32271.31
569.15	32580.26
569.32	32137.90
569.48	32023.21
569.64	32711.33
569.81	32680.90
569.97	32479.61
570.13	32488.98
570.30	32648.13
570.46	32669.20
570.62	32343.86
570.78	32503.02
570.95	32465.57
571.11	32561.53
571.27	32594.30
571.43	32669.20
571.60	32369.61
571.76	32437.48
571.92	32877.51
572.09	33001.55
572.25	32533.45
572.41	32524.08
572.57	32194.07
572.74	32790.91
572.90	32046.62
573.06	32271.31
573.22	32432.80
573.38	33060.07
573.55	32453.87
573.71	32685.58
573.87	32685.58
574.03	32390.67
574.20	32790.91
574.36	32638.77
574.52	32613.02
574.68	33076.45
574.84	32606.00
575.01	33324.55
575.17	32921.98
575.33	32762.82
575.49	32772.18
575.65	32861.12
575.82	32685.58
575.98	32718.35
576.14	33064.75
576.30	32636.43
576.46	32996.87
576.62	32891.55
576.79	33172.41
576.95	32496.00
577.11	32629.41
577.27	32716.01
577.43	32882.19
577.59	33259.01
577.75	33380.72
577.92	32411.74
578.08	32631.75
578.24	32734.73
578.40	32924.32
578.56	32746.44
578.72	32917.29
578.88	32849.42
579.04	33039.00
579.21	33156.03
579.37	33132.62
579.53	32872.82
579.69	33209.86
579.85	33109.22
580.01	33167.73
580.17	32664.52
580.33	32613.02
580.49	32716.01
580.65	33366.68
580.82	33310.50
580.98	32760.48
581.14	32840.06
581.30	33097.52
581.46	32678.56
581.62	32570.90
581.78	32718.35
581.94	33523.49
582.10	32994.53
582.26	32994.53
582.42	33188.80
582.58	32992.19
582.74	32669.20
582.90	33357.32
583.06	33172.41
583.22	33074.11
583.38	32973.47
583.54	33214.54
583.70	33244.97
583.86	32884.53
584.02	33474.34
584.18	33532.86
584.34	33549.24
584.50	32931.34
584.66	32760.48
584.82	32833.04
584.98	33188.80
585.14	32994.53
585.30	33031.98
585.46	33177.09
585.62	33043.68
585.78	33102.20
585.94	33003.89
586.10	33312.84
586.26	33434.55
586.42	33453.28
586.58	33317.53
586.74	33230.93
586.90	32891.55
587.06	33345.61
587.22	33322.21
587.38	32793.25
587.54	33275.40
587.70	33352.63
587.86	33095.18
588.02	33638.18
588.18	33345.61
588.34	33261.35
588.49	33408.81
588.65	32926.66
588.81	33200.50
588.97	33317.53
589.13	33064.75
589.29	32954.74
589.45	33558.60
589.61	33511.79
589.77	33656.90
589.93	33600.73
590.08	33511.79
590.24	33326.89
590.40	33736.48
590.56	34010.32
590.72	33582.01
590.88	33514.13
591.04	33219.22
591.20	33713.08
591.35	33266.03
591.51	34199.91
591.67	33654.56
591.83	33895.64
591.99	33455.62
592.15	33404.13
592.31	33457.96
592.46	33490.73
592.62	33102.20
592.78	33251.99
592.94	33415.83
593.10	33277.74
593.26	33572.64
593.41	33422.85
593.57	33628.82
593.73	33474.34
593.89	33654.56
594.05	33455.62
594.20	33071.77
594.36	33340.93
594.52	33497.75
594.68	33394.76
594.84	33319.87
594.99	33607.75
595.15	33432.21
595.31	34054.79
595.47	33558.60
595.62	33450.94
595.78	33350.29
595.94	33528.17
596.10	33874.57
596.25	33219.22
596.41	33359.66
596.57	33319.87
596.73	33095.18
596.88	33340.93
597.04	33661.58
597.20	34007.98
597.36	33879.25
597.51	33766.91
597.67	33357.32
597.83	33436.89
597.99	33942.45
598.14	33769.25
598.30	33518.81
598.46	33596.05
598.61	34085.22
598.77	33411.15
598.93	34029.05
599.09	33659.24
599.24	34206.93
599.40	33708.40
599.56	33715.42
599.71	33837.12
599.87	33626.48
600.03	33336.25
600.18	33511.79
600.34	33404.13
600.50	33984.58
600.65	33802.02
600.81	33736.48
600.97	33586.69
601.12	34162.46
601.28	34059.48
601.44	33858.19
601.59	33584.35
601.75	33514.13
601.91	33897.98
602.06	33825.42
602.22	33577.33
602.37	33638.18
602.53	33497.75
602.69	33787.97
602.84	33921.38
603.00	33586.69
603.16	34216.29
603.31	34174.16
603.47	33940.11
603.62	33542.22
603.78	33420.51
603.94	33574.98
604.09	33310.50
604.25	33193.48
604.40	33369.02
604.56	33528.17
604.71	33783.29
604.87	34075.86
605.03	33935.43
605.18	34085.22
605.34	33797.34
605.49	33350.29
605.65	33743.50
605.80	33469.66
605.96	33476.68
606.12	33649.88
606.27	33738.82
606.43	33633.50
606.58	33734.14
606.74	33792.65
606.89	33427.53
607.05	33699.03
607.20	33888.62
607.36	33769.25
607.51	34195.23
607.67	33268.37
607.82	33357.32
607.98	33823.08
608.13	33427.53
608.29	33727.12
608.44	33373.70
608.60	33319.87
608.75	33577.33
608.91	33989.26
609.06	33345.61
609.22	33713.08
609.37	33944.79
609.53	33329.23
609.68	33844.15
609.84	33291.78
609.99	33830.10
610.15	33537.54
610.30	33591.37
610.46	33479.02
610.61	33729.46
610.76	33942.45
610.92	34211.61
611.07	34160.12
611.23	34213.95
611.38	33996.28
611.54	33839.47
611.69	33722.44
611.84	33776.27
612.00	33837.12
612.15	33394.76
612.31	33970.54
612.46	33532.86
612.62	33605.41
612.77	33771.59
612.92	33680.31
613.08	33596.05
613.23	33362.00
613.39	33446.26
613.54	33401.79
613.69	33261.35
613.85	33221.56
614.00	33184.12
614.15	33071.77
614.31	33198.16
614.46	33160.71
614.62	32896.23
614.77	33359.66
614.92	32985.17
615.08	33270.72
615.23	33202.84
615.38	32840.06
615.54	32914.95
615.69	32432.80
615.84	32708.99
616.00	33240.29
616.15	32931.34
616.30	33048.36
616.46	32617.71
616.61	32982.83
616.76	32496.00
616.92	32196.41
617.07	32671.54
617.22	32987.51
617.37	31955.33
617.53	32793.25
617.68	32678.56
617.83	32563.87
617.99	32371.95
618.14	32739.41
618.29	32659.84
618.45	32568.55
618.60	32755.80
618.75	32311.10
618.90	32744.09
619.06	32400.04
619.21	32598.98
619.36	32542.81
619.51	32095.77
619.67	32283.01
619.82	32245.56
619.97	32432.80
620.12	32416.42
620.28	32018.53
620.43	32629.41
620.58	33291.78
620.73	32364.93
620.89	32692.60
621.04	33242.63
621.19	32411.74
621.34	32306.41
621.49	32334.50
621.65	32236.20
621.80	32610.68
621.95	32723.03
622.10	32573.24
622.25	32425.78
622.41	32315.78
622.56	32154.28
622.71	32364.93
622.86	32327.48
623.01	32137.90
623.16	32292.37
623.32	31782.13
623.47	32053.64
623.62	32086.40
623.77	31814.90
623.92	32119.17
624.07	31971.72
624.23	32217.47
624.38	31903.84
624.53	31847.67
624.68	32287.69
624.83	32229.18
624.98	32095.77
625.13	31630.00
625.29	31999.80
625.44	32201.09
625.59	31669.79
625.74	31894.48
625.89	31505.95
626.04	31601.91
626.19	31711.92
626.34	31960.02
626.49	31501.27
626.65	31842.99
626.80	31913.20
626.95	31386.58
627.10	31541.06
627.25	31339.77
627.40	31491.91
627.55	31447.44
627.70	31295.30
627.85	31391.26
628.00	31672.13
628.15	31426.37
628.30	31433.39
628.45	31559.78
628.60	31374.88
628.76	31421.69
628.91	31421.69
629.06	31700.22
629.21	31424.03
629.36	31005.08
629.51	30902.09
629.66	31276.58
629.81	30874.01
629.96	31307.01
630.11	31159.55
630.26	31339.77
630.41	31344.45
630.56	31136.15
630.71	31157.21
630.86	31503.61
631.01	31353.82
631.16	31377.22
631.31	31302.32
631.46	30487.82
631.61	31197.00
631.76	30824.86
631.91	31023.80
632.06	30518.25
632.21	30995.71
632.36	31461.48
632.51	30946.56
632.66	31164.23
632.81	30848.26
632.96	30925.50
633.10	31260.20
633.25	30862.30
633.40	30824.86
633.55	30932.52
633.70	31056.57
633.85	30595.48
634.00	30426.96
634.15	30866.98
634.30	30698.47
634.45	30885.71
634.60	30441.01
634.75	30698.47
634.90	31072.95
635.05	30857.62
635.19	30876.35
635.34	30607.19
635.49	30628.25
635.64	30766.34
635.79	30431.65
635.94	30258.45
636.09	30059.50
636.24	30239.72
636.39	30625.91
636.53	30359.09
636.68	30338.02
636.83	29989.28
636.98	30441.01
637.13	30424.62
637.28	30967.63
637.43	30450.37
637.57	30326.32
637.72	29944.81
637.87	30134.40
638.02	30490.16
638.17	30841.24
638.32	30354.41
638.46	30092.27
638.61	30150.78
638.76	29933.11
638.91	29930.77
639.06	30019.71
639.20	30127.38
639.35	30286.53
639.50	30602.50
639.65	30309.94
639.80	29909.71
639.94	30148.44
640.09	30110.99
640.24	29792.68
640.39	29589.05
640.54	29589.05
640.68	29567.99
640.83	29544.58
640.98	29350.32
641.13	29532.88
641.27	29848.85
641.42	29427.56
641.57	29823.11
641.72	29560.97
641.86	29956.52
642.01	29579.69
642.16	29493.09
642.31	29734.17
642.45	29612.46
642.60	29324.57
642.75	29560.97
642.90	29404.15
643.04	29151.37
643.19	29193.50
643.34	29553.94
643.48	29237.97
643.63	29511.81
643.78	29427.56
643.93	29226.27
644.07	29680.33
644.22	29816.08
644.37	29408.83
644.51	29490.75
644.66	29673.31
644.81	29586.71
644.95	29549.26
645.10	29305.85
645.25	29635.86
645.39	29413.51
645.54	29146.69
645.69	29284.78
645.83	29383.09
645.98	29694.38
646.13	29399.47
646.27	29441.60
646.42	29259.04
646.57	28940.72
646.71	29013.28
646.86	29200.52
647.00	29317.55
647.15	29153.71
647.30	28950.09
647.44	29039.03
647.59	28779.23
647.74	28507.72
647.88	28723.05
648.03	28940.72
648.17	29591.39
648.32	29242.65
648.47	29013.28
648.61	28863.49
648.76	29303.51
648.90	29041.37
649.05	29074.13
649.20	28835.40
649.34	28624.75
649.49	28662.20
649.63	28802.63
649.78	28907.96
649.92	28924.34
650.07	28861.15
650.21	28650.50
650.36	28783.91
650.51	29008.60
650.65	29062.43
650.80	28645.82
650.94	28577.94
651.09	28830.72
651.23	28856.46
651.38	28439.85
651.52	29069.45
651.67	28893.91
651.81	28652.84
651.96	28680.92
652.10	28442.19
652.25	28699.65
652.39	28379.00
652.54	28430.49
652.68	28577.94
652.83	28526.45
652.97	28507.72
653.12	28397.72
653.26	28318.14
653.41	28500.70
653.55	28126.22
653.70	28297.08
653.84	28379.00
653.99	28327.50
654.13	28442.19
654.27	28217.50
654.42	28397.72
654.56	27936.63
654.71	28554.54
654.85	28229.20
655.00	28559.22
655.14	28215.16
655.29	28397.72
655.43	28320.48
655.57	27716.62
655.72	28259.63
655.86	28376.66
656.01	28011.53
656.15	27922.59
656.30	27779.82
656.44	27906.21
656.58	27749.39
656.73	27793.86
656.87	27695.56
657.01	28163.67
657.16	28191.75
657.30	28266.65
657.45	27730.67
657.59	27796.20
657.73	27304.69
657.88	27782.16
658.02	27606.62
658.16	27468.53
658.31	27335.12
658.45	27534.06
658.60	27681.52
658.74	27718.96
658.88	27269.58
659.03	27564.49
659.17	27782.16
659.31	27611.30
659.46	27489.59
659.60	27896.85
659.74	27791.52
659.89	27351.50
660.03	27557.47
660.17	27391.29
660.32	27054.25
660.46	27391.29
660.60	27171.28
660.74	27615.98
660.89	27089.36
661.03	26852.97
661.17	27037.87
661.32	27042.55
661.46	27173.62
661.60	27159.58
661.74	26726.58
661.89	27096.38
662.03	27026.17
662.17	27021.48
662.31	26883.39
662.46	27122.13
662.60	26820.20
662.74	26661.04
662.88	26609.55
663.03	26815.52
663.17	26553.38
663.31	26445.71
663.45	26939.57
663.60	26235.06
663.74	26171.87
663.88	26401.24
664.02	26225.70
664.17	26881.05
664.31	26424.65
664.45	26335.71
664.59	26555.72
664.73	26621.25
664.88	26375.50
665.02	26253.79
665.16	25834.83
665.30	26153.15
665.44	26216.34
665.59	26202.30
665.73	26064.21
665.87	25671.00
666.01	26307.62
666.15	25970.58
666.29	25930.80
666.44	26080.59
666.58	25542.27
666.72	25972.92
666.86	25855.90
667.00	26466.78
667.14	25769.30
667.28	25703.76
667.43	25689.72
667.57	25902.71
667.71	25455.67
667.85	25469.71
667.99	25823.13
668.13	25401.83
668.27	25362.04
668.41	25638.23
668.56	25127.99
668.70	25397.15
668.84	25479.07
668.98	25205.23
669.12	25518.86
669.26	25284.81
669.40	25076.50
669.54	25362.04
669.68	25205.23
669.82	25294.17
669.96	25214.59
670.10	25025.01
670.25	24865.85
670.39	25020.33
670.53	24496.05
670.67	24893.94
670.81	25095.22
670.95	24737.12
671.09	24194.12
671.23	25036.71
671.37	24699.67
671.51	24940.75
671.65	25015.65
671.79	24533.50
671.93	24648.18
672.07	24732.44
672.21	24250.29
672.35	24105.18
672.49	23716.65
672.63	23838.36
672.77	23934.32
672.91	24224.54
673.05	23749.42
673.19	24285.40
673.33	24121.56
673.47	24074.75
673.61	24046.66
673.75	24133.26
673.89	24032.62
674.03	23976.45
674.17	23817.29
674.31	23901.55
674.45	23826.65
674.59	23718.99
674.73	23616.01
674.87	23655.79
675.01	23393.65
675.15	23208.75
675.29	22780.43
675.43	23110.45
675.56	23438.12
675.70	22955.97
675.84	23337.48
675.98	22628.30
676.12	23274.29
676.26	23297.69
676.40	22974.70
676.54	23058.96
676.68	22869.37
676.82	22171.89
676.96	22745.33
677.10	22625.96
677.23	22569.79
677.37	22338.07
677.51	22860.01
677.65	22239.77
677.79	22171.89
677.93	22525.32
678.07	22506.59
678.21	22270.20
678.34	21855.92
678.48	22001.04
678.62	21996.35
678.76	21970.61
678.90	21879.33
679.04	21731.87
679.18	22162.53
679.31	21841.88
679.45	21331.64
679.59	21387.82
679.73	21303.56
679.87	21521.23
680.00	21383.13
680.14	21682.72
680.28	21348.03
680.42	21535.27
680.56	21476.76
680.70	20945.45
680.83	20940.77
680.97	21120.99
681.11	20886.94
681.25	21060.14
681.39	21006.31
681.52	20695.02
681.66	20931.41
681.80	20720.76
681.94	20812.04
682.07	20706.72
682.21	20444.58
682.35	20706.72
682.49	20215.21
682.62	20273.72
682.76	20262.02
682.90	20177.76
683.04	20130.95
683.17	20016.26
683.31	20114.56
683.45	19932.00
683.59	19939.02
683.72	19995.20
683.86	19686.25
684.00	19674.54
684.13	19562.20
684.27	19421.77
684.41	19290.70
684.55	19297.72
684.68	19012.17
684.82	19466.24
684.96	19295.38
685.09	18656.41
685.23	18515.98
685.37	18853.02
685.50	18455.12
685.64	18824.93
685.78	18813.23
685.91	18853.02
686.05	18349.80
686.19	18637.69
686.32	19002.81
686.46	18473.85
686.60	18436.40
686.73	18640.03
686.87	18258.52
687.01	18300.65
687.14	18405.97
687.28	18174.26
687.42	18178.94
687.55	17862.97
687.69	17858.29
687.82	17710.83
687.96	17898.08
688.10	18026.81
688.23	17965.95
688.37	17991.70
688.50	17759.98
688.64	17771.69
688.78	17858.29
688.91	17521.25
689.05	17261.45
689.18	17235.70
689.32	17282.52
689.46	17078.89
689.59	17128.04
689.73	17034.42
689.86	16901.01
690.00	16819.09
690.13	17036.76
690.27	17008.67
690.41	16774.62
690.54	16460.99
690.68	16594.40
690.81	16905.69
690.95	16985.27
691.08	16842.50
691.22	16404.81
691.35	16681.00
691.49	16627.17
691.62	16350.98
691.76	16421.20
691.89	16229.27
692.03	16350.98
692.16	15946.07
692.30	15784.57
692.43	15992.88
692.57	15948.41
692.70	16006.92
692.84	15807.98
692.97	15763.51
693.11	15971.82
693.24	15744.78
693.38	15651.16
693.51	15571.58
693.65	15524.77
693.78	15480.30
693.92	15314.13
694.05	14963.04
694.19	15101.14
694.32	15213.48
694.45	14883.47
694.59	14895.17
694.72	15023.90
694.86	14848.36
694.99	14857.72
695.13	14937.30
695.26	14927.94
695.39	14712.61
695.53	14878.79
695.66	14939.64
695.80	14761.76
695.93	14937.30
696.07	14703.25
696.20	14806.23
696.33	14303.01
696.47	14303.01
696.60	13965.98
696.73	14066.62
696.87	13870.01
697.00	14073.64
697.14	13781.07
697.27	13689.79
697.40	13671.07
697.54	13563.40
697.67	13685.11
697.80	13343.39
697.94	13261.48
698.07	13483.83
698.21	13437.02
698.34	13610.22
698.47	13341.05
698.61	13067.21
698.74	13348.08
698.87	13270.84
699.01	13298.92
699.14	13156.15
699.27	12865.92
699.40	12978.27
699.54	12889.33
699.67	12912.74
699.80	12753.58
699.94	12762.94
700.07	12821.45
700.20	12587.40
700.34	12456.33
700.47	12334.62
700.60	12346.33
700.73	12507.82
700.87	12671.66
701.00	12573.36
701.13	12315.90
701.26	12290.15
701.40	12358.03
701.53	12355.69
701.66	12177.81
701.79	11899.28
701.93	11887.58
702.06	11943.75
702.19	11887.58
702.32	11719.06
702.46	11756.51
702.59	11714.38
702.72	11723.74
702.85	11623.10
702.99	11473.31
703.12	11538.84
703.25	11705.02
703.38	11342.24
703.51	11311.81
703.65	11386.71
703.78	11407.77
703.91	11595.01
704.04	11609.06
704.17	11389.05
704.31	11356.28
704.44	10944.34
704.57	11054.35
704.70	11094.14
704.83	10759.44
704.96	10778.17
705.10	10925.62
705.23	10736.04
>>>>>End Processed Spectral Data<<<<<
