SpectraSuite Data File
++++++++++++++++++++++++++++++++++++
Date: Fri Oct 04 11:39:22 GMT-05:00 2013
User: price-jones
Dark Spectrum Present: No
Reference Spectrum Present: No
Number of Sampled Component Spectra: 1
Spectrometers: USB2+H05261
Integration Time (usec): 100000 (USB2+H05261)
Spectra Averaged: 1 (USB2+H05261)
Boxcar Smoothing: 0 (USB2+H05261)
Correct for Electrical Dark: No (USB2+H05261)
Strobe/Lamp Enabled: No (USB2+H05261)
Correct for Detector Non-linearity: No (USB2+H05261)
Correct for Stray Light: No (USB2+H05261)
Number of Pixels in Processed Spectrum: 2048
>>>>>Begin Processed Spectral Data<<<<<
365.73	112.35
365.92	112.35
366.12	112.35
366.32	0.00
366.52	0.00
366.72	0.00
366.91	0.00
367.11	0.00
367.31	0.00
367.51	0.00
367.70	0.00
367.90	0.00
368.10	0.00
368.30	0.00
368.49	0.00
368.69	0.00
368.89	0.00
369.09	0.00
369.28	0.00
369.48	0.00
369.68	0.00
369.87	0.00
370.07	0.00
370.27	79.58
370.47	79.58
370.66	189.58
370.86	283.20
371.06	299.59
371.25	236.39
371.45	269.16
371.65	313.63
371.84	280.86
372.04	290.23
372.24	320.65
372.44	273.84
372.63	397.89
372.83	388.53
373.03	308.95
373.22	351.08
373.42	292.57
373.62	337.04
373.81	383.85
374.01	297.25
374.21	332.36
374.40	308.95
374.60	479.81
374.79	411.93
374.99	346.40
375.19	390.87
375.38	322.99
375.58	390.87
375.78	358.10
375.97	393.21
376.17	465.77
376.37	390.87
376.56	409.59
376.76	409.59
376.95	425.98
377.15	449.38
377.35	449.38
377.54	468.11
377.74	482.15
377.93	393.21
378.13	393.21
378.33	514.92
378.52	554.71
378.72	559.39
378.91	498.53
379.11	496.19
379.31	507.90
379.50	418.96
379.70	550.03
379.89	498.53
380.09	475.13
380.28	505.56
380.48	496.19
380.68	437.68
380.87	437.68
381.07	449.38
381.26	447.04
381.46	477.47
381.65	538.32
381.85	528.96
382.04	507.90
382.24	550.03
382.43	540.66
382.63	571.09
382.83	409.59
383.02	489.17
383.22	587.47
383.41	507.90
383.61	496.19
383.80	535.98
384.00	533.64
384.19	465.77
384.39	482.15
384.58	568.75
384.78	533.64
384.97	580.45
385.17	514.92
385.36	561.73
385.56	550.03
385.75	547.69
385.95	550.03
386.14	545.34
386.34	587.47
386.53	603.86
386.72	610.88
386.92	653.01
387.11	601.52
387.31	634.29
387.50	554.71
387.70	533.64
387.89	667.05
388.09	578.11
388.28	643.65
388.48	638.97
388.67	692.80
388.86	650.67
389.06	601.52
389.25	683.44
389.45	606.20
389.64	709.18
389.84	713.86
390.03	688.12
390.22	711.52
390.42	671.73
390.61	702.16
390.81	690.46
391.00	671.73
391.19	667.05
391.39	781.74
391.58	697.48
391.78	744.29
391.97	788.76
392.16	826.21
392.36	739.61
392.55	779.40
392.75	723.23
392.94	697.48
393.13	814.51
393.33	730.25
393.52	837.91
393.71	870.68
393.91	737.27
394.10	802.80
394.29	791.10
394.49	809.83
394.68	770.04
394.88	805.14
395.07	854.30
395.26	791.10
395.46	903.45
395.65	835.57
395.84	873.02
396.04	924.51
396.23	945.58
396.42	877.70
396.62	952.60
396.81	964.30
397.00	863.66
397.19	940.90
397.39	877.70
397.58	976.00
397.77	905.79
397.97	908.13
398.16	968.98
398.35	1004.09
398.55	947.92
398.74	1041.54
398.93	1081.33
399.12	1041.54
399.32	1086.01
399.51	973.66
399.70	1139.84
399.90	1078.99
400.09	1057.92
400.28	1097.71
400.47	1064.94
400.67	1163.25
400.86	1151.54
401.05	1135.16
401.24	1170.27
401.44	1090.69
401.63	1228.78
401.82	1165.59
402.01	1158.57
402.21	1282.61
402.40	1179.63
402.59	1170.27
402.78	1210.06
402.97	1240.48
403.17	1310.70
403.36	1247.51
403.55	1287.29
403.74	1394.96
403.93	1315.38
404.13	1329.42
404.32	1296.66
404.51	1299.00
404.70	1460.49
404.89	1409.00
405.09	1334.11
405.28	1493.26
405.47	1313.04
405.66	1460.49
405.85	1378.58
406.05	1423.05
406.24	1453.47
406.43	1439.43
406.62	1504.96
406.81	1570.50
407.00	1638.38
407.20	1479.22
407.39	1671.14
407.58	1568.16
407.77	1643.06
407.96	1673.48
408.15	1589.22
408.34	1521.35
408.54	1687.53
408.73	1657.10
408.92	1724.97
409.11	1689.87
409.30	1769.44
409.49	1717.95
409.68	1816.26
409.87	1715.61
410.07	1778.81
410.26	1844.34
410.45	1863.07
410.64	1792.85
410.83	1851.36
411.02	1863.07
411.21	1949.67
411.40	1940.30
411.59	1954.35
411.78	1914.56
411.98	1944.99
412.17	2083.08
412.36	2047.97
412.55	2125.21
412.74	2036.27
412.93	2022.22
413.12	2003.50
413.31	2223.51
413.50	2221.17
413.69	2143.93
413.88	2331.17
414.07	2328.83
414.26	2359.26
414.45	2310.11
414.64	2314.79
414.83	2300.75
415.02	2319.47
415.22	2394.37
415.41	2525.44
415.60	2448.20
415.79	2415.43
415.98	2537.14
416.17	2436.50
416.36	2525.44
416.55	2513.74
416.74	2658.85
416.93	2626.08
417.12	2609.70
417.31	2583.95
417.50	2764.17
417.69	2836.73
417.88	2775.88
418.07	2698.64
418.26	2871.84
418.45	2768.85
418.64	2771.19
418.83	2839.07
419.02	2871.84
419.21	2906.95
419.39	2967.80
419.58	2904.60
419.77	2881.20
419.96	3007.59
420.15	3171.43
420.34	3087.17
420.53	3038.02
420.72	3103.55
420.91	3098.87
421.10	3103.55
421.29	3164.40
421.48	3148.02
421.67	3164.40
421.86	3157.38
422.05	3220.58
422.24	3098.87
422.43	3171.43
422.61	3222.92
422.80	3332.92
422.99	3384.41
423.18	3314.20
423.37	3337.60
423.56	3351.65
423.75	3363.35
423.94	3115.25
424.13	3033.33
424.32	3152.70
424.50	3314.20
424.69	3449.95
424.88	3428.88
425.07	3384.41
425.26	3253.34
425.45	3323.56
425.64	3302.50
425.83	3335.26
426.01	3391.44
426.20	3452.29
426.39	3449.95
426.58	3365.69
426.77	3293.13
426.96	3454.63
427.15	3499.10
427.33	3375.05
427.52	3442.93
427.71	3461.65
427.90	3440.59
428.09	3616.13
428.28	3508.46
428.46	3499.10
428.65	3534.21
428.84	3658.26
429.03	3613.79
429.22	3632.51
429.40	3798.69
429.59	3705.07
429.78	3562.30
429.97	3536.55
430.16	3506.12
430.34	3908.69
430.53	3845.50
430.72	3744.86
430.91	3772.94
431.10	3728.47
431.28	3868.91
431.47	3882.95
431.66	3915.72
431.85	3899.33
432.03	3974.23
432.22	3999.98
432.41	4007.00
432.60	4133.39
432.79	4011.68
432.97	4039.76
433.16	4053.81
433.35	3934.44
433.54	4182.54
433.72	4060.83
433.91	4159.13
434.10	4124.02
434.28	4149.77
434.47	4126.36
434.66	4351.06
434.85	4142.75
435.03	4285.52
435.22	4386.16
435.41	4863.63
435.59	4748.95
435.78	4610.86
435.97	4325.31
436.16	4601.49
436.34	4285.52
436.53	4353.40
436.72	4589.79
436.90	4358.08
437.09	4484.47
437.28	4355.74
437.46	4311.27
437.65	4526.60
437.84	4601.49
438.02	4578.09
438.21	4559.36
438.40	4517.23
438.58	4718.52
438.77	4713.84
438.96	4638.94
439.14	4858.95
439.33	4730.22
439.52	4788.74
439.70	4816.82
439.89	4968.96
440.08	5055.56
440.26	4877.68
440.45	5029.81
440.63	5015.77
440.82	5081.30
441.01	5064.92
441.19	5165.56
441.38	5181.95
441.57	5139.82
441.75	5348.12
441.94	5289.61
442.12	5310.68
442.31	5455.79
442.50	5521.32
442.68	5380.89
442.87	5593.88
443.05	5453.45
443.24	5563.45
443.43	5582.18
443.61	5582.18
443.80	5717.93
443.98	5561.11
444.17	5425.36
444.35	5504.94
444.54	5628.99
444.73	5547.07
444.91	5504.94
445.10	5598.56
445.28	5537.71
445.47	5507.28
445.65	5586.86
445.84	5610.26
446.02	5834.96
446.21	5446.43
446.39	5600.90
446.58	5638.35
446.77	5720.27
446.95	5612.60
447.14	5764.74
447.32	5748.36
447.51	5673.46
447.69	5668.78
447.88	5818.57
448.06	5884.11
448.25	5575.16
448.43	5921.56
448.62	5785.80
448.80	5783.46
448.99	5834.96
449.17	5872.40
449.36	5923.90
449.54	6045.60
449.73	6015.18
449.91	6045.60
450.10	6085.39
450.28	6078.37
450.46	6029.22
450.65	6193.06
450.83	6136.88
451.02	6188.38
451.20	6204.76
451.39	6179.01
451.57	6228.17
451.76	6090.07
451.94	6169.65
452.13	6274.98
452.31	6232.85
452.49	6167.31
452.68	6595.63
452.86	6291.36
453.05	6410.73
453.23	6286.68
453.42	6317.11
453.60	6286.68
453.78	6473.92
453.97	6387.32
454.15	6452.86
454.34	6450.52
454.52	6593.29
454.70	6476.26
454.89	6609.67
455.07	6729.04
455.26	6520.73
455.44	6782.87
455.62	6775.85
455.81	6803.94
455.99	6829.68
456.17	6750.10
456.36	6794.58
456.54	6977.14
456.73	6813.30
456.91	7035.65
457.09	6918.62
457.28	6949.05
457.46	6927.99
457.64	7063.74
457.83	7105.87
458.01	7052.03
458.19	7037.99
458.38	7150.34
458.56	7283.75
458.74	7307.15
458.93	7220.55
459.11	7311.83
459.29	7435.88
459.48	7391.41
459.66	7232.26
459.84	7353.96
460.03	7377.37
460.21	7405.46
460.39	7487.37
460.57	7407.80
460.76	7534.18
460.94	7620.78
461.12	7463.97
461.31	7475.67
461.49	7485.03
461.67	7445.24
461.85	7765.90
462.04	7531.84
462.22	7953.14
462.40	7751.85
462.59	7801.01
462.77	7833.77
462.95	7751.85
463.13	7833.77
463.32	7850.16
463.50	7852.50
463.68	7887.61
463.86	7845.48
464.05	7761.22
464.23	7999.95
464.41	8058.46
464.59	7733.13
464.78	8116.98
464.96	8023.36
465.14	7922.71
465.32	8116.98
465.50	8346.35
465.69	8182.51
465.87	8060.80
466.05	8002.29
466.23	8147.40
466.41	8243.37
466.60	8482.10
466.78	8126.34
466.96	8168.47
467.14	8217.62
467.32	8283.16
467.51	8336.99
467.69	8187.19
467.87	8402.52
468.05	8535.93
468.23	8257.41
468.41	8362.73
468.60	8439.97
468.78	8561.68
468.96	8409.54
469.14	8636.58
469.32	8503.17
469.50	8552.32
469.69	8709.13
469.87	8999.36
470.05	8683.39
470.23	8802.75
470.41	8978.30
470.59	8769.99
470.77	8793.39
470.95	8863.61
471.14	8917.44
471.32	8959.57
471.50	9205.33
471.68	9179.58
471.86	9092.98
472.04	9153.84
472.22	9474.49
472.40	8910.42
472.58	9343.42
472.77	9170.22
472.95	9533.00
473.13	9788.12
473.31	9530.66
473.49	9270.86
473.67	9607.90
473.85	9809.19
474.03	9795.14
474.21	9706.20
474.39	9760.03
474.57	9980.04
474.75	10003.45
474.93	10040.90
475.12	10097.07
475.30	10148.56
475.48	9989.41
475.66	10083.03
475.84	10183.67
476.02	10347.51
476.20	10314.74
476.38	10511.35
476.56	10595.61
476.74	10567.52
476.92	10583.90
477.10	10600.29
477.28	10656.46
477.46	10771.15
477.64	11122.23
477.82	10934.98
478.00	11040.31
478.18	11187.76
478.36	11522.46
478.54	11489.69
478.72	11606.72
478.90	11529.48
479.08	11845.45
479.26	11742.47
479.44	11843.11
479.62	11798.64
479.80	12013.97
479.98	11812.68
480.16	12182.49
480.34	12250.36
480.52	12414.20
480.70	12341.64
480.88	12266.75
481.06	12556.97
481.24	12638.89
481.41	12837.84
481.59	12884.65
481.77	13102.32
481.95	13256.79
482.13	13041.46
482.31	13369.14
482.49	13483.83
482.67	13687.45
482.85	13563.40
483.03	13785.76
483.21	13912.14
483.39	14052.58
483.57	14019.81
483.74	14200.03
483.92	14310.04
484.10	13980.02
484.28	14675.16
484.46	14600.26
484.64	14923.26
484.82	14736.01
485.00	14836.66
485.18	15131.56
485.35	15524.77
485.53	15108.16
485.71	15342.21
485.89	15822.02
486.07	15571.58
486.25	15400.72
486.43	15538.82
486.61	16194.17
486.78	15962.45
486.96	16329.92
487.14	16615.46
487.32	16343.96
487.50	16648.23
487.68	16835.47
487.85	17015.69
488.03	17224.00
488.21	17191.23
488.39	17422.95
488.57	17474.44
488.75	17591.47
488.92	17898.08
489.10	17839.56
489.28	17851.27
489.46	18033.83
489.64	17928.50
489.81	18691.52
489.99	18422.36
490.17	18511.30
490.35	18640.03
490.53	18637.69
490.70	19014.51
490.88	18799.18
491.06	19302.40
491.24	19150.26
491.41	19428.79
491.59	19499.00
491.77	19723.69
491.95	20084.14
492.13	19939.02
492.30	19805.61
492.48	19990.52
492.66	20201.16
492.84	20063.07
493.01	20304.15
493.19	20329.89
493.37	20702.04
493.54	20774.60
493.72	20980.56
493.90	20877.58
494.08	21123.33
494.25	21254.40
494.43	21242.70
494.61	21804.43
494.79	22122.74
494.96	21532.93
495.14	21802.09
495.32	21923.80
495.49	22209.34
495.67	22366.16
495.85	22450.42
496.02	22590.85
496.20	22780.43
496.38	22581.49
496.55	22768.73
496.73	23300.03
496.91	22829.59
497.09	23433.44
497.26	23452.17
497.44	23026.19
497.62	23480.25
497.79	23828.99
497.97	23623.03
498.14	23824.31
498.32	24119.22
498.50	24212.84
498.67	24711.38
498.85	24091.13
499.03	24063.05
499.20	24547.54
499.38	24393.06
499.56	24903.30
499.73	24772.23
499.91	24924.36
500.08	25071.82
500.26	25249.70
500.44	25303.53
500.61	25242.68
500.79	25191.19
500.97	25628.87
501.14	25799.73
501.32	25926.11
501.49	25872.28
501.67	26054.84
501.84	25956.54
502.02	25724.83
502.20	25933.14
502.37	26469.12
502.55	26106.34
502.72	26244.43
502.90	26300.60
503.07	26192.94
503.25	26295.92
503.43	26309.96
503.60	26883.39
503.78	26581.46
503.95	26857.65
504.13	27012.12
504.30	26962.97
504.48	27119.79
504.65	27480.23
504.83	27290.65
505.01	27632.36
505.18	27503.64
505.36	27761.09
505.53	27623.00
505.71	27482.57
505.88	28034.94
506.06	27468.53
506.23	28343.89
506.41	28006.85
506.58	28301.76
506.76	28629.43
506.93	28418.78
507.11	28610.71
507.28	28615.39
507.46	28617.73
507.63	28929.02
507.81	29081.16
507.98	28694.97
508.16	28929.02
508.33	28795.61
508.50	29184.14
508.68	29273.08
508.85	29790.34
509.03	29518.84
509.20	29223.93
509.38	29879.28
509.55	29497.77
509.73	30015.03
509.90	29488.41
510.08	29652.25
510.25	30038.44
510.42	30244.40
510.60	30127.38
510.77	30153.12
510.95	30419.94
511.12	30298.23
511.30	30260.79
511.47	30380.15
511.64	30590.80
511.82	31014.44
511.99	30429.30
512.17	31021.46
512.34	30972.31
512.51	31028.48
512.69	31335.09
512.86	31438.08
513.04	31601.91
513.21	31838.31
513.38	31784.48
513.56	31573.83
513.73	31833.63
513.90	31653.40
514.08	31538.72
514.25	31793.84
514.43	32348.54
514.60	32467.91
514.77	32137.90
514.95	32404.72
515.12	32079.38
515.29	32128.53
515.47	32077.04
515.64	32554.51
515.81	33003.89
515.99	32973.47
516.16	32863.46
516.33	32982.83
516.51	33560.94
516.68	32996.87
516.85	32524.08
517.03	33076.45
517.20	33254.33
517.37	33476.68
517.54	33528.17
517.72	33790.31
517.89	33467.32
518.06	33172.41
518.24	33488.38
518.41	33710.74
518.58	33809.04
518.75	34019.69
518.93	34279.49
519.10	33825.42
519.27	34323.96
519.45	33797.34
519.62	34398.85
519.79	34064.16
519.96	34415.24
520.14	34370.77
520.31	34089.90
520.48	34644.61
520.65	34771.00
520.83	34827.17
521.00	35136.12
521.17	34579.07
521.34	34705.46
521.52	34885.68
521.69	35012.07
521.86	35330.39
522.03	35519.97
522.20	35360.81
522.38	35505.93
522.55	35475.50
522.72	35201.66
522.89	35531.67
523.07	36154.26
523.24	35714.23
523.41	36411.71
523.58	35569.12
523.75	36062.97
523.92	35849.99
524.10	36091.06
524.27	36243.20
524.44	36133.19
524.61	37076.43
524.78	36762.79
524.96	36844.71
525.13	36367.24
525.30	36837.69
525.47	36882.16
525.64	36699.60
525.81	36786.20
525.98	37118.56
526.16	37092.81
526.33	37020.25
526.50	37359.63
526.67	36725.35
526.84	36830.67
527.01	36907.91
527.18	37205.16
527.36	37593.68
527.53	37378.36
527.70	37694.33
527.87	37848.80
528.04	37741.14
528.21	37460.27
528.38	37933.06
528.55	37855.82
528.72	38148.39
528.89	37771.57
529.07	37895.61
529.24	37977.53
529.41	38209.25
529.58	38204.56
529.75	37935.40
529.92	38192.86
530.09	38375.42
530.26	38450.32
530.43	38410.53
530.60	38209.25
530.77	38288.82
530.94	38675.01
531.11	38251.38
531.28	38384.79
531.46	38611.82
531.63	38618.84
531.80	38597.77
531.97	39452.07
532.14	39332.70
532.31	38981.62
532.48	39126.74
532.65	39377.17
532.82	38817.78
532.99	38829.49
533.16	38450.32
533.33	39959.97
533.50	39590.16
533.67	39709.53
533.84	39225.04
534.01	39304.62
534.18	39203.97
534.35	39613.57
534.52	39185.25
534.69	40189.34
534.86	40191.68
535.03	39922.52
535.20	39721.23
535.37	39852.30
535.54	40032.52
535.71	39995.07
535.88	40130.83
536.05	40039.54
536.22	40332.11
536.38	40275.94
536.55	40517.01
536.72	40292.32
536.89	40439.78
537.06	40187.00
537.23	40474.88
537.40	40481.91
537.57	40589.57
537.74	41088.10
537.91	40947.67
538.08	40802.56
538.25	40982.78
538.42	40842.35
538.59	40402.33
538.75	40847.03
538.92	40952.35
539.09	41251.94
539.26	40886.82
539.43	41310.46
539.60	41661.54
539.77	41598.34
539.94	41158.32
540.11	41284.71
540.28	41521.10
540.44	41652.17
540.61	41745.80
540.78	41551.53
540.95	41823.03
541.12	41918.99
541.29	41785.58
541.46	42274.76
541.62	41986.87
541.79	42368.38
541.96	42131.98
542.13	42103.90
542.30	42363.70
542.47	42674.99
542.63	42644.56
542.80	42632.86
542.97	42766.27
543.14	43253.10
543.31	42604.77
543.48	42354.33
543.64	42990.96
543.81	43232.04
543.98	42906.70
544.15	43115.01
544.32	43194.59
544.48	43372.47
544.65	43351.40
544.82	43089.26
544.99	43241.40
545.16	42981.60
545.32	43049.47
545.49	44161.23
545.66	44652.74
545.83	44376.56
546.00	44589.55
546.16	44371.88
546.33	43234.38
546.50	43058.84
546.67	43173.52
546.83	43318.64
547.00	43442.68
547.17	43093.94
547.34	43405.23
547.50	43957.60
547.67	43906.11
547.84	43264.80
548.00	43681.42
548.17	43749.29
548.34	43608.86
548.51	44130.80
548.67	43826.53
548.84	43959.94
549.01	44095.69
549.18	43957.60
549.34	43608.86
549.51	44020.80
549.68	44062.93
549.84	43688.44
550.01	44271.23
550.18	43892.07
550.34	44425.71
550.51	44060.58
550.68	44589.55
550.84	44240.81
551.01	44287.62
551.18	43821.85
551.34	43969.30
551.51	43913.13
551.68	44123.78
551.84	44526.35
552.01	44376.56
552.18	44201.02
552.34	44271.23
552.51	44360.17
552.68	44343.79
552.84	44289.96
553.01	44676.15
553.18	44587.21
553.34	44802.53
553.51	44739.34
553.67	45158.30
553.84	44893.82
554.01	44938.29
554.17	44797.85
554.34	44769.77
554.51	44596.57
554.67	44622.31
554.84	45045.95
555.00	44980.42
555.17	44856.37
555.33	45165.32
555.50	44989.78
555.67	45036.59
555.83	44722.96
556.00	44959.35
556.16	45270.64
556.33	45200.43
556.50	45352.56
556.66	45078.72
556.83	45083.40
556.99	45287.03
557.16	45794.92
557.32	45326.81
557.49	45497.67
557.65	44821.26
557.82	45422.78
557.98	45104.46
558.15	45584.27
558.32	45464.91
558.48	45172.34
558.65	45989.19
558.81	45268.30
558.98	45317.45
559.14	45614.70
559.31	45200.43
559.47	46031.32
559.64	45823.01
559.80	45813.65
559.97	45860.46
560.13	45694.28
560.30	45970.46
560.46	45635.77
560.63	46492.40
560.79	45462.57
560.96	46061.74
561.12	46021.95
561.29	45701.30
561.45	45853.44
561.61	45972.80
561.78	46136.64
561.94	46263.03
562.11	45813.65
562.27	46036.00
562.44	45771.52
562.60	45631.08
562.77	46089.83
562.93	46267.71
563.10	46373.03
563.26	46115.58
563.42	46377.72
563.59	46232.60
563.75	45933.01
563.92	46040.68
564.08	45715.34
564.24	46120.26
564.41	46246.65
564.57	46124.94
564.74	45790.24
564.90	46227.92
565.07	46040.68
565.23	46368.35
565.39	46227.92
565.56	46539.21
565.72	46181.11
565.88	46461.97
566.05	46204.52
566.21	46529.85
566.38	45750.45
566.54	46384.74
566.70	46780.29
566.87	46724.11
567.03	46220.90
567.19	46604.75
567.36	46337.93
567.52	46110.89
567.68	46333.24
567.85	46337.93
568.01	46974.55
568.17	46464.32
568.34	46635.17
568.50	46419.84
568.66	46258.35
568.83	46600.07
568.99	46447.93
569.15	46597.73
569.32	46258.35
569.48	46553.26
569.64	46522.83
569.81	46740.50
569.97	46593.04
570.13	46920.72
570.30	46258.35
570.46	46820.08
570.62	46628.15
570.78	46604.75
570.95	46536.87
571.11	46658.58
571.27	46120.26
571.43	46216.22
571.60	46295.80
571.76	46391.76
571.92	46459.63
572.09	46979.23
572.25	46979.23
572.41	46710.07
572.57	46628.15
572.74	47063.49
572.90	46681.98
573.06	46885.61
573.22	46869.23
573.38	46569.64
573.55	46878.59
573.71	47255.42
573.87	47089.24
574.03	46876.25
574.20	47079.88
574.36	46721.77
574.52	46689.01
574.68	46618.79
574.84	47061.15
575.01	46948.81
575.17	46756.88
575.33	46677.30
575.49	46925.40
575.65	46880.93
575.82	47023.70
575.98	47079.88
576.14	47220.31
576.30	47161.79
576.46	46871.57
576.62	46759.22
576.79	47000.30
576.95	46583.68
577.11	47192.22
577.27	47173.50
577.43	47140.73
577.59	46941.78
577.75	46784.97
577.92	46829.44
578.08	46548.57
578.24	46637.51
578.40	47054.13
578.56	47049.45
578.72	47241.37
578.88	47454.36
579.04	47552.66
579.21	47084.56
579.37	47278.82
579.53	47065.83
579.69	46965.19
579.85	47112.64
580.01	47180.52
580.17	46878.59
580.33	46916.04
580.49	47248.39
580.65	47196.90
580.82	47110.30
580.98	46958.17
581.14	46934.76
581.30	47615.86
581.46	47138.39
581.62	46871.57
581.78	46862.21
581.94	47276.48
582.10	47089.24
582.26	47395.85
582.42	47477.77
582.58	46974.55
582.74	47140.73
582.90	47484.79
583.06	47316.27
583.22	47299.89
583.38	47129.03
583.54	47316.27
583.70	47143.07
583.86	46756.88
584.02	46700.71
584.18	47344.36
584.34	47000.30
584.50	46866.89
584.66	47246.05
584.82	46976.89
584.98	46689.01
585.14	46974.55
585.30	46906.68
585.46	47257.76
585.62	47374.78
585.78	47316.27
585.94	47201.58
586.10	47365.42
586.26	47620.54
586.42	47442.66
586.58	47098.60
586.74	47461.38
586.90	47082.22
587.06	47299.89
587.22	47007.32
587.38	47091.58
587.54	47433.30
587.70	47433.30
587.86	47405.21
588.02	47578.41
588.18	47606.50
588.34	46941.78
588.49	47185.20
588.65	47159.45
588.81	47770.33
588.97	47489.47
589.13	47555.00
589.29	47601.82
589.45	47274.14
589.61	47477.77
589.77	47845.23
589.93	47430.96
590.08	47550.32
590.24	47555.00
590.40	47683.73
590.56	47271.80
590.72	47627.56
590.88	47061.15
591.04	47791.40
591.20	47969.28
591.35	47721.18
591.51	47590.11
591.67	48147.16
591.83	47927.15
591.99	48109.71
592.15	47807.78
592.31	47318.61
592.46	47449.68
592.62	47601.82
592.78	47704.80
592.94	47632.24
593.10	47643.94
593.26	48114.39
593.41	47833.53
593.57	47599.47
593.73	47365.42
593.89	47917.79
594.05	47332.65
594.20	47945.87
594.36	47929.49
594.52	47681.39
594.68	47515.22
594.84	47559.69
594.99	47650.97
595.15	47833.53
595.31	47721.18
595.47	47990.34
595.62	47679.05
595.78	48013.75
595.94	47625.22
596.10	47887.36
596.25	47346.70
596.41	47248.39
596.57	47491.81
596.73	47793.74
596.88	47711.82
597.04	47826.51
597.20	47971.62
597.36	48533.35
597.51	48016.09
597.67	47683.73
597.83	47597.13
597.99	47941.19
598.14	47786.72
598.30	47688.42
598.46	47660.33
598.61	47501.17
598.77	47842.89
598.93	48055.88
599.09	47955.24
599.24	48744.00
599.40	48105.03
599.56	47920.13
599.71	48011.41
599.87	48037.16
600.03	47779.70
600.18	47880.34
600.34	47526.92
600.50	47878.00
600.65	47599.47
600.81	48105.03
600.97	47903.74
601.12	48002.05
601.28	47746.93
601.44	47735.23
601.59	47878.00
601.75	47498.83
601.91	47578.41
602.06	47627.56
602.22	47847.57
602.37	47608.84
602.53	47863.96
602.69	47775.02
602.84	47938.85
603.00	48009.07
603.16	47927.15
603.31	47920.13
603.47	47686.07
603.62	47611.18
603.78	47756.29
603.94	47938.85
604.09	47365.42
604.25	47721.18
604.40	47592.45
604.56	47777.36
604.71	47625.22
604.87	47718.84
605.03	48147.16
605.18	47716.50
605.34	47763.31
605.49	47372.44
605.65	47522.24
605.80	47304.57
605.96	47391.17
606.12	47395.85
606.27	47845.23
606.43	47356.06
606.58	47849.91
606.74	47632.24
606.89	47442.66
607.05	47283.50
607.20	47601.82
607.36	47370.10
607.51	47091.58
607.67	47365.42
607.82	47239.03
607.98	47674.37
608.13	47239.03
608.29	47730.54
608.44	47234.35
608.60	47547.98
608.75	47688.42
608.91	47777.36
609.06	47365.42
609.22	47889.70
609.37	47454.36
609.53	47395.85
609.68	47632.24
609.84	47728.20
609.99	47753.95
610.15	47674.37
610.30	47716.50
610.46	47716.50
610.61	48126.10
610.76	47948.21
610.92	48090.99
611.07	48067.58
611.23	48397.60
611.38	48481.86
611.54	47910.77
611.69	47416.91
611.84	47248.39
612.00	47494.15
612.15	47400.53
612.31	47693.10
612.46	47435.64
612.62	47468.40
612.77	47611.18
612.92	47555.00
613.08	47641.60
613.23	47419.25
613.39	46916.04
613.54	47344.36
613.69	47096.26
613.85	46693.69
614.00	47206.26
614.15	46894.97
614.31	47372.44
614.46	47489.47
614.62	46768.58
614.77	46813.05
614.92	47084.56
615.08	46997.96
615.23	47208.61
615.38	47463.72
615.54	46492.40
615.69	46651.56
615.84	46241.96
616.00	47124.35
616.15	47241.37
616.30	46813.05
616.46	46939.44
616.61	46759.22
616.76	46777.95
616.92	46485.38
617.07	47000.30
617.22	46373.03
617.37	46169.41
617.53	46497.08
617.68	46080.47
617.83	46464.32
617.99	46595.38
618.14	46564.96
618.29	46450.27
618.45	46068.76
618.60	46241.96
618.75	46323.88
618.90	46574.32
619.06	46026.63
619.21	46071.10
619.36	46340.27
619.51	45872.16
619.67	45776.20
619.82	45855.78
619.97	45993.87
620.12	46384.74
620.28	46106.21
620.43	46274.73
620.58	46155.36
620.73	46527.51
620.89	46113.23
621.04	46251.33
621.19	46183.45
621.34	45600.66
621.49	45734.07
621.65	45457.88
621.80	45698.96
621.95	45144.25
622.10	46134.30
622.25	45509.38
622.41	45366.60
622.56	45560.87
622.71	46256.01
622.86	45830.03
623.01	45785.56
623.16	45670.87
623.32	45553.85
623.47	45717.68
623.62	45614.70
623.77	45258.94
623.92	45883.86
624.07	45556.19
624.23	45235.53
624.38	45668.53
624.53	45738.75
624.68	45539.80
624.83	46096.85
624.98	45918.97
625.13	45298.73
625.29	45352.56
625.44	45027.23
625.59	45336.18
625.74	45099.78
625.89	44701.89
626.04	44699.55
626.19	44882.11
626.34	44760.40
626.49	45324.47
626.65	45048.29
626.80	45315.11
626.95	45109.14
627.10	44818.92
627.25	44839.98
627.40	44999.14
627.55	44973.39
627.70	44781.47
627.85	44329.75
628.00	44294.64
628.15	44832.96
628.30	44968.71
628.45	44886.79
628.60	44729.98
628.76	44978.07
628.91	45017.86
629.06	44495.92
629.21	44531.03
629.36	44657.42
629.51	44622.31
629.66	44130.80
629.81	43952.92
629.96	44376.56
630.11	44074.63
630.26	44217.40
630.41	44561.46
630.56	44123.78
630.71	44416.35
630.86	44657.42
631.01	44411.67
631.16	44556.78
631.31	44739.34
631.46	44016.11
631.61	44048.88
631.76	44547.42
631.91	44062.93
632.06	44327.41
632.21	43838.23
632.36	43999.73
632.51	43590.14
632.66	43999.73
632.81	43552.69
632.96	44273.57
633.10	43894.41
633.25	43903.77
633.40	43831.21
633.55	43924.83
633.70	43842.92
633.85	43550.35
634.00	43540.99
634.15	43377.15
634.30	43494.18
634.45	43154.80
634.60	43611.20
634.75	43536.30
634.90	43260.12
635.05	43770.36
635.19	43620.56
635.34	43812.49
635.49	43744.61
635.64	43552.69
635.79	43210.97
635.94	43388.85
636.09	42979.26
636.24	43391.19
636.39	43129.05
636.53	43047.13
636.68	43215.65
636.83	43147.78
636.98	43391.19
637.13	43152.46
637.28	43335.02
637.43	43175.86
637.57	43047.13
637.72	43229.69
637.87	43002.66
638.02	43103.31
638.17	43012.02
638.32	42614.13
638.46	43241.40
638.61	43168.84
638.76	42763.93
638.91	42925.42
639.06	43026.07
639.20	42777.97
639.35	43096.28
639.50	42576.69
639.65	42855.21
639.80	42962.87
639.94	42756.91
640.09	42518.17
640.24	42356.67
640.39	42583.71
640.54	42319.23
640.68	42354.33
640.83	42185.82
640.98	41935.38
641.13	42169.43
641.27	42787.33
641.42	42464.34
641.57	42323.91
641.72	42740.52
641.86	42483.06
642.01	41813.67
642.16	42527.53
642.31	42476.04
642.45	42087.51
642.60	42108.58
642.75	42417.53
642.90	41811.33
643.04	41567.91
643.19	41715.37
643.34	41780.90
643.48	42450.30
643.63	42340.29
643.78	42174.11
643.93	42635.20
644.07	42373.06
644.22	42012.62
644.37	41808.99
644.51	42117.94
644.66	42401.14
644.81	41635.79
644.95	41745.80
645.10	41897.93
645.25	41949.42
645.39	41729.41
645.54	41614.72
645.69	41918.99
645.83	41832.39
645.98	42024.32
646.13	42085.17
646.27	42454.98
646.42	42057.09
646.57	42143.69
646.71	41968.15
646.86	42169.43
647.00	41324.50
647.15	41565.57
647.30	41486.00
647.44	41163.00
647.59	41310.46
647.74	41490.68
647.88	41933.04
648.03	41230.88
648.17	41689.62
648.32	41631.11
648.47	41783.24
648.61	41649.83
648.76	41518.76
648.90	41099.81
649.05	41294.07
649.20	41155.98
649.34	40942.99
649.49	41064.70
649.63	41193.43
649.78	41305.77
649.92	41029.59
650.07	41448.55
650.21	41092.79
650.36	41434.50
650.51	41088.10
650.65	41900.27
650.80	41261.30
650.94	40807.24
651.09	40727.66
651.23	40779.15
651.38	41254.28
651.52	40535.74
651.67	40278.28
651.81	40928.95
651.96	40350.84
652.10	40421.05
652.25	40744.05
652.39	40655.11
652.54	41053.00
652.68	40840.01
652.83	41179.39
652.97	41322.16
653.12	40577.87
653.26	40610.64
653.41	40844.69
653.55	40800.22
653.70	40318.07
653.84	40360.20
653.99	40250.19
654.13	40121.46
654.27	40411.69
654.42	40112.10
654.56	40453.82
654.71	40926.61
654.85	40376.58
655.00	40399.99
655.14	40205.72
655.29	40212.74
655.43	40760.43
655.57	40025.50
655.72	40161.25
655.86	39721.23
656.01	39756.34
656.15	39519.95
656.30	39840.60
656.44	39978.69
656.58	39531.65
656.73	39854.64
656.87	39929.54
657.01	39665.06
657.16	40034.86
657.30	39765.70
657.45	39828.90
657.59	40025.50
657.73	39566.76
657.88	39721.23
658.02	39627.61
658.16	39278.87
658.31	39662.72
658.45	39615.91
658.60	39620.59
658.74	39555.05
658.88	39648.68
659.03	39306.96
659.17	39452.07
659.31	39260.15
659.46	38789.70
659.60	39199.29
659.74	39409.94
659.89	39468.45
660.03	39236.74
660.17	38923.11
660.32	38766.29
660.46	39133.76
660.60	38588.41
660.74	38565.01
660.89	38726.50
661.03	38417.55
661.17	38759.27
661.32	38227.97
661.46	38710.12
661.60	38359.04
661.74	38974.60
661.89	38827.15
662.03	39028.43
662.17	38616.50
662.31	38096.90
662.46	38443.30
662.60	38263.08
662.74	38117.96
662.88	38361.38
663.03	38066.47
663.17	38026.68
663.31	37757.52
663.45	38059.45
663.60	37483.68
663.74	37783.27
663.88	38115.62
664.02	37794.97
664.17	38195.20
664.31	37621.77
664.45	37717.73
664.59	37471.98
664.73	37354.95
664.88	37460.27
665.02	37397.08
665.16	37104.51
665.30	37390.06
665.44	37404.10
665.59	36634.06
665.73	36893.86
665.87	36760.45
666.01	36905.57
666.15	37258.99
666.29	36938.33
666.44	36945.36
666.58	36858.76
666.72	36751.09
666.86	36905.57
667.00	37179.41
667.14	36884.50
667.28	36346.18
667.43	36748.75
667.57	36816.63
667.71	36856.42
667.85	36044.25
667.99	35924.88
668.13	35988.08
668.27	35812.54
668.41	35807.86
668.56	35990.42
668.70	36343.84
668.84	35943.61
668.98	36247.88
669.12	36098.08
669.26	36261.92
669.40	36032.55
669.54	36119.15
669.68	35807.86
669.82	35606.57
669.96	35538.69
670.10	35189.95
670.25	35522.31
670.39	35435.71
670.53	35424.01
670.67	35372.52
670.81	35424.01
670.95	35276.55
671.09	35503.59
671.23	35112.72
671.37	34972.28
671.51	35379.54
671.65	35332.73
671.79	34658.65
671.93	34934.84
672.07	34913.77
672.21	34623.54
672.35	34576.73
672.49	34504.18
672.63	34579.07
672.77	34581.42
672.91	34256.08
673.05	33989.26
673.19	34073.52
673.33	34164.80
673.47	33895.64
673.61	34361.40
673.75	33989.26
673.89	34136.71
674.03	33514.13
674.17	33816.06
674.31	33294.12
674.45	33986.92
674.59	33422.85
674.73	33308.16
674.87	33488.38
675.01	33020.28
675.15	33090.49
675.29	32882.19
675.43	33373.70
675.56	33041.34
675.70	33486.04
675.84	33205.18
675.98	32538.13
676.12	32818.99
676.26	32898.57
676.40	33223.90
676.54	32896.23
676.68	32573.24
676.82	32011.51
676.96	32425.78
677.10	32098.11
677.23	31524.68
677.37	31819.58
677.51	31945.97
677.65	31882.78
677.79	31615.96
677.93	31637.02
678.07	31470.84
678.21	31356.16
678.34	31634.68
678.48	30848.26
678.62	31222.75
678.76	31147.85
678.90	30902.09
679.04	30801.45
679.18	30862.30
679.31	30155.46
679.45	30497.18
679.59	30312.28
679.73	30455.05
679.87	30466.75
680.00	30305.26
680.14	30185.89
680.28	30267.81
680.42	30480.80
680.56	29909.71
680.70	29724.80
680.83	30347.39
680.97	29951.84
681.11	30375.47
681.25	29560.97
681.39	29869.92
681.52	29635.86
681.66	29680.33
681.80	29078.82
681.94	29142.01
682.07	29029.66
682.21	28570.92
682.35	28367.29
682.49	28589.64
682.62	28456.23
682.76	28252.61
682.90	28297.08
683.04	28166.01
683.17	28430.49
683.31	28166.01
683.45	27814.93
683.59	28484.32
683.72	27953.02
683.86	27962.38
684.00	27814.93
684.13	28060.68
684.27	28079.41
684.41	27782.16
684.55	27681.52
684.68	27510.66
684.82	27283.62
684.96	27154.90
685.09	26859.99
685.23	27023.83
685.37	26951.27
685.50	27098.72
685.64	26771.05
685.78	26794.45
685.91	27005.10
686.05	26850.63
686.19	26309.96
686.32	26522.95
686.46	25881.64
686.60	26059.52
686.73	25919.09
686.87	25912.07
687.01	25874.62
687.14	26171.87
687.28	26066.55
687.42	25825.47
687.55	25649.93
687.69	25905.05
687.82	25544.61
687.96	25479.07
688.10	24999.26
688.23	25575.03
688.37	25273.10
688.50	25039.05
688.64	25116.29
688.78	24741.80
688.91	24863.51
689.05	24584.99
689.18	24767.55
689.32	24166.03
689.46	24762.87
689.59	24250.29
689.73	24624.78
689.86	24175.39
690.00	23744.73
690.13	23908.57
690.27	23955.38
690.41	24339.23
690.54	23913.25
690.68	23669.84
690.81	23782.18
690.95	23651.11
691.08	23711.97
691.22	23381.95
691.35	23419.40
691.49	23435.78
691.62	23157.26
691.76	22820.22
691.89	22799.16
692.03	22672.77
692.16	22469.14
692.30	22445.74
692.43	22455.10
692.57	22317.01
692.70	22632.98
692.84	22434.03
692.97	22284.24
693.11	22204.66
693.24	22104.02
693.38	21879.33
693.51	22174.24
693.65	21839.54
693.78	21720.17
693.92	21963.59
694.05	21942.52
694.19	21565.70
694.32	21280.15
694.45	21479.10
694.59	21273.13
694.72	21057.80
694.86	20533.52
694.99	20713.74
695.13	20842.47
695.26	20505.43
695.39	20346.28
695.53	20826.09
695.66	20587.35
695.80	20561.61
695.93	20437.56
696.07	20350.96
696.20	20128.61
696.33	20257.34
696.47	20269.04
696.60	20327.55
696.73	19805.61
696.87	20121.59
697.00	19908.60
697.14	19552.84
697.27	19576.24
697.40	19566.88
697.54	19309.42
697.67	19274.31
697.80	19229.84
697.94	19075.37
698.07	19044.94
698.21	18899.83
698.34	19311.76
698.47	19253.25
698.61	18953.66
698.74	19005.15
698.87	19000.47
699.01	18845.99
699.14	18630.66
699.27	18590.88
699.40	18401.29
699.54	18359.16
699.67	18031.49
699.80	17926.16
699.94	17914.46
700.07	17987.02
700.20	17668.70
700.34	17525.93
700.47	17642.96
700.60	17703.81
700.73	17694.45
700.87	17572.74
701.00	17671.04
701.13	17369.12
701.26	17502.53
701.40	17444.01
701.53	17034.42
701.66	17036.76
701.79	17088.25
701.93	16975.91
702.06	16910.37
702.19	16692.70
702.32	16891.65
702.46	16753.55
702.59	16458.65
702.72	16587.38
702.85	16245.66
702.99	16250.34
703.12	16231.62
703.25	15894.58
703.38	16147.36
703.51	15878.19
703.65	16095.86
703.78	16042.03
703.91	15957.77
704.04	16063.10
704.17	15782.23
704.31	15482.64
704.44	15344.55
704.57	15562.22
704.70	15529.45
704.83	15382.00
704.96	15468.60
705.10	15056.67
705.23	15143.27
>>>>>End Processed Spectral Data<<<<<
