SpectraSuite Data File
++++++++++++++++++++++++++++++++++++
Date: Fri Oct 04 11:39:35 GMT-05:00 2013
User: price-jones
Dark Spectrum Present: No
Reference Spectrum Present: No
Number of Sampled Component Spectra: 1
Spectrometers: USB2+H05261
Integration Time (usec): 100000 (USB2+H05261)
Spectra Averaged: 1 (USB2+H05261)
Boxcar Smoothing: 0 (USB2+H05261)
Correct for Electrical Dark: No (USB2+H05261)
Strobe/Lamp Enabled: No (USB2+H05261)
Correct for Detector Non-linearity: No (USB2+H05261)
Correct for Stray Light: No (USB2+H05261)
Number of Pixels in Processed Spectrum: 2048
>>>>>Begin Processed Spectral Data<<<<<
365.73	0.00
365.92	0.00
366.12	0.00
366.32	14.04
366.52	0.00
366.72	0.00
366.91	0.00
367.11	0.00
367.31	0.00
367.51	0.00
367.70	0.00
367.90	0.00
368.10	0.00
368.30	0.00
368.49	0.00
368.69	0.00
368.89	0.00
369.09	0.00
369.28	0.00
369.48	0.00
369.68	0.00
369.87	9.36
370.07	37.45
370.27	0.00
370.47	119.37
370.66	100.64
370.86	142.77
371.06	198.95
371.25	262.14
371.45	131.07
371.65	227.03
371.84	243.42
372.04	163.84
372.24	337.04
372.44	220.01
372.63	215.33
372.83	315.97
373.03	227.03
373.22	287.89
373.42	269.16
373.62	278.52
373.81	306.61
374.01	271.50
374.21	306.61
374.40	339.38
374.60	304.27
374.79	278.52
374.99	238.73
375.19	243.42
375.38	245.76
375.58	299.59
375.78	344.06
375.97	304.27
376.17	344.06
376.37	308.95
376.56	215.33
376.76	269.16
376.95	339.38
377.15	327.68
377.35	301.93
377.54	332.36
377.74	313.63
377.93	278.52
378.13	318.31
378.33	322.99
378.52	372.15
378.72	313.63
378.91	376.83
379.11	341.72
379.31	353.42
379.50	327.68
379.70	388.53
379.89	327.68
380.09	341.72
380.28	283.20
380.48	271.50
380.68	280.86
380.87	367.46
381.07	332.36
381.26	318.31
381.46	320.65
381.65	351.08
381.85	360.44
382.04	334.70
382.24	339.38
382.43	449.38
382.63	369.80
382.83	374.49
383.02	393.21
383.22	407.25
383.41	369.80
383.61	365.12
383.80	397.89
384.00	341.72
384.19	339.38
384.39	369.80
384.58	353.42
384.78	390.87
384.97	444.70
385.17	447.04
385.36	325.33
385.56	486.83
385.75	402.57
385.95	337.04
386.14	456.40
386.34	454.06
386.53	395.55
386.72	341.72
386.92	433.00
387.11	376.83
387.31	425.98
387.50	393.21
387.70	404.91
387.89	383.85
388.09	440.02
388.28	360.44
388.48	463.43
388.67	470.45
388.86	447.04
389.06	435.34
389.25	407.25
389.45	482.15
389.64	379.17
389.84	470.45
390.03	454.06
390.22	465.77
390.42	475.13
390.61	425.98
390.81	433.00
391.00	528.96
391.19	543.00
391.39	543.00
391.58	528.96
391.78	510.24
391.97	526.62
392.16	568.75
392.36	500.87
392.55	519.60
392.75	557.05
392.94	545.34
393.13	526.62
393.33	550.03
393.52	512.58
393.71	641.31
393.91	514.92
394.10	575.77
394.29	578.11
394.49	561.73
394.68	521.94
394.88	610.88
395.07	657.69
395.26	594.50
395.46	657.69
395.65	678.76
395.84	624.92
396.04	706.84
396.23	631.94
396.42	620.24
396.62	713.86
396.81	704.50
397.00	603.86
397.19	727.91
397.39	662.37
397.58	676.41
397.77	594.50
397.97	681.10
398.16	622.58
398.35	692.80
398.55	697.48
398.74	734.93
398.93	732.59
399.12	725.57
399.32	648.33
399.51	727.91
399.70	758.33
399.90	713.86
400.09	725.57
400.28	823.87
400.47	784.08
400.67	877.70
400.86	858.98
401.05	912.81
401.24	805.14
401.44	807.48
401.63	849.61
401.82	837.91
402.01	805.14
402.21	798.12
402.40	812.17
402.59	873.02
402.78	929.19
402.97	884.72
403.17	1053.24
403.36	968.98
403.55	997.07
403.74	976.00
403.93	994.73
404.13	1149.20
404.32	1034.52
404.51	1074.31
404.70	1015.79
404.89	1102.39
405.09	1196.01
405.28	1086.01
405.47	1095.37
405.66	1160.91
405.85	1188.99
406.05	1132.82
406.24	1116.44
406.43	1254.53
406.62	1287.29
406.81	1207.72
407.00	1200.69
407.20	1299.00
407.39	1163.25
407.58	1217.08
407.77	1275.59
407.96	1432.41
408.15	1315.38
408.34	1308.36
408.54	1352.83
408.73	1378.58
408.92	1394.96
409.11	1350.49
409.30	1469.86
409.49	1462.83
409.68	1437.09
409.87	1376.24
410.07	1542.41
410.26	1640.72
410.45	1638.38
410.64	1568.16
410.83	1526.03
411.02	1591.56
411.21	1516.67
411.40	1664.12
411.59	1706.25
411.78	1713.27
411.98	1799.87
412.17	1781.15
412.36	1687.53
412.55	1748.38
412.74	1743.70
412.93	1792.85
413.12	1832.64
413.31	1914.56
413.50	1760.08
413.69	2052.65
413.88	2078.40
414.07	2043.29
414.26	2092.44
414.45	2019.88
414.64	2134.57
414.83	2062.01
415.02	2054.99
415.22	2087.76
415.41	2136.91
415.60	2289.04
415.79	2270.32
415.98	2265.64
416.17	2300.75
416.36	2314.79
416.55	2202.44
416.74	2448.20
416.93	2277.34
417.12	2260.96
417.31	2436.50
417.50	2354.58
417.69	2429.48
417.88	2408.41
418.07	2555.86
418.26	2546.50
418.45	2597.99
418.64	2722.04
418.83	2670.55
419.02	2485.65
419.21	2555.86
419.39	2579.27
419.58	2588.63
419.77	2621.40
419.96	2630.76
420.15	2843.75
420.34	2731.41
420.53	2832.05
420.72	2857.79
420.91	2785.24
421.10	2794.60
421.29	2885.88
421.48	2782.90
421.67	2970.14
421.86	2794.60
422.05	2946.73
422.24	2972.48
422.43	2993.55
422.61	2885.88
422.80	2881.20
422.99	2970.14
423.18	2850.77
423.37	2986.52
423.56	2942.05
423.75	2920.99
423.94	2963.12
424.13	2768.85
424.32	2796.94
424.50	3094.19
424.69	3152.70
424.88	3112.91
425.07	3098.87
425.26	3068.44
425.45	3183.13
425.64	3157.38
425.83	3166.74
426.01	3234.62
426.20	3056.74
426.39	3143.34
426.58	3145.68
426.77	3126.96
426.96	3150.36
427.15	3117.59
427.33	3255.69
427.52	3166.74
427.71	3117.59
427.90	3332.92
428.09	3279.09
428.28	3262.71
428.46	3222.92
428.65	3248.66
428.84	3412.50
429.03	3417.18
429.22	3379.73
429.40	3454.63
429.59	3524.85
429.78	3253.34
429.97	3344.63
430.16	3393.78
430.34	3431.23
430.53	3522.51
430.72	3520.17
430.91	3452.29
431.10	3452.29
431.28	3634.85
431.47	3578.68
431.66	3630.17
431.85	3534.21
432.03	3618.47
432.22	3676.98
432.41	3765.92
432.60	3634.85
432.79	3660.60
432.97	3812.73
433.16	3791.67
433.35	3758.90
433.54	3784.65
433.72	3714.43
433.91	3747.20
434.10	3798.69
434.28	3719.11
434.47	3927.42
434.66	3794.01
434.85	3852.52
435.03	3859.54
435.22	4138.07
435.41	4259.78
435.59	4376.80
435.78	4266.80
435.97	4051.47
436.16	3983.59
436.34	3889.97
436.53	3960.19
436.72	4222.33
436.90	4140.41
437.09	4063.17
437.28	4060.83
437.46	4091.26
437.65	4049.13
437.84	4241.05
438.02	4182.54
438.21	4177.86
438.40	4133.39
438.58	4376.80
438.77	4308.93
438.96	4290.20
439.14	4461.06
439.33	4285.52
439.52	4449.36
439.70	4479.79
439.89	4660.01
440.08	4678.73
440.26	4491.49
440.45	4566.39
440.63	4486.81
440.82	4709.16
441.01	4737.24
441.19	4802.78
441.38	4774.69
441.57	4772.35
441.75	4922.15
441.94	5018.11
442.12	4826.18
442.31	5060.24
442.50	5100.03
442.68	4915.12
442.87	5011.09
443.05	4901.08
443.24	5027.47
443.43	5060.24
443.61	5102.37
443.80	5294.29
443.98	5071.94
444.17	5060.24
444.35	5177.26
444.54	5221.74
444.73	5135.14
444.91	5174.92
445.10	5341.10
445.28	5151.52
445.47	5207.69
445.65	5172.58
445.84	5233.44
446.02	5282.59
446.21	5256.84
446.39	5167.90
446.58	5397.28
446.77	5259.18
446.95	5233.44
447.14	5090.67
447.32	5345.78
447.51	5259.18
447.69	5203.01
447.88	5308.34
448.06	5432.38
448.25	5252.16
448.43	5380.89
448.62	5355.15
448.80	5174.92
448.99	5439.40
449.17	5650.05
449.36	5373.87
449.54	5413.66
449.73	5481.53
449.91	5668.78
450.10	5579.84
450.28	5753.04
450.46	5682.82
450.65	5619.63
450.83	5563.45
451.02	5579.84
451.20	5900.49
451.39	5621.97
451.57	5652.39
451.76	5689.84
451.94	5547.07
452.13	5727.29
452.31	5626.65
452.49	5682.82
452.68	5771.76
452.86	5849.00
453.05	5816.23
453.23	5940.28
453.42	5748.36
453.60	5799.85
453.78	5860.70
453.97	5841.98
454.15	5912.19
454.34	5804.53
454.52	6134.54
454.70	6017.52
454.89	6029.22
455.07	6125.18
455.26	6282.00
455.44	6104.12
455.62	6132.20
455.81	6157.95
455.99	6155.61
456.17	6282.00
456.36	6296.04
456.54	6263.27
456.73	6204.76
456.91	6424.77
457.09	6473.92
457.28	6614.35
457.46	6342.85
457.64	6558.18
457.83	6310.08
458.01	6476.26
458.19	6534.78
458.38	6462.22
458.56	6661.16
458.74	6661.16
458.93	6715.00
459.11	6677.55
459.29	6546.48
459.48	6684.57
459.66	6712.66
459.84	6745.42
460.03	7012.24
460.21	6644.78
460.39	6820.32
460.57	6691.59
460.76	6743.08
460.94	7012.24
461.12	6853.09
461.31	6885.86
461.49	6827.34
461.67	6909.26
461.85	7262.68
462.04	7023.95
462.22	7192.47
462.40	7052.03
462.59	7222.89
462.77	6974.80
462.95	7115.23
463.13	7185.44
463.32	7414.82
463.50	7166.72
463.68	7124.59
463.86	7229.91
464.05	7110.55
464.23	7265.02
464.41	7323.54
464.59	7164.38
464.78	7569.29
464.96	7169.06
465.14	7304.81
465.32	7447.58
465.50	7426.52
465.69	7517.80
465.87	7433.54
466.05	7283.75
466.23	7597.38
466.41	7417.16
466.60	7786.96
466.78	7316.51
466.96	7382.05
467.14	7506.10
467.32	7625.47
467.51	7871.22
467.69	7393.75
467.87	7775.26
468.05	7899.31
468.23	7667.60
468.41	7754.19
468.60	7644.19
468.78	8201.24
468.96	7756.54
469.14	7906.33
469.32	7826.75
469.50	7803.35
469.69	8063.15
469.87	8009.31
470.05	8170.81
470.23	8095.91
470.41	8032.72
470.59	8088.89
470.77	8070.17
470.95	8201.24
471.14	8243.37
471.32	8184.85
471.50	8500.83
471.68	8425.93
471.86	8257.41
472.04	8479.76
472.22	8510.19
472.40	8332.31
472.58	8503.17
472.77	8542.96
472.95	8585.08
473.13	8847.22
473.31	8652.96
473.49	8655.30
473.67	8716.16
473.85	8685.73
474.03	8847.22
474.21	8737.22
474.39	8868.29
474.57	9060.21
474.75	9146.81
474.93	9238.09
475.12	9109.36
475.30	9156.18
475.48	9135.11
475.66	9392.57
475.84	9069.58
476.02	9408.95
476.20	9308.31
476.38	9558.75
476.56	9853.66
476.74	9844.29
476.92	9682.80
477.10	9715.56
477.28	9860.68
477.46	9673.43
477.64	10078.35
477.82	10125.16
478.00	10204.74
478.18	10244.52
478.36	10251.55
478.54	10396.66
478.72	10509.01
478.90	10436.45
479.08	10422.41
479.26	10719.65
479.44	10822.64
479.62	10920.94
479.80	10832.00
479.98	11009.88
480.16	11056.69
480.34	11227.55
480.52	11080.10
480.70	11337.56
480.88	11040.31
481.06	11449.90
481.24	11445.22
481.41	11571.61
481.59	11637.14
481.77	11770.55
481.95	11950.78
482.13	12011.63
482.31	12077.16
482.49	12077.16
482.67	12138.02
482.85	12264.41
483.03	12699.75
483.21	12706.77
483.39	12702.09
483.57	12666.98
483.74	12971.25
483.92	12791.03
484.10	12821.45
484.28	13287.22
484.46	13284.88
484.64	13451.06
484.82	13064.87
485.00	13476.80
485.18	13736.60
485.35	13760.01
485.53	13699.16
485.71	13933.21
485.89	14314.72
486.07	14012.79
486.25	14181.31
486.43	14295.99
486.61	14504.30
486.78	14848.36
486.96	14616.65
487.14	14827.29
487.32	14846.02
487.50	14984.11
487.68	15220.50
487.85	15274.34
488.03	15480.30
488.21	15639.46
488.39	15552.86
488.57	15793.94
488.75	15744.78
488.92	16018.63
489.10	16105.23
489.28	16379.07
489.46	16594.40
489.64	16393.11
489.81	16851.86
489.99	16744.19
490.17	16795.68
490.35	17174.85
490.53	16975.91
490.70	17043.78
490.88	17343.37
491.06	17221.66
491.24	17053.14
491.41	17259.11
491.59	17776.37
491.77	17474.44
491.95	17874.67
492.13	17980.00
492.30	18066.60
492.48	18054.89
492.66	18045.53
492.84	18396.61
493.01	18511.30
493.19	18494.91
493.37	18808.54
493.54	18967.70
493.72	18668.11
493.90	19094.09
494.08	19145.58
494.25	18963.02
494.43	19260.27
494.61	19510.71
494.79	19412.40
494.96	19520.07
495.14	19592.62
495.32	20074.77
495.49	19770.51
495.67	19971.79
495.85	20339.26
496.02	20690.34
496.20	20563.95
496.38	20182.44
496.55	20484.37
496.73	20788.64
496.91	20711.40
497.09	20950.14
497.26	21001.63
497.44	20835.45
497.62	21036.74
497.79	21415.90
497.97	21212.28
498.14	21296.53
498.32	22122.74
498.50	21696.77
498.67	21790.39
498.85	21689.74
499.03	21809.11
499.20	22115.72
499.38	22026.78
499.56	22544.04
499.73	22412.97
499.91	22490.21
500.08	22600.21
500.26	22485.53
500.44	22710.22
500.61	22551.06
500.79	22937.25
500.97	23077.68
501.14	23339.82
501.32	23620.69
501.49	23103.43
501.67	22946.61
501.84	23187.69
502.02	23227.48
502.20	23817.29
502.37	23971.77
502.55	23639.41
502.72	23697.92
502.90	23702.61
503.07	23314.08
503.25	23957.72
503.43	23903.89
503.60	24013.90
503.78	24154.33
503.95	24168.37
504.13	24362.64
504.30	24259.65
504.48	24205.82
504.65	24477.32
504.83	24847.13
505.01	24814.36
505.18	24926.71
505.36	25118.63
505.53	24577.97
505.71	24917.34
505.88	24816.70
506.06	24947.77
506.23	25532.90
506.41	25474.39
506.58	25701.42
506.76	25340.98
506.93	25532.90
507.11	25411.20
507.28	25680.36
507.46	25603.12
507.63	25986.97
507.81	25956.54
507.98	25891.01
508.16	26040.80
508.33	26202.30
508.50	26178.89
508.68	25970.58
508.85	26724.24
509.03	26434.01
509.20	26686.79
509.38	26410.60
509.55	26555.72
509.73	26817.86
509.90	26962.97
510.08	26841.26
510.25	26902.12
510.42	27054.25
510.60	27276.60
510.77	27124.47
510.95	27267.24
511.12	27190.00
511.30	27435.76
511.47	27835.99
511.64	27648.75
511.82	27686.20
511.99	27688.54
512.17	27880.46
512.34	27967.06
512.51	27906.21
512.69	28180.05
512.86	28053.66
513.04	28250.27
513.21	28414.10
513.38	28720.71
513.56	28591.98
513.73	28648.16
513.90	28400.06
514.08	28519.43
514.25	28711.35
514.43	29125.63
514.60	28863.49
514.77	28519.43
514.95	28950.09
515.12	29027.32
515.29	29106.90
515.47	29064.77
515.64	29612.46
515.81	29326.91
515.99	29434.58
516.16	29537.56
516.33	29612.46
516.51	29310.53
516.68	29493.09
516.85	29558.63
517.03	29598.41
517.20	29982.26
517.37	30169.51
517.54	30213.98
517.72	30167.16
517.89	30309.94
518.06	30221.00
518.24	30380.15
518.41	30377.81
518.58	30232.70
518.75	30504.20
518.93	30609.53
519.10	30553.35
519.27	30834.22
519.45	30293.55
519.62	30644.63
519.79	30696.13
519.96	30962.95
520.14	31225.09
520.31	31094.02
520.48	30969.97
520.65	31417.01
520.83	31515.31
521.00	31316.37
521.17	30976.99
521.34	31496.59
521.52	31592.55
521.69	31433.39
521.86	31566.81
522.03	31880.44
522.20	31866.39
522.38	32037.25
522.55	32016.19
522.72	31658.09
522.89	31775.11
523.07	32299.39
523.24	31824.26
523.41	32231.52
523.58	32334.50
523.75	32336.84
523.92	31971.72
524.10	32821.33
524.27	31964.70
524.44	32694.94
524.61	32456.21
524.78	32788.56
524.96	32914.95
525.13	32666.86
525.30	32931.34
525.47	32744.09
525.64	33202.84
525.81	33275.40
525.98	32978.15
526.16	33001.55
526.33	33336.25
526.50	33420.51
526.67	33436.89
526.84	33259.01
527.01	33249.65
527.18	33446.26
527.36	33511.79
527.53	33464.98
527.70	34127.35
527.87	34125.01
528.04	33699.03
528.21	33848.83
528.38	33762.23
528.55	34125.01
528.72	33724.78
528.89	34237.36
529.07	34160.12
529.24	33809.04
529.41	34160.12
529.58	34230.33
529.75	34244.38
529.92	34405.88
530.09	34239.70
530.26	34307.57
530.43	34515.88
530.60	34480.77
530.77	34483.11
530.94	34794.40
531.11	34541.63
531.28	34866.96
531.46	34831.85
531.63	35084.63
531.80	35206.34
531.97	35388.90
532.14	35065.91
532.31	34871.64
532.48	35021.44
532.65	35332.73
532.82	34993.35
532.99	35321.02
533.16	35023.78
533.33	35562.10
533.50	35398.26
533.67	35503.59
533.84	35171.23
534.01	35346.77
534.18	35192.30
534.35	35700.19
534.52	35594.87
534.69	35601.89
534.86	35585.50
535.03	35557.42
535.20	35782.11
535.37	35887.43
535.54	35803.17
535.71	35824.24
535.88	35871.05
536.05	35967.01
536.22	36175.32
536.38	35948.29
536.55	36238.51
536.72	36002.12
536.89	35859.35
537.06	36184.68
537.23	36512.36
537.40	36418.74
537.57	36439.80
537.74	36673.85
537.91	36779.18
538.08	36868.12
538.25	36491.29
538.42	36961.74
538.59	36886.84
538.75	36620.02
538.92	36467.89
539.09	36938.33
539.26	36905.57
539.43	36907.91
539.60	36856.42
539.77	36802.58
539.94	37064.72
540.11	37305.80
540.28	37385.38
540.44	37338.57
540.61	37558.58
540.78	37226.22
540.95	37312.82
541.12	37839.44
541.29	37642.84
541.46	37666.24
541.62	37502.40
541.79	37614.75
541.96	37745.82
542.13	37364.31
542.30	37848.80
542.47	38029.02
542.63	38003.28
542.80	38129.67
542.97	37635.81
543.14	38132.01
543.31	38080.52
543.48	38045.41
543.64	38590.75
543.81	38511.17
543.98	38712.46
544.15	38391.81
544.32	38705.44
544.48	38677.35
544.65	38242.01
544.82	38726.50
544.99	38080.52
545.16	38305.21
545.32	38206.90
545.49	39019.07
545.66	39730.59
545.83	40158.91
546.00	39929.54
546.16	39009.71
546.33	38927.79
546.50	38691.40
546.67	38419.89
546.83	38410.53
547.00	39203.97
547.17	38707.78
547.34	38672.67
547.50	39033.11
547.67	39234.40
547.84	38831.83
548.00	38822.47
548.17	38979.28
548.34	39016.73
548.51	39330.36
548.67	39494.20
548.84	39538.67
549.01	38930.13
549.18	39000.35
549.34	39255.46
549.51	39716.55
549.68	39126.74
549.84	39098.65
550.01	39601.86
550.18	39206.31
550.34	39026.09
550.51	39824.22
550.68	39512.92
550.84	39557.39
551.01	39690.80
551.18	39414.62
551.34	39435.69
551.51	39950.60
551.68	39700.17
551.84	39845.28
552.01	39463.77
552.18	39735.27
552.34	39819.53
552.51	39908.47
552.68	39332.70
552.84	40098.06
553.01	39508.24
553.18	39845.28
553.34	39943.58
553.51	39941.24
553.67	40135.51
553.84	40306.37
554.01	39934.22
554.17	40088.70
554.34	40011.46
554.51	39992.73
554.67	39929.54
554.84	40404.67
555.00	39828.90
555.17	40013.80
555.33	39833.58
555.50	40048.91
555.67	40154.23
555.83	40390.62
556.00	40081.67
556.16	40414.03
556.33	40191.68
556.50	40245.51
556.66	40519.35
556.83	40708.94
556.99	40432.75
557.16	40512.33
557.32	40577.87
557.49	40741.71
557.65	39959.97
557.82	40133.17
557.98	40425.73
558.15	40409.35
558.32	40428.07
558.48	39910.82
558.65	40128.48
558.81	40884.48
558.98	40460.84
559.14	40790.86
559.31	40299.34
559.47	40512.33
559.64	40751.07
559.80	40456.16
559.97	40800.22
560.13	40388.28
560.30	40783.83
560.46	40935.97
560.63	40978.10
560.79	40896.18
560.96	41062.36
561.12	40765.11
561.29	40620.00
561.45	40964.06
561.61	40741.71
561.78	41233.22
561.94	40744.05
562.11	41053.00
562.27	40655.11
562.44	40886.82
562.60	40676.17
562.77	40755.75
562.93	40828.30
563.10	41329.18
563.26	40465.52
563.42	41130.23
563.59	41048.32
563.75	41081.08
563.92	41132.57
564.08	40673.83
564.24	40744.05
564.41	41076.40
564.57	40673.83
564.74	40666.81
564.90	40587.23
565.07	40624.68
565.23	41230.88
565.39	40912.56
565.56	41188.75
565.72	41038.95
565.88	40821.28
566.05	41029.59
566.21	40844.69
566.38	41010.87
566.54	41380.67
566.70	41141.94
566.87	41251.94
567.03	41216.83
567.19	41680.26
567.36	41202.79
567.52	41113.85
567.68	41081.08
567.85	41137.26
568.01	41167.68
568.17	41137.26
568.34	41195.77
568.50	41383.01
568.66	41368.97
568.83	40940.65
568.99	41324.50
569.15	41352.58
569.32	40849.37
569.48	41361.95
569.64	40952.35
569.81	40996.82
569.97	41310.46
570.13	41631.11
570.30	41563.23
570.46	41551.53
570.62	41067.04
570.78	41134.92
570.95	41050.66
571.11	41205.13
571.27	41031.93
571.43	41074.06
571.60	40715.96
571.76	41514.08
571.92	41132.57
572.09	41315.14
572.25	41507.06
572.41	41467.27
572.57	40994.48
572.74	41474.29
572.90	41593.66
573.06	41017.89
573.22	41050.66
573.38	41310.46
573.55	41661.54
573.71	41476.63
573.87	41476.63
574.03	41385.35
574.20	41556.21
574.36	41134.92
574.52	41743.45
574.68	41228.54
574.84	41493.02
575.01	41706.01
575.17	41535.15
575.33	41109.17
575.49	41532.81
575.65	41780.90
575.82	41745.80
575.98	41233.22
576.14	41703.67
576.30	41172.36
576.46	41619.41
576.62	41024.91
576.79	41483.66
576.95	41270.67
577.11	41530.47
577.27	41872.18
577.43	41247.26
577.59	41801.97
577.75	41567.91
577.92	41275.35
578.08	41118.53
578.24	41041.29
578.40	41663.88
578.56	41638.13
578.72	41724.73
578.88	41706.01
579.04	41855.80
579.21	41635.79
579.37	42129.64
579.53	41698.98
579.69	41493.02
579.85	41167.68
580.01	41139.60
580.17	41109.17
580.33	41785.58
580.49	41392.37
580.65	41682.60
580.82	41478.97
580.98	41380.67
581.14	41832.39
581.30	41331.52
581.46	41254.28
581.62	41237.90
581.78	41837.08
581.94	41464.93
582.10	41549.19
582.26	41338.54
582.42	41413.44
582.58	41605.36
582.74	41633.45
582.90	41778.56
583.06	41251.94
583.22	41500.04
583.38	41684.94
583.54	41834.74
583.70	41488.34
583.86	41918.99
584.02	41677.92
584.18	42134.32
584.34	41853.46
584.50	41390.03
584.66	41691.96
584.82	41823.03
584.98	41504.72
585.14	41720.05
585.30	41280.03
585.46	41415.78
585.62	41703.67
585.78	41862.82
585.94	41673.24
586.10	41759.84
586.26	41610.04
586.42	41792.61
586.58	41502.38
586.74	41612.38
586.90	41516.42
587.06	41352.58
587.22	41696.64
587.38	41296.41
587.54	41701.32
587.70	41951.76
587.86	41436.84
588.02	41600.68
588.18	41996.23
588.34	42036.02
588.49	41923.68
588.65	41631.11
588.81	41588.98
588.97	41940.06
589.13	41439.18
589.29	41691.96
589.45	41486.00
589.61	41872.18
589.77	41979.85
589.93	41930.70
590.08	41816.01
590.24	41968.15
590.40	41851.12
590.56	41991.55
590.72	41406.42
590.88	41539.83
591.04	41469.61
591.20	42417.53
591.35	41706.01
591.51	42330.93
591.67	42190.50
591.83	42134.32
591.99	41813.67
592.15	41900.27
592.31	41879.21
592.46	42068.79
592.62	41790.27
592.78	42082.83
592.94	41366.63
593.10	42094.53
593.26	42169.43
593.41	41731.75
593.57	42012.62
593.73	42485.40
593.89	42314.55
594.05	41701.32
594.20	41848.78
594.36	42134.32
594.52	41443.87
594.68	41986.87
594.84	41811.33
594.99	41851.12
595.15	41837.08
595.31	41935.38
595.47	42099.22
595.62	41883.89
595.78	41869.84
595.94	41837.08
596.10	41603.02
596.25	41596.00
596.41	41986.87
596.57	41200.45
596.73	41799.63
596.88	42167.09
597.04	41481.31
597.20	41993.89
597.36	42122.62
597.51	41865.16
597.67	41769.20
597.83	41823.03
597.99	41963.46
598.14	41542.17
598.30	41792.61
598.46	41640.47
598.61	41921.34
598.77	41879.21
598.93	42251.35
599.09	42087.51
599.24	42139.00
599.40	41893.25
599.56	41865.16
599.71	41918.99
599.87	42204.54
600.03	42342.63
600.18	41661.54
600.34	41687.28
600.50	41904.95
600.65	41968.15
600.81	41710.69
600.97	42354.33
601.12	42103.90
601.28	42253.69
601.44	41904.95
601.59	41961.12
601.75	41684.94
601.91	41654.51
602.06	41890.91
602.22	42188.16
602.37	41624.09
602.53	41921.34
602.69	42103.90
602.84	42019.64
603.00	41422.80
603.16	42146.03
603.31	41411.10
603.47	41996.23
603.62	41626.43
603.78	41507.06
603.94	41986.87
604.09	41799.63
604.25	41673.24
604.40	41469.61
604.56	41701.32
604.71	41937.72
604.87	41930.70
605.03	41846.44
605.18	42199.86
605.34	41935.38
605.49	41303.43
605.65	41591.32
605.80	41359.61
605.96	41397.06
606.12	41411.10
606.27	41776.22
606.43	41940.06
606.58	41537.49
606.74	41565.57
606.89	41357.27
607.05	41801.97
607.20	41633.45
607.36	41544.51
607.51	41816.01
607.67	41296.41
607.82	41095.13
607.98	41528.13
608.13	41048.32
608.29	41567.91
608.44	41244.92
608.60	41296.41
608.75	41633.45
608.91	41710.69
609.06	41146.62
609.22	41797.29
609.37	40903.20
609.53	41570.25
609.68	41216.83
609.84	41174.70
609.99	41434.50
610.15	41216.83
610.30	41457.91
610.46	41771.54
610.61	41663.88
610.76	41741.11
610.92	41869.84
611.07	42169.43
611.23	42019.64
611.38	42155.39
611.54	41502.38
611.69	41904.95
611.84	41291.73
612.00	41373.65
612.15	41415.78
612.31	41546.85
612.46	41263.64
612.62	41268.33
612.77	41336.20
612.92	41401.74
613.08	41291.73
613.23	41099.81
613.39	41141.94
613.54	40809.58
613.69	40832.99
613.85	40542.76
614.00	40971.08
614.15	41029.59
614.31	40737.02
614.46	40989.80
614.62	41003.85
614.77	40882.14
614.92	41109.17
615.08	40903.20
615.23	40786.18
615.38	40933.63
615.54	40488.93
615.69	40701.92
615.84	40430.41
616.00	40360.20
616.15	40608.29
616.30	40872.78
616.46	40397.65
616.61	40975.76
616.76	40402.33
616.92	40488.93
617.07	40268.92
617.22	40023.16
617.37	40023.16
617.53	40044.23
617.68	40168.27
617.83	39981.03
617.99	40060.61
618.14	40163.59
618.29	40629.36
618.45	40292.32
618.60	39842.94
618.75	40210.40
618.90	40271.26
619.06	40123.80
619.21	39917.84
619.36	39922.52
619.51	39693.15
619.67	39349.09
619.82	39845.28
619.97	39789.11
620.12	39683.78
620.28	39679.10
620.43	39791.45
620.58	40210.40
620.73	39728.25
620.89	39878.05
621.04	39903.79
621.19	39885.07
621.34	39601.86
621.49	39136.10
621.65	39847.62
621.80	39681.44
621.95	39431.01
622.10	39164.18
622.25	38866.94
622.41	39239.08
622.56	39674.42
622.71	39833.58
622.86	39739.96
623.01	39187.59
623.16	39512.92
623.32	38953.54
623.47	39550.37
623.62	39164.18
623.77	39400.58
623.92	39023.75
624.07	38904.38
624.23	39555.05
624.38	39290.57
624.53	39234.40
624.68	39475.48
624.83	39585.48
624.98	39346.75
625.13	39016.73
625.29	39433.35
625.44	39166.52
625.59	38529.90
625.74	38738.21
625.89	38567.35
626.04	38796.72
626.19	39009.71
626.34	38588.41
626.49	38888.00
626.65	38581.39
626.80	38946.51
626.95	38712.46
627.10	39061.20
627.25	38642.24
627.40	38354.36
627.55	39143.12
627.70	38689.06
627.85	38394.15
628.00	38419.89
628.15	38157.75
628.30	38656.29
628.45	38553.30
628.60	38464.36
628.76	38426.92
628.91	38553.30
629.06	38735.87
629.21	38387.13
629.36	38513.52
629.51	38085.20
629.66	38417.55
629.81	38305.21
629.96	37823.06
630.11	38300.53
630.26	38174.14
630.41	38232.65
630.56	37989.24
630.71	38410.53
630.86	38300.53
631.01	38426.92
631.16	38389.47
631.31	37982.21
631.46	37989.24
631.61	38150.73
631.76	38045.41
631.91	38129.67
632.06	37869.87
632.21	37930.72
632.36	37865.19
632.51	37816.04
632.66	37785.61
632.81	37567.94
632.96	37895.61
633.10	37958.81
633.25	37876.89
633.40	37673.26
633.55	37717.73
633.70	37741.14
633.85	37844.12
634.00	37230.90
634.15	37036.64
634.30	37471.98
634.45	37607.73
634.60	37535.17
634.75	37254.31
634.90	37214.52
635.05	37170.05
635.19	37275.37
635.34	37713.05
635.49	37598.37
635.64	37310.48
635.79	37266.01
635.94	36943.02
636.09	37434.53
636.24	37095.15
636.39	36762.79
636.53	36961.74
636.68	36980.46
636.83	37301.12
636.98	37394.74
637.13	37165.37
637.28	37406.44
637.43	37109.19
637.57	37659.22
637.72	37088.13
637.87	36732.37
638.02	36903.23
638.17	36676.19
638.32	36842.37
638.46	36517.04
638.61	36282.98
638.76	36252.56
638.91	36580.23
639.06	36409.37
639.20	36603.64
639.35	36840.03
639.50	36617.68
639.65	36790.88
639.80	36790.88
639.94	36657.47
640.09	36786.20
640.24	36552.15
640.39	36072.34
640.54	36238.51
640.68	36341.50
640.83	36463.21
640.98	35985.74
641.13	36006.80
641.27	36554.49
641.42	36313.41
641.57	36250.22
641.72	36418.74
641.86	36470.23
642.01	36198.73
642.16	36678.54
642.31	35861.69
642.45	36264.26
642.60	35819.56
642.75	35700.19
642.90	35716.58
643.04	36409.37
643.19	35910.84
643.34	36168.30
643.48	36081.70
643.63	36491.29
643.78	35777.43
643.93	36308.73
644.07	36301.71
644.22	35838.28
644.37	36355.54
644.51	35728.28
644.66	36098.08
644.81	35573.80
644.95	35761.05
645.10	35505.93
645.25	35494.22
645.39	35723.60
645.54	35920.20
645.69	35835.94
645.83	35983.40
645.98	35840.62
646.13	36184.68
646.27	35728.28
646.42	35786.79
646.57	35395.92
646.71	35632.32
646.86	35817.22
647.00	36067.66
647.15	35557.42
647.30	35328.05
647.44	35428.69
647.59	35236.77
647.74	35220.38
647.88	35672.10
648.03	35662.74
648.17	35662.74
648.32	34925.47
648.47	35807.86
648.61	35489.54
648.76	35452.09
648.90	35283.58
649.05	34981.65
649.20	35192.30
649.34	35426.35
649.49	35180.59
649.63	35007.39
649.78	35185.27
649.92	34710.14
650.07	35260.17
650.21	35323.36
650.36	35292.94
650.51	35063.57
650.65	35255.49
650.80	35255.49
650.94	35145.48
651.09	34876.32
651.23	35164.21
651.38	34668.02
651.52	34625.89
651.67	34314.59
651.81	34705.46
651.96	34677.38
652.10	34646.95
652.25	34845.90
652.39	34932.50
652.54	35129.10
652.68	35098.67
652.83	34841.21
652.97	34799.08
653.12	34738.23
653.26	34951.22
653.41	34410.56
653.55	34499.50
653.70	34401.19
653.84	34256.08
653.99	34625.89
654.13	33862.87
654.27	34316.93
654.42	34527.58
654.56	34338.00
654.71	34541.63
654.85	34581.42
655.00	34396.51
655.14	34749.93
655.29	34054.79
655.43	34625.89
655.57	34291.19
655.72	34342.68
655.86	34050.11
656.01	34043.09
656.15	33970.54
656.30	33886.28
656.44	34026.71
656.58	34209.27
656.73	33977.56
656.87	34115.65
657.01	33888.62
657.16	34223.31
657.30	34115.65
657.45	34368.43
657.59	34120.33
657.73	33912.02
657.88	34288.85
658.02	34169.48
658.16	33574.98
658.31	33708.40
658.45	33472.00
658.60	33549.24
658.74	33638.18
658.88	33261.35
659.03	33411.15
659.17	33752.87
659.31	33783.29
659.46	33418.17
659.60	34120.33
659.74	33397.10
659.89	33289.44
660.03	33116.24
660.17	33493.07
660.32	33628.82
660.46	33263.69
660.60	32961.76
660.74	33156.03
660.89	32884.53
661.03	33050.70
661.17	32786.22
661.32	32818.99
661.46	32826.01
661.60	33020.28
661.74	32549.83
661.89	32868.14
662.03	33060.07
662.17	32830.69
662.31	32465.57
662.46	32828.35
662.60	32594.30
662.74	32547.49
662.88	32704.31
663.03	31892.14
663.17	32617.71
663.31	32360.25
663.45	32360.25
663.60	32290.03
663.74	32063.00
663.88	32538.13
664.02	32280.67
664.17	32575.58
664.31	32077.04
664.45	32238.54
664.59	31934.27
664.73	32240.88
664.88	32091.09
665.02	31592.55
665.16	31655.75
665.30	31807.88
665.44	31519.99
665.59	31243.81
665.73	31171.25
665.87	31985.76
666.01	31374.88
666.15	31793.84
666.29	31725.96
666.44	31892.14
666.58	31555.10
666.72	31531.70
666.86	31674.47
667.00	31648.72
667.14	31386.58
667.28	31398.29
667.43	31012.10
667.57	30965.29
667.71	30639.95
667.85	31197.00
667.99	30852.94
668.13	30962.95
668.27	31204.02
668.41	31260.20
668.56	30565.06
668.70	30726.55
668.84	31103.38
668.98	30768.68
669.12	30494.84
669.26	30806.13
669.40	30824.86
669.54	30146.10
669.68	30419.94
669.82	30185.89
669.96	29916.73
670.10	30185.89
670.25	29977.58
670.39	30419.94
670.53	29963.54
670.67	29970.56
670.81	30443.35
670.95	29600.76
671.09	29818.42
671.23	29921.41
671.37	29640.54
671.51	29893.32
671.65	29816.08
671.79	29738.85
671.93	29675.65
672.07	29769.27
672.21	29448.62
672.35	29102.22
672.49	29376.06
672.63	29340.96
672.77	29289.46
672.91	28938.38
673.05	29099.88
673.19	28994.56
673.33	29195.84
673.47	28889.23
673.61	28989.88
673.75	29434.58
673.89	28875.19
674.03	28847.10
674.17	28793.27
674.31	28872.85
674.45	28423.47
674.59	28423.47
674.73	28371.97
674.87	28615.39
675.01	28250.27
675.15	27929.61
675.29	28163.67
675.43	28350.91
675.56	28280.69
675.70	28449.21
675.84	28091.11
675.98	27253.20
676.12	28100.47
676.26	27992.81
676.40	28041.96
676.54	27765.78
676.68	27704.92
676.82	26590.83
676.96	27318.73
677.10	27072.98
677.23	27225.11
677.37	26806.16
677.51	26951.27
677.65	26567.42
677.79	26803.82
677.93	27065.96
678.07	26733.60
678.21	26426.99
678.34	26728.92
678.48	26679.77
678.62	26518.27
678.76	26270.17
678.90	26232.72
679.04	26080.59
679.18	26249.11
679.31	25991.65
679.45	25699.08
679.59	25724.83
679.73	25790.36
679.87	25640.57
680.00	25745.89
680.14	25462.69
680.28	25694.40
680.42	25675.68
680.56	25486.09
680.70	25366.73
680.83	25392.47
680.97	25371.41
681.11	25282.47
681.25	25577.37
681.39	25177.14
681.52	24835.42
681.66	24493.71
681.80	24849.47
681.94	24627.12
682.07	24503.07
682.21	24222.20
682.35	24334.55
682.49	24442.21
682.62	24126.24
682.76	24276.04
682.90	23882.83
683.04	23735.37
683.17	23789.20
683.31	23990.49
683.45	24212.84
683.59	23896.87
683.72	23538.77
683.86	23681.54
684.00	23524.72
684.13	23653.45
684.27	23601.96
684.41	22944.27
684.55	23075.34
684.68	23232.16
684.82	22691.49
684.96	22939.59
685.09	22927.89
685.23	22647.02
685.37	22925.55
685.50	22785.12
685.64	22988.74
685.78	22820.22
685.91	22618.94
686.05	22710.22
686.19	22380.20
686.32	22670.43
686.46	22207.00
686.60	22078.27
686.73	22148.49
686.87	21876.99
687.01	22082.95
687.14	22008.06
687.28	21834.86
687.42	21818.47
687.55	21769.32
687.69	21575.06
687.82	21406.54
687.96	21207.59
688.10	21366.75
688.23	21486.12
688.37	21411.22
688.50	21490.80
688.64	21144.40
688.78	20994.61
688.91	21029.71
689.05	20662.25
689.18	20886.94
689.32	20329.89
689.46	20732.47
689.59	20140.31
689.73	20191.80
689.86	20484.37
690.00	20301.81
690.13	20348.62
690.27	20023.28
690.41	20049.03
690.54	19955.41
690.68	20226.91
690.81	19908.60
690.95	20355.64
691.08	19988.18
691.22	19857.10
691.35	19964.77
691.49	19768.16
691.62	19407.72
691.76	19309.42
691.89	19112.81
692.03	19225.16
692.16	18956.00
692.30	19037.92
692.43	18874.08
692.57	19002.81
692.70	19098.77
692.84	18443.42
692.97	18845.99
693.11	18785.14
693.24	18764.07
693.38	18944.30
693.51	18340.44
693.65	18616.62
693.78	18441.08
693.92	18176.60
694.05	17951.91
694.19	18359.16
694.32	17881.69
694.45	17980.00
694.59	17827.86
694.72	17638.28
694.86	17591.47
694.99	17680.41
695.13	17809.14
695.26	17610.19
695.39	17303.58
695.53	17497.84
695.66	17483.80
695.80	17336.35
695.93	17380.82
696.07	17135.06
696.20	17106.98
696.33	17284.86
696.47	17050.80
696.60	16788.66
696.73	16987.61
696.87	16971.22
697.00	16908.03
697.14	16645.89
697.27	16430.56
697.40	16201.19
697.54	16278.43
697.67	16177.78
697.80	16320.56
697.94	15903.94
698.07	16238.64
698.21	15985.86
698.34	16168.42
698.47	15988.20
698.61	15810.32
698.74	15742.44
698.87	15644.14
699.01	15597.33
699.14	15651.16
699.27	15433.49
699.40	15274.34
699.54	15185.40
699.67	15384.34
699.80	15131.56
699.94	15094.11
700.07	15035.60
700.20	14796.87
700.34	14721.97
700.47	14930.28
700.60	14883.47
700.73	15035.60
700.87	14565.15
701.00	14621.33
701.13	14494.94
701.26	14398.98
701.40	14995.81
701.53	14523.02
701.66	14420.04
701.79	14267.91
701.93	14225.78
702.06	13820.86
702.19	13603.19
702.32	14043.21
702.46	13928.53
702.59	13940.23
702.72	13982.36
702.85	13788.10
702.99	13862.99
703.12	13624.26
703.25	13411.27
703.38	13577.45
703.51	13504.89
703.65	13462.76
703.78	13532.98
703.91	13224.03
704.04	13425.31
704.17	13312.97
704.31	13060.19
704.44	13022.74
704.57	12798.05
704.70	12863.58
704.83	12697.41
704.96	12786.35
705.10	12648.26
705.23	12575.70
>>>>>End Processed Spectral Data<<<<<
