SpectraSuite Data File
++++++++++++++++++++++++++++++++++++
Date: Fri Oct 04 11:39:37 GMT-05:00 2013
User: price-jones
Dark Spectrum Present: No
Reference Spectrum Present: No
Number of Sampled Component Spectra: 1
Spectrometers: USB2+H05261
Integration Time (usec): 100000 (USB2+H05261)
Spectra Averaged: 1 (USB2+H05261)
Boxcar Smoothing: 0 (USB2+H05261)
Correct for Electrical Dark: No (USB2+H05261)
Strobe/Lamp Enabled: No (USB2+H05261)
Correct for Detector Non-linearity: No (USB2+H05261)
Correct for Stray Light: No (USB2+H05261)
Number of Pixels in Processed Spectrum: 2048
>>>>>Begin Processed Spectral Data<<<<<
365.73	67.88
365.92	67.88
366.12	67.88
366.32	0.00
366.52	0.00
366.72	0.00
366.91	11.70
367.11	0.00
367.31	0.00
367.51	0.00
367.70	0.00
367.90	0.00
368.10	0.00
368.30	0.00
368.49	0.00
368.69	16.38
368.89	0.00
369.09	0.00
369.28	0.00
369.48	0.00
369.68	11.70
369.87	0.00
370.07	56.17
370.27	58.51
370.47	93.62
370.66	266.82
370.86	212.99
371.06	344.06
371.25	339.38
371.45	299.59
371.65	320.65
371.84	327.68
372.04	400.23
372.24	386.19
372.44	402.57
372.63	358.10
372.83	461.09
373.03	353.42
373.22	442.36
373.42	449.38
373.62	493.85
373.81	400.23
374.01	512.58
374.21	561.73
374.40	397.89
374.60	414.27
374.79	421.30
374.99	463.43
375.19	519.60
375.38	468.11
375.58	388.53
375.78	538.32
375.97	538.32
376.17	543.00
376.37	505.56
376.56	535.98
376.76	472.79
376.95	386.19
377.15	538.32
377.35	486.83
377.54	587.47
377.74	456.40
377.93	465.77
378.13	491.51
378.33	564.07
378.52	594.50
378.72	489.17
378.91	510.24
379.11	514.92
379.31	554.71
379.50	510.24
379.70	596.84
379.89	550.03
380.09	510.24
380.28	430.66
380.48	554.71
380.68	610.88
380.87	557.05
381.07	610.88
381.26	629.60
381.46	571.09
381.65	622.58
381.85	528.96
382.04	552.37
382.24	601.52
382.43	610.88
382.63	505.56
382.83	559.39
383.02	599.18
383.22	643.65
383.41	552.37
383.61	657.69
383.80	662.37
384.00	634.29
384.19	627.26
384.39	643.65
384.58	608.54
384.78	580.45
384.97	596.84
385.17	678.76
385.36	727.91
385.56	653.01
385.75	660.03
385.95	739.61
386.14	643.65
386.34	688.12
386.53	716.20
386.72	695.14
386.92	734.93
387.11	688.12
387.31	676.41
387.50	706.84
387.70	709.18
387.89	716.20
388.09	739.61
388.28	615.56
388.48	732.59
388.67	812.17
388.86	774.72
389.06	781.74
389.25	800.46
389.45	772.38
389.64	765.36
389.84	856.64
390.03	868.34
390.22	819.19
390.42	823.87
390.61	812.17
390.81	767.70
391.00	854.30
391.19	842.59
391.39	823.87
391.58	889.40
391.78	910.47
391.97	795.78
392.16	903.45
392.36	828.55
392.55	863.66
392.75	957.28
392.94	919.83
393.13	854.30
393.33	922.17
393.52	936.21
393.71	919.83
393.91	957.28
394.10	884.72
394.29	905.79
394.49	997.07
394.68	987.71
394.88	954.94
395.07	985.37
395.26	990.05
395.46	947.92
395.65	1048.56
395.84	1109.41
396.04	1137.50
396.23	1027.50
396.42	1095.37
396.62	1006.43
396.81	1008.77
397.00	1057.92
397.19	1144.52
397.39	1118.78
397.58	1088.35
397.77	1088.35
397.97	1095.37
398.16	1125.80
398.35	1132.82
398.55	1191.33
398.74	1163.25
398.93	1156.22
399.12	1245.16
399.32	1109.41
399.51	1172.61
399.70	1200.69
399.90	1142.18
400.09	1233.46
400.28	1261.55
400.47	1273.25
400.67	1268.57
400.86	1282.61
401.05	1324.74
401.24	1366.87
401.44	1376.24
401.63	1348.15
401.82	1390.28
402.01	1336.45
402.21	1364.53
402.40	1437.09
402.59	1378.58
402.78	1455.81
402.97	1523.69
403.17	1481.56
403.36	1401.98
403.55	1430.07
403.74	1434.75
403.93	1476.88
404.13	1472.20
404.32	1572.84
404.51	1502.62
404.70	1652.42
404.89	1664.12
405.09	1668.80
405.28	1647.74
405.47	1509.65
405.66	1710.93
405.85	1643.06
406.05	1640.72
406.24	1703.91
406.43	1647.74
406.62	1717.95
406.81	1774.13
407.00	1659.44
407.20	1699.23
407.39	1781.15
407.58	1804.55
407.77	1827.96
407.96	1944.99
408.15	1900.52
408.34	1825.62
408.54	1907.54
408.73	1858.39
408.92	1846.68
409.11	1987.11
409.30	1991.80
409.49	2052.65
409.68	2069.03
409.87	1984.77
410.07	2064.35
410.26	2087.76
410.45	1984.77
410.64	2115.84
410.83	2136.91
411.02	2143.93
411.21	2211.81
411.40	2188.40
411.59	2232.87
411.78	2197.76
411.98	2141.59
412.17	2361.60
412.36	2321.81
412.55	2445.86
412.74	2356.92
412.93	2424.80
413.12	2427.14
413.31	2523.10
413.50	2513.74
413.69	2532.46
413.88	2602.68
414.07	2602.68
414.26	2504.37
414.45	2579.27
414.64	2527.78
414.83	2616.72
415.02	2661.19
415.22	2778.22
415.41	2850.77
415.60	2691.62
415.79	2878.86
415.98	2775.88
416.17	2813.32
416.36	2834.39
416.55	3014.61
416.74	2937.37
416.93	2939.71
417.12	3047.38
417.31	3075.46
417.50	2967.80
417.69	3063.76
417.88	3232.28
418.07	3068.44
418.26	3187.81
418.45	3239.30
418.64	3417.18
418.83	3353.99
419.02	3180.79
419.21	3281.43
419.39	3398.46
419.58	3173.77
419.77	3239.30
419.96	3328.24
420.15	3372.71
420.34	3494.42
420.53	3414.84
420.72	3391.44
420.91	3421.86
421.10	3520.17
421.29	3585.70
421.48	3407.82
421.67	3529.53
421.86	3557.61
422.05	3485.06
422.24	3585.70
422.43	3620.81
422.61	3712.09
422.80	3618.47
422.99	3592.72
423.18	3627.83
423.37	3735.50
423.56	3616.13
423.75	3712.09
423.94	3534.21
424.13	3456.97
424.32	3501.44
424.50	3634.85
424.69	3721.45
424.88	3796.35
425.07	3613.79
425.26	3674.64
425.45	3719.11
425.64	3667.62
425.83	3747.20
426.01	3829.12
426.20	3737.84
426.39	3840.82
426.58	3859.54
426.77	3864.22
426.96	3899.33
427.15	3836.14
427.33	3875.93
427.52	3836.14
427.71	3857.20
427.90	3911.04
428.09	4004.66
428.28	3948.48
428.46	3964.87
428.65	4007.00
428.84	4091.26
429.03	4208.28
429.22	3978.91
429.40	4124.02
429.59	4140.41
429.78	4098.28
429.97	4063.17
430.16	4025.72
430.34	4276.16
430.53	4271.48
430.72	4276.16
430.91	4229.35
431.10	4095.94
431.28	4126.36
431.47	4339.35
431.66	4383.82
431.85	4386.16
432.03	4432.97
432.22	4468.08
432.41	4337.01
432.60	4409.57
432.79	4519.57
432.97	4477.44
433.16	4528.94
433.35	4402.55
433.54	4477.44
433.72	4620.22
433.91	4592.13
434.10	4690.43
434.28	4592.13
434.47	4765.33
434.66	4688.09
434.85	4755.97
435.03	4847.25
435.22	4908.10
435.41	5308.34
435.59	5167.90
435.78	5097.69
435.97	4851.93
436.16	4938.53
436.34	4812.14
436.53	4861.29
436.72	5006.41
436.90	4737.24
437.09	4936.19
437.28	4812.14
437.46	5111.73
437.65	5153.86
437.84	5121.09
438.02	5055.56
438.21	5135.14
438.40	5018.11
438.58	5219.39
438.77	5305.99
438.96	5284.93
439.14	5366.85
439.33	5298.97
439.52	5313.02
439.70	5345.78
439.89	5338.76
440.08	5518.98
440.26	5577.50
440.45	5654.73
440.63	5589.20
440.82	5624.31
441.01	5734.31
441.19	5736.65
441.38	5720.27
441.57	5907.51
441.75	5874.74
441.94	5799.85
442.12	5870.06
442.31	5959.00
442.50	6076.03
442.68	5884.11
442.87	5858.36
443.05	6005.81
443.24	6094.76
443.43	6022.20
443.61	6200.08
443.80	6139.23
443.98	5994.11
444.17	5944.96
444.35	6029.22
444.54	6296.04
444.73	6155.61
444.91	6162.63
445.10	6251.57
445.28	6286.68
445.47	6146.25
445.65	6125.18
445.84	6253.91
446.02	6270.30
446.21	6438.81
446.39	6181.35
446.58	6235.19
446.77	6207.10
446.95	6176.67
447.14	6314.77
447.32	6274.98
447.51	6253.91
447.69	6258.59
447.88	6384.98
448.06	6352.21
448.25	6370.94
448.43	6211.78
448.62	6310.08
448.80	6317.11
448.99	6502.01
449.17	6434.13
449.36	6499.67
449.54	6656.48
449.73	6614.35
449.91	6604.99
450.10	6810.96
450.28	6626.06
450.46	6637.76
450.65	6736.06
450.83	6881.18
451.02	6806.28
451.20	6719.68
451.39	6754.79
451.57	6883.52
451.76	6768.83
451.94	6864.79
452.13	6885.86
452.31	6808.62
452.49	6815.64
452.68	7014.59
452.86	6951.39
453.05	7023.95
453.23	6960.75
453.42	6846.07
453.60	6759.47
453.78	7180.76
453.97	6993.52
454.15	7133.95
454.34	7087.14
454.52	7063.74
454.70	7150.34
454.89	7204.17
455.07	7112.89
455.26	7276.73
455.44	7293.11
455.62	7330.56
455.81	7241.62
455.99	7489.71
456.17	7449.93
456.36	7356.30
456.54	7398.43
456.73	7583.34
456.91	7674.62
457.09	7639.51
457.28	7939.10
457.46	7524.82
457.64	7805.69
457.83	7634.83
458.01	7653.55
458.19	7880.58
458.38	7819.73
458.56	7857.18
458.74	7838.45
458.93	7880.58
459.11	7882.92
459.29	7866.54
459.48	7927.39
459.66	7868.88
459.84	7948.46
460.03	8105.28
460.21	7992.93
460.39	8070.17
460.57	8049.10
460.76	8234.00
460.94	8131.02
461.12	8095.91
461.31	8116.98
461.49	8205.92
461.67	8065.49
461.85	8421.25
462.04	8285.50
462.22	8564.02
462.40	8432.95
462.59	8449.33
462.77	8416.57
462.95	8524.23
463.13	8531.25
463.32	8535.93
463.50	8449.33
463.68	8617.85
463.86	8610.83
464.05	8409.54
464.23	8547.64
464.41	8741.90
464.59	8624.87
464.78	8936.17
464.96	8702.11
465.14	8748.92
465.32	8826.16
465.50	8910.42
465.69	8858.93
465.87	8849.57
466.05	8954.89
466.23	8751.26
466.41	8887.01
466.60	9188.94
466.78	8882.33
466.96	8793.39
467.14	8865.95
467.32	8849.57
467.51	9334.06
467.69	8786.37
467.87	9153.84
468.05	9200.65
468.23	9090.64
468.41	9188.94
468.60	9296.61
468.78	9315.33
468.96	9158.52
469.14	9287.25
469.32	9308.31
469.50	9088.30
469.69	9516.62
469.87	9624.28
470.05	9376.19
470.23	9626.62
470.41	9596.20
470.59	9844.29
470.77	9572.79
470.95	9607.90
471.14	9767.06
471.32	9437.04
471.50	9837.27
471.68	9914.51
471.86	9832.59
472.04	9998.77
472.22	10176.65
472.40	9928.55
472.58	10080.69
472.77	10415.38
472.95	10300.70
473.13	10626.03
473.31	10335.81
473.49	10197.71
473.67	10370.91
473.85	10286.65
474.03	10555.82
474.21	10445.81
474.39	10724.33
474.57	10832.00
474.75	11042.65
474.93	11133.93
475.12	10846.04
475.30	10958.39
475.48	10808.59
475.66	10995.84
475.84	11126.91
476.02	11084.78
476.20	11379.68
476.38	11428.84
476.56	11719.06
476.74	11482.67
476.92	11510.75
477.10	11316.49
477.28	11506.07
477.46	11653.53
477.64	11754.17
477.82	11936.73
478.00	12044.40
478.18	12255.04
478.36	12250.36
478.54	12287.81
478.72	12446.97
478.90	12596.76
479.08	12587.40
479.26	12655.28
479.44	12793.37
479.62	12889.33
479.80	12952.52
479.98	12936.14
480.16	13104.66
480.34	13235.73
480.52	13509.57
480.70	13589.15
480.88	13422.97
481.06	13537.66
481.24	13298.92
481.41	14068.96
481.59	13837.25
481.77	13968.32
481.95	13944.91
482.13	14267.91
482.31	14190.67
482.49	14576.86
482.67	14504.30
482.85	14904.53
483.03	14960.70
483.21	14972.41
483.39	15115.18
483.57	15131.56
483.74	14958.36
483.92	15276.68
484.10	15417.11
484.28	15604.35
484.46	15843.09
484.64	16077.14
484.82	15889.90
485.00	15955.43
485.18	16219.91
485.35	16442.26
485.53	16343.96
485.71	16603.76
485.89	16826.11
486.07	16774.62
486.25	16538.23
486.43	16723.13
486.61	16837.81
486.78	17319.96
486.96	17436.99
487.14	17692.11
487.32	17701.47
487.50	17755.30
487.68	17544.66
487.85	18118.09
488.03	18356.82
488.21	18548.75
488.39	18420.02
488.57	18775.78
488.75	18848.33
488.92	19297.72
489.10	19056.64
489.28	19117.50
489.46	19578.58
489.64	19459.21
489.81	20060.73
489.99	19735.40
490.17	19679.22
490.35	20067.75
490.53	20086.48
490.70	20252.66
490.88	20219.89
491.06	20762.89
491.24	20821.41
491.41	20833.11
491.59	20908.01
491.77	21324.62
491.95	21008.65
492.13	21521.23
492.30	21352.71
492.48	21357.39
492.66	21317.60
492.84	21722.51
493.01	21610.17
493.19	22073.59
493.37	22258.49
493.54	22469.14
493.72	22565.10
493.90	22384.88
494.08	22970.02
494.25	22785.12
494.43	22644.68
494.61	22960.66
494.79	22860.01
494.96	23075.34
495.14	23157.26
495.32	23548.13
495.49	23850.06
495.67	23477.91
495.85	24032.62
496.02	24149.65
496.20	24044.32
496.38	24102.84
496.55	24671.59
496.73	24989.90
496.91	24601.37
497.09	25245.02
497.26	24987.56
497.44	24952.45
497.62	25521.20
497.79	25106.93
497.97	25226.29
498.14	25479.07
498.32	25797.38
498.50	25692.06
498.67	25937.82
498.85	25628.87
499.03	25893.35
499.20	26651.68
499.38	26249.11
499.56	26082.93
499.73	26998.08
499.91	26906.80
500.08	26927.86
500.26	26466.78
500.44	26735.94
500.61	26766.37
500.79	27171.28
500.97	27309.37
501.14	27438.10
501.32	27262.56
501.49	27536.40
501.67	27431.08
501.84	27276.60
502.02	27772.80
502.20	27976.42
502.37	27868.76
502.55	28006.85
502.72	27835.99
502.90	28238.56
503.07	27971.74
503.25	28222.18
503.43	28170.69
503.60	28741.78
503.78	28636.45
503.95	28816.68
504.13	28683.27
504.30	28751.14
504.48	28727.74
504.65	29069.45
504.83	29137.33
505.01	29163.08
505.18	29345.64
505.36	29656.93
505.53	29551.60
505.71	29572.67
505.88	29656.93
506.06	29776.30
506.23	29649.91
506.41	30080.56
506.58	30143.76
506.76	30101.63
506.93	30225.68
507.11	30263.13
507.28	30017.37
507.46	30462.07
507.63	30541.65
507.81	30553.35
507.98	30228.02
508.16	30452.71
508.33	30761.66
508.50	30902.09
508.68	31147.85
508.85	31262.54
509.03	31175.94
509.20	31297.64
509.38	31543.40
509.55	31681.49
509.73	31885.12
509.90	31922.57
510.08	32079.38
510.25	31838.31
510.42	31768.09
510.60	31882.78
510.77	32472.59
510.95	32631.75
511.12	32187.05
511.30	32128.53
511.47	32577.92
511.64	32718.35
511.82	32999.21
511.99	33024.96
512.17	33095.18
512.34	32425.78
512.51	33034.32
512.69	33312.84
512.86	33259.01
513.04	33130.28
513.21	33479.02
513.38	33727.12
513.56	33275.40
513.73	33553.92
513.90	33750.52
514.08	33228.59
514.25	34113.31
514.43	33666.27
514.60	34052.45
514.77	34017.35
514.95	34040.75
515.12	33860.53
515.29	33919.04
515.47	34473.75
515.64	34494.82
515.81	34562.69
515.99	34745.25
516.16	34808.45
516.33	34869.30
516.51	34918.45
516.68	34660.99
516.85	35012.07
517.03	35271.87
517.20	35140.80
517.37	35370.18
517.54	35559.76
517.72	35192.30
517.89	35021.44
518.06	35388.90
518.24	35189.95
518.41	35353.79
518.58	35681.47
518.75	35770.41
518.93	36123.83
519.10	35686.15
519.27	35777.43
519.45	35917.86
519.62	35854.67
519.79	36119.15
519.96	36161.28
520.14	36336.82
520.31	36095.74
520.48	36254.90
520.65	36500.65
520.83	36737.05
521.00	36730.03
521.17	36596.62
521.34	36280.64
521.52	36760.45
521.69	36783.86
521.86	37036.64
522.03	37191.11
522.20	37380.70
522.38	37141.96
522.55	36744.07
522.72	37167.71
522.89	37659.22
523.07	37699.01
523.24	37694.33
523.41	37729.44
523.58	37591.34
523.75	38223.29
523.92	37755.18
524.10	37904.98
524.27	37773.91
524.44	37895.61
524.61	38698.42
524.78	38033.71
524.96	38513.52
525.13	38307.55
525.30	38237.33
525.47	38866.94
525.64	38569.69
525.81	38447.98
525.98	38939.49
526.16	38761.61
526.33	38480.75
526.50	39049.50
526.67	38639.90
526.84	39206.31
527.01	38794.38
527.18	39154.82
527.36	39070.56
527.53	39386.54
527.70	39543.35
527.87	39625.27
528.04	39531.65
528.21	39351.43
528.38	39541.01
528.55	39234.40
528.72	39969.33
528.89	39978.69
529.07	40123.80
529.24	39423.98
529.41	39878.05
529.58	39885.07
529.75	39662.72
529.92	39475.48
530.09	40046.57
530.26	40189.34
530.43	40921.93
530.60	40428.07
530.77	40446.80
530.94	39868.69
531.11	39959.97
531.28	40210.40
531.46	40444.46
531.63	40282.96
531.80	40598.93
531.97	41078.74
532.14	40463.18
532.31	40973.42
532.48	40493.61
532.65	40711.28
532.82	41092.79
532.99	40776.81
533.16	40690.21
533.33	41495.36
533.50	41301.09
533.67	41296.41
533.84	41296.41
534.01	41116.19
534.18	41013.21
534.35	41151.30
534.52	40959.38
534.69	41701.32
534.86	41415.78
535.03	41481.31
535.20	41708.35
535.37	41493.02
535.54	41532.81
535.71	41708.35
535.88	41797.29
536.05	41467.27
536.22	41865.16
536.38	42178.79
536.55	42260.71
536.72	42064.11
536.89	41762.18
537.06	42045.38
537.23	42141.35
537.40	41918.99
537.57	42337.95
537.74	42302.84
537.91	42546.26
538.08	42689.03
538.25	42595.41
538.42	42520.51
538.59	42389.44
538.75	42389.44
538.92	42794.36
539.09	42892.66
539.26	42464.34
539.43	42838.83
539.60	42958.19
539.77	42995.64
539.94	43187.56
540.11	42997.98
540.28	43332.68
540.44	43098.62
540.61	43447.36
540.78	43342.04
540.95	43548.01
541.12	43339.70
541.29	44039.52
541.46	43093.94
541.62	43826.53
541.79	43931.86
541.96	43227.35
542.13	43562.05
542.30	43686.10
542.47	43889.73
542.63	43779.72
542.80	43426.30
542.97	44439.75
543.14	44086.33
543.31	44547.42
543.48	44266.55
543.64	44254.85
543.81	44645.72
543.98	44648.06
544.15	44121.44
544.32	44804.88
544.48	44816.58
544.65	44577.84
544.82	44502.95
544.99	43990.37
545.16	44776.79
545.32	44484.22
545.49	44825.94
545.66	45705.98
545.83	45577.25
546.00	45745.77
546.16	45242.56
546.33	44767.43
546.50	44896.16
546.67	45350.22
546.83	44577.84
547.00	44505.29
547.17	45228.51
547.34	44875.09
547.50	45188.72
547.67	45006.16
547.84	45418.10
548.00	45251.92
548.17	45420.44
548.34	45315.11
548.51	45551.51
548.67	45502.35
548.84	45624.06
549.01	45504.70
549.18	45165.32
549.34	45027.23
549.51	45141.91
549.68	45141.91
549.84	45258.94
550.01	45610.02
550.18	45272.98
550.34	45460.23
550.51	45734.07
550.68	45970.46
550.84	45485.97
551.01	46066.42
551.18	45495.33
551.34	45148.93
551.51	45010.84
551.68	45745.77
551.84	45886.20
552.01	45492.99
552.18	45825.35
552.34	45717.68
552.51	46148.34
552.68	45853.44
552.84	45801.94
553.01	45989.19
553.18	45614.70
553.34	46230.26
553.51	45839.39
553.67	46108.55
553.84	46562.62
554.01	46607.09
554.17	46026.63
554.34	46052.38
554.51	46007.91
554.67	46316.86
554.84	46169.41
555.00	46328.56
555.17	46101.53
555.33	46424.53
555.50	46036.00
555.67	46305.16
555.83	46281.75
556.00	46129.62
556.16	46199.83
556.33	46398.78
556.50	46295.80
556.66	46478.36
556.83	46258.35
556.99	46672.62
557.16	46902.00
557.32	46415.16
557.49	46639.86
557.65	46253.67
557.82	46342.61
557.98	46302.82
558.15	46246.65
558.32	46777.95
558.48	46389.42
558.65	46469.00
558.81	46611.77
558.98	46595.38
559.14	46738.16
559.31	46461.97
559.47	46763.90
559.64	46923.06
559.80	47267.12
559.97	46986.25
560.13	46564.96
560.30	47182.86
560.46	47091.58
560.63	46745.18
560.79	47007.32
560.96	47295.21
561.12	47000.30
561.29	47173.50
561.45	47323.29
561.61	47257.76
561.78	47140.73
561.94	47189.88
562.11	47337.33
562.27	46873.91
562.44	46880.93
562.60	47002.64
562.77	46820.08
562.93	46667.94
563.10	47428.62
563.26	46878.59
563.42	47522.24
563.59	47466.06
563.75	47232.01
563.92	47323.29
564.08	46820.08
564.24	47367.76
564.41	47173.50
564.57	46944.12
564.74	46777.95
564.90	47234.35
565.07	47622.88
565.23	47379.46
565.39	46988.60
565.56	47210.95
565.72	47239.03
565.88	47547.98
566.05	47306.91
566.21	47660.33
566.38	47173.50
566.54	47522.24
566.70	47398.19
566.87	47835.87
567.03	47274.14
567.19	47648.63
567.36	47533.94
567.52	47536.28
567.68	47615.86
567.85	47166.48
568.01	47428.62
568.17	47440.32
568.34	47826.51
568.50	47786.72
568.66	47346.70
568.83	47707.14
568.99	47566.71
569.15	47264.78
569.32	47107.96
569.48	47349.04
569.64	47742.25
569.81	47327.97
569.97	47526.92
570.13	47339.68
570.30	47339.68
570.46	47908.43
570.62	47370.10
570.78	47213.29
570.95	47316.27
571.11	47835.87
571.27	47232.01
571.43	47318.61
571.60	47796.08
571.76	47309.25
571.92	47849.91
572.09	48039.50
572.25	47735.23
572.41	47679.05
572.57	47845.23
572.74	47681.39
572.90	47332.65
573.06	47253.08
573.22	47515.22
573.38	47842.89
573.55	47407.55
573.71	48170.57
573.87	48114.39
574.03	47604.16
574.20	47742.25
574.36	47501.17
574.52	47821.83
574.68	47508.19
574.84	47819.49
575.01	47903.74
575.17	47868.64
575.33	47756.29
575.49	47477.77
575.65	48147.16
575.82	47660.33
575.98	47618.20
576.14	47908.43
576.30	47917.79
576.46	47870.98
576.62	47784.38
576.79	47756.29
576.95	47594.79
577.11	47896.72
577.27	47922.47
577.43	47629.90
577.59	47625.22
577.75	47620.54
577.92	47150.09
578.08	47569.05
578.24	47594.79
578.40	47657.99
578.56	47700.12
578.72	47838.21
578.88	48046.52
579.04	48037.16
579.21	48294.61
579.37	47913.11
579.53	47627.56
579.69	47690.76
579.85	47955.24
580.01	47594.79
580.17	47739.91
580.33	47285.84
580.49	47948.21
580.65	47686.07
580.82	47695.44
580.98	47789.06
581.14	47782.04
581.30	47929.49
581.46	47412.23
581.62	47414.57
581.78	47650.97
581.94	48172.91
582.10	47091.58
582.26	47522.24
582.42	47856.93
582.58	47824.17
582.74	48030.13
582.90	47758.63
583.06	47711.82
583.22	47611.18
583.38	47693.10
583.54	47826.51
583.70	47358.40
583.86	47496.49
584.02	47807.78
584.18	47908.43
584.34	48140.14
584.50	47847.57
584.66	47643.94
584.82	47426.28
584.98	47650.97
585.14	47679.05
585.30	47800.76
585.46	47470.75
585.62	47805.44
585.78	47732.89
585.94	47351.38
586.10	47657.99
586.26	48130.78
586.42	47995.03
586.58	47831.19
586.74	47735.23
586.90	47484.79
587.06	47693.10
587.22	47824.17
587.38	47873.32
587.54	48208.01
587.70	48081.63
587.86	48032.47
588.02	48198.65
588.18	47812.46
588.34	47887.36
588.49	47632.24
588.65	47569.05
588.81	47716.50
588.97	47971.62
589.13	47901.40
589.29	47739.91
589.45	48060.56
589.61	48128.44
589.77	48116.73
589.93	47838.21
590.08	48264.19
590.24	47737.57
590.40	48044.18
590.56	48456.11
590.72	48090.99
590.88	47562.03
591.04	47613.52
591.20	48135.46
591.35	48261.85
591.51	48690.16
591.67	48046.52
591.83	48301.64
591.99	47966.94
592.15	47742.25
592.31	47955.24
592.46	47927.15
592.62	47735.23
592.78	47786.72
592.94	48067.58
593.10	48130.78
593.26	48177.59
593.41	48067.58
593.57	48238.44
593.73	48088.65
593.89	48079.28
594.05	48147.16
594.20	47901.40
594.36	48055.88
594.52	48133.12
594.68	48076.94
594.84	47622.88
594.99	48105.03
595.15	48172.91
595.31	48271.21
595.47	48334.40
595.62	48507.60
595.78	48189.29
595.94	48037.16
596.10	48240.78
596.25	48177.59
596.41	48067.58
596.57	47573.73
596.73	48121.41
596.88	47760.97
597.04	48303.98
597.20	48264.19
597.36	48116.73
597.51	48215.04
597.67	48193.97
597.83	47648.63
597.99	48315.68
598.14	48231.42
598.30	48002.05
598.46	47632.24
598.61	47892.04
598.77	47576.07
598.93	48367.17
599.09	48282.91
599.24	48238.44
599.40	48058.22
599.56	48322.70
599.71	47688.42
599.87	48278.23
600.03	48191.63
600.18	48016.09
600.34	48219.72
600.50	48130.78
600.65	47760.97
600.81	48121.41
600.97	48060.56
601.12	48390.58
601.28	48222.06
601.44	47927.15
601.59	48259.51
601.75	48058.22
601.91	48238.44
602.06	47744.59
602.22	48161.20
602.37	47650.97
602.53	48011.41
602.69	48444.41
602.84	48133.12
603.00	47817.14
603.16	48119.07
603.31	47786.72
603.47	47814.80
603.62	47767.99
603.78	48058.22
603.94	47512.88
604.09	47875.66
604.25	47728.20
604.40	47576.07
604.56	47962.26
604.71	48034.81
604.87	47943.53
605.03	47999.71
605.18	48016.09
605.34	47983.32
605.49	47604.16
605.65	47501.17
605.80	47351.38
605.96	47718.84
606.12	47367.76
606.27	48023.11
606.43	47517.56
606.58	47789.06
606.74	47725.86
606.89	47775.02
607.05	47866.30
607.20	48095.67
607.36	47693.10
607.51	47952.90
607.67	47281.16
607.82	47342.02
607.98	47524.58
608.13	47552.66
608.29	47669.69
608.44	47143.07
608.60	47402.87
608.75	48020.77
608.91	47929.49
609.06	47985.66
609.22	47749.27
609.37	47398.19
609.53	47440.32
609.68	47587.77
609.84	47407.55
609.99	47393.51
610.15	47452.02
610.30	47688.42
610.46	47938.85
610.61	47700.12
610.76	48065.24
610.92	47885.02
611.07	48479.52
611.23	48308.66
611.38	48090.99
611.54	48083.97
611.69	47959.92
611.84	47445.00
612.00	47168.82
612.15	47281.16
612.31	47236.69
612.46	47744.59
612.62	47517.56
612.77	47079.88
612.92	47690.76
613.08	47075.19
613.23	47215.63
613.39	47459.04
613.54	46660.92
613.69	47206.26
613.85	46782.63
614.00	46710.07
614.15	47180.52
614.31	47014.34
614.46	47363.08
614.62	47220.31
614.77	46827.10
614.92	47150.09
615.08	46621.13
615.23	46768.58
615.38	46298.14
615.54	46370.69
615.69	46679.64
615.84	46230.26
616.00	46672.62
616.15	46506.44
616.30	46438.57
616.46	46590.70
616.61	46511.13
616.76	46569.64
616.92	46230.26
617.07	46230.26
617.22	46494.74
617.37	46298.14
617.53	46508.79
617.68	46614.11
617.83	45865.14
617.99	46024.29
618.14	46148.34
618.29	46478.36
618.45	46574.32
618.60	46120.26
618.75	46330.90
618.90	45783.22
619.06	45825.35
619.21	45869.82
619.36	46220.90
619.51	45881.52
619.67	45771.52
619.82	45811.31
619.97	46003.23
620.12	45996.21
620.28	45851.09
620.43	46239.62
620.58	46370.69
620.73	46267.71
620.89	46124.94
621.04	45958.76
621.19	46066.42
621.34	45326.81
621.49	45340.86
621.65	45507.04
621.80	46033.66
621.95	45516.40
622.10	45865.14
622.25	45415.76
622.41	45647.47
622.56	45949.40
622.71	45801.94
622.86	45853.44
623.01	45399.37
623.16	45764.49
623.32	45284.68
623.47	45333.84
623.62	45191.06
623.77	45116.17
623.92	45338.52
624.07	45251.92
624.23	45357.24
624.38	45116.17
624.53	45289.37
624.68	45181.70
624.83	45216.81
624.98	45359.58
625.13	44825.94
625.29	45256.60
625.44	44781.47
625.59	44870.41
625.74	45008.50
625.89	44467.84
626.04	44669.12
626.19	44151.87
626.34	45223.83
626.49	44268.89
626.65	44594.23
626.80	44795.51
626.95	44741.68
627.10	45038.93
627.25	44538.05
627.40	45027.23
627.55	44383.58
627.70	44184.63
627.85	44306.34
628.00	44327.41
628.15	44561.46
628.30	44074.63
628.45	44533.37
628.60	44903.18
628.76	44315.70
628.91	44657.42
629.06	44774.45
629.21	44432.73
629.36	44406.98
629.51	44320.38
629.66	44055.90
629.81	43952.92
629.96	43805.47
630.11	43885.04
630.26	44238.47
630.41	43646.31
630.56	43667.37
630.71	44088.67
630.86	44037.18
631.01	44318.04
631.16	44280.60
631.31	44236.12
631.46	43983.35
631.61	43873.34
631.76	43917.81
631.91	43880.36
632.06	43484.81
632.21	43695.46
632.36	43295.23
632.51	43475.45
632.66	43658.01
632.81	43622.90
632.96	43611.20
633.10	43569.07
633.25	43672.06
633.40	43253.10
633.55	43831.21
633.70	42988.62
633.85	43079.90
634.00	43037.77
634.15	42553.28
634.30	43215.65
634.45	43173.52
634.60	42756.91
634.75	43391.19
634.90	43213.31
635.05	43098.62
635.19	43236.72
635.34	43477.79
635.49	43185.22
635.64	43213.31
635.79	43030.75
635.94	42864.57
636.09	42887.98
636.24	42415.19
636.39	42789.67
636.53	42684.35
636.68	42611.79
636.83	42534.56
636.98	43012.02
637.13	42562.64
637.28	42953.51
637.43	43222.67
637.57	43000.32
637.72	42660.94
637.87	42855.21
638.02	42527.53
638.17	42298.16
638.32	42483.06
638.46	42412.85
638.61	42499.45
638.76	42253.69
638.91	42293.48
639.06	42705.41
639.20	42319.23
639.35	42415.19
639.50	42197.52
639.65	42485.40
639.80	42342.63
639.94	42291.14
640.09	42150.71
640.24	41921.34
640.39	41996.23
640.54	42143.69
640.68	42012.62
640.83	41518.76
640.98	42291.14
641.13	42101.56
641.27	42354.33
641.42	41883.89
641.57	41895.59
641.72	41741.11
641.86	41530.47
642.01	41303.43
642.16	42050.06
642.31	41642.81
642.45	41902.61
642.60	41345.56
642.75	41640.47
642.90	41432.16
643.04	41776.22
643.19	41209.81
643.34	41413.44
643.48	41727.07
643.63	41340.88
643.78	41579.62
643.93	41591.32
644.07	41139.60
644.22	40996.82
644.37	41441.53
644.51	41177.04
644.66	41666.22
644.81	41493.02
644.95	41404.08
645.10	41322.16
645.25	41429.82
645.39	41287.05
645.54	41467.27
645.69	41006.19
645.83	41312.80
645.98	41233.22
646.13	41249.60
646.27	41280.03
646.42	41200.45
646.57	41144.28
646.71	41104.49
646.86	41141.94
647.00	41088.10
647.15	40825.96
647.30	40795.54
647.44	40648.08
647.59	40313.39
647.74	40676.17
647.88	40809.58
648.03	41207.47
648.17	40720.64
648.32	40980.44
648.47	41177.04
648.61	40201.04
648.76	41029.59
648.90	40423.39
649.05	40505.31
649.20	40334.45
649.34	40687.87
649.49	40261.90
649.63	40065.29
649.78	40432.75
649.92	40147.21
650.07	40973.42
650.21	40217.43
650.36	40226.79
650.51	40208.06
650.65	40259.55
650.80	40325.09
650.94	40533.40
651.09	40198.70
651.23	39786.77
651.38	40205.72
651.52	40339.13
651.67	39950.60
651.81	39606.55
651.96	39821.87
652.10	39931.88
652.25	40020.82
652.39	39730.59
652.54	39793.79
652.68	40254.87
652.83	40140.19
652.97	40055.93
653.12	40247.85
653.26	39828.90
653.41	40123.80
653.55	39988.05
653.70	39643.99
653.84	39552.71
653.99	39445.05
654.13	39597.18
654.27	39482.50
654.42	39505.90
654.56	39721.23
654.71	39672.08
654.85	39779.74
655.00	39512.92
655.14	39730.59
655.29	39330.36
655.43	39576.12
655.57	39278.87
655.72	39012.05
655.86	39175.89
656.01	39306.96
656.15	39321.00
656.30	39332.70
656.44	39456.75
656.58	39503.56
656.73	39227.38
656.87	39470.79
657.01	38801.40
657.16	39180.57
657.30	39079.92
657.45	38944.17
657.59	39152.48
657.73	39178.23
657.88	38953.54
658.02	38714.80
658.16	38588.41
658.31	38616.50
658.45	38504.15
658.60	38078.18
658.74	38665.65
658.88	38609.48
659.03	38354.36
659.17	38525.22
659.31	38597.77
659.46	38698.42
659.60	38602.46
659.74	38576.71
659.89	38569.69
660.03	38206.90
660.17	38223.29
660.32	37734.12
660.46	38171.80
660.60	37722.41
660.74	37879.23
660.89	37986.89
661.03	37780.93
661.17	37558.58
661.32	37280.05
661.46	38078.18
661.60	37825.40
661.74	38078.18
661.89	37949.45
662.03	37921.36
662.17	37546.87
662.31	37764.54
662.46	38237.33
662.60	37560.92
662.74	37207.50
662.88	37092.81
663.03	37404.10
663.17	37659.22
663.31	36577.89
663.45	37205.16
663.60	37095.15
663.74	37158.34
663.88	37090.47
664.02	36987.49
664.17	37041.32
664.31	36779.18
664.45	36734.71
664.59	36821.31
664.73	36636.41
664.88	36933.65
665.02	36343.84
665.16	36582.57
665.30	36580.23
665.44	36563.85
665.59	36383.63
665.73	36006.80
665.87	36418.74
666.01	36477.25
666.15	36362.56
666.29	36184.68
666.44	36706.62
666.58	36126.17
666.72	36004.46
666.86	36126.17
667.00	35885.09
667.14	35859.35
667.28	36084.04
667.43	35510.61
667.57	35847.64
667.71	35718.92
667.85	35398.26
667.99	35356.13
668.13	34911.43
668.27	35349.11
668.41	35826.58
668.56	35405.28
668.70	35721.26
668.84	35335.07
668.98	35021.44
669.12	35229.74
669.26	35119.74
669.40	34855.26
669.54	34927.81
669.68	34583.76
669.82	34934.84
669.96	34478.43
670.10	34522.90
670.25	35021.44
670.39	34581.42
670.53	34522.90
670.67	34609.50
670.81	34433.96
670.95	35201.66
671.09	34569.71
671.23	34534.60
671.37	34277.15
671.51	34410.56
671.65	34092.24
671.79	34043.09
671.93	34132.03
672.07	33869.89
672.21	34007.98
672.35	33677.97
672.49	33638.18
672.63	33455.62
672.77	33399.44
672.91	33392.42
673.05	33324.55
673.19	33205.18
673.33	33170.07
673.47	33202.84
673.61	33556.26
673.75	33333.91
673.89	33450.94
674.03	33125.60
674.17	32940.70
674.31	33125.60
674.45	32814.31
674.59	32514.72
674.73	32659.84
674.87	32360.25
675.01	32631.75
675.15	32432.80
675.29	32233.86
675.43	32517.06
675.56	32470.25
675.70	32393.01
675.84	32353.23
675.98	31447.44
676.12	32170.66
676.26	32203.43
676.40	32126.19
676.54	31735.32
676.68	32175.34
676.82	31264.88
676.96	31278.92
677.10	31171.25
677.23	31030.82
677.37	31075.29
677.51	31201.68
677.65	30946.56
677.79	31098.70
677.93	30981.67
678.07	30441.01
678.21	30595.48
678.34	30618.89
678.48	30239.72
678.62	30455.05
678.76	30204.61
678.90	30040.78
679.04	30279.51
679.18	30286.53
679.31	29617.14
679.45	29937.79
679.59	29563.31
679.73	29579.69
679.87	29420.53
680.00	29549.26
680.14	29500.11
680.28	28999.24
680.42	29259.04
680.56	29034.35
680.70	28926.68
680.83	29200.52
680.97	29347.98
681.11	28926.68
681.25	28765.18
681.39	28776.89
681.52	28584.96
681.66	28463.25
681.80	28622.41
681.94	28151.96
682.07	28379.00
682.21	28205.80
682.35	28030.26
682.49	27782.16
682.62	27789.18
682.76	27838.33
682.90	27655.77
683.04	27721.30
683.17	27442.78
683.31	27431.08
683.45	27285.97
683.59	27496.61
683.72	27807.90
683.86	27026.17
684.00	26991.06
684.13	26927.86
684.27	26745.30
684.41	26899.78
684.55	26724.24
684.68	26588.49
684.82	26464.44
684.96	26340.39
685.09	26169.53
685.23	25968.24
685.37	26155.49
685.50	26225.70
685.64	26190.59
685.78	26099.31
685.91	26108.68
686.05	26129.74
686.19	25766.96
686.32	25977.61
686.46	25418.22
686.60	25270.76
686.73	25362.04
686.87	25200.55
687.01	25123.31
687.14	25214.59
687.28	24959.47
687.42	24645.84
687.55	24765.21
687.69	24849.47
687.82	25003.94
687.96	25057.78
688.10	24596.69
688.23	24559.24
688.37	24482.00
688.50	24416.47
688.64	24093.47
688.78	24233.91
688.91	23906.23
689.05	23796.23
689.18	23758.78
689.32	23218.11
689.46	23487.28
689.59	23447.49
689.73	23693.24
689.86	23267.27
690.00	23323.44
690.13	23318.76
690.27	22850.65
690.41	23377.27
690.54	22911.50
690.68	22773.41
690.81	23398.34
690.95	22553.40
691.08	22986.40
691.22	22806.18
691.35	22735.96
691.49	22696.17
691.62	22356.80
691.76	21837.20
691.89	21837.20
692.03	21832.52
692.16	22040.82
692.30	21921.46
692.43	21968.27
692.57	21696.77
692.70	21509.52
692.84	21654.64
692.97	21465.05
693.11	21488.46
693.24	21394.84
693.38	21486.12
693.51	21521.23
693.65	21268.45
693.78	21050.78
693.92	20896.30
694.05	21053.12
694.19	20975.88
694.32	20357.98
694.45	20830.77
694.59	20397.77
694.72	20451.60
694.86	19894.55
694.99	20212.87
695.13	20121.59
695.26	20278.40
695.39	19843.06
695.53	20006.90
695.66	20039.67
695.80	19962.43
695.93	20016.26
696.07	20060.73
696.20	19740.08
696.33	19506.02
696.47	19412.40
696.60	19389.00
696.73	19278.99
696.87	19456.87
697.00	19171.33
697.14	18941.96
697.27	18878.76
697.40	18721.95
697.54	18890.46
697.67	18656.41
697.80	18525.34
697.94	18696.20
698.07	18415.34
698.21	18766.42
698.34	18431.72
698.47	18361.50
698.61	18387.25
698.74	18260.86
698.87	18249.16
699.01	17926.16
699.14	17678.07
699.27	17832.54
699.40	18090.00
699.54	17706.15
699.67	17561.04
699.80	17408.90
699.94	17266.13
700.07	17376.14
700.20	16868.24
700.34	16999.31
700.47	17076.55
700.60	17195.92
700.73	17144.42
700.87	16982.93
701.00	16662.27
701.13	16805.05
701.26	16954.84
701.40	16819.09
701.53	16491.41
701.66	16624.83
701.79	16617.80
701.93	16568.65
702.06	16271.40
702.19	16142.67
702.32	16149.70
702.46	16250.34
702.59	15775.21
702.72	15864.15
702.85	15770.53
702.99	15864.15
703.12	15758.83
703.25	15517.75
703.38	15311.78
703.51	15653.50
703.65	15740.10
703.78	15592.65
703.91	15360.94
704.04	15400.72
704.17	15185.40
704.31	15108.16
704.44	14906.87
704.57	15014.54
704.70	14810.91
704.83	14965.39
704.96	14541.75
705.10	14682.18
705.23	14469.19
>>>>>End Processed Spectral Data<<<<<
