SpectraSuite Data File
++++++++++++++++++++++++++++++++++++
Date: Fri Oct 04 11:39:21 GMT-05:00 2013
User: price-jones
Dark Spectrum Present: No
Reference Spectrum Present: No
Number of Sampled Component Spectra: 1
Spectrometers: USB2+H05261
Integration Time (usec): 100000 (USB2+H05261)
Spectra Averaged: 1 (USB2+H05261)
Boxcar Smoothing: 0 (USB2+H05261)
Correct for Electrical Dark: No (USB2+H05261)
Strobe/Lamp Enabled: No (USB2+H05261)
Correct for Detector Non-linearity: No (USB2+H05261)
Correct for Stray Light: No (USB2+H05261)
Number of Pixels in Processed Spectrum: 2048
>>>>>Begin Processed Spectral Data<<<<<
365.73	51.49
365.92	51.49
366.12	51.49
366.32	0.00
366.52	0.00
366.72	2.34
366.91	0.00
367.11	0.00
367.31	0.00
367.51	0.00
367.70	0.00
367.90	0.00
368.10	0.00
368.30	0.00
368.49	0.00
368.69	0.00
368.89	11.70
369.09	0.00
369.28	0.00
369.48	16.38
369.68	0.00
369.87	0.00
370.07	42.13
370.27	107.66
370.47	88.94
370.66	224.69
370.86	182.56
371.06	255.12
371.25	266.82
371.45	259.80
371.65	245.76
371.84	210.65
372.04	355.76
372.24	334.70
372.44	320.65
372.63	273.84
372.83	351.08
373.03	273.84
373.22	355.76
373.42	271.50
373.62	362.78
373.81	400.23
374.01	425.98
374.21	393.21
374.40	327.68
374.60	344.06
374.79	374.49
374.99	367.46
375.19	437.68
375.38	458.74
375.58	393.21
375.78	379.17
375.97	383.85
376.17	468.11
376.37	369.80
376.56	514.92
376.76	442.36
376.95	423.64
377.15	411.93
377.35	435.34
377.54	390.87
377.74	470.45
377.93	442.36
378.13	449.38
378.33	418.96
378.52	374.49
378.72	402.57
378.91	477.47
379.11	435.34
379.31	430.66
379.50	433.00
379.70	407.25
379.89	454.06
380.09	458.74
380.28	505.56
380.48	468.11
380.68	440.02
380.87	437.68
381.07	493.85
381.26	437.68
381.46	524.28
381.65	440.02
381.85	484.49
382.04	449.38
382.24	475.13
382.43	468.11
382.63	489.17
382.83	468.11
383.02	533.64
383.22	601.52
383.41	524.28
383.61	578.11
383.80	507.90
384.00	538.32
384.19	580.45
384.39	580.45
384.58	526.62
384.78	540.66
384.97	456.40
385.17	440.02
385.36	470.45
385.56	540.66
385.75	510.24
385.95	559.39
386.14	578.11
386.34	596.84
386.53	585.13
386.72	585.13
386.92	510.24
387.11	683.44
387.31	561.73
387.50	510.24
387.70	638.97
387.89	526.62
388.09	664.71
388.28	575.77
388.48	655.35
388.67	608.54
388.86	662.37
389.06	683.44
389.25	641.31
389.45	613.22
389.64	667.05
389.84	748.97
390.03	636.63
390.22	657.69
390.42	592.16
390.61	603.86
390.81	596.84
391.00	763.01
391.19	671.73
391.39	676.41
391.58	779.40
391.78	730.25
391.97	620.24
392.16	629.60
392.36	716.20
392.55	760.67
392.75	702.16
392.94	767.70
393.13	866.00
393.33	819.19
393.52	744.29
393.71	805.14
393.91	781.74
394.10	765.36
394.29	791.10
394.49	734.93
394.68	823.87
394.88	877.70
395.07	894.08
395.26	833.23
395.46	894.08
395.65	896.43
395.84	805.14
396.04	929.19
396.23	858.98
396.42	931.53
396.62	922.17
396.81	957.28
397.00	781.74
397.19	830.89
397.39	894.08
397.58	891.74
397.77	849.61
397.97	1008.77
398.16	933.87
398.35	1053.24
398.55	1008.77
398.74	940.90
398.93	997.07
399.12	1008.77
399.32	943.24
399.51	978.34
399.70	1046.22
399.90	980.68
400.09	1060.26
400.28	1039.20
400.47	1086.01
400.67	1022.81
400.86	1088.35
401.05	1109.41
401.24	1177.29
401.44	1179.63
401.63	1167.93
401.82	1228.78
402.01	1174.95
402.21	1135.16
402.40	1203.04
402.59	1081.33
402.78	1158.57
402.97	1121.12
403.17	1163.25
403.36	1240.48
403.55	1158.57
403.74	1299.00
403.93	1284.95
404.13	1308.36
404.32	1306.02
404.51	1350.49
404.70	1378.58
404.89	1294.32
405.09	1303.68
405.28	1308.36
405.47	1371.55
405.66	1324.74
405.85	1383.26
406.05	1401.98
406.24	1378.58
406.43	1380.92
406.62	1437.09
406.81	1537.73
407.00	1486.24
407.20	1537.73
407.39	1448.79
407.58	1558.80
407.77	1507.30
407.96	1614.97
408.15	1643.06
408.34	1568.16
408.54	1586.88
408.73	1652.42
408.92	1598.59
409.11	1694.55
409.30	1582.20
409.49	1732.00
409.68	1680.50
409.87	1722.63
410.07	1795.19
410.26	1790.51
410.45	1785.83
410.64	1825.62
410.83	1884.13
411.02	1811.57
411.21	1949.67
411.40	1877.11
411.59	1975.41
411.78	1930.94
411.98	1996.48
412.17	1949.67
412.36	2033.93
412.55	1984.77
412.74	2033.93
412.93	2101.80
413.12	2097.12
413.31	2146.27
413.50	2115.84
413.69	2207.13
413.88	2223.51
414.07	2157.97
414.26	2202.44
414.45	2256.28
414.64	2377.98
414.83	2214.15
415.02	2324.15
415.22	2340.54
415.41	2457.56
415.60	2504.37
415.79	2567.57
415.98	2366.28
416.17	2448.20
416.36	2532.46
416.55	2626.08
416.74	2572.25
416.93	2541.82
417.12	2637.78
417.31	2619.06
417.50	2621.40
417.69	2827.37
417.88	2689.28
418.07	2663.53
418.26	2647.15
418.45	2818.00
418.64	2747.79
418.83	2775.88
419.02	2813.32
419.21	2864.82
419.39	2899.92
419.58	2839.07
419.77	2846.09
419.96	2895.24
420.15	2991.20
420.34	2904.60
420.53	2935.03
420.72	3073.12
420.91	3162.06
421.10	3108.23
421.29	3091.85
421.48	3033.33
421.67	3110.57
421.86	3066.10
422.05	3213.56
422.24	3063.76
422.43	3021.63
422.61	3206.53
422.80	3229.94
422.99	3164.40
423.18	3119.93
423.37	3260.37
423.56	3260.37
423.75	3178.45
423.94	3232.28
424.13	2902.26
424.32	3068.44
424.50	3262.71
424.69	3342.28
424.88	3288.45
425.07	3190.15
425.26	3187.81
425.45	3157.38
425.64	3035.67
425.83	3283.77
426.01	3288.45
426.20	3339.94
426.39	3368.03
426.58	3300.16
426.77	3379.73
426.96	3290.79
427.15	3262.71
427.33	3225.26
427.52	3293.13
427.71	3421.86
427.90	3452.29
428.09	3377.39
428.28	3452.29
428.46	3428.88
428.65	3559.95
428.84	3562.30
429.03	3700.39
429.22	3684.00
429.40	3571.66
429.59	3803.37
429.78	3442.93
429.97	3545.91
430.16	3428.88
430.34	3627.83
430.53	3627.83
430.72	3723.79
430.91	3581.02
431.10	3634.85
431.28	3679.32
431.47	3709.75
431.66	3812.73
431.85	3721.45
432.03	3920.40
432.22	4060.83
432.41	3782.31
432.60	4007.00
432.79	3786.99
432.97	3899.33
433.16	4023.38
433.35	3957.85
433.54	3997.64
433.72	3978.91
433.91	3983.59
434.10	3948.48
434.28	3943.80
434.47	4154.45
434.66	3929.76
434.85	4081.89
435.03	4128.70
435.22	4329.99
435.41	4641.28
435.59	4578.09
435.78	4507.87
435.97	4383.82
436.16	4400.21
436.34	4231.69
436.53	4374.46
436.72	4397.87
436.90	4461.06
437.09	4407.23
437.28	4320.63
437.46	4507.87
437.65	4348.72
437.84	4461.06
438.02	4524.26
438.21	4454.04
438.40	4507.87
438.58	4648.30
438.77	4678.73
438.96	4454.04
439.14	4657.67
439.33	4723.20
439.52	4725.54
439.70	4753.63
439.89	4713.84
440.08	4690.43
440.26	4849.59
440.45	4894.06
440.63	4884.70
440.82	5046.20
441.01	5067.26
441.19	4919.81
441.38	5032.15
441.57	5132.79
441.75	5210.03
441.94	5282.59
442.12	5221.74
442.31	5322.38
442.50	5280.25
442.68	5296.63
442.87	5397.28
443.05	5291.95
443.24	5486.22
443.43	5406.64
443.61	5401.96
443.80	5582.18
443.98	5245.14
444.17	5284.93
444.35	5488.56
444.54	5439.40
444.73	5334.08
444.91	5504.94
445.10	5535.37
445.28	5308.34
445.47	5411.32
445.65	5481.53
445.84	5483.88
446.02	5455.79
446.21	5446.43
446.39	5458.13
446.58	5568.13
446.77	5514.30
446.95	5444.09
447.14	5764.74
447.32	5472.17
447.51	5659.42
447.69	5514.30
447.88	5664.10
448.06	5528.35
448.25	5722.61
448.43	5596.22
448.62	5605.58
448.80	5535.37
448.99	5689.84
449.17	5743.67
449.36	5715.59
449.54	5851.34
449.73	5973.05
449.91	5884.11
450.10	6125.18
450.28	6054.97
450.46	5870.06
450.65	5900.49
450.83	5818.57
451.02	5853.68
451.20	6005.81
451.39	6263.27
451.57	6038.58
451.76	5987.09
451.94	6078.37
452.13	6136.88
452.31	6260.93
452.49	6073.69
452.68	6279.66
452.86	6061.99
453.05	6263.27
453.23	6242.21
453.42	6403.71
453.60	6214.12
453.78	6026.88
453.97	6232.85
454.15	6267.95
454.34	6223.48
454.52	6511.37
454.70	6396.68
454.89	6485.62
455.07	6476.26
455.26	6504.35
455.44	6640.10
455.62	6509.03
455.81	6544.14
455.99	6497.33
456.17	6581.59
456.36	6602.65
456.54	6612.01
456.73	6614.35
456.91	6750.10
457.09	6780.53
457.28	7126.93
457.46	6850.75
457.64	7014.59
457.83	6834.36
458.01	6750.10
458.19	6881.18
458.38	6899.90
458.56	7061.40
458.74	7075.44
458.93	6871.81
459.11	7115.23
459.29	7068.42
459.48	7049.69
459.66	7180.76
459.84	7213.53
460.03	7339.92
460.21	7173.74
460.39	7211.19
460.57	7246.30
460.76	7115.23
460.94	7529.50
461.12	7372.69
461.31	7445.24
461.49	7250.98
461.67	7468.65
461.85	7470.99
462.04	7515.46
462.22	7939.10
462.40	7494.40
462.59	7487.37
462.77	7307.15
462.95	7571.63
463.13	7531.84
463.32	7648.87
463.50	7548.23
463.68	7606.74
463.86	7597.38
464.05	7716.75
464.23	7744.83
464.41	7857.18
464.59	7662.91
464.78	7847.82
464.96	7815.05
465.14	7707.38
465.32	7845.48
465.50	7950.80
465.69	7871.22
465.87	7875.90
466.05	7985.91
466.23	8074.85
466.41	8105.28
466.60	8191.88
466.78	7992.93
466.96	8135.70
467.14	8046.76
467.32	8262.09
467.51	8304.22
467.69	7964.84
467.87	8208.26
468.05	8126.34
468.23	8187.19
468.41	7964.84
468.60	8170.81
468.78	8393.16
468.96	8109.96
469.14	8348.69
469.32	8503.17
469.50	8346.35
469.69	8594.45
469.87	8496.14
470.05	8695.09
470.23	8479.76
470.41	8491.46
470.59	8711.47
470.77	8645.94
470.95	8681.05
471.14	8830.84
471.32	8557.00
471.50	9027.45
471.68	8851.91
471.86	8924.46
472.04	8856.59
472.22	9172.56
472.40	8947.87
472.58	9231.07
472.77	8987.66
472.95	9270.86
473.13	9383.21
473.31	9214.69
473.49	9165.54
473.67	9219.37
473.85	9528.32
474.03	9437.04
474.21	9270.86
474.39	9666.41
474.57	9699.18
474.75	9694.50
474.93	9804.50
475.12	9696.84
475.30	9734.29
475.48	9579.81
475.66	9790.46
475.84	9851.31
476.02	10108.77
476.20	10101.75
476.38	10129.84
476.56	10326.44
476.74	10118.14
476.92	10452.83
477.10	10328.78
477.28	10494.96
477.46	10644.76
477.64	10857.75
477.82	10913.92
478.00	10981.79
478.18	10930.30
478.36	11157.33
478.54	11234.57
478.72	11068.39
478.90	11206.48
479.08	11342.24
479.26	11529.48
479.44	11520.12
479.62	11590.33
479.80	11798.64
479.98	11866.52
480.16	12105.25
480.34	11983.54
480.52	12035.03
480.70	12280.79
480.88	12084.19
481.06	12255.04
481.24	12182.49
481.41	12458.67
481.59	12849.54
481.77	12596.76
481.95	12795.71
482.13	12732.51
482.31	12720.81
482.49	12926.78
482.67	13177.22
482.85	13036.78
483.03	13467.44
483.21	13420.63
483.39	13827.88
483.57	13549.36
483.74	13713.20
483.92	13743.63
484.10	13682.77
484.28	14146.20
484.46	14207.05
484.64	14724.31
484.82	14244.50
485.00	14745.38
485.18	14766.44
485.35	14848.36
485.53	14698.56
485.71	15267.31
485.89	15253.27
486.07	15279.02
486.25	15206.46
486.43	15374.98
486.61	15494.35
486.78	15651.16
486.96	15602.01
487.14	16025.65
487.32	16056.08
487.50	15906.28
487.68	16215.23
487.85	16589.72
488.03	16423.54
488.21	16662.27
488.39	16657.59
488.57	16865.90
488.75	17212.30
488.92	17254.43
489.10	17563.38
489.28	17298.90
489.46	17476.78
489.64	17387.84
489.81	17935.53
489.99	18293.63
490.17	17951.91
490.35	18331.08
490.53	18293.63
490.70	18548.75
490.88	18670.45
491.06	18633.00
491.24	18735.99
491.41	18663.43
491.59	18925.57
491.77	18934.93
491.95	19208.78
492.13	19414.74
492.30	19564.54
492.48	19332.82
492.66	19396.02
492.84	19564.54
493.01	19962.43
493.19	20259.68
493.37	20489.05
493.54	20678.63
493.72	20453.94
493.90	20215.21
494.08	20388.41
494.25	20922.05
494.43	20783.96
494.61	21020.35
494.79	21343.35
494.96	20886.94
495.14	21266.11
495.32	21708.47
495.49	21652.30
495.67	21385.47
495.85	22029.12
496.02	22113.38
496.20	21799.75
496.38	22139.13
496.55	22298.28
496.73	22742.99
496.91	22656.39
497.09	22864.69
497.26	22848.31
497.44	22759.37
497.62	23049.60
497.79	23082.36
497.97	22932.57
498.14	23452.17
498.32	23386.63
498.50	23360.89
498.67	23747.08
498.85	23833.68
499.03	23814.95
499.20	23667.50
499.38	23885.17
499.56	24229.23
499.73	24245.61
499.91	24343.91
500.08	24580.31
500.26	24079.43
500.44	24577.97
500.61	24524.13
500.79	24725.42
500.97	25039.05
501.14	24978.20
501.32	25378.43
501.49	25156.08
501.67	24999.26
501.84	25069.48
502.02	25511.84
502.20	25539.93
502.37	25741.21
502.55	25818.45
502.72	25708.44
502.90	25675.68
503.07	25628.87
503.25	26066.55
503.43	25968.24
503.60	26108.68
503.78	26171.87
503.95	26022.08
504.13	26314.64
504.30	26696.15
504.48	26129.74
504.65	26492.52
504.83	26995.74
505.01	26632.96
505.18	26794.45
505.36	27026.17
505.53	27126.81
505.71	27002.76
505.88	27255.54
506.06	27068.30
506.23	27566.83
506.41	27466.19
506.58	27711.94
506.76	27730.67
506.93	27501.29
507.11	27721.30
507.28	27730.67
507.46	27941.32
507.63	28273.67
507.81	28046.64
507.98	27831.31
508.16	27864.08
508.33	28194.09
508.50	28718.37
508.68	28268.99
508.85	28685.61
509.03	28769.86
509.20	28774.55
509.38	28837.74
509.55	29041.37
509.73	28919.66
509.90	29366.70
510.08	29347.98
510.25	29450.96
510.42	29537.56
510.60	29567.99
510.77	29631.18
510.95	29642.88
511.12	29212.23
511.30	29483.73
511.47	29661.61
511.64	29788.00
511.82	30316.96
511.99	30087.59
512.17	30295.89
512.34	30405.90
512.51	30609.53
512.69	30455.05
512.86	30604.84
513.04	30693.79
513.21	30995.71
513.38	30881.03
513.56	31058.91
513.73	30614.21
513.90	30794.43
514.08	30815.49
514.25	31061.25
514.43	31316.37
514.60	31386.58
514.77	31412.33
514.95	31417.01
515.12	31585.53
515.29	31426.37
515.47	31683.83
515.64	32048.96
515.81	32105.13
515.99	32002.14
516.16	31803.20
516.33	32449.19
516.51	32198.75
516.68	32219.81
516.85	32388.33
517.03	32126.19
517.20	32273.65
517.37	32566.21
517.54	32325.14
517.72	32685.58
517.89	32648.13
518.06	32280.67
518.24	32584.94
518.41	32797.93
518.58	32697.28
518.75	32573.24
518.93	33041.34
519.10	33347.95
519.27	33331.57
519.45	33223.90
519.62	33228.59
519.79	33656.90
519.96	33818.40
520.14	33399.44
520.31	33724.78
520.48	34073.52
520.65	33558.60
520.83	34185.86
521.00	34448.00
521.17	33860.53
521.34	33750.52
521.52	34366.09
521.69	34473.75
521.86	34602.48
522.03	34565.03
522.20	34359.06
522.38	34745.25
522.55	34300.55
522.72	34387.15
522.89	34663.33
523.07	34972.28
523.24	35042.50
523.41	34937.18
523.58	35138.46
523.75	35225.06
523.92	34808.45
524.10	35164.21
524.27	35412.31
524.44	35615.93
524.61	35688.49
524.78	35737.64
524.96	35620.61
525.13	36009.14
525.30	35899.14
525.47	35978.72
525.64	35798.49
525.81	36297.03
525.98	35828.92
526.16	35838.28
526.33	36205.75
526.50	36470.23
526.67	36531.08
526.84	35927.22
527.01	36285.33
527.18	36657.47
527.36	36151.91
527.53	36423.42
527.70	36816.63
527.87	36706.62
528.04	36526.40
528.21	36587.25
528.38	36811.95
528.55	37137.28
528.72	36903.23
528.89	36685.56
529.07	37301.12
529.24	37319.84
529.41	37046.00
529.58	37301.12
529.75	37003.87
529.92	37104.51
530.09	37490.70
530.26	37558.58
530.43	37703.69
530.60	37064.72
530.77	37291.76
530.94	37748.16
531.11	37586.66
531.28	37294.10
531.46	37607.73
531.63	37872.21
531.80	38005.62
531.97	38272.44
532.14	38066.47
532.31	37804.33
532.48	37813.70
532.65	38323.93
532.82	37944.76
532.99	37942.42
533.16	38195.20
533.33	38462.02
533.50	38850.55
533.67	38295.85
533.84	38405.85
534.01	38480.75
534.18	38492.45
534.35	38541.60
534.52	38691.40
534.69	39009.71
534.86	39339.72
535.03	39100.99
535.20	38965.24
535.37	39225.04
535.54	39227.38
535.71	38583.73
535.88	39005.03
536.05	39119.71
536.22	39339.72
536.38	39639.31
536.55	39393.56
536.72	39398.24
536.89	38960.56
537.06	39243.76
537.23	39611.23
537.40	39526.97
537.57	39627.61
537.74	40044.23
537.91	39906.13
538.08	40210.40
538.25	39896.77
538.42	39849.96
538.59	40219.77
538.75	39751.66
538.92	40013.80
539.09	40069.97
539.26	39936.56
539.43	40411.69
539.60	40339.13
539.77	40409.35
539.94	40500.63
540.11	40458.50
540.28	40507.65
540.44	40374.24
540.61	40282.96
540.78	40713.62
540.95	41104.49
541.12	40903.20
541.29	41160.66
541.46	40690.21
541.62	40769.79
541.79	41071.72
541.96	40666.81
542.13	41233.22
542.30	41233.22
542.47	41581.96
542.63	41584.30
542.80	41471.95
542.97	41682.60
543.14	41769.20
543.31	41832.39
543.48	41546.85
543.64	41979.85
543.81	42216.24
543.98	42263.05
544.15	42103.90
544.32	41947.08
544.48	42394.12
544.65	41691.96
544.82	42391.78
544.99	42033.68
545.16	42550.94
545.32	41825.37
545.49	42951.17
545.66	43964.62
545.83	43732.91
546.00	43702.48
546.16	43086.92
546.33	42040.70
546.50	41984.53
546.67	42459.66
546.83	42141.35
547.00	42429.23
547.17	42618.81
547.34	42302.84
547.50	43014.37
547.67	42726.48
547.84	42602.43
548.00	42782.65
548.17	42852.87
548.34	42536.90
548.51	42930.11
548.67	42508.81
548.84	43164.16
549.01	42637.54
549.18	42869.25
549.34	43215.65
549.51	42857.55
549.68	43026.07
549.84	42873.93
550.01	43040.11
550.18	42653.92
550.34	43044.79
550.51	43454.39
550.68	43494.18
550.84	43021.39
551.01	43161.82
551.18	42583.71
551.34	43014.37
551.51	43742.27
551.68	43501.20
551.84	43030.75
552.01	42946.49
552.18	43606.52
552.34	43154.80
552.51	43426.30
552.68	43220.33
552.84	43068.20
553.01	44203.36
553.18	43552.69
553.34	43562.05
553.51	43775.04
553.67	43812.49
553.84	43702.48
554.01	44095.69
554.17	44287.62
554.34	43711.84
554.51	43707.16
554.67	43868.66
554.84	43983.35
555.00	43753.97
555.17	43735.25
555.33	43985.69
555.50	44318.04
555.67	44217.40
555.83	43906.11
556.00	44151.87
556.16	44268.89
556.33	43758.66
556.50	44151.87
556.66	44739.34
556.83	43917.81
556.99	44570.82
557.16	44484.22
557.32	44559.12
557.49	44538.05
557.65	44018.46
557.82	44395.28
557.98	44306.34
558.15	44233.78
558.32	44811.90
558.48	44783.81
558.65	44727.64
558.81	44491.24
558.98	44732.32
559.14	44556.78
559.31	44821.26
559.47	44549.76
559.64	44903.18
559.80	44507.63
559.97	44673.81
560.13	44587.21
560.30	44622.31
560.46	44973.39
560.63	44861.05
560.79	44594.23
560.96	45038.93
561.12	44917.22
561.29	44989.78
561.45	44957.01
561.61	44954.67
561.78	45052.97
561.94	45081.06
562.11	44877.43
562.27	45003.82
562.44	45031.91
562.60	45263.62
562.77	44875.09
562.93	45008.50
563.10	45085.74
563.26	44949.99
563.42	45270.64
563.59	45249.58
563.75	45127.87
563.92	45074.04
564.08	45155.96
564.24	45385.33
564.41	44865.73
564.57	45022.54
564.74	44935.95
564.90	45345.54
565.07	45280.00
565.23	45340.86
565.39	45272.98
565.56	45797.26
565.72	45139.57
565.88	45132.55
566.05	45272.98
566.21	45127.87
566.38	45546.82
566.54	45572.57
566.70	45619.38
566.87	45645.13
567.03	45350.22
567.19	45811.31
567.36	45268.30
567.52	45478.95
567.68	45514.06
567.85	45303.41
568.01	45598.32
568.17	45392.35
568.34	46129.62
568.50	45324.47
568.66	45567.89
568.83	45825.35
568.99	45607.68
569.15	45425.12
569.32	45441.50
569.48	45212.13
569.64	45729.39
569.81	45579.59
569.97	45181.70
570.13	46270.05
570.30	45696.62
570.46	45724.71
570.62	45794.92
570.78	45944.72
570.95	45385.33
571.11	45940.04
571.27	45485.97
571.43	45408.73
571.60	46017.27
571.76	45490.65
571.92	45743.43
572.09	45823.01
572.25	45975.14
572.41	45965.78
572.57	45689.60
572.74	45991.53
572.90	45750.45
573.06	45272.98
573.22	45483.63
573.38	45799.60
573.55	45963.44
573.71	46909.02
573.87	46134.30
574.03	45989.19
574.20	46515.81
574.36	45471.93
574.52	45598.32
574.68	45841.73
574.84	45986.85
575.01	46134.30
575.17	46043.02
575.33	45773.86
575.49	45991.53
575.65	45698.96
575.82	46057.06
575.98	45626.40
576.14	46237.28
576.30	45947.06
576.46	45687.26
576.62	46211.54
576.79	46375.37
576.95	46043.02
577.11	46202.18
577.27	46188.13
577.43	46653.90
577.59	45874.50
577.75	46274.73
577.92	45689.60
578.08	45780.88
578.24	45572.57
578.40	46043.02
578.56	45806.62
578.72	46148.34
578.88	46576.66
579.04	46904.34
579.21	46246.65
579.37	46085.15
579.53	46527.51
579.69	45834.71
579.85	46075.79
580.01	46241.96
580.17	46021.95
580.33	45792.58
580.49	46382.40
580.65	46232.60
580.82	46415.16
580.98	46232.60
581.14	45998.55
581.30	46534.53
581.46	46314.52
581.62	46274.73
581.78	45944.72
581.94	46227.92
582.10	45918.97
582.26	46150.68
582.42	45965.78
582.58	46674.96
582.74	46232.60
582.90	46356.65
583.06	46213.88
583.22	46375.37
583.38	46293.46
583.54	46124.94
583.70	46337.93
583.86	46174.09
584.02	45942.38
584.18	46330.90
584.34	46300.48
584.50	46340.27
584.66	46307.50
584.82	45722.37
584.98	46483.04
585.14	46328.56
585.30	46120.26
585.46	46209.20
585.62	46082.81
585.78	46361.33
585.94	45806.62
586.10	46663.26
586.26	46300.48
586.42	46574.32
586.58	46370.69
586.74	45958.76
586.90	46176.43
587.06	46239.62
587.22	46344.95
587.38	46485.38
587.54	46855.18
587.70	46632.83
587.86	46136.64
588.02	46644.54
588.18	46574.32
588.34	46511.13
588.49	46590.70
588.65	45930.67
588.81	46024.29
588.97	46784.97
589.13	46302.82
589.29	46480.70
589.45	46330.90
589.61	46588.36
589.77	47030.72
589.93	47107.96
590.08	46866.89
590.24	46553.26
590.40	46700.71
590.56	47236.69
590.72	46782.63
590.88	46218.56
591.04	46522.83
591.20	46913.70
591.35	46674.96
591.51	47196.90
591.67	47306.91
591.83	47075.19
591.99	46997.96
592.15	46571.98
592.31	46878.59
592.46	46740.50
592.62	46658.58
592.78	46543.89
592.94	46780.29
593.10	46899.65
593.26	46822.42
593.41	46667.94
593.57	46740.50
593.73	46726.46
593.89	46803.69
594.05	47215.63
594.20	46403.46
594.36	46162.39
594.52	46508.79
594.68	46447.93
594.84	46445.59
594.99	46824.76
595.15	46899.65
595.31	46754.54
595.47	47033.07
595.62	46904.34
595.78	46770.93
595.94	47056.47
596.10	47068.17
596.25	46368.35
596.41	46717.09
596.57	46401.12
596.73	46632.83
596.88	46681.98
597.04	46953.49
597.20	46815.40
597.36	47145.41
597.51	47037.75
597.67	46787.31
597.83	47110.30
597.99	46862.21
598.14	46902.00
598.30	46894.97
598.46	46717.09
598.61	46934.76
598.77	46403.46
598.93	46705.39
599.09	47054.13
599.24	47498.83
599.40	46937.10
599.56	46916.04
599.71	46684.33
599.87	46937.10
600.03	46993.28
600.18	47051.79
600.34	46813.05
600.50	46789.65
600.65	46349.63
600.81	47276.48
600.97	46925.40
601.12	46824.76
601.28	46848.16
601.44	46967.53
601.59	46855.18
601.75	46733.48
601.91	46532.19
602.06	46628.15
602.22	47171.16
602.37	46532.19
602.53	47100.94
602.69	47278.82
602.84	46796.67
603.00	46422.19
603.16	47185.20
603.31	46302.82
603.47	46597.73
603.62	46312.18
603.78	46375.37
603.94	45937.69
604.09	47044.77
604.25	47105.62
604.40	46511.13
604.56	46621.13
604.71	46955.83
604.87	46916.04
605.03	46735.82
605.18	46780.29
605.34	46951.15
605.49	46031.32
605.65	46525.17
605.80	46305.16
605.96	46703.05
606.12	46382.40
606.27	46604.75
606.43	46597.73
606.58	46855.18
606.74	46003.23
606.89	46419.84
607.05	46845.82
607.20	46848.16
607.36	46333.24
607.51	46426.87
607.67	46078.13
607.82	46527.51
607.98	46078.13
608.13	46581.34
608.29	46220.90
608.44	46497.08
608.60	46756.88
608.75	46761.56
608.91	46707.73
609.06	46054.72
609.22	46806.03
609.37	46237.28
609.53	46515.81
609.68	46368.35
609.84	46380.06
609.99	46604.75
610.15	46167.07
610.30	46780.29
610.46	46902.00
610.61	47536.28
610.76	46869.23
610.92	47290.52
611.07	47302.23
611.23	47241.37
611.38	47084.56
611.54	47035.41
611.69	46838.80
611.84	46504.10
612.00	46583.68
612.15	46485.38
612.31	46756.88
612.46	46190.47
612.62	46674.96
612.77	46279.41
612.92	47019.02
613.08	46485.38
613.23	46260.69
613.39	46150.68
613.54	45991.53
613.69	46047.70
613.85	46066.42
614.00	46225.58
614.15	46302.82
614.31	45832.37
614.46	46066.42
614.62	46113.23
614.77	46197.49
614.92	46487.72
615.08	46136.64
615.23	45773.86
615.38	46101.53
615.54	45455.54
615.69	45776.20
615.84	45783.22
616.00	45888.54
616.15	45853.44
616.30	46103.87
616.46	45666.19
616.61	45876.84
616.76	46171.75
616.92	45928.33
617.07	45890.88
617.22	45268.30
617.37	45195.74
617.53	45661.51
617.68	45265.96
617.83	45420.44
617.99	45478.95
618.14	45221.49
618.29	45448.52
618.45	45228.51
618.60	45710.66
618.75	45549.17
618.90	45364.26
619.06	45151.27
619.21	45235.53
619.36	45469.59
619.51	44992.12
619.67	44985.10
619.82	45181.70
619.97	45097.44
620.12	44690.19
620.28	45008.50
620.43	45504.70
620.58	45132.55
620.73	44769.77
620.89	45170.00
621.04	45191.06
621.19	45303.41
621.34	45029.57
621.49	44610.61
621.65	44648.06
621.80	45118.51
621.95	43873.34
622.10	44659.76
622.25	44381.24
622.41	44095.69
622.56	44938.29
622.71	44879.77
622.86	45017.86
623.01	45308.09
623.16	44577.84
623.32	44692.53
623.47	45076.38
623.62	44711.25
623.77	44481.88
623.92	44685.51
624.07	44381.24
624.23	44526.35
624.38	44741.68
624.53	44947.65
624.68	44605.93
624.83	44577.84
624.98	44442.09
625.13	44322.72
625.29	44451.45
625.44	44362.51
625.59	44201.02
625.74	44048.88
625.89	43906.11
626.04	43540.99
626.19	44137.82
626.34	44083.99
626.49	43885.04
626.65	44329.75
626.80	44451.45
626.95	43966.96
627.10	44311.02
627.25	44158.89
627.40	43838.23
627.55	44161.23
627.70	44172.93
627.85	43704.82
628.00	43342.04
628.15	43849.94
628.30	43690.78
628.45	43821.85
628.60	43519.92
628.76	44027.82
628.91	43866.32
629.06	43775.04
629.21	43658.01
629.36	43819.51
629.51	43503.54
629.66	43650.99
629.81	43447.36
629.96	43126.71
630.11	43246.08
630.26	43290.55
630.41	42969.90
630.56	43356.08
630.71	43255.44
630.86	43292.89
631.01	43255.44
631.16	43672.06
631.31	43482.47
631.46	43234.38
631.61	43454.39
631.76	43042.45
631.91	43566.73
632.06	43210.97
632.21	42990.96
632.36	42990.96
632.51	43189.91
632.66	43166.50
632.81	42969.90
632.96	43234.38
633.10	42560.30
633.25	43299.91
633.40	43065.86
633.55	43468.43
633.70	42946.49
633.85	42698.39
634.00	42948.83
634.15	42983.94
634.30	42527.53
634.45	42307.52
634.60	42309.86
634.75	42380.08
634.90	42815.42
635.05	42787.33
635.19	42347.31
635.34	42607.11
635.49	42710.10
635.64	42185.82
635.79	42368.38
635.94	42752.23
636.09	42501.79
636.24	42316.89
636.39	41909.63
636.53	42274.76
636.68	42368.38
636.83	42349.65
636.98	42398.80
637.13	41907.29
637.28	42209.22
637.43	42469.02
637.57	42513.49
637.72	42635.20
637.87	42094.53
638.02	42377.74
638.17	42160.07
638.32	41682.60
638.46	41816.01
638.61	42478.38
638.76	42007.94
638.91	41675.58
639.06	41736.43
639.20	41727.07
639.35	42288.80
639.50	41937.72
639.65	41792.61
639.80	41773.88
639.94	41750.48
640.09	41755.16
640.24	41624.09
640.39	41673.24
640.54	41352.58
640.68	41741.11
640.83	41174.70
640.98	41198.11
641.13	40961.72
641.27	41610.04
641.42	41296.41
641.57	42005.59
641.72	41769.20
641.86	41694.30
642.01	41420.46
642.16	41383.01
642.31	41081.08
642.45	41343.22
642.60	41345.56
642.75	41081.08
642.90	41748.14
643.04	41329.18
643.19	41200.45
643.34	41254.28
643.48	41008.53
643.63	41244.92
643.78	41528.13
643.93	41350.24
644.07	41354.93
644.22	41411.10
644.37	41207.47
644.51	40765.11
644.66	41064.70
644.81	40788.52
644.95	40975.76
645.10	40620.00
645.25	41048.32
645.39	40882.14
645.54	40828.30
645.69	40648.08
645.83	40797.88
645.98	40821.28
646.13	40828.30
646.27	41045.97
646.42	41074.06
646.57	40809.58
646.71	40844.69
646.86	40540.42
647.00	40671.49
647.15	40381.26
647.30	40505.31
647.44	40477.22
647.59	41048.32
647.74	40318.07
647.88	40526.38
648.03	40641.06
648.17	40722.98
648.32	40629.36
648.47	40744.05
648.61	40807.24
648.76	40404.67
648.90	40224.45
649.05	40580.21
649.20	40175.30
649.34	40641.06
649.49	40208.06
649.63	40432.75
649.78	40362.54
649.92	40095.72
650.07	40451.48
650.21	40105.08
650.36	40091.04
650.51	39854.64
650.65	39793.79
650.80	40378.92
650.94	39847.62
651.09	40121.46
651.23	39770.38
651.38	40229.13
651.52	39702.51
651.67	39665.06
651.81	39526.97
651.96	39723.57
652.10	39512.92
652.25	39606.55
652.39	39751.66
652.54	39957.63
652.68	39674.42
652.83	39856.98
652.97	40112.10
653.12	39590.16
653.26	39477.82
653.41	39966.99
653.55	39798.47
653.70	39335.04
653.84	39337.38
653.99	39225.04
654.13	39531.65
654.27	38948.85
654.42	39445.05
654.56	39550.37
654.71	39470.79
654.85	39929.54
655.00	39473.13
655.14	39522.29
655.29	39274.19
655.43	38724.16
655.57	38906.73
655.72	38794.38
655.86	38939.49
656.01	38988.64
656.15	38440.96
656.30	38532.24
656.44	38721.82
656.58	39201.63
656.73	38988.64
656.87	38859.91
657.01	38787.36
657.16	39360.79
657.30	39222.70
657.45	39070.56
657.59	38918.43
657.73	38543.94
657.88	38436.28
658.02	38494.79
658.16	38476.07
658.31	38660.97
658.45	38256.06
658.60	37926.04
658.74	37982.21
658.88	38611.82
659.03	38546.28
659.17	38440.96
659.31	37893.27
659.46	38340.32
659.60	38506.49
659.74	38623.52
659.89	38342.66
660.03	38253.72
660.17	37748.16
660.32	37947.11
660.46	37991.58
660.60	37963.49
660.74	37958.81
660.89	37535.17
661.03	37607.73
661.17	37666.24
661.32	37474.32
661.46	37448.57
661.60	37532.83
661.74	37687.31
661.89	38302.87
662.03	37900.29
662.17	37134.94
662.31	37144.30
662.46	37684.97
662.60	37237.92
662.74	37067.06
662.88	37083.45
663.03	37291.76
663.17	36884.50
663.31	37170.05
663.45	37139.62
663.60	37020.25
663.74	36788.54
663.88	36744.07
664.02	37008.55
664.17	37254.31
664.31	36643.43
664.45	36739.39
664.59	37006.21
664.73	36308.73
664.88	36437.46
665.02	36158.94
665.16	36828.33
665.30	36561.51
665.44	36158.94
665.59	36123.83
665.73	36266.60
665.87	35952.97
666.01	36177.66
666.15	35976.37
666.29	36231.49
666.44	36507.68
666.58	35702.53
666.72	35828.92
666.86	35835.94
667.00	35864.03
667.14	35438.05
667.28	35880.41
667.43	35400.60
667.57	35688.49
667.71	35459.12
667.85	35302.30
667.99	35562.10
668.13	35826.58
668.27	35332.73
668.41	35489.54
668.56	35267.19
668.70	35152.51
668.84	35295.28
668.98	35358.47
669.12	34801.43
669.26	35175.91
669.40	34939.52
669.54	34527.58
669.68	34574.39
669.82	34700.78
669.96	34600.14
670.10	34270.12
670.25	34480.77
670.39	34745.25
670.53	34202.25
670.67	34836.53
670.81	34223.31
670.95	34668.02
671.09	34260.76
671.23	34010.32
671.37	34263.10
671.51	34412.90
671.65	33940.11
671.79	33944.79
671.93	33986.92
672.07	34113.31
672.21	33825.42
672.35	33418.17
672.49	33743.50
672.63	33598.39
672.77	32945.38
672.91	33574.98
673.05	33619.46
673.19	33013.26
673.33	33237.95
673.47	33191.14
673.61	32697.28
673.75	33305.82
673.89	33057.73
674.03	33064.75
674.17	32837.72
674.31	32891.55
674.45	32725.37
674.59	32924.32
674.73	32568.55
674.87	32753.46
675.01	32779.20
675.15	32648.13
675.29	32498.34
675.43	32933.68
675.56	32444.51
675.70	32624.73
675.84	32325.14
675.98	31517.65
676.12	32283.01
676.26	32606.00
676.40	32135.56
676.54	31931.93
676.68	31927.25
676.82	31728.30
676.96	31622.98
677.10	31615.96
677.23	31253.17
677.37	31297.64
677.51	30958.27
677.65	31129.12
677.79	31204.02
677.93	31307.01
678.07	30895.07
678.21	30682.08
678.34	30719.53
678.48	30354.41
678.62	31082.31
678.76	30405.90
678.90	30408.24
679.04	30075.88
679.18	30185.89
679.31	29958.86
679.45	30012.69
679.59	29804.38
679.73	29865.24
679.87	29495.43
680.00	29769.27
680.14	29816.08
680.28	29633.52
680.42	29111.58
680.56	29516.50
680.70	28989.88
680.83	29493.09
680.97	29071.79
681.11	29343.30
681.25	29092.86
681.39	28940.72
681.52	28655.18
681.66	28355.59
681.80	28704.33
681.94	28226.86
682.07	28140.26
682.21	28016.21
682.35	28264.31
682.49	27969.40
682.62	27854.72
682.76	27913.23
682.90	27983.44
683.04	27927.27
683.17	27796.20
683.31	27695.56
683.45	28020.89
683.59	27859.40
683.72	27414.69
683.86	27335.12
684.00	26801.47
684.13	27068.30
684.27	26946.59
684.41	27353.84
684.55	26651.68
684.68	26724.24
684.82	26249.11
684.96	26534.65
685.09	26529.97
685.23	26560.40
685.37	26001.01
685.50	26728.92
685.64	26677.43
685.78	26125.06
685.91	26127.40
686.05	26267.83
686.19	25614.82
686.32	25972.92
686.46	25834.83
686.60	25731.85
686.73	25663.97
686.87	25436.94
687.01	25345.66
687.14	25340.98
687.28	25233.32
687.42	25085.86
687.55	24774.57
687.69	25106.93
687.82	25025.01
687.96	24741.80
688.10	24512.43
688.23	24823.72
688.37	24919.68
688.50	24372.00
688.64	24489.03
688.78	24318.17
688.91	24240.93
689.05	24159.01
689.18	24023.26
689.32	23798.57
689.46	23707.29
689.59	24039.64
689.73	23843.04
689.86	23339.82
690.00	23194.71
690.13	23353.87
690.27	23384.29
690.41	23676.86
690.54	22944.27
690.68	23468.55
690.81	23295.35
690.95	23356.21
691.08	23005.13
691.22	22724.26
691.35	22848.31
691.49	22820.22
691.62	22527.66
691.76	22530.00
691.89	22235.09
692.03	22225.73
692.16	21886.35
692.30	21781.03
692.43	22033.80
692.57	21816.13
692.70	21755.28
692.84	21820.81
692.97	21614.85
693.11	21451.01
693.24	21703.79
693.38	21975.29
693.51	21668.68
693.65	21642.93
693.78	21483.78
693.92	21848.90
694.05	21523.57
694.19	20900.98
694.32	20713.74
694.45	20613.10
694.59	20765.23
694.72	20638.84
694.86	20493.73
694.99	20292.44
695.13	20271.38
695.26	20245.63
695.39	19983.49
695.53	20245.63
695.66	20196.48
695.80	19948.39
695.93	19983.49
696.07	19953.07
696.20	19929.66
696.33	19679.22
696.47	19924.98
696.60	19286.01
696.73	19707.31
696.87	19833.70
697.00	19286.01
697.14	19150.26
697.27	18836.63
697.40	19082.39
697.54	19271.97
697.67	18946.64
697.80	19232.18
697.94	18972.38
698.07	18745.35
698.21	18616.62
698.34	19035.58
698.47	18583.85
698.61	18523.00
698.74	18719.60
698.87	18420.02
699.01	18146.17
699.14	17823.18
699.27	18068.94
699.40	17928.50
699.54	18188.30
699.67	17839.56
699.80	17710.83
699.94	17373.80
700.07	17401.88
700.20	17298.90
700.34	17132.72
700.47	16966.54
700.60	17151.45
700.73	17521.25
700.87	17413.59
701.00	17048.46
701.13	17191.23
701.26	17050.80
701.40	17158.47
701.53	16910.37
701.66	16556.95
701.79	16812.07
701.93	16528.86
702.06	16507.80
702.19	16395.45
702.32	16343.96
702.46	16107.57
702.59	15934.37
702.72	15709.68
702.85	15826.70
702.99	16123.95
703.12	15829.04
703.25	15695.63
703.38	16027.99
703.51	15829.04
703.65	15660.52
703.78	15662.86
703.91	15716.70
704.04	15421.79
704.17	15475.62
704.31	15419.45
704.44	15042.62
704.57	15173.69
704.70	14953.68
704.83	14991.13
704.96	15073.05
705.10	14642.39
705.23	14375.57
>>>>>End Processed Spectral Data<<<<<
