SpectraSuite Data File
++++++++++++++++++++++++++++++++++++
Date: Fri Oct 04 11:39:23 GMT-05:00 2013
User: price-jones
Dark Spectrum Present: No
Reference Spectrum Present: No
Number of Sampled Component Spectra: 1
Spectrometers: USB2+H05261
Integration Time (usec): 100000 (USB2+H05261)
Spectra Averaged: 1 (USB2+H05261)
Boxcar Smoothing: 0 (USB2+H05261)
Correct for Electrical Dark: No (USB2+H05261)
Strobe/Lamp Enabled: No (USB2+H05261)
Correct for Detector Non-linearity: No (USB2+H05261)
Correct for Stray Light: No (USB2+H05261)
Number of Pixels in Processed Spectrum: 2048
>>>>>Begin Processed Spectral Data<<<<<
365.73	72.56
365.92	72.56
366.12	72.56
366.32	0.00
366.52	0.00
366.72	0.00
366.91	0.00
367.11	0.00
367.31	0.00
367.51	0.00
367.70	0.00
367.90	0.00
368.10	0.00
368.30	0.00
368.49	0.00
368.69	0.00
368.89	0.00
369.09	0.00
369.28	0.00
369.48	0.00
369.68	4.68
369.87	95.96
370.07	0.00
370.27	79.58
370.47	126.39
370.66	114.69
370.86	220.01
371.06	231.71
371.25	313.63
371.45	224.69
371.65	280.86
371.84	205.97
372.04	273.84
372.24	280.86
372.44	322.99
372.63	299.59
372.83	376.83
373.03	367.46
373.22	243.42
373.42	318.31
373.62	292.57
373.81	379.17
374.01	407.25
374.21	308.95
374.40	369.80
374.60	355.76
374.79	383.85
374.99	376.83
375.19	290.23
375.38	367.46
375.58	376.83
375.78	395.55
375.97	484.49
376.17	395.55
376.37	362.78
376.56	454.06
376.76	308.95
376.95	386.19
377.15	362.78
377.35	306.61
377.54	379.17
377.74	400.23
377.93	463.43
378.13	283.20
378.33	320.65
378.52	400.23
378.72	402.57
378.91	456.40
379.11	334.70
379.31	404.91
379.50	395.55
379.70	381.51
379.89	367.46
380.09	372.15
380.28	383.85
380.48	397.89
380.68	351.08
380.87	477.47
381.07	402.57
381.26	456.40
381.46	421.30
381.65	449.38
381.85	372.15
382.04	470.45
382.24	475.13
382.43	437.68
382.63	430.66
382.83	367.46
383.02	409.59
383.22	470.45
383.41	416.62
383.61	353.42
383.80	430.66
384.00	456.40
384.19	479.81
384.39	411.93
384.58	465.77
384.78	550.03
384.97	444.70
385.17	421.30
385.36	510.24
385.56	423.64
385.75	552.37
385.95	498.53
386.14	482.15
386.34	503.22
386.53	559.39
386.72	505.56
386.92	489.17
387.11	493.85
387.31	533.64
387.50	447.04
387.70	510.24
387.89	526.62
388.09	500.87
388.28	535.98
388.48	524.28
388.67	561.73
388.86	477.47
389.06	505.56
389.25	540.66
389.45	557.05
389.64	564.07
389.84	500.87
390.03	547.69
390.22	613.22
390.42	528.96
390.61	545.34
390.81	592.16
391.00	585.13
391.19	594.50
391.39	575.77
391.58	657.69
391.78	587.47
391.97	645.99
392.16	624.92
392.36	629.60
392.55	559.39
392.75	599.18
392.94	657.69
393.13	629.60
393.33	634.29
393.52	711.52
393.71	669.39
393.91	678.76
394.10	627.26
394.29	674.07
394.49	683.44
394.68	683.44
394.88	624.92
395.07	645.99
395.26	690.46
395.46	660.03
395.65	758.33
395.84	730.25
396.04	795.78
396.23	734.93
396.42	716.20
396.62	725.57
396.81	791.10
397.00	777.06
397.19	800.46
397.39	730.25
397.58	807.48
397.77	767.70
397.97	774.72
398.16	800.46
398.35	940.90
398.55	823.87
398.74	915.15
398.93	847.27
399.12	870.68
399.32	840.25
399.51	901.11
399.70	910.47
399.90	922.17
400.09	905.79
400.28	997.07
400.47	884.72
400.67	983.02
400.86	887.06
401.05	1011.11
401.24	980.68
401.44	1062.60
401.63	1055.58
401.82	1006.43
402.01	1004.09
402.21	994.73
402.40	973.66
402.59	992.39
402.78	1086.01
402.97	1111.75
403.17	1015.79
403.36	1149.20
403.55	1121.12
403.74	1102.39
403.93	1100.05
404.13	1210.06
404.32	1196.01
404.51	1224.10
404.70	1233.46
404.89	1167.93
405.09	1219.42
405.28	1205.38
405.47	1142.18
405.66	1273.25
405.85	1301.34
406.05	1348.15
406.24	1238.14
406.43	1284.95
406.62	1380.92
406.81	1331.76
407.00	1291.98
407.20	1376.24
407.39	1383.26
407.58	1432.41
407.77	1467.52
407.96	1383.26
408.15	1357.51
408.34	1476.88
408.54	1502.62
408.73	1423.05
408.92	1504.96
409.11	1514.33
409.30	1530.71
409.49	1523.69
409.68	1556.46
409.87	1486.24
410.07	1547.09
410.26	1636.03
410.45	1617.31
410.64	1640.72
410.83	1682.85
411.02	1661.78
411.21	1650.08
411.40	1717.95
411.59	1739.02
411.78	1764.76
411.98	1741.36
412.17	1933.28
412.36	1839.66
412.55	1842.00
412.74	1823.28
412.93	1837.32
413.12	1879.45
413.31	1991.80
413.50	2043.29
413.69	1989.46
413.88	2169.68
414.07	2038.61
414.26	2003.50
414.45	2113.50
414.64	2129.89
414.83	2186.06
415.02	2146.27
415.22	2342.88
415.41	2296.07
415.60	2296.07
415.79	2303.09
415.98	2157.97
416.17	2289.04
416.36	2265.64
416.55	2331.17
416.74	2424.80
416.93	2356.92
417.12	2312.45
417.31	2326.49
417.50	2462.24
417.69	2523.10
417.88	2548.84
418.07	2499.69
418.26	2466.92
418.45	2504.37
418.64	2555.86
418.83	2656.51
419.02	2621.40
419.21	2600.34
419.39	2693.96
419.58	2654.17
419.77	2672.89
419.96	2686.94
420.15	2789.92
420.34	2658.85
420.53	2684.59
420.72	2876.52
420.91	2909.29
421.10	2860.13
421.29	3052.06
421.48	2829.71
421.67	2874.18
421.86	2822.69
422.05	2836.73
422.24	2939.71
422.43	2815.66
422.61	2923.33
422.80	2965.46
422.99	2984.18
423.18	3002.91
423.37	3103.55
423.56	3075.46
423.75	2857.79
423.94	2897.58
424.13	2864.82
424.32	2843.75
424.50	3063.76
424.69	2909.29
424.88	3063.76
425.07	2956.10
425.26	2876.52
425.45	3061.42
425.64	3145.68
425.83	3056.74
426.01	3035.67
426.20	3000.57
426.39	2972.48
426.58	3000.57
426.77	2972.48
426.96	3098.87
427.15	2993.55
427.33	3185.47
427.52	3222.92
427.71	3049.72
427.90	3115.25
428.09	3162.06
428.28	3274.41
428.46	3239.30
428.65	3225.26
428.84	3358.67
429.03	3379.73
429.22	3218.24
429.40	3337.60
429.59	3473.36
429.78	3274.41
429.97	3103.55
430.16	3234.62
430.34	3377.39
430.53	3428.88
430.72	3396.12
430.91	3295.47
431.10	3339.94
431.28	3513.14
431.47	3653.58
431.66	3623.15
431.85	3452.29
432.03	3583.36
432.22	3613.79
432.41	3735.50
432.60	3681.66
432.79	3613.79
432.97	3641.87
433.16	3684.00
433.35	3665.28
433.54	3705.07
433.72	3794.01
433.91	3728.47
434.10	3688.68
434.28	3742.52
434.47	3758.90
434.66	3822.09
434.85	3997.64
435.03	4004.66
435.22	3978.91
435.41	4454.04
435.59	4386.16
435.78	4145.09
435.97	4079.55
436.16	4107.64
436.34	3953.16
436.53	3974.23
436.72	4238.71
436.90	3953.16
437.09	4138.07
437.28	3922.74
437.46	3999.98
437.65	4053.81
437.84	4187.22
438.02	4135.73
438.21	4145.09
438.40	3859.54
438.58	4262.12
438.77	4292.54
438.96	4109.98
439.14	4360.42
439.33	4531.28
439.52	4414.25
439.70	4360.42
439.89	4407.23
440.08	4638.94
440.26	4587.45
440.45	4505.53
440.63	4489.15
440.82	4662.35
441.01	4643.62
441.19	4664.69
441.38	4760.65
441.57	4730.22
441.75	4751.29
441.94	4910.44
442.12	4786.40
442.31	4875.34
442.50	4861.29
442.68	4826.18
442.87	5032.15
443.05	4957.25
443.24	5029.81
443.43	5078.96
443.61	5013.43
443.80	5224.08
443.98	4891.72
444.17	4837.89
444.35	5018.11
444.54	5160.88
444.73	5174.92
444.91	5039.17
445.10	5027.47
445.28	5142.16
445.47	5100.03
445.65	5142.16
445.84	5102.37
446.02	5252.16
446.21	5107.05
446.39	5242.80
446.58	5174.92
446.77	5210.03
446.95	5132.79
447.14	5130.45
447.32	5280.25
447.51	5212.37
447.69	5317.70
447.88	5362.17
448.06	5170.24
448.25	5181.95
448.43	5256.84
448.62	5369.19
448.80	5231.10
448.99	5268.55
449.17	5350.46
449.36	5437.06
449.54	5383.23
449.73	5359.83
449.91	5605.58
450.10	5521.32
450.28	5549.41
450.46	5565.79
450.65	5605.58
450.83	5724.95
451.02	5614.95
451.20	5678.14
451.39	5743.67
451.57	5671.12
451.76	5696.86
451.94	5720.27
452.13	5678.14
452.31	5750.70
452.49	5636.01
452.68	5804.53
452.86	5837.30
453.05	5902.83
453.23	5942.62
453.42	5795.17
453.60	5746.02
453.78	5724.95
453.97	5724.95
454.15	5685.16
454.34	5870.06
454.52	5907.51
454.70	5881.77
454.89	6094.76
455.07	6143.91
455.26	6033.90
455.44	5961.34
455.62	6113.48
455.81	6064.33
455.99	6284.34
456.17	6090.07
456.36	6127.52
456.54	6279.66
456.73	6174.33
456.91	6321.79
457.09	6326.47
457.28	6392.00
457.46	6370.94
457.64	6417.75
457.83	6445.84
458.01	6399.02
458.19	6546.48
458.38	6415.41
458.56	6314.77
458.74	6506.69
458.93	6499.67
459.11	6427.11
459.29	6717.34
459.48	6633.08
459.66	6558.18
459.84	6738.40
460.03	6771.17
460.21	6722.02
460.39	6696.27
460.57	6640.10
460.76	6853.09
460.94	6946.71
461.12	6782.87
461.31	6829.68
461.49	6930.33
461.67	6810.96
461.85	7068.42
462.04	7112.89
462.22	7105.87
462.40	7047.35
462.59	7213.53
462.77	7082.46
462.95	7169.06
463.13	7250.98
463.32	7302.47
463.50	7293.11
463.68	7162.04
463.86	7101.19
464.05	7037.99
464.23	7206.51
464.41	7283.75
464.59	7250.98
464.78	7286.09
464.96	7330.56
465.14	7379.71
465.32	7353.96
465.50	7538.87
465.69	7426.52
465.87	7454.61
466.05	7489.71
466.23	7304.81
466.41	7581.00
466.60	7875.90
466.78	7335.24
466.96	7541.21
467.14	7426.52
467.32	7499.08
467.51	7695.68
467.69	7468.65
467.87	7496.74
468.05	7803.35
468.23	7676.96
468.41	7747.17
468.60	7691.00
468.78	7761.22
468.96	7749.51
469.14	7791.64
469.32	7777.60
469.50	7644.19
469.69	7801.01
469.87	8002.29
470.05	8222.30
470.23	8114.64
470.41	8006.97
470.59	7969.52
470.77	7990.59
470.95	8189.53
471.14	8390.82
471.32	8152.09
471.50	8521.89
471.68	8341.67
471.86	8336.99
472.04	8238.69
472.22	8353.37
472.40	8257.41
472.58	8414.23
472.77	8484.44
472.95	8683.39
473.13	8812.12
473.31	8727.86
473.49	8781.69
473.67	8713.81
473.85	8606.15
474.03	8795.73
474.21	8805.10
474.39	8755.94
474.57	9060.21
474.75	8917.44
474.93	9268.52
475.12	9233.41
475.30	9057.87
475.48	9172.56
475.66	9289.59
475.84	9219.37
476.02	9408.95
476.20	9366.82
476.38	9392.57
476.56	9748.33
476.74	9638.33
476.92	9254.48
477.10	9577.47
477.28	9816.21
477.46	9528.32
477.64	9900.47
477.82	9912.17
478.00	10258.57
478.18	10270.27
478.36	10328.78
478.54	10211.76
478.72	10448.15
478.90	10335.81
479.08	10441.13
479.26	10480.92
479.44	10803.91
479.62	10892.85
479.80	11052.01
479.98	10923.28
480.16	11253.30
480.34	11143.29
480.52	11250.96
480.70	11314.15
480.88	11131.59
481.06	11548.20
481.24	11384.37
481.41	11604.38
481.59	11836.09
481.77	11990.56
481.95	11894.60
482.13	11838.43
482.31	11990.56
482.49	12032.69
482.67	12023.33
482.85	12243.34
483.03	12388.46
483.21	12554.63
483.39	12711.45
483.57	12624.85
483.74	12891.67
483.92	12596.76
484.10	12753.58
484.28	13132.75
484.46	13441.70
484.64	13624.26
484.82	13233.39
485.00	13444.04
485.18	13507.23
485.35	13699.16
485.53	13827.88
485.71	13689.79
485.89	14174.28
486.07	14129.81
486.25	14087.68
486.43	14569.83
486.61	14279.61
486.78	14155.56
486.96	14728.99
487.14	14895.17
487.32	14867.08
487.50	15080.07
487.68	15136.24
487.85	15356.25
488.03	15323.49
488.21	15660.52
488.39	15550.52
488.57	15845.43
488.75	15665.21
488.92	16063.10
489.10	16273.74
489.28	16196.51
489.46	16299.49
489.64	16648.23
489.81	16758.24
489.99	16643.55
490.17	16683.34
490.35	17128.04
490.53	17085.91
490.70	17221.66
490.88	16819.09
491.06	17106.98
491.24	17341.03
491.41	17467.42
491.59	17745.94
491.77	17614.87
491.95	17975.31
492.13	18026.81
492.30	18106.38
492.48	18181.28
492.66	18200.01
492.84	18345.12
493.01	18565.13
493.19	18356.82
493.37	18717.26
493.54	18780.46
493.72	18766.42
493.90	19159.63
494.08	19035.58
494.25	19290.70
494.43	18970.04
494.61	19583.26
494.79	19683.91
494.96	19480.28
495.14	19719.01
495.32	20049.03
495.49	19971.79
495.67	20063.07
495.85	20243.29
496.02	20224.57
496.20	20685.65
496.38	20610.76
496.55	20577.99
496.73	20840.13
496.91	20908.01
497.09	20973.54
497.26	21102.27
497.44	20870.56
497.62	21170.15
497.79	21247.38
497.97	21490.80
498.14	21905.07
498.32	21759.96
498.50	21820.81
498.67	21909.75
498.85	21743.58
499.03	22160.19
499.20	22134.45
499.38	22317.01
499.56	22349.78
499.73	22462.12
499.91	22675.11
500.08	22719.58
500.26	22429.35
500.44	22712.56
500.61	22742.99
500.79	23119.81
500.97	23040.23
501.14	23084.70
501.32	23297.69
501.49	23103.43
501.67	23084.70
501.84	23543.45
502.02	23253.22
502.20	23665.16
502.37	23817.29
502.55	23681.54
502.72	23854.74
502.90	24100.50
503.07	23964.75
503.25	23836.02
503.43	24156.67
503.60	24683.29
503.78	23924.96
503.95	24231.57
504.13	24540.52
504.30	24212.84
504.48	24519.45
504.65	24491.37
504.83	25081.18
505.01	25298.85
505.18	25055.43
505.36	25380.77
505.53	24863.51
505.71	25064.80
505.88	25324.60
506.06	24809.68
506.23	25539.93
506.41	25635.89
506.58	25439.28
506.76	25792.70
506.93	25759.94
507.11	25715.47
507.28	25743.55
507.46	25757.60
507.63	26366.13
507.81	26206.98
507.98	25855.90
508.16	25928.45
508.33	25921.43
508.50	26223.36
508.68	26436.35
508.85	26820.20
509.03	26635.30
509.20	26429.33
509.38	26850.63
509.55	27089.36
509.73	26888.07
509.90	26972.33
510.08	26829.56
510.25	26962.97
510.42	27115.11
510.60	27548.11
510.77	27573.85
510.95	27618.32
511.12	27475.55
511.30	27470.87
511.47	27704.92
511.64	27789.18
511.82	28142.60
511.99	28009.19
512.17	27910.89
512.34	28254.95
512.51	28187.07
512.69	28182.39
512.86	28189.41
513.04	28627.09
513.21	28641.14
513.38	28891.57
513.56	28732.42
513.73	28137.92
513.90	28402.40
514.08	28432.83
514.25	28807.31
514.43	29151.37
514.60	28744.12
514.77	29352.66
514.95	29460.32
515.12	28999.24
515.29	28999.24
515.47	29446.28
515.64	29685.01
515.81	29659.27
515.99	30012.69
516.16	29603.10
516.33	29778.64
516.51	29951.84
516.68	30064.18
516.85	29935.45
517.03	30171.85
517.20	30377.81
517.37	30178.87
517.54	30368.45
517.72	30551.01
517.89	30398.88
518.06	30553.35
518.24	30113.33
518.41	30349.73
518.58	30443.35
518.75	30314.62
518.93	30923.16
519.10	30539.31
519.27	31094.02
519.45	30773.36
519.62	30953.58
519.79	30682.08
519.96	30749.96
520.14	31498.93
520.31	30918.48
520.48	31321.05
520.65	31150.19
520.83	31920.23
521.00	31335.09
521.17	31601.91
521.34	31534.04
521.52	31936.61
521.69	31899.16
521.86	32158.96
522.03	32084.06
522.20	31967.04
522.38	32271.31
522.55	32009.17
522.72	31957.67
522.89	32360.25
523.07	32940.70
523.24	32346.20
523.41	32165.98
523.58	32177.68
523.75	32662.18
523.92	32584.94
524.10	32849.42
524.27	33034.32
524.44	32818.99
524.61	33387.74
524.78	32760.48
524.96	32900.91
525.13	33001.55
525.30	33708.40
525.47	33305.82
525.64	32893.89
525.81	33202.84
525.98	33347.95
526.16	33497.75
526.33	33369.02
526.50	33572.64
526.67	33441.57
526.84	33579.67
527.01	33254.33
527.18	33654.56
527.36	34419.92
527.53	34033.73
527.70	34398.85
527.87	34586.10
528.04	34483.11
528.21	34410.56
528.38	34012.66
528.55	34281.83
528.72	34227.99
528.89	34342.68
529.07	34024.37
529.24	34122.67
529.41	34476.09
529.58	34476.09
529.75	34635.25
529.92	34548.65
530.09	34733.55
530.26	34649.29
530.43	35077.61
530.60	34885.68
530.77	35009.73
530.94	35110.38
531.11	34534.60
531.28	34700.78
531.46	34813.13
531.63	34991.01
531.80	35290.60
531.97	34967.60
532.14	35484.86
532.31	35344.43
532.48	35370.18
532.65	35431.03
532.82	35236.77
532.99	35337.41
533.16	35391.24
533.33	35756.36
533.50	36360.22
533.67	35690.83
533.84	35519.97
534.01	35531.67
534.18	35086.97
534.35	36133.19
534.52	36044.25
534.69	36229.15
534.86	36306.39
535.03	36390.65
535.20	36605.98
535.37	36540.44
535.54	35920.20
535.71	36133.19
535.88	36734.71
536.05	36070.00
536.22	36783.86
536.38	36573.21
536.55	36671.51
536.72	36959.40
536.89	36467.89
537.06	36456.18
537.23	36825.99
537.40	36896.20
537.57	37060.04
537.74	36889.18
537.91	37139.62
538.08	37193.45
538.25	36905.57
538.42	37495.38
538.59	37001.53
538.75	36982.80
538.92	37022.59
539.09	37326.86
539.26	37359.63
539.43	37766.88
539.60	37687.31
539.77	37645.18
539.94	37600.71
540.11	37556.24
540.28	37691.99
540.44	37699.01
540.61	37729.44
540.78	37944.76
540.95	38300.53
541.12	38270.10
541.29	38139.03
541.46	38206.90
541.62	37928.38
541.79	37977.53
541.96	38340.32
542.13	38040.73
542.30	38340.32
542.47	38321.59
542.63	38691.40
542.80	38597.77
542.97	38768.63
543.14	39100.99
543.31	38572.03
543.48	38866.94
543.64	39086.95
543.81	39201.63
543.98	39091.63
544.15	39290.57
544.32	38789.70
544.48	39257.81
544.65	38918.43
544.82	39049.50
544.99	39154.82
545.16	39393.56
545.32	39185.25
545.49	39887.41
545.66	40451.48
545.83	40603.61
546.00	40346.15
546.16	39721.23
546.33	39423.98
546.50	39096.31
546.67	39269.51
546.83	39192.27
547.00	39269.51
547.17	39557.39
547.34	39213.34
547.50	39861.66
547.67	39892.09
547.84	39433.35
548.00	39864.00
548.17	39559.73
548.34	39590.16
548.51	40421.05
548.67	39744.64
548.84	40034.86
549.01	39917.84
549.18	39796.13
549.34	39805.49
549.51	39639.31
549.68	39791.45
549.84	39377.17
550.01	40046.57
550.18	40128.48
550.34	40278.28
550.51	40273.60
550.68	40568.51
550.84	39768.04
551.01	40315.73
551.18	40318.07
551.34	40048.91
551.51	40081.67
551.68	40336.79
551.84	40329.77
552.01	40268.92
552.18	40706.60
552.34	40528.72
552.51	39995.07
552.68	40187.00
552.84	40053.59
553.01	40289.98
553.18	40360.20
553.34	40643.40
553.51	40137.85
553.67	40624.68
553.84	40872.78
554.01	41120.87
554.17	40910.22
554.34	40580.21
554.51	40603.61
554.67	40788.52
554.84	40905.54
555.00	40788.52
555.17	40926.61
555.33	40854.05
555.50	40402.33
555.67	40823.62
555.83	41132.57
556.00	41134.92
556.16	40924.27
556.33	41053.00
556.50	40865.75
556.66	41200.45
556.83	40907.88
556.99	41340.88
557.16	41743.45
557.32	41291.73
557.49	41481.31
557.65	41191.09
557.82	40978.10
557.98	41373.65
558.15	41436.84
558.32	41228.54
558.48	41364.29
558.65	41495.36
558.81	41296.41
558.98	41457.91
559.14	41607.70
559.31	41352.58
559.47	41277.69
559.64	41455.57
559.80	41359.61
559.97	42295.82
560.13	41619.41
560.30	41502.38
560.46	41570.25
560.63	41867.50
560.79	41284.71
560.96	41801.97
561.12	41521.10
561.29	41392.37
561.45	41825.37
561.61	41970.49
561.78	41996.23
561.94	41698.98
562.11	41528.13
562.27	42054.75
562.44	41823.03
562.60	41720.05
562.77	41696.64
562.93	41628.77
563.10	41865.16
563.26	42155.39
563.42	42464.34
563.59	42246.67
563.75	41544.51
563.92	42019.64
564.08	41729.41
564.24	41750.48
564.41	41474.29
564.57	42064.11
564.74	41846.44
564.90	42522.85
565.07	42260.71
565.23	42251.35
565.39	42150.71
565.56	42075.81
565.72	42337.95
565.88	41858.14
566.05	42251.35
566.21	42045.38
566.38	41684.94
566.54	42045.38
566.70	42490.09
566.87	42405.83
567.03	42300.50
567.19	42464.34
567.36	42157.73
567.52	42071.13
567.68	42490.09
567.85	42050.06
568.01	42426.89
568.17	41989.21
568.34	42408.17
568.50	42773.29
568.66	42361.36
568.83	42120.28
568.99	42356.67
569.15	42328.59
569.32	42281.78
569.48	41701.32
569.64	41921.34
569.81	42258.37
569.97	42101.56
570.13	42454.98
570.30	42487.74
570.46	42344.97
570.62	42440.93
570.78	42464.34
570.95	41991.55
571.11	42429.23
571.27	42382.42
571.43	42321.57
571.60	42230.29
571.76	42139.00
571.92	42775.63
572.09	42721.80
572.25	42630.52
572.41	42625.84
572.57	42469.02
572.74	42431.57
572.90	42635.20
573.06	42277.10
573.22	42660.94
573.38	42710.10
573.55	42948.83
573.71	42808.40
573.87	42820.10
574.03	42454.98
574.20	42450.30
574.36	42408.17
574.52	42534.56
574.68	42546.26
574.84	42525.19
575.01	43056.50
575.17	42541.58
575.33	42700.73
575.49	42880.95
575.65	42761.59
575.82	43035.43
575.98	42319.23
576.14	43009.68
576.30	42932.45
576.46	42773.29
576.62	42834.14
576.79	42653.92
576.95	42515.83
577.11	42738.18
577.27	42997.98
577.43	42593.07
577.59	42569.66
577.75	42630.52
577.92	42574.34
578.08	42398.80
578.24	42597.75
578.40	42728.82
578.56	43145.44
578.72	43058.84
578.88	43246.08
579.04	43229.69
579.21	42801.38
579.37	43107.99
579.53	42703.07
579.69	42574.34
579.85	42436.25
580.01	42841.17
580.17	42754.57
580.33	42850.53
580.49	42843.51
580.65	43370.13
580.82	42646.90
580.98	42796.70
581.14	42927.77
581.30	43330.34
581.46	42368.38
581.62	42864.57
581.78	43295.23
581.94	43129.05
582.10	42855.21
582.26	43140.75
582.42	43152.46
582.58	42988.62
582.74	42976.92
582.90	42864.57
583.06	43185.22
583.22	42724.14
583.38	42588.39
583.54	42756.91
583.70	42574.34
583.86	42857.55
584.02	42768.61
584.18	43147.78
584.34	43255.44
584.50	43105.65
584.66	43447.36
584.82	42890.32
584.98	42958.19
585.14	43061.18
585.30	42562.64
585.46	42941.81
585.62	42712.44
585.78	42995.64
585.94	42799.04
586.10	43264.80
586.26	43047.13
586.42	43332.68
586.58	43356.08
586.74	43058.84
586.90	42859.89
587.06	42979.26
587.22	43615.88
587.38	42611.79
587.54	43452.05
587.70	43227.35
587.86	43255.44
588.02	43185.22
588.18	43304.59
588.34	43119.69
588.49	42775.63
588.65	42752.23
588.81	42944.15
588.97	43386.51
589.13	43040.11
589.29	42925.42
589.45	43381.83
589.61	43608.86
589.77	43608.86
589.93	43353.74
590.08	43569.07
590.24	43676.74
590.40	43536.30
590.56	43688.44
590.72	43426.30
590.88	43339.70
591.04	43438.00
591.20	43297.57
591.35	43529.28
591.51	43686.10
591.67	43714.19
591.83	43859.30
591.99	44121.44
592.15	43367.79
592.31	43330.34
592.46	43335.02
592.62	43360.76
592.78	43297.57
592.94	43709.50
593.10	43356.08
593.26	43484.81
593.41	43810.15
593.57	43480.13
593.73	43627.59
593.89	43597.16
594.05	43693.12
594.20	43430.98
594.36	43550.35
594.52	43325.66
594.68	43384.17
594.84	43068.20
594.99	43384.17
595.15	43562.05
595.31	43580.78
595.47	43477.79
595.62	43412.26
595.78	43318.64
595.94	43328.00
596.10	43267.14
596.25	43393.53
596.41	43295.23
596.57	43611.20
596.73	43335.02
596.88	43426.30
597.04	43297.57
597.20	43686.10
597.36	43442.68
597.51	43585.46
597.67	43353.74
597.83	43129.05
597.99	43859.30
598.14	43515.24
598.30	43508.22
598.46	43611.20
598.61	43475.45
598.77	43660.35
598.93	43068.20
599.09	43175.86
599.24	44474.86
599.40	43423.96
599.56	43552.69
599.71	43306.93
599.87	43580.78
600.03	43377.15
600.18	43442.68
600.34	43859.30
600.50	43533.96
600.65	43466.09
600.81	43372.47
600.97	44020.80
601.12	43913.13
601.28	43592.48
601.44	43702.48
601.59	44081.65
601.75	43540.99
601.91	43388.85
602.06	43243.74
602.22	43770.36
602.37	43608.86
602.53	43615.88
602.69	43508.22
602.84	43154.80
603.00	43765.68
603.16	43613.54
603.31	43833.55
603.47	43538.65
603.62	43360.76
603.78	43344.38
603.94	43030.75
604.09	43761.00
604.25	43405.23
604.40	43445.02
604.56	43398.21
604.71	43405.23
604.87	43648.65
605.03	43388.85
605.18	43702.48
605.34	43489.49
605.49	43105.65
605.65	42693.71
605.80	42925.42
605.96	43075.22
606.12	43056.50
606.27	43597.16
606.43	43079.90
606.58	43625.25
606.74	43356.08
606.89	43178.20
607.05	43550.35
607.20	43358.42
607.36	43103.31
607.51	42969.90
607.67	42794.36
607.82	42721.80
607.98	43203.95
608.13	43517.58
608.29	43407.58
608.44	43068.20
608.60	43285.87
608.75	43880.36
608.91	43854.62
609.06	43051.81
609.22	43150.12
609.37	42899.68
609.53	43281.19
609.68	43225.01
609.84	43323.32
609.99	42976.92
610.15	42843.51
610.30	43367.79
610.46	43711.84
610.61	43569.07
610.76	43601.84
610.92	43899.09
611.07	44133.14
611.23	43845.26
611.38	44151.87
611.54	43555.03
611.69	43456.73
611.84	43484.81
612.00	43683.76
612.15	42557.96
612.31	43070.54
612.46	42967.55
612.62	43255.44
612.77	43072.88
612.92	43438.00
613.08	43061.18
613.23	42841.17
613.39	42679.67
613.54	42539.24
613.69	42927.77
613.85	42532.22
614.00	42443.27
614.15	42621.16
614.31	42799.04
614.46	42784.99
614.62	43152.46
614.77	42766.27
614.92	42768.61
615.08	42536.90
615.23	42497.11
615.38	42972.24
615.54	42450.30
615.69	42263.05
615.84	42120.28
616.00	42405.83
616.15	41991.55
616.30	42263.05
616.46	42209.22
616.61	42457.32
616.76	42394.12
616.92	42499.45
617.07	42340.29
617.22	42192.84
617.37	42110.92
617.53	42007.94
617.68	42504.13
617.83	42031.34
617.99	41862.82
618.14	41837.08
618.29	42234.97
618.45	41535.15
618.60	42363.70
618.75	41986.87
618.90	42335.61
619.06	41888.57
619.21	41722.39
619.36	42148.37
619.51	41933.04
619.67	41556.21
619.82	41453.23
619.97	41916.65
620.12	41579.62
620.28	41429.82
620.43	41778.56
620.58	41904.95
620.73	42087.51
620.89	41806.65
621.04	41921.34
621.19	41888.57
621.34	41684.94
621.49	41481.31
621.65	41535.15
621.80	41399.40
621.95	41118.53
622.10	41418.12
622.25	41050.66
622.41	41486.00
622.56	41621.75
622.71	41675.58
622.86	41724.73
623.01	41469.61
623.16	41038.95
623.32	41127.89
623.47	41179.39
623.62	41549.19
623.77	40872.78
623.92	41450.89
624.07	41504.72
624.23	41221.52
624.38	40931.29
624.53	41291.73
624.68	41132.57
624.83	41071.72
624.98	41329.18
625.13	41256.62
625.29	41132.57
625.44	40840.01
625.59	40800.22
625.74	40825.96
625.89	40524.04
626.04	40566.16
626.19	40322.75
626.34	40804.90
626.49	40935.97
626.65	40882.14
626.80	41034.27
626.95	40526.38
627.10	40612.98
627.25	40374.24
627.40	40917.25
627.55	40741.71
627.70	40357.86
627.85	40453.82
628.00	40224.45
628.15	40538.08
628.30	40449.14
628.45	40231.47
628.60	40671.49
628.76	40818.94
628.91	41048.32
629.06	40718.30
629.21	40470.20
629.36	40484.25
629.51	39969.33
629.66	40362.54
629.81	40240.83
629.96	40149.55
630.11	40521.69
630.26	40313.39
630.41	40402.33
630.56	39927.20
630.71	40243.17
630.86	40425.73
631.01	40231.47
631.16	40481.91
631.31	40205.72
631.46	39861.66
631.61	39920.18
631.76	40088.70
631.91	40067.63
632.06	39873.37
632.21	39878.05
632.36	39615.91
632.51	39089.29
632.66	39407.60
632.81	39524.63
632.96	39754.00
633.10	39899.11
633.25	39360.79
633.40	40135.51
633.55	39812.51
633.70	39716.55
633.85	39468.45
634.00	39042.48
634.15	39323.34
634.30	39452.07
634.45	38831.83
634.60	39541.01
634.75	39318.66
634.90	39299.94
635.05	39580.80
635.19	39426.32
635.34	39636.97
635.49	39653.36
635.64	39157.16
635.79	38850.55
635.94	39213.34
636.09	39339.72
636.24	39171.21
636.39	39033.11
636.53	39171.21
636.68	39056.52
636.83	39100.99
636.98	39096.31
637.13	39063.54
637.28	39213.34
637.43	38838.85
637.57	39225.04
637.72	38944.17
637.87	38857.57
638.02	39037.80
638.17	38799.06
638.32	38604.80
638.46	38759.27
638.61	38574.37
638.76	38637.56
638.91	38557.99
639.06	38412.87
639.20	38391.81
639.35	38728.84
639.50	38803.74
639.65	38923.11
639.80	38747.57
639.94	38394.15
640.09	38267.76
640.24	38663.31
640.39	38340.32
640.54	38480.75
640.68	38572.03
640.83	38244.35
640.98	38038.39
641.13	38080.52
641.27	38663.31
641.42	38370.74
641.57	38440.96
641.72	38363.72
641.86	38143.71
642.01	38340.32
642.16	38050.09
642.31	37811.35
642.45	37965.83
642.60	37972.85
642.75	37689.65
642.90	38146.05
643.04	38141.37
643.19	37790.29
643.34	37799.65
643.48	37930.72
643.63	37928.38
643.78	38391.81
643.93	38305.21
644.07	38148.39
644.22	37818.38
644.37	37708.37
644.51	38199.88
644.66	38230.31
644.81	37799.65
644.95	37600.71
645.10	37628.79
645.25	38082.86
645.39	37631.13
645.54	37741.14
645.69	37535.17
645.83	38071.15
645.98	37825.40
646.13	38157.75
646.27	37422.83
646.42	37371.33
646.57	37338.57
646.71	37397.08
646.86	37684.97
647.00	37099.83
647.15	37186.43
647.30	37319.84
647.44	37242.60
647.59	37525.81
647.74	37736.46
647.88	37656.88
648.03	37776.25
648.17	37331.54
648.32	37560.92
648.47	37406.44
648.61	37474.32
648.76	37706.03
648.90	37067.06
649.05	37148.98
649.20	37668.58
649.34	37226.22
649.49	36570.87
649.63	37043.66
649.78	36762.79
649.92	36938.33
650.07	37446.23
650.21	37170.05
650.36	37163.03
650.51	36863.44
650.65	37296.44
650.80	36620.02
650.94	36945.36
651.09	36568.53
651.23	36596.62
651.38	36704.28
651.52	37120.90
651.67	36254.90
651.81	36638.75
651.96	36807.26
652.10	36891.52
652.25	36896.20
652.39	36905.57
652.54	36730.03
652.68	36781.52
652.83	36980.46
652.97	36840.03
653.12	36533.42
653.26	36753.43
653.41	36828.33
653.55	36605.98
653.70	36135.53
653.84	36692.58
653.99	36556.83
654.13	36329.80
654.27	36470.23
654.42	36669.17
654.56	36414.05
654.71	36306.39
654.85	36610.66
655.00	36182.34
655.14	36196.38
655.29	36486.61
655.43	36105.10
655.57	36346.18
655.72	36247.88
655.86	35559.76
656.01	35948.29
656.15	35501.25
656.30	36362.56
656.44	35615.93
656.58	35634.66
656.73	36385.97
656.87	35899.14
657.01	36238.51
657.16	36184.68
657.30	36006.80
657.45	35992.76
657.59	36423.42
657.73	35674.45
657.88	35859.35
658.02	35536.35
658.16	36032.55
658.31	35566.78
658.45	35875.73
658.60	35531.67
658.74	35449.75
658.88	35449.75
659.03	35297.62
659.17	35337.41
659.31	35648.70
659.46	35484.86
659.60	35091.65
659.74	35283.58
659.89	35255.49
660.03	35194.64
660.17	35208.68
660.32	35077.61
660.46	35054.20
660.60	34911.43
660.74	34850.58
660.89	34831.85
661.03	34698.44
661.17	34951.22
661.32	34888.03
661.46	34974.63
661.60	34962.92
661.74	34850.58
661.89	34857.60
662.03	34934.84
662.17	34998.03
662.31	34806.11
662.46	34567.37
662.60	34731.21
662.74	34553.33
662.88	34195.23
663.03	33853.51
663.17	34424.60
663.31	33963.51
663.45	34391.83
663.60	34363.75
663.74	34059.48
663.88	34057.14
664.02	34335.66
664.17	34010.32
664.31	34115.65
664.45	33675.63
664.59	33766.91
664.73	33996.28
664.88	33748.18
665.02	33488.38
665.16	33668.61
665.30	33502.43
665.44	33853.51
665.59	33472.00
665.73	33663.93
665.87	33001.55
666.01	33366.68
666.15	33291.78
666.29	33420.51
666.44	33525.83
666.58	33418.17
666.72	33411.15
666.86	33270.72
667.00	33053.05
667.14	33228.59
667.28	32725.37
667.43	32975.81
667.57	32907.93
667.71	32692.60
667.85	33319.87
667.99	32748.78
668.13	32645.79
668.27	32404.72
668.41	32964.10
668.56	31952.99
668.70	33043.68
668.84	32720.69
668.98	32517.06
669.12	32442.17
669.26	32154.28
669.40	32133.21
669.54	31901.50
669.68	32212.79
669.82	31805.54
669.96	32165.98
670.10	31761.07
670.25	31786.82
670.39	32102.79
670.53	31622.98
670.67	31550.42
670.81	31594.89
670.95	31611.28
671.09	31838.31
671.23	32051.30
671.37	32067.68
671.51	32011.51
671.65	31747.03
671.79	31414.67
671.93	31615.96
672.07	31545.74
672.21	31381.90
672.35	30920.82
672.49	31180.62
672.63	31339.77
672.77	31075.29
672.91	31014.44
673.05	31054.23
673.19	31061.25
673.33	30806.13
673.47	31299.98
673.61	30649.32
673.75	30822.51
673.89	30841.24
674.03	30607.19
674.17	30766.34
674.31	30478.46
674.45	30476.12
674.59	30349.73
674.73	30134.40
674.87	30094.61
675.01	30174.19
675.15	29455.64
675.29	29902.68
675.43	30092.27
675.56	30366.11
675.70	29764.59
675.84	29886.30
675.98	29062.43
676.12	29490.75
676.26	29893.32
676.40	29937.79
676.54	29872.26
676.68	29542.24
676.82	28821.36
676.96	29256.70
677.10	29439.26
677.23	29134.99
677.37	28631.77
677.51	28706.67
677.65	28704.33
677.79	28350.91
677.93	28496.02
678.07	28732.42
678.21	28591.98
678.34	28236.22
678.48	28044.30
678.62	28215.16
678.76	28151.96
678.90	28056.00
679.04	27840.67
679.18	27569.17
679.31	27557.47
679.45	27407.67
679.59	27421.72
679.73	27192.34
679.87	27204.05
680.00	27133.83
680.14	26904.46
680.28	27072.98
680.42	26838.92
680.56	27346.82
680.70	26759.34
680.83	26747.64
680.97	26766.37
681.11	27138.51
681.25	26630.62
681.39	26408.26
681.52	26604.87
681.66	26359.11
681.80	26689.13
681.94	26434.01
682.07	26263.15
682.21	26253.79
682.35	25923.77
682.49	25977.61
682.62	26111.02
682.76	25500.14
682.90	25935.48
683.04	25598.44
683.17	25539.93
683.31	25551.63
683.45	25495.46
683.59	25390.13
683.72	25085.86
683.86	25357.36
684.00	25542.27
684.13	25013.31
684.27	25287.15
684.41	24741.80
684.55	24402.43
684.68	24477.32
684.82	24517.11
684.96	24212.84
685.09	24500.73
685.23	24662.22
685.37	24217.52
685.50	24472.64
685.64	24409.45
685.78	24198.80
685.91	24587.33
686.05	24030.28
686.19	23648.77
686.32	23990.49
686.46	23896.87
686.60	23784.52
686.73	23817.29
686.87	23386.63
687.01	23583.24
687.14	23463.87
687.28	23281.31
687.42	22843.63
687.55	22623.62
687.69	23108.11
687.82	22986.40
687.96	23126.83
688.10	22759.37
688.23	23065.98
688.37	22775.75
688.50	22576.81
688.64	22366.16
688.78	22427.01
688.91	22141.47
689.05	22314.67
689.18	21872.31
689.32	21935.50
689.46	21738.90
689.59	22040.82
689.73	22078.27
689.86	21764.64
690.00	21579.74
690.13	21851.24
690.27	21345.69
690.41	21502.50
690.54	21284.83
690.68	21535.27
690.81	21263.77
690.95	21383.13
691.08	21209.93
691.22	21179.51
691.35	21015.67
691.49	21380.79
691.62	20968.86
691.76	21008.65
691.89	20496.07
692.03	20292.44
692.16	20226.91
692.30	20006.90
692.43	20306.49
692.57	20327.55
692.70	20233.93
692.84	20173.08
692.97	20201.16
693.11	19845.40
693.24	20154.35
693.38	19990.52
693.51	19810.29
693.65	19812.63
693.78	19564.54
693.92	19709.65
694.05	19529.43
694.19	19466.24
694.32	19335.17
694.45	19021.53
694.59	18789.82
694.72	18885.78
694.86	18689.18
694.99	18920.89
695.13	18775.78
695.26	18539.38
695.39	18778.12
695.53	18792.16
695.66	18546.40
695.80	18590.88
695.93	18726.63
696.07	18221.07
696.20	18410.65
696.33	18586.19
696.47	18277.24
696.60	18022.12
696.73	17877.01
696.87	18097.02
697.00	18106.38
697.14	17832.54
697.27	17778.71
697.40	17694.45
697.54	17308.26
697.67	17373.80
697.80	17256.77
697.94	17088.25
698.07	17294.22
698.21	17048.46
698.34	17142.08
698.47	17216.98
698.61	16865.90
698.74	17212.30
698.87	17099.95
699.01	17067.19
699.14	16851.86
699.27	16575.67
699.40	16645.89
699.54	16498.44
699.67	16273.74
699.80	16175.44
699.94	16098.20
700.07	16081.82
700.20	15962.45
700.34	15730.74
700.47	15775.21
700.60	16116.93
700.73	15747.12
700.87	15880.53
701.00	15419.45
701.13	15688.61
701.26	15480.30
701.40	15632.44
701.53	15538.82
701.66	15557.54
701.79	15234.55
701.93	15054.33
702.06	15246.25
702.19	14808.57
702.32	15229.87
702.46	15019.22
702.59	14717.29
702.72	14822.61
702.85	14429.40
702.99	14689.20
703.12	14820.27
703.25	14417.70
703.38	14246.84
703.51	14511.32
703.65	14558.13
703.78	14583.88
703.91	14359.19
704.04	14464.51
704.17	14387.27
704.31	14052.58
704.44	13851.29
704.57	13844.27
704.70	13928.53
704.83	13916.83
704.96	13865.33
705.10	13781.07
705.23	13537.66
>>>>>End Processed Spectral Data<<<<<
