SpectraSuite Data File
++++++++++++++++++++++++++++++++++++
Date: Fri Oct 04 11:39:26 GMT-05:00 2013
User: price-jones
Dark Spectrum Present: No
Reference Spectrum Present: No
Number of Sampled Component Spectra: 1
Spectrometers: USB2+H05261
Integration Time (usec): 100000 (USB2+H05261)
Spectra Averaged: 1 (USB2+H05261)
Boxcar Smoothing: 0 (USB2+H05261)
Correct for Electrical Dark: No (USB2+H05261)
Strobe/Lamp Enabled: No (USB2+H05261)
Correct for Detector Non-linearity: No (USB2+H05261)
Correct for Stray Light: No (USB2+H05261)
Number of Pixels in Processed Spectrum: 2048
>>>>>Begin Processed Spectral Data<<<<<
365.73	39.79
365.92	39.79
366.12	39.79
366.32	0.00
366.52	0.00
366.72	0.00
366.91	0.00
367.11	0.00
367.31	25.75
367.51	0.00
367.70	0.00
367.90	0.00
368.10	0.00
368.30	0.00
368.49	0.00
368.69	30.43
368.89	72.56
369.09	0.00
369.28	0.00
369.48	0.00
369.68	30.43
369.87	84.26
370.07	4.68
370.27	67.88
370.47	23.41
370.66	147.45
370.86	243.42
371.06	278.52
371.25	283.20
371.45	180.22
371.65	241.08
371.84	140.43
372.04	114.69
372.24	208.31
372.44	210.65
372.63	245.76
372.83	283.20
373.03	220.01
373.22	255.12
373.42	292.57
373.62	238.73
373.81	285.55
374.01	301.93
374.21	297.25
374.40	287.89
374.60	360.44
374.79	290.23
374.99	292.57
375.19	238.73
375.38	346.40
375.58	306.61
375.78	285.55
375.97	327.68
376.17	369.80
376.37	322.99
376.56	362.78
376.76	280.86
376.95	294.91
377.15	339.38
377.35	304.27
377.54	341.72
377.74	353.42
377.93	304.27
378.13	299.59
378.33	222.35
378.52	339.38
378.72	367.46
378.91	351.08
379.11	334.70
379.31	306.61
379.50	348.74
379.70	346.40
379.89	409.59
380.09	292.57
380.28	311.29
380.48	365.12
380.68	358.10
380.87	236.39
381.07	379.17
381.26	365.12
381.46	358.10
381.65	304.27
381.85	367.46
382.04	358.10
382.24	327.68
382.43	304.27
382.63	386.19
382.83	383.85
383.02	395.55
383.22	386.19
383.41	341.72
383.61	386.19
383.80	344.06
384.00	395.55
384.19	353.42
384.39	388.53
384.58	402.57
384.78	402.57
384.97	433.00
385.17	484.49
385.36	409.59
385.56	395.55
385.75	367.46
385.95	369.80
386.14	428.32
386.34	369.80
386.53	465.77
386.72	428.32
386.92	418.96
387.11	411.93
387.31	477.47
387.50	496.19
387.70	454.06
387.89	454.06
388.09	362.78
388.28	433.00
388.48	451.72
388.67	428.32
388.86	447.04
389.06	407.25
389.25	528.96
389.45	535.98
389.64	491.51
389.84	486.83
390.03	540.66
390.22	468.11
390.42	454.06
390.61	517.26
390.81	514.92
391.00	461.09
391.19	503.22
391.39	472.79
391.58	479.81
391.78	491.51
391.97	543.00
392.16	489.17
392.36	540.66
392.55	458.74
392.75	596.84
392.94	486.83
393.13	519.60
393.33	587.47
393.52	557.05
393.71	596.84
393.91	627.26
394.10	585.13
394.29	510.24
394.49	610.88
394.68	552.37
394.88	582.79
395.07	608.54
395.26	585.13
395.46	667.05
395.65	697.48
395.84	620.24
396.04	718.54
396.23	688.12
396.42	631.94
396.62	608.54
396.81	662.37
397.00	627.26
397.19	706.84
397.39	681.10
397.58	681.10
397.77	667.05
397.97	676.41
398.16	638.97
398.35	713.86
398.55	681.10
398.74	807.48
398.93	779.40
399.12	683.44
399.32	683.44
399.51	697.48
399.70	744.29
399.90	744.29
400.09	786.42
400.28	788.76
400.47	819.19
400.67	746.63
400.86	744.29
401.05	819.19
401.24	765.36
401.44	809.83
401.63	889.40
401.82	915.15
402.01	809.83
402.21	809.83
402.40	840.25
402.59	887.06
402.78	877.70
402.97	887.06
403.17	903.45
403.36	873.02
403.55	947.92
403.74	898.77
403.93	957.28
404.13	1149.20
404.32	1022.81
404.51	957.28
404.70	1088.35
404.89	1057.92
405.09	1100.05
405.28	1015.79
405.47	983.02
405.66	1027.50
405.85	1032.18
406.05	1048.56
406.24	1001.75
406.43	1114.10
406.62	1137.50
406.81	1200.69
407.00	1135.16
407.20	1074.31
407.39	1184.31
407.58	1167.93
407.77	1252.19
407.96	1224.10
408.15	1221.76
408.34	1261.55
408.54	1240.48
408.73	1261.55
408.92	1280.27
409.11	1380.92
409.30	1277.93
409.49	1301.34
409.68	1390.28
409.87	1334.11
410.07	1502.62
410.26	1425.39
410.45	1427.73
410.64	1481.56
410.83	1502.62
411.02	1371.55
411.21	1519.01
411.40	1474.54
411.59	1481.56
411.78	1614.97
411.98	1558.80
412.17	1554.12
412.36	1551.78
412.55	1643.06
412.74	1598.59
412.93	1661.78
413.12	1586.88
413.31	1813.92
413.50	1703.91
413.69	1739.02
413.88	1729.66
414.07	1739.02
414.26	1851.36
414.45	1685.19
414.64	1813.92
414.83	1811.57
415.02	1902.86
415.22	1820.94
415.41	2029.24
415.60	1851.36
415.79	1933.28
415.98	1977.75
416.17	2090.10
416.36	1994.14
416.55	2036.27
416.74	2097.12
416.93	2062.01
417.12	2040.95
417.31	2118.18
417.50	2150.95
417.69	2286.70
417.88	2139.25
418.07	2211.81
418.26	2230.53
418.45	2366.28
418.64	2354.58
418.83	2333.51
419.02	2310.11
419.21	2270.32
419.39	2267.98
419.58	2249.25
419.77	2380.32
419.96	2349.90
420.15	2455.22
420.34	2396.71
420.53	2471.61
420.72	2424.80
420.91	2452.88
421.10	2511.39
421.29	2527.78
421.48	2518.42
421.67	2576.93
421.86	2471.61
422.05	2597.99
422.24	2455.22
422.43	2487.99
422.61	2586.29
422.80	2534.80
422.99	2724.38
423.18	2605.02
423.37	2588.63
423.56	2710.34
423.75	2595.65
423.94	2700.98
424.13	2459.90
424.32	2513.74
424.50	2672.89
424.69	2597.99
424.88	2738.43
425.07	2651.83
425.26	2626.08
425.45	2651.83
425.64	2700.98
425.83	2642.46
426.01	2733.75
426.20	2698.64
426.39	2614.38
426.58	2773.53
426.77	2635.44
426.96	2806.30
427.15	2722.04
427.33	2895.24
427.52	2794.60
427.71	2782.90
427.90	2759.49
428.09	2794.60
428.28	2874.18
428.46	2902.26
428.65	2825.03
428.84	3014.61
429.03	2918.65
429.22	2841.41
429.40	2874.18
429.59	2871.84
429.78	2775.88
429.97	2869.50
430.16	2864.82
430.34	2864.82
430.53	3094.19
430.72	3033.33
430.91	3056.74
431.10	3023.97
431.28	3054.40
431.47	3042.70
431.66	3117.59
431.85	3056.74
432.03	3164.40
432.22	3349.31
432.41	3108.23
432.60	3276.75
432.79	3089.51
432.97	3180.79
433.16	3527.19
433.35	3159.72
433.54	3295.47
433.72	3297.81
433.91	3396.12
434.10	3351.65
434.28	3297.81
434.47	3281.43
434.66	3389.10
434.85	3403.14
435.03	3454.63
435.22	3597.40
435.41	3861.88
435.59	3978.91
435.78	3655.92
435.97	3655.92
436.16	3613.79
436.34	3510.80
436.53	3419.52
436.72	3574.00
436.90	3630.17
437.09	3541.23
437.28	3562.30
437.46	3599.74
437.65	3578.68
437.84	3557.61
438.02	3627.83
438.21	3602.08
438.40	3777.62
438.58	3784.65
438.77	3660.60
438.96	3714.43
439.14	3784.65
439.33	3901.67
439.52	3904.01
439.70	3922.74
439.89	3999.98
440.08	3988.27
440.26	3969.55
440.45	4016.36
440.63	4051.47
440.82	3981.25
441.01	3946.14
441.19	4084.23
441.38	4187.22
441.57	4210.62
441.75	4386.16
441.94	4236.37
442.12	4266.80
442.31	4449.36
442.50	4428.29
442.68	4301.90
442.87	4362.76
443.05	4379.14
443.24	4425.95
443.43	4514.89
443.61	4393.19
443.80	4578.09
443.98	4437.66
444.17	4255.09
444.35	4557.02
444.54	4334.67
444.73	4421.27
444.91	4547.66
445.10	4472.76
445.28	4528.94
445.47	4383.82
445.65	4596.81
445.84	4594.47
446.02	4531.28
446.21	4519.57
446.39	4514.89
446.58	4552.34
446.77	4624.90
446.95	4440.00
447.14	4461.06
447.32	4507.87
447.51	4554.68
447.69	4533.62
447.88	4603.83
448.06	4533.62
448.25	4386.16
448.43	4580.43
448.62	4554.68
448.80	4655.33
448.99	4718.52
449.17	4805.12
449.36	4648.30
449.54	4636.60
449.73	4884.70
449.91	4788.74
450.10	4856.61
450.28	4873.00
450.46	4882.36
450.65	4978.32
450.83	5015.77
451.02	5022.79
451.20	4910.44
451.39	4947.89
451.57	4819.16
451.76	4833.21
451.94	4908.10
452.13	4917.47
452.31	5060.24
452.49	4891.72
452.68	5029.81
452.86	4994.70
453.05	5144.50
453.23	5163.22
453.42	5020.45
453.60	5029.81
453.78	5067.26
453.97	4964.28
454.15	5067.26
454.34	5158.54
454.52	5135.14
454.70	5188.97
454.89	5172.58
455.07	5259.18
455.26	5242.80
455.44	5207.69
455.62	5275.57
455.81	5224.08
455.99	5366.85
456.17	5439.40
456.36	5423.02
456.54	5572.82
456.73	5504.94
456.91	5563.45
457.09	5526.00
457.28	5795.17
457.46	5446.43
457.64	5659.42
457.83	5528.35
458.01	5425.36
458.19	5851.34
458.38	5547.07
458.56	5757.72
458.74	5839.64
458.93	5551.75
459.11	5668.78
459.29	5790.49
459.48	5867.72
459.66	5720.27
459.84	5804.53
460.03	5893.47
460.21	5771.76
460.39	5832.62
460.57	5668.78
460.76	5795.17
460.94	5970.71
461.12	6010.50
461.31	5886.45
461.49	5867.72
461.67	6015.18
461.85	6190.72
462.04	6015.18
462.22	6260.93
462.40	6174.33
462.59	6010.50
462.77	6237.53
462.95	6193.06
463.13	6061.99
463.32	6230.51
463.50	6366.26
463.68	6200.08
463.86	6270.30
464.05	6214.12
464.23	6274.98
464.41	6326.47
464.59	6183.70
464.78	6427.11
464.96	6417.75
465.14	6310.08
465.32	6333.49
465.50	6394.34
465.69	6504.35
465.87	6298.38
466.05	6504.35
466.23	6413.07
466.41	6452.86
466.60	6644.78
466.78	6494.99
466.96	6464.56
467.14	6525.41
467.32	6686.91
467.51	6537.12
467.69	6471.58
467.87	6663.51
468.05	6541.80
468.23	6492.65
468.41	6637.76
468.60	6794.58
468.78	7026.29
468.96	6602.65
469.14	6743.08
469.32	6979.48
469.50	6703.29
469.69	6932.67
469.87	7033.31
470.05	6927.99
470.23	7040.33
470.41	6888.20
470.59	6937.35
470.77	7054.37
470.95	7126.93
471.14	7145.66
471.32	6939.69
471.50	7040.33
471.68	7068.42
471.86	7250.98
472.04	7166.72
472.22	7445.24
472.40	7246.30
472.58	7405.46
472.77	7370.35
472.95	7391.41
473.13	7801.01
473.31	7410.14
473.49	7527.16
473.67	7461.63
473.85	7611.42
474.03	7581.00
474.21	7611.42
474.39	7747.17
474.57	7817.39
474.75	7719.09
474.93	8105.28
475.12	7850.16
475.30	7845.48
475.48	7819.73
475.66	7934.42
475.84	8161.45
476.02	8119.32
476.20	8182.51
476.38	8449.33
476.56	8339.33
476.74	8245.71
476.92	8257.41
477.10	8404.86
477.28	8601.47
477.46	8538.27
477.64	8568.70
477.82	8779.35
478.00	8861.27
478.18	8971.27
478.36	8964.25
478.54	8975.95
478.72	9050.85
478.90	9062.55
479.08	9228.73
479.26	9247.46
479.44	9458.10
479.62	9523.64
479.80	9425.34
479.98	9542.36
480.16	9893.44
480.34	9696.84
480.52	9619.60
480.70	9689.82
480.88	9586.83
481.06	9832.59
481.24	9607.90
481.41	9870.04
481.59	9891.10
481.77	10225.80
481.95	10354.53
482.13	10153.24
482.31	10422.41
482.49	10621.35
482.67	10455.17
482.85	10850.72
483.03	10693.91
483.21	10754.76
483.39	11098.82
483.57	11150.31
483.74	10918.60
483.92	11098.82
484.10	11185.42
484.28	11288.40
484.46	11634.80
484.64	11658.21
484.82	11442.88
485.00	11445.22
485.18	11714.38
485.35	11742.47
485.53	11988.22
485.71	12042.06
485.89	12262.07
486.07	12229.30
486.25	12264.41
486.43	12262.07
486.61	12348.67
486.78	12723.15
486.96	12615.49
487.14	12795.71
487.32	12833.16
487.50	13025.08
487.68	13041.46
487.85	13186.58
488.03	13294.24
488.21	13617.24
488.39	13247.43
488.57	13415.95
488.75	13591.49
488.92	13991.72
489.10	13860.65
489.28	13963.64
489.46	14010.45
489.64	14045.55
489.81	14178.97
489.99	14530.05
490.17	14434.08
490.35	14902.19
490.53	14508.98
490.70	14941.98
490.88	14752.40
491.06	14836.66
491.24	14867.08
491.41	15267.31
491.59	15131.56
491.77	15143.27
491.95	15527.11
492.13	15534.14
492.30	15536.48
492.48	15627.76
492.66	15749.46
492.84	15737.76
493.01	15756.49
493.19	15899.26
493.37	16339.28
493.54	16133.31
493.72	16161.40
493.90	16306.51
494.08	16706.74
494.25	16657.59
494.43	16744.19
494.61	16814.41
494.79	17048.46
494.96	16847.18
495.14	16926.75
495.32	17179.53
495.49	17298.90
495.67	17263.79
495.85	17434.65
496.02	17439.33
496.20	17802.11
496.38	17743.60
496.55	17406.56
496.73	18150.85
496.91	18012.76
497.09	18043.19
497.26	18342.78
497.44	18019.78
497.62	18253.84
497.79	18436.40
497.97	18473.85
498.14	18625.98
498.32	18902.17
498.50	18609.60
498.67	18607.26
498.85	18668.11
499.03	19089.41
499.20	18829.61
499.38	19021.53
499.56	19396.02
499.73	19379.64
499.91	19527.09
500.08	19522.41
500.26	19332.82
500.44	19499.00
500.61	19714.33
500.79	19435.81
500.97	19932.00
501.14	19763.48
501.32	19927.32
501.49	19658.16
501.67	20086.48
501.84	20025.62
502.02	20039.67
502.20	20105.20
502.37	20669.27
502.55	20044.35
502.72	20470.33
502.90	20519.48
503.07	20198.82
503.25	20526.50
503.43	20629.48
503.60	20849.49
503.78	20807.36
503.95	20879.92
504.13	20664.59
504.30	20868.22
504.48	20713.74
504.65	21228.66
504.83	21338.66
505.01	21401.86
505.18	21308.24
505.36	21664.00
505.53	21413.56
505.71	21427.60
505.88	21827.84
506.06	21245.04
506.23	21944.86
506.41	21895.71
506.58	21624.21
506.76	21900.39
506.93	22225.73
507.11	21961.25
507.28	22150.83
507.46	21940.18
507.63	22146.15
507.81	22017.42
507.98	22370.84
508.16	22618.94
508.33	22242.11
508.50	22630.64
508.68	22909.16
508.85	23197.05
509.03	22939.59
509.20	23044.91
509.38	23075.34
509.55	22890.44
509.73	23150.24
509.90	23016.83
510.08	23159.60
510.25	22963.00
510.42	23480.25
510.60	23520.04
510.77	23515.36
510.95	23419.40
511.12	23407.70
511.30	23878.15
511.47	24215.18
511.64	23482.59
511.82	24100.50
511.99	23901.55
512.17	24063.05
512.34	24114.54
512.51	24236.25
512.69	23969.43
512.86	24329.87
513.04	24425.83
513.21	24711.38
513.38	24615.41
513.56	24435.19
513.73	24327.53
513.90	24519.45
514.08	24631.80
514.25	24678.61
514.43	24514.77
514.60	24802.66
514.77	25029.69
514.95	25006.28
515.12	25078.84
515.29	24889.26
515.47	24783.93
515.64	25116.29
515.81	25303.53
515.99	25825.47
516.16	25813.77
516.33	25544.61
516.51	25717.81
516.68	25717.81
516.85	25678.02
517.03	25565.67
517.20	25720.15
517.37	25968.24
517.54	25879.30
517.72	25802.07
517.89	25511.84
518.06	25841.85
518.24	26024.42
518.41	26153.15
518.58	26242.09
518.75	26239.75
518.93	26274.85
519.10	26471.46
519.27	26541.68
519.45	26408.26
519.62	26661.04
519.79	26707.85
519.96	26548.70
520.14	27145.53
520.31	26373.16
520.48	26981.70
520.65	26586.15
520.83	27110.43
521.00	26953.61
521.17	26944.25
521.34	27040.21
521.52	27150.21
521.69	27274.26
521.86	27592.58
522.03	27194.68
522.20	27278.94
522.38	27449.80
522.55	27257.88
522.72	27332.78
522.89	27721.30
523.07	27915.57
523.24	27955.36
523.41	28158.99
523.58	27800.88
523.75	27889.82
523.92	28039.62
524.10	27999.83
524.27	28510.07
524.44	28250.27
524.61	28786.25
524.78	28465.60
524.96	28580.28
525.13	28355.59
525.30	28435.17
525.47	28828.38
525.64	28402.40
525.81	28500.70
525.98	28481.98
526.16	28723.05
526.33	28650.50
526.50	28664.54
526.67	28245.58
526.84	29099.88
527.01	28545.17
527.18	28697.31
527.36	28905.62
527.53	29111.58
527.70	29345.64
527.87	29347.98
528.04	28680.92
528.21	29624.16
528.38	29282.44
528.55	29317.55
528.72	29249.67
528.89	29022.64
529.07	29507.13
529.24	29584.37
529.41	29940.13
529.58	29324.57
529.75	29731.83
529.92	29659.27
530.09	29752.89
530.26	29720.12
530.43	29935.45
530.60	29773.95
530.77	29883.96
530.94	30052.48
531.11	29556.28
531.28	29816.08
531.46	29640.54
531.63	30038.44
531.80	30125.04
531.97	30270.15
532.14	30361.43
532.31	30199.93
532.48	30471.43
532.65	30705.49
532.82	30218.66
532.99	30204.61
533.16	30635.27
533.33	30724.21
533.50	30632.93
533.67	30696.13
533.84	30239.72
534.01	30225.68
534.18	30967.63
534.35	30677.40
534.52	30930.18
534.69	30932.52
534.86	31297.64
535.03	30817.83
535.20	30778.04
535.37	30923.16
535.54	31189.98
535.71	30859.96
535.88	30913.80
536.05	31007.42
536.22	31136.15
536.38	31267.22
536.55	31222.75
536.72	31468.50
536.89	31154.87
537.06	30848.26
537.23	31505.95
537.40	31166.57
537.57	31257.85
537.74	31651.06
537.91	31702.56
538.08	31768.09
538.25	31395.95
538.42	31234.45
538.59	31758.73
538.75	31431.05
538.92	31674.47
539.09	31578.51
539.26	32002.14
539.43	31952.99
539.60	31913.20
539.77	32109.81
539.94	32254.92
540.11	32060.66
540.28	32191.73
540.44	32283.01
540.61	32294.71
540.78	32491.32
540.95	32769.84
541.12	32360.25
541.29	32697.28
541.46	32823.67
541.62	32856.44
541.79	32959.42
541.96	32683.24
542.13	32453.87
542.30	32603.66
542.47	32708.99
542.63	33102.20
542.80	32830.69
542.97	33088.15
543.14	33195.82
543.31	33411.15
543.48	33209.86
543.64	33544.56
543.81	33277.74
543.98	33635.84
544.15	33598.39
544.32	33457.96
544.48	33708.40
544.65	33371.36
544.82	33113.90
544.99	33289.44
545.16	33883.94
545.32	33219.22
545.49	34270.12
545.66	34707.80
545.83	34763.98
546.00	34962.92
546.16	34167.14
546.33	33696.69
546.50	33425.19
546.67	33797.34
546.83	33551.58
547.00	33647.54
547.17	33963.51
547.34	33820.74
547.50	33830.10
547.67	34204.59
547.84	34106.29
548.00	33984.58
548.17	33795.00
548.34	34164.80
548.51	34129.69
548.67	34464.39
548.84	34075.86
549.01	34410.56
549.18	34057.14
549.34	34087.56
549.51	34326.30
549.68	34089.90
549.84	33909.68
550.01	34391.83
550.18	33909.68
550.34	34403.53
550.51	33919.04
550.68	34394.17
550.84	34099.26
551.01	34520.56
551.18	34066.50
551.34	33909.68
551.51	34359.06
551.68	34204.59
551.84	34691.42
552.01	33855.85
552.18	34689.08
552.34	34309.91
552.51	34342.68
552.68	34204.59
552.84	34668.02
553.01	34567.37
553.18	34817.81
553.34	34953.56
553.51	34202.25
553.67	34866.96
553.84	34923.13
554.01	35093.99
554.17	34857.60
554.34	34820.15
554.51	34813.13
554.67	34848.24
554.84	34925.47
555.00	34806.11
555.17	35234.42
555.33	34670.36
555.50	34656.31
555.67	35056.54
555.83	34944.20
556.00	34864.62
556.16	35079.95
556.33	34892.71
556.50	34567.37
556.66	35072.93
556.83	35110.38
556.99	35414.65
557.16	35260.17
557.32	35211.02
557.49	35199.32
557.65	34986.33
557.82	35304.64
557.98	35005.05
558.15	35220.38
558.32	35438.05
558.48	35122.08
558.65	35442.73
558.81	35751.68
558.98	35288.26
559.14	35133.78
559.31	34803.77
559.47	35379.54
559.64	35194.64
559.80	35342.09
559.97	35821.90
560.13	35370.18
560.30	35271.87
560.46	35828.92
560.63	35215.70
560.79	35522.31
560.96	35587.85
561.12	35779.77
561.29	35171.23
561.45	35896.80
561.61	35218.04
561.78	35505.93
561.94	35704.87
562.11	35590.19
562.27	35583.16
562.44	35585.50
562.60	35704.87
562.77	35651.04
562.93	35271.87
563.10	36058.29
563.26	35754.02
563.42	35952.97
563.59	35590.19
563.75	35784.45
563.92	35749.34
564.08	35421.67
564.24	35456.78
564.41	35356.13
564.57	35601.89
564.74	35459.12
564.90	35791.47
565.07	35849.99
565.23	35739.98
565.39	35782.11
565.56	35491.88
565.72	35601.89
565.88	35658.06
566.05	35651.04
566.21	35732.96
566.38	35622.95
566.54	36144.89
566.70	35955.31
566.87	35864.03
567.03	35845.30
567.19	35978.72
567.36	35941.27
567.52	35716.58
567.68	36065.31
567.85	35817.22
568.01	35892.12
568.17	35768.07
568.34	35983.40
568.50	35948.29
568.66	35564.44
568.83	35999.78
568.99	35744.66
569.15	35955.31
569.32	36072.34
569.48	35519.97
569.64	36046.59
569.81	35842.96
569.97	35711.89
570.13	36002.12
570.30	36002.12
570.46	36013.82
570.62	35988.08
570.78	35945.95
570.95	35854.67
571.11	35913.18
571.27	35793.81
571.43	35777.43
571.60	35842.96
571.76	36107.44
571.92	36048.93
572.09	36493.63
572.25	36098.08
572.41	36154.26
572.57	35873.39
572.74	36002.12
572.90	35978.72
573.06	36072.34
573.22	35887.43
573.38	36191.70
573.55	36327.45
573.71	36154.26
573.87	36856.42
574.03	36236.17
574.20	36442.14
574.36	35800.83
574.52	36503.00
574.68	36170.64
574.84	36287.67
575.01	36086.38
575.17	36044.25
575.33	35756.36
575.49	36142.55
575.65	36390.65
575.82	36769.82
575.98	36292.35
576.14	36231.49
576.30	36254.90
576.46	36334.48
576.62	36191.70
576.79	36308.73
576.95	36378.95
577.11	36254.90
577.27	36273.62
577.43	36402.35
577.59	36149.57
577.75	36093.40
577.92	35541.03
578.08	35831.26
578.24	36299.37
578.40	36301.71
578.56	36297.03
578.72	36428.10
578.88	36400.01
579.04	36734.71
579.21	36486.61
579.37	36013.82
579.53	36077.02
579.69	36306.39
579.85	36570.87
580.01	36266.60
580.17	36065.31
580.33	36304.05
580.49	36119.15
580.65	36645.77
580.82	35990.42
580.98	36039.57
581.14	36374.27
581.30	36287.67
581.46	36084.04
581.62	36212.77
581.78	35842.96
581.94	36093.40
582.10	36189.36
582.26	36381.29
582.42	36392.99
582.58	36739.39
582.74	36533.42
582.90	36465.55
583.06	36790.88
583.22	36376.61
583.38	36371.92
583.54	36453.84
583.70	36102.76
583.86	36392.99
584.02	36203.41
584.18	36542.78
584.34	36643.43
584.50	36245.54
584.66	36648.11
584.82	35887.43
584.98	36849.39
585.14	36297.03
585.30	36397.67
585.46	36055.95
585.62	36144.89
585.78	36336.82
585.94	36130.85
586.10	36297.03
586.26	36641.09
586.42	36659.81
586.58	36538.10
586.74	36425.76
586.90	36044.25
587.06	36355.54
587.22	36484.27
587.38	36503.00
587.54	36507.68
587.70	36671.51
587.86	36512.36
588.02	36184.68
588.18	36488.95
588.34	36088.72
588.49	36088.72
588.65	36463.21
588.81	36294.69
588.97	36233.83
589.13	36107.44
589.29	36772.16
589.45	36769.82
589.61	36407.03
589.77	36575.55
589.93	36718.32
590.08	37020.25
590.24	36540.44
590.40	36840.03
590.56	36297.03
590.72	36510.02
590.88	36505.34
591.04	36706.62
591.20	36720.66
591.35	36928.97
591.51	36790.88
591.67	36500.65
591.83	36807.26
591.99	36531.08
592.15	36655.13
592.31	36355.54
592.46	36715.98
592.62	36664.49
592.78	36156.60
592.94	36671.51
593.10	36486.61
593.26	36669.17
593.41	36481.93
593.57	36715.98
593.73	36769.82
593.89	36954.72
594.05	36655.13
594.20	36491.29
594.36	36875.14
594.52	36664.49
594.68	36610.66
594.84	36290.01
594.99	36816.63
595.15	36561.51
595.31	36715.98
595.47	36779.18
595.62	36989.83
595.78	36233.83
595.94	36790.88
596.10	36650.45
596.25	36390.65
596.41	36182.34
596.57	36442.14
596.73	36776.84
596.88	36322.77
597.04	36308.73
597.20	36795.56
597.36	36959.40
597.51	36575.55
597.67	36804.92
597.83	36505.34
597.99	36559.17
598.14	36322.77
598.30	36856.42
598.46	36432.78
598.61	36378.95
598.77	36500.65
598.93	36708.96
599.09	36573.21
599.24	37312.82
599.40	36669.17
599.56	36851.73
599.71	36840.03
599.87	36823.65
600.03	36362.56
600.18	36308.73
600.34	36680.88
600.50	36627.04
600.65	36458.52
600.81	36921.95
600.97	36638.75
601.12	37062.38
601.28	36779.18
601.44	36961.74
601.59	36683.22
601.75	36304.05
601.91	36737.05
602.06	36708.96
602.22	36442.14
602.37	36311.07
602.53	36465.55
602.69	36641.09
602.84	36507.68
603.00	36648.11
603.16	36835.35
603.31	36341.50
603.47	36226.81
603.62	36463.21
603.78	36755.77
603.94	36301.71
604.09	36456.18
604.25	36137.87
604.40	36369.58
604.56	36748.75
604.71	36837.69
604.87	36407.03
605.03	36503.00
605.18	36896.20
605.34	36629.38
605.49	36196.38
605.65	35976.37
605.80	36414.05
605.96	36371.92
606.12	36376.61
606.27	36364.90
606.43	36112.13
606.58	36692.58
606.74	36095.74
606.89	36563.85
607.05	36381.29
607.20	36294.69
607.36	36126.17
607.51	36327.45
607.67	35857.01
607.82	36037.23
607.98	36161.28
608.13	36264.26
608.29	36041.91
608.44	36062.97
608.60	36662.15
608.75	36676.19
608.91	36479.59
609.06	35971.69
609.22	36746.41
609.37	36053.61
609.53	36025.53
609.68	36004.46
609.84	35948.29
609.99	36217.45
610.15	36392.99
610.30	36215.11
610.46	36428.10
610.61	37067.06
610.76	37134.94
610.92	37282.39
611.07	37055.36
611.23	37177.07
611.38	37109.19
611.54	36914.93
611.69	36275.96
611.84	36170.64
612.00	36222.13
612.15	36259.58
612.31	36491.29
612.46	36133.19
612.62	36217.45
612.77	36353.20
612.92	36699.60
613.08	35899.14
613.23	36044.25
613.39	35922.54
613.54	35833.60
613.69	36020.84
613.85	35508.27
614.00	35529.33
614.15	35725.94
614.31	35620.61
614.46	35835.94
614.62	35569.12
614.77	36058.29
614.92	36278.30
615.08	35615.93
615.23	36020.84
615.38	35831.26
615.54	35690.83
615.69	35424.01
615.84	35173.57
616.00	35648.70
616.15	35178.25
616.30	35910.84
616.46	35189.95
616.61	35529.33
616.76	35852.33
616.92	35103.35
617.07	35351.45
617.22	35138.46
617.37	34995.69
617.53	35119.74
617.68	35211.02
617.83	35019.10
617.99	35028.46
618.14	34981.65
618.29	35306.98
618.45	34792.06
618.60	35115.06
618.75	35218.04
618.90	34628.23
619.06	35016.75
619.21	35033.14
619.36	34916.11
619.51	34927.81
619.67	34565.03
619.82	34632.91
619.97	35161.87
620.12	34609.50
620.28	34927.81
620.43	34689.08
620.58	35402.94
620.73	34897.39
620.89	34859.94
621.04	34506.52
621.19	35108.04
621.34	34515.88
621.49	34469.07
621.65	34583.76
621.80	34546.31
621.95	34707.80
622.10	34558.01
622.25	34466.73
622.41	34270.12
622.56	34232.68
622.71	34923.13
622.86	34195.23
623.01	34668.02
623.16	34644.61
623.32	34752.27
623.47	34698.44
623.62	34541.63
623.77	34150.76
623.92	34632.91
624.07	34347.36
624.23	34738.23
624.38	34108.63
624.53	33954.15
624.68	34209.27
624.83	34429.28
624.98	34368.43
625.13	33787.97
625.29	34382.47
625.44	34218.63
625.59	34087.56
625.74	33743.50
625.89	33823.08
626.04	34148.42
626.19	33532.86
626.34	33748.18
626.49	34071.18
626.65	33998.62
626.80	34007.98
626.95	33621.80
627.10	33792.65
627.25	34110.97
627.40	33680.31
627.55	33790.31
627.70	33312.84
627.85	33450.94
628.00	33350.29
628.15	33607.75
628.30	33539.88
628.45	33109.22
628.60	33474.34
628.76	33930.75
628.91	33216.88
629.06	33703.71
629.21	33191.14
629.36	33560.94
629.51	33387.74
629.66	33408.81
629.81	33387.74
629.96	33383.06
630.11	33408.81
630.26	33378.38
630.41	33043.68
630.56	33294.12
630.71	33345.61
630.86	33294.12
631.01	33539.88
631.16	33092.83
631.31	33226.24
631.46	33230.93
631.61	33181.77
631.76	33076.45
631.91	33195.82
632.06	33102.20
632.21	33071.77
632.36	32596.64
632.51	32811.97
632.66	33036.66
632.81	32545.15
632.96	33076.45
633.10	32924.32
633.25	33078.79
633.40	32954.74
633.55	33186.46
633.70	32907.93
633.85	33057.73
634.00	32879.85
634.15	32627.07
634.30	32591.96
634.45	32896.23
634.60	33132.62
634.75	32699.62
634.90	32772.18
635.05	32610.68
635.19	32481.95
635.34	33191.14
635.49	32769.84
635.64	32451.53
635.79	32453.87
635.94	32187.05
636.09	32250.24
636.24	32360.25
636.39	32383.65
636.53	32313.44
636.68	31819.58
636.83	32180.03
636.98	32685.58
637.13	31882.78
637.28	32566.21
637.43	32531.11
637.57	32636.43
637.72	32404.72
637.87	32446.85
638.02	32147.26
638.17	32638.77
638.32	31730.64
638.46	31655.75
638.61	32182.37
638.76	31667.45
638.91	31672.13
639.06	32135.56
639.20	32713.67
639.35	32018.53
639.50	31915.54
639.65	32060.66
639.80	32156.62
639.94	31955.33
640.09	31861.71
640.24	31779.79
640.39	31585.53
640.54	31728.30
640.68	31929.59
640.83	31665.11
640.98	31597.23
641.13	31747.03
641.27	31744.69
641.42	31564.46
641.57	31627.66
641.72	31929.59
641.86	31543.40
642.01	31318.71
642.16	31576.17
642.31	31222.75
642.45	31325.73
642.60	31166.57
642.75	31335.09
642.90	31087.00
643.04	30930.18
643.19	31445.10
643.34	31552.76
643.48	31330.41
643.63	31655.75
643.78	31597.23
643.93	31454.46
644.07	31512.97
644.22	31424.03
644.37	31131.47
644.51	31075.29
644.66	31370.20
644.81	31056.57
644.95	31175.94
645.10	30991.03
645.25	31587.87
645.39	31241.47
645.54	31253.17
645.69	31290.62
645.83	31201.68
645.98	31075.29
646.13	31325.73
646.27	31007.42
646.42	30937.20
646.57	30661.02
646.71	31150.19
646.86	30801.45
647.00	30445.69
647.15	30675.06
647.30	30651.66
647.44	30848.26
647.59	30595.48
647.74	30876.35
647.88	31236.79
648.03	30895.07
648.17	31030.82
648.32	30962.95
648.47	31087.00
648.61	30897.41
648.76	30635.27
648.90	30878.69
649.05	30553.35
649.20	30646.97
649.34	30508.88
649.49	30300.58
649.63	30607.19
649.78	30740.60
649.92	30363.77
650.07	31012.10
650.21	30717.19
650.36	30637.61
650.51	30548.67
650.65	30579.10
650.80	30822.51
650.94	30609.53
651.09	30595.48
651.23	30302.92
651.38	30436.33
651.52	29949.50
651.67	30157.80
651.81	30122.69
651.96	30270.15
652.10	30115.67
652.25	30417.60
652.39	30279.51
652.54	30560.37
652.68	30024.39
652.83	30331.00
652.97	30443.35
653.12	29841.83
653.26	30237.38
653.41	30270.15
653.55	30127.38
653.70	30148.44
653.84	30026.73
653.99	29881.62
654.13	30230.36
654.27	29483.73
654.42	29916.73
654.56	29874.60
654.71	29937.79
654.85	29926.09
655.00	30277.17
655.14	30148.44
655.29	29830.13
655.43	29734.17
655.57	29776.30
655.72	29322.23
655.86	29626.50
656.01	29610.12
656.15	29469.69
656.30	30019.71
656.44	29717.78
656.58	29277.76
656.73	29383.09
656.87	29263.72
657.01	29465.00
657.16	29560.97
657.30	29816.08
657.45	29848.85
657.59	29429.90
657.73	29436.92
657.88	29476.71
658.02	29195.84
658.16	29280.10
658.31	29310.53
658.45	29053.07
658.60	29013.28
658.74	29289.46
658.88	29034.35
659.03	29149.03
659.17	29242.65
659.31	29046.05
659.46	28753.48
659.60	29406.49
659.74	28933.70
659.89	29188.82
660.03	29060.09
660.17	29336.27
660.32	28931.36
660.46	28907.96
660.60	29020.30
660.74	28266.65
660.89	28320.48
661.03	28599.01
661.17	28999.24
661.32	28402.40
661.46	28814.34
661.60	28500.70
661.74	28514.75
661.89	28687.95
662.03	28849.44
662.17	28694.97
662.31	28350.91
662.46	28271.33
662.60	28584.96
662.74	28056.00
662.88	28453.89
663.03	28009.19
663.17	28418.78
663.31	28044.30
663.45	27974.08
663.60	27878.12
663.74	27974.08
663.88	28273.67
664.02	28116.86
664.17	28095.79
664.31	27751.73
664.45	27864.08
664.59	27641.73
664.73	27838.33
664.88	27604.28
665.02	27426.40
665.16	27590.24
665.30	27580.87
665.44	27292.99
665.59	27468.53
665.73	27236.81
665.87	27206.39
666.01	27267.24
666.15	27304.69
666.29	27175.96
666.44	27414.69
666.58	27613.64
666.72	27281.28
666.86	27283.62
667.00	27122.13
667.14	27037.87
667.28	26820.20
667.43	26981.70
667.57	26829.56
667.71	26649.34
667.85	26775.73
667.99	26768.71
668.13	26642.32
668.27	26792.11
668.41	26483.16
668.56	26815.52
668.70	26850.63
668.84	26951.27
668.98	26918.50
669.12	26682.11
669.26	26342.73
669.40	26618.91
669.54	26595.51
669.68	26616.57
669.82	26235.06
669.96	26113.36
670.10	26277.19
670.25	26015.05
670.39	25692.06
670.53	26045.48
670.67	25944.84
670.81	25958.88
670.95	26012.71
671.09	26192.94
671.23	26162.51
671.37	25876.96
671.51	26246.77
671.65	26059.52
671.79	26040.80
671.93	25277.79
672.07	25834.83
672.21	25586.74
672.35	25734.19
672.49	25350.34
672.63	24954.79
672.77	25144.38
672.91	25142.03
673.05	25165.44
673.19	25401.83
673.33	25177.14
673.47	25153.74
673.61	24938.41
673.75	25135.01
673.89	25343.32
674.03	24872.87
674.17	24816.70
674.31	24823.72
674.45	24954.79
674.59	24936.07
674.73	24664.57
674.87	24648.18
675.01	24105.18
675.15	24542.86
675.29	24467.96
675.43	24299.44
675.56	24484.34
675.70	24559.24
675.84	24500.73
675.98	23854.74
676.12	24144.97
676.26	24154.33
676.40	24142.63
676.54	24343.91
676.68	23931.98
676.82	23985.81
676.96	23838.36
677.10	23791.55
677.23	23779.84
677.37	23513.02
677.51	23557.49
677.65	23459.19
677.79	23133.86
677.93	23653.45
678.07	23143.22
678.21	23297.69
678.34	23199.39
678.48	23222.80
678.62	23040.23
678.76	22932.57
678.90	22789.80
679.04	22913.84
679.18	22806.18
679.31	22558.08
679.45	22607.23
679.59	22644.68
679.73	22199.98
679.87	22466.80
680.00	22113.38
680.14	22038.48
680.28	22169.55
680.42	21628.89
680.56	21991.67
680.70	22066.57
680.83	22153.17
680.97	21813.79
681.11	22445.74
681.25	21996.35
681.39	21558.67
681.52	21809.11
681.66	21825.50
681.80	21422.92
681.94	21434.63
682.07	21394.84
682.21	21231.00
682.35	21411.22
682.49	21069.50
682.62	20695.02
682.76	20842.47
682.90	20912.69
683.04	21003.97
683.17	20769.91
683.31	20744.17
683.45	20800.34
683.59	20685.65
683.72	20952.48
683.86	20449.26
684.00	20563.95
684.13	20617.78
684.27	20245.63
684.41	20470.33
684.55	20269.04
684.68	20042.01
684.82	19962.43
684.96	20037.33
685.09	19999.88
685.23	19819.66
685.37	19850.08
685.50	19620.71
685.64	19889.87
685.78	19594.96
685.91	19569.22
686.05	19669.86
686.19	19337.51
686.32	19599.65
686.46	19412.40
686.60	19154.94
686.73	19288.35
686.87	19101.11
687.01	19201.76
687.14	18937.27
687.28	18815.57
687.42	18885.78
687.55	18677.48
687.69	18810.89
687.82	18712.58
687.96	18841.31
688.10	18796.84
688.23	18705.56
688.37	18644.71
688.50	18331.08
688.64	18422.36
688.78	18094.68
688.91	18239.79
689.05	18232.77
689.18	18207.03
689.32	17724.88
689.46	18059.57
689.59	17731.90
689.73	17914.46
689.86	17825.52
690.00	17649.98
690.13	17432.31
690.27	17589.13
690.41	17518.91
690.54	17296.56
690.68	17076.55
690.81	17455.72
690.95	17528.27
691.08	17198.26
691.22	17378.48
691.35	17179.53
691.49	17135.06
691.62	17231.02
691.76	16959.52
691.89	16741.85
692.03	16613.12
692.16	16479.71
692.30	16545.25
692.43	16578.01
692.57	16346.30
692.70	16460.99
692.84	16414.18
692.97	16301.83
693.11	16355.66
693.24	16463.33
693.38	16016.29
693.51	16233.96
693.65	16301.83
693.78	15889.90
693.92	16112.25
694.05	15761.17
694.19	15660.52
694.32	15419.45
694.45	15559.88
694.59	15686.27
694.72	15344.55
694.86	15145.61
694.99	15220.50
695.13	15222.84
695.26	15267.31
695.39	14932.62
695.53	15489.67
695.66	15183.06
695.80	14970.07
695.93	15243.91
696.07	14696.22
696.20	14822.61
696.33	14972.41
696.47	14846.02
696.60	15028.58
696.73	14881.13
696.87	14555.79
697.00	14806.23
697.14	14663.46
697.27	14204.71
697.40	14398.98
697.54	14078.32
697.67	14197.69
697.80	13820.86
697.94	14153.22
698.07	13958.96
698.21	13898.10
698.34	13944.91
698.47	13858.31
698.61	13675.75
698.74	13844.27
698.87	13802.14
699.01	13568.09
699.14	13710.86
699.27	13439.36
699.40	13542.34
699.54	13444.04
699.67	13343.39
699.80	12882.31
699.94	13001.68
700.07	13067.21
700.20	12812.09
700.34	12849.54
700.47	12912.74
700.60	12776.98
700.73	12865.92
700.87	12847.20
701.00	12592.08
701.13	12659.96
701.26	12765.28
701.40	12940.82
701.53	12540.59
701.66	12762.94
701.79	12468.03
701.93	12521.87
702.06	12271.43
702.19	12107.59
702.32	12105.25
702.46	12187.17
702.59	12053.76
702.72	12212.92
702.85	12086.53
702.99	11920.35
703.12	11819.71
703.25	11758.85
703.38	11770.55
703.51	11728.42
703.65	12016.31
703.78	11730.76
703.91	11604.38
704.04	11747.15
704.17	11550.54
704.31	11424.15
704.44	11279.04
704.57	11382.03
704.70	11398.41
704.83	11227.55
704.96	11110.52
705.10	11178.40
705.23	10869.45
>>>>>End Processed Spectral Data<<<<<
