SpectraSuite Data File
++++++++++++++++++++++++++++++++++++
Date: Fri Oct 04 11:39:26 GMT-05:00 2013
User: price-jones
Dark Spectrum Present: No
Reference Spectrum Present: No
Number of Sampled Component Spectra: 1
Spectrometers: USB2+H05261
Integration Time (usec): 100000 (USB2+H05261)
Spectra Averaged: 1 (USB2+H05261)
Boxcar Smoothing: 0 (USB2+H05261)
Correct for Electrical Dark: No (USB2+H05261)
Strobe/Lamp Enabled: No (USB2+H05261)
Correct for Detector Non-linearity: No (USB2+H05261)
Correct for Stray Light: No (USB2+H05261)
Number of Pixels in Processed Spectrum: 2048
>>>>>Begin Processed Spectral Data<<<<<
365.73	84.26
365.92	84.26
366.12	84.26
366.32	0.00
366.52	0.00
366.72	0.00
366.91	0.00
367.11	0.00
367.31	11.70
367.51	0.00
367.70	0.00
367.90	39.79
368.10	0.00
368.30	0.00
368.49	0.00
368.69	0.00
368.89	0.00
369.09	0.00
369.28	0.00
369.48	0.00
369.68	0.00
369.87	58.51
370.07	70.22
370.27	49.15
370.47	63.19
370.66	175.54
370.86	215.33
371.06	257.46
371.25	217.67
371.45	168.52
371.65	163.84
371.84	283.20
372.04	210.65
372.24	280.86
372.44	191.92
372.63	196.60
372.83	259.80
373.03	241.08
373.22	203.63
373.42	205.97
373.62	344.06
373.81	320.65
374.01	299.59
374.21	255.12
374.40	285.55
374.60	332.36
374.79	231.71
374.99	339.38
375.19	421.30
375.38	308.95
375.58	369.80
375.78	376.83
375.97	402.57
376.17	416.62
376.37	365.12
376.56	315.97
376.76	299.59
376.95	379.17
377.15	306.61
377.35	297.25
377.54	287.89
377.74	262.14
377.93	318.31
378.13	334.70
378.33	388.53
378.52	308.95
378.72	301.93
378.91	280.86
379.11	285.55
379.31	325.33
379.50	367.46
379.70	402.57
379.89	390.87
380.09	280.86
380.28	297.25
380.48	402.57
380.68	381.51
380.87	313.63
381.07	365.12
381.26	346.40
381.46	365.12
381.65	428.32
381.85	376.83
382.04	278.52
382.24	367.46
382.43	330.02
382.63	400.23
382.83	475.13
383.02	404.91
383.22	327.68
383.41	397.89
383.61	318.31
383.80	393.21
384.00	322.99
384.19	414.27
384.39	397.89
384.58	379.17
384.78	362.78
384.97	425.98
385.17	351.08
385.36	414.27
385.56	437.68
385.75	404.91
385.95	496.19
386.14	418.96
386.34	374.49
386.53	440.02
386.72	428.32
386.92	489.17
387.11	440.02
387.31	475.13
387.50	416.62
387.70	451.72
387.89	409.59
388.09	409.59
388.28	454.06
388.48	447.04
388.67	456.40
388.86	423.64
389.06	433.00
389.25	468.11
389.45	561.73
389.64	414.27
389.84	514.92
390.03	475.13
390.22	571.09
390.42	475.13
390.61	447.04
390.81	526.62
391.00	500.87
391.19	461.09
391.39	540.66
391.58	526.62
391.78	566.41
391.97	510.24
392.16	500.87
392.36	505.56
392.55	559.39
392.75	503.22
392.94	552.37
393.13	568.75
393.33	524.28
393.52	512.58
393.71	557.05
393.91	545.34
394.10	510.24
394.29	540.66
394.49	533.64
394.68	545.34
394.88	660.03
395.07	664.71
395.26	547.69
395.46	575.77
395.65	667.05
395.84	645.99
396.04	678.76
396.23	793.44
396.42	692.80
396.62	709.18
396.81	648.33
397.00	657.69
397.19	683.44
397.39	641.31
397.58	617.90
397.77	711.52
397.97	718.54
398.16	753.65
398.35	746.63
398.55	772.38
398.74	767.70
398.93	697.48
399.12	702.16
399.32	753.65
399.51	730.25
399.70	730.25
399.90	786.42
400.09	786.42
400.28	755.99
400.47	877.70
400.67	800.46
400.86	784.08
401.05	791.10
401.24	842.59
401.44	898.77
401.63	873.02
401.82	809.83
402.01	854.30
402.21	957.28
402.40	896.43
402.59	891.74
402.78	866.00
402.97	898.77
403.17	950.26
403.36	950.26
403.55	999.41
403.74	938.55
403.93	1074.31
404.13	1086.01
404.32	1090.69
404.51	1125.80
404.70	1062.60
404.89	1118.78
405.09	1093.03
405.28	973.66
405.47	1069.62
405.66	1104.73
405.85	1025.15
406.05	1095.37
406.24	1149.20
406.43	1100.05
406.62	1268.57
406.81	1280.27
407.00	1247.51
407.20	1163.25
407.39	1128.14
407.58	1205.38
407.77	1224.10
407.96	1139.84
408.15	1275.59
408.34	1282.61
408.54	1210.06
408.73	1181.97
408.92	1336.45
409.11	1350.49
409.30	1376.24
409.49	1355.17
409.68	1362.19
409.87	1453.47
410.07	1423.05
410.26	1434.75
410.45	1425.39
410.64	1460.49
410.83	1460.49
411.02	1399.64
411.21	1533.05
411.40	1589.22
411.59	1701.57
411.78	1547.09
411.98	1687.53
412.17	1701.57
412.36	1701.57
412.55	1617.31
412.74	1722.63
412.93	1710.93
413.12	1671.14
413.31	1860.73
413.50	1802.21
413.69	1753.06
413.88	1863.07
414.07	1811.57
414.26	1827.96
414.45	1940.30
414.64	1802.21
414.83	1877.11
415.02	1959.03
415.22	1959.03
415.41	1961.37
415.60	1926.26
415.79	1998.82
415.98	2017.54
416.17	2024.56
416.36	2087.76
416.55	2132.23
416.74	2181.38
416.93	2230.53
417.12	2108.82
417.31	2172.02
417.50	2209.47
417.69	2251.60
417.88	2204.78
418.07	2221.17
418.26	2305.43
418.45	2356.92
418.64	2279.68
418.83	2406.07
419.02	2354.58
419.21	2399.05
419.39	2469.27
419.58	2345.22
419.77	2366.28
419.96	2473.95
420.15	2413.09
420.34	2424.80
420.53	2511.39
420.72	2581.61
420.91	2455.22
421.10	2534.80
421.29	2555.86
421.48	2511.39
421.67	2581.61
421.86	2635.44
422.05	2675.23
422.24	2705.66
422.43	2525.44
422.61	2588.63
422.80	2555.86
422.99	2621.40
423.18	2642.46
423.37	2724.38
423.56	2700.98
423.75	2726.72
423.94	2623.74
424.13	2504.37
424.32	2567.57
424.50	2576.93
424.69	2642.46
424.88	2764.17
425.07	2590.97
425.26	2750.13
425.45	2583.95
425.64	2696.30
425.83	2850.77
426.01	2677.57
426.20	2860.13
426.39	2700.98
426.58	2715.02
426.77	2775.88
426.96	2871.84
427.15	2864.82
427.33	2832.05
427.52	2785.24
427.71	2888.22
427.90	2869.50
428.09	2916.31
428.28	3009.93
428.46	2944.39
428.65	3026.31
428.84	3098.87
429.03	3033.33
429.22	2986.52
429.40	2963.12
429.59	2888.22
429.78	3005.25
429.97	2874.18
430.16	2925.67
430.34	3124.62
430.53	3049.72
430.72	3129.30
430.91	3082.49
431.10	3126.96
431.28	3133.98
431.47	3300.16
431.66	3143.34
431.85	3194.83
432.03	3213.56
432.22	3286.11
432.41	3311.86
432.60	3311.86
432.79	3262.71
432.97	3227.60
433.16	3332.92
433.35	3265.05
433.54	3452.29
433.72	3358.67
433.91	3389.10
434.10	3262.71
434.28	3361.01
434.47	3379.73
434.66	3494.42
434.85	3480.38
435.03	3550.59
435.22	3730.81
435.41	3941.46
435.59	3742.52
435.78	3904.01
435.97	3646.55
436.16	3599.74
436.34	3494.42
436.53	3674.64
436.72	3691.02
436.90	3634.85
437.09	3592.72
437.28	3723.79
437.46	3698.05
437.65	3637.19
437.84	3761.24
438.02	3775.28
438.21	3815.07
438.40	3721.45
438.58	3840.82
438.77	3882.95
438.96	3941.46
439.14	3955.51
439.33	4011.68
439.52	3918.06
439.70	4009.34
439.89	4025.72
440.08	4046.79
440.26	4117.00
440.45	4140.41
440.63	4198.92
440.82	4154.45
441.01	4161.47
441.19	4180.20
441.38	4379.14
441.57	4301.90
441.75	4308.93
441.94	4535.96
442.12	4388.50
442.31	4458.72
442.50	4554.68
442.68	4468.08
442.87	4531.28
443.05	4554.68
443.24	4512.55
443.43	4542.98
443.61	4475.10
443.80	4636.60
443.98	4414.25
444.17	4212.96
444.35	4592.13
444.54	4739.58
444.73	4610.86
444.91	4535.96
445.10	4505.53
445.28	4634.26
445.47	4528.94
445.65	4760.65
445.84	4592.13
446.02	4564.04
446.21	4566.39
446.39	4709.16
446.58	4734.90
446.77	4538.30
446.95	4643.62
447.14	4470.42
447.32	4617.88
447.51	4660.01
447.69	4748.95
447.88	4697.46
448.06	4734.90
448.25	4774.69
448.43	4692.77
448.62	4711.50
448.80	4791.08
448.99	4685.75
449.17	4791.08
449.36	4718.52
449.54	4699.80
449.73	4898.74
449.91	5020.45
450.10	4964.28
450.28	4933.85
450.46	4968.96
450.65	4882.36
450.83	5071.94
451.02	4954.91
451.20	5151.52
451.39	5118.75
451.57	4992.36
451.76	5034.49
451.94	5050.88
452.13	5188.97
452.31	5139.82
452.49	4936.19
452.68	5163.22
452.86	5109.39
453.05	5317.70
453.23	5345.78
453.42	5102.37
453.60	5249.82
453.78	5233.44
453.97	4926.83
454.15	5235.78
454.34	5001.72
454.52	5338.76
454.70	5378.55
454.89	5350.46
455.07	5430.04
455.26	5455.79
455.44	5500.26
455.62	5385.57
455.81	5242.80
455.99	5392.59
456.17	5359.83
456.36	5437.06
456.54	5626.65
456.73	5584.52
456.91	5713.25
457.09	5797.51
457.28	5837.30
457.46	5701.54
457.64	5797.51
457.83	5832.62
458.01	5741.33
458.19	5736.65
458.38	5682.82
458.56	5849.00
458.74	5884.11
458.93	5837.30
459.11	6080.71
459.29	5944.96
459.48	5895.81
459.66	5792.83
459.84	5799.85
460.03	5935.60
460.21	6015.18
460.39	5984.75
460.57	6050.28
460.76	5909.85
460.94	6080.71
461.12	5937.94
461.31	6052.63
461.49	6050.28
461.67	6057.31
461.85	6307.74
462.04	6214.12
462.22	6218.80
462.40	6384.98
462.59	6251.57
462.77	6370.94
462.95	6293.70
463.13	6438.81
463.32	6342.85
463.50	6338.17
463.68	6401.37
463.86	6406.05
464.05	6408.39
464.23	6422.43
464.41	6331.15
464.59	6417.75
464.78	6583.93
464.96	6464.56
465.14	6415.41
465.32	6544.14
465.50	6757.13
465.69	6726.70
465.87	6679.89
466.05	6457.54
466.23	6628.40
466.41	6803.94
466.60	7016.93
466.78	6707.98
466.96	6544.14
467.14	6546.48
467.32	6710.32
467.51	6658.82
467.69	6684.57
467.87	6705.63
468.05	6806.28
468.23	6736.06
468.41	6785.21
468.60	6925.65
468.78	6951.39
468.96	6794.58
469.14	6951.39
469.32	6972.46
469.50	6808.62
469.69	6895.22
469.87	7150.34
470.05	7026.29
470.23	7360.98
470.41	7105.87
470.59	7211.19
470.77	7084.80
470.95	7225.23
471.14	7243.96
471.32	7108.21
471.50	7470.99
471.68	7344.60
471.86	7447.58
472.04	7445.24
472.22	7602.06
472.40	7272.04
472.58	7478.01
472.77	7522.48
472.95	7737.81
473.13	7985.91
473.31	7669.94
473.49	7592.70
473.67	7513.12
473.85	7726.11
474.03	7934.42
474.21	7868.88
474.39	8021.02
474.57	8009.31
474.75	8081.87
474.93	8147.40
475.12	8065.49
475.30	8332.31
475.48	8072.51
475.66	8173.15
475.84	8318.26
476.02	8358.05
476.20	8250.39
476.38	8582.74
476.56	8360.39
476.74	8542.96
476.92	8631.90
477.10	8552.32
477.28	8732.54
477.46	8849.57
477.64	8849.57
477.82	8833.18
478.00	9050.85
478.18	9149.15
478.36	8938.51
478.54	9254.48
478.72	9167.88
478.90	9334.06
479.08	9455.76
479.26	9565.77
479.44	9317.67
479.62	9586.83
479.80	9497.89
479.98	9699.18
480.16	9832.59
480.34	9785.78
480.52	9958.98
480.70	10066.64
480.88	9839.61
481.06	9982.38
481.24	9980.04
481.41	10033.88
481.59	10354.53
481.77	10438.79
481.95	10286.65
482.13	10616.67
482.31	10448.15
482.49	10810.93
482.67	10736.04
482.85	10951.37
483.03	10979.45
483.21	11246.27
483.39	11154.99
483.57	11236.91
483.74	11218.19
483.92	11468.62
484.10	11660.55
484.28	11545.86
484.46	11604.38
484.64	11960.14
484.82	11765.87
485.00	11906.31
485.18	12100.57
485.35	12358.03
485.53	12538.25
485.71	12355.69
485.89	12421.22
486.07	12531.23
486.25	12643.57
486.43	12631.87
486.61	12861.24
486.78	12908.05
486.96	12812.09
487.14	13188.92
487.32	12959.55
487.50	13027.42
487.68	13242.75
487.85	13422.97
488.03	13689.79
488.21	13755.33
488.39	13879.38
488.57	13778.73
488.75	13923.85
488.92	14256.20
489.10	14075.98
489.28	14230.46
489.46	14396.64
489.64	14396.64
489.81	14565.15
489.99	14871.76
490.17	14609.62
490.35	15096.46
490.53	14918.57
490.70	15372.64
490.88	14867.08
491.06	15445.20
491.24	15335.19
491.41	15524.77
491.59	15405.41
491.77	15351.57
491.95	15917.98
492.13	15910.96
492.30	15831.38
492.48	16077.14
492.66	16093.52
492.84	16177.78
493.01	16070.12
493.19	16496.10
493.37	16795.68
493.54	16585.04
493.72	16650.57
493.90	16772.28
494.08	16933.78
494.25	16840.15
494.43	16943.14
494.61	17280.18
494.79	17095.27
494.96	17135.06
495.14	17563.38
495.32	17493.16
495.49	17619.55
495.67	17790.41
495.85	17937.87
496.02	17853.61
496.20	18033.83
496.38	18221.07
496.55	17998.72
496.73	18565.13
496.91	18387.25
497.09	18438.74
497.26	18464.49
497.44	18459.81
497.62	18677.48
497.79	18492.57
497.97	18775.78
498.14	19119.84
498.32	19208.78
498.50	19534.11
498.67	19222.82
498.85	19393.68
499.03	19267.29
499.20	19372.61
499.38	19534.11
499.56	19599.65
499.73	19681.56
499.91	20098.18
500.08	19974.13
500.26	19852.42
500.44	19740.08
500.61	19948.39
500.79	19983.49
500.97	20205.84
501.14	20475.01
501.32	20374.36
501.49	20079.46
501.67	20421.17
501.84	20781.62
502.02	20292.44
502.20	20617.78
502.37	20966.52
502.55	20919.71
502.72	21123.33
502.90	20922.05
503.07	20940.77
503.25	21209.93
503.43	21010.99
503.60	21343.35
503.78	21326.96
503.95	21319.94
504.13	21476.76
504.30	21263.77
504.48	21465.05
504.65	21806.77
504.83	21790.39
505.01	21752.94
505.18	21713.15
505.36	21832.52
505.53	21982.31
505.71	21893.37
505.88	22082.95
506.06	21942.52
506.23	22317.01
506.41	22590.85
506.58	22480.85
506.76	22230.41
506.93	22403.61
507.11	22686.81
507.28	22429.35
507.46	22752.35
507.63	22750.01
507.81	22757.03
507.98	22630.64
508.16	22932.57
508.33	23009.81
508.50	23253.22
508.68	23452.17
508.85	23363.23
509.03	23426.42
509.20	23403.02
509.38	23819.63
509.55	23765.80
509.73	23599.62
509.90	23798.57
510.08	23763.46
510.25	23927.30
510.42	23744.73
510.60	24299.44
510.77	24353.27
510.95	24257.31
511.12	24198.80
511.30	24350.93
511.47	24379.02
511.64	24531.15
511.82	24606.05
511.99	24620.10
512.17	24531.15
512.34	24393.06
512.51	24751.17
512.69	24802.66
512.86	24957.13
513.04	24999.26
513.21	24900.96
513.38	25242.68
513.56	25137.35
513.73	24989.90
513.90	25366.73
514.08	25343.32
514.25	25663.97
514.43	25312.89
514.60	25469.71
514.77	25671.00
514.95	26005.69
515.12	25713.13
515.29	25427.58
515.47	26045.48
515.64	26033.78
515.81	25937.82
515.99	26155.49
516.16	26054.84
516.33	26228.04
516.51	26508.91
516.68	26204.64
516.85	26204.64
517.03	26314.64
517.20	27021.48
517.37	26508.91
517.54	26822.54
517.72	26742.96
517.89	26637.64
518.06	26597.85
518.24	26326.35
518.41	26478.48
518.58	26817.86
518.75	26719.56
518.93	27040.21
519.10	27166.60
519.27	27873.44
519.45	27103.40
519.62	27129.15
519.79	27164.26
519.96	27082.34
520.14	27152.55
520.31	27311.71
520.48	27583.21
520.65	27339.80
520.83	27777.48
521.00	27777.48
521.17	27637.05
521.34	27667.47
521.52	27447.46
521.69	27976.42
521.86	28016.21
522.03	28166.01
522.20	28367.29
522.38	28226.86
522.55	27878.12
522.72	28376.66
522.89	28133.24
523.07	28809.65
523.24	28301.76
523.41	28570.92
523.58	28016.21
523.75	28723.05
523.92	28346.23
524.10	28786.25
524.27	29186.48
524.44	29174.78
524.61	29053.07
524.78	29050.73
524.96	28870.51
525.13	29090.52
525.30	29324.57
525.47	29118.60
525.64	29085.84
525.81	29432.24
525.98	29603.10
526.16	29289.46
526.33	29277.76
526.50	29715.44
526.67	29060.09
526.84	29476.71
527.01	29273.08
527.18	29724.80
527.36	29708.42
527.53	29947.15
527.70	30064.18
527.87	30066.52
528.04	30127.38
528.21	29914.39
528.38	29710.76
528.55	30089.93
528.72	30167.16
528.89	30022.05
529.07	30026.73
529.24	29797.36
529.41	30373.13
529.58	30000.99
529.75	30225.68
529.92	30064.18
530.09	30340.36
530.26	30356.75
530.43	30211.64
530.60	30546.33
530.77	30733.57
530.94	30625.91
531.11	30810.81
531.28	30305.26
531.46	30333.34
531.63	30426.96
531.80	30813.15
531.97	30899.75
532.14	31180.62
532.31	30398.88
532.48	30684.42
532.65	31267.22
532.82	30939.54
532.99	31126.78
533.16	31131.47
533.33	31248.49
533.50	31630.00
533.67	31168.91
533.84	31271.90
534.01	31611.28
534.18	31173.60
534.35	31491.91
534.52	31885.12
534.69	31667.45
534.86	31782.13
535.03	31852.35
535.20	31686.17
535.37	31704.90
535.54	31519.99
535.71	31618.30
535.88	31667.45
536.05	31964.70
536.22	32051.30
536.38	32039.59
536.55	31967.04
536.72	31847.67
536.89	32285.35
537.06	31864.05
537.23	32142.58
537.40	32531.11
537.57	32229.18
537.74	32011.51
537.91	32566.21
538.08	32718.35
538.25	32343.86
538.42	32224.50
538.59	32657.49
538.75	32304.07
538.92	32851.76
539.09	32699.62
539.26	32882.19
539.43	32961.76
539.60	32498.34
539.77	33088.15
539.94	33319.87
540.11	33184.12
540.28	33511.79
540.44	33043.68
540.61	32837.72
540.78	32966.45
540.95	32863.46
541.12	33659.24
541.29	33935.43
541.46	33516.47
541.62	33542.22
541.79	33406.47
541.96	33191.14
542.13	33434.55
542.30	33738.82
542.47	33626.48
542.63	33787.97
542.80	33354.97
542.97	33982.24
543.14	33909.68
543.31	34359.06
543.48	33680.31
543.64	33549.24
543.81	34349.70
543.98	33865.21
544.15	34375.45
544.32	34384.81
544.48	34366.09
544.65	33883.94
544.82	34382.47
544.99	33895.64
545.16	34691.42
545.32	34110.97
545.49	34885.68
545.66	35704.87
545.83	35386.56
546.00	35550.40
546.16	35105.70
546.33	34511.20
546.50	34515.88
546.67	34621.20
546.83	34260.76
547.00	34623.54
547.17	34700.78
547.34	34604.82
547.50	34719.51
547.67	34803.77
547.84	34998.03
548.00	34857.60
548.17	34948.88
548.34	34555.67
548.51	35063.57
548.67	35267.19
548.84	34581.42
549.01	34773.34
549.18	35012.07
549.34	34897.39
549.51	35047.18
549.68	35248.47
549.84	35185.27
550.01	35103.35
550.18	35283.58
550.34	35255.49
550.51	35325.71
550.68	35028.46
550.84	34632.91
551.01	35154.85
551.18	34948.88
551.34	35314.00
551.51	35016.75
551.68	35005.05
551.84	35566.78
552.01	35140.80
552.18	35590.19
552.34	35405.28
552.51	35573.80
552.68	35454.44
552.84	35292.94
553.01	35625.29
553.18	35351.45
553.34	35386.56
553.51	35475.50
553.67	35550.40
553.84	35889.77
554.01	35723.60
554.17	36238.51
554.34	35519.97
554.51	35482.52
554.67	36018.50
554.84	35723.60
555.00	35196.98
555.17	35854.67
555.33	35761.05
555.50	35524.65
555.67	35714.23
555.83	35622.95
556.00	35690.83
556.16	36456.18
556.33	35512.95
556.50	35786.79
556.66	36091.06
556.83	35758.70
556.99	36229.15
557.16	35910.84
557.32	36362.56
557.49	36130.85
557.65	35552.74
557.82	36109.78
557.98	35704.87
558.15	35913.18
558.32	35945.95
558.48	36168.30
558.65	36575.55
558.81	36212.77
558.98	36238.51
559.14	36222.13
559.31	35861.69
559.47	35871.05
559.64	36023.19
559.80	35985.74
559.97	36135.53
560.13	36147.23
560.30	36257.24
560.46	36362.56
560.63	36114.47
560.79	36685.56
560.96	36339.16
561.12	36187.02
561.29	35983.40
561.45	36367.24
561.61	36470.23
561.78	36694.92
561.94	36582.57
562.11	36369.58
562.27	36552.15
562.44	36350.86
562.60	36079.36
562.77	36507.68
562.93	36301.71
563.10	36680.88
563.26	36217.45
563.42	36774.50
563.59	36362.56
563.75	36322.77
563.92	36460.87
564.08	36484.27
564.24	36500.65
564.41	36666.83
564.57	36421.08
564.74	36428.10
564.90	36659.81
565.07	36610.66
565.23	36730.03
565.39	37024.93
565.56	37034.30
565.72	36435.12
565.88	36180.00
566.05	36404.69
566.21	36264.26
566.38	36524.06
566.54	36737.05
566.70	36488.95
566.87	37078.77
567.03	36400.01
567.19	37022.59
567.36	36390.65
567.52	36889.18
567.68	37158.34
567.85	36297.03
568.01	36807.26
568.17	36811.95
568.34	37357.29
568.50	36655.13
568.66	37266.01
568.83	37165.37
568.99	36519.38
569.15	36989.83
569.32	36226.81
569.48	36559.17
569.64	36760.45
569.81	37120.90
569.97	37109.19
570.13	37090.47
570.30	36346.18
570.46	36957.06
570.62	36935.99
570.78	36765.14
570.95	36732.37
571.11	36938.33
571.27	36774.50
571.43	36601.30
571.60	36914.93
571.76	36833.01
571.92	37034.30
572.09	36994.51
572.25	36898.55
572.41	37270.69
572.57	36683.22
572.74	37160.69
572.90	36804.92
573.06	36844.71
573.22	36739.39
573.38	36837.69
573.55	36638.75
573.71	37289.42
573.87	36624.70
574.03	36985.15
574.20	37027.28
574.36	36350.86
574.52	37376.01
574.68	37024.93
574.84	36968.76
575.01	37013.23
575.17	37216.86
575.33	36971.10
575.49	36802.58
575.65	37455.59
575.82	37193.45
575.98	37153.66
576.14	37338.57
576.30	37085.79
576.46	37364.31
576.62	37034.30
576.79	37270.69
576.95	37137.28
577.11	37111.53
577.27	37188.77
577.43	37516.45
577.59	37273.03
577.75	37015.57
577.92	36484.27
578.08	36943.02
578.24	36500.65
578.40	37294.10
578.56	37228.56
578.72	37572.62
578.88	37574.96
579.04	37476.66
579.21	37394.74
579.37	37043.66
579.53	37261.33
579.69	36748.75
579.85	37219.20
580.01	37233.24
580.17	36980.46
580.33	36996.85
580.49	37287.07
580.65	37806.67
580.82	37191.11
580.98	37446.23
581.14	37137.28
581.30	37507.08
581.46	36870.46
581.62	36957.06
581.78	36851.73
581.94	37017.91
582.10	37048.34
582.26	37268.35
582.42	36875.14
582.58	38141.37
582.74	37081.11
582.90	37130.26
583.06	37413.46
583.22	37099.83
583.38	37404.10
583.54	36931.31
583.70	36985.15
583.86	37029.62
584.02	37071.75
584.18	37427.51
584.34	37027.28
584.50	37221.54
584.66	37500.06
584.82	36622.36
584.98	36935.99
585.14	36966.42
585.30	37095.15
585.46	37310.48
585.62	37097.49
585.78	37120.90
585.94	37331.54
586.10	37649.86
586.26	36765.14
586.42	37422.83
586.58	37202.82
586.74	37570.28
586.90	37333.89
587.06	37200.47
587.22	37504.74
587.38	37120.90
587.54	37397.08
587.70	37610.07
587.86	37345.59
588.02	37399.42
588.18	37439.21
588.34	37338.57
588.49	37041.32
588.65	37041.32
588.81	37216.86
588.97	37022.59
589.13	36896.20
589.29	36821.31
589.45	37675.60
589.61	37333.89
589.77	37626.45
589.93	37876.89
590.08	37537.51
590.24	37123.24
590.40	37809.01
590.56	37539.85
590.72	37118.56
590.88	37368.99
591.04	37453.25
591.20	37825.40
591.35	38024.34
591.51	37589.00
591.67	37926.04
591.83	37488.36
591.99	37418.14
592.15	37603.05
592.31	37434.53
592.46	37420.48
592.62	37706.03
592.78	38054.77
592.94	37420.48
593.10	37525.81
593.26	37862.85
593.41	37872.21
593.57	37743.48
593.73	37312.82
593.89	37551.56
594.05	37619.43
594.20	37230.90
594.36	37371.33
594.52	37207.50
594.68	37481.34
594.84	37429.85
594.99	37715.39
595.15	37607.73
595.31	38129.67
595.47	37759.86
595.62	37706.03
595.78	37504.74
595.94	37312.82
596.10	37333.89
596.25	37357.29
596.41	36943.02
596.57	37413.46
596.73	37818.38
596.88	37603.05
597.04	37542.19
597.20	37745.82
597.36	37392.40
597.51	37638.15
597.67	37516.45
597.83	37584.32
597.99	37858.17
598.14	37450.91
598.30	37343.25
598.46	37474.32
598.61	37521.13
598.77	37523.47
598.93	37551.56
599.09	37818.38
599.24	38291.16
599.40	37542.19
599.56	37766.88
599.71	37743.48
599.87	37745.82
600.03	37703.69
600.18	37806.67
600.34	37589.00
600.50	37310.48
600.65	37743.48
600.81	38307.55
600.97	38064.13
601.12	37738.80
601.28	37811.35
601.44	37474.32
601.59	37750.50
601.75	37574.96
601.91	37413.46
602.06	37113.87
602.22	37296.44
602.37	37280.05
602.53	37420.48
602.69	37909.66
602.84	37050.68
603.00	37633.47
603.16	37383.04
603.31	37329.20
603.47	37680.28
603.62	36804.92
603.78	37139.62
603.94	37605.39
604.09	37450.91
604.25	37163.03
604.40	37130.26
604.56	37748.16
604.71	37773.91
604.87	37329.20
605.03	37144.30
605.18	37605.39
605.34	37675.60
605.49	36919.61
605.65	36926.63
605.80	37261.33
605.96	37041.32
606.12	36692.58
606.27	37343.25
606.43	36903.23
606.58	37418.14
606.74	37347.93
606.89	37240.26
607.05	37230.90
607.20	36985.15
607.36	37195.79
607.51	36931.31
607.67	36680.88
607.82	37081.11
607.98	36837.69
608.13	37156.00
608.29	36851.73
608.44	37027.28
608.60	37050.68
608.75	37172.39
608.91	37158.34
609.06	37104.51
609.22	37401.76
609.37	36760.45
609.53	37240.26
609.68	37055.36
609.84	37207.50
609.99	37116.22
610.15	37148.98
610.30	37336.23
610.46	37589.00
610.61	37731.78
610.76	37691.99
610.92	37844.12
611.07	38085.20
611.23	38394.15
611.38	37912.00
611.54	38054.77
611.69	37521.13
611.84	37684.97
612.00	37001.53
612.15	37301.12
612.31	37085.79
612.46	37205.16
612.62	37401.76
612.77	37092.81
612.92	37092.81
613.08	36896.20
613.23	36762.79
613.39	36917.27
613.54	37099.83
613.69	36835.35
613.85	36919.61
614.00	36503.00
614.15	36872.80
614.31	36715.98
614.46	36732.37
614.62	36828.33
614.77	36577.89
614.92	36636.41
615.08	36343.84
615.23	36739.39
615.38	36615.34
615.54	36280.64
615.69	36065.31
615.84	36065.31
616.00	36383.63
616.15	36196.38
616.30	36634.06
616.46	36252.56
616.61	36332.14
616.76	36503.00
616.92	36229.15
617.07	36304.05
617.22	36201.07
617.37	35995.10
617.53	36102.76
617.68	36065.31
617.83	35810.20
617.99	35807.86
618.14	36161.28
618.29	35475.50
618.45	35990.42
618.60	36177.66
618.75	35798.49
618.90	35674.45
619.06	35683.81
619.21	35667.42
619.36	35754.02
619.51	35765.73
619.67	35784.45
619.82	35964.67
619.97	36196.38
620.12	35421.67
620.28	35201.66
620.43	36009.14
620.58	35866.37
620.73	36053.61
620.89	35700.19
621.04	35852.33
621.19	35721.26
621.34	35470.82
621.49	35328.05
621.65	35959.99
621.80	35592.53
621.95	35140.80
622.10	35243.79
622.25	35512.95
622.41	35016.75
622.56	35103.35
622.71	35452.09
622.86	35384.22
623.01	35494.22
623.16	35314.00
623.32	35124.42
623.47	35321.02
623.62	35194.64
623.77	35447.41
623.92	35424.01
624.07	34932.50
624.23	35679.13
624.38	35363.15
624.53	35054.20
624.68	35335.07
624.83	35290.60
624.98	35028.46
625.13	34838.87
625.29	35260.17
625.44	35178.25
625.59	34885.68
625.74	34780.36
625.89	34841.21
626.04	34438.64
626.19	35040.16
626.34	34543.97
626.49	34953.56
626.65	34635.25
626.80	35140.80
626.95	34747.59
627.10	34658.65
627.25	34869.30
627.40	34295.87
627.55	34822.49
627.70	34389.49
627.85	34457.37
628.00	34401.19
628.15	34213.95
628.30	33949.47
628.45	34506.52
628.60	34314.59
628.76	34789.72
628.91	34796.74
629.06	34307.57
629.21	34499.50
629.36	34501.84
629.51	34258.42
629.66	34541.63
629.81	34246.72
629.96	34384.81
630.11	34529.92
630.26	34277.15
630.41	33968.19
630.56	34251.40
630.71	34380.13
630.86	34108.63
631.01	34136.71
631.16	34490.13
631.31	34361.40
631.46	33745.84
631.61	34555.67
631.76	33958.83
631.91	33942.45
632.06	33937.77
632.21	33930.75
632.36	33626.48
632.51	33521.15
632.66	33596.05
632.81	33717.76
632.96	33785.63
633.10	33312.84
633.25	33516.47
633.40	33514.13
633.55	33626.48
633.70	33881.60
633.85	33453.28
634.00	33418.17
634.15	33734.14
634.30	33582.01
634.45	33500.09
634.60	33614.77
634.75	33425.19
634.90	33551.58
635.05	33921.38
635.19	33411.15
635.34	33535.20
635.49	33553.92
635.64	33535.20
635.79	33141.99
635.94	33017.94
636.09	33237.95
636.24	33434.55
636.39	33488.38
636.53	33036.66
636.68	32734.73
636.83	32896.23
636.98	33202.84
637.13	33060.07
637.28	33572.64
637.43	33476.68
637.57	33518.81
637.72	33464.98
637.87	33369.02
638.02	33233.27
638.17	33139.65
638.32	32580.26
638.46	33130.28
638.61	32676.22
638.76	32861.12
638.91	32847.08
639.06	32439.82
639.20	32868.14
639.35	33099.86
639.50	32854.10
639.65	32982.83
639.80	32725.37
639.94	32512.38
640.09	32591.96
640.24	32907.93
640.39	32336.84
640.54	32290.03
640.68	32374.29
640.83	32254.92
640.98	32486.64
641.13	32048.96
641.27	32491.32
641.42	32180.03
641.57	32378.97
641.72	32676.22
641.86	32669.20
642.01	32306.41
642.16	32290.03
642.31	32421.10
642.45	32940.70
642.60	32259.60
642.75	31892.14
642.90	32198.75
643.04	32112.15
643.19	31800.86
643.34	32217.47
643.48	32154.28
643.63	32357.91
643.78	32243.22
643.93	32519.40
644.07	31990.44
644.22	32346.20
644.37	31974.06
644.51	31941.29
644.66	31938.95
644.81	32177.68
644.95	31976.40
645.10	31948.31
645.25	32107.47
645.39	31967.04
645.54	32531.11
645.69	32685.58
645.83	32198.75
645.98	32023.21
646.13	31882.78
646.27	32374.29
646.42	31667.45
646.57	31927.25
646.71	32229.18
646.86	31835.97
647.00	31903.84
647.15	31740.00
647.30	31704.90
647.44	31807.88
647.59	31810.22
647.74	31749.37
647.88	31613.62
648.03	32053.64
648.17	32084.06
648.32	31934.27
648.47	31772.77
648.61	31309.35
648.76	31337.43
648.90	31454.46
649.05	31833.63
649.20	31611.28
649.34	31693.19
649.49	31321.05
649.63	31566.81
649.78	31536.38
649.92	31356.16
650.07	31735.32
650.21	31360.84
650.36	31140.83
650.51	31358.50
650.65	31688.51
650.80	31489.57
650.94	31269.56
651.09	31133.81
651.23	31299.98
651.38	31220.41
651.52	30864.64
651.67	30953.58
651.81	31166.57
651.96	31129.12
652.10	31302.32
652.25	30923.16
652.39	31295.30
652.54	31557.44
652.68	30906.77
652.83	31087.00
652.97	31049.55
653.12	31367.86
653.26	30962.95
653.41	31103.38
653.55	30911.46
653.70	31061.25
653.84	30527.61
653.99	31187.64
654.13	30558.03
654.27	30710.17
654.42	30476.12
654.56	30532.29
654.71	30656.34
654.85	30789.75
655.00	30859.96
655.14	30654.00
655.29	30803.79
655.43	30710.17
655.57	30654.00
655.72	30593.14
655.86	30043.12
656.01	30118.01
656.15	30256.11
656.30	30270.15
656.44	30181.21
656.58	30349.73
656.73	30581.44
656.87	30721.87
657.01	30504.20
657.16	30644.63
657.30	30536.97
657.45	30499.52
657.59	30192.91
657.73	30281.85
657.88	29944.81
658.02	29900.34
658.16	30228.02
658.31	30029.07
658.45	29837.15
658.60	29982.26
658.74	30045.46
658.88	29710.76
659.03	29699.06
659.17	30071.20
659.31	29809.06
659.46	30167.16
659.60	30354.41
659.74	30080.56
659.89	29715.44
660.03	30129.72
660.17	29748.21
660.32	29275.42
660.46	29776.30
660.60	29371.38
660.74	29556.28
660.89	29237.97
661.03	28961.79
661.17	29397.13
661.32	29486.07
661.46	29125.63
661.60	29518.84
661.74	29296.49
661.89	29104.56
662.03	29263.72
662.17	29553.94
662.31	29336.27
662.46	29273.08
662.60	29076.48
662.74	28861.15
662.88	29188.82
663.03	28809.65
663.17	28797.95
663.31	28716.03
663.45	29013.28
663.60	28692.63
663.74	28474.96
663.88	28868.17
664.02	28971.15
664.17	29261.38
664.31	28690.29
664.45	28896.25
664.59	28755.82
664.73	28622.41
664.88	28629.43
665.02	28222.18
665.16	28570.92
665.30	28053.66
665.44	28486.66
665.59	28254.95
665.73	28229.20
665.87	28004.51
666.01	28231.54
666.15	28154.30
666.29	28357.93
666.44	28257.29
666.58	27894.50
666.72	28147.28
666.86	28093.45
667.00	27915.57
667.14	27620.66
667.28	28114.52
667.43	27491.93
667.57	28046.64
667.71	27424.06
667.85	27758.75
667.99	27475.55
668.13	27370.22
668.27	27426.40
668.41	27941.32
668.56	27515.34
668.70	27538.74
668.84	27332.78
668.98	27225.11
669.12	27405.33
669.26	27220.43
669.40	27281.28
669.54	27098.72
669.68	27229.79
669.82	26988.72
669.96	26679.77
670.10	26731.26
670.25	26862.33
670.39	26562.74
670.53	26747.64
670.67	26764.03
670.81	26874.03
670.95	26810.84
671.09	26562.74
671.23	26927.86
671.37	26794.45
671.51	26658.70
671.65	26492.52
671.79	26813.18
671.93	26511.25
672.07	26487.84
672.21	26398.90
672.35	25816.11
672.49	26263.15
672.63	25989.31
672.77	25949.52
672.91	25855.90
673.05	26031.44
673.19	26214.00
673.33	26279.54
673.47	26003.35
673.61	26008.03
673.75	25425.24
673.89	25940.16
674.03	25678.02
674.17	25874.62
674.31	25319.92
674.45	25507.16
674.59	25364.39
674.73	25207.57
674.87	25252.04
675.01	25493.12
675.15	25116.29
675.29	25013.31
675.43	24830.74
675.56	25219.27
675.70	25163.10
675.84	25069.48
675.98	24652.86
676.12	25212.25
676.26	24978.20
676.40	24821.38
676.54	24793.29
676.68	24671.59
676.82	24130.92
676.96	24482.00
677.10	24144.97
677.23	24292.42
677.37	24095.82
677.51	23953.04
677.65	24063.05
677.79	23707.29
677.93	24039.64
678.07	23885.17
678.21	23777.50
678.34	23817.29
678.48	23583.24
678.62	23456.85
678.76	23461.53
678.90	23484.94
679.04	22899.80
679.18	23562.17
679.31	23044.91
679.45	22675.11
679.59	22946.61
679.73	22862.35
679.87	22750.01
680.00	22752.35
680.14	22759.37
680.28	22693.83
680.42	22469.14
680.56	22342.75
680.70	22628.30
680.83	22632.98
680.97	22520.63
681.11	22574.47
681.25	22539.36
681.39	22380.20
681.52	22143.81
681.66	22274.88
681.80	22242.11
681.94	22092.32
682.07	22078.27
682.21	21982.31
682.35	21825.50
682.49	21664.00
682.62	22005.72
682.76	21322.28
682.90	21776.34
683.04	21418.24
683.17	21446.33
683.31	21085.89
683.45	21469.73
683.59	21429.94
683.72	21209.93
683.86	20854.17
684.00	21057.80
684.13	20741.83
684.27	20587.35
684.41	20889.28
684.55	20617.78
684.68	20479.69
684.82	20573.31
684.96	20688.00
685.09	20484.37
685.23	20577.99
685.37	20465.64
685.50	20407.13
685.64	20395.43
685.78	20219.89
685.91	20549.90
686.05	20161.37
686.19	20037.33
686.32	20112.22
686.46	19871.15
686.60	19536.45
686.73	19843.06
686.87	19845.40
687.01	19585.60
687.14	19379.64
687.28	19573.90
687.42	19002.81
687.55	19314.10
687.69	19075.37
687.82	19164.31
687.96	19283.67
688.10	19040.26
688.23	19293.04
688.37	18953.66
688.50	18965.36
688.64	19061.32
688.78	19087.07
688.91	18618.96
689.05	18649.39
689.18	18244.48
689.32	18080.64
689.46	17909.78
689.59	18064.25
689.73	18298.31
689.86	18125.11
690.00	17862.97
690.13	17802.11
690.27	18183.62
690.41	18174.26
690.54	17572.74
690.68	17778.71
690.81	17891.06
690.95	17631.26
691.08	18045.53
691.22	17458.06
691.35	17830.20
691.49	17481.46
691.62	17198.26
691.76	17326.99
691.89	17125.70
692.03	17193.58
692.16	17102.29
692.30	16954.84
692.43	17088.25
692.57	16882.28
692.70	17043.78
692.84	16893.99
692.97	16482.05
693.11	16727.81
693.24	16437.58
693.38	16418.86
693.51	16460.99
693.65	16608.44
693.78	16418.86
693.92	16460.99
694.05	16109.91
694.19	16145.02
694.32	16163.74
694.45	16114.59
694.59	15974.16
694.72	15719.04
694.86	15840.75
694.99	15625.42
695.13	15892.24
695.26	15569.24
695.39	15342.21
695.53	15941.39
695.66	15342.21
695.80	15604.35
695.93	15681.59
696.07	15386.68
696.20	15229.87
696.33	15627.76
696.47	15428.81
696.60	14984.11
696.73	15122.20
696.87	15012.20
697.00	15021.56
697.14	14745.38
697.27	14745.38
697.40	14525.36
697.54	14705.59
697.67	14300.67
697.80	14462.17
697.94	14188.33
698.07	14614.30
698.21	14321.74
698.34	14527.71
698.47	14431.74
698.61	14169.60
698.74	14185.99
698.87	14305.35
699.01	14052.58
699.14	14162.58
699.27	13844.27
699.40	13900.44
699.54	13671.07
699.67	13540.00
699.80	13537.66
699.94	13537.66
700.07	13280.20
700.20	13392.55
700.34	13291.90
700.47	13315.31
700.60	13383.18
700.73	13249.77
700.87	13231.05
701.00	13343.39
701.13	13163.17
701.26	13165.51
701.40	12931.46
701.53	12748.90
701.66	12886.99
701.79	12912.74
701.93	12746.56
702.06	12849.54
702.19	12631.87
702.32	12713.79
702.46	12552.29
702.59	12318.24
702.72	12255.04
702.85	12196.53
702.99	12299.52
703.12	12102.91
703.25	11988.22
703.38	12226.96
703.51	12187.17
703.65	11953.12
703.78	12109.93
703.91	12095.89
704.04	11882.90
704.17	11784.60
704.31	11651.19
704.44	11564.59
704.57	11639.48
704.70	11632.46
704.83	11637.14
704.96	11506.07
705.10	11328.19
705.23	11272.02
>>>>>End Processed Spectral Data<<<<<
