SpectraSuite Data File
++++++++++++++++++++++++++++++++++++
Date: Fri Oct 04 11:39:33 GMT-05:00 2013
User: price-jones
Dark Spectrum Present: No
Reference Spectrum Present: No
Number of Sampled Component Spectra: 1
Spectrometers: USB2+H05261
Integration Time (usec): 100000 (USB2+H05261)
Spectra Averaged: 1 (USB2+H05261)
Boxcar Smoothing: 0 (USB2+H05261)
Correct for Electrical Dark: No (USB2+H05261)
Strobe/Lamp Enabled: No (USB2+H05261)
Correct for Detector Non-linearity: No (USB2+H05261)
Correct for Stray Light: No (USB2+H05261)
Number of Pixels in Processed Spectrum: 2048
>>>>>Begin Processed Spectral Data<<<<<
365.73	0.00
365.92	0.00
366.12	0.00
366.32	0.00
366.52	0.00
366.72	0.00
366.91	0.00
367.11	63.19
367.31	0.00
367.51	0.00
367.70	0.00
367.90	0.00
368.10	0.00
368.30	0.00
368.49	0.00
368.69	0.00
368.89	0.00
369.09	0.00
369.28	0.00
369.48	0.00
369.68	0.00
369.87	11.70
370.07	42.13
370.27	32.77
370.47	70.22
370.66	126.39
370.86	152.13
371.06	205.97
371.25	161.50
371.45	126.39
371.65	184.90
371.84	236.39
372.04	168.52
372.24	198.95
372.44	161.50
372.63	166.18
372.83	241.08
373.03	175.54
373.22	241.08
373.42	187.24
373.62	241.08
373.81	212.99
374.01	304.27
374.21	285.55
374.40	229.37
374.60	262.14
374.79	259.80
374.99	229.37
375.19	292.57
375.38	252.78
375.58	266.82
375.78	285.55
375.97	290.23
376.17	383.85
376.37	283.20
376.56	325.33
376.76	184.90
376.95	189.58
377.15	222.35
377.35	243.42
377.54	276.18
377.74	238.73
377.93	255.12
378.13	245.76
378.33	393.21
378.52	297.25
378.72	285.55
378.91	278.52
379.11	257.46
379.31	327.68
379.50	290.23
379.70	269.16
379.89	276.18
380.09	243.42
380.28	255.12
380.48	287.89
380.68	334.70
380.87	262.14
381.07	241.08
381.26	259.80
381.46	339.38
381.65	320.65
381.85	227.03
382.04	299.59
382.24	388.53
382.43	355.76
382.63	294.91
382.83	259.80
383.02	283.20
383.22	318.31
383.41	290.23
383.61	360.44
383.80	297.25
384.00	327.68
384.19	334.70
384.39	287.89
384.58	304.27
384.78	318.31
384.97	315.97
385.17	292.57
385.36	285.55
385.56	322.99
385.75	313.63
385.95	285.55
386.14	353.42
386.34	351.08
386.53	351.08
386.72	313.63
386.92	297.25
387.11	306.61
387.31	334.70
387.50	334.70
387.70	337.04
387.89	327.68
388.09	344.06
388.28	421.30
388.48	339.38
388.67	458.74
388.86	402.57
389.06	353.42
389.25	423.64
389.45	322.99
389.64	365.12
389.84	423.64
390.03	353.42
390.22	404.91
390.42	454.06
390.61	374.49
390.81	390.87
391.00	365.12
391.19	416.62
391.39	388.53
391.58	461.09
391.78	510.24
391.97	468.11
392.16	416.62
392.36	437.68
392.55	456.40
392.75	458.74
392.94	477.47
393.13	435.34
393.33	456.40
393.52	425.98
393.71	498.53
393.91	433.00
394.10	468.11
394.29	493.85
394.49	486.83
394.68	503.22
394.88	512.58
395.07	543.00
395.26	479.81
395.46	587.47
395.65	535.98
395.84	505.56
396.04	617.90
396.23	484.49
396.42	437.68
396.62	552.37
396.81	538.32
397.00	643.65
397.19	585.13
397.39	617.90
397.58	531.30
397.77	512.58
397.97	697.48
398.16	592.16
398.35	610.88
398.55	620.24
398.74	580.45
398.93	657.69
399.12	704.50
399.32	709.18
399.51	645.99
399.70	802.80
399.90	683.44
400.09	669.39
400.28	746.63
400.47	620.24
400.67	748.97
400.86	643.65
401.05	732.59
401.24	688.12
401.44	791.10
401.63	800.46
401.82	898.77
402.01	763.01
402.21	704.50
402.40	737.27
402.59	678.76
402.78	819.19
402.97	795.78
403.17	856.64
403.36	877.70
403.55	863.66
403.74	791.10
403.93	938.55
404.13	947.92
404.32	938.55
404.51	795.78
404.70	978.34
404.89	912.81
405.09	929.19
405.28	1013.45
405.47	957.28
405.66	980.68
405.85	1144.52
406.05	961.96
406.24	964.30
406.43	1015.79
406.62	1093.03
406.81	1203.04
407.00	1123.46
407.20	1111.75
407.39	1071.97
407.58	1153.88
407.77	1181.97
407.96	1107.07
408.15	1193.67
408.34	1203.04
408.54	1210.06
408.73	1196.01
408.92	1224.10
409.11	1254.53
409.30	1228.78
409.49	1284.95
409.68	1254.53
409.87	1296.66
410.07	1392.62
410.26	1380.92
410.45	1390.28
410.64	1371.55
410.83	1371.55
411.02	1465.18
411.21	1444.11
411.40	1444.11
411.59	1488.58
411.78	1453.47
411.98	1448.79
412.17	1579.86
412.36	1467.52
412.55	1483.90
412.74	1528.37
412.93	1671.14
413.12	1614.97
413.31	1767.10
413.50	1689.87
413.69	1659.44
413.88	1802.21
414.07	1746.04
414.26	1727.32
414.45	1790.51
414.64	1888.81
414.83	1923.92
415.02	1856.04
415.22	1851.36
415.41	1898.17
415.60	2015.20
415.79	1989.46
415.98	2146.27
416.17	1973.07
416.36	2040.95
416.55	1973.07
416.74	2066.69
416.93	2113.50
417.12	2036.27
417.31	2115.84
417.50	2132.23
417.69	2289.04
417.88	2209.47
418.07	2167.34
418.26	2207.13
418.45	2249.25
418.64	2366.28
418.83	2338.20
419.02	2319.47
419.21	2370.96
419.39	2462.24
419.58	2373.30
419.77	2270.32
419.96	2424.80
420.15	2473.95
420.34	2492.67
420.53	2434.16
420.72	2504.37
420.91	2583.95
421.10	2483.31
421.29	2614.38
421.48	2532.46
421.67	2525.44
421.86	2588.63
422.05	2565.23
422.24	2593.31
422.43	2590.97
422.61	2677.57
422.80	2775.88
422.99	2696.30
423.18	2644.81
423.37	2808.64
423.56	2747.79
423.75	2668.21
423.94	2665.87
424.13	2530.12
424.32	2583.95
424.50	2864.82
424.69	2717.36
424.88	2803.96
425.07	2705.66
425.26	2773.53
425.45	2799.28
425.64	2818.00
425.83	2766.51
426.01	2708.00
426.20	2808.64
426.39	2771.19
426.58	2810.98
426.77	2766.51
426.96	2764.17
427.15	2775.88
427.33	2796.94
427.52	2839.07
427.71	2949.08
427.90	2801.62
428.09	2967.80
428.28	2885.88
428.46	2878.86
428.65	2993.55
428.84	3009.93
429.03	3133.98
429.22	2843.75
429.40	3026.31
429.59	3094.19
429.78	2888.22
429.97	3012.27
430.16	3061.42
430.34	3108.23
430.53	3171.43
430.72	3105.89
430.91	3150.36
431.10	3290.79
431.28	3304.84
431.47	3290.79
431.66	3251.00
431.85	3131.64
432.03	3288.45
432.22	3370.37
432.41	3300.16
432.60	3400.80
432.79	3314.20
432.97	3325.90
433.16	3344.63
433.35	3375.05
433.54	3269.73
433.72	3487.40
433.91	3307.18
434.10	3449.95
434.28	3328.24
434.47	3503.78
434.66	3520.17
434.85	3407.82
435.03	3662.94
435.22	3756.56
435.41	4023.38
435.59	4007.00
435.78	3786.99
435.97	3651.24
436.16	3761.24
436.34	3712.09
436.53	3747.20
436.72	3763.58
436.90	3634.85
437.09	3669.96
437.28	3651.24
437.46	3742.52
437.65	3747.20
437.84	3775.28
438.02	3782.31
438.21	3709.75
438.40	3714.43
438.58	3887.63
438.77	4007.00
438.96	4007.00
439.14	3925.08
439.33	3929.76
439.52	3999.98
439.70	4147.43
439.89	4074.87
440.08	4014.02
440.26	4058.49
440.45	4049.13
440.63	4236.37
440.82	4231.69
441.01	4161.47
441.19	4271.48
441.38	4189.56
441.57	4346.37
441.75	4292.54
441.94	4409.57
442.12	4444.68
442.31	4594.47
442.50	4477.44
442.68	4505.53
442.87	4540.64
443.05	4606.17
443.24	4540.64
443.43	4571.07
443.61	4484.47
443.80	4660.01
443.98	4664.69
444.17	4526.60
444.35	4667.03
444.54	4634.26
444.73	4655.33
444.91	4620.22
445.10	4648.30
445.28	4723.20
445.47	4592.13
445.65	4479.79
445.84	4582.77
446.02	4573.41
446.21	4592.13
446.39	4608.51
446.58	4678.73
446.77	4718.52
446.95	4617.88
447.14	4690.43
447.32	4777.03
447.51	4660.01
447.69	4739.58
447.88	4685.75
448.06	4713.84
448.25	4793.42
448.43	4802.78
448.62	4748.95
448.80	4957.25
448.99	4891.72
449.17	4973.64
449.36	4877.68
449.54	4954.91
449.73	4912.78
449.91	4947.89
450.10	5118.75
450.28	5125.77
450.46	5053.22
450.65	5020.45
450.83	5055.56
451.02	5114.07
451.20	5067.26
451.39	4987.68
451.57	5153.86
451.76	5069.60
451.94	5184.29
452.13	5226.42
452.31	5174.92
452.49	5179.61
452.68	5146.84
452.86	5322.38
453.05	5167.90
453.23	5254.50
453.42	5289.61
453.60	5088.32
453.78	5364.51
453.97	5301.31
454.15	5343.44
454.34	5289.61
454.52	5483.88
454.70	5369.19
454.89	5287.27
455.07	5329.40
455.26	5535.37
455.44	5453.45
455.62	5369.19
455.81	5645.37
455.99	5741.33
456.17	5509.62
456.36	5645.37
456.54	5530.69
456.73	5619.63
456.91	5930.92
457.09	5746.02
457.28	5872.40
457.46	5715.59
457.64	5790.49
457.83	5856.02
458.01	5603.24
458.19	5877.09
458.38	5769.42
458.56	5991.77
458.74	5891.13
458.93	6012.84
459.11	6115.82
459.29	5961.34
459.48	5944.96
459.66	6003.47
459.84	5954.32
460.03	6150.93
460.21	6076.03
460.39	6080.71
460.57	5870.06
460.76	6106.46
460.94	6146.25
461.12	6160.29
461.31	6296.04
461.49	6115.82
461.67	6118.16
461.85	6253.91
462.04	6319.45
462.22	6558.18
462.40	6431.79
462.59	6340.51
462.77	6356.90
462.95	6658.82
463.13	6312.42
463.32	6469.24
463.50	6555.84
463.68	6417.75
463.86	6553.50
464.05	6497.33
464.23	6487.96
464.41	6651.80
464.59	6370.94
464.78	6558.18
464.96	6410.73
465.14	6473.92
465.32	6574.56
465.50	6616.69
465.69	6689.25
465.87	6595.63
466.05	6656.48
466.23	6576.91
466.41	6876.49
466.60	6972.46
466.78	6867.13
466.96	6649.46
467.14	6595.63
467.32	6782.87
467.51	6942.03
467.69	6717.34
467.87	6726.70
468.05	6895.22
468.23	6817.98
468.41	6944.37
468.60	7087.14
468.78	7035.65
468.96	6927.99
469.14	7047.35
469.32	7023.95
469.50	6832.02
469.69	7183.10
469.87	7143.32
470.05	7239.28
470.23	7234.60
470.41	7019.27
470.59	7171.40
470.77	7222.89
470.95	7335.24
471.14	7389.07
471.32	7309.49
471.50	7538.87
471.68	7566.95
471.86	7679.30
472.04	7637.17
472.22	7723.77
472.40	7398.43
472.58	7571.63
472.77	7728.45
472.95	7637.17
473.13	8013.99
473.31	7730.79
473.49	7695.68
473.67	7791.64
473.85	7817.39
474.03	8079.53
474.21	7889.95
474.39	7934.42
474.57	8107.62
474.75	8196.56
474.93	8198.90
475.12	8086.55
475.30	8257.41
475.48	8327.63
475.66	8318.26
475.84	8114.64
476.02	8468.06
476.20	8386.14
476.38	8697.43
476.56	8718.50
476.74	8791.05
476.92	8711.47
477.10	8814.46
477.28	8943.19
477.46	8662.32
477.64	8905.74
477.82	9123.41
478.00	9453.42
478.18	9193.62
478.36	9284.91
478.54	9357.46
478.72	9392.57
478.90	9502.58
479.08	9495.55
479.26	9423.00
479.44	9792.80
479.62	9912.17
479.80	9764.72
479.98	9912.17
480.16	10047.92
480.34	9912.17
480.52	9975.36
480.70	10211.76
480.88	10139.20
481.06	10289.00
481.24	10223.46
481.41	10553.48
481.59	10441.13
481.77	10586.24
481.95	10628.37
482.13	10775.83
482.31	10597.95
482.49	10888.17
482.67	11014.56
482.85	11194.78
483.03	11274.36
483.21	11293.08
483.39	11524.80
483.57	11293.08
483.74	11489.69
483.92	11683.95
484.10	11346.92
484.28	11702.68
484.46	11934.39
484.64	12119.29
484.82	11815.02
485.00	12128.66
485.18	12351.01
485.35	12514.84
485.53	12341.64
485.71	12512.50
485.89	12716.13
486.07	12622.51
486.25	12683.36
486.43	12769.96
486.61	12692.73
486.78	12980.61
486.96	13156.15
487.14	13055.51
487.32	13195.94
487.50	13626.60
487.68	13673.41
487.85	13741.29
488.03	13760.01
488.21	13937.89
488.39	14136.84
488.57	13811.50
488.75	14171.94
488.92	14363.87
489.10	14396.64
489.28	14420.04
489.46	14731.33
489.64	14562.81
489.81	14806.23
489.99	14899.85
490.17	14967.73
490.35	15363.28
490.53	15325.83
490.70	15414.77
490.88	15466.26
491.06	15585.63
491.24	15585.63
491.41	15393.70
491.59	15552.86
491.77	15747.12
491.95	16013.95
492.13	15908.62
492.30	15922.66
492.48	15810.32
492.66	16177.78
492.84	16292.47
493.01	16739.51
493.19	16702.06
493.37	16697.38
493.54	16975.91
493.72	16739.51
493.90	17015.69
494.08	17343.37
494.25	17326.99
494.43	17334.01
494.61	17252.09
494.79	17483.80
494.96	17488.48
495.14	17748.28
495.32	17757.64
495.49	17895.74
495.67	17820.84
495.85	18075.96
496.02	18251.50
496.20	18501.93
496.38	18190.64
496.55	18249.16
496.73	18703.22
496.91	18420.02
497.09	18850.67
497.26	18810.89
497.44	18876.42
497.62	18948.98
497.79	18967.70
497.97	18963.02
498.14	19208.78
498.32	19138.56
498.50	19672.20
498.67	19740.08
498.85	19332.82
499.03	19496.66
499.20	19901.58
499.38	19775.19
499.56	20437.56
499.73	20191.80
499.91	20297.13
500.08	20276.06
500.26	20102.86
500.44	20121.59
500.61	20362.66
500.79	20105.20
500.97	20524.16
501.14	20748.85
501.32	20507.77
501.49	20568.63
501.67	20678.63
501.84	20575.65
502.02	20847.15
502.20	20748.85
502.37	21221.64
502.55	21036.74
502.72	21081.21
502.90	21301.22
503.07	21027.37
503.25	21296.53
503.43	21537.61
503.60	21598.46
503.78	21387.82
503.95	21848.90
504.13	21617.19
504.30	21869.97
504.48	21467.39
504.65	22120.40
504.83	21778.68
505.01	22218.71
505.18	22263.18
505.36	22099.34
505.53	22029.12
505.71	21984.65
505.88	22188.28
506.06	22295.94
506.23	22497.23
506.41	22478.50
506.58	22867.03
506.76	23051.94
506.93	22429.35
507.11	22834.27
507.28	22707.88
507.46	23058.96
507.63	23250.88
507.81	23365.57
507.98	22988.74
508.16	23267.27
508.33	23400.68
508.50	23241.52
508.68	23728.35
508.85	23690.90
509.03	23536.43
509.20	23948.36
509.38	23964.75
509.55	24046.66
509.73	24084.11
509.90	24081.77
510.08	24147.31
510.25	24229.23
510.42	24308.80
510.60	24400.08
510.77	24620.10
510.95	24503.07
511.12	24411.79
511.30	24273.70
511.47	24931.39
511.64	25006.28
511.82	25165.44
511.99	24842.45
512.17	25118.63
512.34	25179.48
512.51	25745.89
512.69	25355.02
512.86	25280.13
513.04	25326.94
513.21	25144.38
513.38	25329.28
513.56	25523.54
513.73	25577.37
513.90	25708.44
514.08	25298.85
514.25	25696.74
514.43	26047.82
514.60	25565.67
514.77	26103.99
514.95	26103.99
515.12	26129.74
515.29	25708.44
515.47	26305.28
515.64	26059.52
515.81	26167.19
515.99	26806.16
516.16	26532.31
516.33	26726.58
516.51	26623.59
516.68	26499.55
516.85	26511.25
517.03	26457.42
517.20	26630.62
517.37	26527.63
517.54	26731.26
517.72	26621.25
517.89	27012.12
518.06	27154.90
518.24	26920.84
518.41	27157.24
518.58	27218.09
518.75	27541.08
518.93	27548.11
519.10	27292.99
519.27	27426.40
519.45	27166.60
519.62	27321.07
519.79	27901.53
519.96	27814.93
520.14	27620.66
520.31	27494.27
520.48	27868.76
520.65	27908.55
520.83	28191.75
521.00	28259.63
521.17	28137.92
521.34	28027.92
521.52	28371.97
521.69	28306.44
521.86	28442.19
522.03	28364.95
522.20	28601.35
522.38	28631.77
522.55	28474.96
522.72	28811.99
522.89	28837.74
523.07	28954.77
523.24	28730.08
523.41	29184.14
523.58	28856.46
523.75	29226.27
523.92	28856.46
524.10	29048.39
524.27	29172.44
524.44	29188.82
524.61	29717.78
524.78	29586.71
524.96	29317.55
525.13	29788.00
525.30	29621.82
525.47	30050.14
525.64	29364.36
525.81	29544.58
525.98	29692.04
526.16	29944.81
526.33	29727.14
526.50	29738.85
526.67	30127.38
526.84	29727.14
527.01	29851.19
527.18	30183.55
527.36	30345.05
527.53	30300.58
527.70	30618.89
527.87	30354.41
528.04	30441.01
528.21	30202.27
528.38	30132.06
528.55	30485.48
528.72	30766.34
528.89	30672.72
529.07	30705.49
529.24	30464.41
529.41	30766.34
529.58	30625.91
529.75	30581.44
529.92	30885.71
530.09	31426.37
530.26	31084.65
530.43	30897.41
530.60	30670.38
530.77	31005.08
530.94	30785.07
531.11	30862.30
531.28	30967.63
531.46	31295.30
531.63	31447.44
531.80	31267.22
531.97	31157.21
532.14	31672.13
532.31	31285.94
532.48	31484.89
532.65	31555.10
532.82	31463.82
532.99	31608.93
533.16	31257.85
533.33	31711.92
533.50	31885.12
533.67	31803.20
533.84	31527.02
534.01	31742.35
534.18	31842.99
534.35	32165.98
534.52	31723.62
534.69	32142.58
534.86	32481.95
535.03	32198.75
535.20	32198.75
535.37	32058.32
535.54	31943.63
535.71	32428.12
535.88	32233.86
536.05	32769.84
536.22	32620.05
536.38	33046.02
536.55	32243.22
536.72	32608.34
536.89	32519.40
537.06	32243.22
537.23	32545.15
537.40	32463.23
537.57	33013.26
537.74	33275.40
537.91	32818.99
538.08	33062.41
538.25	32500.68
538.42	32992.19
538.59	33118.58
538.75	32701.96
538.92	32809.63
539.09	33130.28
539.26	33181.77
539.43	32868.14
539.60	33347.95
539.77	33514.13
539.94	33605.41
540.11	33507.11
540.28	33476.68
540.44	33645.20
540.61	33443.91
540.78	33607.75
540.95	33670.95
541.12	33675.63
541.29	33771.59
541.46	33582.01
541.62	34132.03
541.79	33975.22
541.96	33848.83
542.13	33926.07
542.30	34204.59
542.47	34019.69
542.63	34394.17
542.80	34195.23
542.97	34609.50
543.14	34632.91
543.31	34637.59
543.48	34129.69
543.64	34890.37
543.81	34450.35
543.98	34843.56
544.15	34890.37
544.32	34958.24
544.48	34934.84
544.65	34899.73
544.82	34859.94
544.99	34284.17
545.16	34925.47
545.32	35093.99
545.49	35374.86
545.66	36018.50
545.83	36027.87
546.00	36257.24
546.16	35157.19
546.33	34913.77
546.50	34972.28
546.67	34621.20
546.83	34572.05
547.00	35054.20
547.17	35056.54
547.34	35239.11
547.50	35480.18
547.67	35639.34
547.84	35023.78
548.00	35241.45
548.17	35297.62
548.34	35409.96
548.51	35353.79
548.67	35629.98
548.84	35690.83
549.01	35314.00
549.18	35360.81
549.34	35496.56
549.51	35189.95
549.68	35515.29
549.84	35070.59
550.01	35578.48
550.18	35477.84
550.34	35573.80
550.51	35695.51
550.68	35857.01
550.84	35550.40
551.01	35531.67
551.18	35386.56
551.34	35473.16
551.51	35557.42
551.68	36072.34
551.84	36067.66
552.01	35847.64
552.18	36184.68
552.34	35941.27
552.51	35997.44
552.68	35339.75
552.84	35641.68
553.01	36004.46
553.18	35655.72
553.34	36151.91
553.51	36126.17
553.67	36320.43
553.84	35906.16
554.01	36261.92
554.17	36374.27
554.34	36259.58
554.51	36107.44
554.67	36236.17
554.84	36563.85
555.00	36135.53
555.17	36278.30
555.33	36392.99
555.50	36210.43
555.67	35922.54
555.83	36226.81
556.00	35943.61
556.16	36739.39
556.33	36362.56
556.50	36041.91
556.66	36582.57
556.83	36392.99
556.99	36545.12
557.16	36418.74
557.32	36708.96
557.49	36421.08
557.65	35852.33
557.82	36807.26
557.98	36285.33
558.15	36252.56
558.32	36938.33
558.48	36187.02
558.65	36620.02
558.81	36404.69
558.98	36718.32
559.14	36657.47
559.31	36252.56
559.47	36694.92
559.64	36329.80
559.80	36718.32
559.97	36800.24
560.13	36582.57
560.30	36851.73
560.46	36739.39
560.63	36666.83
560.79	36739.39
560.96	36980.46
561.12	36641.09
561.29	36783.86
561.45	36720.66
561.61	36692.58
561.78	36896.20
561.94	36694.92
562.11	37287.07
562.27	36603.64
562.44	37074.09
562.60	36603.64
562.77	36837.69
562.93	36725.35
563.10	37413.46
563.26	36851.73
563.42	37109.19
563.59	37200.47
563.75	37305.80
563.92	37429.85
564.08	36943.02
564.24	37273.03
564.41	37043.66
564.57	36720.66
564.74	36641.09
564.90	37160.69
565.07	36959.40
565.23	37280.05
565.39	36954.72
565.56	37003.87
565.72	36739.39
565.88	36950.04
566.05	37146.64
566.21	36847.05
566.38	36732.37
566.54	36926.63
566.70	37486.02
566.87	37102.17
567.03	37024.93
567.19	37532.83
567.36	37113.87
567.52	37038.98
567.68	37268.35
567.85	37041.32
568.01	36804.92
568.17	37371.33
568.34	37404.10
568.50	36957.06
568.66	37521.13
568.83	37078.77
568.99	37118.56
569.15	37268.35
569.32	36982.80
569.48	36907.91
569.64	37401.76
569.81	37174.73
569.97	37024.93
570.13	37308.14
570.30	36910.25
570.46	37198.13
570.62	37483.68
570.78	37228.56
570.95	36935.99
571.11	37240.26
571.27	36861.10
571.43	37102.17
571.60	37476.66
571.76	37146.64
571.92	36779.18
572.09	37691.99
572.25	37668.58
572.41	37553.90
572.57	37170.05
572.74	37099.83
572.90	37699.01
573.06	37165.37
573.22	36994.51
573.38	37254.31
573.55	37186.43
573.71	37476.66
573.87	37687.31
574.03	37434.53
574.20	37720.07
574.36	36921.95
574.52	37291.76
574.68	37474.32
574.84	37099.83
575.01	37596.03
575.17	37729.44
575.33	37858.17
575.49	37207.50
575.65	37242.60
575.82	37497.72
575.98	37404.10
576.14	37186.43
576.30	37277.71
576.46	37359.63
576.62	36996.85
576.79	37673.26
576.95	37193.45
577.11	37631.13
577.27	37350.27
577.43	37146.64
577.59	37312.82
577.75	37144.30
577.92	36950.04
578.08	37181.75
578.24	36730.03
578.40	37046.00
578.56	37813.70
578.72	37504.74
578.88	37694.33
579.04	37720.07
579.21	37684.97
579.37	37654.54
579.53	37687.31
579.69	37429.85
579.85	37504.74
580.01	37577.30
580.17	37097.49
580.33	37661.56
580.49	37560.92
580.65	37713.05
580.82	37558.58
580.98	37736.46
581.14	37212.18
581.30	37743.48
581.46	37273.03
581.62	37509.43
581.78	36816.63
581.94	37759.86
582.10	37116.22
582.26	37350.27
582.42	37684.97
582.58	37804.33
582.74	37783.27
582.90	37628.79
583.06	37743.48
583.22	37352.61
583.38	38036.05
583.54	37228.56
583.70	37345.59
583.86	37654.54
584.02	37160.69
584.18	37897.95
584.34	37411.12
584.50	37694.33
584.66	37666.24
584.82	37507.08
584.98	37574.96
585.14	37392.40
585.30	36978.12
585.46	37394.74
585.62	37448.57
585.78	37516.45
585.94	37464.96
586.10	37495.38
586.26	37673.26
586.42	37851.14
586.58	37617.09
586.74	37820.72
586.90	37626.45
587.06	37350.27
587.22	37921.36
587.38	37436.87
587.54	37972.85
587.70	37759.86
587.86	37640.50
588.02	38066.47
588.18	37624.11
588.34	37893.27
588.49	37771.57
588.65	37170.05
588.81	37427.51
588.97	37806.67
589.13	37509.43
589.29	37226.22
589.45	37530.49
589.61	37972.85
589.77	38007.96
589.93	37904.98
590.08	37778.59
590.24	37799.65
590.40	38029.02
590.56	38012.64
590.72	37448.57
590.88	37727.10
591.04	37357.29
591.20	38185.84
591.35	38094.56
591.51	37923.70
591.67	37923.70
591.83	37727.10
591.99	37610.07
592.15	37998.60
592.31	37951.79
592.46	37956.47
592.62	37715.39
592.78	37621.77
592.94	37956.47
593.10	37677.94
593.26	38078.18
593.41	37984.55
593.57	38082.86
593.73	38150.73
593.89	38223.29
594.05	37837.10
594.20	37553.90
594.36	37783.27
594.52	37418.14
594.68	37535.17
594.84	37509.43
594.99	37909.66
595.15	37834.76
595.31	38288.82
595.47	37923.70
595.62	38071.15
595.78	37701.35
595.94	37844.12
596.10	37308.14
596.25	37471.98
596.41	37806.67
596.57	37315.16
596.73	37741.14
596.88	37724.75
597.04	37853.48
597.20	37771.57
597.36	38019.66
597.51	37928.38
597.67	37879.23
597.83	37516.45
597.99	37998.60
598.14	37673.26
598.30	38014.98
598.46	37280.05
598.61	37640.50
598.77	36903.23
598.93	37645.18
599.09	37937.74
599.24	38108.60
599.40	38136.69
599.56	37706.03
599.71	38064.13
599.87	38014.98
600.03	37881.57
600.18	37769.22
600.34	37778.59
600.50	37673.26
600.65	37895.61
600.81	38167.12
600.97	38045.41
601.12	37766.88
601.28	38150.73
601.44	37537.51
601.59	37806.67
601.75	37876.89
601.91	37940.08
602.06	37766.88
602.22	37563.26
602.37	37488.36
602.53	37537.51
602.69	37804.33
602.84	37780.93
603.00	37340.91
603.16	37694.33
603.31	37668.58
603.47	37656.88
603.62	37661.56
603.78	37661.56
603.94	37654.54
604.09	37640.50
604.25	37755.18
604.40	37596.03
604.56	37982.21
604.71	37809.01
604.87	37743.48
605.03	37996.26
605.18	37731.78
605.34	37553.90
605.49	37406.44
605.65	37401.76
605.80	37172.39
605.96	37507.08
606.12	37397.08
606.27	37624.11
606.43	37462.61
606.58	38003.28
606.74	37476.66
606.89	38029.02
607.05	37689.65
607.20	37731.78
607.36	36879.82
607.51	37544.53
607.67	37078.77
607.82	37572.62
607.98	36980.46
608.13	37113.87
608.29	37163.03
608.44	37233.24
608.60	37455.59
608.75	37694.33
608.91	37689.65
609.06	37319.84
609.22	37684.97
609.37	36886.84
609.53	37294.10
609.68	37806.67
609.84	36952.38
609.99	37523.47
610.15	37195.79
610.30	37752.84
610.46	37661.56
610.61	37951.79
610.76	37734.12
610.92	38330.95
611.07	38450.32
611.23	38415.21
611.38	38213.93
611.54	37759.86
611.69	37216.86
611.84	37364.31
612.00	37090.47
612.15	37394.74
612.31	37294.10
612.46	37013.23
612.62	37296.44
612.77	37289.42
612.92	37474.32
613.08	36980.46
613.23	36858.76
613.39	36641.09
613.54	37036.64
613.69	36928.97
613.85	36465.55
614.00	36774.50
614.15	36952.38
614.31	36456.18
614.46	37378.36
614.62	37345.59
614.77	36840.03
614.92	36978.12
615.08	36706.62
615.23	36617.68
615.38	36615.34
615.54	36114.47
615.69	36542.78
615.84	36226.81
616.00	36690.24
616.15	36044.25
616.30	36519.38
616.46	36634.06
616.61	36718.32
616.76	36760.45
616.92	36109.78
617.07	36687.90
617.22	36182.34
617.37	35639.34
617.53	36332.14
617.68	36011.48
617.83	35824.24
617.99	36465.55
618.14	36161.28
618.29	36313.41
618.45	36306.39
618.60	36140.21
618.75	36037.23
618.90	36154.26
619.06	36191.70
619.21	35889.77
619.36	35868.71
619.51	35894.46
619.67	35772.75
619.82	35613.59
619.97	35967.01
620.12	35388.90
620.28	35894.46
620.43	36304.05
620.58	35943.61
620.73	36053.61
620.89	36254.90
621.04	35782.11
621.19	35878.07
621.34	35592.53
621.49	35887.43
621.65	35606.57
621.80	36086.38
621.95	35519.97
622.10	35995.10
622.25	35522.31
622.41	35285.92
622.56	35421.67
622.71	35510.61
622.86	35651.04
623.01	35414.65
623.16	35454.44
623.32	35555.08
623.47	35679.13
623.62	35030.80
623.77	35173.57
623.92	35098.67
624.07	35370.18
624.23	35386.56
624.38	35494.22
624.53	35328.05
624.68	35711.89
624.83	35335.07
624.98	35356.13
625.13	35367.84
625.29	35564.44
625.44	34958.24
625.59	35070.59
625.74	35189.95
625.89	34660.99
626.04	34735.89
626.19	35124.42
626.34	34749.93
626.49	35047.18
626.65	35061.22
626.80	35047.18
626.95	34911.43
627.10	34590.78
627.25	34644.61
627.40	34873.98
627.55	34576.73
627.70	34293.53
627.85	34642.27
628.00	34471.41
628.15	34361.40
628.30	34321.62
628.45	34822.49
628.60	34485.45
628.76	35051.86
628.91	34714.83
629.06	34960.58
629.21	34668.02
629.36	34602.48
629.51	34452.69
629.66	34560.35
629.81	34401.19
629.96	34176.50
630.11	34361.40
630.26	34579.07
630.41	34356.72
630.56	34059.48
630.71	34721.85
630.86	34436.30
631.01	34909.09
631.16	34869.30
631.31	34483.11
631.46	34148.42
631.61	33919.04
631.76	34216.29
631.91	33647.54
632.06	33886.28
632.21	34082.88
632.36	33654.56
632.51	33888.62
632.66	33708.40
632.81	33998.62
632.96	34052.45
633.10	33682.65
633.25	33888.62
633.40	34335.66
633.55	34394.17
633.70	34153.10
633.85	33666.27
634.00	33542.22
634.15	33890.96
634.30	33947.13
634.45	33411.15
634.60	33893.30
634.75	34040.75
634.90	33582.01
635.05	33942.45
635.19	34007.98
635.34	33464.98
635.49	33919.04
635.64	33715.42
635.79	33509.45
635.94	32762.82
636.09	33345.61
636.24	33673.29
636.39	33546.90
636.53	33214.54
636.68	33366.68
636.83	33610.09
636.98	33043.68
637.13	33242.63
637.28	33715.42
637.43	33523.49
637.57	33563.28
637.72	33149.01
637.87	33188.80
638.02	32877.51
638.17	33146.67
638.32	32725.37
638.46	33326.89
638.61	32861.12
638.76	33181.77
638.91	33263.69
639.06	33036.66
639.20	33209.86
639.35	32999.21
639.50	32835.38
639.65	33081.13
639.80	33081.13
639.94	32954.74
640.09	33308.16
640.24	32823.67
640.39	32687.92
640.54	32442.17
640.68	32924.32
640.83	32847.08
640.98	32481.95
641.13	32247.90
641.27	32893.89
641.42	32917.29
641.57	33156.03
641.72	33132.62
641.86	32982.83
642.01	32247.90
642.16	32498.34
642.31	32290.03
642.45	33090.49
642.60	32215.13
642.75	32521.74
642.90	32561.53
643.04	32371.95
643.19	32315.78
643.34	32467.91
643.48	32575.58
643.63	32425.78
643.78	32790.91
643.93	32510.04
644.07	32430.46
644.22	32603.66
644.37	32318.12
644.51	32521.74
644.66	32395.35
644.81	31768.09
644.95	32173.00
645.10	32332.16
645.25	32360.25
645.39	32137.90
645.54	31901.50
645.69	32128.53
645.83	32676.22
645.98	32456.21
646.13	32315.78
646.27	32414.08
646.42	32212.79
646.57	32151.94
646.71	32411.74
646.86	32212.79
647.00	32070.02
647.15	31967.04
647.30	32135.56
647.44	31679.15
647.59	31901.50
647.74	31817.24
647.88	31653.40
648.03	32006.83
648.17	32423.44
648.32	32198.75
648.47	32369.61
648.61	31400.63
648.76	31873.42
648.90	31990.44
649.05	31707.24
649.20	31950.65
649.34	31477.86
649.49	31754.05
649.63	31510.63
649.78	31648.72
649.92	31426.37
650.07	31669.79
650.21	31461.48
650.36	31864.05
650.51	31503.61
650.65	31683.83
650.80	31854.69
650.94	31325.73
651.09	31386.58
651.23	31400.63
651.38	31290.62
651.52	31290.62
651.67	31442.76
651.81	31541.06
651.96	31257.85
652.10	31433.39
652.25	30838.90
652.39	31204.02
652.54	31676.81
652.68	31487.23
652.83	31672.13
652.97	31421.69
653.12	31367.86
653.26	31484.89
653.41	31545.74
653.55	31042.53
653.70	31260.20
653.84	31211.04
653.99	30981.67
654.13	31140.83
654.27	31077.63
654.42	30831.88
654.56	31239.13
654.71	31044.87
654.85	31110.40
655.00	30735.92
655.14	30967.63
655.29	31096.36
655.43	30857.62
655.57	30707.83
655.72	30679.74
655.86	31037.84
656.01	30712.51
656.15	30539.31
656.30	30604.84
656.44	30682.08
656.58	30450.37
656.73	30490.16
656.87	30979.33
657.01	30548.67
657.16	31136.15
657.30	30576.76
657.45	30543.99
657.59	30895.07
657.73	30286.53
657.88	30429.30
658.02	30061.84
658.16	30230.36
658.31	30415.26
658.45	30607.19
658.60	30279.51
658.74	30134.40
658.88	30403.56
659.03	30057.16
659.17	30305.26
659.31	30120.35
659.46	29909.71
659.60	30377.81
659.74	30492.50
659.89	29944.81
660.03	29804.38
660.17	30242.06
660.32	29923.75
660.46	30075.88
660.60	29825.45
660.74	29624.16
660.89	29729.48
661.03	29589.05
661.17	29565.65
661.32	29483.73
661.46	29741.19
661.60	29935.45
661.74	29546.92
661.89	29867.58
662.03	29357.34
662.17	29748.21
662.31	29567.99
662.46	29502.45
662.60	29252.02
662.74	29149.03
662.88	29207.55
663.03	29149.03
663.17	28950.09
663.31	28943.06
663.45	28903.28
663.60	28973.49
663.74	28830.72
663.88	28760.50
664.02	28961.79
664.17	28842.42
664.31	29069.45
664.45	29256.70
664.59	28613.05
664.73	28746.46
664.88	28716.03
665.02	28603.69
665.16	28423.47
665.30	28865.83
665.44	28519.43
665.59	28868.17
665.73	28526.45
665.87	28393.04
666.01	28243.24
666.15	28671.56
666.29	28538.15
666.44	28364.95
666.58	27964.72
666.72	28486.66
666.86	27934.29
667.00	28266.65
667.14	28252.61
667.28	28327.50
667.43	28353.25
667.57	27854.72
667.71	27922.59
667.85	27908.55
667.99	27969.40
668.13	27962.38
668.27	27754.07
668.41	27992.81
668.56	27679.18
668.70	27779.82
668.84	27735.35
668.98	27475.55
669.12	27693.22
669.26	27859.40
669.40	27644.07
669.54	27161.92
669.68	27108.08
669.82	27250.86
669.96	27166.60
670.10	27264.90
670.25	26906.80
670.39	27332.78
670.53	26726.58
670.67	27140.85
670.81	27211.07
670.95	27229.79
671.09	27012.12
671.23	27505.98
671.37	26944.25
671.51	27000.42
671.65	26876.37
671.79	26485.50
671.93	26850.63
672.07	26937.23
672.21	26579.12
672.35	26441.03
672.49	26387.20
672.63	26319.32
672.77	26096.97
672.91	26375.50
673.05	26197.62
673.19	26129.74
673.33	26345.07
673.47	26094.63
673.61	26485.50
673.75	26132.08
673.89	26022.08
674.03	25991.65
674.17	25820.79
674.31	25940.16
674.45	25989.31
674.59	25607.80
674.73	25675.68
674.87	25404.17
675.01	25729.51
675.15	25291.83
675.29	25469.71
675.43	25450.99
675.56	25020.33
675.70	25689.72
675.84	25565.67
675.98	24739.46
676.12	25350.34
676.26	25380.77
676.40	25301.19
676.54	24709.04
676.68	24772.23
676.82	24294.76
676.96	24781.59
677.10	24526.47
677.23	24601.37
677.37	24437.53
677.51	24409.45
677.65	24311.14
677.79	24304.12
677.93	24173.05
678.07	23924.96
678.21	23885.17
678.34	24105.18
678.48	23702.61
678.62	24046.66
678.76	23833.68
678.90	23475.57
679.04	23779.84
679.18	23566.85
679.31	23608.98
679.45	23255.56
679.59	23576.22
679.73	23042.57
679.87	23194.71
680.00	23047.26
680.14	22803.84
680.28	22991.08
680.42	22874.06
680.56	22747.67
680.70	22686.81
680.83	22614.26
680.97	22665.75
681.11	22934.91
681.25	22478.50
681.39	22654.05
681.52	22258.49
681.66	22462.12
681.80	22553.40
681.94	22171.89
682.07	22333.39
682.21	21909.75
682.35	21928.48
682.49	21816.13
682.62	21907.41
682.76	22001.04
682.90	21940.18
683.04	21411.22
683.17	21556.33
683.31	21535.27
683.45	21748.26
683.59	21652.30
683.72	21549.31
683.86	21172.49
684.00	21362.07
684.13	21184.19
684.27	21245.04
684.41	20795.66
684.55	20271.38
684.68	20711.40
684.82	20638.84
684.96	20524.16
685.09	20655.23
685.23	20666.93
685.37	20720.76
685.50	20465.64
685.64	20739.49
685.78	20498.41
685.91	20273.72
686.05	20460.96
686.19	19906.26
686.32	20556.93
686.46	19978.81
686.60	19798.59
686.73	19985.83
686.87	20032.65
687.01	19990.52
687.14	19587.94
687.28	19585.60
687.42	19871.15
687.55	19363.25
687.69	19410.06
687.82	19658.16
687.96	19248.57
688.10	19719.01
688.23	19396.02
688.37	19229.84
688.50	19194.73
688.64	19054.30
688.78	18801.52
688.91	19185.37
689.05	18888.12
689.18	18724.29
689.32	18448.10
689.46	18876.42
689.59	18384.91
689.73	18534.70
689.86	18342.78
690.00	18450.44
690.13	18427.04
690.27	18298.31
690.41	18204.69
690.54	18104.04
690.68	17785.73
690.81	18202.35
690.95	17935.53
691.08	18155.54
691.22	17778.71
691.35	17586.79
691.49	17774.03
691.62	17792.75
691.76	17390.18
691.89	17226.34
692.03	17135.06
692.16	17088.25
692.30	17310.60
692.43	17160.81
692.57	16755.90
692.70	17111.66
692.84	17151.45
692.97	16711.42
693.11	17011.01
693.24	16828.45
693.38	16868.24
693.51	16999.31
693.65	16636.53
693.78	16521.84
693.92	16781.64
694.05	16439.92
694.19	16196.51
694.32	16259.70
694.45	16421.20
694.59	15976.50
694.72	15896.92
694.86	15908.62
694.99	15676.91
695.13	15985.86
695.26	15927.35
695.39	15866.49
695.53	15896.92
695.66	15667.55
695.80	15634.78
695.93	15712.02
696.07	15351.57
696.20	15786.91
696.33	15267.31
696.47	15351.57
696.60	15307.10
696.73	15431.15
696.87	15037.94
697.00	15314.13
697.14	14750.06
697.27	14864.74
697.40	14792.19
697.54	14335.78
697.67	14621.33
697.80	14534.73
697.94	14471.53
698.07	14253.86
698.21	14225.78
698.34	14670.48
698.47	14476.21
698.61	14450.47
698.74	14244.50
698.87	14237.48
699.01	14115.77
699.14	14183.65
699.27	13900.44
699.40	13792.78
699.54	13921.51
699.67	13841.93
699.80	13694.47
699.94	13518.93
700.07	13357.44
700.20	13109.34
700.34	13591.49
700.47	13315.31
700.60	13617.24
700.73	13415.95
700.87	13247.43
701.00	13123.38
701.13	13050.83
701.26	13153.81
701.40	13200.62
701.53	12891.67
701.66	13053.17
701.79	13064.87
701.93	12547.61
702.06	12858.90
702.19	12664.64
702.32	12784.01
702.46	12746.56
702.59	12650.60
702.72	12517.18
702.85	12318.24
702.99	12388.46
703.12	12465.69
703.25	12030.35
703.38	12149.72
703.51	11985.88
703.65	12198.87
703.78	12299.52
703.91	12030.35
704.04	12067.80
704.17	12039.72
704.31	11948.43
704.44	11744.81
704.57	11665.23
704.70	11499.05
704.83	11599.70
704.96	11749.49
705.10	11475.65
705.23	11499.05
>>>>>End Processed Spectral Data<<<<<
