SpectraSuite Data File
++++++++++++++++++++++++++++++++++++
Date: Fri Oct 04 11:39:16 GMT-05:00 2013
User: price-jones
Dark Spectrum Present: No
Reference Spectrum Present: No
Number of Sampled Component Spectra: 1
Spectrometers: USB2+H05261
Integration Time (usec): 100000 (USB2+H05261)
Spectra Averaged: 1 (USB2+H05261)
Boxcar Smoothing: 0 (USB2+H05261)
Correct for Electrical Dark: No (USB2+H05261)
Strobe/Lamp Enabled: No (USB2+H05261)
Correct for Detector Non-linearity: No (USB2+H05261)
Correct for Stray Light: No (USB2+H05261)
Number of Pixels in Processed Spectrum: 2048
>>>>>Begin Processed Spectral Data<<<<<
365.73	30.43
365.92	30.43
366.12	30.43
366.32	18.72
366.52	0.00
366.72	16.38
366.91	0.00
367.11	0.00
367.31	0.00
367.51	0.00
367.70	0.00
367.90	0.00
368.10	0.00
368.30	0.00
368.49	0.00
368.69	0.00
368.89	0.00
369.09	0.00
369.28	0.00
369.48	0.00
369.68	39.79
369.87	30.43
370.07	0.00
370.27	53.83
370.47	117.03
370.66	140.43
370.86	161.50
371.06	215.33
371.25	210.65
371.45	205.97
371.65	276.18
371.84	283.20
372.04	231.71
372.24	344.06
372.44	344.06
372.63	299.59
372.83	332.36
373.03	315.97
373.22	369.80
373.42	290.23
373.62	351.08
373.81	404.91
374.01	388.53
374.21	362.78
374.40	353.42
374.60	362.78
374.79	400.23
374.99	304.27
375.19	353.42
375.38	449.38
375.58	418.96
375.78	379.17
375.97	355.76
376.17	456.40
376.37	372.15
376.56	435.34
376.76	372.15
376.95	348.74
377.15	428.32
377.35	397.89
377.54	367.46
377.74	341.72
377.93	423.64
378.13	358.10
378.33	437.68
378.52	400.23
378.72	433.00
378.91	423.64
379.11	407.25
379.31	409.59
379.50	334.70
379.70	442.36
379.89	411.93
380.09	440.02
380.28	470.45
380.48	458.74
380.68	461.09
380.87	433.00
381.07	461.09
381.26	388.53
381.46	386.19
381.65	425.98
381.85	404.91
382.04	451.72
382.24	418.96
382.43	552.37
382.63	461.09
382.83	418.96
383.02	514.92
383.22	592.16
383.41	337.04
383.61	521.94
383.80	463.43
384.00	486.83
384.19	454.06
384.39	489.17
384.58	486.83
384.78	564.07
384.97	491.51
385.17	477.47
385.36	510.24
385.56	573.43
385.75	475.13
385.95	491.51
386.14	528.96
386.34	496.19
386.53	484.49
386.72	505.56
386.92	550.03
387.11	547.69
387.31	528.96
387.50	491.51
387.70	606.20
387.89	521.94
388.09	547.69
388.28	594.50
388.48	528.96
388.67	557.05
388.86	629.60
389.06	538.32
389.25	498.53
389.45	507.90
389.64	620.24
389.84	631.94
390.03	587.47
390.22	606.20
390.42	603.86
390.61	657.69
390.81	608.54
391.00	662.37
391.19	638.97
391.39	690.46
391.58	568.75
391.78	617.90
391.97	702.16
392.16	638.97
392.36	650.67
392.55	692.80
392.75	657.69
392.94	660.03
393.13	727.91
393.33	645.99
393.52	751.31
393.71	713.86
393.91	629.60
394.10	681.10
394.29	788.76
394.49	725.57
394.68	800.46
394.88	772.38
395.07	816.85
395.26	709.18
395.46	767.70
395.65	858.98
395.84	791.10
396.04	814.51
396.23	730.25
396.42	781.74
396.62	739.61
396.81	833.23
397.00	800.46
397.19	901.11
397.39	854.30
397.58	966.64
397.77	856.64
397.97	847.27
398.16	819.19
398.35	837.91
398.55	835.57
398.74	922.17
398.93	802.80
399.12	823.87
399.32	884.72
399.51	950.26
399.70	1053.24
399.90	1004.09
400.09	973.66
400.28	990.05
400.47	980.68
400.67	971.32
400.86	945.58
401.05	999.41
401.24	1013.45
401.44	1060.26
401.63	952.60
401.82	1020.47
402.01	873.02
402.21	1076.65
402.40	1123.46
402.59	1050.90
402.78	1043.88
402.97	1039.20
403.17	1020.47
403.36	1132.82
403.55	1142.18
403.74	1086.01
403.93	1221.76
404.13	1291.98
404.32	1235.80
404.51	1228.78
404.70	1270.91
404.89	1174.95
405.09	1196.01
405.28	1226.44
405.47	1238.14
405.66	1181.97
405.85	1315.38
406.05	1270.91
406.24	1249.85
406.43	1224.10
406.62	1324.74
406.81	1371.55
407.00	1376.24
407.20	1362.19
407.39	1331.76
407.58	1425.39
407.77	1486.24
407.96	1380.92
408.15	1430.07
408.34	1366.87
408.54	1413.68
408.73	1390.28
408.92	1519.01
409.11	1490.92
409.30	1416.02
409.49	1441.77
409.68	1586.88
409.87	1607.95
410.07	1497.94
410.26	1526.03
410.45	1561.14
410.64	1572.84
410.83	1645.40
411.02	1577.52
411.21	1722.63
411.40	1736.68
411.59	1600.93
411.78	1647.74
411.98	1647.74
412.17	1715.61
412.36	1764.76
412.55	1788.17
412.74	1893.49
412.93	1849.02
413.12	1816.26
413.31	1884.13
413.50	1844.34
413.69	1888.81
413.88	1998.82
414.07	1966.05
414.26	2043.29
414.45	1933.28
414.64	1881.79
414.83	1930.94
415.02	2071.37
415.22	2054.99
415.41	2127.55
415.60	2143.93
415.79	2153.29
415.98	2094.78
416.17	2139.25
416.36	2223.51
416.55	2305.43
416.74	2321.81
416.93	2373.30
417.12	2272.66
417.31	2249.25
417.50	2328.83
417.69	2354.58
417.88	2434.16
418.07	2291.38
418.26	2387.35
418.45	2312.45
418.64	2539.48
418.83	2445.86
419.02	2413.09
419.21	2581.61
419.39	2485.65
419.58	2441.18
419.77	2331.17
419.96	2565.23
420.15	2555.86
420.34	2511.39
420.53	2661.19
420.72	2668.21
420.91	2602.68
421.10	2565.23
421.29	2689.28
421.48	2576.93
421.67	2698.64
421.86	2616.72
422.05	2768.85
422.24	2661.19
422.43	2644.81
422.61	2787.58
422.80	2700.98
422.99	2691.62
423.18	2806.30
423.37	2708.00
423.56	2717.36
423.75	2822.69
423.94	2649.49
424.13	2459.90
424.32	2684.59
424.50	2780.56
424.69	2780.56
424.88	2967.80
425.07	2782.90
425.26	2736.09
425.45	2841.41
425.64	2743.11
425.83	2904.60
426.01	3019.29
426.20	2881.20
426.39	2750.13
426.58	2953.76
426.77	3016.95
426.96	2897.58
427.15	2834.39
427.33	2897.58
427.52	2928.01
427.71	3038.02
427.90	3028.65
428.09	2974.82
428.28	2897.58
428.46	3073.12
428.65	3002.91
428.84	3126.96
429.03	3267.39
429.22	3033.33
429.40	3033.33
429.59	3056.74
429.78	2928.01
429.97	2970.14
430.16	3016.95
430.34	3117.59
430.53	3267.39
430.72	3126.96
430.91	3054.40
431.10	3105.89
431.28	3281.43
431.47	3391.44
431.66	3361.01
431.85	3197.17
432.03	3297.81
432.22	3353.99
432.41	3346.97
432.60	3501.44
432.79	3248.66
432.97	3276.75
433.16	3454.63
433.35	3534.21
433.54	3524.85
433.72	3428.88
433.91	3330.58
434.10	3449.95
434.28	3485.06
434.47	3599.74
434.66	3590.38
434.85	3702.73
435.03	3716.77
435.22	3822.09
435.41	3999.98
435.59	3915.72
435.78	3906.35
435.97	3772.94
436.16	3641.87
436.34	3655.92
436.53	3648.90
436.72	3847.84
436.90	3627.83
437.09	3747.20
437.28	3688.68
437.46	3648.90
437.65	3740.18
437.84	3943.80
438.02	3660.60
438.21	3901.67
438.40	3810.39
438.58	3831.46
438.77	3896.99
438.96	4037.42
439.14	3992.95
439.33	4035.08
439.52	4009.34
439.70	4098.28
439.89	4285.52
440.08	4280.84
440.26	4208.28
440.45	4170.83
440.63	4229.35
440.82	4369.78
441.01	4208.28
441.19	4313.61
441.38	4442.34
441.57	4477.44
441.75	4428.29
441.94	4482.13
442.12	4596.81
442.31	4531.28
442.50	4557.02
442.68	4463.40
442.87	4580.43
443.05	4683.41
443.24	4699.80
443.43	4669.37
443.61	4528.94
443.80	4915.12
443.98	4652.98
444.17	4449.36
444.35	4573.41
444.54	4814.48
444.73	4786.40
444.91	4732.56
445.10	4667.03
445.28	4709.16
445.47	4713.84
445.65	4734.90
445.84	4784.06
446.02	4774.69
446.21	4746.61
446.39	4851.93
446.58	4854.27
446.77	4868.31
446.95	4660.01
447.14	4779.37
447.32	4959.60
447.51	4905.76
447.69	4983.00
447.88	4737.24
448.06	4641.28
448.25	4748.95
448.43	4704.48
448.62	4868.31
448.80	4814.48
448.99	4828.53
449.17	5069.60
449.36	5015.77
449.54	5041.51
449.73	5013.43
449.91	5034.49
450.10	5125.77
450.28	5032.15
450.46	5310.68
450.65	5128.11
450.83	5153.86
451.02	5144.50
451.20	5184.29
451.39	5184.29
451.57	5266.21
451.76	5224.08
451.94	5252.16
452.13	5504.94
452.31	5254.50
452.49	5085.98
452.68	5357.49
452.86	5308.34
453.05	5282.59
453.23	5467.49
453.42	5507.28
453.60	5282.59
453.78	5458.13
453.97	5406.64
454.15	5369.19
454.34	5486.22
454.52	5565.79
454.70	5406.64
454.89	5462.81
455.07	5488.56
455.26	5472.17
455.44	5788.14
455.62	5643.03
455.81	5664.10
455.99	5774.10
456.17	5764.74
456.36	5841.98
456.54	5703.89
456.73	5783.46
456.91	5991.77
457.09	5907.51
457.28	6125.18
457.46	5959.00
457.64	6069.01
457.83	5991.77
458.01	5968.37
458.19	6143.91
458.38	5856.02
458.56	6143.91
458.74	5975.39
458.93	6256.25
459.11	6019.86
459.29	6129.86
459.48	6160.29
459.66	6036.24
459.84	6174.33
460.03	6291.36
460.21	6270.30
460.39	6267.95
460.57	6090.07
460.76	6153.27
460.94	6438.81
461.12	6427.11
461.31	6462.22
461.49	6319.45
461.67	6328.81
461.85	6356.90
462.04	6497.33
462.22	6930.33
462.40	6494.99
462.59	6546.48
462.77	6370.94
462.95	6525.41
463.13	6459.88
463.32	6595.63
463.50	6754.79
463.68	6686.91
463.86	6527.75
464.05	6689.25
464.23	6731.38
464.41	6700.95
464.59	6600.31
464.78	6768.83
464.96	6738.40
465.14	6464.56
465.32	6920.96
465.50	6899.90
465.69	6857.77
465.87	6792.23
466.05	7094.16
466.23	6698.61
466.41	7007.56
466.60	7201.83
466.78	6785.21
466.96	6876.49
467.14	6913.94
467.32	6995.86
467.51	7049.69
467.69	6878.83
467.87	7281.41
468.05	7239.28
468.23	7190.13
468.41	7012.24
468.60	7037.99
468.78	7290.77
468.96	7250.98
469.14	7297.79
469.32	7169.06
469.50	7176.08
469.69	7356.30
469.87	7232.26
470.05	7552.91
470.23	7321.20
470.41	7400.77
470.59	7412.48
470.77	7527.16
470.95	7438.22
471.14	7641.85
471.32	7447.58
471.50	7810.37
471.68	7515.46
471.86	7634.83
472.04	7630.15
472.22	7892.29
472.40	7733.13
472.58	7676.96
472.77	7866.54
472.95	7845.48
473.13	8102.93
473.31	8056.12
473.49	7939.10
473.67	8215.28
473.85	8133.36
474.03	8369.76
474.21	8255.07
474.39	8283.16
474.57	8404.86
474.75	8376.78
474.93	8493.80
475.12	8369.76
475.30	8517.21
475.48	8486.78
475.66	8676.37
475.84	8692.75
476.02	8723.18
476.20	8622.53
476.38	8884.67
476.56	9226.39
476.74	8940.85
476.92	8975.95
477.10	8952.55
477.28	9163.20
477.46	9172.56
477.64	9207.67
477.82	9376.19
478.00	9589.17
478.18	9383.21
478.36	9631.30
478.54	9666.41
478.72	9748.33
478.90	9900.47
479.08	9905.15
479.26	9907.49
479.44	9984.73
479.62	10057.28
479.80	10267.93
479.98	10061.96
480.16	10459.85
480.34	10157.92
480.52	10555.82
480.70	10501.98
480.88	10399.00
481.06	10611.99
481.24	10506.66
481.41	10619.01
481.59	10810.93
481.77	11199.46
481.95	10897.53
482.13	11276.70
482.31	11091.80
482.49	11225.21
482.67	11281.38
482.85	11468.62
483.03	11723.74
483.21	11735.45
483.39	11683.95
483.57	11723.74
483.74	12035.03
483.92	12053.76
484.10	11948.43
484.28	12184.83
484.46	12407.18
484.64	12599.10
484.82	12432.93
485.00	12564.00
485.18	12659.96
485.35	12784.01
485.53	12755.92
485.71	12894.01
485.89	13371.48
486.07	13095.30
486.25	13043.81
486.43	13294.24
486.61	13254.45
486.78	13394.89
486.96	13640.64
487.14	13811.50
487.32	13752.99
487.50	14090.02
487.68	13827.88
487.85	14057.26
488.03	14511.32
488.21	14574.52
488.39	14394.29
488.57	14277.27
488.75	14403.66
488.92	15300.08
489.10	15044.96
489.28	15129.22
489.46	15243.91
489.64	15187.74
489.81	15609.03
489.99	15503.71
490.17	15550.52
490.35	15901.60
490.53	15873.51
490.70	16229.27
490.88	16119.27
491.06	16210.55
491.24	16070.12
491.41	16180.12
491.59	16414.18
491.77	16367.37
491.95	16514.82
492.13	16702.06
492.30	16908.03
492.48	17015.69
492.66	16704.40
492.84	17085.91
493.01	17149.11
493.19	17085.91
493.37	17448.69
493.54	17467.42
493.72	17490.82
493.90	17504.87
494.08	17699.13
494.25	17877.01
494.43	17752.96
494.61	18045.53
494.79	18258.52
494.96	18197.67
495.14	18625.98
495.32	18731.31
495.49	18572.15
495.67	18640.03
495.85	18988.77
496.02	18899.83
496.20	19159.63
496.38	19218.14
496.55	19262.61
496.73	19672.20
496.91	19592.62
497.09	20032.65
497.26	19583.26
497.44	19499.00
497.62	19744.76
497.79	19983.49
497.97	19850.08
498.14	20039.67
498.32	20343.94
498.50	20638.84
498.67	20755.87
498.85	20414.15
499.03	20430.54
499.20	20695.02
499.38	20678.63
499.56	20589.69
499.73	21113.97
499.91	21177.17
500.08	21245.04
500.26	20788.64
500.44	21137.38
500.61	21352.71
500.79	21139.72
500.97	21448.67
501.14	21729.53
501.32	21797.41
501.49	21720.17
501.67	21610.17
501.84	21741.24
502.02	21891.03
502.20	21680.38
502.37	22033.80
502.55	22106.36
502.72	22485.53
502.90	22246.79
503.07	21792.73
503.25	22801.50
503.43	22621.28
503.60	22235.09
503.78	22728.94
503.95	22600.21
504.13	22768.73
504.30	22946.61
504.48	22525.32
504.65	22750.01
504.83	23073.00
505.01	23377.27
505.18	22899.80
505.36	23494.30
505.53	23424.08
505.71	23555.15
505.88	23527.06
506.06	23204.07
506.23	23580.90
506.41	23697.92
506.58	24161.35
506.76	23756.44
506.93	24093.47
507.11	24016.24
507.28	24229.23
507.46	24215.18
507.63	24259.65
507.81	24425.83
507.98	24308.80
508.16	24575.62
508.33	24643.50
508.50	24517.11
508.68	24744.14
508.85	24753.51
509.03	24884.58
509.20	25130.33
509.38	25280.13
509.55	25214.59
509.73	25443.96
509.90	25113.95
510.08	25331.62
510.25	25329.28
510.42	25219.27
510.60	25530.56
510.77	25673.34
510.95	25879.30
511.12	25785.68
511.30	25766.96
511.47	25907.39
511.64	26115.70
511.82	26190.59
511.99	26040.80
512.17	26394.22
512.34	26370.82
512.51	26403.58
512.69	26075.91
512.86	26635.30
513.04	26630.62
513.21	26946.59
513.38	26862.33
513.56	26789.77
513.73	26749.98
513.90	26967.65
514.08	26857.65
514.25	27154.90
514.43	27246.18
514.60	27021.48
514.77	27283.62
514.95	27288.31
515.12	27559.81
515.29	26953.61
515.47	27807.90
515.64	27337.46
515.81	27644.07
515.99	27733.01
516.16	27999.83
516.33	28079.41
516.51	27929.61
516.68	27817.27
516.85	27859.40
517.03	28367.29
517.20	28166.01
517.37	28341.55
517.54	28142.60
517.72	28496.02
517.89	28437.51
518.06	28245.58
518.24	28559.22
518.41	28278.35
518.58	28161.33
518.75	28582.62
518.93	28711.35
519.10	28774.55
519.27	28711.35
519.45	28903.28
519.62	28814.34
519.79	29001.58
519.96	28489.00
520.14	28929.02
520.31	29450.96
520.48	29282.44
520.65	29376.06
520.83	29729.48
521.00	29607.78
521.17	29191.16
521.34	29677.99
521.52	29523.52
521.69	29762.25
521.86	29972.90
522.03	29851.19
522.20	29979.92
522.38	29923.75
522.55	30103.97
522.72	30256.11
522.89	30738.26
523.07	30569.74
523.24	30436.33
523.41	30827.20
523.58	30398.88
523.75	30644.63
523.92	30536.97
524.10	30462.07
524.27	30604.84
524.44	30738.26
524.61	31108.06
524.78	31227.43
524.96	31098.70
525.13	31028.48
525.30	30778.04
525.47	31559.78
525.64	31276.58
525.81	31393.61
525.98	31335.09
526.16	31323.39
526.33	31147.85
526.50	31639.36
526.67	31498.93
526.84	31262.54
527.01	31365.52
527.18	31543.40
527.36	31807.88
527.53	31831.29
527.70	32079.38
527.87	32400.04
528.04	31697.88
528.21	32451.53
528.38	32037.25
528.55	31955.33
528.72	32484.30
528.89	32407.06
529.07	31892.14
529.24	31924.91
529.41	32591.96
529.58	32472.59
529.75	32231.52
529.92	32376.63
530.09	32374.29
530.26	32739.41
530.43	32818.99
530.60	32341.52
530.77	33076.45
530.94	32910.27
531.11	32285.35
531.28	32538.13
531.46	32790.91
531.63	32774.52
531.80	33083.47
531.97	33137.30
532.14	33340.93
532.31	33167.73
532.48	33413.49
532.65	33427.53
532.82	33577.33
532.99	33312.84
533.16	33312.84
533.33	33811.38
533.50	34092.24
533.67	33872.23
533.84	33373.70
534.01	33603.07
534.18	33422.85
534.35	33823.08
534.52	33586.69
534.69	34064.16
534.86	34174.16
535.03	33956.49
535.20	34110.97
535.37	34089.90
535.54	34611.84
535.71	33666.27
535.88	34649.29
536.05	33869.89
536.22	34380.13
536.38	34469.07
536.55	34520.56
536.72	34614.18
536.89	34401.19
537.06	34705.46
537.23	34398.85
537.40	34607.16
537.57	34581.42
537.74	34871.64
537.91	35220.38
538.08	34595.46
538.25	34888.03
538.42	34630.57
538.59	34869.30
538.75	35105.70
538.92	35283.58
539.09	35227.40
539.26	35260.17
539.43	35152.51
539.60	35763.39
539.77	35409.96
539.94	35660.40
540.11	35325.71
540.28	35510.61
540.44	35173.57
540.61	35552.74
540.78	35709.55
540.95	35641.68
541.12	35660.40
541.29	35559.76
541.46	35847.64
541.62	36053.61
541.79	35997.44
541.96	36156.60
542.13	35852.33
542.30	36048.93
542.47	36463.21
542.63	35803.17
542.80	36510.02
542.97	36882.16
543.14	36437.46
543.31	36460.87
543.48	36149.57
543.64	36982.80
543.81	36933.65
543.98	36570.87
544.15	36704.28
544.32	37097.49
544.48	36844.71
544.65	37071.75
544.82	36821.31
544.99	36566.19
545.16	37261.33
545.32	36797.90
545.49	37394.74
545.66	37921.36
545.83	38045.41
546.00	38195.20
546.16	37326.86
546.33	37261.33
546.50	36900.89
546.67	37141.96
546.83	36882.16
547.00	37092.81
547.17	37013.23
547.34	37200.47
547.50	37228.56
547.67	37422.83
547.84	37160.69
548.00	37303.46
548.17	38000.94
548.34	37394.74
548.51	37619.43
548.67	37933.06
548.84	37947.11
549.01	37914.34
549.18	37701.35
549.34	37729.44
549.51	37345.59
549.68	37329.20
549.84	37769.22
550.01	37696.67
550.18	37996.26
550.34	38464.36
550.51	38099.24
550.68	37834.76
550.84	37703.69
551.01	38078.18
551.18	37839.44
551.34	37694.33
551.51	37766.88
551.68	37757.52
551.84	38384.79
552.01	38209.25
552.18	37926.04
552.34	38298.19
552.51	38223.29
552.68	38040.73
552.84	38202.22
553.01	38635.22
553.18	38333.29
553.34	38469.04
553.51	38499.47
553.67	38457.34
553.84	39058.86
554.01	38693.74
554.17	38536.92
554.34	38429.26
554.51	38225.63
554.67	38686.71
554.84	38815.44
555.00	38831.83
555.17	38778.00
555.33	38990.98
555.50	39342.06
555.67	39126.74
555.83	38873.96
556.00	39171.21
556.16	38981.62
556.33	39203.97
556.50	38693.74
556.66	39129.08
556.83	38583.73
556.99	39210.99
557.16	39592.50
557.32	39318.66
557.49	39161.84
557.65	38932.47
557.82	38923.11
557.98	38892.68
558.15	38885.66
558.32	39241.42
558.48	39196.95
558.65	39267.17
558.81	39372.49
558.98	39129.08
559.14	39704.85
559.31	39009.71
559.47	39253.12
559.64	39728.25
559.80	39611.23
559.97	39246.10
560.13	39487.18
560.30	39814.85
560.46	39629.95
560.63	40175.30
560.79	39938.90
560.96	39723.57
561.12	38983.96
561.29	39578.46
561.45	39335.04
561.61	39496.54
561.78	39683.78
561.94	39690.80
562.11	39550.37
562.27	39988.05
562.44	39901.45
562.60	39966.99
562.77	39959.97
562.93	40004.44
563.10	39901.45
563.26	39608.89
563.42	39959.97
563.59	40105.08
563.75	40254.87
563.92	39592.50
564.08	39828.90
564.24	40250.19
564.41	40037.20
564.57	40009.12
564.74	39842.94
564.90	39845.28
565.07	39667.40
565.23	40091.04
565.39	40112.10
565.56	40018.48
565.72	39746.98
565.88	40346.15
566.05	39550.37
566.21	39852.30
566.38	39959.97
566.54	39908.47
566.70	40788.52
566.87	40500.63
567.03	40273.60
567.19	40467.86
567.36	40020.82
567.52	39426.32
567.68	40196.36
567.85	40353.18
568.01	39988.05
568.17	40336.79
568.34	39908.47
568.50	40273.60
568.66	40367.22
568.83	40762.77
568.99	40542.76
569.15	40830.65
569.32	40397.65
569.48	40297.00
569.64	40814.26
569.81	40313.39
569.97	39861.66
570.13	40388.28
570.30	40144.87
570.46	40451.48
570.62	40266.58
570.78	40629.36
570.95	39817.19
571.11	40624.68
571.27	40456.16
571.43	40362.54
571.60	40528.72
571.76	40575.53
571.92	40502.97
572.09	41120.87
572.25	40725.32
572.41	40849.37
572.57	40357.86
572.74	40781.49
572.90	40730.00
573.06	40584.89
573.22	40584.89
573.38	40680.85
573.55	40971.08
573.71	41083.42
573.87	40858.73
574.03	40428.07
574.20	40610.64
574.36	40687.87
574.52	40603.61
574.68	40285.30
574.84	41010.87
575.01	41031.93
575.17	40872.78
575.33	40797.88
575.49	40470.20
575.65	41308.11
575.82	41036.61
575.98	40856.39
576.14	41486.00
576.30	41200.45
576.46	40673.83
576.62	40596.59
576.79	41125.55
576.95	40697.24
577.11	40587.23
577.27	40950.01
577.43	41504.72
577.59	40889.16
577.75	41460.25
577.92	40694.89
578.08	40477.22
578.24	40863.41
578.40	41226.20
578.56	40933.63
578.72	40875.12
578.88	41034.27
579.04	41024.91
579.21	40861.07
579.37	40835.33
579.53	41429.82
579.69	40980.44
579.85	41130.23
580.01	40844.69
580.17	41331.52
580.33	41024.91
580.49	40772.13
580.65	41219.17
580.82	40835.33
580.98	41504.72
581.14	41336.20
581.30	41371.31
581.46	40898.52
581.62	41270.67
581.78	40652.76
581.94	40900.86
582.10	40917.25
582.26	41102.15
582.42	41446.21
582.58	41656.85
582.74	41474.29
582.90	41027.25
583.06	40861.07
583.22	41230.88
583.38	41146.62
583.54	41333.86
583.70	40952.35
583.86	41242.58
584.02	41060.02
584.18	41502.38
584.34	41237.90
584.50	41193.43
584.66	41661.54
584.82	41041.29
584.98	41280.03
585.14	40947.67
585.30	40737.02
585.46	41174.70
585.62	41055.34
585.78	41062.36
585.94	41184.07
586.10	41546.85
586.26	41041.29
586.42	41471.95
586.58	41509.40
586.74	41305.77
586.90	41563.23
587.06	41254.28
587.22	41280.03
587.38	41186.41
587.54	41743.45
587.70	41698.98
587.86	41181.73
588.02	41876.86
588.18	41958.78
588.34	41584.30
588.49	41783.24
588.65	41191.09
588.81	41514.08
588.97	41535.15
589.13	41340.88
589.29	41478.97
589.45	41263.64
589.61	41308.11
589.77	41989.21
589.93	41263.64
590.08	41839.42
590.24	41759.84
590.40	41862.82
590.56	42164.75
590.72	41270.67
590.88	41207.47
591.04	41216.83
591.20	41736.43
591.35	41886.23
591.51	41886.23
591.67	41991.55
591.83	41813.67
591.99	41530.47
592.15	42075.81
592.31	41799.63
592.46	41287.05
592.62	41860.48
592.78	41312.80
592.94	41434.50
593.10	41474.29
593.26	41865.16
593.41	41911.97
593.57	41869.84
593.73	41797.29
593.89	42244.33
594.05	41567.91
594.20	41551.53
594.36	41617.07
594.52	41518.76
594.68	41633.45
594.84	41713.03
594.99	41715.37
595.15	41727.07
595.31	42309.86
595.47	42080.49
595.62	41687.28
595.78	42036.02
595.94	41986.87
596.10	41956.44
596.25	41687.28
596.41	41603.02
596.57	41375.99
596.73	41654.51
596.88	41460.25
597.04	41846.44
597.20	41961.12
597.36	42387.10
597.51	42300.50
597.67	41954.10
597.83	41518.76
597.99	41968.15
598.14	41923.68
598.30	41713.03
598.46	41839.42
598.61	42040.70
598.77	41708.35
598.93	42054.75
599.09	41551.53
599.24	42272.42
599.40	41584.30
599.56	42108.58
599.71	41839.42
599.87	41979.85
600.03	41326.84
600.18	41710.69
600.34	41500.04
600.50	41858.14
600.65	41830.05
600.81	42040.70
600.97	42127.30
601.12	42274.76
601.28	42368.38
601.44	42003.25
601.59	41848.78
601.75	41928.36
601.91	42047.72
602.06	41918.99
602.22	41666.22
602.37	41738.77
602.53	41928.36
602.69	41846.44
602.84	41703.67
603.00	42148.37
603.16	42309.86
603.31	42148.37
603.47	41926.02
603.62	41827.71
603.78	41991.55
603.94	41989.21
604.09	41816.01
604.25	41366.63
604.40	41649.83
604.56	42389.44
604.71	41762.18
604.87	42227.95
605.03	41764.52
605.18	41872.18
605.34	41350.24
605.49	41406.42
605.65	42052.41
605.80	41780.90
605.96	41687.28
606.12	41668.56
606.27	42429.23
606.43	41663.88
606.58	42099.22
606.74	41794.95
606.89	41780.90
607.05	42218.58
607.20	41617.07
607.36	41577.28
607.51	42307.52
607.67	41350.24
607.82	41635.79
607.98	41469.61
608.13	41642.81
608.29	41361.95
608.44	41645.15
608.60	41605.36
608.75	41687.28
608.91	42075.81
609.06	41408.76
609.22	41895.59
609.37	41769.20
609.53	41762.18
609.68	41729.41
609.84	41790.27
609.99	41481.31
610.15	41638.13
610.30	41940.06
610.46	42291.14
610.61	41937.72
610.76	42108.58
610.92	42417.53
611.07	42160.07
611.23	42115.60
611.38	42658.60
611.54	42146.03
611.69	41591.32
611.84	41886.23
612.00	41792.61
612.15	41591.32
612.31	41785.58
612.46	41493.02
612.62	41979.85
612.77	41663.88
612.92	42038.36
613.08	41865.16
613.23	41537.49
613.39	41640.47
613.54	41322.16
613.69	41315.14
613.85	41394.71
614.00	41319.82
614.15	41237.90
614.31	41088.10
614.46	41064.70
614.62	40811.92
614.77	40877.46
614.92	41134.92
615.08	41291.73
615.23	40870.43
615.38	40882.14
615.54	40980.44
615.69	40985.12
615.84	40596.59
616.00	40961.72
616.15	41055.34
616.30	40694.89
616.46	41041.29
616.61	40945.33
616.76	41116.19
616.92	40947.67
617.07	40907.88
617.22	40444.46
617.37	40294.66
617.53	40601.27
617.68	40407.01
617.83	41151.30
617.99	40231.47
618.14	40491.27
618.29	40992.14
618.45	40722.98
618.60	40549.78
618.75	40552.12
618.90	40762.77
619.06	40587.23
619.21	40711.28
619.36	40332.11
619.51	40287.64
619.67	39636.97
619.82	40201.04
619.97	40605.95
620.12	40961.72
620.28	40154.23
620.43	40512.33
620.58	40865.75
620.73	40596.59
620.89	40765.11
621.04	40788.52
621.19	40559.14
621.34	40198.70
621.49	40086.36
621.65	40355.52
621.80	40135.51
621.95	40318.07
622.10	40172.96
622.25	40292.32
622.41	40650.42
622.56	40196.36
622.71	40383.60
622.86	40203.38
623.01	39889.75
623.16	40016.14
623.32	39920.18
623.47	39793.79
623.62	40074.65
623.77	39695.49
623.92	39906.13
624.07	39948.26
624.23	39643.99
624.38	39674.42
624.53	39936.56
624.68	40495.95
624.83	40079.33
624.98	39831.24
625.13	39817.19
625.29	40088.70
625.44	39981.03
625.59	39976.35
625.74	39676.76
625.89	39543.35
626.04	39379.51
626.19	39679.10
626.34	39517.60
626.49	39257.81
626.65	39164.18
626.80	39456.75
626.95	39180.57
627.10	39178.23
627.25	39590.16
627.40	39005.03
627.55	39536.33
627.70	38770.97
627.85	39363.13
628.00	39459.09
628.15	39459.09
628.30	39248.44
628.45	39835.92
628.60	38899.70
628.76	39215.68
628.91	39143.12
629.06	39461.43
629.21	39014.39
629.36	39051.84
629.51	39180.57
629.66	39068.22
629.81	38990.98
629.96	39056.52
630.11	39313.98
630.26	39292.91
630.41	39194.61
630.56	39189.93
630.71	38602.46
630.86	38735.87
631.01	39026.09
631.16	39042.48
631.31	38574.37
631.46	38593.09
631.61	38377.76
631.76	38651.61
631.91	38525.22
632.06	38646.93
632.21	38593.09
632.36	38845.87
632.51	38431.60
632.66	38628.20
632.81	38813.10
632.96	38738.21
633.10	38768.63
633.25	38667.99
633.40	38859.91
633.55	38653.95
633.70	38593.09
633.85	38557.99
634.00	38321.59
634.15	38450.32
634.30	38237.33
634.45	37989.24
634.60	38150.73
634.75	38178.82
634.90	38225.63
635.05	38515.86
635.19	38012.64
635.34	38457.34
635.49	38621.18
635.64	38253.72
635.79	37989.24
635.94	37813.70
636.09	37731.78
636.24	37574.96
636.39	37811.35
636.53	37928.38
636.68	37539.85
636.83	37717.73
636.98	37809.01
637.13	37825.40
637.28	38501.81
637.43	37951.79
637.57	38000.94
637.72	37488.36
637.87	37785.61
638.02	37727.10
638.17	38106.26
638.32	37638.15
638.46	37734.12
638.61	37965.83
638.76	37500.06
638.91	37539.85
639.06	37743.48
639.20	37422.83
639.35	37699.01
639.50	37855.82
639.65	38073.49
639.80	37944.76
639.94	37567.94
640.09	37839.44
640.24	37670.92
640.39	37516.45
640.54	36842.37
640.68	37207.50
640.83	37186.43
640.98	36758.11
641.13	36921.95
641.27	37422.83
641.42	37137.28
641.57	37509.43
641.72	37713.05
641.86	37439.21
642.01	36924.29
642.16	36947.70
642.31	37046.00
642.45	37202.82
642.60	36634.06
642.75	36795.56
642.90	37165.37
643.04	36851.73
643.19	36875.14
643.34	36940.68
643.48	36933.65
643.63	37046.00
643.78	36652.79
643.93	37130.26
644.07	36830.67
644.22	37118.56
644.37	37116.22
644.51	36985.15
644.66	36673.85
644.81	36521.72
644.95	36617.68
645.10	36690.24
645.25	36818.97
645.39	36411.71
645.54	36484.27
645.69	36844.71
645.83	36793.22
645.98	37141.96
646.13	37141.96
646.27	37013.23
646.42	36428.10
646.57	36456.18
646.71	36580.23
646.86	36109.78
647.00	36318.09
647.15	36156.60
647.30	36449.16
647.44	36156.60
647.59	36055.95
647.74	36320.43
647.88	36306.39
648.03	36430.44
648.17	36561.51
648.32	36484.27
648.47	36488.95
648.61	35915.52
648.76	36580.23
648.90	36044.25
649.05	36091.06
649.20	35988.08
649.34	35676.79
649.49	36437.46
649.63	36077.02
649.78	36339.16
649.92	35768.07
650.07	36224.47
650.21	35852.33
650.36	36044.25
650.51	36034.89
650.65	35999.78
650.80	36053.61
650.94	36329.80
651.09	36172.98
651.23	36041.91
651.38	36002.12
651.52	36226.81
651.67	36208.09
651.81	35971.69
651.96	35833.60
652.10	35374.86
652.25	35899.14
652.39	35784.45
652.54	35868.71
652.68	35311.66
652.83	36018.50
652.97	36430.44
653.12	35864.03
653.26	35613.59
653.41	35571.46
653.55	35131.44
653.70	35321.02
653.84	35543.38
653.99	34925.47
654.13	35817.22
654.27	35358.47
654.42	35697.85
654.56	35026.12
654.71	35519.97
654.85	35056.54
655.00	35901.48
655.14	35318.68
655.29	35281.24
655.43	35447.41
655.57	34836.53
655.72	34962.92
655.86	35075.27
656.01	35007.39
656.15	34623.54
656.30	34810.79
656.44	34036.07
656.58	34909.09
656.73	34995.69
656.87	35323.36
657.01	35122.08
657.16	35136.12
657.30	34993.35
657.45	35578.48
657.59	34382.47
657.73	34490.13
657.88	34780.36
658.02	34703.12
658.16	34684.40
658.31	34878.66
658.45	35290.60
658.60	34927.81
658.74	34735.89
658.88	34749.93
659.03	34429.28
659.17	34738.23
659.31	34803.77
659.46	34321.62
659.60	35234.42
659.74	34782.70
659.89	34305.23
660.03	34670.36
660.17	34742.91
660.32	34017.35
660.46	33977.56
660.60	34075.86
660.74	34696.10
660.89	33991.60
661.03	33916.70
661.17	33790.31
661.32	34052.45
661.46	33982.24
661.60	33797.34
661.74	33954.15
661.89	34457.37
662.03	34195.23
662.17	33979.90
662.31	33806.70
662.46	33996.28
662.60	33696.69
662.74	33614.77
662.88	33596.05
663.03	33212.20
663.17	33326.89
663.31	33315.19
663.45	33362.00
663.60	33380.72
663.74	32891.55
663.88	32711.33
664.02	32980.49
664.17	33724.78
664.31	33443.91
664.45	33275.40
664.59	33556.26
664.73	33495.41
664.88	33284.76
665.02	32868.14
665.16	32807.29
665.30	32594.30
665.44	32491.32
665.59	32496.00
665.73	32704.31
665.87	32596.64
666.01	32538.13
666.15	32708.99
666.29	32741.75
666.44	32826.01
666.58	32634.09
666.72	32308.76
666.86	32837.72
667.00	32442.17
667.14	32245.56
667.28	32423.44
667.43	31842.99
667.57	32044.27
667.71	32041.93
667.85	31632.34
667.99	31718.94
668.13	31742.35
668.27	31826.60
668.41	32411.74
668.56	31550.42
668.70	32048.96
668.84	31838.31
668.98	31828.95
669.12	31597.23
669.26	31580.85
669.40	32060.66
669.54	31246.15
669.68	31782.13
669.82	31496.59
669.96	31454.46
670.10	31409.99
670.25	31398.29
670.39	31459.14
670.53	30972.31
670.67	31056.57
670.81	31208.70
670.95	31145.51
671.09	31042.53
671.23	31234.45
671.37	31204.02
671.51	30731.23
671.65	30998.06
671.79	30817.83
671.93	30808.47
672.07	31211.04
672.21	30745.28
672.35	30522.93
672.49	30305.26
672.63	30396.54
672.77	30047.80
672.91	30551.01
673.05	30501.86
673.19	30719.53
673.33	30597.82
673.47	30263.13
673.61	30143.76
673.75	30160.14
673.89	30129.72
674.03	30668.04
674.17	30216.32
674.31	30052.48
674.45	29399.47
674.59	29979.92
674.73	29687.36
674.87	29195.84
675.01	29717.78
675.15	29240.31
675.29	29633.52
675.43	29455.64
675.56	29661.61
675.70	29780.98
675.84	29198.18
675.98	28470.28
676.12	29195.84
676.26	29418.19
676.40	28910.30
676.54	28755.82
676.68	28877.53
676.82	27896.85
676.96	28500.70
677.10	28364.95
677.23	28276.01
677.37	28404.74
677.51	28182.39
677.65	28439.85
677.79	28009.19
677.93	28362.61
678.07	28444.53
678.21	28245.58
678.34	28271.33
678.48	28025.57
678.62	28016.21
678.76	27527.04
678.90	27625.34
679.04	27662.79
679.18	27182.98
679.31	27173.62
679.45	27070.64
679.59	27410.01
679.73	26885.73
679.87	26995.74
680.00	27084.68
680.14	26974.67
680.28	27105.74
680.42	26754.66
680.56	26733.60
680.70	26672.74
680.83	26206.98
680.97	26403.58
681.11	25907.39
681.25	26309.96
681.39	26473.80
681.52	26366.13
681.66	26174.21
681.80	26340.39
681.94	25802.07
682.07	25809.09
682.21	26146.12
682.35	25909.73
682.49	25474.39
682.62	25493.12
682.76	25535.24
682.90	25568.01
683.04	25266.08
683.17	25638.23
683.31	25509.50
683.45	25275.45
683.59	25708.44
683.72	25263.74
683.86	25245.02
684.00	24842.45
684.13	24961.81
684.27	24769.89
684.41	24802.66
684.55	24580.31
684.68	24301.78
684.82	24037.30
684.96	24102.84
685.09	23941.34
685.23	24065.39
685.37	23742.39
685.50	23915.59
685.64	23704.95
685.78	23934.32
685.91	24051.34
686.05	23922.62
686.19	23349.18
686.32	23850.06
686.46	23042.57
686.60	23314.08
686.73	23686.22
686.87	23370.25
687.01	23365.57
687.14	23042.57
687.28	22951.29
687.42	22785.12
687.55	22829.59
687.69	22815.54
687.82	22761.71
687.96	22789.80
688.10	22485.53
688.23	22899.80
688.37	22689.15
688.50	22848.31
688.64	22672.77
688.78	22361.48
688.91	22017.42
689.05	22209.34
689.18	22218.71
689.32	21689.74
689.46	21809.11
689.59	21575.06
689.73	21696.77
689.86	21537.61
690.00	21668.68
690.13	21783.37
690.27	21579.74
690.41	21132.70
690.54	21273.13
690.68	21448.67
690.81	21617.19
690.95	21521.23
691.08	21453.35
691.22	21453.35
691.35	21200.57
691.49	20954.82
691.62	20844.81
691.76	20702.04
691.89	20517.14
692.03	20470.33
692.16	20018.60
692.30	20255.00
692.43	20315.85
692.57	19889.87
692.70	19889.87
692.84	20510.11
692.97	19707.31
693.11	20149.67
693.24	20407.13
693.38	19882.85
693.51	20037.33
693.65	19817.32
693.78	19648.80
693.92	19527.09
694.05	19545.81
694.19	19264.95
694.32	19339.85
694.45	19304.74
694.59	18792.16
694.72	18820.25
694.86	18801.52
694.99	18665.77
695.13	18923.23
695.26	19019.19
695.39	18679.82
695.53	18740.67
695.66	18944.30
695.80	18537.04
695.93	18679.82
696.07	18267.88
696.20	18670.45
696.33	18225.75
696.47	18136.81
696.60	18111.07
696.73	18155.54
696.87	18202.35
697.00	17685.09
697.14	17659.34
697.27	17755.30
697.40	17451.03
697.54	17224.00
697.67	17301.24
697.80	17067.19
697.94	16938.46
698.07	17104.64
698.21	17305.92
698.34	17326.99
698.47	17174.85
698.61	16849.52
698.74	17025.06
698.87	17121.02
699.01	16563.97
699.14	16451.63
699.27	16500.78
699.40	16482.05
699.54	16437.58
699.67	15995.22
699.80	16067.78
699.94	16107.57
700.07	16402.47
700.20	16184.80
700.34	16166.08
700.47	15616.05
700.60	15917.98
700.73	16390.77
700.87	16063.10
701.00	15943.73
701.13	16140.33
701.26	16032.67
701.40	15838.41
701.53	15990.54
701.66	15632.44
701.79	15438.17
701.93	15110.50
702.06	15243.91
702.19	15033.26
702.32	15096.46
702.46	15044.96
702.59	14630.69
702.72	15000.49
702.85	14869.42
702.99	14839.00
703.12	15019.22
703.25	14817.93
703.38	14724.31
703.51	14661.12
703.65	14876.44
703.78	14209.39
703.91	14312.38
704.04	14328.76
704.17	14633.03
704.31	14516.00
704.44	14136.84
704.57	13919.17
704.70	13884.06
704.83	13806.82
704.96	13884.06
705.10	13940.23
705.23	13621.92
>>>>>End Processed Spectral Data<<<<<
