SpectraSuite Data File
++++++++++++++++++++++++++++++++++++
Date: Fri Oct 04 11:39:56 GMT-05:00 2013
User: price-jones
Dark Spectrum Present: No
Reference Spectrum Present: No
Number of Sampled Component Spectra: 1
Spectrometers: USB2+H05261
Integration Time (usec): 100000 (USB2+H05261)
Spectra Averaged: 1 (USB2+H05261)
Boxcar Smoothing: 0 (USB2+H05261)
Correct for Electrical Dark: No (USB2+H05261)
Strobe/Lamp Enabled: No (USB2+H05261)
Correct for Detector Non-linearity: No (USB2+H05261)
Correct for Stray Light: No (USB2+H05261)
Number of Pixels in Processed Spectrum: 2048
>>>>>Begin Processed Spectral Data<<<<<
365.73	37.45
365.92	37.45
366.12	37.45
366.32	0.00
366.52	0.00
366.72	11.70
366.91	0.00
367.11	0.00
367.31	0.00
367.51	0.00
367.70	0.00
367.90	0.00
368.10	0.00
368.30	0.00
368.49	0.00
368.69	0.00
368.89	0.00
369.09	0.00
369.28	28.09
369.48	0.00
369.68	0.00
369.87	9.36
370.07	0.00
370.27	42.13
370.47	124.05
370.66	245.76
370.86	194.26
371.06	325.33
371.25	320.65
371.45	238.73
371.65	290.23
371.84	269.16
372.04	255.12
372.24	337.04
372.44	365.12
372.63	332.36
372.83	344.06
373.03	367.46
373.22	379.17
373.42	365.12
373.62	381.51
373.81	444.70
374.01	418.96
374.21	358.10
374.40	395.55
374.60	454.06
374.79	437.68
374.99	402.57
375.19	423.64
375.38	430.66
375.58	390.87
375.78	320.65
375.97	390.87
376.17	425.98
376.37	409.59
376.56	416.62
376.76	479.81
376.95	423.64
377.15	365.12
377.35	444.70
377.54	456.40
377.74	386.19
377.93	442.36
378.13	498.53
378.33	423.64
378.52	458.74
378.72	498.53
378.91	479.81
379.11	444.70
379.31	458.74
379.50	425.98
379.70	538.32
379.89	568.75
380.09	430.66
380.28	475.13
380.48	547.69
380.68	414.27
380.87	463.43
381.07	486.83
381.26	608.54
381.46	493.85
381.65	461.09
381.85	423.64
382.04	545.34
382.24	500.87
382.43	470.45
382.63	491.51
382.83	533.64
383.02	645.99
383.22	599.18
383.41	482.15
383.61	535.98
383.80	582.79
384.00	568.75
384.19	552.37
384.39	535.98
384.58	571.09
384.78	634.29
384.97	596.84
385.17	528.96
385.36	585.13
385.56	557.05
385.75	575.77
385.95	596.84
386.14	601.52
386.34	660.03
386.53	645.99
386.72	582.79
386.92	538.32
387.11	634.29
387.31	629.60
387.50	718.54
387.70	566.41
387.89	573.43
388.09	543.00
388.28	650.67
388.48	657.69
388.67	667.05
388.86	603.86
389.06	608.54
389.25	737.27
389.45	657.69
389.64	587.47
389.84	730.25
390.03	681.10
390.22	760.67
390.42	758.33
390.61	634.29
390.81	732.59
391.00	674.07
391.19	713.86
391.39	720.88
391.58	772.38
391.78	685.78
391.97	814.51
392.16	695.14
392.36	716.20
392.55	814.51
392.75	772.38
392.94	741.95
393.13	805.14
393.33	795.78
393.52	830.89
393.71	856.64
393.91	739.61
394.10	884.72
394.29	826.21
394.49	791.10
394.68	828.55
394.88	828.55
395.07	863.66
395.26	861.32
395.46	807.48
395.65	887.06
395.84	870.68
396.04	971.32
396.23	898.77
396.42	849.61
396.62	887.06
396.81	997.07
397.00	828.55
397.19	896.43
397.39	830.89
397.58	1088.35
397.77	966.64
397.97	966.64
398.16	983.02
398.35	1043.88
398.55	936.21
398.74	1032.18
398.93	919.83
399.12	987.71
399.32	1001.75
399.51	983.02
399.70	1022.81
399.90	1020.47
400.09	1018.13
400.28	1135.16
400.47	1050.90
400.67	997.07
400.86	1090.69
401.05	1008.77
401.24	1156.22
401.44	1118.78
401.63	1217.08
401.82	1151.54
402.01	1086.01
402.21	1228.78
402.40	1128.14
402.59	1252.19
402.78	1184.31
402.97	1172.61
403.17	1137.50
403.36	1233.46
403.55	1296.66
403.74	1291.98
403.93	1249.85
404.13	1373.89
404.32	1296.66
404.51	1284.95
404.70	1338.79
404.89	1313.04
405.09	1423.05
405.28	1324.74
405.47	1406.66
405.66	1409.00
405.85	1371.55
406.05	1462.83
406.24	1430.07
406.43	1413.68
406.62	1476.88
406.81	1516.67
407.00	1437.09
407.20	1472.20
407.39	1455.81
407.58	1460.49
407.77	1593.90
407.96	1680.50
408.15	1598.59
408.34	1600.93
408.54	1579.86
408.73	1629.01
408.92	1682.85
409.11	1661.78
409.30	1710.93
409.49	1706.25
409.68	1636.03
409.87	1687.53
410.07	1710.93
410.26	1762.42
410.45	1732.00
410.64	1685.19
410.83	1736.68
411.02	1830.30
411.21	1928.60
411.40	1914.56
411.59	1778.81
411.78	1830.30
411.98	1933.28
412.17	1870.09
412.36	1872.43
412.55	2047.97
412.74	1977.75
412.93	2019.88
413.12	2036.27
413.31	2101.80
413.50	2146.27
413.69	2211.81
413.88	2153.29
414.07	2195.42
414.26	2148.61
414.45	2232.87
414.64	2202.44
414.83	2265.64
415.02	2303.09
415.22	2235.21
415.41	2469.27
415.60	2356.92
415.79	2387.35
415.98	2333.51
416.17	2359.26
416.36	2541.82
416.55	2443.52
416.74	2607.36
416.93	2478.63
417.12	2567.57
417.31	2633.10
417.50	2590.97
417.69	2583.95
417.88	2609.70
418.07	2616.72
418.26	2726.72
418.45	2661.19
418.64	2832.05
418.83	2698.64
419.02	2836.73
419.21	2743.11
419.39	2813.32
419.58	2731.41
419.77	2759.49
419.96	2867.16
420.15	2876.52
420.34	2738.43
420.53	2768.85
420.72	2899.92
420.91	2874.18
421.10	2892.90
421.29	3054.40
421.48	2958.44
421.67	3087.17
421.86	2888.22
422.05	3030.99
422.24	2925.67
422.43	2909.29
422.61	3061.42
422.80	3052.06
422.99	3084.83
423.18	3112.91
423.37	3166.74
423.56	3117.59
423.75	2960.78
423.94	3033.33
424.13	2895.24
424.32	3038.02
424.50	3070.78
424.69	3176.11
424.88	3169.09
425.07	3084.83
425.26	3002.91
425.45	3138.66
425.64	3204.19
425.83	3169.09
426.01	3141.00
426.20	3129.30
426.39	3136.32
426.58	3030.99
426.77	3272.07
426.96	3213.56
427.15	3169.09
427.33	3335.26
427.52	3351.65
427.71	3248.66
427.90	3272.07
428.09	3407.82
428.28	3342.28
428.46	3330.58
428.65	3335.26
428.84	3492.08
429.03	3487.40
429.22	3337.60
429.40	3398.46
429.59	3590.38
429.78	3403.14
429.97	3300.16
430.16	3428.88
430.34	3489.74
430.53	3623.15
430.72	3595.06
430.91	3492.08
431.10	3440.59
431.28	3644.21
431.47	3688.68
431.66	3602.08
431.85	3597.40
432.03	3702.73
432.22	3740.18
432.41	3653.58
432.60	3826.78
432.79	3695.71
432.97	3691.02
433.16	3768.26
433.35	3833.80
433.54	3918.06
433.72	3927.42
433.91	3754.22
434.10	3789.33
434.28	3714.43
434.47	3967.21
434.66	3866.56
434.85	3812.73
435.03	4091.26
435.22	4182.54
435.41	4430.63
435.59	4278.50
435.78	4315.95
435.97	4044.45
436.16	4011.68
436.34	4032.74
436.53	3976.57
436.72	4159.13
436.90	4102.96
437.09	4215.30
437.28	4147.43
437.46	4133.39
437.65	4266.80
437.84	4229.35
438.02	4145.09
438.21	4077.21
438.40	4205.94
438.58	4376.80
438.77	4507.87
438.96	4362.76
439.14	4351.06
439.33	4512.55
439.52	4423.61
439.70	4461.06
439.89	4643.62
440.08	4652.98
440.26	4589.79
440.45	4531.28
440.63	4711.50
440.82	4830.87
441.01	4660.01
441.19	4716.18
441.38	4844.91
441.57	4816.82
441.75	4765.33
441.94	4957.25
442.12	4880.02
442.31	5020.45
442.50	5018.11
442.68	4985.34
442.87	5004.07
443.05	5114.07
443.24	5097.69
443.43	5015.77
443.61	5053.22
443.80	5366.85
443.98	5060.24
444.17	4842.57
444.35	5266.21
444.54	5224.08
444.73	5188.97
444.91	5219.39
445.10	5116.41
445.28	5013.43
445.47	5181.95
445.65	5191.31
445.84	5233.44
446.02	5242.80
446.21	5118.75
446.39	5146.84
446.58	5474.51
446.77	5240.46
446.95	5139.82
447.14	5294.29
447.32	5446.43
447.51	5240.46
447.69	5284.93
447.88	5427.70
448.06	5416.00
448.25	5259.18
448.43	5336.42
448.62	5254.50
448.80	5369.19
448.99	5308.34
449.17	5462.81
449.36	5504.94
449.54	5708.57
449.73	5511.96
449.91	5624.31
450.10	5636.01
450.28	5675.80
450.46	5708.57
450.65	5678.14
450.83	5671.12
451.02	5664.10
451.20	5867.72
451.39	5799.85
451.57	5607.92
451.76	5633.67
451.94	5706.23
452.13	5881.77
452.31	5781.12
452.49	5813.89
452.68	5858.36
452.86	5879.43
453.05	5813.89
453.23	5804.53
453.42	5994.11
453.60	5947.30
453.78	5778.78
453.97	5692.18
454.15	5989.43
454.34	6024.54
454.52	5954.32
454.70	6097.10
454.89	5991.77
455.07	6092.41
455.26	6076.03
455.44	6319.45
455.62	6108.80
455.81	6263.27
455.99	6258.59
456.17	6193.06
456.36	6256.25
456.54	6410.73
456.73	6403.71
456.91	6490.31
457.09	6516.05
457.28	6558.18
457.46	6420.09
457.64	6633.08
457.83	6558.18
458.01	6438.81
458.19	6560.52
458.38	6562.86
458.56	6583.93
458.74	6686.91
458.93	6464.56
459.11	6832.02
459.29	6644.78
459.48	6530.09
459.66	6698.61
459.84	6883.52
460.03	6890.54
460.21	6888.20
460.39	6729.04
460.57	6675.21
460.76	6832.02
460.94	6883.52
461.12	6918.62
461.31	6836.70
461.49	6853.09
461.67	7045.01
461.85	7145.66
462.04	6970.12
462.22	7531.84
462.40	7101.19
462.59	7077.78
462.77	6986.50
462.95	7290.77
463.13	7204.17
463.32	7143.32
463.50	7541.21
463.68	7241.62
463.86	7316.51
464.05	7236.94
464.23	7243.96
464.41	7433.54
464.59	7307.15
464.78	7375.03
464.96	7302.47
465.14	7213.53
465.32	7468.65
465.50	7531.84
465.69	7466.31
465.87	7368.01
466.05	7522.48
466.23	7431.20
466.41	7599.72
466.60	7723.77
466.78	7485.03
466.96	7513.12
467.14	7503.76
467.32	7517.80
467.51	7669.94
467.69	7569.29
467.87	7623.12
468.05	7761.22
468.23	7602.06
468.41	7969.52
468.60	7803.35
468.78	7911.01
468.96	7683.98
469.14	7824.41
469.32	8056.12
469.50	7545.89
469.69	7929.74
469.87	8016.33
470.05	8072.51
470.23	8109.96
470.41	8084.21
470.59	8133.36
470.77	8215.28
470.95	8063.15
471.14	8201.24
471.32	8180.17
471.50	8411.89
471.68	8250.39
471.86	8489.12
472.04	8257.41
472.22	8692.75
472.40	8315.92
472.58	8606.15
472.77	8388.48
472.95	8571.04
473.13	8828.50
473.31	8655.30
473.49	8582.74
473.67	8786.37
473.85	8769.99
474.03	8858.93
474.21	8987.66
474.39	9184.26
474.57	9078.94
474.75	9172.56
474.93	9107.02
475.12	8978.30
475.30	9334.06
475.48	9088.30
475.66	9172.56
475.84	9359.80
476.02	9298.95
476.20	9371.50
476.38	9495.55
476.56	9776.42
476.74	9790.46
476.92	9654.71
477.10	9699.18
477.28	9834.93
477.46	9764.72
477.64	9912.17
477.82	10148.56
478.00	10377.94
478.18	10249.21
478.36	10249.21
478.54	10434.11
478.72	10551.14
478.90	10602.63
479.08	10839.02
479.26	10717.31
479.44	10855.40
479.62	11009.88
479.80	10794.55
479.98	10785.19
480.16	11021.58
480.34	11129.25
480.52	11199.46
480.70	11431.18
480.88	11222.87
481.06	11513.10
481.24	11190.10
481.41	11580.97
481.59	11744.81
481.77	11838.43
481.95	11885.24
482.13	11948.43
482.31	11861.84
482.49	12276.11
482.67	12142.70
482.85	12533.57
483.03	12674.00
483.21	12669.32
483.39	12533.57
483.57	12718.47
483.74	12699.75
483.92	12945.50
484.10	12821.45
484.28	13406.59
484.46	13188.92
484.64	13467.44
484.82	13158.49
485.00	13547.02
485.18	13584.47
485.35	14071.30
485.53	13872.36
485.71	14139.18
485.89	14443.45
486.07	14356.85
486.25	14223.44
486.43	14253.86
486.61	14359.19
486.78	14813.25
486.96	14616.65
487.14	14939.64
487.32	14803.89
487.50	14827.29
487.68	15037.94
487.85	15161.99
488.03	15419.45
488.21	15625.42
488.39	15630.10
488.57	15641.80
488.75	15899.26
488.92	15943.73
489.10	16147.36
489.28	16224.59
489.46	16507.80
489.64	16175.44
489.81	16706.74
489.99	16451.63
490.17	16503.12
490.35	16966.54
490.53	16926.75
490.70	17090.59
490.88	17392.52
491.06	17399.54
491.24	17343.37
491.41	17156.13
491.59	17830.20
491.77	17689.77
491.95	18244.48
492.13	18010.42
492.30	17858.29
492.48	18061.91
492.66	18085.32
492.84	18174.26
493.01	18347.46
493.19	18499.59
493.37	18637.69
493.54	18925.57
493.72	19262.61
493.90	18679.82
494.08	19197.07
494.25	18988.77
494.43	19494.32
494.61	19501.34
494.79	19627.73
494.96	19620.71
495.14	19927.32
495.32	19686.25
495.49	20037.33
495.67	19985.83
495.85	20060.73
496.02	20365.00
496.20	20680.97
496.38	20671.61
496.55	20381.38
496.73	21003.97
496.91	20900.98
497.09	20683.31
497.26	20896.30
497.44	20931.41
497.62	21050.78
497.79	21179.51
497.97	21331.64
498.14	21591.44
498.32	21577.40
498.50	22005.72
498.67	22352.12
498.85	21687.40
499.03	22029.12
499.20	22260.84
499.38	22389.56
499.56	22375.52
499.73	22246.79
499.91	22469.14
500.08	22508.93
500.26	22635.32
500.44	22747.67
500.61	22881.08
500.79	23002.78
500.97	22899.80
501.14	23094.07
501.32	23122.15
501.49	22979.38
501.67	23105.77
501.84	23330.46
502.02	23129.17
502.20	23274.29
502.37	23400.68
502.55	23487.28
502.72	23438.12
502.90	23641.75
503.07	23662.82
503.25	23857.08
503.43	24013.90
503.60	23992.83
503.78	24156.67
503.95	23962.40
504.13	24175.39
504.30	24561.58
504.48	24144.97
504.65	24575.62
504.83	24816.70
505.01	24699.67
505.18	24669.25
505.36	24985.22
505.53	24636.48
505.71	24875.21
505.88	24512.43
506.06	24439.87
506.23	25514.18
506.41	25191.19
506.58	25294.17
506.76	25228.63
506.93	25303.53
507.11	25294.17
507.28	25809.09
507.46	25528.22
507.63	25769.30
507.81	26192.94
507.98	25766.96
508.16	25607.80
508.33	25776.32
508.50	25949.52
508.68	26148.46
508.85	26623.59
509.03	26328.69
509.20	26321.66
509.38	26787.43
509.55	26932.54
509.73	26572.10
509.90	26948.93
510.08	26771.05
510.25	26738.28
510.42	27257.88
510.60	26759.34
510.77	27220.43
510.95	27213.41
511.12	27199.37
511.30	27229.79
511.47	26948.93
511.64	27391.29
511.82	27711.94
511.99	27810.25
512.17	27934.29
512.34	27782.16
512.51	28252.61
512.69	27548.11
512.86	28037.28
513.04	28086.43
513.21	28135.58
513.38	28458.57
513.56	28458.57
513.73	27983.44
513.90	28119.20
514.08	28423.47
514.25	29006.26
514.43	28765.18
514.60	28723.05
514.77	28701.99
514.95	28549.85
515.12	28797.95
515.29	28989.88
515.47	29317.55
515.64	29097.54
515.81	29097.54
515.99	29450.96
516.16	29565.65
516.33	29532.88
516.51	29422.87
516.68	29631.18
516.85	29514.16
517.03	29640.54
517.20	29565.65
517.37	30089.93
517.54	29827.79
517.72	29591.39
517.89	29841.83
518.06	29816.08
518.24	30005.67
518.41	30251.42
518.58	30094.61
518.75	30000.99
518.93	30548.67
519.10	30263.13
519.27	30424.62
519.45	30225.68
519.62	30246.74
519.79	30485.48
519.96	30441.01
520.14	30691.44
520.31	30726.55
520.48	31101.04
520.65	31054.23
520.83	31138.49
521.00	31000.40
521.17	31065.93
521.34	31206.36
521.52	31501.27
521.69	31531.70
521.86	31482.55
522.03	31648.72
522.20	31842.99
522.38	31702.56
522.55	31475.52
522.72	31627.66
522.89	31386.58
523.07	32196.41
523.24	32109.81
523.41	31810.22
523.58	32025.55
523.75	32591.96
523.92	31625.32
524.10	32177.68
524.27	32336.84
524.44	32196.41
524.61	32510.04
524.78	32460.89
524.96	32783.88
525.13	32329.82
525.30	32591.96
525.47	32568.55
525.64	33221.56
525.81	32804.95
525.98	33029.64
526.16	33106.88
526.33	32842.40
526.50	33013.26
526.67	32884.53
526.84	32950.06
527.01	33102.20
527.18	33266.03
527.36	33184.12
527.53	33287.10
527.70	33752.87
527.87	33635.84
528.04	33354.97
528.21	33441.57
528.38	33619.46
528.55	33603.07
528.72	33675.63
528.89	33530.51
529.07	33860.53
529.24	33544.56
529.41	33825.42
529.58	34085.22
529.75	33624.14
529.92	33876.91
530.09	33717.76
530.26	34508.86
530.43	34543.97
530.60	33757.55
530.77	33785.63
530.94	34417.58
531.11	34160.12
531.28	34251.40
531.46	34274.80
531.63	33951.81
531.80	34864.62
531.97	34824.83
532.14	34410.56
532.31	34890.37
532.48	35105.70
532.65	34639.93
532.82	34359.06
532.99	34778.02
533.16	35143.14
533.33	34747.59
533.50	35440.39
533.67	35037.82
533.84	34824.83
534.01	35019.10
534.18	35051.86
534.35	35199.32
534.52	35093.99
534.69	35538.69
534.86	35571.46
535.03	35147.82
535.20	35639.34
535.37	35824.24
535.54	35824.24
535.71	35271.87
535.88	35264.85
536.05	35550.40
536.22	35985.74
536.38	36025.53
536.55	35791.47
536.72	36404.69
536.89	35728.28
537.06	35948.29
537.23	36144.89
537.40	35999.78
537.57	35725.94
537.74	36034.89
537.91	36168.30
538.08	36484.27
538.25	36187.02
538.42	36697.26
538.59	36613.00
538.75	35910.84
538.92	36580.23
539.09	36491.29
539.26	36428.10
539.43	36704.28
539.60	36603.64
539.77	36566.19
539.94	36760.45
540.11	37038.98
540.28	36795.56
540.44	37163.03
540.61	36891.52
540.78	37160.69
540.95	37668.58
541.12	37179.41
541.29	37572.62
541.46	37024.93
541.62	37589.00
541.79	37207.50
541.96	37263.67
542.13	37401.76
542.30	37467.30
542.47	37883.91
542.63	37701.35
542.80	37827.74
542.97	37710.71
543.14	37965.83
543.31	37750.50
543.48	37914.34
543.64	38061.79
543.81	38440.96
543.98	38745.23
544.15	38302.87
544.32	38204.56
544.48	38394.15
544.65	38373.08
544.82	38120.31
544.99	37996.26
545.16	38087.54
545.32	38377.76
545.49	39051.84
545.66	39763.36
545.83	39367.81
546.00	39606.55
546.16	38836.51
546.33	38347.34
546.50	38373.08
546.67	38731.18
546.83	38026.68
547.00	38672.67
547.17	38490.11
547.34	38302.87
547.50	38944.17
547.67	39005.03
547.84	38663.31
548.00	38749.91
548.17	39112.69
548.34	39079.92
548.51	39386.54
548.67	39042.48
548.84	38822.47
549.01	39075.24
549.18	38660.97
549.34	38813.10
549.51	39026.09
549.68	39164.18
549.84	38609.48
550.01	39290.57
550.18	38958.22
550.34	39274.19
550.51	39086.95
550.68	39533.99
550.84	39042.48
551.01	39604.20
551.18	39042.48
551.34	39063.54
551.51	38916.09
551.68	39264.83
551.84	39400.58
552.01	39512.92
552.18	39571.44
552.34	38930.13
552.51	39295.25
552.68	39021.41
552.84	39304.62
553.01	39138.44
553.18	39543.35
553.34	39688.46
553.51	39985.71
553.67	39721.23
553.84	39667.40
554.01	40048.91
554.17	39964.65
554.34	39639.31
554.51	39386.54
554.67	39700.17
554.84	39784.43
555.00	39695.49
555.17	39508.24
555.33	39927.20
555.50	39892.09
555.67	39779.74
555.83	40156.57
556.00	39711.87
556.16	40046.57
556.33	40055.93
556.50	39864.00
556.66	39981.03
556.83	39903.79
556.99	40505.31
557.16	39983.37
557.32	40030.18
557.49	40229.13
557.65	40144.87
557.82	40093.38
557.98	39999.76
558.15	40027.84
558.32	40336.79
558.48	39803.15
558.65	39901.45
558.81	40421.05
558.98	40081.67
559.14	40257.21
559.31	40491.27
559.47	40364.88
559.64	40233.81
559.80	40928.95
559.97	40474.88
560.13	40280.62
560.30	40851.71
560.46	40636.38
560.63	40701.92
560.79	40327.43
560.96	40058.27
561.12	40114.44
561.29	40325.09
561.45	40645.74
561.61	40730.00
561.78	40605.95
561.94	41120.87
562.11	40622.34
562.27	40765.11
562.44	40594.25
562.60	40896.18
562.77	40526.38
562.93	40561.48
563.10	40889.16
563.26	40844.69
563.42	40973.42
563.59	40900.86
563.75	41053.00
563.92	40844.69
564.08	40601.27
564.24	40748.73
564.41	40435.10
564.57	40643.40
564.74	40605.95
564.90	40865.75
565.07	40781.49
565.23	40664.47
565.39	41228.54
565.56	41312.80
565.72	40781.49
565.88	40865.75
566.05	41202.79
566.21	40935.97
566.38	40488.93
566.54	40444.46
566.70	41158.32
566.87	41563.23
567.03	41064.70
567.19	41287.05
567.36	40825.96
567.52	40900.86
567.68	40971.08
567.85	40708.94
568.01	40645.74
568.17	41181.73
568.34	41060.02
568.50	40952.35
568.66	41462.59
568.83	41528.13
568.99	40989.80
569.15	41045.97
569.32	41045.97
569.48	41081.08
569.64	40985.12
569.81	41420.46
569.97	41397.06
570.13	41219.17
570.30	41127.89
570.46	41528.13
570.62	41022.57
570.78	41146.62
570.95	41401.74
571.11	41282.37
571.27	40699.58
571.43	40931.29
571.60	41441.53
571.76	41167.68
571.92	41181.73
572.09	41254.28
572.25	41406.42
572.41	41001.50
572.57	41670.90
572.74	41598.34
572.90	40994.48
573.06	41511.74
573.22	41090.44
573.38	41422.80
573.55	40854.05
573.71	41560.89
573.87	41235.56
574.03	41244.92
574.20	40966.40
574.36	40669.15
574.52	41439.18
574.68	41439.18
574.84	41160.66
575.01	41617.07
575.17	41436.84
575.33	41500.04
575.49	41165.34
575.65	41539.83
575.82	41464.93
575.98	41282.37
576.14	41432.16
576.30	41418.12
576.46	41017.89
576.62	41455.57
576.79	41408.76
576.95	41535.15
577.11	41647.49
577.27	41483.66
577.43	41521.10
577.59	41312.80
577.75	41034.27
577.92	41010.87
578.08	40807.24
578.24	41041.29
578.40	41167.68
578.56	41172.36
578.72	41844.10
578.88	41666.22
579.04	41968.15
579.21	41799.63
579.37	41326.84
579.53	41680.26
579.69	41577.28
579.85	41200.45
580.01	41963.46
580.17	41151.30
580.33	41310.46
580.49	41610.04
580.65	41127.89
580.82	41748.14
580.98	41537.49
581.14	41441.53
581.30	41722.39
581.46	40921.93
581.62	41745.80
581.78	41085.76
581.94	41598.34
582.10	41146.62
582.26	41649.83
582.42	41698.98
582.58	41607.70
582.74	41766.86
582.90	41764.52
583.06	41867.50
583.22	41064.70
583.38	41413.44
583.54	41542.17
583.70	41200.45
583.86	41146.62
584.02	41179.39
584.18	41698.98
584.34	41940.06
584.50	42213.90
584.66	41373.65
584.82	41399.40
584.98	41242.58
585.14	41502.38
585.30	41174.70
585.46	41750.48
585.62	41102.15
585.78	41280.03
585.94	41361.95
586.10	41577.28
586.26	41596.00
586.42	42033.68
586.58	41783.24
586.74	41895.59
586.90	41331.52
587.06	41240.24
587.22	41359.61
587.38	41537.49
587.54	41530.47
587.70	41893.25
587.86	41769.20
588.02	41326.84
588.18	41701.32
588.34	41839.42
588.49	41600.68
588.65	41308.11
588.81	41785.58
588.97	41668.56
589.13	41383.01
589.29	41240.24
589.45	41801.97
589.61	42096.88
589.77	41586.64
589.93	41521.10
590.08	41703.67
590.24	41951.76
590.40	41872.18
590.56	42192.84
590.72	41572.60
590.88	41504.72
591.04	41684.94
591.20	41755.16
591.35	42174.11
591.51	42139.00
591.67	41731.75
591.83	42562.64
591.99	41647.49
592.15	41869.84
592.31	41579.62
592.46	41970.49
592.62	41696.64
592.78	41865.16
592.94	41841.76
593.10	41724.73
593.26	41897.93
593.41	42155.39
593.57	42131.98
593.73	41783.24
593.89	41996.23
594.05	41776.22
594.20	41567.91
594.36	41797.29
594.52	41741.11
594.68	41696.64
594.84	41642.81
594.99	41670.90
595.15	41691.96
595.31	42085.17
595.47	41794.95
595.62	41806.65
595.78	41926.02
595.94	41837.08
596.10	41614.72
596.25	41649.83
596.41	42005.59
596.57	41429.82
596.73	41631.11
596.88	41813.67
597.04	41745.80
597.20	41888.57
597.36	42148.37
597.51	41907.29
597.67	41570.25
597.83	41397.06
597.99	41635.79
598.14	41352.58
598.30	42012.62
598.46	41603.02
598.61	41968.15
598.77	41340.88
598.93	41741.11
599.09	41986.87
599.24	42277.10
599.40	42129.64
599.56	41921.34
599.71	41736.43
599.87	42120.28
600.03	41675.58
600.18	41893.25
600.34	41537.49
600.50	42019.64
600.65	41345.56
600.81	42094.53
600.97	41986.87
601.12	42150.71
601.28	42012.62
601.44	41783.24
601.59	42026.66
601.75	41708.35
601.91	41799.63
602.06	41972.83
602.22	42010.28
602.37	41296.41
602.53	41579.62
602.69	41958.78
602.84	41525.78
603.00	41769.20
603.16	41649.83
603.31	41991.55
603.47	41841.76
603.62	41748.14
603.78	42110.92
603.94	41546.85
604.09	41642.81
604.25	41460.25
604.40	41624.09
604.56	41808.99
604.71	41390.03
604.87	41525.78
605.03	41090.44
605.18	41347.90
605.34	42059.43
605.49	41385.35
605.65	41265.99
605.80	41022.57
605.96	41343.22
606.12	41153.64
606.27	41666.22
606.43	41523.44
606.58	42316.89
606.74	41530.47
606.89	41464.93
607.05	41570.25
607.20	41773.88
607.36	41549.19
607.51	41305.77
607.67	40942.99
607.82	41155.98
607.98	41273.01
608.13	41448.55
608.29	41240.24
608.44	41460.25
608.60	41315.14
608.75	41371.31
608.91	41315.14
609.06	41214.49
609.22	41069.38
609.37	40975.76
609.53	40942.99
609.68	41081.08
609.84	40954.69
609.99	41132.57
610.15	41256.62
610.30	41453.23
610.46	41158.32
610.61	41612.38
610.76	41914.31
610.92	41914.31
611.07	42139.00
611.23	42316.89
611.38	42419.87
611.54	41736.43
611.69	41516.42
611.84	41806.65
612.00	41354.93
612.15	40961.72
612.31	41591.32
612.46	41095.13
612.62	41509.40
612.77	40926.61
612.92	41289.39
613.08	41387.69
613.23	40954.69
613.39	40886.82
613.54	40730.00
613.69	40575.53
613.85	41015.55
614.00	40605.95
614.15	40938.31
614.31	41294.07
614.46	41116.19
614.62	40928.95
614.77	40978.10
614.92	40793.20
615.08	40985.12
615.23	40371.90
615.38	41546.85
615.54	40446.80
615.69	40533.40
615.84	40144.87
616.00	40299.34
616.15	40484.25
616.30	40470.20
616.46	40390.62
616.61	40196.36
616.76	40477.22
616.92	40210.40
617.07	40488.93
617.22	39913.16
617.37	39859.32
617.53	39931.88
617.68	40069.97
617.83	40161.25
617.99	39969.33
618.14	40006.78
618.29	40339.13
618.45	40243.17
618.60	40479.57
618.75	39854.64
618.90	39803.15
619.06	39906.13
619.21	39690.80
619.36	40353.18
619.51	39456.75
619.67	39405.26
619.82	39559.73
619.97	39845.28
620.12	39665.06
620.28	39377.17
620.43	39957.63
620.58	40072.31
620.73	39683.78
620.89	39899.11
621.04	39945.92
621.19	39501.22
621.34	39276.53
621.49	39213.34
621.65	39526.97
621.80	39491.86
621.95	39283.55
622.10	39608.89
622.25	39274.19
622.41	39058.86
622.56	39276.53
622.71	40004.44
622.86	39391.22
623.01	39573.78
623.16	39316.32
623.32	39051.84
623.47	38895.02
623.62	39000.35
623.77	39056.52
623.92	39318.66
624.07	39112.69
624.23	38976.94
624.38	39189.93
624.53	39243.76
624.68	39229.72
624.83	39342.06
624.98	39285.89
625.13	39035.45
625.29	39196.95
625.44	38740.55
625.59	38738.21
625.74	38761.61
625.89	38431.60
626.04	38319.25
626.19	38759.27
626.34	38955.88
626.49	38682.03
626.65	38286.48
626.80	39002.69
626.95	38988.64
627.10	38721.82
627.25	38480.75
627.40	38607.14
627.55	38122.65
627.70	38211.59
627.85	38108.60
628.00	38380.10
628.15	38312.23
628.30	38286.48
628.45	38363.72
628.60	38113.28
628.76	38223.29
628.91	38382.45
629.06	38824.81
629.21	38136.69
629.36	38497.13
629.51	38389.47
629.66	38216.27
629.81	38309.89
629.96	38024.34
630.11	37860.51
630.26	37460.27
630.41	37851.14
630.56	37581.98
630.71	37900.29
630.86	38480.75
631.01	38391.81
631.16	38204.56
631.31	38029.02
631.46	37579.64
631.61	38265.42
631.76	37296.44
631.91	37610.07
632.06	37717.73
632.21	37596.03
632.36	37635.81
632.51	37603.05
632.66	37757.52
632.81	37680.28
632.96	37542.19
633.10	37261.33
633.25	37347.93
633.40	37385.38
633.55	37532.83
633.70	37120.90
633.85	37549.21
634.00	37322.18
634.15	37074.09
634.30	37116.22
634.45	37010.89
634.60	37092.81
634.75	37394.74
634.90	36971.10
635.05	37448.57
635.19	36835.35
635.34	37371.33
635.49	37062.38
635.64	36886.84
635.79	36980.46
635.94	37055.36
636.09	36840.03
636.24	36835.35
636.39	36374.27
636.53	36800.24
636.68	36638.75
636.83	36519.38
636.98	37120.90
637.13	36655.13
637.28	36931.31
637.43	36818.97
637.57	37076.43
637.72	36589.59
637.87	37010.89
638.02	36748.75
638.17	36577.89
638.32	36552.15
638.46	36608.32
638.61	36163.62
638.76	36238.51
638.91	36594.28
639.06	36636.41
639.20	36231.49
639.35	36575.55
639.50	36652.79
639.65	36566.19
639.80	36472.57
639.94	36491.29
640.09	36549.81
640.24	36491.29
640.39	36556.83
640.54	36212.77
640.68	36055.95
640.83	36086.38
640.98	36245.54
641.13	35714.23
641.27	36219.79
641.42	36172.98
641.57	35988.08
641.72	36287.67
641.86	36130.85
642.01	35681.47
642.16	36091.06
642.31	35622.95
642.45	36077.02
642.60	35786.79
642.75	36102.76
642.90	35831.26
643.04	35501.25
643.19	35477.84
643.34	35667.42
643.48	35529.33
643.63	36039.57
643.78	35646.36
643.93	35934.24
644.07	35454.44
644.22	35742.32
644.37	35433.37
644.51	35534.01
644.66	35784.45
644.81	35424.01
644.95	35531.67
645.10	35377.20
645.25	35381.88
645.39	35222.72
645.54	35419.33
645.69	35435.71
645.83	35426.35
645.98	35330.39
646.13	35360.81
646.27	35721.26
646.42	35466.14
646.57	35587.85
646.71	35651.04
646.86	35459.12
647.00	35440.39
647.15	35262.51
647.30	34967.60
647.44	35255.49
647.59	35365.49
647.74	35189.95
647.88	35204.00
648.03	35215.70
648.17	35189.95
648.32	35124.42
648.47	35379.54
648.61	34911.43
648.76	35391.24
648.90	35189.95
649.05	34981.65
649.20	34756.96
649.34	34724.19
649.49	34740.57
649.63	34927.81
649.78	35140.80
649.92	34529.92
650.07	34897.39
650.21	35058.88
650.36	35058.88
650.51	34462.05
650.65	34733.55
650.80	34866.96
650.94	34352.04
651.09	34426.94
651.23	34597.80
651.38	34440.98
651.52	34352.04
651.67	34555.67
651.81	34368.43
651.96	34728.87
652.10	34209.27
652.25	34567.37
652.39	34293.53
652.54	34534.60
652.68	34401.19
652.83	34405.88
652.97	34429.28
653.12	34550.99
653.26	34555.67
653.41	33984.58
653.55	34298.21
653.70	33963.51
653.84	34506.52
653.99	34108.63
654.13	34075.86
654.27	34052.45
654.42	33986.92
654.56	34092.24
654.71	34148.42
654.85	33919.04
655.00	33795.00
655.14	34160.12
655.29	33834.78
655.43	33715.42
655.57	33642.86
655.72	33649.88
655.86	33771.59
656.01	33455.62
656.15	33364.34
656.30	33867.55
656.44	33392.42
656.58	33476.68
656.73	33537.54
656.87	33256.67
657.01	33890.96
657.16	33696.69
657.30	33448.60
657.45	33472.00
657.59	33680.31
657.73	33378.38
657.88	33659.24
658.02	33799.68
658.16	33490.73
658.31	33390.08
658.45	32774.52
658.60	32840.06
658.74	33111.56
658.88	33029.64
659.03	33230.93
659.17	33097.52
659.31	33549.24
659.46	33001.55
659.60	33319.87
659.74	32767.50
659.89	33046.02
660.03	32769.84
660.17	32694.94
660.32	32673.88
660.46	32823.67
660.60	32491.32
660.74	32650.47
660.89	32336.84
661.03	32685.58
661.17	32318.12
661.32	32524.08
661.46	32896.23
661.60	32704.31
661.74	32786.22
661.89	32414.08
662.03	32402.38
662.17	32180.03
662.31	32411.74
662.46	32297.05
662.60	32301.73
662.74	31899.16
662.88	31653.40
663.03	31814.90
663.17	31864.05
663.31	31704.90
663.45	31548.08
663.60	31777.45
663.74	31601.91
663.88	31714.26
664.02	31608.93
664.17	32264.28
664.31	31899.16
664.45	31314.03
664.59	31882.78
664.73	31314.03
664.88	31477.86
665.02	31117.42
665.16	31304.67
665.30	31115.08
665.44	30993.37
665.59	31250.83
665.73	30925.50
665.87	31229.77
666.01	31236.79
666.15	31101.04
666.29	30986.35
666.44	31290.62
666.58	30677.40
666.72	30735.92
666.86	31126.78
667.00	30899.75
667.14	30520.59
667.28	30555.69
667.43	30904.43
667.57	30295.89
667.71	30171.85
667.85	30749.96
667.99	30520.59
668.13	30359.09
668.27	30459.73
668.41	30522.93
668.56	30284.19
668.70	30232.70
668.84	30326.32
668.98	30029.07
669.12	29968.22
669.26	29979.92
669.40	29944.81
669.54	30333.34
669.68	30101.63
669.82	29708.42
669.96	29584.37
670.10	29642.88
670.25	29603.10
670.39	29736.51
670.53	29357.34
670.67	29495.43
670.81	29886.30
670.95	29715.44
671.09	29523.52
671.23	29345.64
671.37	29563.31
671.51	29259.04
671.65	29575.01
671.79	29008.60
671.93	29207.55
672.07	29254.36
672.21	28465.60
672.35	28716.03
672.49	28727.74
672.63	29153.71
672.77	28584.96
672.91	28701.99
673.05	28418.78
673.19	28655.18
673.33	28788.59
673.47	28636.45
673.61	28573.26
673.75	28233.88
673.89	28725.39
674.03	28381.34
674.17	28121.54
674.31	28554.54
674.45	28065.36
674.59	27618.32
674.73	27854.72
674.87	28030.26
675.01	27957.70
675.15	27728.33
675.29	28056.00
675.43	27908.55
675.56	27180.64
675.70	27917.91
675.84	27910.89
675.98	26977.01
676.12	27395.97
676.26	27901.53
676.40	27218.09
676.54	26904.46
676.68	26878.71
676.82	27014.46
676.96	27199.37
677.10	26979.36
677.23	26649.34
677.37	26499.55
677.51	26260.81
677.65	26349.75
677.79	26281.88
677.93	26143.78
678.07	26127.40
678.21	25759.94
678.34	26305.28
678.48	26195.28
678.62	26169.53
678.76	25544.61
678.90	25694.40
679.04	25689.72
679.18	25956.54
679.31	25495.46
679.45	25172.46
679.59	25696.74
679.73	25411.20
679.87	24954.79
680.00	25319.92
680.14	25238.00
680.28	25132.67
680.42	24833.08
680.56	25092.88
680.70	25259.06
680.83	25088.20
680.97	24669.25
681.11	25123.31
681.25	24641.16
681.39	24631.80
681.52	24320.51
681.66	24507.75
681.80	24044.32
681.94	24116.88
682.07	24362.64
682.21	24140.29
682.35	23857.08
682.49	23843.04
682.62	23683.88
682.76	23566.85
682.90	24196.46
683.04	24056.03
683.17	23587.92
683.31	23461.53
683.45	23646.43
683.59	23363.23
683.72	23285.99
683.86	23152.58
684.00	23234.50
684.13	22946.61
684.27	23040.23
684.41	23040.23
684.55	22869.37
684.68	22771.07
684.82	22792.14
684.96	22434.03
685.09	22256.15
685.23	22560.42
685.37	22565.10
685.50	22782.77
685.64	22431.69
685.78	22167.21
685.91	22038.48
686.05	22286.58
686.19	22082.95
686.32	21994.01
686.46	21759.96
686.60	21486.12
686.73	21666.34
686.87	21673.36
687.01	21542.29
687.14	21502.50
687.28	21256.75
687.42	21245.04
687.55	21074.18
687.69	21326.96
687.82	21132.70
687.96	20910.35
688.10	20968.86
688.23	20996.95
688.37	20620.12
688.50	20435.22
688.64	20690.34
688.78	20760.55
688.91	20240.95
689.05	20362.66
689.18	20247.97
689.32	20116.90
689.46	20175.42
689.59	20065.41
689.73	20273.72
689.86	19807.95
690.00	19943.70
690.13	19763.48
690.27	20034.99
690.41	19936.68
690.54	19630.07
690.68	19545.81
690.81	19838.38
690.95	19641.78
691.08	19496.66
691.22	19648.80
691.35	19262.61
691.49	19262.61
691.62	19176.01
691.76	18897.49
691.89	18703.22
692.03	18700.88
692.16	18878.76
692.30	18499.59
692.43	18473.85
692.57	18347.46
692.70	18476.19
692.84	18457.46
692.97	18136.81
693.11	18202.35
693.24	18188.30
693.38	17930.84
693.51	18178.94
693.65	18120.43
693.78	17858.29
693.92	18050.21
694.05	17783.39
694.19	18008.08
694.32	17752.96
694.45	17397.20
694.59	17205.28
694.72	17191.23
694.86	17233.36
694.99	17481.46
695.13	17078.89
695.26	17179.53
695.39	17198.26
695.53	17240.39
695.66	16940.80
695.80	16999.31
695.93	16636.53
696.07	16645.89
696.20	16847.18
696.33	16758.24
696.47	16734.83
696.60	16498.44
696.73	16367.37
696.87	16524.18
697.00	16360.34
697.14	15887.56
697.27	16217.57
697.40	16051.39
697.54	15990.54
697.67	15611.37
697.80	15957.77
697.94	15704.99
698.07	15648.82
698.21	15616.05
698.34	15941.39
698.47	15515.41
698.61	15307.10
698.74	15709.68
698.87	15372.64
699.01	15150.29
699.14	15171.35
699.27	15147.95
699.40	15176.03
699.54	14951.34
699.67	14967.73
699.80	14518.34
699.94	14534.73
700.07	14817.93
700.20	14520.68
700.34	14478.55
700.47	14567.49
700.60	14527.71
700.73	14759.42
700.87	14335.78
701.00	14176.62
701.13	14434.08
701.26	14265.57
701.40	14265.57
701.53	14211.73
701.66	14068.96
701.79	14155.56
701.93	13909.80
702.06	14209.39
702.19	13767.03
702.32	13858.31
702.46	13820.86
702.59	13425.31
702.72	13439.36
702.85	13584.47
702.99	13362.12
703.12	13242.75
703.25	13200.62
703.38	13170.19
703.51	13032.10
703.65	13348.08
703.78	13319.99
703.91	13209.98
704.04	13181.90
704.17	12922.10
704.31	12865.92
704.44	12786.35
704.57	12856.56
704.70	12730.17
704.83	12615.49
704.96	12442.29
705.10	12348.67
705.23	12418.88
>>>>>End Processed Spectral Data<<<<<
