SpectraSuite Data File
++++++++++++++++++++++++++++++++++++
Date: Fri Oct 04 11:39:16 GMT-05:00 2013
User: price-jones
Dark Spectrum Present: No
Reference Spectrum Present: No
Number of Sampled Component Spectra: 1
Spectrometers: USB2+H05261
Integration Time (usec): 100000 (USB2+H05261)
Spectra Averaged: 1 (USB2+H05261)
Boxcar Smoothing: 0 (USB2+H05261)
Correct for Electrical Dark: No (USB2+H05261)
Strobe/Lamp Enabled: No (USB2+H05261)
Correct for Detector Non-linearity: No (USB2+H05261)
Correct for Stray Light: No (USB2+H05261)
Number of Pixels in Processed Spectrum: 2048
>>>>>Begin Processed Spectral Data<<<<<
365.73	32.77
365.92	32.77
366.12	32.77
366.32	0.00
366.52	37.45
366.72	0.00
366.91	0.00
367.11	0.00
367.31	0.00
367.51	0.00
367.70	0.00
367.90	0.00
368.10	37.45
368.30	0.00
368.49	0.00
368.69	0.00
368.89	0.00
369.09	0.00
369.28	0.00
369.48	0.00
369.68	9.36
369.87	74.90
370.07	0.00
370.27	102.98
370.47	25.75
370.66	182.56
370.86	198.95
371.06	236.39
371.25	348.74
371.45	337.04
371.65	379.17
371.84	337.04
372.04	212.99
372.24	271.50
372.44	194.26
372.63	297.25
372.83	332.36
373.03	311.29
373.22	334.70
373.42	257.46
373.62	383.85
373.81	351.08
374.01	334.70
374.21	489.17
374.40	341.72
374.60	315.97
374.79	351.08
374.99	390.87
375.19	337.04
375.38	308.95
375.58	379.17
375.78	381.51
375.97	383.85
376.17	390.87
376.37	360.44
376.56	390.87
376.76	292.57
376.95	407.25
377.15	409.59
377.35	358.10
377.54	395.55
377.74	428.32
377.93	395.55
378.13	383.85
378.33	421.30
378.52	433.00
378.72	395.55
378.91	379.17
379.11	407.25
379.31	540.66
379.50	456.40
379.70	376.83
379.89	421.30
380.09	418.96
380.28	393.21
380.48	454.06
380.68	409.59
380.87	430.66
381.07	514.92
381.26	498.53
381.46	489.17
381.65	519.60
381.85	475.13
382.04	512.58
382.24	395.55
382.43	444.70
382.63	404.91
382.83	500.87
383.02	550.03
383.22	519.60
383.41	442.36
383.61	430.66
383.80	493.85
384.00	540.66
384.19	505.56
384.39	615.56
384.58	472.79
384.78	526.62
384.97	550.03
385.17	472.79
385.36	571.09
385.56	596.84
385.75	505.56
385.95	603.86
386.14	575.77
386.34	564.07
386.53	484.49
386.72	592.16
386.92	641.31
387.11	617.90
387.31	573.43
387.50	526.62
387.70	510.24
387.89	517.26
388.09	503.22
388.28	543.00
388.48	580.45
388.67	685.78
388.86	575.77
389.06	645.99
389.25	578.11
389.45	620.24
389.64	545.34
389.84	645.99
390.03	690.46
390.22	550.03
390.42	692.80
390.61	676.41
390.81	578.11
391.00	587.47
391.19	674.07
391.39	615.56
391.58	631.94
391.78	765.36
391.97	664.71
392.16	653.01
392.36	755.99
392.55	699.82
392.75	699.82
392.94	699.82
393.13	685.78
393.33	643.65
393.52	690.46
393.71	741.95
393.91	723.23
394.10	779.40
394.29	777.06
394.49	702.16
394.68	805.14
394.88	837.91
395.07	828.55
395.26	833.23
395.46	737.27
395.65	800.46
395.84	793.44
396.04	795.78
396.23	849.61
396.42	856.64
396.62	889.40
396.81	800.46
397.00	770.04
397.19	912.81
397.39	856.64
397.58	863.66
397.77	840.25
397.97	858.98
398.16	880.04
398.35	931.53
398.55	877.70
398.74	856.64
398.93	968.98
399.12	924.51
399.32	954.94
399.51	870.68
399.70	1008.77
399.90	954.94
400.09	1004.09
400.28	1071.97
400.47	1025.15
400.67	976.00
400.86	1034.52
401.05	976.00
401.24	1088.35
401.44	954.94
401.63	1053.24
401.82	1095.37
402.01	983.02
402.21	1132.82
402.40	1081.33
402.59	1067.28
402.78	1020.47
402.97	1090.69
403.17	1165.59
403.36	1142.18
403.55	1111.75
403.74	1207.72
403.93	1198.35
404.13	1247.51
404.32	1210.06
404.51	1294.32
404.70	1203.04
404.89	1273.25
405.09	1238.14
405.28	1226.44
405.47	1249.85
405.66	1296.66
405.85	1231.12
406.05	1245.16
406.24	1252.19
406.43	1315.38
406.62	1331.76
406.81	1397.30
407.00	1380.92
407.20	1409.00
407.39	1406.66
407.58	1355.17
407.77	1397.30
407.96	1486.24
408.15	1458.15
408.34	1425.39
408.54	1462.83
408.73	1558.80
408.92	1533.05
409.11	1549.43
409.30	1481.56
409.49	1511.99
409.68	1582.20
409.87	1598.59
410.07	1605.61
410.26	1551.78
410.45	1591.56
410.64	1717.95
410.83	1687.53
411.02	1568.16
411.21	1750.72
411.40	1811.57
411.59	1706.25
411.78	1760.08
411.98	1806.89
412.17	1750.72
412.36	1746.04
412.55	1865.41
412.74	1874.77
412.93	1790.51
413.12	1804.55
413.31	2038.61
413.50	1984.77
413.69	1937.96
413.88	2148.61
414.07	2090.10
414.26	2005.84
414.45	2195.42
414.64	1998.82
414.83	2143.93
415.02	2118.18
415.22	2115.84
415.41	2317.13
415.60	1947.33
415.79	2242.23
415.98	2143.93
416.17	2277.34
416.36	2136.91
416.55	2340.54
416.74	2377.98
416.93	2420.11
417.12	2499.69
417.31	2356.92
417.50	2382.67
417.69	2370.96
417.88	2413.09
418.07	2415.43
418.26	2382.67
418.45	2492.67
418.64	2558.21
418.83	2553.52
419.02	2605.02
419.21	2562.89
419.39	2530.12
419.58	2452.88
419.77	2417.77
419.96	2733.75
420.15	2647.15
420.34	2640.12
420.53	2710.34
420.72	2668.21
420.91	2605.02
421.10	2757.15
421.29	2719.70
421.48	2637.78
421.67	2729.06
421.86	2794.60
422.05	2860.13
422.24	2698.64
422.43	2782.90
422.61	2871.84
422.80	2871.84
422.99	2890.56
423.18	2890.56
423.37	2960.78
423.56	2911.63
423.75	2839.07
423.94	2719.70
424.13	2569.91
424.32	2810.98
424.50	2928.01
424.69	2928.01
424.88	2803.96
425.07	2867.16
425.26	2775.88
425.45	2925.67
425.64	2888.22
425.83	2909.29
426.01	3082.49
426.20	2916.31
426.39	2991.20
426.58	2918.65
426.77	2939.71
426.96	3019.29
427.15	3096.53
427.33	3042.70
427.52	2972.48
427.71	3126.96
427.90	3131.64
428.09	3145.68
428.28	3080.14
428.46	3145.68
428.65	3187.81
428.84	3096.53
429.03	3222.92
429.22	3197.17
429.40	3229.94
429.59	3178.45
429.78	3129.30
429.97	3066.10
430.16	3094.19
430.34	3307.18
430.53	3337.60
430.72	3342.28
430.91	3339.94
431.10	3297.81
431.28	3510.80
431.47	3447.61
431.66	3368.03
431.85	3534.21
432.03	3574.00
432.22	3578.68
432.41	3412.50
432.60	3562.30
432.79	3574.00
432.97	3463.99
433.16	3588.04
433.35	3473.36
433.54	3751.88
433.72	3583.36
433.91	3503.78
434.10	3616.13
434.28	3503.78
434.47	3742.52
434.66	3660.60
434.85	3747.20
435.03	3786.99
435.22	3948.48
435.41	4299.56
435.59	4028.06
435.78	3948.48
435.97	4065.51
436.16	3899.33
436.34	3817.41
436.53	3866.56
436.72	3990.61
436.90	3754.22
437.09	3915.72
437.28	3843.16
437.46	3880.61
437.65	3964.87
437.84	3861.88
438.02	3943.80
438.21	4007.00
438.40	4065.51
438.58	4140.41
438.77	4159.13
438.96	4177.86
439.14	4095.94
439.33	4191.90
439.52	4154.45
439.70	4170.83
439.89	4353.40
440.08	4318.29
440.26	4362.76
440.45	4318.29
440.63	4437.66
440.82	4479.79
441.01	4423.61
441.19	4552.34
441.38	4662.35
441.57	4734.90
441.75	4809.80
441.94	4758.31
442.12	4737.24
442.31	4725.54
442.50	4732.56
442.68	4587.45
442.87	4608.51
443.05	4685.75
443.24	4915.12
443.43	4816.82
443.61	5006.41
443.80	4992.36
443.98	4751.29
444.17	4667.03
444.35	4943.21
444.54	4947.89
444.73	4985.34
444.91	4835.55
445.10	4954.91
445.28	4961.94
445.47	5130.45
445.65	4889.38
445.84	4861.29
446.02	4938.53
446.21	4975.98
446.39	5111.73
446.58	5090.67
446.77	5078.96
446.95	4823.84
447.14	4873.00
447.32	5006.41
447.51	5116.41
447.69	5029.81
447.88	5177.26
448.06	5130.45
448.25	5146.84
448.43	5111.73
448.62	5083.64
448.80	4973.64
448.99	5104.71
449.17	5273.23
449.36	5263.86
449.54	5102.37
449.73	5343.44
449.91	5153.86
450.10	5357.49
450.28	5387.91
450.46	5221.74
450.65	5224.08
450.83	5404.30
451.02	5451.11
451.20	5493.24
451.39	5387.91
451.57	5430.04
451.76	5514.30
451.94	5380.89
452.13	5617.29
452.31	5472.17
452.49	5437.06
452.68	5497.92
452.86	5483.88
453.05	5504.94
453.23	5631.33
453.42	5516.64
453.60	5577.50
453.78	5453.45
453.97	5636.01
454.15	5568.13
454.34	5507.28
454.52	5434.72
454.70	5647.71
454.89	5685.16
455.07	5675.80
455.26	5785.80
455.44	5804.53
455.62	5727.29
455.81	5877.09
455.99	6033.90
456.17	5937.94
456.36	5944.96
456.54	5989.43
456.73	5937.94
456.91	6115.82
457.09	6064.33
457.28	6221.14
457.46	6038.58
457.64	6239.87
457.83	6338.17
458.01	6129.86
458.19	6307.74
458.38	6307.74
458.56	6413.07
458.74	6462.22
458.93	6265.61
459.11	6258.59
459.29	6387.32
459.48	6459.88
459.66	6427.11
459.84	6607.33
460.03	6572.22
460.21	6441.15
460.39	6382.64
460.57	6520.73
460.76	6640.10
460.94	6480.94
461.12	6485.62
461.31	6572.22
461.49	6530.09
461.67	6619.04
461.85	6750.10
462.04	6691.59
462.22	7108.21
462.40	7002.88
462.59	6995.86
462.77	6799.26
462.95	6913.94
463.13	6869.47
463.32	6834.36
463.50	7012.24
463.68	7012.24
463.86	7014.59
464.05	6792.23
464.23	6967.77
464.41	6970.12
464.59	6892.88
464.78	7117.57
464.96	7037.99
465.14	6979.48
465.32	7056.72
465.50	7171.40
465.69	7124.59
465.87	7206.51
466.05	7234.60
466.23	7136.29
466.41	7435.88
466.60	7492.05
466.78	7239.28
466.96	7171.40
467.14	7370.35
467.32	7531.84
467.51	7468.65
467.69	7300.13
467.87	7307.15
468.05	7304.81
468.23	7318.86
468.41	7403.11
468.60	7442.90
468.78	7625.47
468.96	7412.48
469.14	7456.95
469.32	7456.95
469.50	7379.71
469.69	7681.64
469.87	7583.34
470.05	7829.09
470.23	7627.81
470.41	7510.78
470.59	7782.28
470.77	7669.94
470.95	7943.78
471.14	8070.17
471.32	7934.42
471.50	7978.89
471.68	8023.36
471.86	8107.62
472.04	8023.36
472.22	8255.07
472.40	7985.91
472.58	8238.69
472.77	8168.47
472.95	8358.05
473.13	8465.72
473.31	8243.37
473.49	8236.35
473.67	8383.80
473.85	8388.48
474.03	8695.09
474.21	8446.99
474.39	8580.40
474.57	8748.92
474.75	8765.31
474.93	8830.84
475.12	8730.20
475.30	8814.46
475.48	8779.35
475.66	8959.57
475.84	8861.27
476.02	8875.31
476.20	8975.95
476.38	9179.58
476.56	9366.82
476.74	9303.63
476.92	9280.22
477.10	9296.61
477.28	9488.53
477.46	9359.80
477.64	9415.98
477.82	9699.18
478.00	9717.90
478.18	9781.10
478.36	9860.68
478.54	10115.80
478.72	9839.61
478.90	10078.35
479.08	10214.10
479.26	10230.48
479.44	10387.30
479.62	10523.05
479.80	10558.16
479.98	10576.88
480.16	10740.72
480.34	10832.00
480.52	10890.51
480.70	11080.10
480.88	10927.96
481.06	10998.18
481.24	11012.22
481.41	11147.97
481.59	11138.61
481.77	11414.79
481.95	11396.07
482.13	11576.29
482.31	11672.25
482.49	11559.91
482.67	11721.40
482.85	11985.88
483.03	12035.03
483.21	12180.15
483.39	12182.49
483.57	12461.01
483.74	12308.88
483.92	12587.40
484.10	12435.27
484.28	12524.21
484.46	12795.71
484.64	13123.38
484.82	12959.55
485.00	12973.59
485.18	13048.49
485.35	13551.70
485.53	13341.05
485.71	13633.62
485.89	13603.19
486.07	13745.97
486.25	13565.74
486.43	13813.84
486.61	13895.76
486.78	14178.97
486.96	14342.80
487.14	14464.51
487.32	14429.40
487.50	14548.77
487.68	14406.00
487.85	14918.57
488.03	14799.21
488.21	15283.70
488.39	15379.66
488.57	15033.26
488.75	15267.31
488.92	15445.20
489.10	15597.33
489.28	15583.29
489.46	15910.96
489.64	15807.98
489.81	16390.77
489.99	16231.62
490.17	16173.10
490.35	16341.62
490.53	16397.79
490.70	16585.04
490.88	16671.64
491.06	16968.88
491.24	16676.32
491.41	17046.12
491.59	16823.77
491.77	17032.08
491.95	17418.27
492.13	17446.35
492.30	17642.96
492.48	17334.01
492.66	17584.44
492.84	17944.89
493.01	18164.90
493.19	18003.40
493.37	18129.79
493.54	18429.38
493.72	18494.91
493.90	18302.99
494.08	18565.13
494.25	18841.31
494.43	18752.37
494.61	18757.05
494.79	19042.60
494.96	18918.55
495.14	19316.44
495.32	19168.99
495.49	19454.53
495.67	19407.72
495.85	19765.82
496.02	19775.19
496.20	19726.04
496.38	19669.86
496.55	19910.94
496.73	20393.09
496.91	20327.55
497.09	20198.82
497.26	20566.29
497.44	20491.39
497.62	20322.87
497.79	20798.00
497.97	20669.27
498.14	21179.51
498.32	21341.00
498.50	21371.43
498.67	21834.86
498.85	21214.62
499.03	21268.45
499.20	21280.15
499.38	21364.41
499.56	21909.75
499.73	21720.17
499.91	22169.55
500.08	22061.89
500.26	21827.84
500.44	21654.64
500.61	22094.66
500.79	21984.65
500.97	22132.11
501.14	22658.73
501.32	23021.51
501.49	22249.13
501.67	22368.50
501.84	22604.89
502.02	22640.00
502.20	22970.02
502.37	23108.11
502.55	22876.40
502.72	23491.96
502.90	23468.55
503.07	22829.59
503.25	23307.05
503.43	23274.29
503.60	23381.95
503.78	23449.83
503.95	23758.78
504.13	23592.60
504.30	23920.28
504.48	23934.32
504.65	23924.96
504.83	24287.74
505.01	24140.29
505.18	24201.14
505.36	24474.98
505.53	24566.26
505.71	24154.33
505.88	24582.65
506.06	24072.41
506.23	24533.50
506.41	24662.22
506.58	24603.71
506.76	25081.18
506.93	24985.22
507.11	24812.02
507.28	25256.72
507.46	24992.24
507.63	25071.82
507.81	25654.61
507.98	25270.76
508.16	25411.20
508.33	25242.68
508.50	25811.43
508.68	25579.71
508.85	26202.30
509.03	25495.46
509.20	25717.81
509.38	25933.14
509.55	26274.85
509.73	26167.19
509.90	26611.89
510.08	26504.23
510.25	26307.62
510.42	26434.01
510.60	27014.46
510.77	26663.38
510.95	27082.34
511.12	26492.52
511.30	26637.64
511.47	26728.92
511.64	27082.34
511.82	26881.05
511.99	26981.70
512.17	27087.02
512.34	26984.04
512.51	27489.59
512.69	27374.91
512.86	27623.00
513.04	27548.11
513.21	27611.30
513.38	27821.95
513.56	27910.89
513.73	27793.86
513.90	28229.20
514.08	27833.65
514.25	28313.46
514.43	27950.68
514.60	28048.98
514.77	28166.01
514.95	28694.97
515.12	28273.67
515.29	28371.97
515.47	28404.74
515.64	28655.18
515.81	28690.29
515.99	29095.20
516.16	29029.66
516.33	28900.94
516.51	29151.37
516.68	28966.47
516.85	28982.85
517.03	29270.74
517.20	29223.93
517.37	29507.13
517.54	29649.91
517.72	29479.05
517.89	29535.22
518.06	29523.52
518.24	29687.36
518.41	29530.54
518.58	29518.84
518.75	30075.88
518.93	30118.01
519.10	29675.65
519.27	30015.03
519.45	29703.74
519.62	29827.79
519.79	30092.27
519.96	29921.41
520.14	30347.39
520.31	30349.73
520.48	30483.14
520.65	30815.49
520.83	30796.77
521.00	30801.45
521.17	30588.46
521.34	30848.26
521.52	30888.05
521.69	31398.29
521.86	31201.68
522.03	31302.32
522.20	31206.36
522.38	31028.48
522.55	31517.65
522.72	31269.56
522.89	31379.56
523.07	31761.07
523.24	31477.86
523.41	31515.31
523.58	31915.54
523.75	31634.68
523.92	31821.92
524.10	31950.65
524.27	31608.93
524.44	32009.17
524.61	32407.06
524.78	32299.39
524.96	32084.06
525.13	32053.64
525.30	32535.79
525.47	31983.42
525.64	32098.11
525.81	32514.72
525.98	32699.62
526.16	32573.24
526.33	32285.35
526.50	32734.73
526.67	32886.87
526.84	32978.15
527.01	32627.07
527.18	33031.98
527.36	32975.81
527.53	33167.73
527.70	33500.09
527.87	33029.64
528.04	33310.50
528.21	33394.76
528.38	33560.94
528.55	33612.43
528.72	33645.20
528.89	33223.90
529.07	33387.74
529.24	33436.89
529.41	33837.12
529.58	33537.54
529.75	33635.84
529.92	33495.41
530.09	33816.06
530.26	33867.55
530.43	33729.46
530.60	33663.93
530.77	33989.26
530.94	34478.43
531.11	34153.10
531.28	33893.30
531.46	34190.55
531.63	34309.91
531.80	34197.57
531.97	34148.42
532.14	34279.49
532.31	34167.14
532.48	34845.90
532.65	34361.40
532.82	34483.11
532.99	34728.87
533.16	34710.14
533.33	35161.87
533.50	35058.88
533.67	35093.99
533.84	34635.25
534.01	34614.18
534.18	34553.33
534.35	35295.28
534.52	35082.29
534.69	35306.98
534.86	35573.80
535.03	35414.65
535.20	35449.75
535.37	35388.90
535.54	35522.31
535.71	35124.42
535.88	35314.00
536.05	35405.28
536.22	35934.24
536.38	35679.13
536.55	35653.38
536.72	35957.65
536.89	35796.15
537.06	35667.42
537.23	36240.86
537.40	36004.46
537.57	36062.97
537.74	35840.62
537.91	36481.93
538.08	36699.60
538.25	36332.14
538.42	36343.84
538.59	36828.33
538.75	36205.75
538.92	36582.57
539.09	36189.36
539.26	36706.62
539.43	36641.09
539.60	36631.72
539.77	36811.95
539.94	37010.89
540.11	36720.66
540.28	36587.25
540.44	36980.46
540.61	36718.32
540.78	36823.65
540.95	36809.61
541.12	37497.72
541.29	37429.85
541.46	37455.59
541.62	37446.23
541.79	37083.45
541.96	37102.17
542.13	37420.48
542.30	37359.63
542.47	37654.54
542.63	37876.89
542.80	37769.22
542.97	37916.68
543.14	37706.03
543.31	37942.42
543.48	37970.51
543.64	37968.17
543.81	38124.99
543.98	38433.94
544.15	38698.42
544.32	38574.37
544.48	38546.28
544.65	38431.60
544.82	38464.36
544.99	38115.62
545.16	38490.11
545.32	38281.80
545.49	38630.54
545.66	39428.66
545.83	39491.86
546.00	39758.68
546.16	38646.93
546.33	38775.66
546.50	37949.45
546.67	39012.05
546.83	38195.20
547.00	38485.43
547.17	38820.13
547.34	39356.11
547.50	38714.80
547.67	38813.10
547.84	39021.41
548.00	38883.32
548.17	38871.62
548.34	38628.20
548.51	39026.09
548.67	38974.60
548.84	39154.82
549.01	39496.54
549.18	39400.58
549.34	39122.05
549.51	39571.44
549.68	39227.38
549.84	39285.89
550.01	39171.21
550.18	39096.31
550.34	39875.71
550.51	39594.84
550.68	39655.70
550.84	39145.46
551.01	39903.79
551.18	39379.51
551.34	39494.20
551.51	39416.96
551.68	39611.23
551.84	39889.75
552.01	39847.62
552.18	39489.52
552.34	39098.65
552.51	39770.38
552.68	39709.53
552.84	40058.27
553.01	39723.57
553.18	39810.17
553.34	39751.66
553.51	39484.84
553.67	40203.38
553.84	40257.21
554.01	40287.64
554.17	40116.78
554.34	39903.79
554.51	40385.94
554.67	40048.91
554.84	40533.40
555.00	40275.94
555.17	39793.79
555.33	40554.46
555.50	40222.11
555.67	40404.67
555.83	40299.34
556.00	40367.22
556.16	40692.55
556.33	40594.25
556.50	40109.76
556.66	40273.60
556.83	40683.19
556.99	40851.71
557.16	40594.25
557.32	40924.27
557.49	40662.13
557.65	40664.47
557.82	40737.02
557.98	40629.36
558.15	40341.47
558.32	41174.70
558.48	40713.62
558.65	41368.97
558.81	40612.98
558.98	40751.07
559.14	41027.25
559.31	40659.79
559.47	40727.66
559.64	41132.57
559.80	40919.59
559.97	41074.06
560.13	41092.79
560.30	41294.07
560.46	41060.02
560.63	41434.50
560.79	41099.81
560.96	41237.90
561.12	40580.21
561.29	40795.54
561.45	40919.59
561.61	41064.70
561.78	41596.00
561.94	40989.80
562.11	41390.03
562.27	41448.55
562.44	41060.02
562.60	41418.12
562.77	41165.34
562.93	41265.99
563.10	41413.44
563.26	41301.09
563.42	41549.19
563.59	41656.85
563.75	41200.45
563.92	41574.94
564.08	41130.23
564.24	41647.49
564.41	41181.73
564.57	41123.21
564.74	41361.95
564.90	41825.37
565.07	41593.66
565.23	41867.50
565.39	41551.53
565.56	41605.36
565.72	41858.14
565.88	41387.69
566.05	41626.43
566.21	41581.96
566.38	41368.97
566.54	41635.79
566.70	41921.34
566.87	41933.04
567.03	41851.12
567.19	41951.76
567.36	42082.83
567.52	41392.37
567.68	41773.88
567.85	41687.28
568.01	42218.58
568.17	41586.64
568.34	41851.12
568.50	42249.01
568.66	42033.68
568.83	42040.70
568.99	41708.35
569.15	41621.75
569.32	41808.99
569.48	41626.43
569.64	41715.37
569.81	41647.49
569.97	41710.69
570.13	42155.39
570.30	42033.68
570.46	42099.22
570.62	41837.08
570.78	42108.58
570.95	41560.89
571.11	42237.31
571.27	42029.00
571.43	41556.21
571.60	42010.28
571.76	41893.25
571.92	42263.05
572.09	42319.23
572.25	42195.18
572.41	42614.13
572.57	42010.28
572.74	42302.84
572.90	42185.82
573.06	41944.74
573.22	42260.71
573.38	42117.94
573.55	42244.33
573.71	42892.66
573.87	42693.71
574.03	42316.89
574.20	42337.95
574.36	42050.06
574.52	42361.36
574.68	42330.93
574.84	42459.66
575.01	42553.28
575.17	41911.97
575.33	41968.15
575.49	42169.43
575.65	42536.90
575.82	42766.27
575.98	42494.77
576.14	42766.27
576.30	42387.10
576.46	41780.90
576.62	42342.63
576.79	42721.80
576.95	42583.71
577.11	42185.82
577.27	42499.45
577.43	42316.89
577.59	42462.00
577.75	42433.91
577.92	42234.97
578.08	42216.24
578.24	42253.69
578.40	42354.33
578.56	41993.89
578.72	42604.77
578.88	42930.11
579.04	42691.37
579.21	42712.44
579.37	42499.45
579.53	43040.11
579.69	42373.06
579.85	42239.65
580.01	42061.77
580.17	42202.20
580.33	42309.86
580.49	42728.82
580.65	42707.76
580.82	42499.45
580.98	42576.69
581.14	42759.25
581.30	42710.10
581.46	42291.14
581.62	42415.19
581.78	42761.59
581.94	42038.36
582.10	42450.30
582.26	42789.67
582.42	43084.58
582.58	42845.85
582.74	42693.71
582.90	43047.13
583.06	42920.74
583.22	42490.09
583.38	42827.12
583.54	42677.33
583.70	43019.05
583.86	42405.83
584.02	42246.67
584.18	42724.14
584.34	42792.01
584.50	42951.17
584.66	42658.60
584.82	43072.88
584.98	42384.76
585.14	42887.98
585.30	42525.19
585.46	42710.10
585.62	42639.88
585.78	42707.76
585.94	42492.43
586.10	42714.78
586.26	42651.58
586.42	42808.40
586.58	42871.59
586.74	43051.81
586.90	42536.90
587.06	42698.39
587.22	42925.42
587.38	42567.32
587.54	43030.75
587.70	42887.98
587.86	42986.28
588.02	43145.44
588.18	43262.46
588.34	42789.67
588.49	42838.83
588.65	42469.02
588.81	43140.75
588.97	42799.04
589.13	42852.87
589.29	43140.75
589.45	43009.68
589.61	42787.33
589.77	43070.54
589.93	42909.04
590.08	43393.53
590.24	43168.84
590.40	43400.55
590.56	44123.78
590.72	43189.91
590.88	43267.14
591.04	42909.04
591.20	43449.70
591.35	43402.89
591.51	43512.90
591.67	43484.81
591.83	43775.04
591.99	43037.77
592.15	43309.27
592.31	43753.97
592.46	42925.42
592.62	42869.25
592.78	43316.29
592.94	43119.69
593.10	43236.72
593.26	43267.14
593.41	43372.47
593.57	43241.40
593.73	43587.80
593.89	43480.13
594.05	43089.26
594.20	42705.41
594.36	43105.65
594.52	43044.79
594.68	43122.03
594.84	42913.72
594.99	43538.65
595.15	43150.12
595.31	43718.87
595.47	43814.83
595.62	43304.59
595.78	43496.52
595.94	43320.98
596.10	43611.20
596.25	43049.47
596.41	43100.97
596.57	42550.94
596.73	43833.55
596.88	43089.26
597.04	43318.64
597.20	43470.77
597.36	43761.00
597.51	43845.26
597.67	43161.82
597.83	43473.11
597.99	43248.42
598.14	43337.36
598.30	43225.01
598.46	43318.64
598.61	43601.84
598.77	43356.08
598.93	43555.03
599.09	43229.69
599.24	43564.39
599.40	43360.76
599.56	43409.92
599.71	43129.05
599.87	43367.79
600.03	43335.02
600.18	43189.91
600.34	43122.03
600.50	43180.54
600.65	43440.34
600.81	43842.92
600.97	43625.25
601.12	43796.10
601.28	43751.63
601.44	43140.75
601.59	43433.32
601.75	43353.74
601.91	43234.38
602.06	43122.03
602.22	43349.06
602.37	43269.48
602.53	43180.54
602.69	43601.84
602.84	43210.97
603.00	43714.19
603.16	43337.36
603.31	43360.76
603.47	43335.02
603.62	43306.93
603.78	43168.84
603.94	42967.55
604.09	43253.10
604.25	43243.74
604.40	43065.86
604.56	43548.01
604.71	43531.62
604.87	43299.91
605.03	43622.90
605.18	43594.82
605.34	43395.87
605.49	43161.82
605.65	43512.90
605.80	42859.89
605.96	43496.52
606.12	43241.40
606.27	44016.11
606.43	42969.90
606.58	43175.86
606.74	42995.64
606.89	43358.42
607.05	43639.29
607.20	43278.85
607.36	43400.55
607.51	43739.93
607.67	43203.95
607.82	42974.58
607.98	42759.25
608.13	43084.58
608.29	43161.82
608.44	43552.69
608.60	43026.07
608.75	43452.05
608.91	43229.69
609.06	43021.39
609.22	43505.88
609.37	43157.14
609.53	43143.09
609.68	42955.85
609.84	42658.60
609.99	42810.74
610.15	43295.23
610.30	43288.21
610.46	43342.04
610.61	43545.67
610.76	43634.61
610.92	43302.25
611.07	44067.61
611.23	43599.50
611.38	43777.38
611.54	43573.75
611.69	43035.43
611.84	42887.98
612.00	43210.97
612.15	43199.27
612.31	43227.35
612.46	43049.47
612.62	43269.48
612.77	43262.46
612.92	43833.55
613.08	43285.87
613.23	43192.25
613.39	43164.16
613.54	42887.98
613.69	42749.88
613.85	42564.98
614.00	42686.69
614.15	42621.16
614.31	42871.59
614.46	43051.81
614.62	42808.40
614.77	42478.38
614.92	42471.36
615.08	43180.54
615.23	43159.48
615.38	42700.73
615.54	42469.02
615.69	42679.67
615.84	42426.89
616.00	42534.56
616.15	42536.90
616.30	42415.19
616.46	42274.76
616.61	42454.98
616.76	42092.19
616.92	42134.32
617.07	42543.92
617.22	41666.22
617.37	42143.69
617.53	42143.69
617.68	42513.49
617.83	41869.84
617.99	42129.64
618.14	41703.67
618.29	42124.96
618.45	42029.00
618.60	41706.01
618.75	41883.89
618.90	41858.14
619.06	41886.23
619.21	42099.22
619.36	41841.76
619.51	41804.31
619.67	41455.57
619.82	41361.95
619.97	41881.55
620.12	41907.29
620.28	42216.24
620.43	42326.25
620.58	42073.47
620.73	41989.21
620.89	42234.97
621.04	42541.58
621.19	42099.22
621.34	42094.53
621.49	41977.51
621.65	41975.17
621.80	42251.35
621.95	41603.02
622.10	42249.01
622.25	41443.87
622.41	41989.21
622.56	41694.30
622.71	42195.18
622.86	41787.92
623.01	41841.76
623.16	41530.47
623.32	41127.89
623.47	41249.60
623.62	41663.88
623.77	41521.10
623.92	41551.53
624.07	41345.56
624.23	41258.96
624.38	41146.62
624.53	41022.57
624.68	41832.39
624.83	41741.11
624.98	42021.98
625.13	40982.78
625.29	41467.27
625.44	41790.27
625.59	40954.69
625.74	40795.54
625.89	41462.59
626.04	41088.10
626.19	40577.87
626.34	41099.81
626.49	40636.38
626.65	40854.05
626.80	41226.20
626.95	40889.16
627.10	41090.44
627.25	40652.76
627.40	40713.62
627.55	40706.60
627.70	40755.75
627.85	40512.33
628.00	40996.82
628.15	40659.79
628.30	40711.28
628.45	40645.74
628.60	40624.68
628.76	40481.91
628.91	41298.75
629.06	41078.74
629.21	39955.29
629.36	40582.55
629.51	40252.53
629.66	40519.35
629.81	40444.46
629.96	40561.48
630.11	40311.05
630.26	40587.23
630.41	40409.35
630.56	40465.52
630.71	40624.68
630.86	40634.04
631.01	40519.35
631.16	40472.54
631.31	40336.79
631.46	39777.40
631.61	40112.10
631.76	40250.19
631.91	40587.23
632.06	40030.18
632.21	39901.45
632.36	40240.83
632.51	40147.21
632.66	40105.08
632.81	39868.69
632.96	40442.12
633.10	40287.64
633.25	40292.32
633.40	39906.13
633.55	40165.93
633.70	40261.90
633.85	39779.74
634.00	39402.92
634.15	39892.09
634.30	39997.41
634.45	39555.05
634.60	39512.92
634.75	39885.07
634.90	39948.26
635.05	39620.59
635.19	39454.41
635.34	39632.29
635.49	39517.60
635.64	39641.65
635.79	39966.99
635.94	39728.25
636.09	39751.66
636.24	39257.81
636.39	39372.49
636.53	39384.19
636.68	39917.84
636.83	39569.10
636.98	39536.33
637.13	39826.56
637.28	39548.03
637.43	39526.97
637.57	39398.24
637.72	39040.14
637.87	39416.96
638.02	39405.26
638.17	38998.01
638.32	39133.76
638.46	39512.92
638.61	39260.15
638.76	38962.90
638.91	39040.14
639.06	38595.43
639.20	38986.30
639.35	39009.71
639.50	39105.67
639.65	39248.44
639.80	39054.18
639.94	39234.40
640.09	39140.78
640.24	39058.86
640.39	38993.32
640.54	38679.69
640.68	38618.84
640.83	38490.11
640.98	38359.04
641.13	38590.75
641.27	38373.08
641.42	38817.78
641.57	38480.75
641.72	38696.08
641.86	38637.56
642.01	38845.87
642.16	38590.75
642.31	38391.81
642.45	38572.03
642.60	37846.46
642.75	38546.28
642.90	38384.79
643.04	38384.79
643.19	38740.55
643.34	38817.78
643.48	38534.58
643.63	38696.08
643.78	38216.27
643.93	38939.49
644.07	38511.17
644.22	38787.36
644.37	38426.92
644.51	38260.74
644.66	38455.00
644.81	37914.34
644.95	38064.13
645.10	38314.57
645.25	38223.29
645.39	37823.06
645.54	38319.25
645.69	37640.50
645.83	38127.33
645.98	38029.02
646.13	38389.47
646.27	38368.40
646.42	37919.02
646.57	37935.40
646.71	37883.91
646.86	37647.52
647.00	37904.98
647.15	37783.27
647.30	37783.27
647.44	37715.39
647.59	37820.72
647.74	37846.46
647.88	37940.08
648.03	37804.33
648.17	37626.45
648.32	37535.17
648.47	37727.10
648.61	37378.36
648.76	38146.05
648.90	37418.14
649.05	38134.35
649.20	37710.71
649.34	37277.71
649.49	37315.16
649.63	38017.32
649.78	37890.93
649.92	37589.00
650.07	38220.95
650.21	37432.19
650.36	37605.39
650.51	37593.68
650.65	37493.04
650.80	37406.44
650.94	37553.90
651.09	37493.04
651.23	37584.32
651.38	37310.48
651.52	37399.42
651.67	37539.85
651.81	37361.97
651.96	37312.82
652.10	37270.69
652.25	37235.58
652.39	37390.06
652.54	37432.19
652.68	37186.43
652.83	37345.59
652.97	37483.68
653.12	37174.73
653.26	36926.63
653.41	36844.71
653.55	36467.89
653.70	36594.28
653.84	36935.99
653.99	36517.04
654.13	37172.39
654.27	37050.68
654.42	36664.49
654.56	36605.98
654.71	37062.38
654.85	36746.41
655.00	36800.24
655.14	36540.44
655.29	36737.05
655.43	36610.66
655.57	36439.80
655.72	36659.81
655.86	36762.79
656.01	36797.90
656.15	36282.98
656.30	36566.19
656.44	35615.93
656.58	36240.86
656.73	36601.30
656.87	36065.31
657.01	36978.12
657.16	36671.51
657.30	37029.62
657.45	36301.71
657.59	36301.71
657.73	35967.01
657.88	36072.34
658.02	35931.90
658.16	35796.15
658.31	36233.83
658.45	36545.12
658.60	35728.28
658.74	35936.59
658.88	36271.28
659.03	35749.34
659.17	35807.86
659.31	35896.80
659.46	35934.24
659.60	36147.23
659.74	35924.88
659.89	35807.86
660.03	36039.57
660.17	36126.17
660.32	35548.06
660.46	35159.53
660.60	35297.62
660.74	35590.19
660.89	35236.77
661.03	35084.63
661.17	35072.93
661.32	35316.34
661.46	35108.04
661.60	34955.90
661.74	35498.91
661.89	35117.40
662.03	35033.14
662.17	35271.87
662.31	35201.66
662.46	35377.20
662.60	35264.85
662.74	34794.40
662.88	34766.32
663.03	34569.71
663.17	34532.26
663.31	34515.88
663.45	34621.20
663.60	34869.30
663.74	34707.80
663.88	34572.05
664.02	34719.51
664.17	34906.75
664.31	34766.32
664.45	34515.88
664.59	34417.58
664.73	34527.58
664.88	34527.58
665.02	33933.09
665.16	33855.85
665.30	33867.55
665.44	33919.04
665.59	34052.45
665.73	34155.44
665.87	33528.17
666.01	33947.13
666.15	34338.00
666.29	33975.22
666.44	34553.33
666.58	34019.69
666.72	33731.80
666.86	34078.20
667.00	33659.24
667.14	33408.81
667.28	33376.04
667.43	33553.92
667.57	33521.15
667.71	33090.49
667.85	33139.65
667.99	33186.46
668.13	33336.25
668.27	33200.50
668.41	33425.19
668.56	33472.00
668.70	33270.72
668.84	33060.07
668.98	33284.76
669.12	33354.97
669.26	32521.74
669.40	33057.73
669.54	32872.82
669.68	32947.72
669.82	32514.72
669.96	32608.34
670.10	32257.26
670.25	32395.35
670.39	32767.50
670.53	32142.58
670.67	32212.79
670.81	32130.87
670.95	32266.63
671.09	32081.72
671.23	32322.80
671.37	32343.86
671.51	32135.56
671.65	32058.32
671.79	32240.88
671.93	32156.62
672.07	32086.40
672.21	31730.64
672.35	31559.78
672.49	31866.39
672.63	31424.03
672.77	31409.99
672.91	31608.93
673.05	31541.06
673.19	31798.52
673.33	31758.73
673.47	31316.37
673.61	31555.10
673.75	31419.35
673.89	31828.95
674.03	31398.29
674.17	31297.64
674.31	31335.09
674.45	31065.93
674.59	30981.67
674.73	30827.20
674.87	30696.13
675.01	30820.17
675.15	30838.90
675.29	30597.82
675.43	30824.86
675.56	30515.90
675.70	30661.02
675.84	30110.99
675.98	29563.31
676.12	30305.26
676.26	31007.42
676.40	30527.61
676.54	29926.09
676.68	29771.61
676.82	28999.24
676.96	29556.28
677.10	29563.31
677.23	29535.22
677.37	29359.68
677.51	29638.20
677.65	29378.40
677.79	29060.09
677.93	29137.33
678.07	29455.64
678.21	29057.75
678.34	29041.37
678.48	29104.56
678.62	29046.05
678.76	28650.50
678.90	28423.47
679.04	28599.01
679.18	28727.74
679.31	28294.74
679.45	28439.85
679.59	28039.62
679.73	28219.84
679.87	28107.49
680.00	28056.00
680.14	27779.82
680.28	27819.61
680.42	28158.99
680.56	27887.48
680.70	27761.09
680.83	27779.82
680.97	27637.05
681.11	27775.14
681.25	27239.15
681.39	27768.12
681.52	27147.87
681.66	27187.66
681.80	27089.36
681.94	26827.22
682.07	26862.33
682.21	27026.17
682.35	26845.94
682.49	26913.82
682.62	26405.92
682.76	26761.69
682.90	26644.66
683.04	26675.09
683.17	26724.24
683.31	26546.36
683.45	26448.05
683.59	26424.65
683.72	26040.80
683.86	26309.96
684.00	26026.76
684.13	26064.21
684.27	26190.59
684.41	25879.30
684.55	25570.35
684.68	25188.85
684.82	24950.11
684.96	24943.09
685.09	25099.90
685.23	24950.11
685.37	24762.87
685.50	25071.82
685.64	25083.52
685.78	24856.49
685.91	25085.86
686.05	24814.36
686.19	24720.74
686.32	24404.77
686.46	24151.99
686.60	24046.66
686.73	24372.00
686.87	24313.48
687.01	24107.52
687.14	23974.11
687.28	23798.57
687.42	23653.45
687.55	23758.78
687.69	24044.32
687.82	23861.76
687.96	23768.14
688.10	23873.46
688.23	23772.82
688.37	23711.97
688.50	23440.47
688.64	23246.20
688.78	23157.26
688.91	22913.84
689.05	23321.10
689.18	22773.41
689.32	22525.32
689.46	22518.29
689.59	22361.48
689.73	22478.50
689.86	22202.32
690.00	22298.28
690.13	22356.80
690.27	22356.80
690.41	21940.18
690.54	21816.13
690.68	22068.91
690.81	22483.19
690.95	22375.52
691.08	21994.01
691.22	21984.65
691.35	21659.32
691.49	21912.10
691.62	21462.71
691.76	21500.16
691.89	21050.78
692.03	21109.29
692.16	20987.58
692.30	21172.49
692.43	21359.73
692.57	20664.59
692.70	20973.54
692.84	20851.83
692.97	20716.08
693.11	20945.45
693.24	20748.85
693.38	21116.31
693.51	20599.05
693.65	20617.78
693.78	20585.01
693.92	20528.84
694.05	19896.89
694.19	19992.86
694.32	20130.95
694.45	19803.27
694.59	19971.79
694.72	19707.31
694.86	19665.18
694.99	19695.61
695.13	19611.35
695.26	19913.28
695.39	19510.71
695.53	19391.34
695.66	19396.02
695.80	19433.47
695.93	19145.58
696.07	19211.12
696.20	19229.84
696.33	19054.30
696.47	18944.30
696.60	18953.66
696.73	18740.67
696.87	18738.33
697.00	18714.92
697.14	18384.91
697.27	18242.14
697.40	18160.22
697.54	18068.94
697.67	17895.74
697.80	17827.86
697.94	17982.34
698.07	17858.29
698.21	17980.00
698.34	17923.82
698.47	17851.27
698.61	17834.88
698.74	17539.97
698.87	17804.46
699.01	17151.45
699.14	17284.86
699.27	17254.43
699.40	17198.26
699.54	16748.87
699.67	16655.25
699.80	16931.44
699.94	16755.90
700.07	16924.41
700.20	16772.28
700.34	16760.58
700.47	16348.64
700.60	16872.92
700.73	16699.72
700.87	16706.74
701.00	16641.21
701.13	16566.31
701.26	16613.12
701.40	16262.04
701.53	15894.58
701.66	16107.57
701.79	16259.70
701.93	16163.74
702.06	16121.61
702.19	15358.60
702.32	15768.19
702.46	15545.84
702.59	15492.01
702.72	15655.84
702.85	15473.28
702.99	15393.70
703.12	15573.92
703.25	15419.45
703.38	15379.66
703.51	15199.44
703.65	15297.74
703.78	14934.96
703.91	14796.87
704.04	15068.37
704.17	15159.65
704.31	15082.41
704.44	14813.25
704.57	14972.41
704.70	14555.79
704.83	14200.03
704.96	14408.34
705.10	14075.98
705.23	14080.66
>>>>>End Processed Spectral Data<<<<<
