SpectraSuite Data File
++++++++++++++++++++++++++++++++++++
Date: Fri Oct 04 11:40:07 GMT-05:00 2013
User: price-jones
Dark Spectrum Present: No
Reference Spectrum Present: No
Number of Sampled Component Spectra: 1
Spectrometers: USB2+H05261
Integration Time (usec): 100000 (USB2+H05261)
Spectra Averaged: 1 (USB2+H05261)
Boxcar Smoothing: 0 (USB2+H05261)
Correct for Electrical Dark: No (USB2+H05261)
Strobe/Lamp Enabled: No (USB2+H05261)
Correct for Detector Non-linearity: No (USB2+H05261)
Correct for Stray Light: No (USB2+H05261)
Number of Pixels in Processed Spectrum: 2048
>>>>>Begin Processed Spectral Data<<<<<
365.73	21.06
365.92	21.06
366.12	21.06
366.32	11.70
366.52	23.41
366.72	0.00
366.91	0.00
367.11	0.00
367.31	0.00
367.51	0.00
367.70	0.00
367.90	0.00
368.10	0.00
368.30	0.00
368.49	0.00
368.69	0.00
368.89	0.00
369.09	0.00
369.28	0.00
369.48	0.00
369.68	0.00
369.87	9.36
370.07	0.00
370.27	14.04
370.47	60.85
370.66	81.92
370.86	177.88
371.06	128.73
371.25	231.71
371.45	14.04
371.65	121.71
371.84	161.50
372.04	170.86
372.24	191.92
372.44	117.03
372.63	266.82
372.83	252.78
373.03	102.98
373.22	168.52
373.42	264.48
373.62	138.09
373.81	222.35
374.01	191.92
374.21	194.26
374.40	201.29
374.60	212.99
374.79	187.24
374.99	231.71
375.19	325.33
375.38	245.76
375.58	262.14
375.78	234.05
375.97	241.08
376.17	257.46
376.37	201.29
376.56	227.03
376.76	238.73
376.95	264.48
377.15	285.55
377.35	222.35
377.54	264.48
377.74	294.91
377.93	234.05
378.13	203.63
378.33	308.95
378.52	278.52
378.72	257.46
378.91	227.03
379.11	250.44
379.31	201.29
379.50	194.26
379.70	252.78
379.89	259.80
380.09	245.76
380.28	224.69
380.48	243.42
380.68	222.35
380.87	152.13
381.07	234.05
381.26	234.05
381.46	220.01
381.65	177.88
381.85	208.31
382.04	243.42
382.24	234.05
382.43	187.24
382.63	159.16
382.83	227.03
383.02	297.25
383.22	163.84
383.41	234.05
383.61	212.99
383.80	154.48
384.00	142.77
384.19	198.95
384.39	243.42
384.58	250.44
384.78	234.05
384.97	231.71
385.17	173.20
385.36	182.56
385.56	166.18
385.75	220.01
385.95	203.63
386.14	264.48
386.34	220.01
386.53	320.65
386.72	194.26
386.92	220.01
387.11	273.84
387.31	264.48
387.50	142.77
387.70	264.48
387.89	210.65
388.09	227.03
388.28	241.08
388.48	262.14
388.67	255.12
388.86	322.99
389.06	334.70
389.25	318.31
389.45	299.59
389.64	224.69
389.84	299.59
390.03	196.60
390.22	163.84
390.42	311.29
390.61	280.86
390.81	348.74
391.00	290.23
391.19	238.73
391.39	332.36
391.58	325.33
391.78	290.23
391.97	306.61
392.16	215.33
392.36	271.50
392.55	297.25
392.75	257.46
392.94	114.69
393.13	238.73
393.33	145.11
393.52	262.14
393.71	276.18
393.91	264.48
394.10	177.88
394.29	224.69
394.49	327.68
394.68	327.68
394.88	273.84
395.07	393.21
395.26	337.04
395.46	297.25
395.65	250.44
395.84	285.55
396.04	337.04
396.23	269.16
396.42	161.50
396.62	210.65
396.81	332.36
397.00	271.50
397.19	255.12
397.39	285.55
397.58	390.87
397.77	344.06
397.97	372.15
398.16	386.19
398.35	346.40
398.55	273.84
398.74	355.76
398.93	346.40
399.12	400.23
399.32	428.32
399.51	327.68
399.70	409.59
399.90	465.77
400.09	475.13
400.28	414.27
400.47	451.72
400.67	407.25
400.86	456.40
401.05	435.34
401.24	430.66
401.44	442.36
401.63	409.59
401.82	416.62
402.01	435.34
402.21	463.43
402.40	526.62
402.59	421.30
402.78	425.98
402.97	369.80
403.17	425.98
403.36	447.04
403.55	423.64
403.74	418.96
403.93	451.72
404.13	470.45
404.32	498.53
404.51	451.72
404.70	543.00
404.89	484.49
405.09	512.58
405.28	409.59
405.47	430.66
405.66	411.93
405.85	414.27
406.05	388.53
406.24	407.25
406.43	372.15
406.62	475.13
406.81	484.49
407.00	386.19
407.20	475.13
407.39	433.00
407.58	447.04
407.77	528.96
407.96	428.32
408.15	510.24
408.34	486.83
408.54	557.05
408.73	479.81
408.92	430.66
409.11	552.37
409.30	386.19
409.49	463.43
409.68	362.78
409.87	379.17
410.07	479.81
410.26	496.19
410.45	496.19
410.64	468.11
410.83	533.64
411.02	524.28
411.21	554.71
411.40	575.77
411.59	521.94
411.78	524.28
411.98	550.03
412.17	575.77
412.36	507.90
412.55	559.39
412.74	484.49
412.93	463.43
413.12	505.56
413.31	449.38
413.50	599.18
413.69	496.19
413.88	533.64
414.07	498.53
414.26	521.94
414.45	470.45
414.64	535.98
414.83	550.03
415.02	507.90
415.22	517.26
415.41	540.66
415.60	568.75
415.79	585.13
415.98	594.50
416.17	484.49
416.36	599.18
416.55	550.03
416.74	545.34
416.93	601.52
417.12	528.96
417.31	585.13
417.50	535.98
417.69	645.99
417.88	589.82
418.07	594.50
418.26	463.43
418.45	538.32
418.64	582.79
418.83	587.47
419.02	484.49
419.21	592.16
419.39	498.53
419.58	545.34
419.77	461.09
419.96	554.71
420.15	645.99
420.34	585.13
420.53	624.92
420.72	592.16
420.91	660.03
421.10	596.84
421.29	575.77
421.48	610.88
421.67	568.75
421.86	571.09
422.05	486.83
422.24	550.03
422.43	564.07
422.61	610.88
422.80	615.56
422.99	580.45
423.18	592.16
423.37	575.77
423.56	566.41
423.75	533.64
423.94	543.00
424.13	489.17
424.32	526.62
424.50	545.34
424.69	582.79
424.88	545.34
425.07	535.98
425.26	521.94
425.45	622.58
425.64	505.56
425.83	601.52
426.01	552.37
426.20	617.90
426.39	601.52
426.58	557.05
426.77	486.83
426.96	613.22
427.15	496.19
427.33	557.05
427.52	475.13
427.71	521.94
427.90	601.52
428.09	524.28
428.28	610.88
428.46	512.58
428.65	514.92
428.84	550.03
429.03	634.29
429.22	493.85
429.40	496.19
429.59	482.15
429.78	475.13
429.97	440.02
430.16	458.74
430.34	388.53
430.53	489.17
430.72	400.23
430.91	479.81
431.10	489.17
431.28	559.39
431.47	617.90
431.66	613.22
431.85	531.30
432.03	472.79
432.22	550.03
432.41	547.69
432.60	681.10
432.79	634.29
432.97	688.12
433.16	582.79
433.35	526.62
433.54	543.00
433.72	484.49
433.91	528.96
434.10	545.34
434.28	648.33
434.47	596.84
434.66	702.16
434.85	601.52
435.03	725.57
435.22	805.14
435.41	1046.22
435.59	1029.84
435.78	842.59
435.97	746.63
436.16	718.54
436.34	671.73
436.53	650.67
436.72	587.47
436.90	669.39
437.09	538.32
437.28	664.71
437.46	603.86
437.65	718.54
437.84	554.71
438.02	552.37
438.21	524.28
438.40	545.34
438.58	599.18
438.77	606.20
438.96	641.31
439.14	688.12
439.33	692.80
439.52	608.54
439.70	660.03
439.89	746.63
440.08	674.07
440.26	648.33
440.45	760.67
440.63	697.48
440.82	772.38
441.01	688.12
441.19	678.76
441.38	748.97
441.57	767.70
441.75	795.78
441.94	779.40
442.12	695.14
442.31	741.95
442.50	812.17
442.68	777.06
442.87	690.46
443.05	725.57
443.24	791.10
443.43	842.59
443.61	779.40
443.80	784.08
443.98	645.99
444.17	744.29
444.35	739.61
444.54	711.52
444.73	753.65
444.91	807.48
445.10	788.76
445.28	732.59
445.47	704.50
445.65	627.26
445.84	725.57
446.02	718.54
446.21	772.38
446.39	662.37
446.58	767.70
446.77	788.76
446.95	779.40
447.14	779.40
447.32	828.55
447.51	821.53
447.69	723.23
447.88	795.78
448.06	713.86
448.25	755.99
448.43	770.04
448.62	695.14
448.80	690.46
448.99	786.42
449.17	772.38
449.36	798.12
449.54	786.42
449.73	760.67
449.91	870.68
450.10	828.55
450.28	814.51
450.46	830.89
450.65	826.21
450.83	840.25
451.02	819.19
451.20	760.67
451.39	866.00
451.57	884.72
451.76	873.02
451.94	772.38
452.13	826.21
452.31	784.08
452.49	767.70
452.68	763.01
452.86	685.78
453.05	833.23
453.23	774.72
453.42	842.59
453.60	828.55
453.78	767.70
453.97	802.80
454.15	791.10
454.34	755.99
454.52	807.48
454.70	732.59
454.89	875.36
455.07	753.65
455.26	795.78
455.44	758.33
455.62	812.17
455.81	821.53
455.99	823.87
456.17	842.59
456.36	830.89
456.54	814.51
456.73	823.87
456.91	887.06
457.09	851.96
457.28	873.02
457.46	849.61
457.64	887.06
457.83	739.61
458.01	765.36
458.19	814.51
458.38	800.46
458.56	894.08
458.74	826.21
458.93	795.78
459.11	755.99
459.29	833.23
459.48	854.30
459.66	835.57
459.84	847.27
460.03	947.92
460.21	819.19
460.39	849.61
460.57	882.38
460.76	861.32
460.94	835.57
461.12	917.49
461.31	919.83
461.49	791.10
461.67	851.96
461.85	868.34
462.04	837.91
462.22	1308.36
462.40	985.37
462.59	891.74
462.77	777.06
462.95	851.96
463.13	734.93
463.32	847.27
463.50	816.85
463.68	795.78
463.86	842.59
464.05	823.87
464.23	830.89
464.41	772.38
464.59	807.48
464.78	770.04
464.96	793.44
465.14	908.13
465.32	851.96
465.50	922.17
465.69	800.46
465.87	842.59
466.05	884.72
466.23	795.78
466.41	807.48
466.60	812.17
466.78	898.77
466.96	854.30
467.14	816.85
467.32	823.87
467.51	875.36
467.69	795.78
467.87	849.61
468.05	816.85
468.23	884.72
468.41	814.51
468.60	774.72
468.78	896.43
468.96	802.80
469.14	809.83
469.32	830.89
469.50	809.83
469.69	903.45
469.87	905.79
470.05	781.74
470.23	926.85
470.41	856.64
470.59	814.51
470.77	875.36
470.95	805.14
471.14	926.85
471.32	767.70
471.50	922.17
471.68	802.80
471.86	896.43
472.04	933.87
472.22	833.23
472.40	805.14
472.58	802.80
472.77	938.55
472.95	819.19
473.13	924.51
473.31	931.53
473.49	807.48
473.67	854.30
473.85	882.38
474.03	896.43
474.21	929.19
474.39	940.90
474.57	987.71
474.75	952.60
474.93	926.85
475.12	858.98
475.30	842.59
475.48	947.92
475.66	950.26
475.84	889.40
476.02	901.11
476.20	917.49
476.38	936.21
476.56	966.64
476.74	877.70
476.92	954.94
477.10	861.32
477.28	983.02
477.46	983.02
477.64	985.37
477.82	1027.50
478.00	1013.45
478.18	999.41
478.36	1008.77
478.54	957.28
478.72	959.62
478.90	966.64
479.08	983.02
479.26	954.94
479.44	1027.50
479.62	976.00
479.80	997.07
479.98	1036.86
480.16	964.30
480.34	1090.69
480.52	922.17
480.70	1100.05
480.88	1036.86
481.06	1062.60
481.24	1027.50
481.41	1163.25
481.59	1114.10
481.77	1125.80
481.95	1123.46
482.13	1132.82
482.31	1078.99
482.49	1048.56
482.67	1135.16
482.85	1116.44
483.03	1172.61
483.21	1083.67
483.39	1083.67
483.57	1212.40
483.74	1142.18
483.92	1032.18
484.10	1121.12
484.28	1130.48
484.46	1247.51
484.64	1102.39
484.82	1156.22
485.00	1200.69
485.18	1125.80
485.35	1109.41
485.53	1029.84
485.71	971.32
485.89	898.77
486.07	971.32
486.25	1165.59
486.43	1114.10
486.61	1146.86
486.78	1100.05
486.96	1093.03
487.14	1149.20
487.32	1196.01
487.50	1324.74
487.68	1310.70
487.85	1324.74
488.03	1296.66
488.21	1287.29
488.39	1315.38
488.57	1233.46
488.75	1114.10
488.92	1469.86
489.10	1310.70
489.28	1366.87
489.46	1366.87
489.64	1357.51
489.81	1378.58
489.99	1355.17
490.17	1324.74
490.35	1469.86
490.53	1334.11
490.70	1327.08
490.88	1308.36
491.06	1378.58
491.24	1362.19
491.41	1322.40
491.59	1336.45
491.77	1153.88
491.95	1217.08
492.13	1231.12
492.30	1334.11
492.48	1357.51
492.66	1394.96
492.84	1336.45
493.01	1418.36
493.19	1387.94
493.37	1306.02
493.54	1390.28
493.72	1320.06
493.90	1366.87
494.08	1341.13
494.25	1486.24
494.43	1383.26
494.61	1507.30
494.79	1533.05
494.96	1535.39
495.14	1523.69
495.32	1397.30
495.49	1401.98
495.67	1467.52
495.85	1453.47
496.02	1446.45
496.20	1619.65
496.38	1378.58
496.55	1437.09
496.73	1474.54
496.91	1495.60
497.09	1493.26
497.26	1600.93
497.44	1514.33
497.62	1598.59
497.79	1441.77
497.97	1383.26
498.14	1495.60
498.32	1502.62
498.50	1490.92
498.67	1554.12
498.85	1469.86
499.03	1481.56
499.20	1600.93
499.38	1535.39
499.56	1579.86
499.73	1603.27
499.91	1458.15
500.08	1486.24
500.26	1406.66
500.44	1399.64
500.61	1441.77
500.79	1409.00
500.97	1495.60
501.14	1549.43
501.32	1495.60
501.49	1401.98
501.67	1451.13
501.84	1486.24
502.02	1453.47
502.20	1516.67
502.37	1479.22
502.55	1540.07
502.72	1514.33
502.90	1593.90
503.07	1423.05
503.25	1495.60
503.43	1418.36
503.60	1430.07
503.78	1348.15
503.95	1359.85
504.13	1390.28
504.30	1516.67
504.48	1530.71
504.65	1551.78
504.83	1511.99
505.01	1596.25
505.18	1493.26
505.36	1542.41
505.53	1467.52
505.71	1638.38
505.88	1586.88
506.06	1577.52
506.23	1584.54
506.41	1556.46
506.58	1540.07
506.76	1504.96
506.93	1577.52
507.11	1554.12
507.28	1636.03
507.46	1591.56
507.63	1446.45
507.81	1441.77
507.98	1540.07
508.16	1460.49
508.33	1558.80
508.50	1570.50
508.68	1584.54
508.85	1673.48
509.03	1621.99
509.20	1542.41
509.38	1591.56
509.55	1528.37
509.73	1612.63
509.90	1554.12
510.08	1579.86
510.25	1607.95
510.42	1572.84
510.60	1579.86
510.77	1659.44
510.95	1610.29
511.12	1612.63
511.30	1659.44
511.47	1554.12
511.64	1624.33
511.82	1629.01
511.99	1661.78
512.17	1614.97
512.34	1607.95
512.51	1565.82
512.69	1610.29
512.86	1661.78
513.04	1626.67
513.21	1631.35
513.38	1610.29
513.56	1582.20
513.73	1448.79
513.90	1600.93
514.08	1476.88
514.25	1549.43
514.43	1652.42
514.60	1575.18
514.77	1563.48
514.95	1554.12
515.12	1631.35
515.29	1502.62
515.47	1563.48
515.64	1696.89
515.81	1746.04
515.99	1657.10
516.16	1617.31
516.33	1458.15
516.51	1401.98
516.68	1315.38
516.85	1291.98
517.03	1256.87
517.20	1413.68
517.37	1540.07
517.54	1542.41
517.72	1547.09
517.89	1474.54
518.06	1364.53
518.24	1404.32
518.41	1535.39
518.58	1558.80
518.75	1406.66
518.93	1526.03
519.10	1565.82
519.27	1500.28
519.45	1474.54
519.62	1666.46
519.79	1617.31
519.96	1631.35
520.14	1636.03
520.31	1535.39
520.48	1624.33
520.65	1720.29
520.83	1591.56
521.00	1603.27
521.17	1682.85
521.34	1650.08
521.52	1607.95
521.69	1650.08
521.86	1696.89
522.03	1671.14
522.20	1664.12
522.38	1479.22
522.55	1516.67
522.72	1568.16
522.89	1530.71
523.07	1598.59
523.24	1563.48
523.41	1774.13
523.58	1643.06
523.75	1673.48
523.92	1664.12
524.10	1795.19
524.27	1785.83
524.44	1638.38
524.61	1657.10
524.78	1706.25
524.96	1507.30
525.13	1605.61
525.30	1734.34
525.47	1715.61
525.64	1678.16
525.81	1657.10
525.98	1610.29
526.16	1460.49
526.33	1451.13
526.50	1479.22
526.67	1448.79
526.84	1399.64
527.01	1540.07
527.18	1563.48
527.36	1600.93
527.53	1629.01
527.70	1638.38
527.87	1596.25
528.04	1680.50
528.21	1657.10
528.38	1729.66
528.55	1750.72
528.72	1781.15
528.89	1760.08
529.07	1596.25
529.24	1659.44
529.41	1626.67
529.58	1689.87
529.75	1685.19
529.92	1626.67
530.09	1687.53
530.26	1650.08
530.43	1739.02
530.60	1783.49
530.77	1706.25
530.94	1706.25
531.11	1799.87
531.28	1605.61
531.46	1706.25
531.63	1708.59
531.80	1753.06
531.97	1621.99
532.14	1533.05
532.31	1528.37
532.48	1516.67
532.65	1596.25
532.82	1582.20
532.99	1614.97
533.16	1703.91
533.33	1699.23
533.50	1673.48
533.67	1586.88
533.84	1636.03
534.01	1617.31
534.18	1589.22
534.35	1689.87
534.52	1696.89
534.69	1647.74
534.86	1682.85
535.03	1668.80
535.20	1734.34
535.37	1685.19
535.54	1746.04
535.71	1732.00
535.88	1802.21
536.05	1659.44
536.22	1750.72
536.38	1659.44
536.55	1645.40
536.72	1603.27
536.89	1570.50
537.06	1469.86
537.23	1568.16
537.40	1526.03
537.57	1685.19
537.74	1717.95
537.91	1659.44
538.08	1802.21
538.25	1722.63
538.42	1647.74
538.59	1699.23
538.75	1713.27
538.92	1650.08
539.09	1788.17
539.26	1614.97
539.43	1788.17
539.60	1734.34
539.77	1715.61
539.94	1647.74
540.11	1593.90
540.28	1631.35
540.44	1680.50
540.61	1736.68
540.78	1724.97
540.95	1891.15
541.12	1851.36
541.29	1977.75
541.46	2024.56
541.62	1933.28
541.79	1907.54
541.96	1907.54
542.13	2024.56
542.30	1933.28
542.47	1907.54
542.63	1874.77
542.80	1755.40
542.97	1844.34
543.14	1858.39
543.31	1961.37
543.48	1823.28
543.64	1949.67
543.81	1937.96
543.98	1849.02
544.15	1909.88
544.32	1872.43
544.48	1844.34
544.65	1884.13
544.82	1891.15
544.99	1764.76
545.16	1909.88
545.32	1879.45
545.49	2190.74
545.66	2541.82
545.83	2539.48
546.00	2373.30
546.16	2129.89
546.33	2043.29
546.50	1891.15
546.67	1832.64
546.83	1818.60
547.00	1802.21
547.17	1717.95
547.34	1788.17
547.50	1680.50
547.67	1699.23
547.84	1699.23
548.00	1795.19
548.17	1755.40
548.34	1785.83
548.51	1727.32
548.67	1687.53
548.84	1715.61
549.01	1713.27
549.18	1673.48
549.34	1715.61
549.51	1757.74
549.68	1753.06
549.84	1694.55
550.01	1596.25
550.18	1832.64
550.34	1727.32
550.51	1701.57
550.68	1636.03
550.84	1652.42
551.01	1671.14
551.18	1654.76
551.34	1661.78
551.51	1760.08
551.68	1708.59
551.84	1727.32
552.01	1584.54
552.18	1657.10
552.34	1521.35
552.51	1537.73
552.68	1600.93
552.84	1556.46
553.01	1696.89
553.18	1708.59
553.34	1666.46
553.51	1617.31
553.67	1692.21
553.84	1647.74
554.01	1593.90
554.17	1661.78
554.34	1598.59
554.51	1610.29
554.67	1675.82
554.84	1713.27
555.00	1577.52
555.17	1640.72
555.33	1584.54
555.50	1664.12
555.67	1575.18
555.83	1544.75
556.00	1565.82
556.16	1682.85
556.33	1474.54
556.50	1556.46
556.66	1579.86
556.83	1577.52
556.99	1526.03
557.16	1495.60
557.32	1561.14
557.49	1577.52
557.65	1519.01
557.82	1598.59
557.98	1507.30
558.15	1521.35
558.32	1430.07
558.48	1526.03
558.65	1486.24
558.81	1483.90
558.98	1460.49
559.14	1490.92
559.31	1495.60
559.47	1582.20
559.64	1437.09
559.80	1439.43
559.97	1521.35
560.13	1479.22
560.30	1633.69
560.46	1652.42
560.63	1540.07
560.79	1577.52
560.96	1570.50
561.12	1495.60
561.29	1497.94
561.45	1486.24
561.61	1420.71
561.78	1519.01
561.94	1453.47
562.11	1483.90
562.27	1633.69
562.44	1474.54
562.60	1582.20
562.77	1472.20
562.93	1687.53
563.10	1521.35
563.26	1551.78
563.42	1544.75
563.59	1467.52
563.75	1497.94
563.92	1511.99
564.08	1448.79
564.24	1556.46
564.41	1488.58
564.57	1502.62
564.74	1504.96
564.90	1488.58
565.07	1500.28
565.23	1603.27
565.39	1446.45
565.56	1502.62
565.72	1411.34
565.88	1399.64
566.05	1315.38
566.21	1455.81
566.38	1427.73
566.54	1380.92
566.70	1441.77
566.87	1427.73
567.03	1549.43
567.19	1472.20
567.36	1526.03
567.52	1472.20
567.68	1462.83
567.85	1385.60
568.01	1430.07
568.17	1416.02
568.34	1460.49
568.50	1460.49
568.66	1306.02
568.83	1479.22
568.99	1373.89
569.15	1432.41
569.32	1352.83
569.48	1364.53
569.64	1343.47
569.81	1320.06
569.97	1259.21
570.13	1366.87
570.30	1324.74
570.46	1313.04
570.62	1289.64
570.78	1341.13
570.95	1310.70
571.11	1483.90
571.27	1306.02
571.43	1280.27
571.60	1401.98
571.76	1280.27
571.92	1371.55
572.09	1350.49
572.25	1371.55
572.41	1348.15
572.57	1343.47
572.74	1472.20
572.90	1362.19
573.06	1364.53
573.22	1423.05
573.38	1315.38
573.55	1399.64
573.71	1371.55
573.87	1352.83
574.03	1397.30
574.20	1284.95
574.36	1313.04
574.52	1256.87
574.68	1224.10
574.84	1404.32
575.01	1441.77
575.17	1270.91
575.33	1348.15
575.49	1397.30
575.65	1397.30
575.82	1383.26
575.98	1348.15
576.14	1327.08
576.30	1387.94
576.46	1322.40
576.62	1500.28
576.79	1596.25
576.95	1509.65
577.11	1416.02
577.27	1287.29
577.43	1341.13
577.59	1350.49
577.75	1413.68
577.92	1359.85
578.08	1322.40
578.24	1397.30
578.40	1404.32
578.56	1460.49
578.72	1530.71
578.88	1453.47
579.04	1413.68
579.21	1380.92
579.37	1263.89
579.53	1357.51
579.69	1472.20
579.85	1275.59
580.01	1355.17
580.17	1287.29
580.33	1416.02
580.49	1455.81
580.65	1432.41
580.82	1394.96
580.98	1420.71
581.14	1327.08
581.30	1409.00
581.46	1261.55
581.62	1378.58
581.78	1317.72
581.94	1427.73
582.10	1355.17
582.26	1469.86
582.42	1448.79
582.58	1432.41
582.74	1406.66
582.90	1416.02
583.06	1425.39
583.22	1376.24
583.38	1427.73
583.54	1383.26
583.70	1495.60
583.86	1416.02
584.02	1376.24
584.18	1472.20
584.34	1336.45
584.50	1343.47
584.66	1343.47
584.82	1357.51
584.98	1352.83
585.14	1369.21
585.30	1385.60
585.46	1345.81
585.62	1277.93
585.78	1322.40
585.94	1392.62
586.10	1327.08
586.26	1425.39
586.42	1481.56
586.58	1289.64
586.74	1362.19
586.90	1409.00
587.06	1483.90
587.22	1502.62
587.38	1268.57
587.54	1399.64
587.70	1355.17
587.86	1221.76
588.02	1207.72
588.18	1191.33
588.34	1095.37
588.49	1039.20
588.65	987.71
588.81	1032.18
588.97	950.26
589.13	945.58
589.29	1064.94
589.45	1025.15
589.61	987.71
589.77	1029.84
589.93	1041.54
590.08	1123.46
590.24	1156.22
590.40	1193.67
590.56	1263.89
590.72	1090.69
590.88	1128.14
591.04	1146.86
591.20	1114.10
591.35	1235.80
591.51	1081.33
591.67	1196.01
591.83	1043.88
591.99	1153.88
592.15	1109.41
592.31	1224.10
592.46	1158.57
592.62	1179.63
592.78	1184.31
592.94	1144.52
593.10	1280.27
593.26	1291.98
593.41	1203.04
593.57	1249.85
593.73	1123.46
593.89	1165.59
594.05	1135.16
594.20	1097.71
594.36	1116.44
594.52	1067.28
594.68	1100.05
594.84	1132.82
594.99	1188.99
595.15	1207.72
595.31	1184.31
595.47	1130.48
595.62	1174.95
595.78	1165.59
595.94	1170.27
596.10	1214.74
596.25	1125.80
596.41	1121.12
596.57	1130.48
596.73	1137.50
596.88	1130.48
597.04	1156.22
597.20	1128.14
597.36	1069.62
597.51	1135.16
597.67	1233.46
597.83	1184.31
597.99	1114.10
598.14	1139.84
598.30	1177.29
598.46	1114.10
598.61	1109.41
598.77	1221.76
598.93	1177.29
599.09	1212.40
599.24	1242.82
599.40	1186.65
599.56	1219.42
599.71	1170.27
599.87	1165.59
600.03	1142.18
600.18	1219.42
600.34	1118.78
600.50	1111.75
600.65	1083.67
600.81	1200.69
600.97	1254.53
601.12	1116.44
601.28	1114.10
601.44	1163.25
601.59	1214.74
601.75	1114.10
601.91	1125.80
602.06	1214.74
602.22	1327.08
602.37	1149.20
602.53	1132.82
602.69	1214.74
602.84	1238.14
603.00	1233.46
603.16	1163.25
603.31	1214.74
603.47	1214.74
603.62	1123.46
603.78	1196.01
603.94	1203.04
604.09	1132.82
604.25	1238.14
604.40	1238.14
604.56	1121.12
604.71	1146.86
604.87	1086.01
605.03	1151.54
605.18	1191.33
605.34	1184.31
605.49	1247.51
605.65	1139.84
605.80	1149.20
605.96	1170.27
606.12	1111.75
606.27	1149.20
606.43	1249.85
606.58	1172.61
606.74	1226.44
606.89	1193.67
607.05	1280.27
607.20	1245.16
607.36	1142.18
607.51	1200.69
607.67	1132.82
607.82	1163.25
607.98	1252.19
608.13	1132.82
608.29	1158.57
608.44	1299.00
608.60	1221.76
608.75	1254.53
608.91	1261.55
609.06	1231.12
609.22	1259.21
609.37	1149.20
609.53	1233.46
609.68	1296.66
609.84	1224.10
609.99	1397.30
610.15	1331.76
610.30	1453.47
610.46	1486.24
610.61	1680.50
610.76	1795.19
610.92	1900.52
611.07	1984.77
611.23	2092.44
611.38	2059.67
611.54	1816.26
611.69	1720.29
611.84	1650.08
612.00	1444.11
612.15	1413.68
612.31	1385.60
612.46	1406.66
612.62	1310.70
612.77	1308.36
612.92	1350.49
613.08	1364.53
613.23	1266.23
613.39	1245.16
613.54	1167.93
613.69	1144.52
613.85	1242.82
614.00	1254.53
614.15	1212.40
614.31	1233.46
614.46	1301.34
614.62	1294.32
614.77	1308.36
614.92	1277.93
615.08	1235.80
615.23	1165.59
615.38	1160.91
615.54	1156.22
615.69	1132.82
615.84	1032.18
616.00	1004.09
616.15	1090.69
616.30	1081.33
616.46	1074.31
616.61	1088.35
616.76	1027.50
616.92	980.68
617.07	1004.09
617.22	1062.60
617.37	1013.45
617.53	1109.41
617.68	1006.43
617.83	1053.24
617.99	1055.58
618.14	1158.57
618.29	1128.14
618.45	1088.35
618.60	1121.12
618.75	1041.54
618.90	1086.01
619.06	1111.75
619.21	1100.05
619.36	1118.78
619.51	1116.44
619.67	985.37
619.82	1093.03
619.97	1086.01
620.12	1032.18
620.28	1001.75
620.43	1029.84
620.58	1015.79
620.73	1018.13
620.89	1118.78
621.04	1102.39
621.19	1004.09
621.34	1008.77
621.49	1041.54
621.65	1011.11
621.80	1078.99
621.95	1057.92
622.10	1062.60
622.25	1006.43
622.41	1006.43
622.56	1015.79
622.71	1015.79
622.86	1046.22
623.01	954.94
623.16	1001.75
623.32	1046.22
623.47	983.02
623.62	959.62
623.77	1060.26
623.92	1076.65
624.07	964.30
624.23	924.51
624.38	959.62
624.53	1057.92
624.68	957.28
624.83	1043.88
624.98	985.37
625.13	994.73
625.29	952.60
625.44	940.90
625.59	976.00
625.74	1048.56
625.89	947.92
626.04	1015.79
626.19	1034.52
626.34	961.96
626.49	938.55
626.65	880.04
626.80	1015.79
626.95	929.19
627.10	952.60
627.25	887.06
627.40	919.83
627.55	877.70
627.70	849.61
627.85	833.23
628.00	896.43
628.15	943.24
628.30	940.90
628.45	945.58
628.60	903.45
628.76	922.17
628.91	849.61
629.06	922.17
629.21	994.73
629.36	947.92
629.51	901.11
629.66	877.70
629.81	877.70
629.96	919.83
630.11	917.49
630.26	971.32
630.41	968.98
630.56	966.64
630.71	1011.11
630.86	990.05
631.01	924.51
631.16	954.94
631.31	931.53
631.46	952.60
631.61	863.66
631.76	901.11
631.91	877.70
632.06	863.66
632.21	851.96
632.36	882.38
632.51	854.30
632.66	999.41
632.81	828.55
632.96	791.10
633.10	779.40
633.25	861.32
633.40	873.02
633.55	873.02
633.70	802.80
633.85	844.93
634.00	807.48
634.15	755.99
634.30	887.06
634.45	884.72
634.60	798.12
634.75	903.45
634.90	891.74
635.05	905.79
635.19	826.21
635.34	908.13
635.49	917.49
635.64	816.85
635.79	784.08
635.94	957.28
636.09	786.42
636.24	835.57
636.39	765.36
636.53	802.80
636.68	760.67
636.83	882.38
636.98	898.77
637.13	882.38
637.28	863.66
637.43	830.89
637.57	884.72
637.72	795.78
637.87	826.21
638.02	844.93
638.17	947.92
638.32	866.00
638.46	931.53
638.61	947.92
638.76	767.70
638.91	809.83
639.06	758.33
639.20	863.66
639.35	748.97
639.50	788.76
639.65	882.38
639.80	732.59
639.94	835.57
640.09	798.12
640.24	887.06
640.39	837.91
640.54	807.48
640.68	781.74
640.83	880.04
640.98	786.42
641.13	793.44
641.27	798.12
641.42	753.65
641.57	877.70
641.72	800.46
641.86	779.40
642.01	795.78
642.16	760.67
642.31	830.89
642.45	814.51
642.60	784.08
642.75	777.06
642.90	861.32
643.04	791.10
643.19	800.46
643.34	840.25
643.48	791.10
643.63	784.08
643.78	798.12
643.93	891.74
644.07	800.46
644.22	837.91
644.37	816.85
644.51	777.06
644.66	809.83
644.81	777.06
644.95	807.48
645.10	711.52
645.25	669.39
645.39	727.91
645.54	753.65
645.69	837.91
645.83	798.12
645.98	758.33
646.13	697.48
646.27	793.44
646.42	741.95
646.57	706.84
646.71	716.20
646.86	737.27
647.00	634.29
647.15	688.12
647.30	683.44
647.44	695.14
647.59	746.63
647.74	734.93
647.88	723.23
648.03	678.76
648.17	655.35
648.32	692.80
648.47	758.33
648.61	655.35
648.76	702.16
648.90	697.48
649.05	690.46
649.20	699.82
649.34	601.52
649.49	638.97
649.63	723.23
649.78	688.12
649.92	685.78
650.07	814.51
650.21	807.48
650.36	821.53
650.51	786.42
650.65	739.61
650.80	774.72
650.94	737.27
651.09	739.61
651.23	692.80
651.38	564.07
651.52	620.24
651.67	697.48
651.81	669.39
651.96	774.72
652.10	732.59
652.25	732.59
652.39	678.76
652.54	767.70
652.68	720.88
652.83	746.63
652.97	730.25
653.12	779.40
653.26	685.78
653.41	741.95
653.55	671.73
653.70	638.97
653.84	692.80
653.99	678.76
654.13	683.44
654.27	723.23
654.42	758.33
654.56	636.63
654.71	692.80
654.85	664.71
655.00	648.33
655.14	624.92
655.29	596.84
655.43	669.39
655.57	674.07
655.72	699.82
655.86	617.90
656.01	510.24
656.15	496.19
656.30	566.41
656.44	479.81
656.58	608.54
656.73	613.22
656.87	620.24
657.01	610.88
657.16	685.78
657.30	793.44
657.45	821.53
657.59	641.31
657.73	711.52
657.88	657.69
658.02	746.63
658.16	711.52
658.31	732.59
658.45	657.69
658.60	676.41
658.74	655.35
658.88	627.26
659.03	554.71
659.17	650.67
659.31	589.82
659.46	688.12
659.60	650.67
659.74	685.78
659.89	631.94
660.03	580.45
660.17	688.12
660.32	585.13
660.46	662.37
660.60	674.07
660.74	615.56
660.89	692.80
661.03	622.58
661.17	685.78
661.32	674.07
661.46	671.73
661.60	690.46
661.74	676.41
661.89	716.20
662.03	713.86
662.17	695.14
662.31	674.07
662.46	765.36
662.60	802.80
662.74	624.92
662.88	650.67
663.03	692.80
663.17	587.47
663.31	662.37
663.45	690.46
663.60	594.50
663.74	706.84
663.88	540.66
664.02	543.00
664.17	631.94
664.31	667.05
664.45	678.76
664.59	671.73
664.73	645.99
664.88	641.31
665.02	650.67
665.16	573.43
665.30	641.31
665.44	606.20
665.59	617.90
665.73	594.50
665.87	629.60
666.01	692.80
666.15	671.73
666.29	587.47
666.44	746.63
666.58	716.20
666.72	627.26
666.86	615.56
667.00	723.23
667.14	571.09
667.28	608.54
667.43	655.35
667.57	660.03
667.71	620.24
667.85	547.69
667.99	606.20
668.13	606.20
668.27	554.71
668.41	622.58
668.56	648.33
668.70	608.54
668.84	624.92
668.98	582.79
669.12	603.86
669.26	589.82
669.40	706.84
669.54	610.88
669.68	624.92
669.82	657.69
669.96	664.71
670.10	545.34
670.25	678.76
670.39	645.99
670.53	603.86
670.67	561.73
670.81	587.47
670.95	587.47
671.09	606.20
671.23	573.43
671.37	594.50
671.51	660.03
671.65	538.32
671.79	617.90
671.93	624.92
672.07	770.04
672.21	655.35
672.35	575.77
672.49	582.79
672.63	592.16
672.77	531.30
672.91	524.28
673.05	622.58
673.19	585.13
673.33	535.98
673.47	592.16
673.61	603.86
673.75	524.28
673.89	603.86
674.03	650.67
674.17	580.45
674.31	599.18
674.45	617.90
674.59	557.05
674.73	643.65
674.87	535.98
675.01	543.00
675.15	500.87
675.29	697.48
675.43	627.26
675.56	550.03
675.70	564.07
675.84	580.45
675.98	564.07
676.12	582.79
676.26	571.09
676.40	496.19
676.54	587.47
676.68	547.69
676.82	585.13
676.96	489.17
677.10	638.97
677.23	491.51
677.37	482.15
677.51	521.94
677.65	629.60
677.79	557.05
677.93	552.37
678.07	531.30
678.21	470.45
678.34	503.22
678.48	440.02
678.62	503.22
678.76	454.06
678.90	543.00
679.04	547.69
679.18	477.47
679.31	514.92
679.45	528.96
679.59	367.46
679.73	524.28
679.87	507.90
680.00	493.85
680.14	512.58
680.28	585.13
680.42	538.32
680.56	489.17
680.70	440.02
680.83	423.64
680.97	500.87
681.11	535.98
681.25	578.11
681.39	465.77
681.52	425.98
681.66	458.74
681.80	524.28
681.94	561.73
682.07	489.17
682.21	535.98
682.35	428.32
682.49	449.38
682.62	503.22
682.76	423.64
682.90	498.53
683.04	428.32
683.17	425.98
683.31	477.47
683.45	465.77
683.59	547.69
683.72	512.58
683.86	479.81
684.00	468.11
684.13	510.24
684.27	517.26
684.41	362.78
684.55	468.11
684.68	510.24
684.82	475.13
684.96	505.56
685.09	463.43
685.23	402.57
685.37	468.11
685.50	479.81
685.64	521.94
685.78	416.62
685.91	531.30
686.05	517.26
686.19	447.04
686.32	407.25
686.46	337.04
686.60	341.72
686.73	402.57
686.87	358.10
687.01	297.25
687.14	334.70
687.28	360.44
687.42	330.02
687.55	236.39
687.69	407.25
687.82	344.06
687.96	404.91
688.10	414.27
688.23	376.83
688.37	447.04
688.50	344.06
688.64	341.72
688.78	374.49
688.91	306.61
689.05	369.80
689.18	299.59
689.32	365.12
689.46	374.49
689.59	358.10
689.73	365.12
689.86	381.51
690.00	362.78
690.13	290.23
690.27	346.40
690.41	344.06
690.54	369.80
690.68	437.68
690.81	365.12
690.95	416.62
691.08	383.85
691.22	353.42
691.35	421.30
691.49	360.44
691.62	318.31
691.76	442.36
691.89	390.87
692.03	372.15
692.16	339.38
692.30	337.04
692.43	327.68
692.57	381.51
692.70	322.99
692.84	292.57
692.97	315.97
693.11	273.84
693.24	304.27
693.38	262.14
693.51	341.72
693.65	365.12
693.78	280.86
693.92	376.83
694.05	217.67
694.19	344.06
694.32	355.76
694.45	278.52
694.59	290.23
694.72	337.04
694.86	243.42
694.99	278.52
695.13	271.50
695.26	266.82
695.39	421.30
695.53	358.10
695.66	301.93
695.80	355.76
695.93	245.76
696.07	337.04
696.20	402.57
696.33	320.65
696.47	334.70
696.60	360.44
696.73	372.15
696.87	339.38
697.00	313.63
697.14	346.40
697.27	344.06
697.40	379.17
697.54	297.25
697.67	327.68
697.80	297.25
697.94	313.63
698.07	313.63
698.21	320.65
698.34	313.63
698.47	271.50
698.61	276.18
698.74	217.67
698.87	252.78
699.01	311.29
699.14	271.50
699.27	292.57
699.40	362.78
699.54	313.63
699.67	266.82
699.80	262.14
699.94	297.25
700.07	262.14
700.20	304.27
700.34	273.84
700.47	210.65
700.60	322.99
700.73	243.42
700.87	376.83
701.00	283.20
701.13	299.59
701.26	259.80
701.40	238.73
701.53	287.89
701.66	313.63
701.79	315.97
701.93	243.42
702.06	367.46
702.19	243.42
702.32	299.59
702.46	306.61
702.59	306.61
702.72	220.01
702.85	259.80
702.99	280.86
703.12	234.05
703.25	280.86
703.38	224.69
703.51	337.04
703.65	255.12
703.78	273.84
703.91	257.46
704.04	257.46
704.17	297.25
704.31	234.05
704.44	201.29
704.57	320.65
704.70	332.36
704.83	327.68
704.96	250.44
705.10	285.55
705.23	262.14
>>>>>End Processed Spectral Data<<<<<
