SpectraSuite Data File
++++++++++++++++++++++++++++++++++++
Date: Fri Oct 04 11:39:40 GMT-05:00 2013
User: price-jones
Dark Spectrum Present: No
Reference Spectrum Present: No
Number of Sampled Component Spectra: 1
Spectrometers: USB2+H05261
Integration Time (usec): 100000 (USB2+H05261)
Spectra Averaged: 1 (USB2+H05261)
Boxcar Smoothing: 0 (USB2+H05261)
Correct for Electrical Dark: No (USB2+H05261)
Strobe/Lamp Enabled: No (USB2+H05261)
Correct for Detector Non-linearity: No (USB2+H05261)
Correct for Stray Light: No (USB2+H05261)
Number of Pixels in Processed Spectrum: 2048
>>>>>Begin Processed Spectral Data<<<<<
365.73	63.19
365.92	63.19
366.12	63.19
366.32	0.00
366.52	0.00
366.72	0.00
366.91	0.00
367.11	2.34
367.31	0.00
367.51	0.00
367.70	0.00
367.90	0.00
368.10	21.06
368.30	0.00
368.49	0.00
368.69	0.00
368.89	0.00
369.09	0.00
369.28	2.34
369.48	0.00
369.68	11.70
369.87	0.00
370.07	7.02
370.27	0.00
370.47	81.92
370.66	227.03
370.86	236.39
371.06	173.20
371.25	367.46
371.45	304.27
371.65	280.86
371.84	248.10
372.04	334.70
372.24	351.08
372.44	341.72
372.63	372.15
372.83	362.78
373.03	341.72
373.22	318.31
373.42	327.68
373.62	355.76
373.81	437.68
374.01	330.02
374.21	379.17
374.40	367.46
374.60	374.49
374.79	416.62
374.99	451.72
375.19	390.87
375.38	430.66
375.58	451.72
375.78	461.09
375.97	400.23
376.17	440.02
376.37	402.57
376.56	451.72
376.76	393.21
376.95	404.91
377.15	435.34
377.35	425.98
377.54	470.45
377.74	411.93
377.93	423.64
378.13	381.51
378.33	414.27
378.52	376.83
378.72	468.11
378.91	421.30
379.11	374.49
379.31	463.43
379.50	437.68
379.70	468.11
379.89	402.57
380.09	468.11
380.28	463.43
380.48	486.83
380.68	395.55
380.87	397.89
381.07	479.81
381.26	505.56
381.46	496.19
381.65	498.53
381.85	454.06
382.04	505.56
382.24	519.60
382.43	386.19
382.63	454.06
382.83	470.45
383.02	528.96
383.22	550.03
383.41	493.85
383.61	559.39
383.80	564.07
384.00	559.39
384.19	503.22
384.39	599.18
384.58	540.66
384.78	505.56
384.97	547.69
385.17	571.09
385.36	505.56
385.56	526.62
385.75	533.64
385.95	554.71
386.14	507.90
386.34	585.13
386.53	645.99
386.72	676.41
386.92	543.00
387.11	578.11
387.31	599.18
387.50	496.19
387.70	573.43
387.89	669.39
388.09	545.34
388.28	662.37
388.48	627.26
388.67	571.09
388.86	662.37
389.06	650.67
389.25	643.65
389.45	676.41
389.64	638.97
389.84	744.29
390.03	603.86
390.22	664.71
390.42	641.31
390.61	645.99
390.81	690.46
391.00	681.10
391.19	741.95
391.39	683.44
391.58	819.19
391.78	671.73
391.97	660.03
392.16	713.86
392.36	777.06
392.55	711.52
392.75	704.50
392.94	692.80
393.13	802.80
393.33	805.14
393.52	802.80
393.71	823.87
393.91	837.91
394.10	774.72
394.29	847.27
394.49	720.88
394.68	866.00
394.88	807.48
395.07	870.68
395.26	875.36
395.46	814.51
395.65	929.19
395.84	849.61
396.04	936.21
396.23	891.74
396.42	823.87
396.62	882.38
396.81	887.06
397.00	861.32
397.19	938.55
397.39	894.08
397.58	933.87
397.77	917.49
397.97	999.41
398.16	994.73
398.35	1034.52
398.55	877.70
398.74	1043.88
398.93	1041.54
399.12	1013.45
399.32	966.64
399.51	990.05
399.70	971.32
399.90	994.73
400.09	987.71
400.28	1111.75
400.47	1144.52
400.67	1123.46
400.86	1076.65
401.05	1064.94
401.24	1170.27
401.44	1210.06
401.63	1221.76
401.82	1174.95
402.01	1170.27
402.21	1224.10
402.40	1163.25
402.59	1186.65
402.78	1261.55
402.97	1177.29
403.17	1282.61
403.36	1259.21
403.55	1273.25
403.74	1261.55
403.93	1320.06
404.13	1308.36
404.32	1371.55
404.51	1331.76
404.70	1430.07
404.89	1380.92
405.09	1474.54
405.28	1434.75
405.47	1345.81
405.66	1420.71
405.85	1465.18
406.05	1500.28
406.24	1451.13
406.43	1556.46
406.62	1596.25
406.81	1629.01
407.00	1511.99
407.20	1537.73
407.39	1547.09
407.58	1652.42
407.77	1636.03
407.96	1640.72
408.15	1629.01
408.34	1703.91
408.54	1755.40
408.73	1675.82
408.92	1792.85
409.11	1722.63
409.30	1853.70
409.49	1692.21
409.68	1743.70
409.87	1849.02
410.07	1827.96
410.26	1856.04
410.45	1923.92
410.64	1771.79
410.83	1973.07
411.02	1947.33
411.21	1994.14
411.40	1919.24
411.59	1989.46
411.78	1973.07
411.98	2026.90
412.17	2073.71
412.36	2143.93
412.55	2172.02
412.74	2176.70
412.93	2300.75
413.12	2214.15
413.31	2328.83
413.50	2300.75
413.69	2242.23
413.88	2382.67
414.07	2352.24
414.26	2368.62
414.45	2392.03
414.64	2485.65
414.83	2450.54
415.02	2450.54
415.22	2672.89
415.41	2609.70
415.60	2644.81
415.79	2555.86
415.98	2635.44
416.17	2651.83
416.36	2612.04
416.55	2775.88
416.74	2836.73
416.93	2696.30
417.12	2698.64
417.31	2719.70
417.50	2946.73
417.69	2878.86
417.88	2928.01
418.07	2935.03
418.26	2881.20
418.45	2888.22
418.64	2988.86
418.83	3068.44
419.02	3082.49
419.21	3047.38
419.39	3112.91
419.58	3056.74
419.77	2965.46
419.96	3129.30
420.15	3194.83
420.34	3119.93
420.53	3290.79
420.72	3183.13
420.91	3190.15
421.10	3295.47
421.29	3290.79
421.48	3141.00
421.67	3302.50
421.86	3304.84
422.05	3323.56
422.24	3211.22
422.43	3269.73
422.61	3276.75
422.80	3370.37
422.99	3456.97
423.18	3403.14
423.37	3527.19
423.56	3447.61
423.75	3466.33
423.94	3400.80
424.13	3239.30
424.32	3344.63
424.50	3543.57
424.69	3616.13
424.88	3538.89
425.07	3435.91
425.26	3309.52
425.45	3503.78
425.64	3550.59
425.83	3375.05
426.01	3574.00
426.20	3555.27
426.39	3552.93
426.58	3595.06
426.77	3630.17
426.96	3588.04
427.15	3555.27
427.33	3536.55
427.52	3667.62
427.71	3660.60
427.90	3637.19
428.09	3840.82
428.28	3662.94
428.46	3662.94
428.65	3709.75
428.84	3864.22
429.03	3901.67
429.22	3772.94
429.40	3805.71
429.59	3915.72
429.78	3833.80
429.97	3754.22
430.16	3712.09
430.34	3985.93
430.53	4053.81
430.72	3948.48
430.91	3943.80
431.10	3960.19
431.28	4088.92
431.47	4121.68
431.66	4156.79
431.85	4088.92
432.03	4126.36
432.22	4259.78
432.41	4107.64
432.60	4074.87
432.79	4121.68
432.97	4308.93
433.16	4119.34
433.35	4257.43
433.54	4320.63
433.72	4308.93
433.91	4266.80
434.10	4388.50
434.28	4201.26
434.47	4344.03
434.66	4428.29
434.85	4475.10
435.03	4624.90
435.22	4800.44
435.41	5060.24
435.59	4990.02
435.78	4589.79
435.97	4566.39
436.16	4449.36
436.34	4585.11
436.53	4603.83
436.72	4732.56
436.90	4468.08
437.09	4669.37
437.28	4512.55
437.46	4716.18
437.65	4713.84
437.84	4781.71
438.02	4802.78
438.21	4753.63
438.40	4772.35
438.58	4830.87
438.77	4936.19
438.96	4999.38
439.14	4990.02
439.33	5055.56
439.52	5013.43
439.70	5193.65
439.89	5137.48
440.08	5284.93
440.26	5151.52
440.45	5397.28
440.63	5357.49
440.82	5348.12
441.01	5231.10
441.19	5350.46
441.38	5444.09
441.57	5483.88
441.75	5558.77
441.94	5451.11
442.12	5537.71
442.31	5813.89
442.50	5523.66
442.68	5694.52
442.87	5654.73
443.05	5760.06
443.24	5977.73
443.43	5799.85
443.61	5898.15
443.80	5949.64
443.98	5806.87
444.17	5643.03
444.35	5795.17
444.54	5982.41
444.73	5984.75
444.91	5949.64
445.10	5930.92
445.28	5928.58
445.47	5891.13
445.65	5809.21
445.84	5966.03
446.02	5989.43
446.21	5825.59
446.39	6003.47
446.58	6099.44
446.77	5970.71
446.95	5874.74
447.14	5900.49
447.32	5994.11
447.51	6066.67
447.69	5982.41
447.88	5966.03
448.06	5968.37
448.25	6026.88
448.43	6141.57
448.62	5947.30
448.80	6040.92
448.99	5987.09
449.17	6026.88
449.36	6031.56
449.54	6136.88
449.73	6441.15
449.91	6511.37
450.10	6340.51
450.28	6260.93
450.46	6394.34
450.65	6356.90
450.83	6359.24
451.02	6506.69
451.20	6326.47
451.39	6459.88
451.57	6396.68
451.76	6406.05
451.94	6494.99
452.13	6555.84
452.31	6565.20
452.49	6384.98
452.68	6658.82
452.86	6630.74
453.05	6743.08
453.23	6567.54
453.42	6665.85
453.60	6696.27
453.78	6796.92
453.97	6476.26
454.15	6778.19
454.34	6649.46
454.52	6705.63
454.70	6869.47
454.89	6876.49
455.07	6979.48
455.26	6836.70
455.44	6981.82
455.62	6930.33
455.81	6881.18
455.99	6843.73
456.17	7108.21
456.36	7082.46
456.54	7194.81
456.73	7222.89
456.91	7143.32
457.09	7117.57
457.28	7400.77
457.46	7400.77
457.64	7365.67
457.83	7157.36
458.01	7052.03
458.19	7428.86
458.38	7269.70
458.56	7496.74
458.74	7499.08
458.93	7307.15
459.11	7571.63
459.29	7517.80
459.48	7510.78
459.66	7515.46
459.84	7695.68
460.03	7648.87
460.21	7667.60
460.39	7581.00
460.57	7754.19
460.76	7936.76
460.94	7613.76
461.12	7662.91
461.31	7779.94
461.49	7723.77
461.67	7889.95
461.85	7936.76
462.04	7911.01
462.22	8320.60
462.40	8056.12
462.59	7892.29
462.77	8154.43
462.95	8028.04
463.13	8056.12
463.32	8072.51
463.50	8322.94
463.68	8135.70
463.86	8102.93
464.05	8170.81
464.23	8119.32
464.41	8135.70
464.59	7906.33
464.78	8358.05
464.96	8189.53
465.14	8217.62
465.32	8332.31
465.50	8566.36
465.69	8421.25
465.87	8248.05
466.05	8262.09
466.23	8533.59
466.41	8341.67
466.60	8528.91
466.78	8421.25
466.96	8463.38
467.14	8615.51
467.32	8741.90
467.51	8788.71
467.69	8374.44
467.87	8580.40
468.05	8681.05
468.23	8617.85
468.41	8863.61
468.60	8765.31
468.78	8922.12
468.96	8599.13
469.14	8748.92
469.32	8840.20
469.50	8713.81
469.69	8978.30
469.87	9074.26
470.05	9095.32
470.23	9076.60
470.41	8943.19
470.59	9102.34
470.77	9217.03
470.95	9240.44
471.14	9247.46
471.32	9139.79
471.50	9376.19
471.68	9247.46
471.86	9540.02
472.04	9542.36
472.22	9736.63
472.40	9479.17
472.58	9657.05
472.77	9643.01
472.95	9767.06
473.13	9837.27
473.31	9577.47
473.49	9755.35
473.67	9937.91
473.85	9958.98
474.03	10162.61
474.21	9867.70
474.39	10157.92
474.57	10115.80
474.75	10382.62
474.93	10228.14
475.12	10328.78
475.30	10499.64
475.48	10380.28
475.66	10312.40
475.84	10523.05
476.02	10630.71
476.20	10569.86
476.38	10899.87
476.56	11052.01
476.74	10850.72
476.92	10850.72
477.10	10726.68
477.28	10944.34
477.46	11098.82
477.64	11009.88
477.82	11468.62
478.00	11728.42
478.18	11463.94
478.36	11800.98
478.54	11683.95
478.72	11688.64
478.90	11932.05
479.08	11932.05
479.26	12184.83
479.44	11999.93
479.62	12264.41
479.80	12161.42
479.98	12442.29
480.16	12461.01
480.34	12554.63
480.52	12620.17
480.70	12784.01
480.88	12540.59
481.06	12875.29
481.24	12767.62
481.41	13053.17
481.59	13308.29
481.77	13034.44
481.95	13259.13
482.13	13589.15
482.31	13549.36
482.49	13762.35
482.67	13757.67
482.85	13872.36
483.03	13895.76
483.21	14281.95
483.39	14040.87
483.57	14352.16
483.74	14427.06
483.92	14455.15
484.10	14387.27
484.28	14679.84
484.46	15346.89
484.64	15330.51
484.82	14984.11
485.00	14977.09
485.18	15365.62
485.35	15712.02
485.53	15410.09
485.71	15587.97
485.89	15871.17
486.07	16065.44
486.25	15873.51
486.43	15978.84
486.61	16383.75
486.78	16421.20
486.96	16556.95
487.14	16570.99
487.32	16613.12
487.50	17116.34
487.68	16802.71
487.85	17249.75
488.03	17444.01
488.21	17537.63
488.39	17530.61
488.57	17834.88
488.75	18167.24
488.92	18253.84
489.10	18171.92
489.28	18155.54
489.46	18661.09
489.64	18780.46
489.81	18948.98
489.99	19080.05
490.17	18789.82
490.35	18958.34
490.53	19140.90
490.70	18956.00
490.88	19234.52
491.06	19573.90
491.24	19524.75
491.41	19571.56
491.59	19908.60
491.77	19917.96
491.95	20271.38
492.13	20334.57
492.30	20526.50
492.48	20327.55
492.66	20734.81
492.84	20606.08
493.01	20608.42
493.19	20776.94
493.37	21062.48
493.54	21338.66
493.72	21380.79
493.90	21387.82
494.08	21380.79
494.25	21738.90
494.43	21869.97
494.61	21937.84
494.79	22118.06
494.96	22153.17
495.14	22146.15
495.32	22501.91
495.49	22317.01
495.67	22387.22
495.85	22438.72
496.02	22836.61
496.20	23187.69
496.38	22836.61
496.55	23129.17
496.73	23536.43
496.91	23241.52
497.09	23220.45
497.26	23580.90
497.44	23798.57
497.62	23894.53
497.79	23843.04
497.97	23988.15
498.14	24472.64
498.32	24182.42
498.50	24594.35
498.67	24643.50
498.85	24194.12
499.03	24753.51
499.20	24545.20
499.38	24900.96
499.56	25039.05
499.73	25020.33
499.91	25336.30
500.08	25546.95
500.26	25280.13
500.44	25305.87
500.61	25654.61
500.79	25523.54
500.97	25940.16
501.14	26031.44
501.32	26061.87
501.49	26202.30
501.67	25755.26
501.84	26113.36
502.02	26106.34
502.20	26291.24
502.37	26621.25
502.55	26473.80
502.72	26398.90
502.90	26668.06
503.07	26422.31
503.25	26726.58
503.43	27061.27
503.60	27110.43
503.78	27358.52
503.95	27072.98
504.13	27367.88
504.30	26932.54
504.48	27407.67
504.65	27154.90
504.83	27999.83
505.01	27936.63
505.18	27791.52
505.36	27992.81
505.53	27793.86
505.71	28084.09
505.88	28276.01
506.06	27803.22
506.23	28397.72
506.41	28123.88
506.58	28402.40
506.76	28755.82
506.93	28643.48
507.11	28641.14
507.28	28484.32
507.46	29029.66
507.63	29298.83
507.81	29067.11
507.98	29214.57
508.16	29017.96
508.33	29067.11
508.50	29256.70
508.68	29411.17
508.85	29638.20
509.03	29249.67
509.20	29724.80
509.38	29881.62
509.55	29986.94
509.73	29869.92
509.90	30246.74
510.08	30323.98
510.25	29900.34
510.42	30237.38
510.60	30635.27
510.77	30909.11
510.95	30742.94
511.12	30749.96
511.30	30478.46
511.47	30775.70
511.64	31026.14
511.82	31187.64
511.99	31278.92
512.17	31388.92
512.34	31229.77
512.51	31147.85
512.69	31035.50
512.86	31431.05
513.04	31536.38
513.21	31707.24
513.38	31711.92
513.56	31906.18
513.73	32032.57
513.90	31931.93
514.08	31683.83
514.25	32051.30
514.43	32421.10
514.60	32180.03
514.77	32231.52
514.95	32655.15
515.12	32524.08
515.29	32147.26
515.47	32676.22
515.64	33172.41
515.81	32610.68
515.99	33034.32
516.16	33085.81
516.33	33017.94
516.51	33249.65
516.68	33132.62
516.85	33212.20
517.03	33312.84
517.20	33586.69
517.37	33490.73
517.54	33638.18
517.72	33778.61
517.89	33930.75
518.06	33558.60
518.24	33600.73
518.41	33682.65
518.58	33930.75
518.75	34232.68
518.93	34354.38
519.10	34139.05
519.27	34227.99
519.45	34213.95
519.62	34015.01
519.79	34480.77
519.96	34408.22
520.14	34455.03
520.31	34302.89
520.48	35145.48
520.65	34719.51
520.83	34991.01
521.00	34810.79
521.17	35030.80
521.34	34632.91
521.52	34796.74
521.69	35431.03
521.86	35770.41
522.03	35529.33
522.20	35131.44
522.38	35716.58
522.55	35433.37
522.72	35676.79
522.89	35849.99
523.07	35849.99
523.24	36058.29
523.41	35878.07
523.58	35789.13
523.75	36084.04
523.92	35601.89
524.10	36231.49
524.27	35976.37
524.44	36526.40
524.61	36575.55
524.78	36540.44
524.96	36568.53
525.13	36795.56
525.30	36786.20
525.47	36779.18
525.64	36666.83
525.81	36907.91
525.98	37053.02
526.16	36910.25
526.33	36762.79
526.50	37174.73
526.67	36575.55
526.84	37193.45
527.01	36992.17
527.18	37380.70
527.36	37504.74
527.53	37099.83
527.70	37509.43
527.87	37624.11
528.04	37596.03
528.21	37504.74
528.38	37076.43
528.55	38010.30
528.72	37411.12
528.89	37986.89
529.07	38312.23
529.24	37895.61
529.41	38539.26
529.58	38078.18
529.75	38103.92
529.92	37909.66
530.09	38373.08
530.26	38195.20
530.43	38242.01
530.60	38000.94
530.77	38333.29
530.94	38543.94
531.11	38312.23
531.28	38316.91
531.46	38724.16
531.63	38836.51
531.80	38759.27
531.97	38878.64
532.14	39377.17
532.31	39002.69
532.48	39466.11
532.65	39014.39
532.82	38960.56
532.99	39203.97
533.16	39297.59
533.33	39283.55
533.50	40086.36
533.67	39021.41
533.84	39187.59
534.01	38782.68
534.18	39213.34
534.35	39157.16
534.52	39344.41
534.69	39711.87
534.86	39971.67
535.03	39761.02
535.20	39959.97
535.37	40121.46
535.54	39962.31
535.71	39810.17
535.88	39658.04
536.05	39674.42
536.22	40378.92
536.38	40383.60
536.55	40027.84
536.72	40259.55
536.89	39789.11
537.06	40692.55
537.23	40472.54
537.40	40575.53
537.57	40676.17
537.74	40542.76
537.91	40900.86
538.08	40741.71
538.25	40453.82
538.42	40968.74
538.59	40453.82
538.75	40343.81
538.92	40610.64
539.09	40830.65
539.26	41006.19
539.43	41099.81
539.60	41230.88
539.77	40795.54
539.94	41237.90
540.11	41113.85
540.28	40971.08
540.44	40914.90
540.61	41263.64
540.78	41457.91
540.95	41654.51
541.12	41139.60
541.29	41785.58
541.46	41509.40
541.62	41567.91
541.79	42019.64
541.96	41387.69
542.13	41897.93
542.30	41464.93
542.47	42122.62
542.63	41780.90
542.80	41993.89
542.97	42342.63
543.14	42419.87
543.31	42003.25
543.48	42597.75
543.64	42667.97
543.81	42557.96
543.98	42724.14
544.15	42937.13
544.32	42885.64
544.48	42682.01
544.65	42719.46
544.82	42590.73
544.99	42141.35
545.16	42454.98
545.32	42628.18
545.49	43299.91
545.66	43906.11
545.83	43859.30
546.00	43880.36
546.16	43496.52
546.33	42387.10
546.50	42543.92
546.67	42972.24
546.83	42344.97
547.00	43173.52
547.17	42815.42
547.34	43346.72
547.50	43262.46
547.67	43629.93
547.84	43304.59
548.00	43103.31
548.17	43531.62
548.34	43175.86
548.51	43234.38
548.67	43372.47
548.84	43681.42
549.01	43627.59
549.18	43667.37
549.34	43667.37
549.51	43498.86
549.68	43264.80
549.84	42923.08
550.01	43672.06
550.18	43700.14
550.34	43433.32
550.51	43973.98
550.68	43648.65
550.84	43737.59
551.01	43669.72
551.18	43695.46
551.34	43164.16
551.51	43838.23
551.68	43997.39
551.84	43730.57
552.01	43814.83
552.18	44032.50
552.34	43922.49
552.51	43849.94
552.68	43765.68
552.84	44081.65
553.01	43948.24
553.18	44507.63
553.34	44023.14
553.51	44095.69
553.67	44402.30
553.84	44390.60
554.01	44608.27
554.17	44044.20
554.34	43992.71
554.51	44519.33
554.67	44514.65
554.84	44311.02
555.00	44727.64
555.17	44189.31
555.33	44591.89
555.50	44556.78
555.67	44027.82
555.83	44074.63
556.00	44289.96
556.16	44498.26
556.33	44334.43
556.50	44580.18
556.66	44516.99
556.83	44893.82
556.99	44914.88
557.16	44818.92
557.32	45052.97
557.49	45062.33
557.65	44376.56
557.82	44353.15
557.98	44463.16
558.15	44360.17
558.32	45155.96
558.48	44739.34
558.65	44844.66
558.81	45045.95
558.98	44814.24
559.14	44823.60
559.31	44404.64
559.47	45120.85
559.64	44924.24
559.80	44966.37
559.97	45120.85
560.13	44758.06
560.30	45015.52
560.46	45202.77
560.63	44844.66
560.79	44994.46
560.96	45272.98
561.12	45301.07
561.29	45013.18
561.45	44971.05
561.61	45373.63
561.78	45083.40
561.94	45118.51
562.11	45319.79
562.27	45298.73
562.44	45041.27
562.60	45249.58
562.77	45038.93
562.93	44776.79
563.10	45610.02
563.26	45219.15
563.42	45605.34
563.59	44797.85
563.75	45380.65
563.92	45287.03
564.08	45226.17
564.24	45022.54
564.41	45287.03
564.57	44891.48
564.74	45258.94
564.90	45170.00
565.07	45188.72
565.23	45301.07
565.39	45191.06
565.56	45769.18
565.72	45287.03
565.88	44928.92
566.05	45633.42
566.21	45240.21
566.38	45453.20
566.54	45511.72
566.70	45560.87
566.87	45787.90
567.03	45375.97
567.19	45558.53
567.36	45635.77
567.52	45598.32
567.68	45160.64
567.85	45411.07
568.01	45628.74
568.17	45603.00
568.34	45521.08
568.50	45542.14
568.66	45762.15
568.83	45617.04
568.99	45572.57
569.15	45668.53
569.32	45331.50
569.48	45170.00
569.64	45539.80
569.81	45516.40
569.97	45333.84
570.13	45500.01
570.30	45198.09
570.46	45722.37
570.62	45804.28
570.78	45298.73
570.95	45289.37
571.11	45734.07
571.27	45233.19
571.43	45448.52
571.60	45790.24
571.76	45666.19
571.92	45867.48
572.09	45661.51
572.25	45853.44
572.41	45713.00
572.57	45427.46
572.74	45738.75
572.90	45209.79
573.06	45448.52
573.22	45439.16
573.38	45626.40
573.55	45485.97
573.71	45972.80
573.87	45745.77
574.03	45385.33
574.20	45970.46
574.36	45682.58
574.52	45350.22
574.68	45338.52
574.84	45708.32
575.01	45483.63
575.17	45516.40
575.33	45682.58
575.49	45509.38
575.65	45947.06
575.82	45780.88
575.98	45815.99
576.14	45450.86
576.30	45808.96
576.46	45556.19
576.62	45902.59
576.79	45752.79
576.95	45542.14
577.11	45958.76
577.27	45645.13
577.43	45764.49
577.59	45595.98
577.75	45525.76
577.92	45729.39
578.08	45338.52
578.24	45727.05
578.40	45928.33
578.56	45951.74
578.72	46021.95
578.88	46490.06
579.04	46337.93
579.21	45799.60
579.37	46319.20
579.53	46169.41
579.69	45502.35
579.85	45902.59
580.01	45724.71
580.17	45860.46
580.33	45343.20
580.49	45881.52
580.65	45937.69
580.82	45839.39
580.98	45373.63
581.14	45490.65
581.30	45996.21
581.46	45364.26
581.62	45883.86
581.78	45450.86
581.94	45787.90
582.10	45600.66
582.26	45654.49
582.42	45764.49
582.58	45968.12
582.74	45734.07
582.90	46258.35
583.06	45736.41
583.22	45216.81
583.38	45710.66
583.54	45839.39
583.70	45488.31
583.86	45734.07
584.02	45495.33
584.18	46326.22
584.34	45832.37
584.50	46541.55
584.66	45766.84
584.82	45806.62
584.98	45687.26
585.14	45626.40
585.30	45656.83
585.46	45820.67
585.62	45801.94
585.78	46136.64
585.94	45918.97
586.10	45647.47
586.26	45834.71
586.42	46082.81
586.58	46066.42
586.74	46054.72
586.90	46174.09
587.06	45357.24
587.22	45710.66
587.38	45722.37
587.54	46167.07
587.70	46258.35
587.86	45944.72
588.02	45792.58
588.18	46515.81
588.34	45525.76
588.49	45841.73
588.65	46017.27
588.81	45713.00
588.97	45867.48
589.13	45624.06
589.29	45743.43
589.45	46295.80
589.61	46349.63
589.77	46080.47
589.93	46288.77
590.08	46307.50
590.24	46300.48
590.40	46408.14
590.56	46323.88
590.72	46167.07
590.88	45722.37
591.04	46115.58
591.20	46244.30
591.35	46050.04
591.51	46649.22
591.67	46433.89
591.83	46237.28
591.99	46052.38
592.15	46206.86
592.31	46321.54
592.46	45956.42
592.62	46279.41
592.78	45996.21
592.94	46059.40
593.10	45846.41
593.26	46223.24
593.41	46518.15
593.57	46267.71
593.73	45911.95
593.89	46169.41
594.05	46216.22
594.20	45989.19
594.36	46358.99
594.52	46153.02
594.68	46103.87
594.84	45925.99
594.99	46691.35
595.15	45820.67
595.31	46443.25
595.47	46120.26
595.62	46532.19
595.78	46256.01
595.94	46258.35
596.10	46260.69
596.25	46045.36
596.41	46321.54
596.57	45956.42
596.73	46223.24
596.88	46227.92
597.04	46251.33
597.20	46382.40
597.36	46122.60
597.51	46202.18
597.67	46101.53
597.83	45862.80
597.99	46138.98
598.14	46148.34
598.30	46061.74
598.46	46087.49
598.61	46183.45
598.77	46117.92
598.93	46061.74
599.09	46160.05
599.24	46679.64
599.40	46445.59
599.56	46333.24
599.71	46288.77
599.87	46225.58
600.03	46593.04
600.18	46073.45
600.34	46106.21
600.50	46066.42
600.65	46213.88
600.81	46447.93
600.97	46487.72
601.12	46740.50
601.28	46110.89
601.44	46342.61
601.59	45890.88
601.75	46192.81
601.91	46136.64
602.06	45909.61
602.22	46183.45
602.37	46131.96
602.53	45839.39
602.69	46366.01
602.84	45883.86
603.00	46127.28
603.16	45876.84
603.31	46677.30
603.47	46260.69
603.62	45797.26
603.78	46415.16
603.94	45951.74
604.09	46354.31
604.25	45663.85
604.40	45745.77
604.56	46061.74
604.71	46251.33
604.87	46024.29
605.03	45710.66
605.18	45710.66
605.34	46178.77
605.49	45696.62
605.65	45757.47
605.80	45923.65
605.96	45607.68
606.12	45607.68
606.27	46206.86
606.43	45794.92
606.58	46087.49
606.74	45947.06
606.89	45638.11
607.05	45944.72
607.20	46059.40
607.36	45698.96
607.51	45867.48
607.67	45181.70
607.82	45673.21
607.98	45464.91
608.13	45612.36
608.29	45570.23
608.44	45184.04
608.60	45586.61
608.75	46073.45
608.91	45654.49
609.06	45464.91
609.22	45696.62
609.37	45565.55
609.53	45317.45
609.68	45741.09
609.84	45481.29
609.99	45874.50
610.15	45745.77
610.30	45120.85
610.46	45588.95
610.61	45949.40
610.76	46424.53
610.92	46450.27
611.07	46148.34
611.23	46061.74
611.38	45771.52
611.54	45890.88
611.69	45911.95
611.84	45612.36
612.00	45607.68
612.15	45755.13
612.31	45996.21
612.46	45483.63
612.62	45551.51
612.77	45715.34
612.92	45696.62
613.08	45251.92
613.23	45404.05
613.39	45081.06
613.54	44795.51
613.69	45001.48
613.85	44865.73
614.00	45130.21
614.15	45069.36
614.31	45172.34
614.46	44910.20
614.62	45006.16
614.77	45305.75
614.92	44804.88
615.08	45125.53
615.23	44917.22
615.38	44839.98
615.54	44673.81
615.69	44650.40
615.84	44467.84
616.00	44411.67
616.15	44641.04
616.30	44987.44
616.46	44701.89
616.61	44605.93
616.76	44573.16
616.92	44570.82
617.07	44739.34
617.22	44313.36
617.37	44715.93
617.53	44629.34
617.68	44755.72
617.83	44399.96
617.99	44486.56
618.14	44442.09
618.29	44626.99
618.45	44137.82
618.60	44147.18
618.75	44568.48
618.90	44020.80
619.06	44168.25
619.21	44559.12
619.36	44346.13
619.51	44355.49
619.67	43786.74
619.82	43840.57
619.97	44196.34
620.12	43798.44
620.28	43562.05
620.43	44161.23
620.58	44168.25
620.73	43931.86
620.89	43948.24
621.04	44231.44
621.19	43840.57
621.34	43643.97
621.49	43564.39
621.65	44002.07
621.80	43938.88
621.95	43695.46
622.10	43861.64
622.25	43143.09
622.41	43494.18
622.56	43803.13
622.71	43969.30
622.86	43765.68
623.01	43358.42
623.16	43531.62
623.32	43629.93
623.47	43749.29
623.62	43545.67
623.77	43342.04
623.92	43608.86
624.07	43379.49
624.23	43386.51
624.38	43580.78
624.53	43398.21
624.68	43400.55
624.83	43407.58
624.98	43510.56
625.13	43302.25
625.29	43470.77
625.44	42962.87
625.59	42906.70
625.74	42876.27
625.89	43187.56
626.04	42527.53
626.19	42953.51
626.34	42653.92
626.49	42202.20
626.65	42834.14
626.80	42869.25
626.95	42724.14
627.10	43145.44
627.25	43049.47
627.40	42850.53
627.55	42312.20
627.70	42405.83
627.85	42234.97
628.00	42471.36
628.15	42625.84
628.30	42286.46
628.45	42115.60
628.60	42415.19
628.76	42724.14
628.91	42487.74
629.06	42347.31
629.21	42146.03
629.36	42096.88
629.51	42071.13
629.66	42366.04
629.81	42316.89
629.96	42328.59
630.11	42050.06
630.26	42433.91
630.41	42249.01
630.56	42281.78
630.71	42103.90
630.86	42359.02
631.01	42012.62
631.16	42146.03
631.31	42316.89
631.46	41860.48
631.61	42150.71
631.76	42256.03
631.91	41937.72
632.06	41958.78
632.21	41691.96
632.36	41748.14
632.51	41359.61
632.66	42143.69
632.81	41703.67
632.96	41937.72
633.10	41556.21
633.25	41668.56
633.40	41504.72
633.55	41860.48
633.70	41598.34
633.85	41610.04
634.00	41200.45
634.15	41493.02
634.30	41490.68
634.45	41254.28
634.60	41233.22
634.75	41591.32
634.90	41500.04
635.05	41390.03
635.19	41207.47
635.34	41537.49
635.49	41291.73
635.64	41373.65
635.79	41294.07
635.94	41006.19
636.09	41001.50
636.24	40786.18
636.39	41163.00
636.53	40395.31
636.68	40751.07
636.83	40718.30
636.98	41322.16
637.13	40652.76
637.28	41383.01
637.43	40903.20
637.57	40971.08
637.72	40622.34
637.87	41294.07
638.02	40919.59
638.17	40706.60
638.32	40804.90
638.46	40126.14
638.61	40460.84
638.76	40371.90
638.91	40720.64
639.06	40556.80
639.20	40165.93
639.35	40732.34
639.50	40421.05
639.65	40664.47
639.80	40872.78
639.94	40289.98
640.09	40458.50
640.24	40189.34
640.39	40009.12
640.54	40315.73
640.68	40446.80
640.83	39756.34
640.98	39800.81
641.13	39548.03
641.27	40584.89
641.42	40208.06
641.57	40081.67
641.72	40313.39
641.86	39842.94
642.01	39929.54
642.16	39924.86
642.31	39875.71
642.45	40259.55
642.60	39332.70
642.75	39304.62
642.90	39941.24
643.04	39948.26
643.19	39484.84
643.34	39824.22
643.48	39641.65
643.63	40086.36
643.78	39400.58
643.93	40217.43
644.07	39952.94
644.22	39550.37
644.37	39339.72
644.51	39634.63
644.66	39611.23
644.81	39037.80
644.95	39496.54
645.10	39416.96
645.25	39676.76
645.39	39533.99
645.54	39241.42
645.69	39583.14
645.83	39496.54
645.98	39477.82
646.13	39372.49
646.27	39463.77
646.42	39810.17
646.57	39157.16
646.71	39131.42
646.86	39243.76
647.00	39049.50
647.15	39009.71
647.30	39241.42
647.44	38803.74
647.59	39093.97
647.74	39049.50
647.88	38747.57
648.03	39227.38
648.17	39248.44
648.32	39005.03
648.47	39110.35
648.61	38941.83
648.76	39023.75
648.90	38916.09
649.05	38822.47
649.20	38731.18
649.34	38834.17
649.49	38880.98
649.63	38621.18
649.78	38625.86
649.92	38649.27
650.07	39321.00
650.21	38738.21
650.36	39255.46
650.51	39005.03
650.65	39222.70
650.80	38761.61
650.94	38459.68
651.09	38337.98
651.23	38349.68
651.38	38588.41
651.52	38239.67
651.67	38174.14
651.81	38174.14
651.96	38457.34
652.10	38377.76
652.25	37998.60
652.39	38459.68
652.54	38366.06
652.68	38522.88
652.83	38471.39
652.97	38462.02
653.12	38190.52
653.26	38024.34
653.41	38108.60
653.55	38251.38
653.70	38197.54
653.84	38007.96
653.99	37900.29
654.13	37701.35
654.27	38136.69
654.42	37895.61
654.56	37635.81
654.71	38108.60
654.85	38225.63
655.00	37855.82
655.14	38017.32
655.29	38073.49
655.43	37706.03
655.57	37385.38
655.72	37631.13
655.86	37546.87
656.01	37324.52
656.15	37366.65
656.30	37724.75
656.44	37352.61
656.58	37134.94
656.73	37205.16
656.87	37202.82
657.01	38019.66
657.16	37371.33
657.30	37631.13
657.45	37799.65
657.59	37354.95
657.73	37448.57
657.88	37425.17
658.02	37048.34
658.16	37074.09
658.31	37411.12
658.45	36978.12
658.60	36868.12
658.74	36512.36
658.88	36910.25
659.03	36720.66
659.17	36767.48
659.31	37010.89
659.46	36687.90
659.60	36886.84
659.74	36847.05
659.89	36421.08
660.03	36687.90
660.17	36800.24
660.32	36746.41
660.46	36732.37
660.60	36486.61
660.74	36500.65
660.89	36584.91
661.03	36177.66
661.17	36285.33
661.32	36418.74
661.46	36086.38
661.60	36030.21
661.74	36580.23
661.89	36402.35
662.03	36271.28
662.17	36191.70
662.31	36175.32
662.46	36219.79
662.60	36189.36
662.74	35957.65
662.88	35955.31
663.03	35805.52
663.17	35761.05
663.31	35405.28
663.45	35573.80
663.60	35573.80
663.74	35189.95
663.88	35349.11
664.02	35564.44
664.17	35489.54
664.31	35461.46
664.45	35569.12
664.59	35363.15
664.73	35433.37
664.88	35489.54
665.02	34766.32
665.16	34918.45
665.30	34738.23
665.44	34906.75
665.59	34967.60
665.73	35040.16
665.87	34789.72
666.01	35119.74
666.15	34705.46
666.29	34766.32
666.44	34806.11
666.58	35112.72
666.72	34766.32
666.86	34600.14
667.00	34480.77
667.14	34466.73
667.28	34536.94
667.43	34347.36
667.57	34443.32
667.71	34227.99
667.85	34085.22
667.99	34206.93
668.13	33743.50
668.27	33394.76
668.41	34185.86
668.56	33961.17
668.70	33879.25
668.84	34141.39
668.98	34038.41
669.12	33708.40
669.26	33731.80
669.40	33584.35
669.54	33509.45
669.68	33589.03
669.82	33497.75
669.96	32879.85
670.10	33099.86
670.25	33450.94
670.39	33193.48
670.53	32858.78
670.67	32964.10
670.81	33659.24
670.95	32910.27
671.09	33369.02
671.23	33008.58
671.37	33294.12
671.51	33020.28
671.65	32755.80
671.79	32606.00
671.93	32629.41
672.07	32491.32
672.21	32580.26
672.35	32133.21
672.49	32254.92
672.63	32091.09
672.77	32130.87
672.91	32121.51
673.05	32264.28
673.19	32023.21
673.33	31981.08
673.47	32210.45
673.61	32116.83
673.75	31641.70
673.89	31861.71
674.03	31484.89
674.17	31971.72
674.31	31725.96
674.45	31084.65
674.59	31248.49
674.73	31197.00
674.87	31496.59
675.01	31012.10
675.15	31189.98
675.29	31014.44
675.43	31103.38
675.56	31119.76
675.70	31040.18
675.84	31005.08
675.98	30249.08
676.12	30731.23
676.26	30843.58
676.40	30904.43
676.54	30845.92
676.68	30834.22
676.82	29635.86
676.96	30312.28
677.10	30029.07
677.23	29881.62
677.37	29507.13
677.51	29979.92
677.65	30108.65
677.79	29455.64
677.93	29308.19
678.07	29408.83
678.21	29624.16
678.34	29289.46
678.48	29537.56
678.62	29577.35
678.76	29205.20
678.90	28861.15
679.04	28591.98
679.18	28837.74
679.31	28692.63
679.45	28861.15
679.59	28496.02
679.73	28411.76
679.87	28273.67
680.00	27866.42
680.14	27978.76
680.28	28126.22
680.42	28346.23
680.56	27821.95
680.70	27976.42
680.83	27931.95
680.97	27632.36
681.11	27559.81
681.25	27651.09
681.39	27669.81
681.52	27534.06
681.66	27257.88
681.80	26916.16
681.94	27047.23
682.07	27171.28
682.21	26747.64
682.35	26693.81
682.49	26759.34
682.62	27023.83
682.76	26789.77
682.90	26590.83
683.04	26410.60
683.17	26017.40
683.31	26279.54
683.45	26352.09
683.59	25926.11
683.72	25991.65
683.86	25900.37
684.00	25940.16
684.13	25949.52
684.27	25933.14
684.41	25422.90
684.55	25326.94
684.68	25219.27
684.82	25563.33
684.96	25699.08
685.09	25006.28
685.23	25418.22
685.37	25165.44
685.50	24915.00
685.64	25235.66
685.78	24978.20
685.91	24886.92
686.05	24814.36
686.19	24882.24
686.32	24961.81
686.46	24329.87
686.60	24189.44
686.73	24673.93
686.87	24259.65
687.01	24325.19
687.14	23976.45
687.28	23903.89
687.42	24027.94
687.55	24044.32
687.69	24046.66
687.82	23197.05
687.96	23625.37
688.10	23489.62
688.23	23374.93
688.37	23349.18
688.50	23349.18
688.64	23536.43
688.78	22923.21
688.91	22841.29
689.05	23133.86
689.18	22766.39
689.32	22806.18
689.46	22539.36
689.59	22682.13
689.73	22410.63
689.86	22295.94
690.00	22242.11
690.13	22501.91
690.27	22115.72
690.41	22249.13
690.54	21965.93
690.68	22078.27
690.81	22015.08
690.95	22232.75
691.08	22195.30
691.22	21914.44
691.35	21671.02
691.49	21596.12
691.62	21422.92
691.76	21462.71
691.89	21172.49
692.03	20992.26
692.16	20807.36
692.30	20765.23
692.43	20755.87
692.57	20910.35
692.70	20601.40
692.84	20542.88
692.97	20638.84
693.11	21015.67
693.24	20716.08
693.38	20229.25
693.51	20365.00
693.65	20556.93
693.78	20329.89
693.92	20149.67
694.05	20133.29
694.19	20051.37
694.32	19960.09
694.45	19597.31
694.59	19737.74
694.72	19459.21
694.86	19412.40
694.99	19372.61
695.13	19325.80
695.26	19264.95
695.39	19239.20
695.53	19150.26
695.66	19154.94
695.80	19140.90
695.93	19119.84
696.07	18916.21
696.20	18920.89
696.33	18586.19
696.47	18827.27
696.60	18630.66
696.73	18590.88
696.87	18321.71
697.00	18473.85
697.14	18427.04
697.27	18099.36
697.40	17804.46
697.54	18253.84
697.67	17792.75
697.80	17900.42
697.94	17563.38
698.07	17490.82
698.21	17696.79
698.34	17764.67
698.47	17532.95
698.61	17469.76
698.74	17275.49
698.87	17364.43
699.01	17071.87
699.14	17114.00
699.27	17015.69
699.40	17200.60
699.54	16870.58
699.67	16575.67
699.80	16854.20
699.94	16496.10
700.07	16542.91
700.20	16311.19
700.34	16341.62
700.47	16521.84
700.60	15997.56
700.73	16280.77
700.87	16248.00
701.00	16051.39
701.13	16046.71
701.26	16229.27
701.40	16107.57
701.53	16250.34
701.66	15873.51
701.79	15913.30
701.93	15761.17
702.06	15492.01
702.19	15356.25
702.32	15454.56
702.46	15330.51
702.59	15281.36
702.72	15197.10
702.85	14965.39
702.99	15068.37
703.12	15129.22
703.25	14834.32
703.38	15009.86
703.51	15066.03
703.65	14747.72
703.78	14682.18
703.91	14565.15
704.04	14534.73
704.17	14483.24
704.31	14443.45
704.44	14469.19
704.57	14434.08
704.70	14347.48
704.83	14295.99
704.96	14113.43
705.10	13949.59
705.23	13963.64
>>>>>End Processed Spectral Data<<<<<
