SpectraSuite Data File
++++++++++++++++++++++++++++++++++++
Date: Fri Oct 04 11:39:21 GMT-05:00 2013
User: price-jones
Dark Spectrum Present: No
Reference Spectrum Present: No
Number of Sampled Component Spectra: 1
Spectrometers: USB2+H05261
Integration Time (usec): 100000 (USB2+H05261)
Spectra Averaged: 1 (USB2+H05261)
Boxcar Smoothing: 0 (USB2+H05261)
Correct for Electrical Dark: No (USB2+H05261)
Strobe/Lamp Enabled: No (USB2+H05261)
Correct for Detector Non-linearity: No (USB2+H05261)
Correct for Stray Light: No (USB2+H05261)
Number of Pixels in Processed Spectrum: 2048
>>>>>Begin Processed Spectral Data<<<<<
365.73	77.24
365.92	77.24
366.12	77.24
366.32	37.45
366.52	0.00
366.72	0.00
366.91	0.00
367.11	0.00
367.31	0.00
367.51	0.00
367.70	0.00
367.90	0.00
368.10	0.00
368.30	0.00
368.49	0.00
368.69	14.04
368.89	18.72
369.09	0.00
369.28	0.00
369.48	4.68
369.68	14.04
369.87	0.00
370.07	7.02
370.27	46.81
370.47	91.28
370.66	163.84
370.86	198.95
371.06	341.72
371.25	299.59
371.45	318.31
371.65	341.72
371.84	264.48
372.04	313.63
372.24	353.42
372.44	266.82
372.63	332.36
372.83	440.02
373.03	395.55
373.22	287.89
373.42	334.70
373.62	372.15
373.81	430.66
374.01	332.36
374.21	388.53
374.40	325.33
374.60	397.89
374.79	334.70
374.99	346.40
375.19	376.83
375.38	444.70
375.58	390.87
375.78	425.98
375.97	383.85
376.17	379.17
376.37	320.65
376.56	456.40
376.76	362.78
376.95	404.91
377.15	374.49
377.35	414.27
377.54	355.76
377.74	418.96
377.93	367.46
378.13	444.70
378.33	374.49
378.52	388.53
378.72	400.23
378.91	358.10
379.11	402.57
379.31	493.85
379.50	468.11
379.70	433.00
379.89	418.96
380.09	449.38
380.28	517.26
380.48	498.53
380.68	463.43
380.87	397.89
381.07	458.74
381.26	505.56
381.46	498.53
381.65	418.96
381.85	470.45
382.04	519.60
382.24	463.43
382.43	482.15
382.63	447.04
382.83	468.11
383.02	561.73
383.22	554.71
383.41	531.30
383.61	538.32
383.80	585.13
384.00	484.49
384.19	547.69
384.39	486.83
384.58	524.28
384.78	498.53
384.97	470.45
385.17	482.15
385.36	456.40
385.56	557.05
385.75	484.49
385.95	582.79
386.14	547.69
386.34	561.73
386.53	444.70
386.72	535.98
386.92	521.94
387.11	589.82
387.31	596.84
387.50	594.50
387.70	519.60
387.89	575.77
388.09	620.24
388.28	589.82
388.48	571.09
388.67	631.94
388.86	596.84
389.06	683.44
389.25	587.47
389.45	571.09
389.64	545.34
389.84	723.23
390.03	631.94
390.22	720.88
390.42	678.76
390.61	650.67
390.81	627.26
391.00	725.57
391.19	678.76
391.39	695.14
391.58	622.58
391.78	688.12
391.97	667.05
392.16	685.78
392.36	737.27
392.55	657.69
392.75	725.57
392.94	692.80
393.13	765.36
393.33	699.82
393.52	746.63
393.71	669.39
393.91	842.59
394.10	814.51
394.29	692.80
394.49	814.51
394.68	854.30
394.88	805.14
395.07	814.51
395.26	706.84
395.46	805.14
395.65	901.11
395.84	800.46
396.04	896.43
396.23	798.12
396.42	868.34
396.62	847.27
396.81	870.68
397.00	873.02
397.19	877.70
397.39	898.77
397.58	866.00
397.77	947.92
397.97	849.61
398.16	889.40
398.35	1116.44
398.55	968.98
398.74	936.21
398.93	983.02
399.12	915.15
399.32	990.05
399.51	1025.15
399.70	964.30
399.90	1107.07
400.09	1057.92
400.28	1156.22
400.47	1013.45
400.67	1036.86
400.86	1090.69
401.05	1083.67
401.24	1111.75
401.44	1067.28
401.63	1053.24
401.82	1093.03
402.01	1130.48
402.21	1231.12
402.40	1259.21
402.59	1170.27
402.78	1153.88
402.97	1184.31
403.17	1238.14
403.36	1198.35
403.55	1135.16
403.74	1294.32
403.93	1273.25
404.13	1380.92
404.32	1331.76
404.51	1383.26
404.70	1228.78
404.89	1289.64
405.09	1280.27
405.28	1306.02
405.47	1256.87
405.66	1420.71
405.85	1432.41
406.05	1413.68
406.24	1385.60
406.43	1556.46
406.62	1460.49
406.81	1455.81
407.00	1427.73
407.20	1439.43
407.39	1540.07
407.58	1577.52
407.77	1483.90
407.96	1591.56
408.15	1561.14
408.34	1486.24
408.54	1603.27
408.73	1624.33
408.92	1575.18
409.11	1540.07
409.30	1570.50
409.49	1710.93
409.68	1680.50
409.87	1647.74
410.07	1734.34
410.26	1685.19
410.45	1722.63
410.64	1820.94
410.83	1921.58
411.02	1811.57
411.21	1839.66
411.40	2022.22
411.59	1870.09
411.78	1842.00
411.98	1813.92
412.17	1886.47
412.36	1830.30
412.55	2139.25
412.74	2069.03
412.93	2104.14
413.12	1930.94
413.31	2209.47
413.50	2174.36
413.69	2179.04
413.88	2216.49
414.07	2242.23
414.26	2267.98
414.45	2132.23
414.64	2321.81
414.83	2314.79
415.02	2272.66
415.22	2366.28
415.41	2551.18
415.60	2483.31
415.79	2415.43
415.98	2448.20
416.17	2368.62
416.36	2438.84
416.55	2492.67
416.74	2452.88
416.93	2462.24
417.12	2602.68
417.31	2605.02
417.50	2546.50
417.69	2750.13
417.88	2745.45
418.07	2651.83
418.26	2682.25
418.45	2684.59
418.64	2782.90
418.83	2810.98
419.02	2832.05
419.21	2857.79
419.39	2705.66
419.58	2796.94
419.77	2829.71
419.96	2857.79
420.15	3112.91
420.34	2895.24
420.53	2981.84
420.72	3098.87
420.91	3012.27
421.10	2958.44
421.29	3059.08
421.48	3052.06
421.67	3033.33
421.86	3047.38
422.05	3162.06
422.24	3038.02
422.43	3030.99
422.61	3213.56
422.80	3066.10
422.99	3094.19
423.18	3267.39
423.37	3253.34
423.56	3131.64
423.75	3260.37
423.94	3131.64
424.13	3054.40
424.32	3075.46
424.50	3166.74
424.69	3222.92
424.88	3215.90
425.07	3201.85
425.26	3166.74
425.45	3136.32
425.64	3295.47
425.83	3297.81
426.01	3396.12
426.20	3243.98
426.39	3206.53
426.58	3229.94
426.77	3311.86
426.96	3342.28
427.15	3314.20
427.33	3302.50
427.52	3265.05
427.71	3314.20
427.90	3353.99
428.09	3346.97
428.28	3400.80
428.46	3503.78
428.65	3492.08
428.84	3501.44
429.03	3728.47
429.22	3576.34
429.40	3534.21
429.59	3604.42
429.78	3529.53
429.97	3353.99
430.16	3449.95
430.34	3569.32
430.53	3597.40
430.72	3559.95
430.91	3623.15
431.10	3632.51
431.28	3606.77
431.47	3740.18
431.66	3843.16
431.85	3859.54
432.03	3908.69
432.22	4053.81
432.41	3875.93
432.60	3693.37
432.79	3920.40
432.97	3831.46
433.16	3962.53
433.35	3887.63
433.54	3904.01
433.72	3838.48
433.91	3911.04
434.10	3981.25
434.28	3873.59
434.47	4077.21
434.66	4046.79
434.85	4217.65
435.03	4140.41
435.22	4423.61
435.41	4667.03
435.59	4533.62
435.78	4456.38
435.97	4334.67
436.16	4395.53
436.34	4187.22
436.53	4215.30
436.72	4533.62
436.90	4379.14
437.09	4379.14
437.28	4332.33
437.46	4362.76
437.65	4341.69
437.84	4322.97
438.02	4241.05
438.21	4465.74
438.40	4498.51
438.58	4477.44
438.77	4573.41
438.96	4503.19
439.14	4634.26
439.33	4695.11
439.52	4947.89
439.70	4830.87
439.89	4737.24
440.08	4695.11
440.26	4889.38
440.45	4655.33
440.63	4896.40
440.82	4929.17
441.01	4835.55
441.19	5055.56
441.38	5116.41
441.57	5041.51
441.75	5057.90
441.94	5193.65
442.12	5165.56
442.31	5212.37
442.50	5200.67
442.68	5111.73
442.87	5160.88
443.05	5446.43
443.24	5348.12
443.43	5149.18
443.61	5474.51
443.80	5575.16
443.98	5198.33
444.17	5249.82
444.35	5383.23
444.54	5289.61
444.73	5547.07
444.91	5378.55
445.10	5518.98
445.28	5268.55
445.47	5345.78
445.65	5427.70
445.84	5455.79
446.02	5448.77
446.21	5502.60
446.39	5432.38
446.58	5558.77
446.77	5547.07
446.95	5364.51
447.14	5631.33
447.32	5526.00
447.51	5521.32
447.69	5481.53
447.88	5497.92
448.06	5596.22
448.25	5467.49
448.43	5692.18
448.62	5526.00
448.80	5467.49
448.99	5776.44
449.17	5558.77
449.36	5671.12
449.54	5692.18
449.73	5792.83
449.91	5643.03
450.10	5909.85
450.28	5884.11
450.46	6050.28
450.65	5930.92
450.83	6057.31
451.02	5823.25
451.20	5982.41
451.39	6001.13
451.57	6047.94
451.76	5849.00
451.94	6078.37
452.13	6143.91
452.31	6066.67
452.49	6108.80
452.68	5996.45
452.86	6085.39
453.05	6183.70
453.23	6073.69
453.42	6031.56
453.60	6127.52
453.78	6078.37
453.97	6059.65
454.15	6333.49
454.34	6296.04
454.52	6340.51
454.70	6420.09
454.89	6134.54
455.07	6497.33
455.26	6466.90
455.44	6506.69
455.62	6370.94
455.81	6455.20
455.99	6345.19
456.17	6406.05
456.36	6530.09
456.54	6647.12
456.73	6689.25
456.91	6836.70
457.09	6801.60
457.28	6892.88
457.46	6707.98
457.64	6951.39
457.83	6724.36
458.01	6874.15
458.19	6876.49
458.38	6916.28
458.56	6944.37
458.74	6946.71
458.93	6874.15
459.11	7115.23
459.29	7096.50
459.48	7140.97
459.66	7000.54
459.84	7267.36
460.03	7173.74
460.21	7089.48
460.39	7094.16
460.57	7040.33
460.76	7213.53
460.94	7267.36
461.12	7426.52
461.31	7433.54
461.49	7197.15
461.67	7232.26
461.85	7485.03
462.04	7475.67
462.22	7960.16
462.40	7494.40
462.59	7403.11
462.77	7531.84
462.95	7485.03
463.13	7428.86
463.32	7522.48
463.50	7468.65
463.68	7613.76
463.86	7569.29
464.05	7585.68
464.23	7709.72
464.41	7747.17
464.59	7552.91
464.78	7918.03
464.96	7971.86
465.14	7686.32
465.32	7691.00
465.50	7939.10
465.69	8021.02
465.87	7833.77
466.05	7784.62
466.23	7695.68
466.41	8016.33
466.60	8053.78
466.78	7887.61
466.96	7850.16
467.14	7782.28
467.32	8067.83
467.51	8053.78
467.69	7850.16
467.87	7957.82
468.05	7997.61
468.23	7953.14
468.41	8079.53
468.60	8149.75
468.78	8252.73
468.96	8128.68
469.14	8276.13
469.32	8428.27
469.50	8030.38
469.69	8177.83
469.87	8449.33
470.05	8622.53
470.23	8311.24
470.41	8418.91
470.59	8692.75
470.77	8498.49
470.95	8667.00
471.14	8526.57
471.32	8404.86
471.50	8774.67
471.68	8791.05
471.86	8769.99
472.04	8861.27
472.22	8971.27
472.40	8674.03
472.58	8997.02
472.77	9029.79
472.95	9284.91
473.13	9469.81
473.31	9102.34
473.49	9198.31
473.67	9146.81
473.85	9184.26
474.03	9390.23
474.21	9392.57
474.39	9427.68
474.57	9715.56
474.75	9598.54
474.93	9628.96
475.12	9523.64
475.30	9617.26
475.48	9748.33
475.66	9724.93
475.84	9743.65
476.02	10029.20
476.20	9949.62
476.38	10417.72
476.56	10284.31
476.74	10228.14
476.92	10239.84
477.10	10242.18
477.28	10693.91
477.46	10469.22
477.64	10450.49
477.82	10787.53
478.00	10729.02
478.18	10937.32
478.36	10995.84
478.54	11033.29
478.72	11026.26
478.90	11059.03
479.08	11550.54
479.26	11477.99
479.44	11513.10
479.62	11365.64
479.80	11793.96
479.98	11669.91
480.16	11892.26
480.34	11623.10
480.52	12138.02
480.70	12093.55
480.88	11819.71
481.06	11957.80
481.24	12098.23
481.41	12556.97
481.59	12383.77
481.77	12393.14
481.95	12758.26
482.13	12524.21
482.31	12861.24
482.49	12784.01
482.67	12943.16
482.85	13032.10
483.03	13238.07
483.21	13418.29
483.39	13390.20
483.57	13523.62
483.74	13448.72
483.92	13687.45
484.10	13785.76
484.28	14125.13
484.46	13965.98
484.64	14459.83
484.82	14115.77
485.00	14047.90
485.18	14778.14
485.35	14911.55
485.53	14794.53
485.71	14733.67
485.89	14979.43
486.07	15126.88
486.25	15342.21
486.43	15269.66
486.61	15482.64
486.78	15510.73
486.96	15627.76
487.14	16086.50
487.32	15728.40
487.50	16102.89
487.68	15990.54
487.85	16205.87
488.03	16479.71
488.21	16711.42
488.39	16791.00
488.57	16737.17
488.75	17067.19
488.92	17071.87
489.10	17233.36
489.28	17296.56
489.46	17343.37
489.64	17294.22
489.81	17900.42
489.99	17734.24
490.17	17624.23
490.35	18265.54
490.53	18265.54
490.70	18092.34
490.88	18333.42
491.06	18445.76
491.24	18534.70
491.41	18600.24
491.59	18796.84
491.77	18853.02
491.95	19119.84
492.13	19035.58
492.30	19454.53
492.48	19302.40
492.66	19381.98
492.84	19541.13
493.01	19330.48
493.19	19566.88
493.37	19756.46
493.54	19917.96
493.72	20051.37
493.90	19995.20
494.08	20372.02
494.25	20510.11
494.43	20760.55
494.61	20912.69
494.79	21113.97
494.96	20582.67
495.14	21125.68
495.32	21254.40
495.49	21219.30
495.67	21570.38
495.85	21535.27
496.02	21858.26
496.20	21781.03
496.38	22075.93
496.55	21991.67
496.73	22661.07
496.91	22412.97
497.09	22602.55
497.26	22600.21
497.44	22427.01
497.62	22726.60
497.79	22953.63
497.97	22787.46
498.14	23250.88
498.32	22876.40
498.50	23075.34
498.67	23328.12
498.85	23035.55
499.03	23620.69
499.20	23686.22
499.38	23826.65
499.56	23974.11
499.73	23597.28
499.91	24205.82
500.08	24156.67
500.26	24123.90
500.44	23847.72
500.61	24058.37
500.79	24149.65
500.97	24687.97
501.14	24837.76
501.32	24816.70
501.49	24744.14
501.67	24842.45
501.84	24936.07
502.02	24943.09
502.20	25008.62
502.37	25319.92
502.55	25294.17
502.72	25446.30
502.90	25455.67
503.07	25568.01
503.25	25556.31
503.43	25420.56
503.60	25773.98
503.78	25781.00
503.95	25813.77
504.13	25930.80
504.30	26143.78
504.48	26331.03
504.65	26253.79
504.83	26429.33
505.01	26614.23
505.18	26515.93
505.36	27157.24
505.53	26656.36
505.71	26726.58
505.88	26876.37
506.06	26859.99
506.23	27110.43
506.41	26939.57
506.58	27012.12
506.76	27089.36
506.93	27613.64
507.11	27110.43
507.28	27697.90
507.46	27585.55
507.63	27782.16
507.81	27728.33
507.98	27508.32
508.16	27789.18
508.33	28121.54
508.50	28151.96
508.68	28463.25
508.85	28568.58
509.03	28472.62
509.20	28224.52
509.38	29027.32
509.55	28826.04
509.73	28690.29
509.90	28788.59
510.08	28683.27
510.25	29062.43
510.42	28734.76
510.60	29270.74
510.77	29404.15
510.95	29399.47
511.12	29149.03
511.30	29069.45
511.47	29551.60
511.64	29710.76
511.82	29888.64
511.99	29710.76
512.17	29982.26
512.34	30026.73
512.51	29972.90
512.69	29797.36
512.86	29881.62
513.04	30202.27
513.21	30866.98
513.38	30728.89
513.56	30321.64
513.73	30431.65
513.90	30387.18
514.08	30883.37
514.25	30646.97
514.43	30794.43
514.60	31044.87
514.77	31192.32
514.95	31407.65
515.12	30689.10
515.29	31133.81
515.47	30883.37
515.64	31257.85
515.81	31496.59
515.99	31503.61
516.16	31562.12
516.33	31653.40
516.51	32283.01
516.68	31777.45
516.85	31370.20
517.03	32189.39
517.20	32446.85
517.37	31992.78
517.54	32273.65
517.72	32264.28
517.89	32456.21
518.06	32278.33
518.24	32168.32
518.41	32540.47
518.58	32636.43
518.75	32739.41
518.93	33003.89
519.10	33095.18
519.27	32748.78
519.45	32472.59
519.62	33125.60
519.79	32999.21
519.96	33027.30
520.14	33572.64
520.31	33146.67
520.48	33530.51
520.65	33516.47
520.83	33518.81
521.00	33895.64
521.17	33439.23
521.34	33970.54
521.52	33706.05
521.69	33670.95
521.86	34064.16
522.03	34106.29
522.20	34029.05
522.38	34574.39
522.55	34391.83
522.72	34068.84
522.89	34092.24
523.07	34651.63
523.24	34644.61
523.41	34574.39
523.58	34349.70
523.75	34536.94
523.92	35002.71
524.10	34534.60
524.27	34986.33
524.44	35005.05
524.61	35388.90
524.78	35225.06
524.96	35634.66
525.13	34941.86
525.30	35185.27
525.47	35477.84
525.64	35669.76
525.81	36098.08
525.98	35580.82
526.16	35894.46
526.33	35449.75
526.50	36149.57
526.67	35510.61
526.84	35325.71
527.01	35882.75
527.18	36051.27
527.36	36467.89
527.53	35995.10
527.70	36458.52
527.87	36346.18
528.04	36294.69
528.21	36268.94
528.38	36570.87
528.55	36381.29
528.72	36070.00
528.89	36512.36
529.07	36535.76
529.24	36886.84
529.41	36538.10
529.58	36886.84
529.75	36680.88
529.92	36741.73
530.09	36877.48
530.26	36781.52
530.43	37308.14
530.60	37092.81
530.77	37296.44
530.94	37347.93
531.11	37120.90
531.28	37144.30
531.46	37074.09
531.63	37724.75
531.80	37432.19
531.97	37900.29
532.14	37507.08
532.31	37841.78
532.48	37565.60
532.65	37900.29
532.82	37572.62
532.99	37853.48
533.16	37771.57
533.33	38012.64
533.50	38347.34
533.67	37944.76
533.84	38141.37
534.01	38277.12
534.18	38225.63
534.35	38134.35
534.52	38115.62
534.69	38862.26
534.86	38890.34
535.03	38637.56
535.20	39007.37
535.37	38607.14
535.54	38340.32
535.71	38700.76
535.88	38579.05
536.05	38632.88
536.22	38892.68
536.38	38834.17
536.55	38962.90
536.72	38880.98
536.89	38911.41
537.06	38890.34
537.23	39173.55
537.40	39143.12
537.57	38998.01
537.74	38707.78
537.91	39257.81
538.08	39807.83
538.25	39180.57
538.42	39480.16
538.59	39817.19
538.75	38941.83
538.92	39236.74
539.09	39985.71
539.26	39770.38
539.43	39447.39
539.60	39842.94
539.77	39887.41
539.94	40437.44
540.11	39754.00
540.28	40105.08
540.44	40580.21
540.61	40004.44
540.78	40030.18
540.95	40521.69
541.12	40517.01
541.29	40554.46
541.46	40844.69
541.62	40418.71
541.79	40755.75
541.96	40465.52
542.13	40760.43
542.30	40762.77
542.47	41113.85
542.63	41125.55
542.80	41092.79
542.97	41478.97
543.14	41329.18
543.31	41404.08
543.48	40989.80
543.64	42045.38
543.81	41853.46
543.98	41708.35
544.15	41972.83
544.32	41521.10
544.48	41900.27
544.65	41879.21
544.82	41804.31
544.99	41319.82
545.16	41694.30
545.32	41579.62
545.49	42799.04
545.66	42749.88
545.83	43100.97
546.00	42946.49
546.16	42600.09
546.33	41958.78
546.50	41663.88
546.67	41808.99
546.83	41539.83
547.00	41888.57
547.17	41757.50
547.34	42155.39
547.50	42232.63
547.67	42167.09
547.84	42447.96
548.00	42478.38
548.17	42820.10
548.34	42216.24
548.51	42424.55
548.67	42263.05
548.84	42408.17
549.01	42590.73
549.18	42241.99
549.34	42337.95
549.51	42515.83
549.68	42462.00
549.84	42246.67
550.01	42721.80
550.18	42459.66
550.34	42682.01
550.51	42693.71
550.68	43199.27
550.84	42398.80
551.01	42777.97
551.18	42763.93
551.34	42567.32
551.51	42932.45
551.68	42841.17
551.84	42717.12
552.01	43166.50
552.18	43234.38
552.34	42997.98
552.51	42887.98
552.68	42979.26
552.84	43194.59
553.01	43613.54
553.18	43100.97
553.34	43281.19
553.51	42958.19
553.67	43466.09
553.84	43246.08
554.01	43683.76
554.17	43599.50
554.34	43056.50
554.51	42707.76
554.67	43583.12
554.84	43669.72
555.00	43110.33
555.17	43505.88
555.33	43765.68
555.50	43473.11
555.67	43335.02
555.83	43721.21
556.00	43599.50
556.16	43952.92
556.33	43662.69
556.50	43824.19
556.66	43906.11
556.83	43711.84
556.99	43959.94
557.16	43854.62
557.32	43887.39
557.49	44196.34
557.65	43749.29
557.82	43756.32
557.98	43920.15
558.15	43707.16
558.32	44151.87
558.48	43962.28
558.65	43840.57
558.81	44273.57
558.98	44032.50
559.14	43966.96
559.31	43889.73
559.47	44051.22
559.64	44055.90
559.80	43976.33
559.97	44552.10
560.13	44086.33
560.30	43983.35
560.46	44409.32
560.63	44439.75
560.79	44002.07
560.96	44582.52
561.12	43981.01
561.29	44685.51
561.45	44271.23
561.61	44713.59
561.78	44631.68
561.94	44414.01
562.11	45048.29
562.27	44767.43
562.44	44512.31
562.60	43959.94
562.77	44498.26
562.93	44229.10
563.10	45165.32
563.26	44619.97
563.42	44814.24
563.59	44753.38
563.75	44729.98
563.92	44755.72
564.08	44624.65
564.24	44388.26
564.41	44540.39
564.57	44535.71
564.74	44755.72
564.90	44924.24
565.07	44921.90
565.23	44762.75
565.39	45043.61
565.56	44917.22
565.72	45130.21
565.88	44905.52
566.05	44893.82
566.21	44959.35
566.38	44825.94
566.54	44655.08
566.70	45209.79
566.87	45296.39
567.03	44863.39
567.19	45006.16
567.36	44626.99
567.52	44772.11
567.68	45003.82
567.85	44624.65
568.01	44467.84
568.17	44959.35
568.34	45123.19
568.50	44884.45
568.66	44800.19
568.83	45153.62
568.99	45006.16
569.15	44952.33
569.32	44910.20
569.48	44708.91
569.64	45179.36
569.81	44818.92
569.97	45127.87
570.13	45265.96
570.30	45544.48
570.46	45338.52
570.62	44954.67
570.78	44910.20
570.95	44811.90
571.11	44954.67
571.27	44685.51
571.43	44624.65
571.60	44903.18
571.76	45523.42
571.92	45214.47
572.09	44978.07
572.25	45439.16
572.41	45092.76
572.57	45357.24
572.74	45734.07
572.90	44839.98
573.06	45284.68
573.22	45322.13
573.38	45750.45
573.55	45214.47
573.71	45713.00
573.87	45453.20
574.03	45617.04
574.20	45361.92
574.36	45340.86
574.52	45808.96
574.68	45071.70
574.84	45364.26
575.01	45247.24
575.17	45521.08
575.33	45284.68
575.49	45366.60
575.65	45106.80
575.82	45619.38
575.98	45272.98
576.14	45331.50
576.30	45354.90
576.46	45713.00
576.62	45322.13
576.79	45769.18
576.95	45563.21
577.11	45525.76
577.27	45745.77
577.43	45738.75
577.59	45439.16
577.75	45483.63
577.92	45146.59
578.08	45045.95
578.24	44762.75
578.40	45219.15
578.56	45710.66
578.72	45876.84
578.88	46167.07
579.04	46026.63
579.21	45771.52
579.37	45724.71
579.53	45357.24
579.69	45507.04
579.85	45834.71
580.01	45371.28
580.17	45268.30
580.33	45579.59
580.49	45736.41
580.65	45556.19
580.82	45635.77
580.98	45783.22
581.14	45743.43
581.30	45366.60
581.46	45600.66
581.62	45724.71
581.78	45256.60
581.94	45574.91
582.10	45296.39
582.26	45408.73
582.42	45607.68
582.58	46253.67
582.74	45453.20
582.90	45291.71
583.06	45918.97
583.22	45752.79
583.38	45530.44
583.54	45778.54
583.70	45684.92
583.86	45979.82
584.02	45329.16
584.18	46038.34
584.34	45560.87
584.50	45769.18
584.66	45591.30
584.82	45572.57
584.98	45357.24
585.14	45420.44
585.30	45265.96
585.46	45872.16
585.62	45713.00
585.78	45696.62
585.94	45846.41
586.10	45942.38
586.26	46122.60
586.42	46014.93
586.58	46115.58
586.74	45698.96
586.90	45790.24
587.06	45563.21
587.22	46026.63
587.38	45610.02
587.54	45872.16
587.70	45661.51
587.86	45862.80
588.02	45883.86
588.18	46281.75
588.34	46057.06
588.49	46021.95
588.65	45792.58
588.81	45776.20
588.97	45844.07
589.13	46038.34
589.29	45909.61
589.45	46148.34
589.61	45975.14
589.77	46227.92
589.93	46052.38
590.08	46302.82
590.24	46155.36
590.40	46164.73
590.56	46157.70
590.72	46131.96
590.88	45815.99
591.04	45406.39
591.20	46134.30
591.35	45862.80
591.51	46230.26
591.67	46176.43
591.83	46869.23
591.99	46169.41
592.15	46169.41
592.31	46370.69
592.46	46045.36
592.62	45918.97
592.78	45996.21
592.94	45961.10
593.10	46230.26
593.26	46398.78
593.41	45696.62
593.57	46146.00
593.73	45956.42
593.89	46426.87
594.05	46344.95
594.20	46466.66
594.36	46564.96
594.52	46202.18
594.68	46288.77
594.84	46003.23
594.99	46344.95
595.15	46356.65
595.31	46571.98
595.47	46230.26
595.62	46274.73
595.78	46391.76
595.94	46181.11
596.10	45879.18
596.25	46403.46
596.41	45769.18
596.57	45860.46
596.73	46209.20
596.88	46174.09
597.04	46447.93
597.20	46616.45
597.36	46632.83
597.51	46555.60
597.67	46101.53
597.83	46225.58
597.99	46342.61
598.14	46190.47
598.30	46485.38
598.46	46321.54
598.61	46183.45
598.77	46127.28
598.93	46759.22
599.09	46597.73
599.24	46845.82
599.40	46326.22
599.56	46335.59
599.71	46295.80
599.87	46281.75
600.03	46529.85
600.18	46389.42
600.34	46335.59
600.50	46323.88
600.65	46302.82
600.81	46251.33
600.97	46595.38
601.12	46506.44
601.28	46520.49
601.44	46438.57
601.59	46192.81
601.75	46047.70
601.91	45935.35
602.06	46108.55
602.22	46284.09
602.37	46068.76
602.53	45830.03
602.69	46265.37
602.84	46033.66
603.00	45741.09
603.16	46131.96
603.31	46492.40
603.47	46548.57
603.62	46059.40
603.78	46291.12
603.94	46162.39
604.09	46017.27
604.25	46349.63
604.40	45902.59
604.56	46014.93
604.71	46534.53
604.87	46302.82
605.03	46267.71
605.18	46216.22
605.34	46211.54
605.49	45848.75
605.65	45991.53
605.80	45680.24
605.96	46265.37
606.12	45972.80
606.27	45813.65
606.43	45588.95
606.58	46012.59
606.74	46005.57
606.89	46248.99
607.05	46361.33
607.20	46103.87
607.36	45902.59
607.51	46124.94
607.67	45694.28
607.82	45581.93
607.98	46117.92
608.13	46019.61
608.29	45970.46
608.44	46075.79
608.60	46059.40
608.75	46103.87
608.91	46321.54
609.06	46092.17
609.22	46178.77
609.37	45638.11
609.53	46185.79
609.68	46321.54
609.84	45970.46
609.99	46073.45
610.15	45968.12
610.30	46412.82
610.46	46223.24
610.61	46836.46
610.76	46564.96
610.92	47007.32
611.07	47143.07
611.23	46590.70
611.38	46445.59
611.54	46099.19
611.69	46059.40
611.84	46340.27
612.00	45984.51
612.15	45773.86
612.31	46026.63
612.46	45729.39
612.62	46129.62
612.77	45881.52
612.92	46241.96
613.08	45837.05
613.23	45668.53
613.39	45408.73
613.54	45287.03
613.69	45542.14
613.85	45848.75
614.00	45542.14
614.15	45883.86
614.31	46012.59
614.46	45504.70
614.62	45298.73
614.77	45563.21
614.92	45170.00
615.08	45500.01
615.23	45734.07
615.38	45148.93
615.54	44886.79
615.69	44942.97
615.84	44804.88
616.00	45411.07
616.15	45258.94
616.30	45378.31
616.46	45272.98
616.61	45031.91
616.76	45427.46
616.92	44877.43
617.07	45251.92
617.22	44781.47
617.37	45067.02
617.53	45172.34
617.68	44748.70
617.83	44912.54
617.99	44987.44
618.14	44615.29
618.29	44994.46
618.45	44727.64
618.60	44865.73
618.75	45015.52
618.90	44603.59
619.06	44872.75
619.21	44486.56
619.36	45052.97
619.51	44701.89
619.67	44023.14
619.82	44229.10
619.97	44662.10
620.12	44259.53
620.28	44053.56
620.43	44762.75
620.58	44804.88
620.73	44793.17
620.89	44737.00
621.04	44622.31
621.19	44664.44
621.34	44594.23
621.49	44329.75
621.65	44004.41
621.80	44364.85
621.95	44217.40
622.10	44357.83
622.25	43831.21
622.41	44037.18
622.56	44083.99
622.71	44580.18
622.86	44807.22
623.01	44472.52
623.16	44304.00
623.32	44002.07
623.47	44512.31
623.62	44177.61
623.77	44083.99
623.92	44133.14
624.07	43892.07
624.23	43978.67
624.38	43941.22
624.53	43927.17
624.68	44165.91
624.83	44528.69
624.98	43873.34
625.13	43707.16
625.29	44025.48
625.44	43709.50
625.59	43686.10
625.74	43608.86
625.89	43203.95
626.04	43386.51
626.19	43358.42
626.34	43143.09
626.49	43510.56
626.65	43559.71
626.80	43782.06
626.95	43725.89
627.10	43587.80
627.25	43175.86
627.40	43430.98
627.55	43189.91
627.70	43339.70
627.85	43168.84
628.00	42911.38
628.15	43304.59
628.30	42597.75
628.45	43096.28
628.60	43033.09
628.76	43662.69
628.91	43648.65
629.06	43318.64
629.21	43000.32
629.36	42775.63
629.51	43072.88
629.66	42976.92
629.81	42721.80
629.96	42665.63
630.11	43236.72
630.26	42504.13
630.41	42490.09
630.56	42759.25
630.71	42993.30
630.86	43194.59
631.01	42623.50
631.16	43316.29
631.31	42925.42
631.46	42089.85
631.61	43047.13
631.76	43222.67
631.91	42443.27
632.06	42326.25
632.21	42410.51
632.36	42347.31
632.51	42216.24
632.66	42492.43
632.81	42249.01
632.96	42595.41
633.10	42525.19
633.25	42389.44
633.40	42410.51
633.55	42370.72
633.70	42167.09
633.85	42244.33
634.00	42141.35
634.15	42113.26
634.30	42029.00
634.45	41940.06
634.60	41827.71
634.75	42113.26
634.90	42164.75
635.05	42167.09
635.19	41715.37
635.34	42270.08
635.49	42218.58
635.64	42361.36
635.79	42115.60
635.94	41635.79
636.09	41734.09
636.24	41563.23
636.39	41757.50
636.53	41701.32
636.68	41048.32
636.83	41851.12
636.98	42131.98
637.13	41457.91
637.28	41661.54
637.43	41993.89
637.57	42110.92
637.72	41811.33
637.87	41500.04
638.02	41413.44
638.17	41677.92
638.32	41516.42
638.46	41237.90
638.61	41233.22
638.76	41214.49
638.91	41577.28
639.06	40907.88
639.20	41118.53
639.35	41141.94
639.50	41429.82
639.65	41375.99
639.80	41596.00
639.94	41179.39
640.09	41493.02
640.24	41130.23
640.39	40854.05
640.54	40924.27
640.68	40959.38
640.83	40800.22
640.98	40484.25
641.13	40680.85
641.27	40985.12
641.42	41165.34
641.57	41291.73
641.72	41380.67
641.86	41160.66
642.01	41036.61
642.16	40959.38
642.31	40528.72
642.45	40964.06
642.60	40971.08
642.75	40804.90
642.90	40666.81
643.04	40507.65
643.19	40444.46
643.34	40601.27
643.48	40795.54
643.63	40701.92
643.78	40769.79
643.93	40577.87
644.07	40624.68
644.22	40463.18
644.37	40385.94
644.51	40722.98
644.66	40549.78
644.81	40402.33
644.95	40069.97
645.10	40060.61
645.25	40191.68
645.39	40432.75
645.54	40051.25
645.69	40037.20
645.83	40877.46
645.98	40332.11
646.13	40795.54
646.27	40357.86
646.42	40542.76
646.57	40730.00
646.71	40673.83
646.86	40353.18
647.00	40278.28
647.15	39812.51
647.30	39845.28
647.44	39765.70
647.59	39618.25
647.74	40006.78
647.88	40280.62
648.03	39882.73
648.17	40289.98
648.32	40065.29
648.47	40446.80
648.61	39962.31
648.76	39856.98
648.90	39864.00
649.05	39552.71
649.20	39456.75
649.34	39262.49
649.49	39372.49
649.63	39868.69
649.78	39182.91
649.92	39695.49
650.07	39807.83
650.21	39381.85
650.36	39386.54
650.51	39505.90
650.65	39622.93
650.80	40011.46
650.94	39459.09
651.09	39461.43
651.23	39248.44
651.38	39449.73
651.52	39274.19
651.67	39236.74
651.81	39243.76
651.96	39171.21
652.10	39421.64
652.25	39180.57
652.39	39529.31
652.54	39344.41
652.68	39580.80
652.83	39328.02
652.97	39445.05
653.12	39365.47
653.26	39161.84
653.41	39288.23
653.55	39166.52
653.70	39070.56
653.84	39138.44
653.99	39117.37
654.13	39152.48
654.27	38808.42
654.42	38618.84
654.56	38841.19
654.71	39030.77
654.85	38799.06
655.00	38782.68
655.14	39222.70
655.29	38878.64
655.43	38948.85
655.57	38869.28
655.72	38742.89
655.86	38689.06
656.01	38249.03
656.15	38307.55
656.30	38651.61
656.44	38602.46
656.58	37944.76
656.73	38227.97
656.87	38354.36
657.01	38181.16
657.16	38649.27
657.30	38663.31
657.45	38679.69
657.59	37986.89
657.73	38384.79
657.88	37937.74
658.02	38286.48
658.16	37675.60
658.31	37479.00
658.45	38230.31
658.60	37453.25
658.74	37771.57
658.88	38033.71
659.03	38169.46
659.17	38078.18
659.31	37425.17
659.46	38146.05
659.60	38244.35
659.74	38057.11
659.89	37886.25
660.03	37453.25
660.17	37408.78
660.32	37251.97
660.46	37401.76
660.60	36865.78
660.74	37368.99
660.89	37413.46
661.03	37006.21
661.17	36734.71
661.32	37237.92
661.46	37266.01
661.60	37790.29
661.74	37085.79
661.89	37853.48
662.03	37184.09
662.17	36868.12
662.31	36701.94
662.46	36797.90
662.60	36739.39
662.74	36755.77
662.88	36699.60
663.03	37195.79
663.17	36577.89
663.31	36329.80
663.45	36577.89
663.60	36718.32
663.74	36009.14
663.88	36486.61
664.02	36662.15
664.17	36727.69
664.31	36371.92
664.45	36350.86
664.59	36002.12
664.73	36322.77
664.88	36086.38
665.02	35393.58
665.16	35751.68
665.30	35711.89
665.44	35868.71
665.59	35639.34
665.73	35693.17
665.87	35346.77
666.01	35948.29
666.15	35840.62
666.29	35613.59
666.44	35543.38
666.58	35601.89
666.72	35667.42
666.86	35524.65
667.00	35826.58
667.14	35395.92
667.28	35161.87
667.43	34630.57
667.57	35295.28
667.71	35323.36
667.85	34857.60
667.99	34588.44
668.13	34789.72
668.27	34618.86
668.41	34857.60
668.56	34604.82
668.70	34864.62
668.84	34747.59
668.98	34789.72
669.12	34696.10
669.26	34813.13
669.40	34527.58
669.54	34469.07
669.68	34431.62
669.82	34092.24
669.96	34155.44
670.10	33874.57
670.25	34279.49
670.39	34153.10
670.53	33844.15
670.67	33956.49
670.81	34223.31
670.95	33970.54
671.09	34078.20
671.23	34356.72
671.37	33834.78
671.51	34148.42
671.65	33769.25
671.79	33708.40
671.93	33642.86
672.07	33467.32
672.21	33542.22
672.35	33598.39
672.49	32793.25
672.63	33179.43
672.77	32795.59
672.91	33200.50
673.05	33069.43
673.19	32676.22
673.33	33123.26
673.47	32795.59
673.61	32854.10
673.75	32893.89
673.89	32458.55
674.03	32491.32
674.17	32620.05
674.31	32472.59
674.45	32559.19
674.59	32126.19
674.73	32292.37
674.87	32397.70
675.01	32114.49
675.15	32039.59
675.29	31976.40
675.43	31985.76
675.56	31931.93
675.70	32107.47
675.84	31910.86
675.98	31524.68
676.12	31758.73
676.26	31716.60
676.40	31672.13
676.54	31665.11
676.68	31421.69
676.82	30562.72
676.96	31129.12
677.10	31239.13
677.23	30794.43
677.37	30719.53
677.51	30719.53
677.65	30415.26
677.79	30108.65
677.93	30639.95
678.07	30284.19
678.21	30272.49
678.34	30511.22
678.48	30181.21
678.62	30178.87
678.76	30047.80
678.90	30022.05
679.04	29795.02
679.18	29846.51
679.31	29106.90
679.45	29692.04
679.59	29118.60
679.73	29139.67
679.87	29294.14
680.00	29315.21
680.14	29006.26
680.28	29015.62
680.42	29024.98
680.56	28783.91
680.70	28842.42
680.83	28613.05
680.97	28783.91
681.11	28849.44
681.25	28907.96
681.39	28900.94
681.52	28591.98
681.66	28261.97
681.80	28217.50
681.94	27782.16
682.07	27810.25
682.21	27859.40
682.35	28025.57
682.49	27721.30
682.62	27281.28
682.76	27559.81
682.90	27585.55
683.04	27484.91
683.17	27573.85
683.31	26991.06
683.45	27285.97
683.59	27218.09
683.72	27094.04
683.86	26792.11
684.00	27007.44
684.13	26560.40
684.27	26628.27
684.41	26565.08
684.55	26513.59
684.68	26195.28
684.82	26214.00
684.96	25961.22
685.09	25762.28
685.23	26064.21
685.37	26029.10
685.50	26103.99
685.64	25998.67
685.78	25968.24
685.91	25851.22
686.05	25626.53
686.19	25614.82
686.32	25692.06
686.46	25275.45
686.60	24931.39
686.73	25296.51
686.87	25020.33
687.01	24929.05
687.14	24599.03
687.28	25207.57
687.42	25081.18
687.55	24285.40
687.69	24891.60
687.82	24395.40
687.96	24212.84
688.10	24493.71
688.23	24491.37
688.37	24229.23
688.50	24205.82
688.64	23992.83
688.78	24107.52
688.91	23964.75
689.05	24018.58
689.18	23653.45
689.32	23524.72
689.46	23637.07
689.59	23311.74
689.73	23477.91
689.86	23115.13
690.00	22953.63
690.13	23391.31
690.27	23236.84
690.41	22906.82
690.54	22757.03
690.68	23030.87
690.81	22927.89
690.95	22644.68
691.08	22719.58
691.22	22546.38
691.35	22396.59
691.49	22520.63
691.62	22075.93
691.76	22099.34
691.89	22038.48
692.03	21738.90
692.16	21752.94
692.30	21830.18
692.43	21553.99
692.57	21659.32
692.70	21647.61
692.84	21759.96
692.97	21467.39
693.11	21369.09
693.24	21383.13
693.38	21331.64
693.51	21310.58
693.65	21296.53
693.78	21130.36
693.92	20999.29
694.05	21029.71
694.19	20648.21
694.32	20489.05
694.45	20624.80
694.59	20437.56
694.72	20308.83
694.86	20489.05
694.99	20063.07
695.13	19915.62
695.26	20030.30
695.39	19555.18
695.53	19983.49
695.66	19754.12
695.80	19932.00
695.93	19798.59
696.07	19548.15
696.20	19433.47
696.33	19756.46
696.47	19461.55
696.60	19248.57
696.73	19433.47
696.87	19136.22
697.00	18958.34
697.14	18822.59
697.27	18768.76
697.40	18443.42
697.54	18719.60
697.67	18663.43
697.80	18513.64
697.94	18359.16
698.07	18438.74
698.21	18249.16
698.34	18387.25
698.47	18394.27
698.61	18171.92
698.74	18225.75
698.87	18090.00
699.01	18181.28
699.14	18178.94
699.27	17984.68
699.40	17598.49
699.54	17631.26
699.67	17298.90
699.80	17245.07
699.94	17350.39
700.07	17116.34
700.20	16982.93
700.34	17090.59
700.47	16669.30
700.60	17032.08
700.73	16999.31
700.87	17025.06
701.00	16952.50
701.13	16699.72
701.26	16758.24
701.40	16676.32
701.53	16451.63
701.66	16430.56
701.79	16341.62
701.93	16093.52
702.06	16388.43
702.19	16194.17
702.32	15976.50
702.46	16315.87
702.59	15763.51
702.72	15452.22
702.85	15578.61
702.99	15543.50
703.12	15173.69
703.25	15496.69
703.38	15501.37
703.51	15583.29
703.65	15307.10
703.78	15316.47
703.91	15293.06
704.04	15552.86
704.17	15351.57
704.31	14693.88
704.44	14806.23
704.57	15044.96
704.70	14808.57
704.83	14663.46
704.96	14738.35
705.10	14820.27
705.23	14504.30
>>>>>End Processed Spectral Data<<<<<
