SpectraSuite Data File
++++++++++++++++++++++++++++++++++++
Date: Fri Oct 04 11:39:39 GMT-05:00 2013
User: price-jones
Dark Spectrum Present: No
Reference Spectrum Present: No
Number of Sampled Component Spectra: 1
Spectrometers: USB2+H05261
Integration Time (usec): 100000 (USB2+H05261)
Spectra Averaged: 1 (USB2+H05261)
Boxcar Smoothing: 0 (USB2+H05261)
Correct for Electrical Dark: No (USB2+H05261)
Strobe/Lamp Enabled: No (USB2+H05261)
Correct for Detector Non-linearity: No (USB2+H05261)
Correct for Stray Light: No (USB2+H05261)
Number of Pixels in Processed Spectrum: 2048
>>>>>Begin Processed Spectral Data<<<<<
365.73	63.19
365.92	63.19
366.12	63.19
366.32	0.00
366.52	0.00
366.72	0.00
366.91	9.36
367.11	0.00
367.31	0.00
367.51	0.00
367.70	0.00
367.90	0.00
368.10	0.00
368.30	0.00
368.49	0.00
368.69	0.00
368.89	0.00
369.09	0.00
369.28	0.00
369.48	0.00
369.68	0.00
369.87	67.88
370.07	0.00
370.27	25.75
370.47	161.50
370.66	255.12
370.86	278.52
371.06	285.55
371.25	341.72
371.45	306.61
371.65	346.40
371.84	355.76
372.04	341.72
372.24	414.27
372.44	355.76
372.63	318.31
372.83	407.25
373.03	362.78
373.22	351.08
373.42	414.27
373.62	484.49
373.81	353.42
374.01	491.51
374.21	386.19
374.40	362.78
374.60	416.62
374.79	449.38
374.99	458.74
375.19	440.02
375.38	414.27
375.58	393.21
375.78	479.81
375.97	395.55
376.17	421.30
376.37	463.43
376.56	482.15
376.76	507.90
376.95	493.85
377.15	465.77
377.35	440.02
377.54	411.93
377.74	456.40
377.93	524.28
378.13	484.49
378.33	454.06
378.52	479.81
378.72	578.11
378.91	489.17
379.11	451.72
379.31	528.96
379.50	517.26
379.70	505.56
379.89	512.58
380.09	465.77
380.28	535.98
380.48	540.66
380.68	442.36
380.87	482.15
381.07	533.64
381.26	538.32
381.46	444.70
381.65	500.87
381.85	587.47
382.04	566.41
382.24	540.66
382.43	489.17
382.63	599.18
382.83	631.94
383.02	603.86
383.22	564.07
383.41	587.47
383.61	643.65
383.80	547.69
384.00	627.26
384.19	575.77
384.39	585.13
384.58	585.13
384.78	566.41
384.97	664.71
385.17	620.24
385.36	730.25
385.56	610.88
385.75	634.29
385.95	669.39
386.14	678.76
386.34	594.50
386.53	608.54
386.72	603.86
386.92	631.94
387.11	622.58
387.31	641.31
387.50	657.69
387.70	711.52
387.89	713.86
388.09	704.50
388.28	690.46
388.48	674.07
388.67	692.80
388.86	648.33
389.06	699.82
389.25	781.74
389.45	657.69
389.64	788.76
389.84	730.25
390.03	746.63
390.22	683.44
390.42	727.91
390.61	706.84
390.81	723.23
391.00	744.29
391.19	812.17
391.39	779.40
391.58	784.08
391.78	802.80
391.97	753.65
392.16	812.17
392.36	929.19
392.55	786.42
392.75	861.32
392.94	866.00
393.13	938.55
393.33	837.91
393.52	854.30
393.71	847.27
393.91	943.24
394.10	908.13
394.29	798.12
394.49	868.34
394.68	866.00
394.88	959.62
395.07	903.45
395.26	837.91
395.46	922.17
395.65	912.81
395.84	896.43
396.04	950.26
396.23	959.62
396.42	866.00
396.62	992.39
396.81	983.02
397.00	1036.86
397.19	931.53
397.39	980.68
397.58	1055.58
397.77	973.66
397.97	976.00
398.16	1046.22
398.35	1069.62
398.55	1018.13
398.74	1036.86
398.93	1172.61
399.12	1097.71
399.32	990.05
399.51	1039.20
399.70	1156.22
399.90	1139.84
400.09	1104.73
400.28	1153.88
400.47	1139.84
400.67	1130.48
400.86	1233.46
401.05	1233.46
401.24	1125.80
401.44	1188.99
401.63	1224.10
401.82	1291.98
402.01	1313.04
402.21	1217.08
402.40	1245.16
402.59	1350.49
402.78	1380.92
402.97	1366.87
403.17	1416.02
403.36	1336.45
403.55	1348.15
403.74	1376.24
403.93	1355.17
404.13	1516.67
404.32	1493.26
404.51	1486.24
404.70	1500.28
404.89	1495.60
405.09	1551.78
405.28	1554.12
405.47	1551.78
405.66	1577.52
405.85	1607.95
406.05	1570.50
406.24	1607.95
406.43	1598.59
406.62	1603.27
406.81	1685.19
407.00	1561.14
407.20	1603.27
407.39	1533.05
407.58	1717.95
407.77	1732.00
407.96	1668.80
408.15	1722.63
408.34	1767.10
408.54	1832.64
408.73	1839.66
408.92	1764.76
409.11	1912.22
409.30	1860.73
409.49	1839.66
409.68	1820.94
409.87	1764.76
410.07	1877.11
410.26	1926.26
410.45	2043.29
410.64	1930.94
410.83	1975.41
411.02	2003.50
411.21	2188.40
411.40	2104.14
411.59	2160.31
411.78	2092.44
411.98	2036.27
412.17	2153.29
412.36	2047.97
412.55	2176.70
412.74	2263.30
412.93	2246.91
413.12	2134.57
413.31	2356.92
413.50	2312.45
413.69	2403.73
413.88	2349.90
414.07	2497.35
414.26	2462.24
414.45	2452.88
414.64	2586.29
414.83	2717.36
415.02	2471.61
415.22	2473.95
415.41	2684.59
415.60	2548.84
415.79	2675.23
415.98	2855.45
416.17	2750.13
416.36	2661.19
416.55	2839.07
416.74	2822.69
416.93	2960.78
417.12	2906.95
417.31	2904.60
417.50	2956.10
417.69	3117.59
417.88	2939.71
418.07	3070.78
418.26	2925.67
418.45	2991.20
418.64	3155.04
418.83	3133.98
419.02	3159.72
419.21	3262.71
419.39	3293.13
419.58	3119.93
419.77	3159.72
419.96	3361.01
420.15	3316.54
420.34	3276.75
420.53	3211.22
420.72	3276.75
420.91	3295.47
421.10	3412.50
421.29	3304.84
421.48	3325.90
421.67	3377.39
421.86	3358.67
422.05	3482.72
422.24	3384.41
422.43	3482.72
422.61	3461.65
422.80	3679.32
422.99	3503.78
423.18	3637.19
423.37	3524.85
423.56	3454.63
423.75	3517.83
423.94	3574.00
424.13	3391.44
424.32	3391.44
424.50	3606.77
424.69	3618.47
424.88	3520.17
425.07	3634.85
425.26	3503.78
425.45	3637.19
425.64	3583.36
425.83	3688.68
426.01	3775.28
426.20	3634.85
426.39	3581.02
426.58	3552.93
426.77	3763.58
426.96	3763.58
427.15	3672.30
427.33	3693.37
427.52	3822.09
427.71	3733.15
427.90	3733.15
428.09	3819.75
428.28	3777.62
428.46	3819.75
428.65	3981.25
428.84	3960.19
429.03	4007.00
429.22	3836.14
429.40	4086.58
429.59	4046.79
429.78	3971.89
429.97	3922.74
430.16	3894.65
430.34	3911.04
430.53	3988.27
430.72	3943.80
430.91	4032.74
431.10	3925.08
431.28	4063.17
431.47	4142.75
431.66	4231.69
431.85	4203.60
432.03	4311.27
432.22	4362.76
432.41	4346.37
432.60	4374.46
432.79	4252.75
432.97	4496.17
433.16	4210.62
433.35	4355.74
433.54	4381.48
433.72	4337.01
433.91	4388.50
434.10	4465.74
434.28	4411.91
434.47	4440.00
434.66	4554.68
434.85	4596.81
435.03	4610.86
435.22	4826.18
435.41	5027.47
435.59	5032.15
435.78	4844.91
435.97	4779.37
436.16	4898.74
436.34	4706.82
436.53	4798.10
436.72	4833.21
436.90	4671.71
437.09	4828.53
437.28	4737.24
437.46	4814.48
437.65	4830.87
437.84	4826.18
438.02	4856.61
438.21	4968.96
438.40	4814.48
438.58	4910.44
438.77	5071.94
438.96	5020.45
439.14	5231.10
439.33	5301.31
439.52	5252.16
439.70	5275.57
439.89	5317.70
440.08	5249.82
440.26	5348.12
440.45	5336.42
440.63	5401.96
440.82	5664.10
441.01	5476.85
441.19	5509.62
441.38	5614.95
441.57	5626.65
441.75	5638.35
441.94	5804.53
442.12	5849.00
442.31	5884.11
442.50	5832.62
442.68	5727.29
442.87	5940.28
443.05	6033.90
443.24	5900.49
443.43	5860.70
443.61	5916.87
443.80	6036.24
443.98	5825.59
444.17	5687.50
444.35	5991.77
444.54	6029.22
444.73	6052.63
444.91	6080.71
445.10	6108.80
445.28	5937.94
445.47	5937.94
445.65	6066.67
445.84	6176.67
446.02	6239.87
446.21	5902.83
446.39	6106.46
446.58	6073.69
446.77	6083.05
446.95	6015.18
447.14	6033.90
447.32	6218.80
447.51	6164.97
447.69	6225.82
447.88	5998.79
448.06	6024.54
448.25	6054.97
448.43	6141.57
448.62	6286.68
448.80	6176.67
448.99	6157.95
449.17	6396.68
449.36	6310.08
449.54	6476.26
449.73	6408.39
449.91	6396.68
450.10	6502.01
450.28	6586.27
450.46	6366.26
450.65	6546.48
450.83	6384.98
451.02	6614.35
451.20	6675.21
451.39	6553.50
451.57	6427.11
451.76	6429.45
451.94	6649.46
452.13	6874.15
452.31	6825.00
452.49	6672.87
452.68	6951.39
452.86	6792.23
453.05	6796.92
453.23	6902.24
453.42	6693.93
453.60	6719.68
453.78	6970.12
453.97	6787.55
454.15	6848.41
454.34	6899.90
454.52	7007.56
454.70	7033.31
454.89	7042.67
455.07	7066.08
455.26	7105.87
455.44	7103.53
455.62	7183.10
455.81	7122.25
455.99	7171.40
456.17	7222.89
456.36	7194.81
456.54	7311.83
456.73	7421.84
456.91	7590.36
457.09	7431.20
457.28	7655.89
457.46	7410.14
457.64	7651.21
457.83	7613.76
458.01	7576.31
458.19	7583.34
458.38	7496.74
458.56	7859.52
458.74	7644.19
458.93	7513.12
459.11	7754.19
459.29	7672.28
459.48	7758.88
459.66	7831.43
459.84	7838.45
460.03	7939.10
460.21	7983.57
460.39	7882.92
460.57	7868.88
460.76	7866.54
460.94	8140.38
461.12	7964.84
461.31	7688.66
461.49	7995.27
461.67	7925.05
461.85	8131.02
462.04	8152.09
462.22	8152.09
462.40	8276.13
462.59	8266.77
462.77	8428.27
462.95	8390.82
463.13	8416.57
463.32	8210.60
463.50	8489.12
463.68	8538.27
463.86	8484.44
464.05	8255.07
464.23	8299.54
464.41	8468.06
464.59	8374.44
464.78	8514.87
464.96	8589.77
465.14	8353.37
465.32	8774.67
465.50	8711.47
465.69	8688.07
465.87	8610.83
466.05	8613.17
466.23	8517.21
466.41	8664.66
466.60	8992.34
466.78	8507.85
466.96	8599.13
467.14	8552.32
467.32	8840.20
467.51	8849.57
467.69	8793.39
467.87	8704.45
468.05	9125.75
468.23	8816.80
468.41	8821.48
468.60	8805.10
468.78	9034.47
468.96	8978.30
469.14	8975.95
469.32	9195.96
469.50	8704.45
469.69	9027.45
469.87	9280.22
470.05	9172.56
470.23	9146.81
470.41	9423.00
470.59	9277.88
470.77	9341.08
470.95	9408.95
471.14	9514.28
471.32	9245.12
471.50	9874.72
471.68	9490.87
471.86	9937.91
472.04	9694.50
472.22	9877.06
472.40	9736.63
472.58	9565.77
472.77	9834.93
472.95	9631.30
473.13	10230.48
473.31	10017.49
473.49	9853.66
473.67	10078.35
473.85	10026.86
474.03	10272.61
474.21	9935.57
474.39	10410.70
474.57	10391.98
474.75	10356.87
474.93	10785.19
475.12	10626.03
475.30	10747.74
475.48	10466.88
475.66	10485.60
475.84	10885.83
476.02	10700.93
476.20	10895.19
476.38	11084.78
476.56	11178.40
476.74	11133.93
476.92	11059.03
477.10	11281.38
477.28	11269.68
477.46	11339.90
477.64	11370.32
477.82	11573.95
478.00	11812.68
478.18	11808.00
478.36	11803.32
478.54	12074.82
478.72	12032.69
478.90	12161.42
479.08	12292.49
479.26	12149.72
479.44	12477.40
479.62	12699.75
479.80	12596.76
479.98	12610.81
480.16	12865.92
480.34	12769.96
480.52	13109.34
480.70	12975.93
480.88	12924.44
481.06	13247.43
481.24	13284.88
481.41	13458.08
481.59	13703.84
481.77	13675.75
481.95	13813.84
482.13	13762.35
482.31	13710.86
482.49	14066.62
482.67	14223.44
482.85	14167.26
483.03	14267.91
483.21	14649.41
483.39	14836.66
483.57	14511.32
483.74	14640.05
483.92	14822.61
484.10	14679.84
484.28	15246.25
484.46	15468.60
484.64	15587.97
484.82	15222.84
485.00	15545.84
485.18	15917.98
485.35	15871.17
485.53	15969.48
485.71	15915.64
485.89	16425.88
486.07	16327.58
486.25	16133.31
486.43	16690.36
486.61	16823.77
486.78	16711.42
486.96	17018.04
487.14	17167.83
487.32	17345.71
487.50	17310.60
487.68	17376.14
487.85	17399.54
488.03	18045.53
488.21	18075.96
488.39	17980.00
488.57	18181.28
488.75	18190.64
488.92	18448.10
489.10	18534.70
489.28	18595.56
489.46	18735.99
489.64	18810.89
489.81	19311.76
489.99	19094.09
490.17	18941.96
490.35	19754.12
490.53	19370.27
490.70	19817.32
490.88	19501.34
491.06	19992.86
491.24	19749.44
491.41	20173.08
491.59	20306.49
491.77	20067.75
491.95	20566.29
492.13	20212.87
492.30	20615.44
492.48	20947.79
492.66	20947.79
492.84	21060.14
493.01	21153.76
493.19	21216.96
493.37	21446.33
493.54	21778.68
493.72	21743.58
493.90	21972.95
494.08	22178.92
494.25	22162.53
494.43	22417.65
494.61	22635.32
494.79	22508.93
494.96	22314.67
495.14	22511.27
495.32	23222.80
495.49	22970.02
495.67	22948.95
495.85	23115.13
496.02	23417.06
496.20	23571.54
496.38	23704.95
496.55	23606.64
496.73	24201.14
496.91	23772.82
497.09	24063.05
497.26	24320.51
497.44	24484.34
497.62	24114.54
497.79	24643.50
497.97	24545.20
498.14	24903.30
498.32	25139.69
498.50	24664.57
498.67	25142.03
498.85	25015.65
499.03	25605.46
499.20	25336.30
499.38	25844.20
499.56	25652.27
499.73	25848.88
499.91	25961.22
500.08	25993.99
500.26	26003.35
500.44	26302.94
500.61	26260.81
500.79	26122.72
500.97	26529.97
501.14	26747.64
501.32	27063.61
501.49	26618.91
501.67	26520.61
501.84	26836.58
502.02	26691.47
502.20	27395.97
502.37	27332.78
502.55	26899.78
502.72	27318.73
502.90	26958.29
503.07	26972.33
503.25	27491.93
503.43	27068.30
503.60	27573.85
503.78	28105.15
503.95	27747.05
504.13	27702.58
504.30	28041.96
504.48	27873.44
504.65	28355.59
504.83	28549.85
505.01	28655.18
505.18	28327.50
505.36	28872.85
505.53	28559.22
505.71	28540.49
505.88	29020.30
506.06	28580.28
506.23	29085.84
506.41	29151.37
506.58	29142.01
506.76	29095.20
506.93	29682.67
507.11	29099.88
507.28	29333.93
507.46	29474.37
507.63	29731.83
507.81	29743.53
507.98	29589.05
508.16	29706.08
508.33	29909.71
508.50	29984.60
508.68	30071.20
508.85	30244.40
509.03	30391.86
509.20	30281.85
509.38	30906.77
509.55	31122.10
509.73	30906.77
509.90	31012.10
510.08	31075.29
510.25	30628.25
510.42	31311.69
510.60	31314.03
510.77	31793.84
510.95	31557.44
511.12	31302.32
511.30	31421.69
511.47	31634.68
511.64	31765.75
511.82	32058.32
511.99	31789.16
512.17	31941.29
512.34	31995.12
512.51	32322.80
512.69	32177.68
512.86	32020.87
513.04	32610.68
513.21	32659.84
513.38	32638.77
513.56	32748.78
513.73	32584.94
513.90	32196.41
514.08	32666.86
514.25	33120.92
514.43	32943.04
514.60	33244.97
514.77	32912.61
514.95	33457.96
515.12	33413.49
515.29	32676.22
515.47	33362.00
515.64	33081.13
515.81	33235.61
515.99	33961.17
516.16	33951.81
516.33	33844.15
516.51	34106.29
516.68	34183.52
516.85	33876.91
517.03	34117.99
517.20	34260.76
517.37	33853.51
517.54	34785.04
517.72	34366.09
517.89	34555.67
518.06	34565.03
518.24	34897.39
518.41	34621.20
518.58	34518.22
518.75	34501.84
518.93	35384.22
519.10	35028.46
519.27	35122.08
519.45	35185.27
519.62	35192.30
519.79	34726.53
519.96	35096.33
520.14	35662.74
520.31	35482.52
520.48	35906.16
520.65	35103.35
520.83	35812.54
521.00	35541.03
521.17	35655.72
521.34	35550.40
521.52	35793.81
521.69	36180.00
521.86	36273.62
522.03	36556.83
522.20	36205.75
522.38	36208.09
522.55	36313.41
522.72	36011.48
522.89	36315.75
523.07	36952.38
523.24	37057.70
523.41	36940.68
523.58	36554.49
523.75	37081.11
523.92	36713.64
524.10	37174.73
524.27	36952.38
524.44	37123.24
524.61	37593.68
524.78	37448.57
524.96	37619.43
525.13	37296.44
525.30	37415.80
525.47	37373.67
525.64	37689.65
525.81	37635.81
525.98	38068.81
526.16	37947.11
526.33	37834.76
526.50	38253.72
526.67	37806.67
526.84	37970.51
527.01	37888.59
527.18	38321.59
527.36	38080.52
527.53	38274.78
527.70	38656.29
527.87	38696.08
528.04	38658.63
528.21	38160.09
528.38	38314.57
528.55	38698.42
528.72	38307.55
528.89	38792.04
529.07	38569.69
529.24	38562.67
529.41	38904.38
529.58	39103.33
529.75	39131.42
529.92	38546.28
530.09	38871.62
530.26	38972.26
530.43	39285.89
530.60	39276.53
530.77	39173.55
530.94	39920.18
531.11	39192.27
531.28	39779.74
531.46	39297.59
531.63	39452.07
531.80	39828.90
531.97	39597.18
532.14	39519.95
532.31	39297.59
532.48	39484.84
532.65	39941.24
532.82	39438.03
532.99	39435.69
533.16	39983.37
533.33	40018.48
533.50	40353.18
533.67	40203.38
533.84	39545.69
534.01	39828.90
534.18	39557.39
534.35	40570.85
534.52	39917.84
534.69	40685.53
534.86	40762.77
535.03	40589.57
535.20	40737.02
535.37	40446.80
535.54	40933.63
535.71	40718.30
535.88	40554.46
536.05	40987.46
536.22	40891.50
536.38	41008.53
536.55	40980.44
536.72	41282.37
536.89	40917.25
537.06	40739.36
537.23	40957.03
537.40	41078.74
537.57	41516.42
537.74	41237.90
537.91	41666.22
538.08	41436.84
538.25	41373.65
538.42	41944.74
538.59	41478.97
538.75	41422.80
538.92	41593.66
539.09	41720.05
539.26	42073.47
539.43	41858.14
539.60	41921.34
539.77	41729.41
539.94	42120.28
540.11	42265.39
540.28	42417.53
540.44	41970.49
540.61	42099.22
540.78	41855.80
540.95	42359.02
541.12	42581.37
541.29	42630.52
541.46	42796.70
541.62	42628.18
541.79	42368.38
541.96	42429.23
542.13	42471.36
542.30	42930.11
542.47	43370.13
542.63	42679.67
542.80	43613.54
542.97	43686.10
543.14	43019.05
543.31	43262.46
543.48	43264.80
543.64	43435.66
543.81	43475.45
543.98	43292.89
544.15	43622.90
544.32	43859.30
544.48	43805.47
544.65	43416.94
544.82	43330.34
544.99	43566.73
545.16	43655.67
545.32	43496.52
545.49	44418.69
545.66	44793.17
545.83	44634.02
546.00	44491.24
546.16	44369.54
546.33	44217.40
546.50	43400.55
546.67	43838.23
546.83	43922.49
547.00	44184.63
547.17	43985.69
547.34	43988.03
547.50	44261.87
547.67	44226.76
547.84	43838.23
548.00	44062.93
548.17	44444.43
548.34	44196.34
548.51	44243.15
548.67	44456.14
548.84	44339.11
549.01	44147.18
549.18	43908.45
549.34	44098.03
549.51	44472.52
549.68	44488.90
549.84	44430.39
550.01	44289.96
550.18	44425.71
550.34	44439.75
550.51	44390.60
550.68	44538.05
550.84	44020.80
551.01	44636.36
551.18	44739.34
551.34	44446.77
551.51	44524.01
551.68	44650.40
551.84	44573.16
552.01	44725.30
552.18	44898.50
552.34	44421.03
552.51	44491.24
552.68	44329.75
552.84	44825.94
553.01	44683.17
553.18	44715.93
553.34	44856.37
553.51	45214.47
553.67	44903.18
553.84	45532.78
554.01	45069.36
554.17	45411.07
554.34	45249.58
554.51	44992.12
554.67	45170.00
554.84	45453.20
555.00	45045.95
555.17	45418.10
555.33	45429.80
555.50	45254.26
555.67	45315.11
555.83	45322.13
556.00	45284.68
556.16	45420.44
556.33	45092.76
556.50	45177.02
556.66	45544.48
556.83	45397.03
556.99	46120.26
557.16	45141.91
557.32	45844.07
557.49	45478.95
557.65	45069.36
557.82	45357.24
557.98	45443.84
558.15	45174.68
558.32	45897.91
558.48	45544.48
558.65	45818.33
558.81	45862.80
558.98	45343.20
559.14	45687.26
559.31	45495.33
559.47	45923.65
559.64	45621.72
559.80	46000.89
559.97	46120.26
560.13	45656.83
560.30	46089.83
560.46	45958.76
560.63	45935.35
560.79	46122.60
560.96	46143.66
561.12	45713.00
561.29	46064.08
561.45	45808.96
561.61	46129.62
561.78	46316.86
561.94	45713.00
562.11	45954.08
562.27	46094.51
562.44	45834.71
562.60	45762.15
562.77	45958.76
562.93	46377.72
563.10	46005.57
563.26	45591.30
563.42	46153.02
563.59	46340.27
563.75	46244.30
563.92	46419.84
564.08	46251.33
564.24	46148.34
564.41	45933.01
564.57	45720.02
564.74	45792.58
564.90	46546.23
565.07	46117.92
565.23	46628.15
565.39	46108.55
565.56	46469.00
565.72	45930.67
565.88	46234.94
566.05	46120.26
566.21	46085.15
566.38	46199.83
566.54	46223.24
566.70	46508.79
566.87	46550.91
567.03	46466.66
567.19	46717.09
567.36	46167.07
567.52	46232.60
567.68	46288.77
567.85	46129.62
568.01	46171.75
568.17	46225.58
568.34	46506.44
568.50	46880.93
568.66	46607.09
568.83	46642.20
568.99	46286.43
569.15	46302.82
569.32	46026.63
569.48	46181.11
569.64	46782.63
569.81	46241.96
569.97	46178.77
570.13	46684.33
570.30	46518.15
570.46	46731.14
570.62	46192.81
570.78	46553.26
570.95	46246.65
571.11	46403.46
571.27	46211.54
571.43	46234.94
571.60	46747.52
571.76	46658.58
571.92	46703.05
572.09	46485.38
572.25	46958.17
572.41	46356.65
572.57	46635.17
572.74	46799.01
572.90	46089.83
573.06	46681.98
573.22	46799.01
573.38	46429.21
573.55	46869.23
573.71	47140.73
573.87	46883.27
574.03	46487.72
574.20	46499.42
574.36	46347.29
574.52	46504.10
574.68	46232.60
574.84	46850.50
575.01	46939.44
575.17	46555.60
575.33	46990.94
575.49	46440.91
575.65	46426.87
575.82	46548.57
575.98	46501.76
576.14	46841.14
576.30	46529.85
576.46	46396.44
576.62	46630.49
576.79	46791.99
576.95	46742.84
577.11	46693.69
577.27	47012.00
577.43	46780.29
577.59	47049.45
577.75	46536.87
577.92	46356.65
578.08	46602.41
578.24	46279.41
578.40	46389.42
578.56	46735.82
578.72	46850.50
578.88	47093.92
579.04	47222.65
579.21	46609.43
579.37	46651.56
579.53	46869.23
579.69	46380.06
579.85	46527.51
580.01	46443.25
580.17	46721.77
580.33	46803.69
580.49	46571.98
580.65	46644.54
580.82	47423.93
580.98	46777.95
581.14	46579.00
581.30	46768.58
581.46	46616.45
581.62	46822.42
581.78	46733.48
581.94	46703.05
582.10	46689.01
582.26	46742.84
582.42	46377.72
582.58	46705.39
582.74	46927.74
582.90	47164.14
583.06	47056.47
583.22	46569.64
583.38	46609.43
583.54	46731.14
583.70	46527.51
583.86	46890.29
584.02	46426.87
584.18	46883.27
584.34	46951.15
584.50	46820.08
584.66	46705.39
584.82	46571.98
584.98	46724.11
585.14	46356.65
585.30	46424.53
585.46	46529.85
585.62	46600.07
585.78	47079.88
585.94	46880.93
586.10	46588.36
586.26	46569.64
586.42	46843.48
586.58	46883.27
586.74	46681.98
586.90	46220.90
587.06	46424.53
587.22	46609.43
587.38	47042.43
587.54	46733.48
587.70	47105.62
587.86	47033.07
588.02	46616.45
588.18	46822.42
588.34	47096.26
588.49	46836.46
588.65	46862.21
588.81	46473.68
588.97	46686.67
589.13	46401.12
589.29	46967.53
589.45	47068.17
589.61	47283.50
589.77	47112.64
589.93	47463.72
590.08	46780.29
590.24	46864.55
590.40	47299.89
590.56	47114.98
590.72	47044.77
590.88	46670.28
591.04	47107.96
591.20	47278.82
591.35	47206.26
591.51	47309.25
591.67	46836.46
591.83	47323.29
591.99	47065.83
592.15	46693.69
592.31	47255.42
592.46	46749.86
592.62	47114.98
592.78	46674.96
592.94	47091.58
593.10	46754.54
593.26	46983.91
593.41	47028.38
593.57	47250.74
593.73	47440.32
593.89	46857.52
594.05	47049.45
594.20	47133.71
594.36	46946.47
594.52	46976.89
594.68	46593.04
594.84	46894.97
594.99	47508.19
595.15	46988.60
595.31	47208.61
595.47	47042.43
595.62	47196.90
595.78	46806.03
595.94	47049.45
596.10	47276.48
596.25	46990.94
596.41	46777.95
596.57	46869.23
596.73	47122.01
596.88	47007.32
597.04	47512.88
597.20	46993.28
597.36	47220.31
597.51	47304.57
597.67	46672.62
597.83	46857.52
597.99	47196.90
598.14	46609.43
598.30	46696.03
598.46	46775.61
598.61	46759.22
598.77	46747.52
598.93	47138.39
599.09	47042.43
599.24	47196.90
599.40	47091.58
599.56	47456.70
599.71	47159.45
599.87	47075.19
600.03	47325.63
600.18	46906.68
600.34	47065.83
600.50	46693.69
600.65	47168.82
600.81	47477.77
600.97	46955.83
601.12	47452.02
601.28	47000.30
601.44	47187.54
601.59	47334.99
601.75	46745.18
601.91	47243.71
602.06	47019.02
602.22	46731.14
602.37	46747.52
602.53	46887.95
602.69	47159.45
602.84	46696.03
603.00	47290.52
603.16	46581.34
603.31	46770.93
603.47	46808.37
603.62	46593.04
603.78	46887.95
603.94	46829.44
604.09	46731.14
604.25	46529.85
604.40	46595.38
604.56	46857.52
604.71	47395.85
604.87	46974.55
605.03	46829.44
605.18	46581.34
605.34	46827.10
605.49	46597.73
605.65	46583.68
605.80	46518.15
605.96	46366.01
606.12	46820.08
606.27	46525.17
606.43	46218.56
606.58	47257.76
606.74	46518.15
606.89	46885.61
607.05	47229.67
607.20	46848.16
607.36	46443.25
607.51	46534.53
607.67	46670.28
607.82	45991.53
607.98	46679.64
608.13	46274.73
608.29	46466.66
608.44	46497.08
608.60	46457.29
608.75	46557.94
608.91	46700.71
609.06	46759.22
609.22	46932.42
609.37	46190.47
609.53	46356.65
609.68	46494.74
609.84	46719.43
609.99	46314.52
610.15	46536.87
610.30	46782.63
610.46	46464.32
610.61	46902.00
610.76	47140.73
610.92	47393.51
611.07	47063.49
611.23	47152.43
611.38	46834.12
611.54	46717.09
611.69	46504.10
611.84	46667.94
612.00	46436.23
612.15	46347.29
612.31	46829.44
612.46	45993.87
612.62	46426.87
612.77	46136.64
612.92	46335.59
613.08	46061.74
613.23	46358.99
613.39	46169.41
613.54	46412.82
613.69	46501.76
613.85	46017.27
614.00	46157.70
614.15	46087.49
614.31	45895.56
614.46	46508.79
614.62	46085.15
614.77	46068.76
614.92	45883.86
615.08	45546.82
615.23	45621.72
615.38	45581.93
615.54	45553.85
615.69	45364.26
615.84	45591.30
616.00	45284.68
616.15	45581.93
616.30	45631.08
616.46	45453.20
616.61	44971.05
616.76	45476.61
616.92	45336.18
617.07	45537.46
617.22	45139.57
617.37	44966.37
617.53	45404.05
617.68	45095.10
617.83	44800.19
617.99	45284.68
618.14	45212.13
618.29	45020.20
618.45	44847.00
618.60	45312.77
618.75	45151.27
618.90	44893.82
619.06	45186.38
619.21	45284.68
619.36	44865.73
619.51	44802.53
619.67	44261.87
619.82	44870.41
619.97	44746.36
620.12	44935.95
620.28	44619.97
620.43	44767.43
620.58	45254.26
620.73	45062.33
620.89	44835.30
621.04	45188.72
621.19	44961.69
621.34	44938.29
621.49	44603.59
621.65	44313.36
621.80	44816.58
621.95	44425.71
622.10	44842.32
622.25	44580.18
622.41	44425.71
622.56	44549.76
622.71	44514.65
622.86	44542.74
623.01	44732.32
623.16	44374.22
623.32	43955.26
623.47	44676.15
623.62	44074.63
623.77	44278.25
623.92	44105.06
624.07	43718.87
624.23	43985.69
624.38	44257.19
624.53	44109.74
624.68	44439.75
624.83	44561.46
624.98	44186.97
625.13	44240.81
625.29	44011.43
625.44	43744.61
625.59	43842.92
625.74	43964.62
625.89	43426.30
626.04	43447.36
626.19	43845.26
626.34	43674.40
626.49	43772.70
626.65	44336.77
626.80	43866.32
626.95	43526.94
627.10	43988.03
627.25	43711.84
627.40	43592.48
627.55	43412.26
627.70	43409.92
627.85	43775.04
628.00	42965.21
628.15	43103.31
628.30	43395.87
628.45	43433.32
628.60	43641.63
628.76	43716.53
628.91	43292.89
629.06	43381.83
629.21	43398.21
629.36	43217.99
629.51	43239.06
629.66	43208.63
629.81	42946.49
629.96	43007.34
630.11	43145.44
630.26	42770.95
630.41	42969.90
630.56	42909.04
630.71	42972.24
630.86	42962.87
631.01	43016.71
631.16	43262.46
631.31	42930.11
631.46	42925.42
631.61	42492.43
631.76	43075.22
631.91	42635.20
632.06	42588.39
632.21	42328.59
632.36	42555.62
632.51	42295.82
632.66	42815.42
632.81	42359.02
632.96	42696.05
633.10	42223.26
633.25	42782.65
633.40	42595.41
633.55	42424.55
633.70	42380.08
633.85	42466.68
634.00	42223.26
634.15	42370.72
634.30	42106.24
634.45	42164.75
634.60	42206.88
634.75	42174.11
634.90	42279.44
635.05	42195.18
635.19	42019.64
635.34	42167.09
635.49	42295.82
635.64	42244.33
635.79	42117.94
635.94	42014.96
636.09	41942.40
636.24	41354.93
636.39	41638.13
636.53	42080.49
636.68	42321.57
636.83	41612.38
636.98	41350.24
637.13	41462.59
637.28	42192.84
637.43	42068.79
637.57	42052.41
637.72	41682.60
637.87	41537.49
638.02	41844.10
638.17	41581.96
638.32	41261.30
638.46	41462.59
638.61	41710.69
638.76	41759.84
638.91	41617.07
639.06	41001.50
639.20	41163.00
639.35	41214.49
639.50	41296.41
639.65	41752.82
639.80	41502.38
639.94	41420.46
640.09	41118.53
640.24	41350.24
640.39	40982.78
640.54	41305.77
640.68	40580.21
640.83	40659.79
640.98	40914.90
641.13	40950.01
641.27	41125.55
641.42	40931.29
641.57	41247.26
641.72	41212.15
641.86	41251.94
642.01	40671.49
642.16	41228.54
642.31	40533.40
642.45	40926.61
642.60	40605.95
642.75	40444.46
642.90	40325.09
643.04	40105.08
643.19	40313.39
643.34	40652.76
643.48	40652.76
643.63	40430.41
643.78	40535.74
643.93	40718.30
644.07	40526.38
644.22	40311.05
644.37	40343.81
644.51	39938.90
644.66	40549.78
644.81	40301.68
644.95	40123.80
645.10	40231.47
645.25	40002.10
645.39	40280.62
645.54	40889.16
645.69	40374.24
645.83	40769.79
645.98	40472.54
646.13	40524.04
646.27	40383.60
646.42	40182.32
646.57	40320.41
646.71	40336.79
646.86	40123.80
647.00	39737.62
647.15	40067.63
647.30	39543.35
647.44	39871.03
647.59	39866.34
647.74	39634.63
647.88	39950.60
648.03	40165.93
648.17	40322.75
648.32	39995.07
648.47	39945.92
648.61	39431.01
648.76	39896.77
648.90	39695.49
649.05	39302.28
649.20	39374.83
649.34	39384.19
649.49	39573.78
649.63	39866.34
649.78	39435.69
649.92	39398.24
650.07	39545.69
650.21	39269.51
650.36	39337.38
650.51	39395.90
650.65	39824.22
650.80	39288.23
650.94	39454.41
651.09	39639.31
651.23	39091.63
651.38	39122.05
651.52	39543.35
651.67	39246.10
651.81	38827.15
651.96	39164.18
652.10	38909.07
652.25	38906.73
652.39	38960.56
652.54	39150.14
652.68	39056.52
652.83	39002.69
652.97	39316.32
653.12	39199.29
653.26	39330.36
653.41	39030.77
653.55	38890.34
653.70	38522.88
653.84	38796.72
653.99	38873.96
654.13	38134.35
654.27	38534.58
654.42	38768.63
654.56	38658.63
654.71	39049.50
654.85	38703.10
655.00	38714.80
655.14	38494.79
655.29	38560.33
655.43	38560.33
655.57	38052.43
655.72	38459.68
655.86	38307.55
656.01	38485.43
656.15	38195.20
656.30	37907.32
656.44	37888.59
656.58	38019.66
656.73	37909.66
656.87	38059.45
657.01	38033.71
657.16	38185.84
657.30	38190.52
657.45	38508.83
657.59	38424.57
657.73	38387.13
657.88	38052.43
658.02	38174.14
658.16	37771.57
658.31	37633.47
658.45	37841.78
658.60	37549.21
658.74	38024.34
658.88	37551.56
659.03	37589.00
659.17	37741.14
659.31	37289.42
659.46	37502.40
659.60	37684.97
659.74	37933.06
659.89	37221.54
660.03	37249.63
660.17	37493.04
660.32	37291.76
660.46	37546.87
660.60	37177.07
660.74	37043.66
660.89	36987.49
661.03	36825.99
661.17	36851.73
661.32	36460.87
661.46	36978.12
661.60	37455.59
661.74	37027.28
661.89	37078.77
662.03	36807.26
662.17	37074.09
662.31	36938.33
662.46	36903.23
662.60	36856.42
662.74	36694.92
662.88	36325.11
663.03	36315.75
663.17	36407.03
663.31	35978.72
663.45	35945.95
663.60	36137.87
663.74	35878.07
663.88	36098.08
664.02	36348.52
664.17	36430.44
664.31	36226.81
664.45	35700.19
664.59	36065.31
664.73	35819.56
664.88	35892.12
665.02	35889.77
665.16	35786.79
665.30	35707.21
665.44	35608.91
665.59	35445.07
665.73	35526.99
665.87	35328.05
666.01	35283.58
666.15	35608.91
666.29	34876.32
666.44	35264.85
666.58	35079.95
666.72	35618.27
666.86	35372.52
667.00	35206.34
667.14	35419.33
667.28	35243.79
667.43	35044.84
667.57	35232.08
667.71	34637.59
667.85	34827.17
667.99	34529.92
668.13	34721.85
668.27	34693.76
668.41	34848.24
668.56	34380.13
668.70	34534.60
668.84	34951.22
668.98	34506.52
669.12	34576.73
669.26	34513.54
669.40	33991.60
669.54	34015.01
669.68	33837.12
669.82	33923.72
669.96	33792.65
670.10	33734.14
670.25	33804.36
670.39	33518.81
670.53	33923.72
670.67	33429.87
670.81	33930.75
670.95	33551.58
671.09	33708.40
671.23	33390.08
671.37	33652.22
671.51	33591.37
671.65	33830.10
671.79	32868.14
671.93	33439.23
672.07	33251.99
672.21	33017.94
672.35	33125.60
672.49	32931.34
672.63	32629.41
672.77	32830.69
672.91	32428.12
673.05	32744.09
673.19	32329.82
673.33	32620.05
673.47	32793.25
673.61	32594.30
673.75	32397.70
673.89	32444.51
674.03	32315.78
674.17	32243.22
674.31	32353.23
674.45	32142.58
674.59	31871.07
674.73	32058.32
674.87	32065.34
675.01	31604.25
675.15	31819.58
675.29	31646.38
675.43	32105.13
675.56	31887.46
675.70	32067.68
675.84	31857.03
675.98	30895.07
676.12	31409.99
676.26	31241.47
676.40	31421.69
676.54	31381.90
676.68	31016.78
676.82	30588.46
676.96	30724.21
677.10	30778.04
677.23	30017.37
677.37	30347.39
677.51	30211.64
677.65	30235.04
677.79	29872.26
677.93	30183.55
678.07	29890.98
678.21	29909.71
678.34	29963.54
678.48	29745.87
678.62	29905.02
678.76	29890.98
678.90	29570.33
679.04	29898.00
679.18	29523.52
679.31	28982.85
679.45	28840.08
679.59	28484.32
679.73	29099.88
679.87	28678.58
680.00	28725.39
680.14	28713.69
680.28	29015.62
680.42	28219.84
680.56	28615.39
680.70	28107.49
680.83	28343.89
680.97	28397.72
681.11	28453.89
681.25	27805.56
681.39	28067.70
681.52	28327.50
681.66	27789.18
681.80	27723.65
681.94	27805.56
682.07	27480.23
682.21	27524.70
682.35	27239.15
682.49	27243.84
682.62	27220.43
682.76	27431.08
682.90	27199.37
683.04	27070.64
683.17	27168.94
683.31	26934.88
683.45	27019.14
683.59	26651.68
683.72	26838.92
683.86	26410.60
684.00	26312.30
684.13	26443.37
684.27	26281.88
684.41	25993.99
684.55	26139.10
684.68	26036.12
684.82	25797.38
684.96	25846.54
685.09	25455.67
685.23	25603.12
685.37	25668.66
685.50	25532.90
685.64	25397.15
685.78	25633.55
685.91	25455.67
686.05	25544.61
686.19	25146.72
686.32	25043.73
686.46	24697.33
686.60	24861.17
686.73	24631.80
686.87	25041.39
687.01	24783.93
687.14	24554.56
687.28	24238.59
687.42	23967.09
687.55	24151.99
687.69	24247.95
687.82	24130.92
687.96	23845.38
688.10	24034.96
688.23	23957.72
688.37	23985.81
688.50	23728.35
688.64	23824.31
688.78	23396.00
688.91	23548.13
689.05	23253.22
689.18	23260.24
689.32	23026.19
689.46	22632.98
689.59	23063.64
689.73	22782.77
689.86	22843.63
690.00	22696.17
690.13	22923.21
690.27	22747.67
690.41	22878.74
690.54	22349.78
690.68	22469.14
690.81	22356.80
690.95	22302.96
691.08	22593.19
691.22	22136.79
691.35	22033.80
691.49	22169.55
691.62	21694.43
691.76	21521.23
691.89	21596.12
692.03	21420.58
692.16	21605.49
692.30	21322.28
692.43	21385.47
692.57	21020.35
692.70	21268.45
692.84	21160.78
692.97	20931.41
693.11	20753.53
693.24	21113.97
693.38	21113.97
693.51	20781.62
693.65	20856.51
693.78	20599.05
693.92	20783.96
694.05	20524.16
694.19	20556.93
694.32	20423.51
694.45	20126.27
694.59	19955.41
694.72	20163.72
694.86	19880.51
694.99	19749.44
695.13	19676.88
695.26	19585.60
695.39	19304.74
695.53	19950.73
695.66	19651.14
695.80	19499.00
695.93	19157.28
696.07	19180.69
696.20	19061.32
696.33	19274.31
696.47	19213.46
696.60	18710.24
696.73	19161.97
696.87	18712.58
697.00	18532.36
697.14	18441.08
697.27	18403.63
697.40	18270.22
697.54	17980.00
697.67	17898.08
697.80	18317.03
697.94	17954.25
698.07	17750.62
698.21	17848.93
698.34	17823.18
698.47	18073.62
698.61	17884.03
698.74	17673.39
698.87	17886.37
699.01	17160.81
699.14	17448.69
699.27	17439.33
699.40	17291.88
699.54	16964.20
699.67	16919.73
699.80	16957.18
699.94	16889.31
700.07	16877.60
700.20	16507.80
700.34	16713.77
700.47	16594.40
700.60	16477.37
700.73	16603.76
700.87	16563.97
701.00	16690.36
701.13	16601.42
701.26	16250.34
701.40	16615.46
701.53	16210.55
701.66	16210.55
701.79	16180.12
701.93	15885.22
702.06	15899.26
702.19	15707.34
702.32	15754.15
702.46	15782.23
702.59	15213.48
702.72	15531.80
702.85	15573.92
702.99	15382.00
703.12	15150.29
703.25	15115.18
703.38	15367.96
703.51	15098.80
703.65	15185.40
703.78	15026.24
703.91	14881.13
704.04	14953.68
704.17	14806.23
704.31	14923.26
704.44	14834.32
704.57	14752.40
704.70	14686.86
704.83	14310.04
704.96	14127.47
705.10	14406.00
705.23	13926.19
>>>>>End Processed Spectral Data<<<<<
