SpectraSuite Data File
++++++++++++++++++++++++++++++++++++
Date: Fri Oct 04 11:39:25 GMT-05:00 2013
User: price-jones
Dark Spectrum Present: No
Reference Spectrum Present: No
Number of Sampled Component Spectra: 1
Spectrometers: USB2+H05261
Integration Time (usec): 100000 (USB2+H05261)
Spectra Averaged: 1 (USB2+H05261)
Boxcar Smoothing: 0 (USB2+H05261)
Correct for Electrical Dark: No (USB2+H05261)
Strobe/Lamp Enabled: No (USB2+H05261)
Correct for Detector Non-linearity: No (USB2+H05261)
Correct for Stray Light: No (USB2+H05261)
Number of Pixels in Processed Spectrum: 2048
>>>>>Begin Processed Spectral Data<<<<<
365.73	0.00
365.92	0.00
366.12	0.00
366.32	0.00
366.52	0.00
366.72	0.00
366.91	0.00
367.11	0.00
367.31	0.00
367.51	0.00
367.70	7.02
367.90	0.00
368.10	0.00
368.30	0.00
368.49	0.00
368.69	0.00
368.89	0.00
369.09	0.00
369.28	0.00
369.48	0.00
369.68	0.00
369.87	4.68
370.07	0.00
370.27	51.49
370.47	117.03
370.66	231.71
370.86	194.26
371.06	276.18
371.25	243.42
371.45	159.16
371.65	287.89
371.84	231.71
372.04	224.69
372.24	337.04
372.44	339.38
372.63	414.27
372.83	301.93
373.03	374.49
373.22	313.63
373.42	330.02
373.62	407.25
373.81	367.46
374.01	379.17
374.21	444.70
374.40	390.87
374.60	440.02
374.79	339.38
374.99	358.10
375.19	416.62
375.38	393.21
375.58	379.17
375.78	355.76
375.97	360.44
376.17	374.49
376.37	386.19
376.56	369.80
376.76	404.91
376.95	402.57
377.15	402.57
377.35	386.19
377.54	358.10
377.74	351.08
377.93	402.57
378.13	440.02
378.33	454.06
378.52	404.91
378.72	348.74
378.91	402.57
379.11	334.70
379.31	388.53
379.50	374.49
379.70	404.91
379.89	397.89
380.09	430.66
380.28	374.49
380.48	425.98
380.68	411.93
380.87	409.59
381.07	381.51
381.26	489.17
381.46	463.43
381.65	465.77
381.85	447.04
382.04	503.22
382.24	465.77
382.43	496.19
382.63	543.00
382.83	519.60
383.02	484.49
383.22	411.93
383.41	456.40
383.61	388.53
383.80	477.47
384.00	484.49
384.19	472.79
384.39	418.96
384.58	496.19
384.78	566.41
384.97	564.07
385.17	458.74
385.36	514.92
385.56	437.68
385.75	472.79
385.95	528.96
386.14	526.62
386.34	451.72
386.53	559.39
386.72	533.64
386.92	582.79
387.11	615.56
387.31	617.90
387.50	465.77
387.70	521.94
387.89	491.51
388.09	587.47
388.28	552.37
388.48	517.26
388.67	589.82
388.86	575.77
389.06	660.03
389.25	528.96
389.45	585.13
389.64	575.77
389.84	660.03
390.03	655.35
390.22	592.16
390.42	706.84
390.61	596.84
390.81	620.24
391.00	730.25
391.19	669.39
391.39	702.16
391.58	650.67
391.78	648.33
391.97	662.37
392.16	643.65
392.36	624.92
392.55	648.33
392.75	741.95
392.94	704.50
393.13	685.78
393.33	709.18
393.52	730.25
393.71	739.61
393.91	697.48
394.10	685.78
394.29	699.82
394.49	739.61
394.68	629.60
394.88	753.65
395.07	828.55
395.26	763.01
395.46	823.87
395.65	767.70
395.84	896.43
396.04	858.98
396.23	812.17
396.42	814.51
396.62	835.57
396.81	877.70
397.00	746.63
397.19	875.36
397.39	788.76
397.58	896.43
397.77	992.39
397.97	910.47
398.16	912.81
398.35	978.34
398.55	894.08
398.74	997.07
398.93	950.26
399.12	889.40
399.32	912.81
399.51	887.06
399.70	1013.45
399.90	997.07
400.09	1067.28
400.28	933.87
400.47	952.60
400.67	926.85
400.86	1011.11
401.05	1025.15
401.24	973.66
401.44	1074.31
401.63	1097.71
401.82	1088.35
402.01	1032.18
402.21	1137.50
402.40	1104.73
402.59	1160.91
402.78	1142.18
402.97	1102.39
403.17	1198.35
403.36	1203.04
403.55	1081.33
403.74	1144.52
403.93	1242.82
404.13	1240.48
404.32	1149.20
404.51	1118.78
404.70	1357.51
404.89	1256.87
405.09	1313.04
405.28	1282.61
405.47	1280.27
405.66	1444.11
405.85	1392.62
406.05	1343.47
406.24	1409.00
406.43	1308.36
406.62	1423.05
406.81	1455.81
407.00	1448.79
407.20	1362.19
407.39	1488.58
407.58	1369.21
407.77	1521.35
407.96	1600.93
408.15	1575.18
408.34	1507.30
408.54	1568.16
408.73	1631.35
408.92	1490.92
409.11	1593.90
409.30	1540.07
409.49	1678.16
409.68	1689.87
409.87	1666.46
410.07	1771.79
410.26	1610.29
410.45	1671.14
410.64	1757.74
410.83	1802.21
411.02	1788.17
411.21	1865.41
411.40	1769.44
411.59	1776.47
411.78	1811.57
411.98	1916.90
412.17	1844.34
412.36	1851.36
412.55	1884.13
412.74	2012.86
412.93	1987.11
413.12	2001.16
413.31	2120.53
413.50	2078.40
413.69	2033.93
413.88	2108.82
414.07	2202.44
414.26	2160.31
414.45	2179.04
414.64	2150.95
414.83	2284.36
415.02	2289.04
415.22	2349.90
415.41	2352.24
415.60	2455.22
415.79	2263.30
415.98	2513.74
416.17	2363.94
416.36	2293.72
416.55	2394.37
416.74	2455.22
416.93	2469.27
417.12	2471.61
417.31	2541.82
417.50	2480.97
417.69	2703.32
417.88	2649.49
418.07	2567.57
418.26	2616.72
418.45	2827.37
418.64	2656.51
418.83	2789.92
419.02	2759.49
419.21	2853.11
419.39	2700.98
419.58	2729.06
419.77	2829.71
419.96	2881.20
420.15	2960.78
420.34	2764.17
420.53	2867.16
420.72	2963.12
420.91	2953.76
421.10	2977.16
421.29	3070.78
421.48	2932.69
421.67	2970.14
421.86	3049.72
422.05	3005.25
422.24	3007.59
422.43	2998.23
422.61	3026.31
422.80	3038.02
422.99	3082.49
423.18	3030.99
423.37	3246.32
423.56	3122.27
423.75	3052.06
423.94	3068.44
424.13	2932.69
424.32	2972.48
424.50	3028.65
424.69	3251.00
424.88	3276.75
425.07	3258.03
425.26	3052.06
425.45	3070.78
425.64	3138.66
425.83	3272.07
426.01	3330.58
426.20	3272.07
426.39	3239.30
426.58	3150.36
426.77	3204.19
426.96	3316.54
427.15	3197.17
427.33	3330.58
427.52	3302.50
427.71	3314.20
427.90	3405.48
428.09	3325.90
428.28	3353.99
428.46	3400.80
428.65	3433.57
428.84	3442.93
429.03	3597.40
429.22	3468.67
429.40	3515.48
429.59	3574.00
429.78	3398.46
429.97	3449.95
430.16	3552.93
430.34	3581.02
430.53	3641.87
430.72	3712.09
430.91	3632.51
431.10	3522.51
431.28	3676.98
431.47	3646.55
431.66	3700.39
431.85	3578.68
432.03	3726.13
432.22	3808.05
432.41	3782.31
432.60	3885.29
432.79	3794.01
432.97	3873.59
433.16	3899.33
433.35	3852.52
433.54	4011.68
433.72	3880.61
433.91	3875.93
434.10	4004.66
434.28	3882.95
434.47	4007.00
434.66	4098.28
434.85	4060.83
435.03	4084.23
435.22	4273.82
435.41	4620.22
435.59	4465.74
435.78	4266.80
435.97	4212.96
436.16	4243.39
436.34	4264.46
436.53	4128.70
436.72	4257.43
436.90	4098.28
437.09	4217.65
437.28	4292.54
437.46	4222.33
437.65	4301.90
437.84	4388.50
438.02	4397.87
438.21	4287.86
438.40	4374.46
438.58	4512.55
438.77	4425.95
438.96	4578.09
439.14	4624.90
439.33	4643.62
439.52	4814.48
439.70	4748.95
439.89	4636.60
440.08	4669.37
440.26	4755.97
440.45	4674.05
440.63	4840.23
440.82	4837.89
441.01	4919.81
441.19	4861.29
441.38	4887.04
441.57	4983.00
441.75	4896.40
441.94	5221.74
442.12	5207.69
442.31	5046.20
442.50	5093.01
442.68	5219.39
442.87	5057.90
443.05	5191.31
443.24	5310.68
443.43	5298.97
443.61	5212.37
443.80	5479.19
443.98	5188.97
444.17	4990.02
444.35	5329.40
444.54	5467.49
444.73	5451.11
444.91	5357.49
445.10	5263.86
445.28	5369.19
445.47	5380.89
445.65	5359.83
445.84	5455.79
446.02	5392.59
446.21	5441.75
446.39	5448.77
446.58	5420.68
446.77	5533.03
446.95	5390.25
447.14	5453.45
447.32	5507.28
447.51	5497.92
447.69	5521.32
447.88	5614.95
448.06	5551.75
448.25	5462.81
448.43	5720.27
448.62	5502.60
448.80	5570.48
448.99	5591.54
449.17	5607.92
449.36	5680.48
449.54	5762.40
449.73	5668.78
449.91	5776.44
450.10	5731.97
450.28	5741.33
450.46	5884.11
450.65	5839.64
450.83	5769.42
451.02	5996.45
451.20	5963.68
451.39	5703.89
451.57	5746.02
451.76	5944.96
451.94	5933.26
452.13	6047.94
452.31	6008.16
452.49	6113.48
452.68	5935.60
452.86	5963.68
453.05	6033.90
453.23	6200.08
453.42	6038.58
453.60	6026.88
453.78	6101.78
453.97	5961.34
454.15	6122.84
454.34	6242.21
454.52	6181.35
454.70	6160.29
454.89	6282.00
455.07	6354.55
455.26	6331.15
455.44	6422.43
455.62	6457.54
455.81	6307.74
455.99	6513.71
456.17	6401.37
456.36	6408.39
456.54	6803.94
456.73	6628.40
456.91	6752.45
457.09	6675.21
457.28	6796.92
457.46	6815.64
457.64	6829.68
457.83	6693.93
458.01	6560.52
458.19	6773.51
458.38	6717.34
458.56	6916.28
458.74	6817.98
458.93	6829.68
459.11	6848.41
459.29	6970.12
459.48	6998.20
459.66	6967.77
459.84	7140.97
460.03	7213.53
460.21	7016.93
460.39	7103.53
460.57	7019.27
460.76	7066.08
460.94	7265.02
461.12	7328.22
461.31	7293.11
461.49	7115.23
461.67	7222.89
461.85	7248.64
462.04	7318.86
462.22	7499.08
462.40	7335.24
462.59	7386.73
462.77	7421.84
462.95	7412.48
463.13	7555.25
463.32	7393.75
463.50	7400.77
463.68	7613.76
463.86	7538.87
464.05	7447.58
464.23	7644.19
464.41	7510.78
464.59	7473.33
464.78	7808.03
464.96	7588.02
465.14	7627.81
465.32	7786.96
465.50	7712.07
465.69	7819.73
465.87	7789.30
466.05	7744.83
466.23	7721.43
466.41	7971.86
466.60	8077.19
466.78	7761.22
466.96	7728.45
467.14	7735.47
467.32	7981.23
467.51	7852.50
467.69	7779.94
467.87	8042.08
468.05	7995.27
468.23	7957.82
468.41	8028.04
468.60	8004.63
468.78	8119.32
468.96	8135.70
469.14	8241.03
469.32	8072.51
469.50	8154.43
469.69	8365.07
469.87	8486.78
470.05	8248.05
470.23	8283.16
470.41	8128.68
470.59	8514.87
470.77	8463.38
470.95	8418.91
471.14	8741.90
471.32	8369.76
471.50	8779.35
471.68	8676.37
471.86	8535.93
472.04	8709.13
472.22	9043.83
472.40	8762.97
472.58	8807.44
472.77	8613.17
472.95	9139.79
473.13	9202.99
473.31	9001.70
473.49	9097.66
473.67	8865.95
473.85	9032.13
474.03	9179.58
474.21	9249.80
474.39	9252.14
474.57	9357.46
474.75	9460.45
474.93	9497.89
475.12	9451.08
475.30	9502.58
475.48	9687.48
475.66	9535.34
475.84	9605.56
476.02	9769.40
476.20	9902.81
476.38	9764.72
476.56	10008.13
476.74	10045.58
476.92	10113.45
477.10	10312.40
477.28	10235.16
477.46	10129.84
477.64	10296.02
477.82	10637.73
478.00	10705.61
478.18	11019.24
478.36	10773.49
478.54	10785.19
478.72	10897.53
478.90	10949.03
479.08	11070.73
479.26	11260.32
479.44	11564.59
479.62	11377.34
479.80	11281.38
479.98	11358.62
480.16	11569.27
480.34	11524.80
480.52	11716.72
480.70	11889.92
480.88	11698.00
481.06	11843.11
481.24	11950.78
481.41	11997.59
481.59	12243.34
481.77	12128.66
481.95	12301.86
482.13	12407.18
482.31	12414.20
482.49	13074.23
482.67	12645.91
482.85	12821.45
483.03	13266.16
483.21	13083.59
483.39	13198.28
483.57	13322.33
483.74	13397.23
483.92	13397.23
484.10	13542.34
484.28	13774.05
484.46	14043.21
484.64	14143.86
484.82	14075.98
485.00	14129.81
485.18	14494.94
485.35	14747.72
485.53	14665.80
485.71	14607.28
485.89	14736.01
486.07	14782.82
486.25	14970.07
486.43	15009.86
486.61	14923.26
486.78	15454.56
486.96	15508.39
487.14	15290.72
487.32	15646.48
487.50	15775.21
487.68	15587.97
487.85	15887.56
488.03	16173.10
488.21	16475.03
488.39	16430.56
488.57	16531.20
488.75	16255.02
488.92	16847.18
489.10	17128.04
489.28	16711.42
489.46	17181.87
489.64	17039.10
489.81	17624.23
489.99	17420.61
490.17	17247.41
490.35	18026.81
490.53	17865.31
490.70	18003.40
490.88	18019.78
491.06	18267.88
491.24	18443.42
491.41	18324.05
491.59	18602.58
491.77	18326.39
491.95	18824.93
492.13	18850.67
492.30	19026.21
492.48	19260.27
492.66	18967.70
492.84	18988.77
493.01	19417.08
493.19	19552.84
493.37	19709.65
493.54	19756.46
493.72	20013.92
493.90	19924.98
494.08	20163.72
494.25	20308.83
494.43	20278.40
494.61	20301.81
494.79	20577.99
494.96	20290.10
495.14	20835.45
495.32	21064.82
495.49	21139.72
495.67	21373.77
495.85	21408.88
496.02	21369.09
496.20	20929.07
496.38	21495.48
496.55	21605.49
496.73	22097.00
496.91	21872.31
497.09	22029.12
497.26	22204.66
497.44	22099.34
497.62	22480.85
497.79	22438.72
497.97	22188.28
498.14	22647.02
498.32	22993.42
498.50	22941.93
498.67	23016.83
498.85	22970.02
499.03	22775.75
499.20	23190.03
499.38	23372.59
499.56	23309.40
499.73	23803.25
499.91	23800.91
500.08	23711.97
500.26	23552.81
500.44	23939.00
500.61	23721.33
500.79	23770.48
500.97	24063.05
501.14	24521.79
501.32	24437.53
501.49	24418.81
501.67	24400.08
501.84	24353.27
502.02	24409.45
502.20	24528.81
502.37	24783.93
502.55	24599.03
502.72	25144.38
502.90	24821.38
503.07	24950.11
503.25	25041.39
503.43	25160.76
503.60	25333.96
503.78	25511.84
503.95	25411.20
504.13	25310.55
504.30	25773.98
504.48	25832.49
504.65	25809.09
504.83	26228.04
505.01	26532.31
505.18	26031.44
505.36	26391.88
505.53	26160.17
505.71	26309.96
505.88	26394.22
506.06	26178.89
506.23	26686.79
506.41	26593.17
506.58	27239.15
506.76	26572.10
506.93	26962.97
507.11	26698.49
507.28	27335.12
507.46	26871.69
507.63	27171.28
507.81	27290.65
507.98	27269.58
508.16	27683.86
508.33	27494.27
508.50	27508.32
508.68	27843.01
508.85	28063.02
509.03	27819.61
509.20	28119.20
509.38	28212.82
509.55	28151.96
509.73	28276.01
509.90	28243.24
510.08	28519.43
510.25	28587.30
510.42	28453.89
510.60	28671.56
510.77	28730.08
510.95	29057.75
511.12	28849.44
511.30	28697.31
511.47	28877.53
511.64	29263.72
511.82	29294.14
511.99	29219.25
512.17	29607.78
512.34	29724.80
512.51	29507.13
512.69	29633.52
512.86	29874.60
513.04	29841.83
513.21	29886.30
513.38	30333.34
513.56	30026.73
513.73	29820.77
513.90	30195.25
514.08	29937.79
514.25	30621.23
514.43	30642.29
514.60	30646.97
514.77	30651.66
514.95	30333.34
515.12	30419.94
515.29	30682.08
515.47	30820.17
515.64	30824.86
515.81	30541.65
515.99	30902.09
516.16	31498.93
516.33	30960.61
516.51	31339.77
516.68	31129.12
516.85	31417.01
517.03	31246.15
517.20	31957.67
517.37	31594.89
517.54	31793.84
517.72	31367.86
517.89	31644.04
518.06	31878.10
518.24	31463.82
518.41	31391.26
518.58	31805.54
518.75	31988.10
518.93	32603.66
519.10	32346.20
519.27	32533.45
519.45	32151.94
519.62	32367.27
519.79	32449.19
519.96	32591.96
520.14	32580.26
520.31	32201.09
520.48	32868.14
520.65	33090.49
520.83	32900.91
521.00	32999.21
521.17	33097.52
521.34	33132.62
521.52	33340.93
521.69	33404.13
521.86	33413.49
522.03	33109.22
522.20	33780.95
522.38	33497.75
522.55	33635.84
522.72	33312.84
522.89	33762.23
523.07	34012.66
523.24	33872.23
523.41	34139.05
523.58	33977.56
523.75	33940.11
523.92	34279.49
524.10	34401.19
524.27	34204.59
524.44	34756.96
524.61	34745.25
524.78	34698.44
524.96	34866.96
525.13	34904.41
525.30	34831.85
525.47	34672.70
525.64	34597.80
525.81	35075.27
525.98	35101.01
526.16	35218.04
526.33	34740.57
526.50	35543.38
526.67	35145.48
526.84	35592.53
527.01	35023.78
527.18	35393.58
527.36	35639.34
527.53	35559.76
527.70	35995.10
527.87	35969.35
528.04	35461.46
528.21	35335.07
528.38	35913.18
528.55	36070.00
528.72	36147.23
528.89	35922.54
529.07	36180.00
529.24	35707.21
529.41	36212.77
529.58	35742.32
529.75	36252.56
529.92	36367.24
530.09	36517.04
530.26	36353.20
530.43	36226.81
530.60	36498.31
530.77	36538.10
530.94	36720.66
531.11	36559.17
531.28	36329.80
531.46	36664.49
531.63	36648.11
531.80	36933.65
531.97	36968.76
532.14	37214.52
532.31	36882.16
532.48	37029.62
532.65	37024.93
532.82	36957.06
532.99	37254.31
533.16	37298.78
533.33	37455.59
533.50	37586.66
533.67	37703.69
533.84	37420.48
534.01	37338.57
534.18	37532.83
534.35	37542.19
534.52	37364.31
534.69	37975.19
534.86	37811.35
535.03	37780.93
535.20	37776.25
535.37	37961.15
535.54	38029.02
535.71	37567.94
535.88	38253.72
536.05	38162.43
536.22	38670.33
536.38	38263.08
536.55	38473.73
536.72	38277.12
536.89	37954.13
537.06	38480.75
537.23	38639.90
537.40	38057.11
537.57	38171.80
537.74	38239.67
537.91	38436.28
538.08	38572.03
538.25	38815.44
538.42	38398.83
538.59	39171.21
538.75	38328.61
538.92	38698.42
539.09	38895.02
539.26	39344.41
539.43	39077.58
539.60	39636.97
539.77	38740.55
539.94	39274.19
540.11	39416.96
540.28	39583.14
540.44	39407.60
540.61	39239.08
540.78	39292.91
540.95	39735.27
541.12	39470.79
541.29	39732.93
541.46	40062.95
541.62	39735.27
541.79	40128.48
541.96	39707.19
542.13	40074.65
542.30	40112.10
542.47	40315.73
542.63	40196.36
542.80	40687.87
542.97	40566.16
543.14	40467.86
543.31	40362.54
543.48	40882.14
543.64	40711.28
543.81	41027.25
543.98	40842.35
544.15	40898.52
544.32	40779.15
544.48	41193.43
544.65	40727.66
544.82	40699.58
544.99	40219.77
545.16	40980.44
545.32	40959.38
545.49	41904.95
545.66	42155.39
545.83	42272.42
546.00	42148.37
546.16	41490.68
546.33	41177.04
546.50	41247.26
546.67	41132.57
546.83	40800.22
547.00	41265.99
547.17	41331.52
547.34	41474.29
547.50	41858.14
547.67	41766.86
547.84	41045.97
548.00	41738.77
548.17	41797.29
548.34	41738.77
548.51	41455.57
548.67	41617.07
548.84	41727.07
549.01	41638.13
549.18	42143.69
549.34	41045.97
549.51	41537.49
549.68	41876.86
549.84	41680.26
550.01	42045.38
550.18	41708.35
550.34	41979.85
550.51	42195.18
550.68	42321.57
550.84	41926.02
551.01	42106.24
551.18	41808.99
551.34	41441.53
551.51	41839.42
551.68	42211.56
551.84	42183.48
552.01	42293.48
552.18	42000.91
552.34	41855.80
552.51	42190.50
552.68	42679.67
552.84	42293.48
553.01	42452.64
553.18	42253.69
553.34	42632.86
553.51	42302.84
553.67	42808.40
553.84	42742.86
554.01	42941.81
554.17	42698.39
554.34	42756.91
554.51	42408.17
554.67	42712.44
554.84	42665.63
555.00	42586.05
555.17	42637.54
555.33	42813.08
555.50	43203.95
555.67	42983.94
555.83	42836.48
556.00	42583.71
556.16	43065.86
556.33	42422.21
556.50	42511.15
556.66	42997.98
556.83	42621.16
556.99	43337.36
557.16	43220.33
557.32	43035.43
557.49	43536.30
557.65	42799.04
557.82	43056.50
557.98	42843.51
558.15	43042.45
558.32	43138.41
558.48	43330.34
558.65	43138.41
558.81	43662.69
558.98	43274.16
559.14	43061.18
559.31	42932.45
559.47	43267.14
559.64	43033.09
559.80	43257.78
559.97	43569.07
560.13	43367.79
560.30	43201.61
560.46	43391.19
560.63	43426.30
560.79	43585.46
560.96	43761.00
561.12	43115.01
561.29	43423.96
561.45	43550.35
561.61	43744.61
561.78	43320.98
561.94	44191.65
562.11	43339.70
562.27	43538.65
562.44	43384.17
562.60	43234.38
562.77	43517.58
562.93	43650.99
563.10	43988.03
563.26	43611.20
563.42	43934.20
563.59	43639.29
563.75	43765.68
563.92	43931.86
564.08	43901.43
564.24	43901.43
564.41	43746.95
564.57	43679.08
564.74	43901.43
564.90	44151.87
565.07	43995.05
565.23	43873.34
565.39	44030.16
565.56	44002.07
565.72	43592.48
565.88	43971.64
566.05	43658.01
566.21	43894.41
566.38	43838.23
566.54	44067.61
566.70	44154.21
566.87	44289.96
567.03	44612.95
567.19	44236.12
567.36	44144.84
567.52	43585.46
567.68	44182.29
567.85	43676.74
568.01	43849.94
568.17	44559.12
568.34	44273.57
568.50	44149.53
568.66	43906.11
568.83	45083.40
568.99	44437.41
569.15	43681.42
569.32	44116.76
569.48	44100.37
569.64	44385.92
569.81	44147.18
569.97	44051.22
570.13	44435.07
570.30	44060.58
570.46	44325.07
570.62	44657.42
570.78	44165.91
570.95	44179.95
571.11	44257.19
571.27	43662.69
571.43	44186.97
571.60	44018.46
571.76	44306.34
571.92	44547.42
572.09	44732.32
572.25	44552.10
572.41	44245.49
572.57	44156.55
572.74	44535.71
572.90	44273.57
573.06	44610.61
573.22	44147.18
573.38	44542.74
573.55	44142.50
573.71	44832.96
573.87	44575.50
574.03	44463.16
574.20	44339.11
574.36	44186.97
574.52	44332.09
574.68	44463.16
574.84	44231.44
575.01	44495.92
575.17	44856.37
575.33	44320.38
575.49	44456.14
575.65	44823.60
575.82	44533.37
575.98	44641.04
576.14	44271.23
576.30	44664.44
576.46	44411.67
576.62	44626.99
576.79	44149.53
576.95	44322.72
577.11	44631.68
577.27	44737.00
577.43	44912.54
577.59	44453.79
577.75	44140.16
577.92	44191.65
578.08	44215.06
578.24	44306.34
578.40	44725.30
578.56	44643.38
578.72	45064.67
578.88	45050.63
579.04	44942.97
579.21	44973.39
579.37	44612.95
579.53	44861.05
579.69	44540.39
579.85	44830.62
580.01	44837.64
580.17	44797.85
580.33	44505.29
580.49	44959.35
580.65	44460.82
580.82	45251.92
580.98	44912.54
581.14	44423.37
581.30	44865.73
581.46	44671.46
581.62	44559.12
581.78	44261.87
581.94	44802.53
582.10	44491.24
582.26	45158.30
582.42	44589.55
582.58	44994.46
582.74	44243.15
582.90	44760.40
583.06	45127.87
583.22	44823.60
583.38	44856.37
583.54	44657.42
583.70	44804.88
583.86	44624.65
584.02	44619.97
584.18	45099.78
584.34	44861.05
584.50	44809.56
584.66	44816.58
584.82	44577.84
584.98	44898.50
585.14	44783.81
585.30	44566.14
585.46	44573.16
585.62	44732.32
585.78	44573.16
585.94	44659.76
586.10	45001.48
586.26	44762.75
586.42	45214.47
586.58	44863.39
586.74	44781.47
586.90	44467.84
587.06	44561.46
587.22	45055.31
587.38	44491.24
587.54	44772.11
587.70	45209.79
587.86	45184.04
588.02	44842.32
588.18	44900.84
588.34	44966.37
588.49	44776.79
588.65	44802.53
588.81	45031.91
588.97	45125.53
589.13	44673.81
589.29	44704.23
589.45	44992.12
589.61	44978.07
589.77	45624.06
589.93	45048.29
590.08	44842.32
590.24	45113.83
590.40	45146.59
590.56	45422.78
590.72	45345.54
590.88	44816.58
591.04	45010.84
591.20	45371.28
591.35	45911.95
591.51	45682.58
591.67	45418.10
591.83	45382.99
591.99	45148.93
592.15	45022.54
592.31	45001.48
592.46	44795.51
592.62	44882.11
592.78	45043.61
592.94	45153.62
593.10	45193.40
593.26	45741.09
593.41	45633.42
593.57	45296.39
593.73	45195.74
593.89	45514.06
594.05	45518.74
594.20	44907.86
594.36	45200.43
594.52	45207.45
594.68	45354.90
594.84	45308.09
594.99	45401.71
595.15	45017.86
595.31	45343.20
595.47	46026.63
595.62	45392.35
595.78	45474.27
595.94	45001.48
596.10	45081.06
596.25	45071.70
596.41	44882.11
596.57	44566.14
596.73	44851.69
596.88	45322.13
597.04	45848.75
597.20	45202.77
597.36	45380.65
597.51	45404.05
597.67	45303.41
597.83	44935.95
597.99	45500.01
598.14	45375.97
598.30	45170.00
598.46	45125.53
598.61	45720.02
598.77	45254.26
598.93	45694.28
599.09	45549.17
599.24	46045.36
599.40	45230.85
599.56	45425.12
599.71	45392.35
599.87	45750.45
600.03	45603.00
600.18	45432.14
600.34	45357.24
600.50	45446.18
600.65	45099.78
600.81	45490.65
600.97	45638.11
601.12	46211.54
601.28	45361.92
601.44	45745.77
601.59	45724.71
601.75	45226.17
601.91	45537.46
602.06	44865.73
602.22	45284.68
602.37	45041.27
602.53	45560.87
602.69	45305.75
602.84	45031.91
603.00	45422.78
603.16	45347.88
603.31	45420.44
603.47	45188.72
603.62	45200.43
603.78	45240.21
603.94	45413.41
604.09	45368.94
604.25	44816.58
604.40	45111.49
604.56	44914.88
604.71	45724.71
604.87	45263.62
605.03	45041.27
605.18	45184.04
605.34	44839.98
605.49	44559.12
605.65	45385.33
605.80	44577.84
605.96	44884.45
606.12	45277.66
606.27	45240.21
606.43	45057.65
606.58	45057.65
606.74	45172.34
606.89	45294.05
607.05	45193.40
607.20	45020.20
607.36	44938.29
607.51	44713.59
607.67	44315.70
607.82	44816.58
607.98	44685.51
608.13	45085.74
608.29	45045.95
608.44	44755.72
608.60	44765.09
608.75	44896.16
608.91	45640.45
609.06	44891.48
609.22	45464.91
609.37	44856.37
609.53	44903.18
609.68	44776.79
609.84	44879.77
609.99	45027.23
610.15	44631.68
610.30	44638.70
610.46	45195.74
610.61	45375.97
610.76	45705.98
610.92	45553.85
611.07	45724.71
611.23	45750.45
611.38	45619.38
611.54	45490.65
611.69	45055.31
611.84	44830.62
612.00	44465.50
612.15	44502.95
612.31	45088.08
612.46	44886.79
612.62	45104.46
612.77	45052.97
612.92	44968.71
613.08	44746.36
613.23	44727.64
613.39	45113.83
613.54	44498.26
613.69	44498.26
613.85	44561.46
614.00	44568.48
614.15	44364.85
614.31	44390.60
614.46	44535.71
614.62	44912.54
614.77	44694.87
614.92	44479.54
615.08	44168.25
615.23	44596.57
615.38	44069.95
615.54	44055.90
615.69	44304.00
615.84	43749.29
616.00	44107.40
616.15	43892.07
616.30	43976.33
616.46	44177.61
616.61	43922.49
616.76	44329.75
616.92	44023.14
617.07	44041.86
617.22	43903.77
617.37	43594.82
617.53	43966.96
617.68	43796.10
617.83	43995.05
617.99	43349.06
618.14	43267.14
618.29	44086.33
618.45	43491.83
618.60	43655.67
618.75	43620.56
618.90	43674.40
619.06	43531.62
619.21	44004.41
619.36	43791.42
619.51	43707.16
619.67	43213.31
619.82	43180.54
619.97	43735.25
620.12	43409.92
620.28	43187.56
620.43	43515.24
620.58	43763.34
620.73	43772.70
620.89	43917.81
621.04	43920.15
621.19	43377.15
621.34	43367.79
621.49	43309.27
621.65	43470.77
621.80	43311.61
621.95	42789.67
622.10	42761.59
622.25	43065.86
622.41	42845.85
622.56	42869.25
622.71	43515.24
622.86	43330.34
623.01	43026.07
623.16	43157.14
623.32	43126.71
623.47	43185.22
623.62	43253.10
623.77	42625.84
623.92	43070.54
624.07	42609.45
624.23	42944.15
624.38	43260.12
624.53	42995.64
624.68	42583.71
624.83	43000.32
624.98	42918.40
625.13	42536.90
625.29	42623.50
625.44	42864.57
625.59	42199.86
625.74	42480.72
625.89	42394.12
626.04	42389.44
626.19	42433.91
626.34	42202.20
626.49	42555.62
626.65	41841.76
626.80	42391.78
626.95	42171.77
627.10	41979.85
627.25	42581.37
627.40	41876.86
627.55	41888.57
627.70	41839.42
627.85	42192.84
628.00	42033.68
628.15	42143.69
628.30	42220.92
628.45	42462.00
628.60	41846.44
628.76	42349.65
628.91	41909.63
629.06	42078.15
629.21	42284.12
629.36	42155.39
629.51	41972.83
629.66	42029.00
629.81	42143.69
629.96	41345.56
630.11	41691.96
630.26	41717.71
630.41	42113.26
630.56	41799.63
630.71	42031.34
630.86	42199.86
631.01	41935.38
631.16	42225.60
631.31	41951.76
631.46	41446.21
631.61	42143.69
631.76	41762.18
631.91	41483.66
632.06	41588.98
632.21	41160.66
632.36	41340.88
632.51	40863.41
632.66	41170.02
632.81	41319.82
632.96	41399.40
633.10	41345.56
633.25	41127.89
633.40	41682.60
633.55	40975.76
633.70	41251.94
633.85	40964.06
634.00	40973.42
634.15	40985.12
634.30	41455.57
634.45	40978.10
634.60	41130.23
634.75	41209.81
634.90	40870.43
635.05	41223.86
635.19	40814.26
635.34	40957.03
635.49	41694.30
635.64	40975.76
635.79	40718.30
635.94	40971.08
636.09	40823.62
636.24	40641.06
636.39	40245.51
636.53	40730.00
636.68	40177.64
636.83	40914.90
636.98	41132.57
637.13	40418.71
637.28	41268.33
637.43	40961.72
637.57	41265.99
637.72	40580.21
637.87	40657.45
638.02	40886.82
638.17	40664.47
638.32	39978.69
638.46	40477.22
638.61	40381.26
638.76	40079.33
638.91	40058.27
639.06	40088.70
639.20	40582.55
639.35	40715.96
639.50	40329.77
639.65	40617.66
639.80	40339.13
639.94	39751.66
640.09	40308.71
640.24	40250.19
640.39	40027.84
640.54	39896.77
640.68	40364.88
640.83	39917.84
640.98	39894.43
641.13	39922.52
641.27	40224.45
641.42	39873.37
641.57	39999.76
641.72	40074.65
641.86	40076.99
642.01	39826.56
642.16	39714.21
642.31	39442.71
642.45	40149.55
642.60	39662.72
642.75	39559.73
642.90	39482.50
643.04	39536.33
643.19	39227.38
643.34	39489.52
643.48	39559.73
643.63	39784.43
643.78	39330.36
643.93	39871.03
644.07	39564.42
644.22	39529.31
644.37	39306.96
644.51	39690.80
644.66	39569.10
644.81	39225.04
644.95	39187.59
645.10	39295.25
645.25	39330.36
645.39	39365.47
645.54	39885.07
645.69	39213.34
645.83	39150.14
645.98	39393.56
646.13	39269.51
646.27	39313.98
646.42	39292.91
646.57	39232.06
646.71	38787.36
646.86	39285.89
647.00	39323.34
647.15	39196.95
647.30	38906.73
647.44	38843.53
647.59	39182.91
647.74	38892.68
647.88	39065.88
648.03	39138.44
648.17	39304.62
648.32	39215.68
648.47	39255.46
648.61	38976.94
648.76	38967.58
648.90	38639.90
649.05	38829.49
649.20	39019.07
649.34	38960.56
649.49	38382.45
649.63	38557.99
649.78	38944.17
649.92	38305.21
650.07	39044.82
650.21	38581.39
650.36	38396.49
650.51	38787.36
650.65	39264.83
650.80	38733.53
650.94	38567.35
651.09	38295.85
651.23	38010.30
651.38	38487.77
651.52	38398.83
651.67	38022.00
651.81	38466.70
651.96	38326.27
652.10	38323.93
652.25	38403.51
652.39	38567.35
652.54	38815.44
652.68	38447.98
652.83	38150.73
652.97	38391.81
653.12	38052.43
653.26	38295.85
653.41	38139.03
653.55	38431.60
653.70	37900.29
653.84	37982.21
653.99	38197.54
654.13	38127.33
654.27	37675.60
654.42	37998.60
654.56	38010.30
654.71	38012.64
654.85	37869.87
655.00	38117.96
655.14	37689.65
655.29	37581.98
655.43	37589.00
655.57	38010.30
655.72	37757.52
655.86	37237.92
656.01	37092.81
656.15	37216.86
656.30	37221.54
656.44	37476.66
656.58	37336.23
656.73	37680.28
656.87	37242.60
657.01	37544.53
657.16	37738.80
657.30	37670.92
657.45	37706.03
657.59	37317.50
657.73	37455.59
657.88	37139.62
658.02	37258.99
658.16	37184.09
658.31	36957.06
658.45	36781.52
658.60	36814.29
658.74	36833.01
658.88	36603.64
659.03	37078.77
659.17	36807.26
659.31	37174.73
659.46	37287.07
659.60	37572.62
659.74	37268.35
659.89	36793.22
660.03	36765.14
660.17	37287.07
660.32	36795.56
660.46	36685.56
660.60	36025.53
660.74	36458.52
660.89	36547.47
661.03	36067.66
661.17	36753.43
661.32	36233.83
661.46	36247.88
661.60	36161.28
661.74	36645.77
661.89	36528.74
662.03	36783.86
662.17	36540.44
662.31	36369.58
662.46	35634.66
662.60	35859.35
662.74	35859.35
662.88	35587.85
663.03	35384.22
663.17	35562.10
663.31	35407.62
663.45	35707.21
663.60	35772.75
663.74	35569.12
663.88	35360.81
664.02	35693.17
664.17	35845.30
664.31	35306.98
664.45	34927.81
664.59	35405.28
664.73	35253.15
664.88	34923.13
665.02	34911.43
665.16	34775.68
665.30	35033.14
665.44	35112.72
665.59	34536.94
665.73	34712.49
665.87	34679.72
666.01	34869.30
666.15	34857.60
666.29	34534.60
666.44	34581.42
666.58	34827.17
666.72	34478.43
666.86	34796.74
667.00	34639.93
667.14	34419.92
667.28	34422.26
667.43	34440.98
667.57	34148.42
667.71	34448.00
667.85	34036.07
667.99	33839.47
668.13	33605.41
668.27	34052.45
668.41	34319.28
668.56	34157.78
668.70	34492.47
668.84	34003.30
668.98	33862.87
669.12	34045.43
669.26	33944.79
669.40	33668.61
669.54	34223.31
669.68	33837.12
669.82	33284.76
669.96	33479.02
670.10	32980.49
670.25	33509.45
670.39	33053.05
670.53	33209.86
670.67	33209.86
670.81	33156.03
670.95	32980.49
671.09	33106.88
671.23	33024.96
671.37	33167.73
671.51	33647.54
671.65	32954.74
671.79	33156.03
671.93	32535.79
672.07	32891.55
672.21	32783.88
672.35	32535.79
672.49	32568.55
672.63	31957.67
672.77	32341.52
672.91	32210.45
673.05	32252.58
673.19	31943.63
673.33	32290.03
673.47	32224.50
673.61	32350.88
673.75	32177.68
673.89	32304.07
674.03	31913.20
674.17	32095.77
674.31	31751.71
674.45	31882.78
674.59	31906.18
674.73	31859.37
674.87	31449.78
675.01	31454.46
675.15	31049.55
675.29	31091.68
675.43	31220.41
675.56	31454.46
675.70	31159.55
675.84	31171.25
675.98	30668.04
676.12	30845.92
676.26	30871.67
676.40	30904.43
676.54	30920.82
676.68	30738.26
676.82	30305.26
676.96	30567.40
677.10	30031.41
677.23	29905.02
677.37	30101.63
677.51	29937.79
677.65	30164.82
677.79	30106.31
677.93	29563.31
678.07	29916.73
678.21	29340.96
678.34	29401.81
678.48	29528.20
678.62	29521.18
678.76	29193.50
678.90	29104.56
679.04	28950.09
679.18	29027.32
679.31	28868.17
679.45	28599.01
679.59	28528.79
679.73	28678.58
679.87	28400.06
680.00	28341.55
680.14	28168.35
680.28	28301.76
680.42	28210.48
680.56	28002.17
680.70	28156.64
680.83	28325.16
680.97	27662.79
681.11	28180.05
681.25	28065.36
681.39	27323.41
681.52	27482.57
681.66	27828.97
681.80	27681.52
681.94	27594.92
682.07	27213.41
682.21	27159.58
682.35	26815.52
682.49	26986.38
682.62	26565.08
682.76	26686.79
682.90	26654.02
683.04	26752.32
683.17	26764.03
683.31	26302.94
683.45	26965.31
683.59	26384.86
683.72	26260.81
683.86	26228.04
684.00	26366.13
684.13	26211.66
684.27	25898.03
684.41	26195.28
684.55	25783.34
684.68	25537.59
684.82	25458.01
684.96	24996.92
685.09	25453.33
685.23	25013.31
685.37	25230.98
685.50	25507.16
685.64	25088.20
685.78	24833.08
685.91	25156.08
686.05	24950.11
686.19	24652.86
686.32	24959.47
686.46	24624.78
686.60	24411.79
686.73	24755.85
686.87	24414.13
687.01	24779.25
687.14	24229.23
687.28	24231.57
687.42	24301.78
687.55	23789.20
687.69	24004.53
687.82	23819.63
687.96	23814.95
688.10	23637.07
688.23	23674.52
688.37	23522.38
688.50	23513.02
688.64	23517.70
688.78	23161.94
688.91	23391.31
689.05	22925.55
689.18	22867.03
689.32	22490.21
689.46	22663.41
689.59	23215.77
689.73	22754.69
689.86	22445.74
690.00	22532.34
690.13	22534.68
690.27	22319.35
690.41	22429.35
690.54	22256.15
690.68	22302.96
690.81	22001.04
690.95	22225.73
691.08	22249.13
691.22	22265.52
691.35	21781.03
691.49	21649.96
691.62	21741.24
691.76	21722.51
691.89	21640.59
692.03	21380.79
692.16	21092.91
692.30	21312.92
692.43	21326.96
692.57	21120.99
692.70	21095.25
692.84	21104.61
692.97	20854.17
693.11	21188.87
693.24	20697.36
693.38	20760.55
693.51	20709.06
693.65	20898.64
693.78	20711.40
693.92	20500.75
694.05	20357.98
694.19	19997.54
694.32	20299.47
694.45	20032.65
694.59	19789.23
694.72	19653.48
694.86	19761.14
694.99	19475.60
695.13	19719.01
695.26	19690.93
695.39	19304.74
695.53	19405.38
695.66	19676.88
695.80	19360.91
695.93	19489.64
696.07	19180.69
696.20	19232.18
696.33	19206.44
696.47	18661.09
696.60	18738.33
696.73	18623.64
696.87	18532.36
697.00	18403.63
697.14	18281.92
697.27	18302.99
697.40	18382.57
697.54	18155.54
697.67	17914.46
697.80	17984.68
697.94	17816.16
698.07	17823.18
698.21	18101.70
698.34	17834.88
698.47	18054.89
698.61	17771.69
698.74	17647.64
698.87	17652.32
699.01	17722.54
699.14	17422.95
699.27	17235.70
699.40	17303.58
699.54	17160.81
699.67	17097.61
699.80	17050.80
699.94	16685.68
700.07	16891.65
700.20	16917.39
700.34	16730.15
700.47	16624.83
700.60	16720.79
700.73	16748.87
700.87	16493.76
701.00	16142.67
701.13	16365.03
701.26	16379.07
701.40	16051.39
701.53	15939.05
701.66	16135.65
701.79	15817.34
701.93	15882.88
702.06	15934.37
702.19	15754.15
702.32	15712.02
702.46	15655.84
702.59	15140.93
702.72	15152.63
702.85	15447.54
702.99	15515.41
703.12	14923.26
703.25	15180.71
703.38	15096.46
703.51	15150.29
703.65	14979.43
703.78	15073.05
703.91	15246.25
704.04	14752.40
704.17	14813.25
704.31	14841.34
704.44	14799.21
704.57	14707.93
704.70	14932.62
704.83	14518.34
704.96	14513.66
705.10	14017.47
705.23	14038.53
>>>>>End Processed Spectral Data<<<<<
