SpectraSuite Data File
++++++++++++++++++++++++++++++++++++
Date: Fri Oct 04 11:39:39 GMT-05:00 2013
User: price-jones
Dark Spectrum Present: No
Reference Spectrum Present: No
Number of Sampled Component Spectra: 1
Spectrometers: USB2+H05261
Integration Time (usec): 100000 (USB2+H05261)
Spectra Averaged: 1 (USB2+H05261)
Boxcar Smoothing: 0 (USB2+H05261)
Correct for Electrical Dark: No (USB2+H05261)
Strobe/Lamp Enabled: No (USB2+H05261)
Correct for Detector Non-linearity: No (USB2+H05261)
Correct for Stray Light: No (USB2+H05261)
Number of Pixels in Processed Spectrum: 2048
>>>>>Begin Processed Spectral Data<<<<<
365.73	98.30
365.92	98.30
366.12	98.30
366.32	0.00
366.52	0.00
366.72	0.00
366.91	0.00
367.11	0.00
367.31	0.00
367.51	0.00
367.70	0.00
367.90	4.68
368.10	0.00
368.30	0.00
368.49	0.00
368.69	0.00
368.89	0.00
369.09	0.00
369.28	9.36
369.48	51.49
369.68	9.36
369.87	72.56
370.07	0.00
370.27	7.02
370.47	105.32
370.66	273.84
370.86	360.44
371.06	346.40
371.25	393.21
371.45	304.27
371.65	444.70
371.84	339.38
372.04	390.87
372.24	376.83
372.44	416.62
372.63	362.78
372.83	514.92
373.03	362.78
373.22	404.91
373.42	463.43
373.62	402.57
373.81	447.04
374.01	505.56
374.21	458.74
374.40	486.83
374.60	500.87
374.79	482.15
374.99	477.47
375.19	472.79
375.38	428.32
375.58	484.49
375.78	456.40
375.97	484.49
376.17	603.86
376.37	521.94
376.56	440.02
376.76	486.83
376.95	482.15
377.15	423.64
377.35	517.26
377.54	493.85
377.74	493.85
377.93	503.22
378.13	484.49
378.33	493.85
378.52	510.24
378.72	571.09
378.91	585.13
379.11	568.75
379.31	557.05
379.50	543.00
379.70	587.47
379.89	561.73
380.09	601.52
380.28	564.07
380.48	531.30
380.68	617.90
380.87	592.16
381.07	608.54
381.26	671.73
381.46	550.03
381.65	573.43
381.85	620.24
382.04	585.13
382.24	559.39
382.43	613.22
382.63	645.99
382.83	554.71
383.02	683.44
383.22	599.18
383.41	664.71
383.61	669.39
383.80	601.52
384.00	613.22
384.19	653.01
384.39	690.46
384.58	758.33
384.78	676.41
384.97	674.07
385.17	578.11
385.36	627.26
385.56	648.33
385.75	674.07
385.95	674.07
386.14	709.18
386.34	645.99
386.53	697.48
386.72	716.20
386.92	772.38
387.11	718.54
387.31	765.36
387.50	741.95
387.70	723.23
387.89	793.44
388.09	737.27
388.28	751.31
388.48	758.33
388.67	793.44
388.86	830.89
389.06	788.76
389.25	753.65
389.45	793.44
389.64	800.46
389.84	849.61
390.03	849.61
390.22	894.08
390.42	821.53
390.61	758.33
390.81	791.10
391.00	788.76
391.19	837.91
391.39	868.34
391.58	877.70
391.78	851.96
391.97	933.87
392.16	854.30
392.36	973.66
392.55	957.28
392.75	919.83
392.94	917.49
393.13	999.41
393.33	936.21
393.52	933.87
393.71	994.73
393.91	952.60
394.10	898.77
394.29	950.26
394.49	983.02
394.68	1041.54
394.88	1013.45
395.07	1050.90
395.26	1067.28
395.46	1043.88
395.65	1001.75
395.84	1057.92
396.04	1083.67
396.23	1039.20
396.42	1128.14
396.62	1158.57
396.81	1121.12
397.00	1090.69
397.19	1114.10
397.39	1083.67
397.58	1167.93
397.77	1139.84
397.97	1177.29
398.16	1217.08
398.35	1252.19
398.55	1200.69
398.74	1167.93
398.93	1301.34
399.12	1198.35
399.32	1153.88
399.51	1170.27
399.70	1310.70
399.90	1277.93
400.09	1217.08
400.28	1315.38
400.47	1357.51
400.67	1390.28
400.86	1357.51
401.05	1420.71
401.24	1380.92
401.44	1341.13
401.63	1357.51
401.82	1399.64
402.01	1357.51
402.21	1317.72
402.40	1446.45
402.59	1430.07
402.78	1455.81
402.97	1359.85
403.17	1488.58
403.36	1547.09
403.55	1561.14
403.74	1596.25
403.93	1593.90
404.13	1535.39
404.32	1610.29
404.51	1605.61
404.70	1696.89
404.89	1643.06
405.09	1666.46
405.28	1715.61
405.47	1600.93
405.66	1734.34
405.85	1673.48
406.05	1689.87
406.24	1717.95
406.43	1680.50
406.62	1870.09
406.81	1783.49
407.00	1895.83
407.20	1834.98
407.39	1823.28
407.58	1954.35
407.77	1863.07
407.96	1888.81
408.15	1902.86
408.34	1790.51
408.54	1837.32
408.73	1937.96
408.92	1928.60
409.11	2036.27
409.30	1970.73
409.49	2012.86
409.68	1952.01
409.87	1994.14
410.07	2155.63
410.26	2040.95
410.45	2073.71
410.64	2043.29
410.83	2176.70
411.02	2097.12
411.21	2204.78
411.40	2314.79
411.59	2298.41
411.78	2286.70
411.98	2179.04
412.17	2413.09
412.36	2338.20
412.55	2581.61
412.74	2457.56
412.93	2490.33
413.12	2499.69
413.31	2647.15
413.50	2509.05
413.69	2497.35
413.88	2640.12
414.07	2630.76
414.26	2722.04
414.45	2640.12
414.64	2628.42
414.83	2925.67
415.02	2663.53
415.22	2843.75
415.41	2775.88
415.60	2726.72
415.79	2963.12
415.98	3045.04
416.17	3042.70
416.36	2822.69
416.55	2995.89
416.74	2899.92
416.93	3077.80
417.12	3080.14
417.31	3054.40
417.50	3138.66
417.69	3274.41
417.88	3204.19
418.07	3143.34
418.26	3260.37
418.45	3155.04
418.64	3419.52
418.83	3321.22
419.02	3279.09
419.21	3442.93
419.39	3426.54
419.58	3389.10
419.77	3281.43
419.96	3559.95
420.15	3454.63
420.34	3492.08
420.53	3609.11
420.72	3550.59
420.91	3529.53
421.10	3574.00
421.29	3618.47
421.48	3513.14
421.67	3651.24
421.86	3478.04
422.05	3674.64
422.24	3686.34
422.43	3630.17
422.61	3674.64
422.80	3889.97
422.99	3847.84
423.18	3765.92
423.37	3772.94
423.56	3922.74
423.75	3871.25
423.94	3674.64
424.13	3517.83
424.32	3705.07
424.50	3904.01
424.69	3805.71
424.88	3892.31
425.07	3758.90
425.26	3747.20
425.45	3786.99
425.64	3681.66
425.83	3889.97
426.01	3957.85
426.20	3906.35
426.39	3796.35
426.58	3770.60
426.77	3854.86
426.96	3887.63
427.15	3852.52
427.33	3922.74
427.52	3913.38
427.71	3894.65
427.90	4102.96
428.09	4140.41
428.28	4091.26
428.46	4119.34
428.65	4065.51
428.84	4262.12
429.03	4280.84
429.22	4021.04
429.40	4187.22
429.59	4306.59
429.78	4084.23
429.97	3992.95
430.16	4229.35
430.34	4266.80
430.53	4332.33
430.72	4409.57
430.91	4276.16
431.10	4404.89
431.28	4416.59
431.47	4454.04
431.66	4447.02
431.85	4440.00
432.03	4512.55
432.22	4528.94
432.41	4491.49
432.60	4571.07
432.79	4491.49
432.97	4699.80
433.16	4667.03
433.35	4592.13
433.54	4660.01
433.72	4681.07
433.91	4652.98
434.10	4699.80
434.28	4578.09
434.47	4732.56
434.66	4781.71
434.85	4727.88
435.03	4990.02
435.22	5160.88
435.41	5249.82
435.59	5273.23
435.78	5039.17
435.97	4957.25
436.16	4971.30
436.34	5008.75
436.53	5137.48
436.72	5083.64
436.90	5060.24
437.09	5118.75
437.28	5034.49
437.46	4938.53
437.65	5104.71
437.84	5163.22
438.02	5160.88
438.21	5224.08
438.40	5186.63
438.58	5249.82
438.77	5320.04
438.96	5128.11
439.14	5441.75
439.33	5352.81
439.52	5540.05
439.70	5399.62
439.89	5650.05
440.08	5652.39
440.26	5614.95
440.45	5638.35
440.63	5671.12
440.82	5748.36
441.01	5736.65
441.19	5769.42
441.38	5968.37
441.57	5973.05
441.75	5963.68
441.94	5935.60
442.12	5942.62
442.31	6139.23
442.50	6125.18
442.68	6085.39
442.87	6108.80
443.05	6157.95
443.24	6293.70
443.43	6296.04
443.61	6303.06
443.80	6394.34
443.98	6272.64
444.17	5989.43
444.35	6267.95
444.54	6377.96
444.73	6471.58
444.91	6291.36
445.10	6232.85
445.28	6314.77
445.47	6251.57
445.65	6347.53
445.84	6422.43
446.02	6331.15
446.21	6335.83
446.39	6289.02
446.58	6392.00
446.77	6370.94
446.95	6436.47
447.14	6384.98
447.32	6324.13
447.51	6377.96
447.69	6478.60
447.88	6663.51
448.06	6403.71
448.25	6532.44
448.43	6511.37
448.62	6272.64
448.80	6450.52
448.99	6633.08
449.17	6677.55
449.36	6502.01
449.54	6693.93
449.73	6743.08
449.91	6808.62
450.10	6740.74
450.28	6899.90
450.46	6904.58
450.65	6853.09
450.83	6944.37
451.02	7030.97
451.20	6942.03
451.39	6792.23
451.57	6869.47
451.76	6993.52
451.94	7056.72
452.13	6857.77
452.31	7187.79
452.49	7014.59
452.68	7005.22
452.86	6995.86
453.05	7185.44
453.23	7087.14
453.42	7117.57
453.60	7211.19
453.78	7091.82
453.97	7119.91
454.15	7110.55
454.34	7211.19
454.52	7417.16
454.70	7363.33
454.89	7351.62
455.07	7323.54
455.26	7487.37
455.44	7445.24
455.62	7550.57
455.81	7510.78
455.99	7435.88
456.17	7541.21
456.36	7667.60
456.54	7616.10
456.73	7801.01
456.91	7873.56
457.09	7660.57
457.28	7939.10
457.46	7824.41
457.64	7964.84
457.83	7801.01
458.01	7669.94
458.19	8325.29
458.38	7885.26
458.56	8004.63
458.74	8072.51
458.93	8128.68
459.11	8273.79
459.29	8198.90
459.48	8257.41
459.66	8252.73
459.84	8210.60
460.03	8360.39
460.21	8304.22
460.39	8091.23
460.57	8280.82
460.76	8208.26
460.94	8334.65
461.12	8381.46
461.31	8418.91
461.49	8503.17
461.67	8222.30
461.85	8617.85
462.04	8540.61
462.22	8737.22
462.40	8713.81
462.59	8451.67
462.77	8798.07
462.95	8716.16
463.13	8945.53
463.32	8800.41
463.50	8709.13
463.68	8795.73
463.86	8727.86
464.05	8648.28
464.23	8809.78
464.41	8929.14
464.59	8535.93
464.78	9167.88
464.96	8987.66
465.14	8814.46
465.32	9097.66
465.50	9151.49
465.69	9109.36
465.87	9188.94
466.05	8847.22
466.23	9041.49
466.41	9109.36
466.60	9535.34
466.78	9111.71
466.96	9085.96
467.14	9085.96
467.32	9139.79
467.51	9362.14
467.69	9034.47
467.87	9247.46
468.05	9364.48
468.23	9111.71
468.41	9303.63
468.60	9399.59
468.78	9516.62
468.96	9303.63
469.14	9591.52
469.32	9689.82
469.50	9233.41
469.69	9710.88
469.87	9778.76
470.05	9823.23
470.23	9598.54
470.41	9790.46
470.59	9872.38
470.77	9708.54
470.95	9762.37
471.14	10270.27
471.32	9818.55
471.50	10186.01
471.68	10274.95
471.86	10298.36
472.04	9996.43
472.22	10209.42
472.40	10204.74
472.58	10347.51
472.77	10277.29
472.95	10347.51
473.13	10986.47
473.31	10452.83
473.49	10590.92
473.67	10410.70
473.85	10586.24
474.03	10829.66
474.21	10583.90
474.39	11028.60
474.57	10930.30
474.75	11101.16
474.93	11140.95
475.12	10920.94
475.30	11147.97
475.48	11028.60
475.66	11204.14
475.84	11316.49
476.02	11477.99
476.20	11325.85
476.38	11489.69
476.56	11868.86
476.74	11793.96
476.92	11735.45
477.10	11733.11
477.28	11749.49
477.46	11831.41
477.64	12238.66
477.82	12229.30
478.00	12566.34
478.18	12479.74
478.36	12784.01
478.54	12608.47
478.72	12592.08
478.90	12985.29
479.08	13013.38
479.26	12996.99
479.44	13254.45
479.62	13151.47
479.80	13362.12
479.98	13156.15
480.16	13390.20
480.34	13422.97
480.52	13771.71
480.70	13757.67
480.88	13455.74
481.06	13490.85
481.24	13708.52
481.41	14253.86
481.59	14068.96
481.77	14249.18
481.95	14267.91
482.13	14637.71
482.31	14590.90
482.49	14747.72
482.67	14890.49
482.85	15096.46
483.03	15232.21
483.21	15279.02
483.39	15492.01
483.57	15084.75
483.74	15524.77
483.92	15810.32
484.10	15676.91
484.28	15960.11
484.46	16334.60
484.64	16456.31
484.82	15957.77
485.00	16290.13
485.18	16393.11
485.35	16964.20
485.53	16713.77
485.71	16919.73
485.89	17352.73
486.07	17322.30
486.25	17502.53
486.43	17174.85
486.61	17586.79
486.78	17657.00
486.96	17673.39
487.14	18480.87
487.32	18244.48
487.50	17877.01
487.68	18118.09
487.85	18581.51
488.03	18764.07
488.21	19126.86
488.39	19133.88
488.57	19260.27
488.75	19023.87
488.92	19639.44
489.10	19719.01
489.28	19765.82
489.46	20044.35
489.64	19737.74
489.81	20023.28
489.99	20049.03
490.17	20362.66
490.35	20645.87
490.53	20503.09
490.70	20812.04
490.88	20695.02
491.06	20821.41
491.24	20919.71
491.41	21106.95
491.59	21429.94
491.77	21418.24
491.95	21596.12
492.13	21685.06
492.30	21965.93
492.48	21942.52
492.66	22157.85
492.84	22001.04
493.01	22260.84
493.19	22401.27
493.37	22530.00
493.54	22579.15
493.72	22742.99
493.90	22764.05
494.08	23133.86
494.25	23250.88
494.43	23243.86
494.61	23356.21
494.79	23798.57
494.96	24037.30
495.14	23913.25
495.32	24119.22
495.49	24070.07
495.67	24304.12
495.85	24372.00
496.02	24812.02
496.20	24678.61
496.38	24680.95
496.55	24556.90
496.73	25479.07
496.91	24978.20
497.09	24964.15
497.26	25443.96
497.44	25553.97
497.62	25872.28
497.79	25715.47
497.97	25851.22
498.14	26221.02
498.32	25816.11
498.50	26307.62
498.67	26691.47
498.85	26597.85
499.03	26618.91
499.20	27147.87
499.38	26611.89
499.56	26920.84
499.73	27152.55
499.91	27229.79
500.08	27407.67
500.26	27054.25
500.44	27094.04
500.61	27686.20
500.79	27494.27
500.97	27592.58
501.14	28009.19
501.32	28205.80
501.49	27665.13
501.67	28128.56
501.84	27992.81
502.02	28173.03
502.20	28362.61
502.37	28442.19
502.55	28379.00
502.72	28535.81
502.90	28603.69
503.07	28489.00
503.25	28865.83
503.43	29088.18
503.60	29032.00
503.78	29046.05
503.95	29024.98
504.13	29518.84
504.30	29490.75
504.48	29408.83
504.65	29846.51
504.83	29481.39
505.01	30118.01
505.18	29741.19
505.36	30169.51
505.53	29685.01
505.71	30192.91
505.88	30291.21
506.06	30370.79
506.23	30639.95
506.41	30267.81
506.58	30691.44
506.76	30742.94
506.93	30778.04
507.11	30377.81
507.28	30939.54
507.46	31056.57
507.63	30859.96
507.81	31166.57
507.98	31246.15
508.16	30976.99
508.33	31122.10
508.50	31475.52
508.68	31208.70
508.85	31557.44
509.03	31707.24
509.20	31821.92
509.38	32177.68
509.55	32402.38
509.73	32638.77
509.90	32278.33
510.08	32245.56
510.25	32297.05
510.42	32671.54
510.60	33312.84
510.77	32751.12
510.95	32790.91
511.12	32596.64
511.30	32959.42
511.47	33254.33
511.64	33202.84
511.82	33266.03
511.99	33457.96
512.17	33298.80
512.34	33116.24
512.51	34113.31
512.69	33820.74
512.86	34120.33
513.04	34064.16
513.21	33930.75
513.38	34099.26
513.56	34258.42
513.73	33930.75
513.90	34513.54
514.08	34043.09
514.25	34256.08
514.43	34550.99
514.60	34646.95
514.77	34511.20
514.95	34953.56
515.12	34955.90
515.29	34515.88
515.47	34937.18
515.64	34983.99
515.81	35086.97
515.99	35445.07
516.16	35634.66
516.33	35491.88
516.51	35519.97
516.68	35400.60
516.85	35360.81
517.03	35849.99
517.20	36079.36
517.37	36058.29
517.54	36297.03
517.72	35906.16
517.89	35487.20
518.06	36114.47
518.24	35943.61
518.41	36418.74
518.58	36554.49
518.75	36423.42
518.93	36683.22
519.10	36311.07
519.27	36732.37
519.45	36648.11
519.62	36488.95
519.79	36563.85
519.96	36821.31
520.14	37099.83
520.31	36697.26
520.48	36964.08
520.65	37249.63
520.83	37317.50
521.00	37251.97
521.17	37336.23
521.34	37481.34
521.52	38005.62
521.69	37706.03
521.86	37755.18
522.03	37968.17
522.20	38080.52
522.38	37771.57
522.55	37947.11
522.72	37670.92
522.89	38597.77
523.07	38202.22
523.24	38457.34
523.41	38480.75
523.58	38223.29
523.75	38841.19
523.92	38422.23
524.10	38389.47
524.27	38518.20
524.44	38780.34
524.61	38927.79
524.78	38918.43
524.96	38742.89
525.13	38990.98
525.30	39021.41
525.47	39449.73
525.64	39213.34
525.81	39206.31
525.98	39805.49
526.16	39306.96
526.33	39386.54
526.50	39679.10
526.67	38965.24
526.84	39491.86
527.01	39779.74
527.18	39840.60
527.36	39777.40
527.53	40257.21
527.70	40388.28
527.87	40240.83
528.04	40044.23
528.21	40493.61
528.38	40149.55
528.55	40294.66
528.72	40187.00
528.89	40430.41
529.07	40278.28
529.24	40184.66
529.41	40589.57
529.58	40287.64
529.75	40435.10
529.92	40446.80
530.09	40739.36
530.26	40751.07
530.43	40507.65
530.60	40844.69
530.77	40755.75
530.94	41261.30
531.11	40797.88
531.28	41184.07
531.46	41146.62
531.63	41633.45
531.80	41284.71
531.97	41488.34
532.14	41441.53
532.31	41188.75
532.48	41361.95
532.65	41832.39
532.82	41617.07
532.99	41560.89
533.16	41549.19
533.33	42080.49
533.50	42174.11
533.67	42288.80
533.84	41911.97
534.01	42253.69
534.18	41427.48
534.35	42068.79
534.52	42078.15
534.69	42471.36
534.86	42370.72
535.03	41949.42
535.20	42485.40
535.37	42572.00
535.54	42616.47
535.71	42211.56
535.88	42178.79
536.05	42241.99
536.22	42501.79
536.38	43236.72
536.55	42754.57
536.72	42817.76
536.89	42885.64
537.06	42555.62
537.23	42880.95
537.40	42920.74
537.57	42789.67
537.74	43030.75
537.91	43419.28
538.08	43098.62
538.25	43487.15
538.42	43014.37
538.59	43405.23
538.75	42665.63
538.92	43199.27
539.09	43524.60
539.26	43700.14
539.43	43468.43
539.60	43627.59
539.77	43889.73
539.94	44109.74
540.11	43658.01
540.28	43819.51
540.44	43690.78
540.61	43871.00
540.78	44203.36
540.95	44201.02
541.12	44247.83
541.29	44081.65
541.46	44336.77
541.62	44814.24
541.79	44226.76
541.96	44072.29
542.13	44348.47
542.30	44421.03
542.47	44746.36
542.63	44432.73
542.80	44945.31
542.97	45116.17
543.14	45095.10
543.31	44905.52
543.48	44996.80
543.64	45092.76
543.81	45333.84
543.98	45338.52
544.15	45710.66
544.32	45242.56
544.48	45567.89
544.65	44959.35
544.82	44849.35
544.99	44933.60
545.16	45464.91
545.32	45734.07
545.49	45918.97
545.66	46562.62
545.83	46162.39
546.00	46394.10
546.16	45680.24
546.33	46003.23
546.50	45123.19
546.67	45570.23
546.83	45312.77
547.00	45490.65
547.17	45312.77
547.34	45813.65
547.50	45759.81
547.67	46244.30
547.84	45914.29
548.00	46024.29
548.17	46330.90
548.34	46227.92
548.51	46122.60
548.67	46272.39
548.84	46073.45
549.01	46078.13
549.18	46113.23
549.34	45930.67
549.51	46036.00
549.68	46216.22
549.84	45769.18
550.01	46108.55
550.18	45668.53
550.34	46478.36
550.51	46230.26
550.68	46007.91
550.84	46373.03
551.01	46808.37
551.18	45764.49
551.34	46253.67
551.51	46248.99
551.68	46536.87
551.84	46408.14
552.01	46108.55
552.18	46501.76
552.34	46342.61
552.51	46981.57
552.68	46527.51
552.84	46618.79
553.01	46667.94
553.18	46754.54
553.34	46782.63
553.51	46740.50
553.67	46773.27
553.84	47136.05
554.01	47428.62
554.17	47182.86
554.34	46871.57
554.51	46724.11
554.67	46899.65
554.84	46939.44
555.00	47374.78
555.17	46766.24
555.33	46810.71
555.50	47201.58
555.67	46939.44
555.83	47047.11
556.00	46768.58
556.16	47681.39
556.33	46920.72
556.50	47119.66
556.66	46932.42
556.83	47089.24
556.99	47555.00
557.16	47674.37
557.32	47241.37
557.49	47402.87
557.65	47084.56
557.82	46843.48
557.98	47260.10
558.15	47035.41
558.32	47557.35
558.48	47416.91
558.65	47585.43
558.81	47442.66
558.98	47789.06
559.14	47508.19
559.31	47239.03
559.47	47992.68
559.64	47962.26
559.80	47878.00
559.97	47512.88
560.13	47517.56
560.30	47402.87
560.46	47730.54
560.63	47854.59
560.79	47700.12
560.96	48002.05
561.12	47992.68
561.29	47185.20
561.45	47835.87
561.61	48027.79
561.78	47980.98
561.94	47882.68
562.11	47819.49
562.27	47540.96
562.44	47547.98
562.60	48011.41
562.77	47653.31
562.93	47721.18
563.10	48046.52
563.26	47800.76
563.42	48257.17
563.59	48011.41
563.75	47959.92
563.92	48039.50
564.08	47969.28
564.24	47690.76
564.41	47803.10
564.57	47758.63
564.74	47927.15
564.90	48219.72
565.07	48236.10
565.23	48271.21
565.39	47995.03
565.56	47999.71
565.72	47821.83
565.88	48048.86
566.05	48240.78
566.21	48039.50
566.38	47763.31
566.54	48463.13
566.70	48315.68
566.87	48608.25
567.03	48133.12
567.19	48463.13
567.36	48140.14
567.52	47959.92
567.68	48264.19
567.85	47777.36
568.01	48002.05
568.17	48044.18
568.34	48327.38
568.50	48322.70
568.66	47995.03
568.83	48121.41
568.99	48327.38
569.15	48175.25
569.32	48229.08
569.48	48037.16
569.64	48137.80
569.81	48006.73
569.97	48109.71
570.13	48107.37
570.30	48030.13
570.46	48390.58
570.62	48107.37
570.78	48208.01
570.95	47908.43
571.11	48196.31
571.27	47648.63
571.43	48002.05
571.60	48334.40
571.76	48030.13
571.92	48601.22
572.09	48566.12
572.25	48523.99
572.41	48289.93
572.57	48486.54
572.74	48596.54
572.90	48278.23
573.06	48200.99
573.22	48397.60
573.38	48423.34
573.55	48444.41
573.71	48851.66
573.87	48863.36
574.03	47817.14
574.20	48474.84
574.36	47863.96
574.52	48641.01
574.68	48435.05
574.84	48301.64
575.01	48423.34
575.17	48554.41
575.33	48229.08
575.49	48336.74
575.65	48753.36
575.82	48526.33
575.98	48126.10
576.14	48708.89
576.30	48776.76
576.46	48299.30
576.62	48531.01
576.79	48360.15
576.95	48456.11
577.11	48769.74
577.27	48240.78
577.43	48236.10
577.59	48322.70
577.75	48233.76
577.92	48275.89
578.08	48439.73
578.24	48296.95
578.40	48507.60
578.56	48233.76
578.72	48456.11
578.88	48664.42
579.04	48659.74
579.21	48556.75
579.37	48612.93
579.53	48093.33
579.69	48364.83
579.85	48495.90
580.01	48044.18
580.17	48596.54
580.33	48051.20
580.49	48589.52
580.65	48706.55
580.82	48666.76
580.98	48470.15
581.14	48383.55
581.30	48257.17
581.46	48252.48
581.62	48079.28
581.78	47980.98
581.94	48425.68
582.10	48507.60
582.26	48208.01
582.42	48694.85
582.58	48622.29
582.74	48547.39
582.90	48739.32
583.06	48720.59
583.22	48200.99
583.38	48479.52
583.54	48516.96
583.70	48233.76
583.86	48512.28
584.02	48287.59
584.18	48343.77
584.34	48397.60
584.50	48886.77
584.66	48250.14
584.82	48488.88
584.98	48538.03
585.14	48123.75
585.30	48411.64
585.46	48378.87
585.62	48114.39
585.78	48877.41
585.94	48301.64
586.10	48655.06
586.26	48456.11
586.42	48570.80
586.58	48671.44
586.74	48399.94
586.90	48554.41
587.06	48275.89
587.22	48449.09
587.38	48413.98
587.54	48481.86
587.70	48727.61
587.86	48711.23
588.02	48502.92
588.18	48718.25
588.34	48701.87
588.49	48629.31
588.65	48392.92
588.81	48526.33
588.97	48512.28
589.13	48479.52
589.29	48687.82
589.45	48774.42
589.61	48486.54
589.77	48734.63
589.93	48832.94
590.08	48973.37
590.24	48722.93
590.40	48687.82
590.56	48582.50
590.72	48832.94
590.88	48638.67
591.04	48549.73
591.20	49141.89
591.35	48818.89
591.51	49020.18
591.67	48980.39
591.83	48699.53
591.99	48758.04
592.15	48945.28
592.31	48842.30
592.46	48898.47
592.62	48451.43
592.78	48116.73
592.94	48690.16
593.10	48619.95
593.26	48952.30
593.41	48687.82
593.57	48697.19
593.73	48811.87
593.89	49106.78
594.05	48605.91
594.20	48301.64
594.36	48865.70
594.52	48807.19
594.68	48512.28
594.84	48451.43
594.99	48624.63
595.15	48404.62
595.31	49298.70
595.47	48411.64
595.62	48978.05
595.78	48299.30
595.94	48680.80
596.10	48350.79
596.25	48308.66
596.41	48568.46
596.57	48453.77
596.73	48720.59
596.88	48839.96
597.04	48404.62
597.20	48952.30
597.36	48938.26
597.51	48971.03
597.67	48418.66
597.83	48652.72
597.99	48896.13
598.14	48666.76
598.30	48659.74
598.46	48879.75
598.61	48793.15
598.77	49043.59
598.93	48825.92
599.09	49258.91
599.24	49284.66
599.40	49113.80
599.56	48779.10
599.71	48762.72
599.87	48699.53
600.03	48292.27
600.18	48863.36
600.34	48692.50
600.50	48577.82
600.65	48554.41
600.81	48765.06
600.97	48746.34
601.12	48896.13
601.28	48900.81
601.44	48956.99
601.59	48886.77
601.75	48582.50
601.91	48765.06
602.06	48512.28
602.22	48746.34
602.37	48662.08
602.53	48776.76
602.69	48685.48
602.84	48641.01
603.00	48734.63
603.16	48601.22
603.31	48526.33
603.47	48802.51
603.62	48404.62
603.78	48584.84
603.94	48364.83
604.09	48767.40
604.25	48521.65
604.40	48481.86
604.56	48357.81
604.71	48545.05
604.87	48713.57
605.03	48687.82
605.18	48395.26
605.34	48795.49
605.49	48289.93
605.65	48161.20
605.80	47997.37
605.96	48315.68
606.12	48009.07
606.27	48046.52
606.43	48357.81
606.58	48708.89
606.74	48156.52
606.89	48472.49
607.05	48610.59
607.20	48243.12
607.36	48172.91
607.51	48353.13
607.67	47992.68
607.82	47997.37
607.98	48273.55
608.13	48109.71
608.29	48081.63
608.44	48346.11
608.60	48186.95
608.75	48175.25
608.91	48587.18
609.06	48105.03
609.22	48404.62
609.37	47999.71
609.53	48301.64
609.68	48369.51
609.84	48402.28
609.99	48004.39
610.15	47966.94
610.30	48624.63
610.46	48069.92
610.61	48528.67
610.76	48526.33
610.92	48774.42
611.07	48877.41
611.23	48966.35
611.38	48736.98
611.54	48245.46
611.69	48512.28
611.84	48357.81
612.00	48002.05
612.15	47765.65
612.31	48308.66
612.46	48123.75
612.62	48435.05
612.77	48264.19
612.92	48360.15
613.08	48093.33
613.23	47742.25
613.39	47828.85
613.54	47540.96
613.69	47952.90
613.85	47599.47
614.00	47372.44
614.15	47782.04
614.31	47681.39
614.46	48058.22
614.62	47859.27
614.77	47868.64
614.92	47519.90
615.08	47763.31
615.23	47601.82
615.38	47657.99
615.54	47374.78
615.69	47374.78
615.84	47454.36
616.00	47374.78
616.15	46997.96
616.30	47674.37
616.46	47175.84
616.61	47414.57
616.76	47269.46
616.92	47119.66
617.07	47229.67
617.22	47152.43
617.37	46911.36
617.53	47189.88
617.68	46602.41
617.83	47096.26
617.99	46962.85
618.14	46859.87
618.29	46754.54
618.45	46906.68
618.60	46923.06
618.75	46913.70
618.90	46646.88
619.06	46747.52
619.21	46663.26
619.36	46993.28
619.51	46806.03
619.67	45989.19
619.82	45982.16
619.97	46703.05
620.12	46321.54
620.28	46239.62
620.43	46852.84
620.58	47047.11
620.73	46707.73
620.89	46581.34
621.04	46775.61
621.19	46677.30
621.34	46506.44
621.49	46274.73
621.65	46309.84
621.80	46784.97
621.95	46057.06
622.10	46464.32
622.25	46211.54
622.41	46445.59
622.56	46438.57
622.71	46691.35
622.86	45979.82
623.01	46211.54
623.16	46019.61
623.32	46265.37
623.47	45567.89
623.62	46206.86
623.77	45792.58
623.92	46054.72
624.07	45764.49
624.23	46157.70
624.38	45818.33
624.53	46131.96
624.68	45883.86
624.83	45820.67
624.98	46110.89
625.13	46361.33
625.29	45806.62
625.44	45708.32
625.59	45621.72
625.74	45485.97
625.89	45343.20
626.04	45418.10
626.19	45345.54
626.34	45572.57
626.49	45134.89
626.65	45439.16
626.80	45844.07
626.95	45624.06
627.10	44905.52
627.25	45717.68
627.40	45500.01
627.55	45350.22
627.70	44935.95
627.85	45177.02
628.00	44760.40
628.15	45006.16
628.30	44753.38
628.45	44758.06
628.60	44989.78
628.76	45773.86
628.91	45301.07
629.06	44910.20
629.21	45244.90
629.36	44964.03
629.51	44767.43
629.66	44755.72
629.81	44645.72
629.96	44032.50
630.11	44715.93
630.26	44928.92
630.41	44842.32
630.56	45146.59
630.71	45059.99
630.86	44802.53
631.01	44516.99
631.16	45181.70
631.31	44636.36
631.46	44409.32
631.61	44446.77
631.76	44666.78
631.91	44186.97
632.06	44416.35
632.21	43917.81
632.36	43908.45
632.51	43915.47
632.66	44067.61
632.81	44081.65
632.96	44299.32
633.10	44638.70
633.25	43929.51
633.40	44350.81
633.55	44074.63
633.70	44140.16
633.85	44182.29
634.00	43730.57
634.15	43854.62
634.30	44011.43
634.45	43770.36
634.60	43973.98
634.75	43983.35
634.90	43882.70
635.05	43908.45
635.19	43728.23
635.34	44048.88
635.49	44046.54
635.64	43695.46
635.79	43833.55
635.94	43536.30
636.09	43620.56
636.24	43660.35
636.39	43344.38
636.53	43416.94
636.68	42997.98
636.83	43332.68
636.98	43311.61
637.13	43433.32
637.28	43578.43
637.43	43306.93
637.57	43426.30
637.72	43058.84
637.87	43220.33
638.02	43374.81
638.17	43255.44
638.32	43119.69
638.46	42962.87
638.61	43030.75
638.76	42763.93
638.91	42813.08
639.06	43292.89
639.20	43232.04
639.35	42602.43
639.50	42801.38
639.65	42543.92
639.80	42906.70
639.94	42728.82
640.09	43026.07
640.24	42464.34
640.39	42677.33
640.54	42813.08
640.68	43047.13
640.83	42272.42
640.98	42305.18
641.13	42548.60
641.27	42808.40
641.42	42588.39
641.57	42611.79
641.72	42527.53
641.86	42485.40
642.01	42672.65
642.16	42653.92
642.31	42216.24
642.45	42368.38
642.60	42115.60
642.75	42227.95
642.90	42532.22
643.04	42066.45
643.19	41972.83
643.34	41881.55
643.48	42080.49
643.63	42185.82
643.78	42225.60
643.93	42234.97
644.07	41750.48
644.22	42284.12
644.37	41853.46
644.51	41993.89
644.66	41982.19
644.81	41750.48
644.95	42094.53
645.10	41844.10
645.25	41500.04
645.39	42139.00
645.54	41631.11
645.69	41794.95
645.83	41923.68
645.98	42389.44
646.13	41989.21
646.27	41928.36
646.42	41574.94
646.57	41916.65
646.71	41949.42
646.86	41851.12
647.00	41514.08
647.15	41427.48
647.30	41446.21
647.44	40905.54
647.59	41565.57
647.74	41244.92
647.88	41308.11
648.03	41436.84
648.17	41457.91
648.32	41109.17
648.47	41457.91
648.61	41144.28
648.76	41507.06
648.90	41076.40
649.05	41085.76
649.20	41303.43
649.34	40987.46
649.49	40807.24
649.63	41130.23
649.78	41354.93
649.92	41221.52
650.07	41235.56
650.21	40655.11
650.36	41034.27
650.51	40612.98
650.65	41408.76
650.80	41401.74
650.94	40809.58
651.09	40603.61
651.23	40730.00
651.38	41163.00
651.52	40825.96
651.67	40662.13
651.81	40484.25
651.96	40172.96
652.10	40802.56
652.25	40706.60
652.39	40509.99
652.54	40694.89
652.68	40818.94
652.83	40816.60
652.97	41151.30
653.12	40545.10
653.26	40390.62
653.41	40758.09
653.55	40481.91
653.70	40669.15
653.84	40392.97
653.99	40084.01
654.13	40322.75
654.27	40198.70
654.42	40165.93
654.56	40114.44
654.71	40175.30
654.85	40091.04
655.00	40467.86
655.14	40381.26
655.29	40013.80
655.43	39821.87
655.57	39782.09
655.72	39997.41
655.86	39604.20
656.01	39997.41
656.15	39470.79
656.30	39648.68
656.44	39693.15
656.58	39704.85
656.73	40128.48
656.87	39927.20
657.01	40004.44
657.16	39864.00
657.30	39725.91
657.45	39742.30
657.59	39817.19
657.73	39505.90
657.88	39667.40
658.02	39206.31
658.16	39274.19
658.31	39225.04
658.45	39608.89
658.60	39487.18
658.74	39313.98
658.88	39182.91
659.03	39100.99
659.17	38934.81
659.31	39203.97
659.46	39079.92
659.60	38960.56
659.74	39431.01
659.89	38895.02
660.03	38724.16
660.17	39108.01
660.32	38969.92
660.46	38581.39
660.60	38838.85
660.74	38527.56
660.89	38738.21
661.03	38354.36
661.17	38457.34
661.32	38658.63
661.46	38665.65
661.60	38195.20
661.74	38555.64
661.89	38955.88
662.03	38515.86
662.17	38307.55
662.31	38115.62
662.46	38129.67
662.60	38153.07
662.74	37982.21
662.88	37865.19
663.03	37656.88
663.17	37809.01
663.31	37488.36
663.45	38209.25
663.60	37897.95
663.74	37251.97
663.88	37921.36
664.02	37787.95
664.17	37509.43
664.31	37364.31
664.45	37544.53
664.59	37479.00
664.73	37600.71
664.88	37581.98
665.02	36498.31
665.16	37198.13
665.30	36968.76
665.44	36992.17
665.59	36561.51
665.73	37020.25
665.87	36657.47
666.01	36882.16
666.15	36964.08
666.29	36561.51
666.44	36603.64
666.58	36282.98
666.72	36802.58
666.86	36718.32
667.00	36357.88
667.14	36137.87
667.28	36374.27
667.43	36189.36
667.57	36322.77
667.71	35861.69
667.85	35922.54
667.99	35969.35
668.13	36016.16
668.27	35737.64
668.41	36313.41
668.56	35405.28
668.70	35967.01
668.84	36154.26
668.98	35800.83
669.12	35999.78
669.26	36212.77
669.40	35522.31
669.54	35845.30
669.68	35550.40
669.82	35438.05
669.96	35213.36
670.10	35009.73
670.25	35262.51
670.39	34972.28
670.53	34796.74
670.67	34824.83
670.81	35297.62
670.95	34895.05
671.09	34604.82
671.23	34953.56
671.37	34948.88
671.51	34862.28
671.65	34333.32
671.79	34871.64
671.93	34476.09
672.07	34326.30
672.21	34326.30
672.35	33869.89
672.49	33963.51
672.63	34071.18
672.77	34169.48
672.91	34010.32
673.05	33804.36
673.19	34274.80
673.33	33907.34
673.47	34059.48
673.61	33958.83
673.75	33883.94
673.89	33647.54
674.03	33481.36
674.17	33729.46
674.31	33579.67
674.45	33502.43
674.59	32999.21
674.73	33177.09
674.87	33151.35
675.01	33158.37
675.15	33146.67
675.29	32533.45
675.43	32959.42
675.56	32751.12
675.70	33015.60
675.84	32924.32
675.98	31770.43
676.12	32678.56
676.26	32648.13
676.40	32559.19
676.54	32472.59
676.68	32133.21
676.82	31653.40
676.96	32034.91
677.10	31566.81
677.23	31725.96
677.37	31468.50
677.51	31618.30
677.65	31290.62
677.79	31103.38
677.93	31185.30
678.07	31440.42
678.21	31332.75
678.34	31225.09
678.48	30768.68
678.62	30976.99
678.76	31143.17
678.90	30677.40
679.04	30555.69
679.18	30375.47
679.31	30347.39
679.45	30195.25
679.59	29752.89
679.73	30253.76
679.87	29921.41
680.00	30323.98
680.14	29577.35
680.28	30054.82
680.42	29813.74
680.56	29773.95
680.70	29453.30
680.83	29745.87
680.97	29219.25
681.11	29567.99
681.25	29179.46
681.39	29401.81
681.52	29291.80
681.66	29436.92
681.80	28889.23
681.94	28914.98
682.07	28919.66
682.21	28496.02
682.35	28622.41
682.49	28521.77
682.62	28376.66
682.76	28184.73
682.90	28521.77
683.04	28545.17
683.17	28210.48
683.31	28079.41
683.45	28072.39
683.59	27763.43
683.72	27889.82
683.86	27660.45
684.00	27529.38
684.13	27566.83
684.27	27431.08
684.41	27019.14
684.55	26623.59
684.68	26869.35
684.82	26745.30
684.96	26986.38
685.09	26778.07
685.23	26829.56
685.37	26403.58
685.50	26799.13
685.64	26913.82
685.78	26434.01
685.91	26548.70
686.05	26651.68
686.19	26103.99
686.32	26141.44
686.46	25783.34
686.60	25603.12
686.73	25972.92
686.87	25568.01
687.01	25359.70
687.14	25624.18
687.28	25303.53
687.42	25167.78
687.55	25156.08
687.69	25406.52
687.82	24786.27
687.96	24929.05
688.10	25207.57
688.23	24938.41
688.37	24985.22
688.50	24718.40
688.64	24582.65
688.78	24809.68
688.91	24437.53
689.05	24198.80
689.18	23943.68
689.32	24063.05
689.46	23697.92
689.59	23833.68
689.73	23866.44
689.86	23894.53
690.00	23487.28
690.13	23580.90
690.27	23419.40
690.41	23616.01
690.54	23374.93
690.68	23337.48
690.81	23253.22
690.95	23183.01
691.08	23456.85
691.22	22958.31
691.35	22850.65
691.49	22857.67
691.62	22593.19
691.76	22459.78
691.89	22478.50
692.03	22162.53
692.16	22260.84
692.30	22405.95
692.43	22174.24
692.57	22431.69
692.70	22029.12
692.84	21762.30
692.97	21841.88
693.11	21876.99
693.24	21584.42
693.38	21778.68
693.51	22155.51
693.65	21771.66
693.78	21720.17
693.92	21671.02
694.05	21284.83
694.19	20732.47
694.32	20999.29
694.45	20706.72
694.59	20582.67
694.72	20837.79
694.86	20542.88
694.99	20217.55
695.13	20395.43
695.26	20563.95
695.39	19978.81
695.53	20435.22
695.66	20287.76
695.80	20601.40
695.93	20100.52
696.07	20109.88
696.20	20144.99
696.33	20336.91
696.47	19866.47
696.60	19768.16
696.73	19751.78
696.87	19662.84
697.00	19183.03
697.14	19372.61
697.27	19049.62
697.40	18904.51
697.54	18934.93
697.67	18789.82
697.80	18644.71
697.94	18707.90
698.07	18684.50
698.21	18745.35
698.34	18740.67
698.47	18647.05
698.61	18394.27
698.74	18558.11
698.87	18483.21
699.01	18026.81
699.14	18370.86
699.27	17933.18
699.40	18087.66
699.54	17987.02
699.67	17633.60
699.80	17549.34
699.94	17504.87
700.07	17497.84
700.20	17263.79
700.34	17364.43
700.47	17287.20
700.60	17121.02
700.73	17167.83
700.87	17193.58
701.00	17418.27
701.13	17032.08
701.26	17345.71
701.40	16959.52
701.53	16739.51
701.66	16847.18
701.79	16760.58
701.93	16854.20
702.06	16386.09
702.19	16271.40
702.32	16269.06
702.46	16168.42
702.59	15957.77
702.72	15896.92
702.85	15854.79
702.99	16187.14
703.12	15810.32
703.25	15878.19
703.38	15936.71
703.51	15915.64
703.65	15637.12
703.78	15751.81
703.91	15552.86
704.04	15482.64
704.17	15658.18
704.31	15218.16
704.44	15335.19
704.57	15124.54
704.70	15204.12
704.83	14813.25
704.96	14836.66
705.10	14738.35
705.23	14640.05
>>>>>End Processed Spectral Data<<<<<
