SpectraSuite Data File
++++++++++++++++++++++++++++++++++++
Date: Fri Oct 04 11:39:36 GMT-05:00 2013
User: price-jones
Dark Spectrum Present: No
Reference Spectrum Present: No
Number of Sampled Component Spectra: 1
Spectrometers: USB2+H05261
Integration Time (usec): 100000 (USB2+H05261)
Spectra Averaged: 1 (USB2+H05261)
Boxcar Smoothing: 0 (USB2+H05261)
Correct for Electrical Dark: No (USB2+H05261)
Strobe/Lamp Enabled: No (USB2+H05261)
Correct for Detector Non-linearity: No (USB2+H05261)
Correct for Stray Light: No (USB2+H05261)
Number of Pixels in Processed Spectrum: 2048
>>>>>Begin Processed Spectral Data<<<<<
365.73	117.03
365.92	117.03
366.12	117.03
366.32	0.00
366.52	0.00
366.72	23.41
366.91	0.00
367.11	0.00
367.31	0.00
367.51	0.00
367.70	0.00
367.90	0.00
368.10	0.00
368.30	0.00
368.49	0.00
368.69	0.00
368.89	0.00
369.09	0.00
369.28	0.00
369.48	0.00
369.68	0.00
369.87	0.00
370.07	0.00
370.27	42.13
370.47	128.73
370.66	212.99
370.86	332.36
371.06	322.99
371.25	304.27
371.45	353.42
371.65	339.38
371.84	376.83
372.04	269.16
372.24	341.72
372.44	397.89
372.63	379.17
372.83	383.85
373.03	423.64
373.22	379.17
373.42	376.83
373.62	404.91
373.81	341.72
374.01	404.91
374.21	416.62
374.40	411.93
374.60	421.30
374.79	451.72
374.99	449.38
375.19	458.74
375.38	463.43
375.58	433.00
375.78	566.41
375.97	498.53
376.17	554.71
376.37	414.27
376.56	475.13
376.76	447.04
376.95	425.98
377.15	510.24
377.35	531.30
377.54	414.27
377.74	435.34
377.93	505.56
378.13	566.41
378.33	461.09
378.52	475.13
378.72	512.58
378.91	624.92
379.11	496.19
379.31	507.90
379.50	470.45
379.70	491.51
379.89	566.41
380.09	510.24
380.28	489.17
380.48	514.92
380.68	547.69
380.87	447.04
381.07	601.52
381.26	503.22
381.46	543.00
381.65	594.50
381.85	561.73
382.04	592.16
382.24	622.58
382.43	589.82
382.63	608.54
382.83	685.78
383.02	582.79
383.22	643.65
383.41	636.63
383.61	601.52
383.80	599.18
384.00	475.13
384.19	641.31
384.39	660.03
384.58	552.37
384.78	631.94
384.97	671.73
385.17	624.92
385.36	676.41
385.56	716.20
385.75	557.05
385.95	617.90
386.14	737.27
386.34	641.31
386.53	695.14
386.72	657.69
386.92	807.48
387.11	683.44
387.31	706.84
387.50	711.52
387.70	779.40
387.89	678.76
388.09	699.82
388.28	716.20
388.48	692.80
388.67	788.76
388.86	720.88
389.06	744.29
389.25	732.59
389.45	713.86
389.64	758.33
389.84	814.51
390.03	821.53
390.22	716.20
390.42	697.48
390.61	751.31
390.81	837.91
391.00	802.80
391.19	774.72
391.39	788.76
391.58	774.72
391.78	718.54
391.97	774.72
392.16	737.27
392.36	978.34
392.55	922.17
392.75	868.34
392.94	910.47
393.13	868.34
393.33	896.43
393.52	922.17
393.71	847.27
393.91	950.26
394.10	997.07
394.29	936.21
394.49	926.85
394.68	966.64
394.88	940.90
395.07	1043.88
395.26	1034.52
395.46	959.62
395.65	976.00
395.84	1034.52
396.04	997.07
396.23	994.73
396.42	1027.50
396.62	961.96
396.81	926.85
397.00	1046.22
397.19	1034.52
397.39	1011.11
397.58	1078.99
397.77	1076.65
397.97	1020.47
398.16	997.07
398.35	1142.18
398.55	1086.01
398.74	1048.56
398.93	1139.84
399.12	1055.58
399.32	1116.44
399.51	1149.20
399.70	1207.72
399.90	1256.87
400.09	1191.33
400.28	1315.38
400.47	1207.72
400.67	1203.04
400.86	1193.67
401.05	1247.51
401.24	1259.21
401.44	1301.34
401.63	1306.02
401.82	1275.59
402.01	1306.02
402.21	1324.74
402.40	1348.15
402.59	1369.21
402.78	1411.34
402.97	1331.76
403.17	1444.11
403.36	1350.49
403.55	1427.73
403.74	1469.86
403.93	1502.62
404.13	1572.84
404.32	1509.65
404.51	1561.14
404.70	1481.56
404.89	1664.12
405.09	1589.22
405.28	1521.35
405.47	1621.99
405.66	1626.67
405.85	1619.65
406.05	1598.59
406.24	1743.70
406.43	1650.08
406.62	1685.19
406.81	1846.68
407.00	1689.87
407.20	1577.52
407.39	1650.08
407.58	1753.06
407.77	1713.27
407.96	1809.23
408.15	1834.98
408.34	1741.36
408.54	1764.76
408.73	1729.66
408.92	1867.75
409.11	1839.66
409.30	1842.00
409.49	1912.22
409.68	1954.35
409.87	2073.71
410.07	2026.90
410.26	2076.06
410.45	2043.29
410.64	2069.03
410.83	2153.29
411.02	2043.29
411.21	2085.42
411.40	2054.99
411.59	2172.02
411.78	2232.87
411.98	2150.95
412.17	2282.02
412.36	2148.61
412.55	2200.10
412.74	2260.96
412.93	2338.20
413.12	2317.13
413.31	2452.88
413.50	2408.41
413.69	2415.43
413.88	2506.71
414.07	2548.84
414.26	2605.02
414.45	2525.44
414.64	2574.59
414.83	2630.76
415.02	2640.12
415.22	2792.26
415.41	2656.51
415.60	2647.15
415.79	2698.64
415.98	2839.07
416.17	2789.92
416.36	2888.22
416.55	2839.07
416.74	2902.26
416.93	2967.80
417.12	2960.78
417.31	2925.67
417.50	2960.78
417.69	2944.39
417.88	2963.12
418.07	3084.83
418.26	3016.95
418.45	3108.23
418.64	3087.17
418.83	3143.34
419.02	3141.00
419.21	3185.47
419.39	3164.40
419.58	3145.68
419.77	3251.00
419.96	3197.17
420.15	3332.92
420.34	3346.97
420.53	3412.50
420.72	3339.94
420.91	3389.10
421.10	3414.84
421.29	3531.87
421.48	3239.30
421.67	3407.82
421.86	3529.53
422.05	3524.85
422.24	3332.92
422.43	3349.31
422.61	3566.98
422.80	3529.53
422.99	3473.36
423.18	3630.17
423.37	3658.26
423.56	3618.47
423.75	3473.36
423.94	3634.85
424.13	3459.31
424.32	3536.55
424.50	3672.30
424.69	3623.15
424.88	3705.07
425.07	3449.95
425.26	3592.72
425.45	3604.42
425.64	3686.34
425.83	3576.34
426.01	3592.72
426.20	3552.93
426.39	3651.24
426.58	3574.00
426.77	3527.19
426.96	3749.54
427.15	3761.24
427.33	3833.80
427.52	3779.97
427.71	3796.35
427.90	3698.05
428.09	3873.59
428.28	3880.61
428.46	3817.41
428.65	3925.08
428.84	3969.55
429.03	3953.16
429.22	3929.76
429.40	4018.70
429.59	4039.76
429.78	3875.93
429.97	3854.86
430.16	3955.51
430.34	4077.21
430.53	4154.45
430.72	4109.98
430.91	3985.93
431.10	4042.11
431.28	4191.90
431.47	4051.47
431.66	4149.77
431.85	4065.51
432.03	4252.75
432.22	4505.53
432.41	4365.10
432.60	4313.61
432.79	4311.27
432.97	4269.14
433.16	4416.59
433.35	4287.86
433.54	4386.16
433.72	4550.00
433.91	4461.06
434.10	4320.63
434.28	4440.00
434.47	4596.81
434.66	4559.36
434.85	4643.62
435.03	4795.76
435.22	4660.01
435.41	5027.47
435.59	5001.72
435.78	4882.36
435.97	4910.44
436.16	4709.16
436.34	4737.24
436.53	4575.75
436.72	4774.69
436.90	4704.48
437.09	4643.62
437.28	4767.67
437.46	4643.62
437.65	4781.71
437.84	4870.65
438.02	4954.91
438.21	4964.28
438.40	4924.49
438.58	4929.17
438.77	5060.24
438.96	4842.57
439.14	5158.54
439.33	5093.01
439.52	5238.12
439.70	5303.65
439.89	5247.48
440.08	5221.74
440.26	5317.70
440.45	5273.23
440.63	5533.03
440.82	5495.58
441.01	5434.72
441.19	5467.49
441.38	5577.50
441.57	5591.54
441.75	5731.97
441.94	5767.08
442.12	5696.86
442.31	5951.98
442.50	5710.91
442.68	5774.10
442.87	5820.91
443.05	5940.28
443.24	5912.19
443.43	5926.24
443.61	6005.81
443.80	6101.78
443.98	5935.60
444.17	5837.30
444.35	5975.39
444.54	6050.28
444.73	5900.49
444.91	6104.12
445.10	6052.63
445.28	6099.44
445.47	5867.72
445.65	6211.78
445.84	6132.20
446.02	6263.27
446.21	5942.62
446.39	6057.31
446.58	6111.14
446.77	6125.18
446.95	6038.58
447.14	6122.84
447.32	6139.23
447.51	6122.84
447.69	6111.14
447.88	6354.55
448.06	6069.01
448.25	6143.91
448.43	6216.46
448.62	6101.78
448.80	6141.57
448.99	6094.76
449.17	6270.30
449.36	6289.02
449.54	6361.58
449.73	6450.52
449.91	6284.34
450.10	6342.85
450.28	6375.62
450.46	6431.79
450.65	6635.42
450.83	6497.33
451.02	6490.31
451.20	6717.34
451.39	6504.35
451.57	6558.18
451.76	6518.39
451.94	6703.29
452.13	6668.19
452.31	6642.44
452.49	6724.36
452.68	6787.55
452.86	6778.19
453.05	6855.43
453.23	6843.73
453.42	6904.58
453.60	6729.04
453.78	6747.76
453.97	6773.51
454.15	6764.15
454.34	6892.88
454.52	6825.00
454.70	6789.89
454.89	6937.35
455.07	7009.90
455.26	7098.84
455.44	7140.97
455.62	7096.50
455.81	7173.74
455.99	6993.52
456.17	7297.79
456.36	7082.46
456.54	7337.58
456.73	7337.58
456.91	7365.67
457.09	7485.03
457.28	7576.31
457.46	7400.77
457.64	7683.98
457.83	7499.08
458.01	7360.98
458.19	7592.70
458.38	7463.97
458.56	7660.57
458.74	7763.56
458.93	7552.91
459.11	7688.66
459.29	7707.38
459.48	7751.85
459.66	7791.64
459.84	7850.16
460.03	7929.74
460.21	7932.08
460.39	8009.31
460.57	7679.30
460.76	7892.29
460.94	8079.53
461.12	7999.95
461.31	7779.94
461.49	7847.82
461.67	7971.86
461.85	8425.93
462.04	8208.26
462.22	8329.97
462.40	8060.80
462.59	8224.64
462.77	8201.24
462.95	8208.26
463.13	8332.31
463.32	8278.47
463.50	8416.57
463.68	8458.70
463.86	8360.39
464.05	8133.36
464.23	8154.43
464.41	8489.12
464.59	8219.96
464.78	8627.21
464.96	8177.83
465.14	8407.20
465.32	8486.78
465.50	8645.94
465.69	8777.01
465.87	8519.55
466.05	8463.38
466.23	8561.68
466.41	8795.73
466.60	9013.40
466.78	8669.34
466.96	8601.47
467.14	8575.72
467.32	8777.01
467.51	8786.37
467.69	8470.40
467.87	8929.14
468.05	8922.12
468.23	8814.46
468.41	8809.78
468.60	9027.45
468.78	8823.82
468.96	8858.93
469.14	9200.65
469.32	9146.81
469.50	8929.14
469.69	9132.77
469.87	9310.65
470.05	9259.16
470.23	9118.73
470.41	9212.35
470.59	9378.53
470.77	9282.56
470.95	9441.72
471.14	9507.26
471.32	9160.86
471.50	9729.61
471.68	9610.24
471.86	9713.22
472.04	9666.41
472.22	9820.89
472.40	9696.84
472.58	9664.07
472.77	9760.03
472.95	9874.72
473.13	10193.03
473.31	10029.20
473.49	9685.14
473.67	10104.09
473.85	10045.58
474.03	10207.08
474.21	10244.52
474.39	10387.30
474.57	10389.64
474.75	10499.64
474.93	10417.72
475.12	10611.99
475.30	10651.78
475.48	10506.66
475.66	10775.83
475.84	10717.31
476.02	10878.81
476.20	10747.74
476.38	11030.94
476.56	11162.01
476.74	11014.56
476.92	11265.00
477.10	11119.89
477.28	11171.38
477.46	11375.00
477.64	11260.32
477.82	11587.99
478.00	11861.84
478.18	12049.08
478.36	11885.24
478.54	11988.22
478.72	11939.07
478.90	12114.61
479.08	12116.95
479.26	12393.14
479.44	12437.61
479.62	12695.07
479.80	12683.36
479.98	12704.43
480.16	12868.27
480.34	12521.87
480.52	13149.13
480.70	12842.52
480.88	12915.08
481.06	13128.06
481.24	13153.81
481.41	13294.24
481.59	13635.96
481.77	13682.77
481.95	13757.67
482.13	13755.33
482.31	13650.00
482.49	14087.68
482.67	14094.71
482.85	14300.67
483.03	14541.75
483.21	14537.07
483.39	14808.57
483.57	14633.03
483.74	14654.09
483.92	14998.15
484.10	14771.12
484.28	15147.95
484.46	15449.88
484.64	15377.32
484.82	15482.64
485.00	15356.25
485.18	15737.76
485.35	15943.73
485.53	15857.13
485.71	16276.09
485.89	16592.06
486.07	16060.76
486.25	16226.93
486.43	16320.56
486.61	16788.66
486.78	16929.09
486.96	16996.97
487.14	17315.28
487.32	16886.97
487.50	17238.05
487.68	17451.03
487.85	17713.17
488.03	17968.29
488.21	17846.58
488.39	18001.06
488.57	17699.13
488.75	18143.83
488.92	18747.69
489.10	18658.75
489.28	18600.24
489.46	18937.27
489.64	18941.96
489.81	19283.67
489.99	19218.14
490.17	19225.16
490.35	19679.22
490.53	19459.21
490.70	19857.10
490.88	19768.16
491.06	19962.43
491.24	19906.26
491.41	20077.12
491.59	20255.00
491.77	20112.22
491.95	20278.40
492.13	20238.61
492.30	20519.48
492.48	20671.61
492.66	21085.89
492.84	20994.61
493.01	21219.30
493.19	21167.80
493.37	21486.12
493.54	21612.51
493.72	21762.30
493.90	22054.87
494.08	21781.03
494.25	21755.28
494.43	22520.63
494.61	22064.23
494.79	22871.72
494.96	22434.03
495.14	22806.18
495.32	23080.02
495.49	22827.24
495.67	22953.63
495.85	23552.81
496.02	23180.67
496.20	23529.41
496.38	23475.57
496.55	23800.91
496.73	24219.86
496.91	24006.87
497.09	24334.55
497.26	24269.01
497.44	24203.48
497.62	24020.92
497.79	24589.67
497.97	24458.60
498.14	24755.85
498.32	24783.93
498.50	24989.90
498.67	25427.58
498.85	25230.98
499.03	25249.70
499.20	25340.98
499.38	25226.29
499.56	25542.27
499.73	25680.36
499.91	25809.09
500.08	25947.18
500.26	25773.98
500.44	25968.24
500.61	25956.54
500.79	26230.38
500.97	26288.90
501.14	26345.07
501.32	26682.11
501.49	26485.50
501.67	26885.73
501.84	26824.88
502.02	26979.36
502.20	27225.11
502.37	27166.60
502.55	26979.36
502.72	27215.75
502.90	27395.97
503.07	26885.73
503.25	27608.96
503.43	27496.61
503.60	27639.39
503.78	27431.08
503.95	27704.92
504.13	28194.09
504.30	27901.53
504.48	27875.78
504.65	28105.15
504.83	28402.40
505.01	28290.06
505.18	28189.41
505.36	28524.11
505.53	28842.42
505.71	28414.10
505.88	28769.86
506.06	28348.57
506.23	29172.44
506.41	28896.25
506.58	29338.62
506.76	29270.74
506.93	29392.45
507.11	28746.46
507.28	29401.81
507.46	29443.94
507.63	29720.12
507.81	30012.69
507.98	29792.68
508.16	29811.40
508.33	29813.74
508.50	30110.99
508.68	29979.92
508.85	30356.75
509.03	30157.80
509.20	30527.61
509.38	30771.02
509.55	30960.61
509.73	30778.04
509.90	30602.50
510.08	30609.53
510.25	30972.31
510.42	30953.58
510.60	31178.28
510.77	31267.22
510.95	31512.97
511.12	31393.61
511.30	31304.67
511.47	31419.35
511.64	31566.81
511.82	31777.45
511.99	31894.48
512.17	31833.63
512.34	31725.96
512.51	31962.36
512.69	32385.99
512.86	32112.15
513.04	32261.94
513.21	32900.91
513.38	32521.74
513.56	32496.00
513.73	32442.17
513.90	32795.59
514.08	32739.41
514.25	33036.66
514.43	32552.17
514.60	32914.95
514.77	32994.53
514.95	33097.52
515.12	33085.81
515.29	32762.82
515.47	33418.17
515.64	33266.03
515.81	33413.49
515.99	33537.54
516.16	34396.51
516.33	33722.44
516.51	33897.98
516.68	33703.71
516.85	33916.70
517.03	33771.59
517.20	34359.06
517.37	34307.57
517.54	34057.14
517.72	34068.84
517.89	34464.39
518.06	34220.97
518.24	34712.49
518.41	34494.82
518.58	34176.50
518.75	34614.18
518.93	34848.24
519.10	34700.78
519.27	34843.56
519.45	34665.67
519.62	34794.40
519.79	35035.48
519.96	35314.00
520.14	35398.26
520.31	35105.70
520.48	35835.94
520.65	35213.36
520.83	35526.99
521.00	35730.62
521.17	35559.76
521.34	35868.71
521.52	35611.25
521.69	36189.36
521.86	36194.04
522.03	36212.77
522.20	36168.30
522.38	36217.45
522.55	36662.15
522.72	36484.27
522.89	36231.49
523.07	36652.79
523.24	36598.96
523.41	36505.34
523.58	36615.34
523.75	36762.79
523.92	36715.98
524.10	36811.95
524.27	36858.76
524.44	36961.74
524.61	37130.26
524.78	37041.32
524.96	37336.23
525.13	37411.12
525.30	37661.56
525.47	37706.03
525.64	37502.40
525.81	37542.19
525.98	37614.75
526.16	37888.59
526.33	37895.61
526.50	37919.02
526.67	37858.17
526.84	37986.89
527.01	37961.15
527.18	37816.04
527.36	38094.56
527.53	38122.65
527.70	38260.74
527.87	38522.88
528.04	38103.92
528.21	38464.36
528.38	38188.18
528.55	38724.16
528.72	38157.75
528.89	38684.37
529.07	38885.66
529.24	38433.94
529.41	38698.42
529.58	39072.90
529.75	38256.06
529.92	38866.94
530.09	38785.02
530.26	38721.82
530.43	39136.10
530.60	38747.57
530.77	38974.60
530.94	39377.17
531.11	38976.94
531.28	38923.11
531.46	39604.20
531.63	39651.02
531.80	39667.40
531.97	39346.75
532.14	39707.19
532.31	39566.76
532.48	39805.49
532.65	39896.77
532.82	39580.80
532.99	39835.92
533.16	39592.50
533.33	39576.12
533.50	39971.67
533.67	40327.43
533.84	39866.34
534.01	40086.36
534.18	39779.74
534.35	40238.49
534.52	39803.15
534.69	40371.90
534.86	40477.22
535.03	40053.59
535.20	40545.10
535.37	40488.93
535.54	40825.96
535.71	40601.27
535.88	40802.56
536.05	40753.41
536.22	41013.21
536.38	40645.74
536.55	41233.22
536.72	40849.37
536.89	40570.85
537.06	40648.08
537.23	41158.32
537.40	41020.23
537.57	41434.50
537.74	41249.60
537.91	41315.14
538.08	41947.08
538.25	41170.02
538.42	41460.25
538.59	41532.81
538.75	41572.60
538.92	41235.56
539.09	42043.04
539.26	41593.66
539.43	41797.29
539.60	42019.64
539.77	41610.04
539.94	42190.50
540.11	41914.31
540.28	42155.39
540.44	41816.01
540.61	42270.08
540.78	42024.32
540.95	42230.29
541.12	42499.45
541.29	42422.21
541.46	42323.91
541.62	42328.59
541.79	42906.70
541.96	42564.98
542.13	42583.71
542.30	42789.67
542.47	42993.30
542.63	42630.52
542.80	42918.40
542.97	43161.82
543.14	43213.31
543.31	43178.20
543.48	43063.52
543.64	43646.31
543.81	43721.21
543.98	43613.54
544.15	43744.61
544.32	43475.45
544.48	43725.89
544.65	43267.14
544.82	43407.58
544.99	42857.55
545.16	43276.51
545.32	43400.55
545.49	44116.76
545.66	44917.22
545.83	44715.93
546.00	44645.72
546.16	43962.28
546.33	43920.15
546.50	43250.76
546.67	44257.19
546.83	43243.74
547.00	43634.61
547.17	43746.95
547.34	43821.85
547.50	43922.49
547.67	44210.38
547.84	43959.94
548.00	44116.76
548.17	44034.84
548.34	44081.65
548.51	44252.51
548.67	44048.88
548.84	44140.16
549.01	44285.28
549.18	44098.03
549.34	44083.99
549.51	44446.77
549.68	44182.29
549.84	44325.07
550.01	44594.23
550.18	44502.95
550.34	44514.65
550.51	44563.80
550.68	44463.16
550.84	44144.84
551.01	44126.12
551.18	44294.64
551.34	44215.06
551.51	44645.72
551.68	44451.45
551.84	44467.84
552.01	45052.97
552.18	44725.30
552.34	44755.72
552.51	44669.12
552.68	44648.06
552.84	45099.78
553.01	45071.70
553.18	44949.99
553.34	45055.31
553.51	45078.72
553.67	44788.49
553.84	45385.33
554.01	45415.76
554.17	45207.45
554.34	45588.95
554.51	44884.45
554.67	45099.78
554.84	45305.75
555.00	45006.16
555.17	45064.67
555.33	45373.63
555.50	45469.59
555.67	45050.63
555.83	45256.60
556.00	45464.91
556.16	45352.56
556.33	45289.37
556.50	45116.17
556.66	45574.91
556.83	45132.55
556.99	45736.41
557.16	45558.53
557.32	45731.73
557.49	45591.30
557.65	45263.62
557.82	45041.27
557.98	44996.80
558.15	45338.52
558.32	45900.25
558.48	45734.07
558.65	45834.71
558.81	45736.41
558.98	45642.79
559.14	45563.21
559.31	45535.12
559.47	45509.38
559.64	45462.57
559.80	45893.22
559.97	46305.16
560.13	45904.93
560.30	45717.68
560.46	46185.79
560.63	45998.55
560.79	46211.54
560.96	45729.39
561.12	45872.16
561.29	45610.02
561.45	45794.92
561.61	46019.61
561.78	45811.31
561.94	45851.09
562.11	46094.51
562.27	46033.66
562.44	45886.20
562.60	45687.26
562.77	45949.40
562.93	46162.39
563.10	46281.75
563.26	46403.46
563.42	46700.71
563.59	46036.00
563.75	46124.94
563.92	46054.72
564.08	46026.63
564.24	46284.09
564.41	45848.75
564.57	45701.30
564.74	46321.54
564.90	46426.87
565.07	46153.02
565.23	46454.95
565.39	46204.52
565.56	46113.23
565.72	45771.52
565.88	46272.39
566.05	45933.01
566.21	46225.58
566.38	45993.87
566.54	46234.94
566.70	46609.43
566.87	46506.44
567.03	46382.40
567.19	46436.23
567.36	46176.43
567.52	46017.27
567.68	46520.49
567.85	45970.46
568.01	46127.28
568.17	46855.18
568.34	46948.81
568.50	46686.67
568.66	46052.38
568.83	46546.23
568.99	46354.31
569.15	46267.71
569.32	46384.74
569.48	46490.06
569.64	46691.35
569.81	46513.47
569.97	46295.80
570.13	46312.18
570.30	46499.42
570.46	46351.97
570.62	46239.62
570.78	46312.18
570.95	46204.52
571.11	46527.51
571.27	46267.71
571.43	46012.59
571.60	46277.07
571.76	46590.70
571.92	46171.75
572.09	47026.04
572.25	46672.62
572.41	46424.53
572.57	46644.54
572.74	46466.66
572.90	46307.50
573.06	46286.43
573.22	46216.22
573.38	46401.12
573.55	46466.66
573.71	46543.89
573.87	46948.81
574.03	46330.90
574.20	46574.32
574.36	46438.57
574.52	46253.67
574.68	46536.87
574.84	46787.31
575.01	46630.49
575.17	46777.95
575.33	46401.12
575.49	46703.05
575.65	47056.47
575.82	46656.24
575.98	46560.28
576.14	46990.94
576.30	46403.46
576.46	46522.83
576.62	46693.69
576.79	46433.89
576.95	46506.44
577.11	46892.63
577.27	46616.45
577.43	46663.26
577.59	46384.74
577.75	46904.34
577.92	46384.74
578.08	46515.81
578.24	46492.40
578.40	46579.00
578.56	46604.75
578.72	47084.56
578.88	47044.77
579.04	46412.82
579.21	46571.98
579.37	46894.97
579.53	46780.29
579.69	46637.51
579.85	46862.21
580.01	46703.05
580.17	46466.66
580.33	46550.91
580.49	46885.61
580.65	46913.70
580.82	47058.81
580.98	46632.83
581.14	46347.29
581.30	47220.31
581.46	46724.11
581.62	46597.73
581.78	46239.62
581.94	46784.97
582.10	46403.46
582.26	46595.38
582.42	46873.91
582.58	46738.16
582.74	47007.32
582.90	46733.48
583.06	46707.73
583.22	46604.75
583.38	46529.85
583.54	46714.75
583.70	46389.42
583.86	46593.04
584.02	46426.87
584.18	46721.77
584.34	46869.23
584.50	47215.63
584.66	47070.51
584.82	46803.69
584.98	46717.09
585.14	46707.73
585.30	46101.53
585.46	46717.09
585.62	46394.10
585.78	46663.26
585.94	46831.78
586.10	46941.78
586.26	46967.53
586.42	46820.08
586.58	46808.37
586.74	46653.90
586.90	46677.30
587.06	46497.08
587.22	46333.24
587.38	46691.35
587.54	46679.64
587.70	47260.10
587.86	46649.22
588.02	47000.30
588.18	47194.56
588.34	46948.81
588.49	46937.10
588.65	46670.28
588.81	46782.63
588.97	46906.68
589.13	46471.34
589.29	46679.64
589.45	47004.98
589.61	46714.75
589.77	46909.02
589.93	47009.66
590.08	46941.78
590.24	46859.87
590.40	47079.88
590.56	47138.39
590.72	46838.80
590.88	46782.63
591.04	46995.62
591.20	47143.07
591.35	46836.46
591.51	47391.17
591.67	47381.80
591.83	47454.36
591.99	46883.27
592.15	47185.20
592.31	47145.41
592.46	46850.50
592.62	47229.67
592.78	46909.02
592.94	47054.13
593.10	46862.21
593.26	47189.88
593.41	47140.73
593.57	47047.11
593.73	47058.81
593.89	47437.98
594.05	46948.81
594.20	46707.73
594.36	47180.52
594.52	46632.83
594.68	46691.35
594.84	46836.46
594.99	47093.92
595.15	46885.61
595.31	47114.98
595.47	47519.90
595.62	47119.66
595.78	47117.32
595.94	47192.22
596.10	47674.37
596.25	47014.34
596.41	46679.64
596.57	47014.34
596.73	47161.79
596.88	47091.58
597.04	46866.89
597.20	47442.66
597.36	47112.64
597.51	47206.26
597.67	47105.62
597.83	47030.72
597.99	47267.12
598.14	46913.70
598.30	46543.89
598.46	46876.25
598.61	46815.40
598.77	47129.03
598.93	47466.06
599.09	47133.71
599.24	47625.22
599.40	47012.00
599.56	47215.63
599.71	46930.08
599.87	47119.66
600.03	46948.81
600.18	47035.41
600.34	46845.82
600.50	47096.26
600.65	47421.59
600.81	47538.62
600.97	47100.94
601.12	47227.33
601.28	47232.01
601.44	47262.44
601.59	47093.92
601.75	46810.71
601.91	47042.43
602.06	46934.76
602.22	47281.16
602.37	46571.98
602.53	47250.74
602.69	47173.50
602.84	47260.10
603.00	47089.24
603.16	47026.04
603.31	47370.10
603.47	47147.75
603.62	47028.38
603.78	47002.64
603.94	46623.47
604.09	46864.55
604.25	47007.32
604.40	46632.83
604.56	46553.26
604.71	47267.12
604.87	46674.96
605.03	47096.26
605.18	46679.64
605.34	46536.87
605.49	46424.53
605.65	46600.07
605.80	46674.96
605.96	46445.59
606.12	46876.25
606.27	46829.44
606.43	46583.68
606.58	46918.38
606.74	46796.67
606.89	46712.41
607.05	46637.51
607.20	46791.99
607.36	46700.71
607.51	46586.02
607.67	46518.15
607.82	46525.17
607.98	46607.09
608.13	46752.20
608.29	46527.51
608.44	46506.44
608.60	46445.59
608.75	46815.40
608.91	46770.93
609.06	46417.50
609.22	46426.87
609.37	46513.47
609.53	46492.40
609.68	46209.20
609.84	46621.13
609.99	46691.35
610.15	46483.04
610.30	46492.40
610.46	46693.69
610.61	46827.10
610.76	47019.02
610.92	47522.24
611.07	47391.17
611.23	47276.48
611.38	47058.81
611.54	46698.37
611.69	46422.19
611.84	46110.89
612.00	46630.49
612.15	46387.08
612.31	46548.57
612.46	46852.84
612.62	46499.42
612.77	46036.00
612.92	46469.00
613.08	46251.33
613.23	46323.88
613.39	45869.82
613.54	45886.20
613.69	45591.30
613.85	46190.47
614.00	46333.24
614.15	46101.53
614.31	46047.70
614.46	46061.74
614.62	45993.87
614.77	46043.02
614.92	46117.92
615.08	45958.76
615.23	45738.75
615.38	45769.18
615.54	45181.70
615.69	45205.11
615.84	45354.90
616.00	45872.16
616.15	45785.56
616.30	45904.93
616.46	45364.26
616.61	45511.72
616.76	45757.47
616.92	45511.72
617.07	45673.21
617.22	45045.95
617.37	45429.80
617.53	45144.25
617.68	45141.91
617.83	45207.45
617.99	45050.63
618.14	45116.17
618.29	45134.89
618.45	45076.38
618.60	44959.35
618.75	45287.03
618.90	45315.11
619.06	45188.72
619.21	44814.24
619.36	44959.35
619.51	44612.95
619.67	44446.77
619.82	44694.87
619.97	45450.86
620.12	45036.59
620.28	44931.26
620.43	44931.26
620.58	44837.64
620.73	44872.75
620.89	45429.80
621.04	45113.83
621.19	44839.98
621.34	44559.12
621.49	44446.77
621.65	44542.74
621.80	44758.06
621.95	44231.44
622.10	44285.28
622.25	44655.08
622.41	44685.51
622.56	44531.03
622.71	44692.53
622.86	44568.48
623.01	44570.82
623.16	44582.52
623.32	44306.34
623.47	44299.32
623.62	44170.59
623.77	44247.83
623.92	43957.60
624.07	43962.28
624.23	44397.62
624.38	44524.01
624.53	44123.78
624.68	44453.79
624.83	44807.22
624.98	44582.52
625.13	44034.84
625.29	44025.48
625.44	44205.70
625.59	43782.06
625.74	43938.88
625.89	43728.23
626.04	44079.31
626.19	43449.70
626.34	43901.43
626.49	43948.24
626.65	43704.82
626.80	43435.66
626.95	43763.34
627.10	44037.18
627.25	43854.62
627.40	43325.66
627.55	43643.97
627.70	43154.80
627.85	43487.15
628.00	43082.24
628.15	43496.52
628.30	43487.15
628.45	43416.94
628.60	43363.11
628.76	43505.88
628.91	43421.62
629.06	43168.84
629.21	43185.22
629.36	43009.68
629.51	42902.02
629.66	43030.75
629.81	42696.05
629.96	43133.73
630.11	42878.61
630.26	42864.57
630.41	43215.65
630.56	42766.27
630.71	43145.44
630.86	43353.74
631.01	42979.26
631.16	42887.98
631.31	43208.63
631.46	42735.84
631.61	42892.66
631.76	43302.25
631.91	42646.90
632.06	42670.31
632.21	42344.97
632.36	42866.91
632.51	42349.65
632.66	42253.69
632.81	41872.18
632.96	42473.70
633.10	42380.08
633.25	42351.99
633.40	42527.53
633.55	42351.99
633.70	42590.73
633.85	42204.54
634.00	42073.47
634.15	42094.53
634.30	42230.29
634.45	42272.42
634.60	42213.90
634.75	42375.40
634.90	42227.95
635.05	42389.44
635.19	41982.19
635.34	42480.72
635.49	42225.60
635.64	42007.94
635.79	41909.63
635.94	42256.03
636.09	41940.06
636.24	41837.08
636.39	42176.45
636.53	41996.23
636.68	41673.24
636.83	41766.86
636.98	42103.90
637.13	41570.25
637.28	41827.71
637.43	41635.79
637.57	41738.77
637.72	41872.18
637.87	41640.47
638.02	41883.89
638.17	41523.44
638.32	41942.40
638.46	41329.18
638.61	41097.47
638.76	40744.05
638.91	41610.04
639.06	41483.66
639.20	41504.72
639.35	41469.61
639.50	41535.15
639.65	41333.86
639.80	41324.50
639.94	41319.82
640.09	41500.04
640.24	41364.29
640.39	41343.22
640.54	41036.61
640.68	41130.23
640.83	40987.46
640.98	40559.14
641.13	40964.06
641.27	41099.81
641.42	40678.51
641.57	40767.45
641.72	41158.32
641.86	40914.90
642.01	40907.88
642.16	41090.44
642.31	40650.42
642.45	40884.48
642.60	40570.85
642.75	40725.32
642.90	40697.24
643.04	40334.45
643.19	40718.30
643.34	41013.21
643.48	40502.97
643.63	41186.41
643.78	40659.79
643.93	40830.65
644.07	40772.13
644.22	40484.25
644.37	40385.94
644.51	40282.96
644.66	40624.68
644.81	40395.31
644.95	39988.05
645.10	40250.19
645.25	40320.41
645.39	40367.22
645.54	40339.13
645.69	40360.20
645.83	40687.87
645.98	40205.72
646.13	40318.07
646.27	40453.82
646.42	40502.97
646.57	40421.05
646.71	40247.85
646.86	40149.55
647.00	40079.33
647.15	40495.95
647.30	39777.40
647.44	39690.80
647.59	39995.07
647.74	40238.49
647.88	39686.12
648.03	39929.54
648.17	39889.75
648.32	40023.16
648.47	40294.66
648.61	39828.90
648.76	39995.07
648.90	39531.65
649.05	39445.05
649.20	39763.36
649.34	39585.48
649.49	39674.42
649.63	39423.98
649.78	39772.72
649.92	39405.26
650.07	39611.23
650.21	39374.83
650.36	39770.38
650.51	39599.52
650.65	39679.10
650.80	39316.32
650.94	39707.19
651.09	39487.18
651.23	39246.10
651.38	39236.74
651.52	39351.43
651.67	39002.69
651.81	39096.31
651.96	39145.46
652.10	39281.21
652.25	38738.21
652.39	39278.87
652.54	39283.55
652.68	39187.59
652.83	39058.86
652.97	39587.82
653.12	39367.81
653.26	38941.83
653.41	38710.12
653.55	38890.34
653.70	38677.35
653.84	38878.64
653.99	38857.57
654.13	39047.16
654.27	38691.40
654.42	38628.20
654.56	38731.18
654.71	38789.70
654.85	39028.43
655.00	38892.68
655.14	38443.30
655.29	38698.42
655.43	38106.26
655.57	38618.84
655.72	38171.80
655.86	38047.75
656.01	38452.66
656.15	37996.26
656.30	38089.88
656.44	38293.50
656.58	38328.61
656.73	37844.12
656.87	38270.10
657.01	38162.43
657.16	38536.92
657.30	38267.76
657.45	37949.45
657.59	38103.92
657.73	37998.60
657.88	38167.12
658.02	38036.05
658.16	38012.64
658.31	37614.75
658.45	38153.07
658.60	37694.33
658.74	37851.14
658.88	37759.86
659.03	37757.52
659.17	37584.32
659.31	37607.73
659.46	37759.86
659.60	37780.93
659.74	38188.18
659.89	37497.72
660.03	37385.38
660.17	37525.81
660.32	37406.44
660.46	37216.86
660.60	37015.57
660.74	37324.52
660.89	37099.83
661.03	36858.76
661.17	36980.46
661.32	37284.73
661.46	36882.16
661.60	37020.25
661.74	37088.13
661.89	37305.80
662.03	36865.78
662.17	36739.39
662.31	36837.69
662.46	37060.04
662.60	36563.85
662.74	36364.90
662.88	36533.42
663.03	36512.36
663.17	36060.63
663.31	36088.72
663.45	36273.62
663.60	36390.65
663.74	36126.17
663.88	36081.70
664.02	35814.88
664.17	36460.87
664.31	35866.37
664.45	36137.87
664.59	35920.20
664.73	36301.71
664.88	35896.80
665.02	35821.90
665.16	35606.57
665.30	36161.28
665.44	35566.78
665.59	35901.48
665.73	35716.58
665.87	35445.07
666.01	35618.27
666.15	35599.55
666.29	35627.63
666.44	35452.09
666.58	35037.82
666.72	35384.22
666.86	35562.10
667.00	35409.96
667.14	34749.93
667.28	35178.25
667.43	34904.41
667.57	35255.49
667.71	34934.84
667.85	34658.65
667.99	34756.96
668.13	34752.27
668.27	34300.55
668.41	34881.00
668.56	34183.52
668.70	34300.55
668.84	34724.19
668.98	34927.81
669.12	34511.20
669.26	34078.20
669.40	34120.33
669.54	34272.46
669.68	34443.32
669.82	33645.20
669.96	34141.39
670.10	33844.15
670.25	33825.42
670.39	33839.47
670.53	33811.38
670.67	33645.20
670.81	33741.16
670.95	33642.86
671.09	33862.87
671.23	33504.77
671.37	33654.56
671.51	33734.14
671.65	33427.53
671.79	33319.87
671.93	33345.61
672.07	32933.68
672.21	33006.23
672.35	33010.92
672.49	32875.16
672.63	32830.69
672.77	32526.42
672.91	33010.92
673.05	32388.33
673.19	32503.02
673.33	33027.30
673.47	32493.66
673.61	32776.86
673.75	32734.73
673.89	32966.45
674.03	32727.71
674.17	32142.58
674.31	32460.89
674.45	31931.93
674.59	32053.64
674.73	31899.16
674.87	31812.56
675.01	31845.33
675.15	31845.33
675.29	31592.55
675.43	31515.31
675.56	31377.22
675.70	31545.74
675.84	31463.82
675.98	31056.57
676.12	31613.62
676.26	31590.21
676.40	31367.86
676.54	31091.68
676.68	31335.09
676.82	30195.25
676.96	30810.81
677.10	30487.82
677.23	30237.38
677.37	30335.68
677.51	30675.06
677.65	30054.82
677.79	30089.93
677.93	30272.49
678.07	29942.47
678.21	29689.70
678.34	29975.24
678.48	30094.61
678.62	29841.83
678.76	29771.61
678.90	29230.95
679.04	29441.60
679.18	29633.52
679.31	29003.92
679.45	28769.86
679.59	29039.03
679.73	28790.93
679.87	28833.06
680.00	28554.54
680.14	28786.25
680.28	28875.19
680.42	28587.30
680.56	28400.06
680.70	28549.85
680.83	28439.85
680.97	28304.10
681.11	27922.59
681.25	28254.95
681.39	28329.84
681.52	28327.50
681.66	27704.92
681.80	27601.94
681.94	27623.00
682.07	27667.47
682.21	27601.94
682.35	27449.80
682.49	26960.63
682.62	27477.89
682.76	27311.71
682.90	27077.66
683.04	26939.57
683.17	27297.67
683.31	26867.01
683.45	26967.65
683.59	26602.53
683.72	26686.79
683.86	26874.03
684.00	26448.05
684.13	26415.29
684.27	26216.34
684.41	26223.36
684.55	25942.50
684.68	25848.88
684.82	26087.61
684.96	25689.72
685.09	25521.20
685.23	25565.67
685.37	25425.24
685.50	25575.03
685.64	25460.35
685.78	25324.60
685.91	25228.63
686.05	25458.01
686.19	25439.28
686.32	25167.78
686.46	24833.08
686.60	24540.52
686.73	24746.48
686.87	24732.44
687.01	24940.75
687.14	24470.30
687.28	24482.00
687.42	24002.19
687.55	24182.42
687.69	24266.67
687.82	24418.81
687.96	24173.05
688.10	23882.83
688.23	24056.03
688.37	24100.50
688.50	23964.75
688.64	23541.11
688.78	23527.06
688.91	23644.09
689.05	23367.91
689.18	23129.17
689.32	22731.28
689.46	22906.82
689.59	23065.98
689.73	22677.45
689.86	22677.45
690.00	22808.52
690.13	23183.01
690.27	22801.50
690.41	22672.77
690.54	22551.06
690.68	22263.18
690.81	22658.73
690.95	22415.31
691.08	22492.55
691.22	22235.09
691.35	22333.39
691.49	22031.46
691.62	21928.48
691.76	21947.20
691.89	21399.52
692.03	21235.68
692.16	21013.33
692.30	21462.71
692.43	21174.83
692.57	21448.67
692.70	21193.55
692.84	21387.82
692.97	21214.62
693.11	20950.14
693.24	20915.03
693.38	20774.60
693.51	21067.16
693.65	20868.22
693.78	20519.48
693.92	20449.26
694.05	20601.40
694.19	20240.95
694.32	20105.20
694.45	20287.76
694.59	19908.60
694.72	19845.40
694.86	19889.87
694.99	19676.88
695.13	19770.51
695.26	19777.53
695.39	19281.33
695.53	19824.34
695.66	19697.95
695.80	19396.02
695.93	19707.31
696.07	19168.99
696.20	19419.42
696.33	19267.29
696.47	19101.11
696.60	19239.20
696.73	19077.71
696.87	18757.05
697.00	18651.73
697.14	18700.88
697.27	18171.92
697.40	18326.39
697.54	18146.17
697.67	18162.56
697.80	18326.39
697.94	18106.38
698.07	18164.90
698.21	17895.74
698.34	17811.48
698.47	18047.87
698.61	17671.04
698.74	17757.64
698.87	17668.70
699.01	17399.54
699.14	17502.53
699.27	17488.48
699.40	17184.21
699.54	17422.95
699.67	17114.00
699.80	17015.69
699.94	16971.22
700.07	16910.37
700.20	16468.01
700.34	16376.73
700.47	16510.14
700.60	16587.38
700.73	16634.19
700.87	16641.21
701.00	16252.68
701.13	16350.98
701.26	16423.54
701.40	16451.63
701.53	16437.58
701.66	16002.24
701.79	16107.57
701.93	16025.65
702.06	16030.33
702.19	15995.22
702.32	15829.04
702.46	15704.99
702.59	15604.35
702.72	15276.68
702.85	15573.92
702.99	15342.21
703.12	15499.03
703.25	15126.88
703.38	15276.68
703.51	15468.60
703.65	15129.22
703.78	14677.50
703.91	15000.49
704.04	15108.16
704.17	14878.79
704.31	14771.12
704.44	14831.97
704.57	14497.28
704.70	14548.77
704.83	14270.25
704.96	14511.32
705.10	14384.93
705.23	14176.62
>>>>>End Processed Spectral Data<<<<<
