SpectraSuite Data File
++++++++++++++++++++++++++++++++++++
Date: Fri Oct 04 11:40:03 GMT-05:00 2013
User: price-jones
Dark Spectrum Present: No
Reference Spectrum Present: No
Number of Sampled Component Spectra: 1
Spectrometers: USB2+H05261
Integration Time (usec): 100000 (USB2+H05261)
Spectra Averaged: 1 (USB2+H05261)
Boxcar Smoothing: 0 (USB2+H05261)
Correct for Electrical Dark: No (USB2+H05261)
Strobe/Lamp Enabled: No (USB2+H05261)
Correct for Detector Non-linearity: No (USB2+H05261)
Correct for Stray Light: No (USB2+H05261)
Number of Pixels in Processed Spectrum: 2048
>>>>>Begin Processed Spectral Data<<<<<
365.73	46.81
365.92	46.81
366.12	46.81
366.32	0.00
366.52	0.00
366.72	0.00
366.91	0.00
367.11	35.11
367.31	0.00
367.51	0.00
367.70	0.00
367.90	0.00
368.10	0.00
368.30	0.00
368.49	0.00
368.69	0.00
368.89	0.00
369.09	0.00
369.28	0.00
369.48	0.00
369.68	0.00
369.87	16.38
370.07	0.00
370.27	2.34
370.47	4.68
370.66	46.81
370.86	98.30
371.06	100.64
371.25	114.69
371.45	72.56
371.65	128.73
371.84	4.68
372.04	79.58
372.24	147.45
372.44	152.13
372.63	135.75
372.83	238.73
373.03	88.94
373.22	149.79
373.42	205.97
373.62	147.45
373.81	159.16
374.01	159.16
374.21	124.05
374.40	194.26
374.60	243.42
374.79	189.58
374.99	170.86
375.19	138.09
375.38	224.69
375.58	182.56
375.78	245.76
375.97	205.97
376.17	215.33
376.37	257.46
376.56	149.79
376.76	170.86
376.95	88.94
377.15	159.16
377.35	175.54
377.54	215.33
377.74	175.54
377.93	140.43
378.13	154.48
378.33	189.58
378.52	201.29
378.72	133.41
378.91	63.19
379.11	112.35
379.31	201.29
379.50	147.45
379.70	217.67
379.89	198.95
380.09	93.62
380.28	105.32
380.48	180.22
380.68	201.29
380.87	131.07
381.07	128.73
381.26	180.22
381.46	138.09
381.65	191.92
381.85	257.46
382.04	56.17
382.24	180.22
382.43	269.16
382.63	119.37
382.83	133.41
383.02	156.82
383.22	187.24
383.41	170.86
383.61	140.43
383.80	154.48
384.00	147.45
384.19	114.69
384.39	124.05
384.58	227.03
384.78	159.16
384.97	145.11
385.17	241.08
385.36	177.88
385.56	180.22
385.75	175.54
385.95	140.43
386.14	196.60
386.34	168.52
386.53	149.79
386.72	182.56
386.92	283.20
387.11	250.44
387.31	187.24
387.50	133.41
387.70	126.39
387.89	227.03
388.09	220.01
388.28	135.75
388.48	191.92
388.67	287.89
388.86	156.82
389.06	100.64
389.25	238.73
389.45	152.13
389.64	269.16
389.84	168.52
390.03	273.84
390.22	217.67
390.42	215.33
390.61	215.33
390.81	156.82
391.00	105.32
391.19	201.29
391.39	182.56
391.58	290.23
391.78	266.82
391.97	191.92
392.16	187.24
392.36	269.16
392.55	243.42
392.75	117.03
392.94	236.39
393.13	269.16
393.33	107.66
393.52	203.63
393.71	220.01
393.91	166.18
394.10	189.58
394.29	173.20
394.49	257.46
394.68	280.86
394.88	276.18
395.07	292.57
395.26	236.39
395.46	255.12
395.65	311.29
395.84	259.80
396.04	283.20
396.23	280.86
396.42	248.10
396.62	241.08
396.81	294.91
397.00	290.23
397.19	351.08
397.39	278.52
397.58	355.76
397.77	248.10
397.97	360.44
398.16	259.80
398.35	337.04
398.55	217.67
398.74	339.38
398.93	404.91
399.12	304.27
399.32	262.14
399.51	285.55
399.70	376.83
399.90	327.68
400.09	313.63
400.28	294.91
400.47	407.25
400.67	409.59
400.86	372.15
401.05	407.25
401.24	402.57
401.44	355.76
401.63	437.68
401.82	486.83
402.01	376.83
402.21	407.25
402.40	315.97
402.59	397.89
402.78	351.08
402.97	451.72
403.17	376.83
403.36	388.53
403.55	442.36
403.74	454.06
403.93	486.83
404.13	475.13
404.32	430.66
404.51	482.15
404.70	500.87
404.89	491.51
405.09	447.04
405.28	486.83
405.47	383.85
405.66	578.11
405.85	568.75
406.05	437.68
406.24	500.87
406.43	538.32
406.62	559.39
406.81	566.41
407.00	510.24
407.20	557.05
407.39	519.60
407.58	596.84
407.77	493.85
407.96	643.65
408.15	608.54
408.34	606.20
408.54	629.60
408.73	514.92
408.92	578.11
409.11	634.29
409.30	681.10
409.49	655.35
409.68	615.56
409.87	685.78
410.07	655.35
410.26	727.91
410.45	582.79
410.64	678.76
410.83	631.94
411.02	704.50
411.21	688.12
411.40	774.72
411.59	671.73
411.78	622.58
411.98	664.71
412.17	791.10
412.36	821.53
412.55	730.25
412.74	819.19
412.93	807.48
413.12	791.10
413.31	828.55
413.50	788.76
413.69	777.06
413.88	847.27
414.07	917.49
414.26	858.98
414.45	863.66
414.64	870.68
414.83	835.57
415.02	833.23
415.22	945.58
415.41	980.68
415.60	1022.81
415.79	959.62
415.98	1008.77
416.17	1060.26
416.36	999.41
416.55	992.39
416.74	978.34
416.93	1032.18
417.12	1093.03
417.31	997.07
417.50	1015.79
417.69	1132.82
417.88	1081.33
418.07	1062.60
418.26	1071.97
418.45	997.07
418.64	1184.31
418.83	1198.35
419.02	1186.65
419.21	1104.73
419.39	1121.12
419.58	1123.46
419.77	1226.44
419.96	1163.25
420.15	1193.67
420.34	1181.97
420.53	1160.91
420.72	1275.59
420.91	1259.21
421.10	1296.66
421.29	1320.06
421.48	1198.35
421.67	1287.29
421.86	1303.68
422.05	1191.33
422.24	1224.10
422.43	1238.14
422.61	1231.12
422.80	1235.80
422.99	1228.78
423.18	1188.99
423.37	1334.11
423.56	1277.93
423.75	1315.38
423.94	1294.32
424.13	1139.84
424.32	1235.80
424.50	1266.23
424.69	1315.38
424.88	1362.19
425.07	1299.00
425.26	1287.29
425.45	1287.29
425.64	1235.80
425.83	1345.81
426.01	1362.19
426.20	1329.42
426.39	1315.38
426.58	1303.68
426.77	1385.60
426.96	1406.66
427.15	1331.76
427.33	1364.53
427.52	1350.49
427.71	1441.77
427.90	1425.39
428.09	1394.96
428.28	1425.39
428.46	1369.21
428.65	1409.00
428.84	1516.67
429.03	1453.47
429.22	1341.13
429.40	1380.92
429.59	1507.30
429.78	1469.86
429.97	1373.89
430.16	1320.06
430.34	1458.15
430.53	1563.48
430.72	1465.18
430.91	1500.28
431.10	1409.00
431.28	1504.96
431.47	1565.82
431.66	1633.69
431.85	1479.22
432.03	1551.78
432.22	1727.32
432.41	1710.93
432.60	1547.09
432.79	1542.41
432.97	1575.18
433.16	1547.09
433.35	1621.99
433.54	1610.29
433.72	1743.70
433.91	1645.40
434.10	1617.31
434.28	1652.42
434.47	1596.25
434.66	1643.06
434.85	1621.99
435.03	1783.49
435.22	2029.24
435.41	2190.74
435.59	2202.44
435.78	2043.29
435.97	1783.49
436.16	1694.55
436.34	1776.47
436.53	1668.80
436.72	1776.47
436.90	1750.72
437.09	1685.19
437.28	1790.51
437.46	1678.16
437.65	1764.76
437.84	1750.72
438.02	1891.15
438.21	1858.39
438.40	1792.85
438.58	1825.62
438.77	1954.35
438.96	1834.98
439.14	1818.60
439.33	1977.75
439.52	1914.56
439.70	1977.75
439.89	2029.24
440.08	1952.01
440.26	1933.28
440.45	1984.77
440.63	1987.11
440.82	1949.67
441.01	1977.75
441.19	1966.05
441.38	1963.71
441.57	1926.26
441.75	2132.23
441.94	2094.78
442.12	2108.82
442.31	2125.21
442.50	2043.29
442.68	2059.67
442.87	2139.25
443.05	2118.18
443.24	2188.40
443.43	2181.38
443.61	2108.82
443.80	2188.40
443.98	2050.31
444.17	2043.29
444.35	2183.72
444.54	2232.87
444.73	2319.47
444.91	2167.34
445.10	2132.23
445.28	2181.38
445.47	2167.34
445.65	2195.42
445.84	2078.40
446.02	2111.16
446.21	2256.28
446.39	2183.72
446.58	2104.14
446.77	2275.00
446.95	2136.91
447.14	2134.57
447.32	2291.38
447.51	2338.20
447.69	2251.60
447.88	2307.77
448.06	2284.36
448.25	2155.63
448.43	2225.85
448.62	2246.91
448.80	2279.68
448.99	2249.25
449.17	2310.11
449.36	2223.51
449.54	2303.09
449.73	2312.45
449.91	2448.20
450.10	2293.72
450.28	2366.28
450.46	2242.23
450.65	2443.52
450.83	2363.94
451.02	2249.25
451.20	2434.16
451.39	2368.62
451.57	2385.01
451.76	2368.62
451.94	2441.18
452.13	2436.50
452.31	2406.07
452.49	2441.18
452.68	2410.75
452.86	2410.75
453.05	2530.12
453.23	2551.18
453.42	2485.65
453.60	2382.67
453.78	2450.54
453.97	2413.09
454.15	2452.88
454.34	2443.52
454.52	2511.39
454.70	2518.42
454.89	2525.44
455.07	2588.63
455.26	2541.82
455.44	2605.02
455.62	2551.18
455.81	2541.82
455.99	2609.70
456.17	2726.72
456.36	2588.63
456.54	2612.04
456.73	2761.83
456.91	2792.26
457.09	2640.12
457.28	2803.96
457.46	2761.83
457.64	2712.68
457.83	2623.74
458.01	2712.68
458.19	2743.11
458.38	2733.75
458.56	2949.08
458.74	2792.26
458.93	2675.23
459.11	2785.24
459.29	2794.60
459.48	2703.32
459.66	2801.62
459.84	2883.54
460.03	2813.32
460.21	2956.10
460.39	2974.82
460.57	2930.35
460.76	2888.22
460.94	2953.76
461.12	2906.95
461.31	2853.11
461.49	2801.62
461.67	2827.37
461.85	2913.97
462.04	2949.08
462.22	3382.07
462.40	2995.89
462.59	3014.61
462.77	2960.78
462.95	3061.42
463.13	2928.01
463.32	3002.91
463.50	3063.76
463.68	2986.52
463.86	3016.95
464.05	2993.55
464.23	3042.70
464.41	3096.53
464.59	3089.51
464.78	3073.12
464.96	3131.64
465.14	3007.59
465.32	3012.27
465.50	3246.32
465.69	3164.40
465.87	3059.08
466.05	3066.10
466.23	3204.19
466.41	3131.64
466.60	3302.50
466.78	3225.26
466.96	3103.55
467.14	3110.57
467.32	3262.71
467.51	3288.45
467.69	3213.56
467.87	3211.22
468.05	3269.73
468.23	3213.56
468.41	3272.07
468.60	3178.45
468.78	3159.72
468.96	3309.52
469.14	3225.26
469.32	3316.54
469.50	3208.87
469.69	3356.33
469.87	3288.45
470.05	3330.58
470.23	3344.63
470.41	3403.14
470.59	3398.46
470.77	3412.50
470.95	3428.88
471.14	3517.83
471.32	3344.63
471.50	3424.20
471.68	3543.57
471.86	3475.70
472.04	3529.53
472.22	3515.48
472.40	3524.85
472.58	3571.66
472.77	3566.98
472.95	3583.36
473.13	3744.86
473.31	3641.87
473.49	3613.79
473.67	3559.95
473.85	3543.57
474.03	3822.09
474.21	3765.92
474.39	3829.12
474.57	3700.39
474.75	3801.03
474.93	3859.54
475.12	3733.15
475.30	3672.30
475.48	3843.16
475.66	3847.84
475.84	3786.99
476.02	3908.69
476.20	3971.89
476.38	3983.59
476.56	3995.29
476.74	3955.51
476.92	3932.10
477.10	4018.70
477.28	4081.89
477.46	4117.00
477.64	4285.52
477.82	4201.26
478.00	4236.37
478.18	4236.37
478.36	4341.69
478.54	4255.09
478.72	4369.78
478.90	4500.85
479.08	4465.74
479.26	4496.17
479.44	4170.83
479.62	4517.23
479.80	4542.98
479.98	4568.73
480.16	4484.47
480.34	4592.13
480.52	4486.81
480.70	4744.27
480.88	4688.09
481.06	4744.27
481.24	4786.40
481.41	4741.93
481.59	4861.29
481.77	4882.36
481.95	4978.32
482.13	4877.68
482.31	4854.27
482.49	4950.23
482.67	4980.66
482.85	5081.30
483.03	5029.81
483.21	5177.26
483.39	5270.89
483.57	5345.78
483.74	5296.63
483.92	5399.62
484.10	5284.93
484.28	5509.62
484.46	5626.65
484.64	5617.29
484.82	5383.23
485.00	5593.88
485.18	5640.69
485.35	5844.32
485.53	5687.50
485.71	5799.85
485.89	5912.19
486.07	5799.85
486.25	5930.92
486.43	5996.45
486.61	5827.93
486.78	6036.24
486.96	5930.92
487.14	6164.97
487.32	6010.50
487.50	6291.36
487.68	6228.17
487.85	6181.35
488.03	6331.15
488.21	6347.53
488.39	6384.98
488.57	6478.60
488.75	6471.58
488.92	6846.07
489.10	6595.63
489.28	6806.28
489.46	6665.85
489.64	6567.54
489.81	7084.80
489.99	6785.21
490.17	6773.51
490.35	7131.61
490.53	7007.56
490.70	7075.44
490.88	7178.42
491.06	7192.47
491.24	7180.76
491.41	7208.85
491.59	7269.70
491.77	7201.83
491.95	7304.81
492.13	7379.71
492.30	7517.80
492.48	7368.01
492.66	7503.76
492.84	7480.35
493.01	7470.99
493.19	7456.95
493.37	7524.82
493.54	7529.50
493.72	7623.12
493.90	7669.94
494.08	7702.70
494.25	7782.28
494.43	7887.61
494.61	7918.03
494.79	8170.81
494.96	7768.24
495.14	8060.80
495.32	8013.99
495.49	8187.19
495.67	8262.09
495.85	8114.64
496.02	8344.01
496.20	8521.89
496.38	8215.28
496.55	8266.77
496.73	8470.40
496.91	8435.29
497.09	8664.66
497.26	8554.66
497.44	8514.87
497.62	8571.04
497.79	8720.84
497.97	8645.94
498.14	8788.71
498.32	8622.53
498.50	8933.82
498.67	9029.79
498.85	8805.10
499.03	9048.51
499.20	8966.59
499.38	8879.99
499.56	8847.22
499.73	9125.75
499.91	9092.98
500.08	9254.48
500.26	9296.61
500.44	9282.56
500.61	9303.63
500.79	9289.59
500.97	9467.47
501.14	9268.52
501.32	9282.56
501.49	9245.12
501.67	9446.40
501.84	9502.58
502.02	9437.04
502.20	9500.23
502.37	9467.47
502.55	9465.13
502.72	9778.76
502.90	9762.37
503.07	9514.28
503.25	9575.13
503.43	9699.18
503.60	9722.59
503.78	9856.00
503.95	9792.80
504.13	9811.53
504.30	9987.07
504.48	9844.29
504.65	9933.23
504.83	10038.56
505.01	10005.79
505.18	9963.66
505.36	9994.09
505.53	10050.26
505.71	10050.26
505.88	10078.35
506.06	10162.61
506.23	10277.29
506.41	10307.72
506.58	10438.79
506.76	10092.39
506.93	10537.09
507.11	10289.00
507.28	10476.24
507.46	10204.74
507.63	10487.94
507.81	10490.28
507.98	10579.22
508.16	10551.14
508.33	10640.08
508.50	10644.76
508.68	10684.55
508.85	10942.00
509.03	10853.06
509.20	10801.57
509.38	11059.03
509.55	10829.66
509.73	10888.17
509.90	11007.54
510.08	10981.79
510.25	10979.45
510.42	10925.62
510.60	11272.02
510.77	11290.74
510.95	11220.53
511.12	11068.39
511.30	11084.78
511.47	11239.25
511.64	11501.39
511.82	11353.94
511.99	11262.66
512.17	11295.43
512.34	11330.53
512.51	11463.94
512.69	11351.60
512.86	11527.14
513.04	11557.57
513.21	11559.91
513.38	11660.55
513.56	11541.18
513.73	11548.20
513.90	11740.13
514.08	11527.14
514.25	11756.51
514.43	11721.40
514.60	11985.88
514.77	11749.49
514.95	11859.49
515.12	11793.96
515.29	11763.53
515.47	11861.84
515.64	11934.39
515.81	11915.67
515.99	11992.90
516.16	12114.61
516.33	11950.78
516.51	12063.12
516.68	12046.74
516.85	12020.99
517.03	12070.14
517.20	12229.30
517.37	12400.16
517.54	12266.75
517.72	12439.95
517.89	12009.29
518.06	12362.71
518.24	12493.78
518.41	12290.15
518.58	12475.06
518.75	12475.06
518.93	12079.50
519.10	12489.10
519.27	12409.52
519.45	12486.76
519.62	12486.76
519.79	12641.23
519.96	12627.19
520.14	12510.16
520.31	12676.34
520.48	12571.02
520.65	12727.83
520.83	12608.47
521.00	12957.21
521.17	12470.37
521.34	12643.57
521.52	12861.24
521.69	12894.01
521.86	12959.55
522.03	12950.18
522.20	12994.65
522.38	13177.22
522.55	13114.02
522.72	13167.85
522.89	12898.69
523.07	13209.98
523.24	12996.99
523.41	13296.58
523.58	12884.65
523.75	13270.84
523.92	13043.81
524.10	13081.25
524.27	13191.26
524.44	13235.73
524.61	13362.12
524.78	13118.70
524.96	13624.26
525.13	13544.68
525.30	13380.84
525.47	13563.40
525.64	13509.57
525.81	13441.70
525.98	13593.83
526.16	13701.50
526.33	13701.50
526.50	13650.00
526.67	13535.32
526.84	13348.08
527.01	13399.57
527.18	13760.01
527.36	13802.14
527.53	13778.73
527.70	13935.55
527.87	13767.03
528.04	13902.78
528.21	13633.62
528.38	13706.18
528.55	13914.48
528.72	13764.69
528.89	13947.25
529.07	13781.07
529.24	13734.26
529.41	14045.55
529.58	13898.10
529.75	13989.38
529.92	14090.02
530.09	13989.38
530.26	14005.77
530.43	13956.61
530.60	14169.60
530.77	14239.82
530.94	14118.11
531.11	14258.54
531.28	14317.06
531.46	14047.90
531.63	14136.84
531.80	14382.59
531.97	14485.58
532.14	14406.00
532.31	14228.12
532.48	14478.55
532.65	14265.57
532.82	13963.64
532.99	14452.81
533.16	14429.40
533.33	14436.42
533.50	14642.39
533.67	14455.15
533.84	14303.01
534.01	14415.36
534.18	14450.47
534.35	14546.43
534.52	14232.80
534.69	14492.60
534.86	14513.66
535.03	14506.64
535.20	14558.13
535.37	14630.69
535.54	14668.14
535.71	14640.05
535.88	14717.29
536.05	14658.78
536.22	14888.15
536.38	14836.66
536.55	14827.29
536.72	14876.44
536.89	14972.41
537.06	14768.78
537.23	15084.75
537.40	14981.77
537.57	14768.78
537.74	14743.03
537.91	14988.79
538.08	15049.64
538.25	14677.50
538.42	15075.39
538.59	15248.59
538.75	14782.82
538.92	14953.68
539.09	15377.32
539.26	14892.83
539.43	15321.15
539.60	15176.03
539.77	15318.81
539.94	15665.21
540.11	15314.13
540.28	15264.97
540.44	15454.56
540.61	15492.01
540.78	15693.29
540.95	15632.44
541.12	15796.28
541.29	15770.53
541.46	15740.10
541.62	15618.39
541.79	15903.94
541.96	15676.91
542.13	15840.75
542.30	15616.05
542.47	15618.39
542.63	15957.77
542.80	16098.20
542.97	15875.85
543.14	16058.42
543.31	16173.10
543.48	15948.41
543.64	16105.23
543.81	15875.85
543.98	16065.44
544.15	16320.56
544.32	15807.98
544.48	16243.32
544.65	15953.09
544.82	16039.69
544.99	16016.29
545.16	16121.61
545.32	16390.77
545.49	16535.88
545.66	16968.88
545.83	17631.26
546.00	17383.16
546.16	16716.11
546.33	16519.50
546.50	16114.59
546.67	16088.84
546.83	15913.30
547.00	16170.76
547.17	16313.53
547.34	16184.80
547.50	16070.12
547.67	16362.69
547.84	16290.13
548.00	16074.80
548.17	16121.61
548.34	15786.91
548.51	16201.19
548.67	16194.17
548.84	16318.22
549.01	16161.40
549.18	16294.81
549.34	16360.34
549.51	16189.49
549.68	16365.03
549.84	15899.26
550.01	16086.50
550.18	16212.89
550.34	16566.31
550.51	16568.65
550.68	16306.51
550.84	16320.56
551.01	16128.63
551.18	16315.87
551.34	16252.68
551.51	16306.51
551.68	16140.33
551.84	16299.49
552.01	16126.29
552.18	16238.64
552.34	16194.17
552.51	16444.60
552.68	16400.13
552.84	16168.42
553.01	16233.96
553.18	16238.64
553.34	16652.91
553.51	16453.97
553.67	16313.53
553.84	16617.80
554.01	16533.54
554.17	16549.93
554.34	16168.42
554.51	16145.02
554.67	16521.84
554.84	16498.44
555.00	16435.24
555.17	16458.65
555.33	16655.25
555.50	16381.41
555.67	16479.71
555.83	16259.70
556.00	16388.43
556.16	16713.77
556.33	16496.10
556.50	16493.76
556.66	16755.90
556.83	16238.64
556.99	16807.39
557.16	16645.89
557.32	16524.18
557.49	16599.08
557.65	16313.53
557.82	16308.85
557.98	16521.84
558.15	16652.91
558.32	16580.36
558.48	16578.01
558.65	16791.00
558.81	16702.06
558.98	16393.11
559.14	16519.50
559.31	16489.07
559.47	16767.60
559.64	16753.55
559.80	16582.70
559.97	16575.67
560.13	16449.28
560.30	16589.72
560.46	16968.88
560.63	16673.98
560.79	16666.95
560.96	16718.45
561.12	16620.14
561.29	16753.55
561.45	16547.59
561.61	16781.64
561.78	16882.28
561.94	16704.40
562.11	16650.57
562.27	16779.30
562.44	16886.97
562.60	16776.96
562.77	16652.91
562.93	16688.02
563.10	16697.38
563.26	16989.95
563.42	16781.64
563.59	16812.07
563.75	16723.13
563.92	16753.55
564.08	16720.79
564.24	16968.88
564.41	16671.64
564.57	16786.32
564.74	16786.32
564.90	16903.35
565.07	16823.77
565.23	16561.63
565.39	16901.01
565.56	16783.98
565.72	16987.61
565.88	16535.88
566.05	17020.38
566.21	16673.98
566.38	16627.17
566.54	16781.64
566.70	16695.04
566.87	16896.33
567.03	16807.39
567.19	16816.75
567.36	17062.51
567.52	16713.77
567.68	16641.21
567.85	16573.33
568.01	16673.98
568.17	16493.76
568.34	16940.80
568.50	17036.76
568.66	16849.52
568.83	16994.63
568.99	16807.39
569.15	16886.97
569.32	16734.83
569.48	16910.37
569.64	16819.09
569.81	16812.07
569.97	16755.90
570.13	16851.86
570.30	16809.73
570.46	16896.33
570.62	16912.71
570.78	16725.47
570.95	16978.25
571.11	16936.12
571.27	16697.38
571.43	16868.24
571.60	16910.37
571.76	16912.71
571.92	17095.27
572.09	16877.60
572.25	16917.39
572.41	16863.56
572.57	16622.48
572.74	17039.10
572.90	17177.19
573.06	16659.93
573.22	16781.64
573.38	16929.09
573.55	17029.74
573.71	17345.71
573.87	16828.45
574.03	16971.22
574.20	16835.47
574.36	16828.45
574.52	16957.18
574.68	17022.72
574.84	17034.42
575.01	16830.79
575.17	16982.93
575.33	16786.32
575.49	16870.58
575.65	17041.44
575.82	17341.03
575.98	16945.48
576.14	17032.08
576.30	16917.39
576.46	17165.49
576.62	16973.56
576.79	17104.64
576.95	17092.93
577.11	16980.59
577.27	16884.62
577.43	17123.36
577.59	16833.13
577.75	16718.45
577.92	16975.91
578.08	16915.05
578.24	17011.01
578.40	17238.05
578.56	17221.66
578.72	17249.75
578.88	17312.94
579.04	17301.24
579.21	16952.50
579.37	17125.70
579.53	17151.45
579.69	16915.05
579.85	16807.39
580.01	16915.05
580.17	17001.65
580.33	17015.69
580.49	16994.63
580.65	16910.37
580.82	17034.42
580.98	16968.88
581.14	17139.74
581.30	17160.81
581.46	16758.24
581.62	16910.37
581.78	16985.27
581.94	17039.10
582.10	17013.35
582.26	17160.81
582.42	16919.73
582.58	17048.46
582.74	17046.12
582.90	17165.49
583.06	17088.25
583.22	17156.13
583.38	17245.07
583.54	17053.14
583.70	17149.11
583.86	17020.38
584.02	17092.93
584.18	17099.95
584.34	17125.70
584.50	17376.14
584.66	17228.68
584.82	17247.41
584.98	17118.68
585.14	16933.78
585.30	17186.55
585.46	17069.53
585.62	17104.64
585.78	17125.70
585.94	17263.79
586.10	17284.86
586.26	17050.80
586.42	17336.35
586.58	17268.47
586.74	17088.25
586.90	17214.64
587.06	16692.70
587.22	17298.90
587.38	16952.50
587.54	17308.26
587.70	17319.96
587.86	17338.69
588.02	17261.45
588.18	17050.80
588.34	17163.15
588.49	17011.01
588.65	17099.95
588.81	16889.31
588.97	17022.72
589.13	16835.47
589.29	17125.70
589.45	17266.13
589.61	16835.47
589.77	17322.30
589.93	16987.61
590.08	17235.70
590.24	17214.64
590.40	17371.46
590.56	17027.40
590.72	17369.12
590.88	16992.29
591.04	17029.74
591.20	17139.74
591.35	17448.69
591.51	17422.95
591.67	17179.53
591.83	17055.48
591.99	17298.90
592.15	17184.21
592.31	17216.98
592.46	17137.40
592.62	17238.05
592.78	17167.83
592.94	17165.49
593.10	17247.41
593.26	17497.84
593.41	17413.59
593.57	17420.61
593.73	17308.26
593.89	17139.74
594.05	17106.98
594.20	17216.98
594.36	16760.58
594.52	17074.21
594.68	17198.26
594.84	16681.00
594.99	17249.75
595.15	17233.36
595.31	17394.86
595.47	17118.68
595.62	17425.29
595.78	17216.98
595.94	17078.89
596.10	17345.71
596.25	17228.68
596.41	16886.97
596.57	16776.96
596.73	17025.06
596.88	17125.70
597.04	17240.39
597.20	16800.37
597.36	17284.86
597.51	17242.73
597.67	17114.00
597.83	17224.00
597.99	17224.00
598.14	17085.91
598.30	17106.98
598.46	17177.19
598.61	17156.13
598.77	16978.25
598.93	17153.79
599.09	17322.30
599.24	17500.19
599.40	17247.41
599.56	17385.50
599.71	17032.08
599.87	17369.12
600.03	17106.98
600.18	17074.21
600.34	17275.49
600.50	17411.25
600.65	17373.80
600.81	17315.28
600.97	17289.54
601.12	17336.35
601.28	17481.46
601.44	17364.43
601.59	17043.78
601.75	17088.25
601.91	17095.27
602.06	17041.44
602.22	17254.43
602.37	17228.68
602.53	17186.55
602.69	17413.59
602.84	17212.30
603.00	16809.73
603.16	17259.11
603.31	17074.21
603.47	17261.45
603.62	16762.92
603.78	17341.03
603.94	16861.22
604.09	17326.99
604.25	16786.32
604.40	17067.19
604.56	16893.99
604.71	17415.93
604.87	16971.22
605.03	16828.45
605.18	17032.08
605.34	17261.45
605.49	16872.92
605.65	17207.62
605.80	16919.73
605.96	17282.52
606.12	16912.71
606.27	16929.09
606.43	17039.10
606.58	17046.12
606.74	17193.58
606.89	17259.11
607.05	17235.70
607.20	17111.66
607.36	16854.20
607.51	16879.94
607.67	17064.85
607.82	16933.78
607.98	17032.08
608.13	17195.92
608.29	16783.98
608.44	17011.01
608.60	16947.82
608.75	17123.36
608.91	16891.65
609.06	16938.46
609.22	17172.51
609.37	16989.95
609.53	17106.98
609.68	17013.35
609.84	16926.75
609.99	17041.44
610.15	17195.92
610.30	17420.61
610.46	17359.75
610.61	17778.71
610.76	18197.67
610.92	18455.12
611.07	18506.62
611.23	18270.22
611.38	18359.16
611.54	18141.49
611.69	17783.39
611.84	17310.60
612.00	17563.38
612.15	17596.15
612.31	17144.42
612.46	17149.11
612.62	16851.86
612.77	17142.08
612.92	17366.78
613.08	16975.91
613.23	17046.12
613.39	16753.55
613.54	16950.16
613.69	16950.16
613.85	17018.04
614.00	16795.68
614.15	17184.21
614.31	17102.29
614.46	17191.23
614.62	16893.99
614.77	16849.52
614.92	17041.44
615.08	16779.30
615.23	16695.04
615.38	16884.62
615.54	16685.68
615.69	16285.45
615.84	16599.08
616.00	16505.46
616.15	16538.23
616.30	16676.32
616.46	16573.33
616.61	16791.00
616.76	16589.72
616.92	16587.38
617.07	16463.33
617.22	16159.06
617.37	16400.13
617.53	16673.98
617.68	16533.54
617.83	16201.19
617.99	16304.17
618.14	16561.63
618.29	16552.27
618.45	16446.94
618.60	16563.97
618.75	16500.78
618.90	16404.81
619.06	16353.32
619.21	16262.04
619.36	16311.19
619.51	16358.00
619.67	16215.23
619.82	16072.46
619.97	16732.49
620.12	16397.79
620.28	16095.86
620.43	16444.60
620.58	16170.76
620.73	16215.23
620.89	16423.54
621.04	16664.61
621.19	16400.13
621.34	16308.85
621.49	16098.20
621.65	16137.99
621.80	16184.80
621.95	16002.24
622.10	16355.66
622.25	16222.25
622.41	16236.30
622.56	16135.65
622.71	16250.34
622.86	16196.51
623.01	16128.63
623.16	16341.62
623.32	16315.87
623.47	15845.43
623.62	16248.00
623.77	16217.57
623.92	15995.22
624.07	16079.48
624.23	16142.67
624.38	16102.89
624.53	16329.92
624.68	16013.95
624.83	15845.43
624.98	16327.58
625.13	16142.67
625.29	15943.73
625.44	16203.53
625.59	16173.10
625.74	15960.11
625.89	15826.70
626.04	15590.31
626.19	16077.14
626.34	15744.78
626.49	15906.28
626.65	15819.68
626.80	15889.90
626.95	15913.30
627.10	15878.19
627.25	15826.70
627.40	15566.90
627.55	15791.59
627.70	15906.28
627.85	15707.34
628.00	15871.17
628.15	15477.96
628.30	15433.49
628.45	15840.75
628.60	15623.08
628.76	16006.92
628.91	15981.18
629.06	15543.50
629.21	15765.85
629.36	15824.36
629.51	15611.37
629.66	15578.61
629.81	15461.58
629.96	15513.07
630.11	15536.48
630.26	15599.67
630.41	15405.41
630.56	15831.38
630.71	15597.33
630.86	15655.84
631.01	15847.77
631.16	15468.60
631.31	15775.21
631.46	15599.67
631.61	15534.14
631.76	15634.78
631.91	15363.28
632.06	15529.45
632.21	15522.43
632.36	15183.06
632.51	15316.47
632.66	15150.29
632.81	15365.62
632.96	15323.49
633.10	15262.63
633.25	15126.88
633.40	15211.14
633.55	15506.05
633.70	15208.80
633.85	15398.38
634.00	15243.91
634.15	15222.84
634.30	15192.42
634.45	15342.21
634.60	15269.66
634.75	15147.95
634.90	15295.40
635.05	15115.18
635.19	15187.74
635.34	15414.77
635.49	15229.87
635.64	14967.73
635.79	15208.80
635.94	15344.55
636.09	15208.80
636.24	15178.37
636.39	15021.56
636.53	15190.08
636.68	15082.41
636.83	14913.89
636.98	15307.10
637.13	14953.68
637.28	14988.79
637.43	15105.82
637.57	15211.14
637.72	14750.06
637.87	15307.10
638.02	14972.41
638.17	15297.74
638.32	14979.43
638.46	14881.13
638.61	15267.31
638.76	14733.67
638.91	15131.56
639.06	14902.19
639.20	15101.14
639.35	14986.45
639.50	14724.31
639.65	14967.73
639.80	14890.49
639.94	14883.47
640.09	15000.49
640.24	14967.73
640.39	15056.67
640.54	14623.67
640.68	14981.77
640.83	15009.86
640.98	14806.23
641.13	14600.26
641.27	14836.66
641.42	14705.59
641.57	14747.72
641.72	14764.10
641.86	14684.52
642.01	14600.26
642.16	14738.35
642.31	14757.08
642.45	14862.40
642.60	14607.28
642.75	14324.08
642.90	14810.91
643.04	14560.47
643.19	14771.12
643.34	14611.96
643.48	14618.99
643.63	14850.70
643.78	14747.72
643.93	14691.54
644.07	14834.32
644.22	14476.21
644.37	14408.34
644.51	14654.09
644.66	14508.98
644.81	14618.99
644.95	14621.33
645.10	14677.50
645.25	14342.80
645.39	14520.68
645.54	14572.18
645.69	14586.22
645.83	14635.37
645.98	14272.59
646.13	14743.03
646.27	14843.68
646.42	14511.32
646.57	14633.03
646.71	14431.74
646.86	14651.75
647.00	14441.11
647.15	14621.33
647.30	14628.35
647.44	14317.06
647.59	14382.59
647.74	14176.62
647.88	14487.92
648.03	14696.22
648.17	14766.44
648.32	14525.36
648.47	14408.34
648.61	14611.96
648.76	14401.32
648.90	14450.47
649.05	14506.64
649.20	14132.15
649.34	14211.73
649.49	14497.28
649.63	14373.23
649.78	14422.38
649.92	14471.53
650.07	14307.69
650.21	14354.51
650.36	14518.34
650.51	14295.99
650.65	14218.75
650.80	14607.28
650.94	14520.68
651.09	14162.58
651.23	14204.71
651.38	14129.81
651.52	14373.23
651.67	13965.98
651.81	14239.82
651.96	14260.88
652.10	14160.24
652.25	14211.73
652.39	14080.66
652.54	14242.16
652.68	14214.07
652.83	14190.67
652.97	14307.69
653.12	14391.95
653.26	14059.60
653.41	14108.75
653.55	14171.94
653.70	13919.17
653.84	14033.85
653.99	14188.33
654.13	14136.84
654.27	14127.47
654.42	13874.70
654.56	14052.58
654.71	14171.94
654.85	14050.24
655.00	14083.00
655.14	14221.10
655.29	14017.47
655.43	14115.77
655.57	13785.76
655.72	13961.30
655.86	13968.32
656.01	13951.93
656.15	13933.21
656.30	13958.96
656.44	13816.18
656.58	13858.31
656.73	14005.77
656.87	13942.57
657.01	13675.75
657.16	14040.87
657.30	13958.96
657.45	14015.13
657.59	13874.70
657.73	13703.84
657.88	13687.45
658.02	13743.63
658.16	13619.58
658.31	14024.49
658.45	13682.77
658.60	13521.27
658.74	13514.25
658.88	13408.93
659.03	13642.98
659.17	13767.03
659.31	13570.43
659.46	13760.01
659.60	13898.10
659.74	13722.56
659.89	13490.85
660.03	13652.34
660.17	13767.03
660.32	13561.06
660.46	13287.22
660.60	13577.45
660.74	13544.68
660.89	13465.10
661.03	13125.72
661.17	13514.25
661.32	13598.51
661.46	13607.87
661.60	13266.16
661.74	13528.30
661.89	13158.49
662.03	13383.18
662.17	13481.49
662.31	13404.25
662.46	13422.97
662.60	13305.95
662.74	13188.92
662.88	13270.84
663.03	13099.98
663.17	13128.06
663.31	13224.03
663.45	13160.83
663.60	13348.08
663.74	13060.19
663.88	13198.28
664.02	13186.58
664.17	13256.79
664.31	13174.88
664.45	13207.64
664.59	13198.28
664.73	13135.09
664.88	13144.45
665.02	12837.84
665.16	13020.40
665.30	12842.52
665.44	13081.25
665.59	12875.29
665.73	12751.24
665.87	13107.00
666.01	12952.52
666.15	12999.34
666.29	12858.90
666.44	12854.22
666.58	12973.59
666.72	12908.05
666.86	12910.40
667.00	12779.32
667.14	12688.04
667.28	12870.61
667.43	12781.67
667.57	12739.54
667.71	12919.76
667.85	12830.82
667.99	12594.42
668.13	12776.98
668.27	12416.54
668.41	12500.80
668.56	12451.65
668.70	12629.53
668.84	12578.04
668.98	12573.36
669.12	12575.70
669.26	12681.02
669.40	12596.76
669.54	12449.31
669.68	12463.35
669.82	12121.63
669.96	12343.99
670.10	12404.84
670.25	12276.11
670.39	12138.02
670.53	12212.92
670.67	12245.68
670.81	12315.90
670.95	12170.79
671.09	12470.37
671.23	12367.39
671.37	12201.21
671.51	12266.75
671.65	12154.40
671.79	11999.93
671.93	11878.22
672.07	12065.46
672.21	12037.38
672.35	11871.20
672.49	12091.21
672.63	11815.02
672.77	11948.43
672.91	11707.36
673.05	11864.18
673.19	11875.88
673.33	11915.67
673.47	11918.01
673.61	11901.62
673.75	11751.83
673.89	11805.66
674.03	11587.99
674.17	11681.61
674.31	11845.45
674.45	11587.99
674.59	11651.19
674.73	11489.69
674.87	11400.75
675.01	11695.66
675.15	11541.18
675.29	11571.61
675.43	11686.29
675.56	11442.88
675.70	11681.61
675.84	11674.59
675.98	11061.37
676.12	11407.77
676.26	11485.01
676.40	11176.06
676.54	11192.44
676.68	11192.44
676.82	10817.96
676.96	11016.90
677.10	11222.87
677.23	11225.21
677.37	11094.14
677.51	10817.96
677.65	10986.47
677.79	11073.07
677.93	11087.12
678.07	10920.94
678.21	10794.55
678.34	10974.77
678.48	10932.64
678.62	10782.85
678.76	10951.37
678.90	10700.93
679.04	10712.63
679.18	10799.23
679.31	10824.98
679.45	10602.63
679.59	10551.14
679.73	10572.20
679.87	10420.06
680.00	10384.96
680.14	10420.06
680.28	10569.86
680.42	10298.36
680.56	10324.10
680.70	10298.36
680.83	10382.62
680.97	10445.81
681.11	10455.17
681.25	10164.95
681.39	10289.00
681.52	10361.55
681.66	10293.68
681.80	9809.19
681.94	10108.77
682.07	10284.31
682.21	10005.79
682.35	9858.34
682.49	10019.83
682.62	9799.82
682.76	9940.26
682.90	9844.29
683.04	9863.02
683.17	9872.38
683.31	9895.78
683.45	10061.96
683.59	9919.19
683.72	9806.84
683.86	9727.27
684.00	9640.67
684.13	9834.93
684.27	9603.22
684.41	9554.07
684.55	9572.79
684.68	9469.81
684.82	9453.42
684.96	9343.42
685.09	9434.70
685.23	9184.26
685.37	9408.95
685.50	9320.01
685.64	9469.81
685.78	9245.12
685.91	9298.95
686.05	9404.27
686.19	9317.67
686.32	9107.02
686.46	9029.79
686.60	8903.40
686.73	9160.86
686.87	8905.74
687.01	9036.81
687.14	9053.19
687.28	8791.05
687.42	9083.62
687.55	8959.57
687.69	9025.11
687.82	8758.28
687.96	8905.74
688.10	8877.65
688.23	8926.80
688.37	8922.12
688.50	8985.32
688.64	8805.10
688.78	8587.43
688.91	8512.53
689.05	8652.96
689.18	8496.14
689.32	8425.93
689.46	8402.52
689.59	8414.23
689.73	8507.85
689.86	8369.76
690.00	8322.94
690.13	8257.41
690.27	8278.47
690.41	8306.56
690.54	8301.88
690.68	8379.12
690.81	8336.99
690.95	8238.69
691.08	8184.85
691.22	8032.72
691.35	8002.29
691.49	8271.45
691.62	8072.51
691.76	8013.99
691.89	7939.10
692.03	7843.14
692.16	7782.28
692.30	7896.97
692.43	7808.03
692.57	7653.55
692.70	7705.04
692.84	7723.77
692.97	7817.39
693.11	7889.95
693.24	7655.89
693.38	7552.91
693.51	7597.38
693.65	7616.10
693.78	7630.15
693.92	7676.96
694.05	7531.84
694.19	7667.60
694.32	7396.09
694.45	7171.40
694.59	7311.83
694.72	7440.56
694.86	7452.27
694.99	7328.22
695.13	7288.43
695.26	7346.94
695.39	7222.89
695.53	7101.19
695.66	7269.70
695.80	7283.75
695.93	7140.97
696.07	7311.83
696.20	7166.72
696.33	7124.59
696.47	6930.33
696.60	7005.22
696.73	7070.76
696.87	6895.22
697.00	7234.60
697.14	6942.03
697.27	6773.51
697.40	6843.73
697.54	6628.40
697.67	6675.21
697.80	6640.10
697.94	6757.13
698.07	6766.49
698.21	6810.96
698.34	6764.15
698.47	6527.75
698.61	6537.12
698.74	6328.81
698.87	6548.82
699.01	6518.39
699.14	6427.11
699.27	6483.28
699.40	6494.99
699.54	6249.23
699.67	6361.58
699.80	6387.32
699.94	6200.08
700.07	6200.08
700.20	6324.13
700.34	6298.38
700.47	6183.70
700.60	6195.40
700.73	6244.55
700.87	6111.14
701.00	6092.41
701.13	6038.58
701.26	6146.25
701.40	6050.28
701.53	6059.65
701.66	5994.11
701.79	6066.67
701.93	5879.43
702.06	5860.70
702.19	6022.20
702.32	5844.32
702.46	5724.95
702.59	5729.63
702.72	5774.10
702.85	5710.91
702.99	5708.57
703.12	5652.39
703.25	5619.63
703.38	5626.65
703.51	5774.10
703.65	5687.50
703.78	5628.99
703.91	5575.16
704.04	5624.31
704.17	5582.18
704.31	5458.13
704.44	5350.46
704.57	5406.64
704.70	5373.87
704.83	5345.78
704.96	5359.83
705.10	5350.46
705.23	5219.39
>>>>>End Processed Spectral Data<<<<<
