SpectraSuite Data File
++++++++++++++++++++++++++++++++++++
Date: Fri Oct 04 11:39:16 GMT-05:00 2013
User: price-jones
Dark Spectrum Present: No
Reference Spectrum Present: No
Number of Sampled Component Spectra: 1
Spectrometers: USB2+H05261
Integration Time (usec): 100000 (USB2+H05261)
Spectra Averaged: 1 (USB2+H05261)
Boxcar Smoothing: 0 (USB2+H05261)
Correct for Electrical Dark: No (USB2+H05261)
Strobe/Lamp Enabled: No (USB2+H05261)
Correct for Detector Non-linearity: No (USB2+H05261)
Correct for Stray Light: No (USB2+H05261)
Number of Pixels in Processed Spectrum: 2048
>>>>>Begin Processed Spectral Data<<<<<
365.73	100.64
365.92	100.64
366.12	100.64
366.32	0.00
366.52	0.00
366.72	0.00
366.91	0.00
367.11	0.00
367.31	0.00
367.51	0.00
367.70	0.00
367.90	9.36
368.10	0.00
368.30	0.00
368.49	0.00
368.69	0.00
368.89	0.00
369.09	0.00
369.28	7.02
369.48	0.00
369.68	0.00
369.87	0.00
370.07	39.79
370.27	86.60
370.47	35.11
370.66	142.77
370.86	220.01
371.06	325.33
371.25	301.93
371.45	203.63
371.65	285.55
371.84	292.57
372.04	332.36
372.24	259.80
372.44	290.23
372.63	248.10
372.83	418.96
373.03	313.63
373.22	315.97
373.42	337.04
373.62	337.04
373.81	294.91
374.01	344.06
374.21	276.18
374.40	339.38
374.60	402.57
374.79	346.40
374.99	444.70
375.19	404.91
375.38	407.25
375.58	381.51
375.78	395.55
375.97	395.55
376.17	327.68
376.37	301.93
376.56	411.93
376.76	449.38
376.95	318.31
377.15	416.62
377.35	386.19
377.54	409.59
377.74	493.85
377.93	327.68
378.13	402.57
378.33	411.93
378.52	395.55
378.72	421.30
378.91	451.72
379.11	369.80
379.31	423.64
379.50	390.87
379.70	493.85
379.89	383.85
380.09	358.10
380.28	360.44
380.48	418.96
380.68	409.59
380.87	437.68
381.07	437.68
381.26	503.22
381.46	486.83
381.65	369.80
381.85	416.62
382.04	433.00
382.24	512.58
382.43	442.36
382.63	376.83
382.83	414.27
383.02	505.56
383.22	514.92
383.41	491.51
383.61	505.56
383.80	528.96
384.00	461.09
384.19	465.77
384.39	425.98
384.58	491.51
384.78	528.96
384.97	519.60
385.17	575.77
385.36	465.77
385.56	552.37
385.75	578.11
385.95	477.47
386.14	533.64
386.34	601.52
386.53	479.81
386.72	554.71
386.92	561.73
387.11	557.05
387.31	582.79
387.50	498.53
387.70	498.53
387.89	517.26
388.09	496.19
388.28	580.45
388.48	610.88
388.67	578.11
388.86	531.30
389.06	547.69
389.25	620.24
389.45	650.67
389.64	585.13
389.84	662.37
390.03	622.58
390.22	688.12
390.42	599.18
390.61	559.39
390.81	552.37
391.00	667.05
391.19	587.47
391.39	643.65
391.58	650.67
391.78	685.78
391.97	648.33
392.16	688.12
392.36	582.79
392.55	681.10
392.75	704.50
392.94	660.03
393.13	676.41
393.33	629.60
393.52	758.33
393.71	739.61
393.91	702.16
394.10	629.60
394.29	748.97
394.49	667.05
394.68	861.32
394.88	734.93
395.07	751.31
395.26	763.01
395.46	760.67
395.65	840.25
395.84	791.10
396.04	767.70
396.23	795.78
396.42	737.27
396.62	730.25
396.81	858.98
397.00	847.27
397.19	812.17
397.39	830.89
397.58	882.38
397.77	777.06
397.97	795.78
398.16	851.96
398.35	950.26
398.55	802.80
398.74	821.53
398.93	802.80
399.12	952.60
399.32	798.12
399.51	891.74
399.70	950.26
399.90	1004.09
400.09	924.51
400.28	1022.81
400.47	933.87
400.67	999.41
400.86	1050.90
401.05	1067.28
401.24	964.30
401.44	1020.47
401.63	1020.47
401.82	1043.88
402.01	1015.79
402.21	1067.28
402.40	1053.24
402.59	1039.20
402.78	1093.03
402.97	1111.75
403.17	1114.10
403.36	1086.01
403.55	1071.97
403.74	1177.29
403.93	1153.88
404.13	1156.22
404.32	1247.51
404.51	1259.21
404.70	1284.95
404.89	1196.01
405.09	1259.21
405.28	1191.33
405.47	1203.04
405.66	1303.68
405.85	1320.06
406.05	1280.27
406.24	1135.16
406.43	1299.00
406.62	1284.95
406.81	1453.47
407.00	1310.70
407.20	1324.74
407.39	1401.98
407.58	1390.28
407.77	1397.30
407.96	1336.45
408.15	1418.36
408.34	1467.52
408.54	1603.27
408.73	1509.65
408.92	1444.11
409.11	1472.20
409.30	1591.56
409.49	1617.31
409.68	1600.93
409.87	1472.20
410.07	1514.33
410.26	1624.33
410.45	1710.93
410.64	1519.01
410.83	1640.72
411.02	1624.33
411.21	1694.55
411.40	1680.50
411.59	1638.38
411.78	1727.32
411.98	1696.89
412.17	1802.21
412.36	1806.89
412.55	1809.23
412.74	1886.47
412.93	1874.77
413.12	1834.98
413.31	1909.88
413.50	1886.47
413.69	2031.58
413.88	1935.62
414.07	1923.92
414.26	1935.62
414.45	2054.99
414.64	1944.99
414.83	2066.69
415.02	2029.24
415.22	2094.78
415.41	2134.57
415.60	2181.38
415.79	2193.08
415.98	2169.68
416.17	2197.76
416.36	2193.08
416.55	2204.78
416.74	2328.83
416.93	2223.51
417.12	2246.91
417.31	2324.15
417.50	2443.52
417.69	2314.79
417.88	2326.49
418.07	2338.20
418.26	2392.03
418.45	2326.49
418.64	2434.16
418.83	2459.90
419.02	2492.67
419.21	2597.99
419.39	2492.67
419.58	2506.71
419.77	2593.31
419.96	2609.70
420.15	2675.23
420.34	2574.59
420.53	2637.78
420.72	2675.23
420.91	2605.02
421.10	2672.89
421.29	2612.04
421.48	2637.78
421.67	2799.28
421.86	2593.31
422.05	2787.58
422.24	2818.00
422.43	2731.41
422.61	2745.45
422.80	2981.84
422.99	2848.43
423.18	2911.63
423.37	2890.56
423.56	2792.26
423.75	2930.35
423.94	2719.70
424.13	2583.95
424.32	2780.56
424.50	2818.00
424.69	2813.32
424.88	2839.07
425.07	2780.56
425.26	2808.64
425.45	2785.24
425.64	2834.39
425.83	3021.63
426.01	2836.73
426.20	2878.86
426.39	2942.05
426.58	2850.77
426.77	2913.97
426.96	2949.08
427.15	3052.06
427.33	2871.84
427.52	2946.73
427.71	2998.23
427.90	2935.03
428.09	3009.93
428.28	2993.55
428.46	3059.08
428.65	3077.80
428.84	3080.14
429.03	3112.91
429.22	3082.49
429.40	3138.66
429.59	3199.51
429.78	2981.84
429.97	3096.53
430.16	3052.06
430.34	3243.98
430.53	3220.58
430.72	3335.26
430.91	3129.30
431.10	3190.15
431.28	3204.19
431.47	3365.69
431.66	3452.29
431.85	3328.24
432.03	3506.12
432.22	3501.44
432.41	3452.29
432.60	3438.25
432.79	3332.92
432.97	3353.99
433.16	3396.12
433.35	3414.84
433.54	3527.19
433.72	3485.06
433.91	3613.79
434.10	3492.08
434.28	3489.74
434.47	3695.71
434.66	3597.40
434.85	3627.83
435.03	3836.14
435.22	3712.09
435.41	4095.94
435.59	3983.59
435.78	3887.63
435.97	3761.24
436.16	3700.39
436.34	3698.05
436.53	3742.52
436.72	3751.88
436.90	3789.33
437.09	3812.73
437.28	3770.60
437.46	3758.90
437.65	3761.24
437.84	3801.03
438.02	3775.28
438.21	4002.32
438.40	3922.74
438.58	3920.40
438.77	3932.10
438.96	3964.87
439.14	4191.90
439.33	4138.07
439.52	4126.36
439.70	4159.13
439.89	4238.71
440.08	4245.73
440.26	4201.26
440.45	4440.00
440.63	4306.59
440.82	4383.82
441.01	4255.09
441.19	4348.72
441.38	4374.46
441.57	4533.62
441.75	4596.81
441.94	4634.26
442.12	4533.62
442.31	4521.92
442.50	4685.75
442.68	4533.62
442.87	4617.88
443.05	4685.75
443.24	4688.09
443.43	4634.26
443.61	4926.83
443.80	4837.89
443.98	4697.46
444.17	4624.90
444.35	4844.91
444.54	4901.08
444.73	4896.40
444.91	4940.87
445.10	4685.75
445.28	4800.44
445.47	4835.55
445.65	4910.44
445.84	4894.06
446.02	5025.13
446.21	4905.76
446.39	4767.67
446.58	4915.12
446.77	4734.90
446.95	4821.50
447.14	4915.12
447.32	4922.15
447.51	4922.15
447.69	4858.95
447.88	5085.98
448.06	4844.91
448.25	4816.82
448.43	5027.47
448.62	4870.65
448.80	4901.08
448.99	4800.44
449.17	5100.03
449.36	5039.17
449.54	4964.28
449.73	5076.62
449.91	5022.79
450.10	5123.43
450.28	5254.50
450.46	5188.97
450.65	5139.82
450.83	5273.23
451.02	5233.44
451.20	5380.89
451.39	5289.61
451.57	5195.99
451.76	5242.80
451.94	5235.78
452.13	5504.94
452.31	5453.45
452.49	5441.75
452.68	5343.44
452.86	5401.96
453.05	5350.46
453.23	5467.49
453.42	5362.17
453.60	5401.96
453.78	5509.62
453.97	5394.93
454.15	5575.16
454.34	5481.53
454.52	5579.84
454.70	5643.03
454.89	5596.22
455.07	5561.11
455.26	5694.52
455.44	5708.57
455.62	5626.65
455.81	5713.25
455.99	5568.13
456.17	5837.30
456.36	5797.51
456.54	6010.50
456.73	6001.13
456.91	5825.59
457.09	6094.76
457.28	6244.55
457.46	5837.30
457.64	6148.59
457.83	6083.05
458.01	5973.05
458.19	6260.93
458.38	5961.34
458.56	6155.61
458.74	6148.59
458.93	6106.46
459.11	6174.33
459.29	6179.01
459.48	6174.33
459.66	6303.06
459.84	6389.66
460.03	6335.83
460.21	6307.74
460.39	6347.53
460.57	6193.06
460.76	6429.45
460.94	6445.84
461.12	6424.77
461.31	6511.37
461.49	6471.58
461.67	6291.36
461.85	6551.16
462.04	6581.59
462.22	6913.94
462.40	6562.86
462.59	6696.27
462.77	6644.78
462.95	6661.16
463.13	6642.44
463.32	6691.59
463.50	6759.47
463.68	6876.49
463.86	6656.48
464.05	6633.08
464.23	6679.89
464.41	6953.73
464.59	6658.82
464.78	6904.58
464.96	6867.13
465.14	6642.44
465.32	7026.29
465.50	6951.39
465.69	6953.73
465.87	6855.43
466.05	6995.86
466.23	6937.35
466.41	7000.54
466.60	7295.45
466.78	7080.12
466.96	7098.84
467.14	7192.47
467.32	7049.69
467.51	7136.29
467.69	6888.20
467.87	7307.15
468.05	7393.75
468.23	7304.81
468.41	7105.87
468.60	7286.09
468.78	7318.86
468.96	7246.30
469.14	7492.05
469.32	7449.93
469.50	7171.40
469.69	7508.44
469.87	7454.61
470.05	7485.03
470.23	7534.18
470.41	7438.22
470.59	7660.57
470.77	7442.90
470.95	7698.02
471.14	7651.21
471.32	7686.32
471.50	7810.37
471.68	7838.45
471.86	7847.82
472.04	7932.08
472.22	7976.55
472.40	7658.23
472.58	8028.04
472.77	7864.20
472.95	7939.10
473.13	8187.19
473.31	8088.89
473.49	8035.06
473.67	8168.47
473.85	8135.70
474.03	8376.78
474.21	8336.99
474.39	8414.23
474.57	8587.43
474.75	8456.36
474.93	8711.47
475.12	8435.29
475.30	8589.77
475.48	8606.15
475.66	8720.84
475.84	8788.71
476.02	8709.13
476.20	8688.07
476.38	8865.95
476.56	9195.96
476.74	9153.84
476.92	9067.24
477.10	8994.68
477.28	9355.12
477.46	9022.77
477.64	9488.53
477.82	9544.70
478.00	9591.52
478.18	9530.66
478.36	9549.39
478.54	9561.09
478.72	10019.83
478.90	9823.23
479.08	9977.70
479.26	9919.19
479.44	9956.64
479.62	10338.15
479.80	10279.63
479.98	10092.39
480.16	10530.07
480.34	10492.62
480.52	10684.55
480.70	10773.49
480.88	10642.42
481.06	10813.28
481.24	10497.30
481.41	10906.90
481.59	11124.57
481.77	11124.57
481.95	11227.55
482.13	11325.85
482.31	11302.45
482.49	11337.56
482.67	11419.47
482.85	11405.43
483.03	11576.29
483.21	11840.77
483.39	11960.14
483.57	11990.56
483.74	12074.82
483.92	12138.02
484.10	12042.06
484.28	12519.53
484.46	12283.13
484.64	12915.08
484.82	12343.99
485.00	12592.08
485.18	12910.40
485.35	13071.89
485.53	12868.27
485.71	12943.16
485.89	13404.25
486.07	13121.04
486.25	13345.73
486.43	13348.08
486.61	13575.11
486.78	13535.32
486.96	13795.12
487.14	14251.52
487.32	13893.42
487.50	13818.52
487.68	14200.03
487.85	14317.06
488.03	14361.53
488.21	14626.01
488.39	14794.53
488.57	14932.62
488.75	14857.72
488.92	15283.70
489.10	15082.41
489.28	15330.51
489.46	15499.03
489.64	15803.30
489.81	15719.04
489.99	15686.27
490.17	15833.72
490.35	15744.78
490.53	15798.62
490.70	16479.71
490.88	16271.40
491.06	16545.25
491.24	16535.88
491.41	16681.00
491.59	16732.49
491.77	16861.22
491.95	16863.56
492.13	16924.41
492.30	17099.95
492.48	17029.74
492.66	16992.29
492.84	17224.00
493.01	17516.57
493.19	17521.25
493.37	17554.02
493.54	17790.41
493.72	17731.90
493.90	17935.53
494.08	18097.02
494.25	18342.78
494.43	18452.78
494.61	18663.43
494.79	18525.34
494.96	18523.00
495.14	18574.49
495.32	18948.98
495.49	18801.52
495.67	19103.45
495.85	19321.12
496.02	19229.84
496.20	19374.95
496.38	19531.77
496.55	19686.25
496.73	19882.85
496.91	19662.84
497.09	19751.78
497.26	19814.98
497.44	19852.42
497.62	20159.03
497.79	20135.63
497.97	20292.44
498.14	20491.39
498.32	20538.20
498.50	20507.77
498.67	20772.25
498.85	20688.00
499.03	20566.29
499.20	20732.47
499.38	20699.70
499.56	21132.70
499.73	21078.86
499.91	21277.81
500.08	21123.33
500.26	21231.00
500.44	21348.03
500.61	21909.75
500.79	21610.17
500.97	21935.50
501.14	22183.60
501.32	21951.88
501.49	21989.33
501.67	22176.58
501.84	22104.02
502.02	21827.84
502.20	22104.02
502.37	22726.60
502.55	22373.18
502.72	22623.62
502.90	22541.70
503.07	22618.94
503.25	22569.79
503.43	22471.48
503.60	22869.37
503.78	22993.42
503.95	22927.89
504.13	22852.99
504.30	22986.40
504.48	23129.17
504.65	22948.95
504.83	23517.70
505.01	23847.72
505.18	23559.83
505.36	23613.66
505.53	23566.85
505.71	23583.24
505.88	23779.84
506.06	23421.74
506.23	23828.99
506.41	23875.80
506.58	24098.16
506.76	24037.30
506.93	24119.22
507.11	23981.13
507.28	24217.52
507.46	24318.17
507.63	24945.43
507.81	24893.94
507.98	24435.19
508.16	24875.21
508.33	25062.46
508.50	24828.40
508.68	24875.21
508.85	25483.75
509.03	24971.18
509.20	25280.13
509.38	25518.86
509.55	25591.42
509.73	25736.53
509.90	25663.97
510.08	25532.90
510.25	25530.56
510.42	25872.28
510.60	25745.89
510.77	25921.43
510.95	26541.68
511.12	25963.56
511.30	25876.96
511.47	26003.35
511.64	26375.50
511.82	26719.56
511.99	26148.46
512.17	26647.00
512.34	26373.16
512.51	26616.57
512.69	26838.92
512.86	26614.23
513.04	27016.80
513.21	27166.60
513.38	27264.90
513.56	27126.81
513.73	27199.37
513.90	27346.82
514.08	27332.78
514.25	27534.06
514.43	27693.22
514.60	27686.20
514.77	27751.73
514.95	27679.18
515.12	27615.98
515.29	27515.34
515.47	27948.34
515.64	28067.70
515.81	27941.32
515.99	28381.34
516.16	28070.04
516.33	28290.06
516.51	28414.10
516.68	28327.50
516.85	28231.54
517.03	28400.06
517.20	28400.06
517.37	28566.24
517.54	28669.22
517.72	28645.82
517.89	28505.38
518.06	28407.08
518.24	29172.44
518.41	29055.41
518.58	29057.75
518.75	29092.86
518.93	29326.91
519.10	29111.58
519.27	29102.22
519.45	29369.04
519.62	29142.01
519.79	29158.39
519.96	29586.71
520.14	29645.23
520.31	29432.24
520.48	29710.76
520.65	29951.84
520.83	30022.05
521.00	29837.15
521.17	29837.15
521.34	30134.40
521.52	30300.58
521.69	30352.07
521.86	30314.62
522.03	30408.24
522.20	30319.30
522.38	30429.30
522.55	30302.92
522.72	30356.75
522.89	30714.85
523.07	30836.56
523.24	30572.08
523.41	31072.95
523.58	30923.16
523.75	30998.06
523.92	31110.40
524.10	31124.44
524.27	31112.74
524.44	31545.74
524.61	31119.76
524.78	31431.05
524.96	31700.22
525.13	31922.57
525.30	31512.97
525.47	31786.82
525.64	31590.21
525.81	31700.22
525.98	31850.01
526.16	31412.33
526.33	31974.06
526.50	32341.52
526.67	31707.24
526.84	32229.18
527.01	31894.48
527.18	32287.69
527.36	32297.05
527.53	32306.41
527.70	32474.93
527.87	32694.94
528.04	32435.14
528.21	32751.12
528.38	32278.33
528.55	32383.65
528.72	32966.45
528.89	32723.03
529.07	32341.52
529.24	32472.59
529.41	32732.39
529.58	32451.53
529.75	32683.24
529.92	32940.70
530.09	32959.42
530.26	33230.93
530.43	33308.16
530.60	33099.86
530.77	32947.72
530.94	33380.72
531.11	33347.95
531.28	33427.53
531.46	33069.43
531.63	33743.50
531.80	33378.38
531.97	33647.54
532.14	33628.82
532.31	33706.05
532.48	33699.03
532.65	33785.63
532.82	33809.04
532.99	33996.28
533.16	33612.43
533.33	34029.05
533.50	33996.28
533.67	34125.01
533.84	34096.92
534.01	33666.27
534.18	33965.85
534.35	34555.67
534.52	34071.18
534.69	34267.78
534.86	34794.40
535.03	34314.59
535.20	34501.84
535.37	34422.26
535.54	34803.77
535.71	34560.35
535.88	34541.63
536.05	34546.31
536.22	35292.94
536.38	34881.00
536.55	34878.66
536.72	34766.32
536.89	34834.19
537.06	34752.27
537.23	35552.74
537.40	35079.95
537.57	34796.74
537.74	35379.54
537.91	35332.73
538.08	35257.83
538.25	35328.05
538.42	35381.88
538.59	35627.63
538.75	35063.57
538.92	35679.13
539.09	35564.44
539.26	35555.08
539.43	35971.69
539.60	35665.08
539.77	35875.73
539.94	36065.31
540.11	35824.24
540.28	36158.94
540.44	35997.44
540.61	36259.58
540.78	36175.32
540.95	36261.92
541.12	36070.00
541.29	36102.76
541.46	36332.14
541.62	36697.26
541.79	36823.65
541.96	36172.98
542.13	36594.28
542.30	36495.97
542.47	36769.82
542.63	36863.44
542.80	36865.78
542.97	36968.76
543.14	37308.14
543.31	36978.12
543.48	36699.60
543.64	37085.79
543.81	37277.71
543.98	37621.77
544.15	37177.07
544.32	37736.46
544.48	37364.31
544.65	37450.91
544.82	37027.28
544.99	37361.97
545.16	37315.16
545.32	37214.52
545.49	37869.87
545.66	37869.87
545.83	38698.42
546.00	38525.22
546.16	38209.25
546.33	37684.97
546.50	37223.88
546.67	37649.86
546.83	37425.17
547.00	37385.38
547.17	37558.58
547.34	37806.67
547.50	37563.26
547.67	38071.15
547.84	37659.22
548.00	38162.43
548.17	37947.11
548.34	37727.10
548.51	38263.08
548.67	38431.60
548.84	38405.85
549.01	38740.55
549.18	38548.62
549.34	38195.20
549.51	37860.51
549.68	37993.92
549.84	38309.89
550.01	38361.38
550.18	38279.46
550.34	38431.60
550.51	38660.97
550.68	38195.20
550.84	38335.63
551.01	38607.14
551.18	38312.23
551.34	38314.57
551.51	38120.31
551.68	38689.06
551.84	39009.71
552.01	38230.31
552.18	38686.71
552.34	38667.99
552.51	38588.41
552.68	38504.15
552.84	38501.81
553.01	38738.21
553.18	38740.55
553.34	39129.08
553.51	38981.62
553.67	38768.63
553.84	39409.94
554.01	39379.51
554.17	39072.90
554.34	39318.66
554.51	39075.24
554.67	39697.83
554.84	38913.75
555.00	38986.30
555.17	39145.46
555.33	39098.65
555.50	39210.99
555.67	39711.87
555.83	39421.64
556.00	39545.69
556.16	39349.09
556.33	39395.90
556.50	39508.24
556.66	39431.01
556.83	39093.97
556.99	39510.58
557.16	39789.11
557.32	39995.07
557.49	40002.10
557.65	39487.18
557.82	39646.33
557.98	39423.98
558.15	39321.00
558.32	39716.55
558.48	39695.49
558.65	39903.79
558.81	40470.20
558.98	39910.82
559.14	40233.81
559.31	39435.69
559.47	39770.38
559.64	39854.64
559.80	39732.93
559.97	39943.58
560.13	40058.27
560.30	40119.12
560.46	40201.04
560.63	40341.47
560.79	40542.76
560.96	39873.37
561.12	39878.05
561.29	39779.74
561.45	40264.24
561.61	40247.85
561.78	40119.12
561.94	40411.69
562.11	40282.96
562.27	40116.78
562.44	40088.70
562.60	40245.51
562.77	40306.37
562.93	40280.62
563.10	39997.41
563.26	40701.92
563.42	40196.36
563.59	40652.76
563.75	40404.67
563.92	40818.94
564.08	40240.83
564.24	40580.21
564.41	40100.40
564.57	40479.57
564.74	40259.55
564.90	40259.55
565.07	40418.71
565.23	40788.52
565.39	40608.29
565.56	40376.58
565.72	40388.28
565.88	40739.36
566.05	40582.55
566.21	40659.79
566.38	40421.05
566.54	40657.45
566.70	41043.63
566.87	41034.27
567.03	41043.63
567.19	40840.01
567.36	40634.04
567.52	40500.63
567.68	40942.99
567.85	40535.74
568.01	40788.52
568.17	40968.74
568.34	41350.24
568.50	40942.99
568.66	41071.72
568.83	41015.55
568.99	41010.87
569.15	40769.79
569.32	40835.33
569.48	40624.68
569.64	41148.96
569.81	40793.20
569.97	40495.95
570.13	40940.65
570.30	40664.47
570.46	41050.66
570.62	41193.43
570.78	41111.51
570.95	40694.89
571.11	40552.12
571.27	40999.16
571.43	40835.33
571.60	40851.71
571.76	40650.42
571.92	41160.66
572.09	41010.87
572.25	40966.40
572.41	40790.86
572.57	41053.00
572.74	41006.19
572.90	40966.40
573.06	40559.14
573.22	41024.91
573.38	41198.11
573.55	41315.14
573.71	41614.72
573.87	41507.06
574.03	41010.87
574.20	41350.24
574.36	41116.19
574.52	41343.22
574.68	41015.55
574.84	41422.80
575.01	41413.44
575.17	41333.86
575.33	41102.15
575.49	40971.08
575.65	41488.34
575.82	41462.59
575.98	41350.24
576.14	41785.58
576.30	41549.19
576.46	41146.62
576.62	41097.47
576.79	41558.55
576.95	41333.86
577.11	41567.91
577.27	41331.52
577.43	41481.31
577.59	41120.87
577.75	41605.36
577.92	40940.65
578.08	41205.13
578.24	41057.68
578.40	41308.11
578.56	41415.78
578.72	41067.04
578.88	41631.11
579.04	41593.66
579.21	41448.55
579.37	41581.96
579.53	41862.82
579.69	41352.58
579.85	41764.52
580.01	41172.36
580.17	41029.59
580.33	41326.84
580.49	41698.98
580.65	41792.61
580.82	41511.74
580.98	41493.02
581.14	41303.43
581.30	42040.70
581.46	41013.21
581.62	41202.79
581.78	41221.52
581.94	41844.10
582.10	41221.52
582.26	41900.27
582.42	41926.02
582.58	41790.27
582.74	41801.97
582.90	41872.18
583.06	41846.44
583.22	41691.96
583.38	41652.17
583.54	41804.31
583.70	41476.63
583.86	41713.03
584.02	41663.88
584.18	41902.61
584.34	42164.75
584.50	41528.13
584.66	41516.42
584.82	41703.67
584.98	41530.47
585.14	41631.11
585.30	41364.29
585.46	41516.42
585.62	41361.95
585.78	41706.01
585.94	41577.28
586.10	41570.25
586.26	41397.06
586.42	41874.52
586.58	41984.53
586.74	42124.96
586.90	41514.08
587.06	41340.88
587.22	41804.31
587.38	41577.28
587.54	42167.09
587.70	41738.77
587.86	42110.92
588.02	41628.77
588.18	42267.73
588.34	42117.94
588.49	42281.78
588.65	41570.25
588.81	41752.82
588.97	42237.31
589.13	41727.07
589.29	42113.26
589.45	42019.64
589.61	42249.01
589.77	42445.62
589.93	41909.63
590.08	42220.92
590.24	41965.81
590.40	42120.28
590.56	42256.03
590.72	42377.74
590.88	42110.92
591.04	41811.33
591.20	42410.51
591.35	42719.46
591.51	42572.00
591.67	41947.08
591.83	42256.03
591.99	42213.90
592.15	41928.36
592.31	42204.54
592.46	42092.19
592.62	41764.52
592.78	42164.75
592.94	42178.79
593.10	42178.79
593.26	42162.41
593.41	42206.88
593.57	41928.36
593.73	42581.37
593.89	42216.24
594.05	41977.51
594.20	41928.36
594.36	41961.12
594.52	41956.44
594.68	41773.88
594.84	41691.96
594.99	42513.49
595.15	42328.59
595.31	42689.03
595.47	42586.05
595.62	42642.22
595.78	42326.25
595.94	42403.49
596.10	42546.26
596.25	41794.95
596.41	42155.39
596.57	41797.29
596.73	42284.12
596.88	42007.94
597.04	42600.09
597.20	42319.23
597.36	42335.61
597.51	43161.82
597.67	42349.65
597.83	42293.48
597.99	42323.91
598.14	42127.30
598.30	42064.11
598.46	42263.05
598.61	42401.14
598.77	42284.12
598.93	42281.78
599.09	42239.65
599.24	42342.63
599.40	42506.47
599.56	42419.87
599.71	42433.91
599.87	42398.80
600.03	42384.76
600.18	42398.80
600.34	42082.83
600.50	42822.44
600.65	42515.83
600.81	42979.26
600.97	42560.30
601.12	43220.33
601.28	42981.60
601.44	42403.49
601.59	42401.14
601.75	42478.38
601.91	42550.94
602.06	42110.92
602.22	42553.28
602.37	42253.69
602.53	42183.48
602.69	42351.99
602.84	42548.60
603.00	42899.68
603.16	42541.58
603.31	42534.56
603.47	42499.45
603.62	42075.81
603.78	42447.96
603.94	42232.63
604.09	42398.80
604.25	42087.51
604.40	42284.12
604.56	42452.64
604.71	42583.71
604.87	42232.63
605.03	42192.84
605.18	41930.70
605.34	42305.18
605.49	42115.60
605.65	42139.00
605.80	42043.04
605.96	42574.34
606.12	42745.20
606.27	42057.09
606.43	42213.90
606.58	42024.32
606.74	42078.15
606.89	42359.02
607.05	42536.90
607.20	42124.96
607.36	42499.45
607.51	42770.95
607.67	42356.67
607.82	41570.25
607.98	42295.82
608.13	42206.88
608.29	42031.34
608.44	41792.61
608.60	41975.17
608.75	42581.37
608.91	42281.78
609.06	42108.58
609.22	42356.67
609.37	42099.22
609.53	42342.63
609.68	42127.30
609.84	41979.85
609.99	42085.17
610.15	42019.64
610.30	42232.63
610.46	42459.66
610.61	42347.31
610.76	42927.77
610.92	42529.87
611.07	43107.99
611.23	43124.37
611.38	42583.71
611.54	41940.06
611.69	42389.44
611.84	42417.53
612.00	42223.26
612.15	42122.62
612.31	42412.85
612.46	42134.32
612.62	42146.03
612.77	42017.30
612.92	42431.57
613.08	42525.19
613.23	42337.95
613.39	41991.55
613.54	41958.78
613.69	41918.99
613.85	41787.92
614.00	41787.92
614.15	41773.88
614.31	41577.28
614.46	41947.08
614.62	41944.74
614.77	42038.36
614.92	41558.55
615.08	41911.97
615.23	41577.28
615.38	41581.96
615.54	41661.54
615.69	41567.91
615.84	41310.46
616.00	41801.97
616.15	41223.86
616.30	41635.79
616.46	41347.90
616.61	41242.58
616.76	41256.62
616.92	41092.79
617.07	41254.28
617.22	41036.61
617.37	40568.51
617.53	40966.40
617.68	41277.69
617.83	40776.81
617.99	40919.59
618.14	41155.98
618.29	41097.47
618.45	40889.16
618.60	40973.42
618.75	40835.33
618.90	41195.77
619.06	41043.63
619.21	40912.56
619.36	41265.99
619.51	40715.96
619.67	40318.07
619.82	40301.68
619.97	40818.94
620.12	41078.74
620.28	41008.53
620.43	41221.52
620.58	41102.15
620.73	40992.14
620.89	41130.23
621.04	41104.49
621.19	41205.13
621.34	41326.84
621.49	41036.61
621.65	40727.66
621.80	40779.15
621.95	40673.83
622.10	40835.33
622.25	40519.35
622.41	40467.86
622.56	40739.36
622.71	41027.25
622.86	40961.72
623.01	40610.64
623.16	40772.13
623.32	40261.90
623.47	40453.82
623.62	40402.33
623.77	40264.24
623.92	40512.33
624.07	40245.51
624.23	40383.60
624.38	40664.47
624.53	39920.18
624.68	40243.17
624.83	40273.60
624.98	40381.26
625.13	40055.93
625.29	40439.78
625.44	40332.11
625.59	40222.11
625.74	40252.53
625.89	39985.71
626.04	39798.47
626.19	39849.96
626.34	39751.66
626.49	39548.03
626.65	40013.80
626.80	40088.70
626.95	40039.54
627.10	39746.98
627.25	39679.10
627.40	39754.00
627.55	39910.82
627.70	39711.87
627.85	39775.06
628.00	39831.24
628.15	39894.43
628.30	39910.82
628.45	39285.89
628.60	39351.43
628.76	40002.10
628.91	39571.44
629.06	39627.61
629.21	39466.11
629.36	39550.37
629.51	39501.22
629.66	39754.00
629.81	39653.36
629.96	39583.14
630.11	39636.97
630.26	39215.68
630.41	39466.11
630.56	39239.08
630.71	39222.70
630.86	39562.08
631.01	39232.06
631.16	39686.12
631.31	39367.81
631.46	39129.08
631.61	38916.09
631.76	39735.27
631.91	39075.24
632.06	38778.00
632.21	38658.63
632.36	39431.01
632.51	39171.21
632.66	39323.34
632.81	39098.65
632.96	39433.35
633.10	39164.18
633.25	38995.67
633.40	39618.25
633.55	39337.38
633.70	38906.73
633.85	38476.07
634.00	38417.55
634.15	38843.53
634.30	38714.80
634.45	38653.95
634.60	38808.42
634.75	39023.75
634.90	39129.08
635.05	38988.64
635.19	38967.58
635.34	38862.26
635.49	38462.02
635.64	38806.08
635.79	38628.20
635.94	38632.88
636.09	38600.12
636.24	38391.81
636.39	38679.69
636.53	38305.21
636.68	38183.50
636.83	38359.04
636.98	38747.57
637.13	38543.94
637.28	38747.57
637.43	38478.41
637.57	38431.60
637.72	38609.48
637.87	38366.06
638.02	38567.35
638.17	38202.22
638.32	38738.21
638.46	38204.56
638.61	38185.84
638.76	37893.27
638.91	37991.58
639.06	37469.64
639.20	38176.48
639.35	37830.08
639.50	37984.55
639.65	38192.86
639.80	37886.25
639.94	38057.11
640.09	38082.86
640.24	37799.65
640.39	37804.33
640.54	37354.95
640.68	37825.40
640.83	37450.91
640.98	36870.46
641.13	37460.27
641.27	37600.71
641.42	37326.86
641.57	37656.88
641.72	37694.33
641.86	37729.44
642.01	37572.62
642.16	37591.34
642.31	37350.27
642.45	37542.19
642.60	37038.98
642.75	37226.22
642.90	37064.72
643.04	37343.25
643.19	37376.01
643.34	37397.08
643.48	37067.06
643.63	37773.91
643.78	37282.39
643.93	37464.96
644.07	37605.39
644.22	37715.39
644.37	37415.80
644.51	37799.65
644.66	37031.96
644.81	37095.15
644.95	37046.00
645.10	36847.05
645.25	37427.51
645.39	37352.61
645.54	37031.96
645.69	37151.32
645.83	37134.94
645.98	37460.27
646.13	37572.62
646.27	37202.82
646.42	37046.00
646.57	36882.16
646.71	37352.61
646.86	37015.57
647.00	36636.41
647.15	36877.48
647.30	36582.57
647.44	36823.65
647.59	36758.11
647.74	36856.42
647.88	37017.91
648.03	36961.74
648.17	36734.71
648.32	36725.35
648.47	36739.39
648.61	36531.08
648.76	36809.61
648.90	37095.15
649.05	36381.29
649.20	36505.34
649.34	36809.61
649.49	36659.81
649.63	36290.01
649.78	36849.39
649.92	36275.96
650.07	36273.62
650.21	36437.46
650.36	36919.61
650.51	36589.59
650.65	36315.75
650.80	36872.80
650.94	37017.91
651.09	36348.52
651.23	36535.76
651.38	36453.84
651.52	36905.57
651.67	36673.85
651.81	36123.83
651.96	36158.94
652.10	36362.56
652.25	36638.75
652.39	36121.49
652.54	36315.75
652.68	36191.70
652.83	35924.88
652.97	36463.21
653.12	36137.87
653.26	35838.28
653.41	35742.32
653.55	35695.51
653.70	35709.55
653.84	35779.77
653.99	35599.55
654.13	35901.48
654.27	35995.10
654.42	35510.61
654.56	35892.12
654.71	35922.54
654.85	35943.61
655.00	35866.37
655.14	35983.40
655.29	36011.48
655.43	35702.53
655.57	35534.01
655.72	35704.87
655.86	35723.60
656.01	35452.09
656.15	35264.85
656.30	35105.70
656.44	34864.62
656.58	35449.75
656.73	35208.68
656.87	35424.01
657.01	36006.80
657.16	35847.64
657.30	35810.20
657.45	35655.72
657.59	35253.15
657.73	35318.68
657.88	35213.36
658.02	35400.60
658.16	35213.36
658.31	35138.46
658.45	35512.95
658.60	35065.91
658.74	35543.38
658.88	35342.09
659.03	34728.87
659.17	34850.58
659.31	35416.99
659.46	35019.10
659.60	35105.70
659.74	35672.10
659.89	34878.66
660.03	35009.73
660.17	34998.03
660.32	34410.56
660.46	35026.12
660.60	34719.51
660.74	34677.38
660.89	34632.91
661.03	34424.60
661.17	34597.80
661.32	34565.03
661.46	34426.94
661.60	33883.94
661.74	34022.03
661.89	34284.17
662.03	34497.16
662.17	34590.78
662.31	34527.58
662.46	34579.07
662.60	34382.47
662.74	33982.24
662.88	34225.65
663.03	33649.88
663.17	33364.34
663.31	33582.01
663.45	33780.95
663.60	34363.75
663.74	33687.33
663.88	33886.28
664.02	33886.28
664.17	34033.73
664.31	33640.52
664.45	33200.50
664.59	33544.56
664.73	33703.71
664.88	33869.89
665.02	33301.14
665.16	33380.72
665.30	33125.60
665.44	32875.16
665.59	32655.15
665.73	32966.45
665.87	33146.67
666.01	33516.47
666.15	33132.62
666.29	33158.37
666.44	33425.19
666.58	33259.01
666.72	32823.67
666.86	33476.68
667.00	33027.30
667.14	32760.48
667.28	32875.16
667.43	32767.50
667.57	32554.51
667.71	32264.28
667.85	32301.73
667.99	32385.99
668.13	32776.86
668.27	32393.01
668.41	32444.51
668.56	32079.38
668.70	32521.74
668.84	32409.40
668.98	32194.07
669.12	32488.98
669.26	32081.72
669.40	31931.93
669.54	31929.59
669.68	32016.19
669.82	32393.01
669.96	31515.31
670.10	31648.72
670.25	31936.61
670.39	31775.11
670.53	31550.42
670.67	31323.39
670.81	31206.36
670.95	31524.68
671.09	31232.11
671.23	31555.10
671.37	31534.04
671.51	31571.49
671.65	31225.09
671.79	31185.30
671.93	31094.02
672.07	31585.53
672.21	31042.53
672.35	30962.95
672.49	30909.11
672.63	30654.00
672.77	30473.78
672.91	30689.10
673.05	30642.29
673.19	30895.07
673.33	30794.43
673.47	30548.67
673.61	30859.96
673.75	30125.04
673.89	31014.44
674.03	30279.51
674.17	30553.35
674.31	30209.29
674.45	30036.09
674.59	29956.52
674.73	30321.64
674.87	29975.24
675.01	29720.12
675.15	30059.50
675.29	30309.94
675.43	29500.11
675.56	29757.57
675.70	29923.75
675.84	29607.78
675.98	28917.32
676.12	29680.33
676.26	29947.15
676.40	29228.61
676.54	29010.94
676.68	28910.30
676.82	28629.43
676.96	28837.74
677.10	28912.64
677.23	28676.24
677.37	28526.45
677.51	28610.71
677.65	28779.23
677.79	28397.72
677.93	28706.67
678.07	28570.92
678.21	28336.87
678.34	28088.77
678.48	28161.33
678.62	28013.87
678.76	27857.06
678.90	27838.33
679.04	27393.63
679.18	27721.30
679.31	27803.22
679.45	27700.24
679.59	27335.12
679.73	27480.23
679.87	27379.59
680.00	27501.29
680.14	27147.87
680.28	27335.12
680.42	27154.90
680.56	27246.18
680.70	26691.47
680.83	26808.50
680.97	26576.78
681.11	27260.22
681.25	26675.09
681.39	26878.71
681.52	26347.41
681.66	26686.79
681.80	26260.81
681.94	26148.46
682.07	26199.96
682.21	26022.08
682.35	25851.22
682.49	25876.96
682.62	25671.00
682.76	25823.13
682.90	25694.40
683.04	25738.87
683.17	25979.95
683.31	25839.51
683.45	25816.11
683.59	25631.21
683.72	25050.75
683.86	25324.60
684.00	25514.18
684.13	25359.70
684.27	25582.06
684.41	25027.35
684.55	24844.79
684.68	24648.18
684.82	24414.13
684.96	24329.87
685.09	24257.31
685.23	23999.85
685.37	23892.19
685.50	24285.40
685.64	24404.77
685.78	24474.98
685.91	24343.91
686.05	24201.14
686.19	23836.02
686.32	24144.97
686.46	23623.03
686.60	23758.78
686.73	23634.73
686.87	24004.53
687.01	23576.22
687.14	23440.47
687.28	23283.65
687.42	23246.20
687.55	23023.85
687.69	23178.33
687.82	23098.75
687.96	23091.73
688.10	22878.74
688.23	22614.26
688.37	23082.36
688.50	22867.03
688.64	22963.00
688.78	22593.19
688.91	22459.78
689.05	22427.01
689.18	22148.49
689.32	21692.08
689.46	21771.66
689.59	22382.54
689.73	21862.94
689.86	21970.61
690.00	21696.77
690.13	22073.59
690.27	21919.12
690.41	21788.05
690.54	21586.76
690.68	21642.93
690.81	21872.31
690.95	22082.95
691.08	21692.08
691.22	21172.49
691.35	21123.33
691.49	21345.69
691.62	21186.53
691.76	20900.98
691.89	20561.61
692.03	20812.04
692.16	20641.18
692.30	20709.06
692.43	20648.21
692.57	20205.84
692.70	20472.67
692.84	20615.44
692.97	20149.67
693.11	20542.88
693.24	20285.42
693.38	20149.67
693.51	20009.24
693.65	19964.77
693.78	19791.57
693.92	19651.14
694.05	19470.92
694.19	19550.49
694.32	19513.05
694.45	19665.18
694.59	18857.70
694.72	19213.46
694.86	19229.84
694.99	19021.53
695.13	19101.11
695.26	19211.12
695.39	18698.54
695.53	19147.92
695.66	18941.96
695.80	18895.14
695.93	18684.50
696.07	18740.67
696.20	18857.70
696.33	18682.16
696.47	18349.80
696.60	18469.17
696.73	18239.79
696.87	17970.63
697.00	17961.27
697.14	17781.05
697.27	17884.03
697.40	17614.87
697.54	17584.44
697.67	17266.13
697.80	17640.62
697.94	17603.17
698.07	17488.48
698.21	17425.29
698.34	17619.55
698.47	17165.49
698.61	17139.74
698.74	17366.78
698.87	17057.82
699.01	17041.44
699.14	16931.44
699.27	16751.21
699.40	16692.70
699.54	16683.34
699.67	16446.94
699.80	16257.36
699.94	16224.59
700.07	16119.27
700.20	16294.81
700.34	16133.31
700.47	16219.91
700.60	16299.49
700.73	16676.32
700.87	16231.62
701.00	16376.73
701.13	16065.44
701.26	16257.36
701.40	15960.11
701.53	15644.14
701.66	15431.15
701.79	15440.51
701.93	15407.75
702.06	15620.74
702.19	15555.20
702.32	15227.53
702.46	14974.75
702.59	14998.15
702.72	15194.76
702.85	15215.82
702.99	15288.38
703.12	15227.53
703.25	14923.26
703.38	14633.03
703.51	14923.26
703.65	14640.05
703.78	14860.06
703.91	14523.02
704.04	14434.08
704.17	14642.39
704.31	14476.21
704.44	14415.36
704.57	14345.14
704.70	14321.74
704.83	13916.83
704.96	13867.67
705.10	13776.39
705.23	13547.02
>>>>>End Processed Spectral Data<<<<<
