SpectraSuite Data File
++++++++++++++++++++++++++++++++++++
Date: Fri Oct 04 11:39:37 GMT-05:00 2013
User: price-jones
Dark Spectrum Present: No
Reference Spectrum Present: No
Number of Sampled Component Spectra: 1
Spectrometers: USB2+H05261
Integration Time (usec): 100000 (USB2+H05261)
Spectra Averaged: 1 (USB2+H05261)
Boxcar Smoothing: 0 (USB2+H05261)
Correct for Electrical Dark: No (USB2+H05261)
Strobe/Lamp Enabled: No (USB2+H05261)
Correct for Detector Non-linearity: No (USB2+H05261)
Correct for Stray Light: No (USB2+H05261)
Number of Pixels in Processed Spectrum: 2048
>>>>>Begin Processed Spectral Data<<<<<
365.73	119.37
365.92	119.37
366.12	119.37
366.32	32.77
366.52	0.00
366.72	0.00
366.91	0.00
367.11	0.00
367.31	0.00
367.51	0.00
367.70	0.00
367.90	0.00
368.10	0.00
368.30	0.00
368.49	46.81
368.69	0.00
368.89	0.00
369.09	0.00
369.28	2.34
369.48	0.00
369.68	14.04
369.87	0.00
370.07	7.02
370.27	46.81
370.47	86.60
370.66	264.48
370.86	332.36
371.06	313.63
371.25	365.12
371.45	381.51
371.65	337.04
371.84	327.68
372.04	351.08
372.24	428.32
372.44	407.25
372.63	395.55
372.83	496.19
373.03	425.98
373.22	332.36
373.42	437.68
373.62	440.02
373.81	496.19
374.01	475.13
374.21	461.09
374.40	454.06
374.60	528.96
374.79	500.87
374.99	540.66
375.19	449.38
375.38	552.37
375.58	449.38
375.78	535.98
375.97	561.73
376.17	552.37
376.37	559.39
376.56	517.26
376.76	505.56
376.95	505.56
377.15	550.03
377.35	531.30
377.54	528.96
377.74	503.22
377.93	547.69
378.13	519.60
378.33	575.77
378.52	573.43
378.72	545.34
378.91	517.26
379.11	526.62
379.31	587.47
379.50	482.15
379.70	580.45
379.89	514.92
380.09	557.05
380.28	564.07
380.48	599.18
380.68	561.73
380.87	514.92
381.07	655.35
381.26	634.29
381.46	674.07
381.65	627.26
381.85	564.07
382.04	718.54
382.24	662.37
382.43	641.31
382.63	688.12
382.83	702.16
383.02	695.14
383.22	676.41
383.41	638.97
383.61	725.57
383.80	676.41
384.00	643.65
384.19	725.57
384.39	713.86
384.58	688.12
384.78	720.88
384.97	744.29
385.17	683.44
385.36	655.35
385.56	746.63
385.75	678.76
385.95	772.38
386.14	737.27
386.34	755.99
386.53	772.38
386.72	690.46
386.92	758.33
387.11	732.59
387.31	770.04
387.50	767.70
387.70	702.16
387.89	767.70
388.09	739.61
388.28	777.06
388.48	788.76
388.67	702.16
388.86	819.19
389.06	870.68
389.25	837.91
389.45	844.93
389.64	844.93
389.84	866.00
390.03	873.02
390.22	868.34
390.42	873.02
390.61	826.21
390.81	875.36
391.00	875.36
391.19	978.34
391.39	891.74
391.58	903.45
391.78	856.64
391.97	896.43
392.16	985.37
392.36	957.28
392.55	933.87
392.75	957.28
392.94	870.68
393.13	938.55
393.33	950.26
393.52	938.55
393.71	1057.92
393.91	1020.47
394.10	1006.43
394.29	915.15
394.49	1041.54
394.68	987.71
394.88	1036.86
395.07	1034.52
395.26	985.37
395.46	1116.44
395.65	1022.81
395.84	1142.18
396.04	1188.99
396.23	1198.35
396.42	1081.33
396.62	1170.27
396.81	1107.07
397.00	1144.52
397.19	1151.54
397.39	1135.16
397.58	1188.99
397.77	1118.78
397.97	1207.72
398.16	1212.40
398.35	1303.68
398.55	1214.74
398.74	1214.74
398.93	1287.29
399.12	1289.64
399.32	1343.47
399.51	1228.78
399.70	1348.15
399.90	1329.42
400.09	1308.36
400.28	1343.47
400.47	1526.03
400.67	1303.68
400.86	1387.94
401.05	1437.09
401.24	1371.55
401.44	1371.55
401.63	1479.22
401.82	1495.60
402.01	1345.81
402.21	1476.88
402.40	1488.58
402.59	1558.80
402.78	1397.30
402.97	1570.50
403.17	1600.93
403.36	1561.14
403.55	1568.16
403.74	1621.99
403.93	1678.16
404.13	1739.02
404.32	1558.80
404.51	1680.50
404.70	1760.08
404.89	1556.46
405.09	1568.16
405.28	1629.01
405.47	1624.33
405.66	1734.34
405.85	1776.47
406.05	1722.63
406.24	1652.42
406.43	1858.39
406.62	1846.68
406.81	1860.73
407.00	1839.66
407.20	1827.96
407.39	1849.02
407.58	1912.22
407.77	1970.73
407.96	1867.75
408.15	1914.56
408.34	1968.39
408.54	1937.96
408.73	1952.01
408.92	2047.97
409.11	2008.18
409.30	2033.93
409.49	1949.67
409.68	2097.12
409.87	2134.57
410.07	2200.10
410.26	2193.08
410.45	2143.93
410.64	2132.23
410.83	2167.34
411.02	2207.13
411.21	2331.17
411.40	2258.62
411.59	2305.43
411.78	2244.57
411.98	2317.13
412.17	2455.22
412.36	2314.79
412.55	2473.95
412.74	2459.90
412.93	2509.05
413.12	2342.88
413.31	2551.18
413.50	2436.50
413.69	2626.08
413.88	2619.06
414.07	2605.02
414.26	2630.76
414.45	2663.53
414.64	2717.36
414.83	2881.20
415.02	2663.53
415.22	2733.75
415.41	2825.03
415.60	2895.24
415.79	2864.82
415.98	2890.56
416.17	3040.36
416.36	2895.24
416.55	3000.57
416.74	3019.29
416.93	3190.15
417.12	3103.55
417.31	3150.36
417.50	3030.99
417.69	3213.56
417.88	3220.58
418.07	3173.77
418.26	3164.40
418.45	3283.77
418.64	3417.18
418.83	3229.94
419.02	3396.12
419.21	3396.12
419.39	3398.46
419.58	3400.80
419.77	3344.63
419.96	3344.63
420.15	3515.48
420.34	3482.72
420.53	3396.12
420.72	3503.78
420.91	3569.32
421.10	3667.62
421.29	3585.70
421.48	3616.13
421.67	3602.08
421.86	3562.30
422.05	3737.84
422.24	3576.34
422.43	3674.64
422.61	3784.65
422.80	3812.73
422.99	3700.39
423.18	3763.58
423.37	3758.90
423.56	3705.07
423.75	3808.05
423.94	3646.55
424.13	3496.76
424.32	3562.30
424.50	3955.51
424.69	3861.88
424.88	3988.27
425.07	3728.47
425.26	3676.98
425.45	3763.58
425.64	3826.78
425.83	3805.71
426.01	3815.07
426.20	3707.41
426.39	3843.16
426.58	3819.75
426.77	3997.64
426.96	3838.48
427.15	3929.76
427.33	4023.38
427.52	4011.68
427.71	4114.66
427.90	4058.49
428.09	4004.66
428.28	3953.16
428.46	3964.87
428.65	4133.39
428.84	4128.70
429.03	4184.88
429.22	4077.21
429.40	4140.41
429.59	4124.02
429.78	4079.55
429.97	4067.85
430.16	4002.32
430.34	4121.68
430.53	4381.48
430.72	4379.14
430.91	4234.03
431.10	4271.48
431.28	4362.76
431.47	4533.62
431.66	4421.27
431.85	4390.84
432.03	4407.23
432.22	4662.35
432.41	4531.28
432.60	4636.60
432.79	4547.66
432.97	4383.82
433.16	4697.46
433.35	4503.19
433.54	4685.75
433.72	4631.92
433.91	4641.28
434.10	4706.82
434.28	4802.78
434.47	4863.63
434.66	4828.53
434.85	4812.14
435.03	4865.97
435.22	5093.01
435.41	5186.63
435.59	5399.62
435.78	5177.26
435.97	5027.47
436.16	4990.02
436.34	4947.89
436.53	5090.67
436.72	5107.05
436.90	4823.84
437.09	5053.22
437.28	5071.94
437.46	5125.77
437.65	5039.17
437.84	5062.58
438.02	5172.58
438.21	5181.95
438.40	5137.48
438.58	5137.48
438.77	5366.85
438.96	5221.74
439.14	5313.02
439.33	5472.17
439.52	5558.77
439.70	5509.62
439.89	5418.34
440.08	5509.62
440.26	5678.14
440.45	5734.31
440.63	5516.64
440.82	5781.12
441.01	5703.89
441.19	5757.72
441.38	5874.74
441.57	6061.99
441.75	5968.37
441.94	6059.65
442.12	5909.85
442.31	6200.08
442.50	6118.16
442.68	6071.35
442.87	6085.39
443.05	6218.80
443.24	6480.94
443.43	6284.34
443.61	6272.64
443.80	6408.39
443.98	6242.21
444.17	6155.61
444.35	6263.27
444.54	6459.88
444.73	6509.03
444.91	6352.21
445.10	6483.28
445.28	6338.17
445.47	6321.79
445.65	6448.18
445.84	6286.68
446.02	6342.85
446.21	6352.21
446.39	6282.00
446.58	6502.01
446.77	6523.07
446.95	6424.77
447.14	6392.00
447.32	6450.52
447.51	6478.60
447.69	6464.56
447.88	6523.07
448.06	6506.69
448.25	6644.78
448.43	6642.44
448.62	6427.11
448.80	6497.33
448.99	6675.21
449.17	6745.42
449.36	6525.41
449.54	6796.92
449.73	6726.70
449.91	6904.58
450.10	6890.54
450.28	6897.56
450.46	6836.70
450.65	6913.94
450.83	6829.68
451.02	6724.36
451.20	7042.67
451.39	6890.54
451.57	6871.81
451.76	6897.56
451.94	7005.22
452.13	7045.01
452.31	7040.33
452.49	6860.11
452.68	7030.97
452.86	7033.31
453.05	7213.53
453.23	7229.91
453.42	6970.12
453.60	6817.98
453.78	7234.60
453.97	7215.87
454.15	7169.06
454.34	6965.43
454.52	7229.91
454.70	7377.37
454.89	7330.56
455.07	7248.64
455.26	7365.67
455.44	7632.49
455.62	7332.90
455.81	7648.87
455.99	7599.72
456.17	7627.81
456.36	7548.23
456.54	7751.85
456.73	7602.06
456.91	7943.78
457.09	7789.30
457.28	8072.51
457.46	7850.16
457.64	7880.58
457.83	7882.92
458.01	7805.69
458.19	7915.69
458.38	7941.44
458.56	8177.83
458.74	8119.32
458.93	8133.36
459.11	8149.75
459.29	8262.09
459.48	8140.38
459.66	8173.15
459.84	8336.99
460.03	8381.46
460.21	8070.17
460.39	8142.72
460.57	8109.96
460.76	8187.19
460.94	8301.88
461.12	8224.64
461.31	8397.84
461.49	8463.38
461.67	8367.42
461.85	8638.92
462.04	8557.00
462.22	8716.16
462.40	8533.59
462.59	8690.41
462.77	8711.47
462.95	8718.50
463.13	8727.86
463.32	8805.10
463.50	8683.39
463.68	8753.60
463.86	8854.25
464.05	8641.26
464.23	8788.71
464.41	8912.76
464.59	8709.13
464.78	9062.55
464.96	8908.08
465.14	8901.06
465.32	9046.17
465.50	9282.56
465.69	9153.84
465.87	9043.83
466.05	9226.39
466.23	8973.61
466.41	8973.61
466.60	9359.80
466.78	9207.67
466.96	9179.58
467.14	8945.53
467.32	9210.01
467.51	9469.81
467.69	8973.61
467.87	9380.87
468.05	9366.82
468.23	9090.64
468.41	9359.80
468.60	9334.06
468.78	9364.48
468.96	9324.69
469.14	9551.73
469.32	9556.41
469.50	9317.67
469.69	9610.24
469.87	9710.88
470.05	9977.70
470.23	9757.69
470.41	9827.91
470.59	9781.10
470.77	9771.74
470.95	9771.74
471.14	10047.92
471.32	9973.02
471.50	10188.35
471.68	10239.84
471.86	10071.33
472.04	10106.43
472.22	10394.32
472.40	10083.03
472.58	10384.96
472.77	10061.96
472.95	10633.05
473.13	10677.52
473.31	10272.61
473.49	10466.88
473.67	10597.95
473.85	10626.03
474.03	10714.97
474.21	10806.25
474.39	10916.26
474.57	10913.92
474.75	11300.11
474.93	11206.48
475.12	10916.26
475.30	11147.97
475.48	10909.24
475.66	11178.40
475.84	11314.15
476.02	11349.26
476.20	11585.65
476.38	11592.67
476.56	11646.51
476.74	11761.19
476.92	11889.92
477.10	11908.65
477.28	12081.85
477.46	11995.25
477.64	11887.58
477.82	12131.00
478.00	12311.22
478.18	12521.87
478.36	12620.17
478.54	12568.68
478.72	12751.24
478.90	12718.47
479.08	12582.72
479.26	12844.86
479.44	12975.93
479.62	13099.98
479.80	13252.11
479.98	13273.18
480.16	13359.78
480.34	13441.70
480.52	13818.52
480.70	13682.77
480.88	13561.06
481.06	13785.76
481.24	13820.86
481.41	13816.18
481.59	14195.35
481.77	14118.11
481.95	14272.59
482.13	14626.01
482.31	14508.98
482.49	14902.19
482.67	14710.27
482.85	14963.04
483.03	15112.84
483.21	15264.97
483.39	15286.04
483.57	15332.85
483.74	15494.35
483.92	15421.79
484.10	15925.00
484.28	15939.05
484.46	16386.09
484.64	16465.67
484.82	16304.17
485.00	16407.16
485.18	16690.36
485.35	16688.02
485.53	16737.17
485.71	16842.50
485.89	17341.03
486.07	17263.79
486.25	17200.60
486.43	17149.11
486.61	17722.54
486.78	17539.97
486.96	17603.17
487.14	18293.63
487.32	18108.72
487.50	18375.55
487.68	18352.14
487.85	18728.97
488.03	18848.33
488.21	19094.09
488.39	18946.64
488.57	19227.50
488.75	19328.14
488.92	19543.47
489.10	19583.26
489.28	19520.07
489.46	19775.19
489.64	19702.63
489.81	20266.70
489.99	19981.15
490.17	20432.88
490.35	20493.73
490.53	20561.61
490.70	20849.49
490.88	20652.89
491.06	21125.68
491.24	21207.59
491.41	21472.07
491.59	21106.95
491.77	21355.05
491.95	21806.77
492.13	21816.13
492.30	21715.49
492.48	21876.99
492.66	22146.15
492.84	22043.17
493.01	22342.75
493.19	22726.60
493.37	22623.62
493.54	22728.94
493.72	22801.50
493.90	23056.62
494.08	23194.71
494.25	23468.55
494.43	23440.47
494.61	23728.35
494.79	23931.98
494.96	23754.10
495.14	23777.50
495.32	23777.50
495.49	24086.45
495.67	24416.47
495.85	24353.27
496.02	24636.48
496.20	24779.25
496.38	24680.95
496.55	24891.60
496.73	25654.61
496.91	25333.96
497.09	25682.70
497.26	25572.69
497.44	25577.37
497.62	25549.29
497.79	25902.71
497.97	25572.69
498.14	26115.70
498.32	26469.12
498.50	26609.55
498.67	26522.95
498.85	26595.51
499.03	26639.98
499.20	26735.94
499.38	26665.72
499.56	26735.94
499.73	27520.02
499.91	27414.69
500.08	27421.72
500.26	26871.69
500.44	27711.94
500.61	27365.54
500.79	27562.15
500.97	27828.97
501.14	27810.25
501.32	27740.03
501.49	27955.36
501.67	27695.56
501.84	28446.87
502.02	28236.22
502.20	28758.16
502.37	28744.12
502.55	28669.22
502.72	28606.03
502.90	28875.19
503.07	28563.90
503.25	29032.00
503.43	28601.35
503.60	29249.67
503.78	29083.50
503.95	29057.75
504.13	29528.20
504.30	29378.40
504.48	29441.60
504.65	29867.58
504.83	29944.81
505.01	30019.71
505.18	30401.22
505.36	30567.40
505.53	30164.82
505.71	29975.24
505.88	30555.69
506.06	30195.25
506.23	30628.25
506.41	30724.21
506.58	30480.80
506.76	30527.61
506.93	30419.94
507.11	30654.00
507.28	30806.13
507.46	31056.57
507.63	31145.51
507.81	31424.03
507.98	31255.51
508.16	31545.74
508.33	31398.29
508.50	31496.59
508.68	31723.62
508.85	31613.62
509.03	31992.78
509.20	31714.26
509.38	31840.65
509.55	32318.12
509.73	32458.55
509.90	32378.97
510.08	32397.70
510.25	32498.34
510.42	32694.94
510.60	32734.73
510.77	32861.12
510.95	33200.50
511.12	32858.78
511.30	33083.47
511.47	32821.33
511.64	33429.87
511.82	33722.44
511.99	32980.49
512.17	33476.68
512.34	33652.22
512.51	33848.83
512.69	33720.10
512.86	33589.03
513.04	34139.05
513.21	34167.14
513.38	34246.72
513.56	33926.07
513.73	33844.15
513.90	34319.28
514.08	34157.78
514.25	34349.70
514.43	34553.33
514.60	34660.99
514.77	34920.79
514.95	35129.10
515.12	34642.27
515.29	34712.49
515.47	34747.59
515.64	35269.53
515.81	35054.20
515.99	35386.56
516.16	35494.22
516.33	35777.43
516.51	35419.33
516.68	35381.88
516.85	35613.59
517.03	35749.34
517.20	35976.37
517.37	35683.81
517.54	36407.03
517.72	36240.86
517.89	35936.59
518.06	35857.01
518.24	36105.10
518.41	36187.02
518.58	36329.80
518.75	35873.39
518.93	36753.43
519.10	36776.84
519.27	36491.29
519.45	36643.43
519.62	36493.63
519.79	36781.52
519.96	36673.85
520.14	37207.50
520.31	37071.75
520.48	37123.24
520.65	37308.14
520.83	37596.03
521.00	37329.20
521.17	37106.85
521.34	37614.75
521.52	37593.68
521.69	37539.85
521.86	37867.53
522.03	37956.47
522.20	37958.81
522.38	37841.78
522.55	38202.22
522.72	38220.95
522.89	38047.75
523.07	38511.17
523.24	38274.78
523.41	38726.50
523.58	38520.54
523.75	38572.03
523.92	38649.27
524.10	38614.16
524.27	38770.97
524.44	39295.25
524.61	38848.21
524.78	39014.39
524.96	39007.37
525.13	39056.52
525.30	39175.89
525.47	39414.62
525.64	39269.51
525.81	39737.62
525.98	39643.99
526.16	39615.91
526.33	39660.38
526.50	40191.68
526.67	39391.22
526.84	39208.65
527.01	39580.80
527.18	39878.05
527.36	39899.11
527.53	39976.35
527.70	40229.13
527.87	40320.41
528.04	40311.05
528.21	40512.33
528.38	40046.57
528.55	40229.13
528.72	40491.27
528.89	40636.38
529.07	40165.93
529.24	40521.69
529.41	40837.67
529.58	40341.47
529.75	40605.95
529.92	40540.42
530.09	41170.02
530.26	41015.55
530.43	41102.15
530.60	40589.57
530.77	40999.16
530.94	41312.80
531.11	40765.11
531.28	40861.07
531.46	41476.63
531.63	41237.90
531.80	41708.35
531.97	41265.99
532.14	41378.33
532.31	41172.36
532.48	41825.37
532.65	41811.33
532.82	41467.27
532.99	41820.69
533.16	41698.98
533.33	41902.61
533.50	42139.00
533.67	42396.46
533.84	41895.59
534.01	42068.79
534.18	41666.22
534.35	42150.71
534.52	41996.23
534.69	42939.47
534.86	42527.53
535.03	42412.85
535.20	42597.75
535.37	42646.90
535.54	42789.67
535.71	42270.08
535.88	42293.48
536.05	42560.30
536.22	42934.79
536.38	42782.65
536.55	43093.94
536.72	42824.78
536.89	43030.75
537.06	42717.12
537.23	43164.16
537.40	42803.72
537.57	43068.20
537.74	43065.86
537.91	43398.21
538.08	43262.46
538.25	43416.94
538.42	43487.15
538.59	43501.20
538.75	43267.14
538.92	43346.72
539.09	43735.25
539.26	43882.70
539.43	43555.03
539.60	43744.61
539.77	43419.28
539.94	44053.56
540.11	44062.93
540.28	44030.16
540.44	43992.71
540.61	43952.92
540.78	43913.13
540.95	44388.26
541.12	44215.06
541.29	44521.67
541.46	43887.39
541.62	43995.05
541.79	44559.12
541.96	44287.62
542.13	43997.39
542.30	44451.45
542.47	44985.10
542.63	44797.85
542.80	44760.40
542.97	45069.36
543.14	45244.90
543.31	45024.89
543.48	45113.83
543.64	45614.70
543.81	45385.33
543.98	45418.10
544.15	45408.73
544.32	45401.71
544.48	45703.64
544.65	45427.46
544.82	45249.58
544.99	45071.70
545.16	45397.03
545.32	44985.10
545.49	45928.33
545.66	46658.58
545.83	46616.45
546.00	46281.75
546.16	45717.68
546.33	45890.88
546.50	45038.93
546.67	45771.52
546.83	45235.53
547.00	46146.00
547.17	45734.07
547.34	45717.68
547.50	46122.60
547.67	46148.34
547.84	46024.29
548.00	46333.24
548.17	46279.41
548.34	46150.68
548.51	46803.69
548.67	46298.14
548.84	46267.71
549.01	46078.13
549.18	46277.07
549.34	46401.12
549.51	46471.34
549.68	46000.89
549.84	46253.67
550.01	46415.16
550.18	46223.24
550.34	46459.63
550.51	46438.57
550.68	46609.43
550.84	46307.50
551.01	46644.54
551.18	46225.58
551.34	46092.17
551.51	46349.63
551.68	46534.53
551.84	46483.04
552.01	46813.05
552.18	46721.77
552.34	46452.61
552.51	46522.83
552.68	46431.55
552.84	46424.53
553.01	46859.87
553.18	46934.76
553.34	46789.65
553.51	46667.94
553.67	47189.88
553.84	47213.29
554.01	47292.86
554.17	47114.98
554.34	46983.91
554.51	47019.02
554.67	46979.23
554.84	47274.14
555.00	46937.10
555.17	47316.27
555.33	47519.90
555.50	47096.26
555.67	47117.32
555.83	47082.22
556.00	46988.60
556.16	47622.88
556.33	47157.11
556.50	46939.44
556.66	47330.31
556.83	47416.91
556.99	47646.29
557.16	47159.45
557.32	47255.42
557.49	47681.39
557.65	47009.66
557.82	47157.11
557.98	47304.57
558.15	47236.69
558.32	47852.25
558.48	47381.80
558.65	48069.92
558.81	47639.26
558.98	47463.72
559.14	47786.72
559.31	47267.12
559.47	47665.01
559.64	47540.96
559.80	47688.42
559.97	47770.33
560.13	47803.10
560.30	47791.40
560.46	47585.43
560.63	47796.08
560.79	47512.88
560.96	47870.98
561.12	47739.91
561.29	47557.35
561.45	47707.14
561.61	48062.90
561.78	47983.32
561.94	48151.84
562.11	48107.37
562.27	47491.81
562.44	47976.30
562.60	47800.76
562.77	47791.40
562.93	48189.29
563.10	47973.96
563.26	48004.39
563.42	48498.24
563.59	48046.52
563.75	47767.99
563.92	48037.16
564.08	48102.69
564.24	48034.81
564.41	48025.45
564.57	47665.01
564.74	48114.39
564.90	48069.92
565.07	48282.91
565.23	48378.87
565.39	48238.44
565.56	48149.50
565.72	47856.93
565.88	48013.75
566.05	47466.06
566.21	47746.93
566.38	48074.60
566.54	48243.12
566.70	48769.74
566.87	48711.23
567.03	48119.07
567.19	48575.48
567.36	48280.57
567.52	48128.44
567.68	48282.91
567.85	47952.90
568.01	48388.24
568.17	48240.78
568.34	48025.45
568.50	47983.32
568.66	48275.89
568.83	48137.80
568.99	48451.43
569.15	48025.45
569.32	47950.56
569.48	47990.34
569.64	48301.64
569.81	48058.22
569.97	48044.18
570.13	48357.81
570.30	48105.03
570.46	48018.43
570.62	48748.68
570.78	48196.31
570.95	48435.05
571.11	48449.09
571.27	48016.09
571.43	47962.26
571.60	48535.69
571.76	48465.47
571.92	48336.74
572.09	48465.47
572.25	48783.79
572.41	48493.56
572.57	48212.70
572.74	48727.61
572.90	48013.75
573.06	48641.01
573.22	48849.32
573.38	48594.20
573.55	48566.12
573.71	48753.36
573.87	48751.02
574.03	48374.19
574.20	48505.26
574.36	48521.65
574.52	48301.64
574.68	48566.12
574.84	48449.09
575.01	48762.72
575.17	48708.89
575.33	48090.99
575.49	48224.40
575.65	48467.81
575.82	48552.07
575.98	48135.46
576.14	48559.09
576.30	48301.64
576.46	48608.25
576.62	48676.12
576.79	48282.91
576.95	48624.63
577.11	48388.24
577.27	48596.54
577.43	48795.49
577.59	48442.07
577.75	48505.26
577.92	48278.23
578.08	48664.42
578.24	48566.12
578.40	48687.82
578.56	48711.23
578.72	48765.06
578.88	48612.93
579.04	48608.25
579.21	48516.96
579.37	48858.68
579.53	48622.29
579.69	48126.10
579.85	48406.96
580.01	48758.04
580.17	48336.74
580.33	48250.14
580.49	48664.42
580.65	48720.59
580.82	48428.02
580.98	48814.21
581.14	48622.29
581.30	48734.63
581.46	48154.18
581.62	48582.50
581.78	48041.84
581.94	48624.63
582.10	48526.33
582.26	48825.92
582.42	48699.53
582.58	48470.15
582.74	48458.45
582.90	48573.14
583.06	48645.69
583.22	48341.42
583.38	48863.36
583.54	48442.07
583.70	48683.14
583.86	48641.01
584.02	48474.84
584.18	48542.71
584.34	48734.63
584.50	48444.41
584.66	48552.07
584.82	48528.67
584.98	48755.70
585.14	48692.50
585.30	48346.11
585.46	48636.33
585.62	48591.86
585.78	48467.81
585.94	48655.06
586.10	48505.26
586.26	48507.60
586.42	48626.97
586.58	48725.27
586.74	48662.08
586.90	48229.08
587.06	48514.62
587.22	48821.23
587.38	48538.03
587.54	48797.83
587.70	48659.74
587.86	48924.22
588.02	48797.83
588.18	49003.80
588.34	48746.34
588.49	48547.39
588.65	48451.43
588.81	48893.79
588.97	48584.84
589.13	48465.47
589.29	48774.42
589.45	48886.77
589.61	48809.53
589.77	49462.54
589.93	48603.56
590.08	48662.08
590.24	48676.12
590.40	48863.36
590.56	48933.58
590.72	48580.16
590.88	48423.34
591.04	48596.54
591.20	49003.80
591.35	48877.41
591.51	49528.08
591.67	49013.16
591.83	49436.80
591.99	49013.16
592.15	49081.03
592.31	48975.71
592.46	48657.40
592.62	48687.82
592.78	49017.84
592.94	48498.24
593.10	48622.29
593.26	48861.02
593.41	49202.74
593.57	48823.58
593.73	48839.96
593.89	49303.38
594.05	49062.31
594.20	48655.06
594.36	48949.96
594.52	48935.92
594.68	48769.74
594.84	48973.37
594.99	48910.17
595.15	48652.72
595.31	49230.83
595.47	48832.94
595.62	48568.46
595.78	48474.84
595.94	48669.10
596.10	49118.48
596.25	48889.11
596.41	48678.46
596.57	48596.54
596.73	49172.31
596.88	48800.17
597.04	48769.74
597.20	48891.45
597.36	48980.39
597.51	49212.10
597.67	48889.11
597.83	48664.42
597.99	48928.90
598.14	48753.36
598.30	48907.83
598.46	48882.09
598.61	49029.54
598.77	48701.87
598.93	49291.68
599.09	49160.61
599.24	48975.71
599.40	48718.25
599.56	49268.28
599.71	48910.17
599.87	48975.71
600.03	48781.45
600.18	48765.06
600.34	48713.57
600.50	49090.40
600.65	49020.18
600.81	49174.66
600.97	49038.90
601.12	49052.95
601.28	49113.80
601.44	48912.52
601.59	48802.51
601.75	48961.67
601.91	48919.54
602.06	48479.52
602.22	48655.06
602.37	48619.95
602.53	48992.09
602.69	48844.64
602.84	48622.29
603.00	49141.89
603.16	49010.82
603.31	48748.68
603.47	48940.60
603.62	48547.39
603.78	48224.40
603.94	48294.61
604.09	48851.66
604.25	48303.98
604.40	48411.64
604.56	48751.02
604.71	48980.39
604.87	48559.09
605.03	49062.31
605.18	48563.78
605.34	48704.21
605.49	48327.38
605.65	48411.64
605.80	48245.46
605.96	48516.96
606.12	48472.49
606.27	48744.00
606.43	48266.53
606.58	48453.77
606.74	48608.25
606.89	48353.13
607.05	48535.69
607.20	48516.96
607.36	48369.51
607.51	48610.59
607.67	48151.84
607.82	48500.58
607.98	48418.66
608.13	48179.93
608.29	48514.62
608.44	47966.94
608.60	48215.04
608.75	48313.34
608.91	48545.05
609.06	48222.06
609.22	48643.35
609.37	47789.06
609.53	48130.78
609.68	48112.05
609.84	47824.17
609.99	48128.44
610.15	48399.94
610.30	48512.28
610.46	48568.46
610.61	48505.26
610.76	48912.52
610.92	49205.08
611.07	49226.15
611.23	48938.26
611.38	48680.80
611.54	48533.35
611.69	48395.26
611.84	48336.74
612.00	48076.94
612.15	47906.08
612.31	48481.86
612.46	48268.87
612.62	48158.86
612.77	47945.87
612.92	47992.68
613.08	48062.90
613.23	48348.45
613.39	48083.97
613.54	47789.06
613.69	47641.60
613.85	47592.45
614.00	47730.54
614.15	47941.19
614.31	47615.86
614.46	48081.63
614.62	47899.06
614.77	47608.84
614.92	48039.50
615.08	47845.23
615.23	47793.74
615.38	47573.73
615.54	47124.35
615.69	47416.91
615.84	46958.17
616.00	47782.04
616.15	47494.15
616.30	47107.96
616.46	47400.53
616.61	46997.96
616.76	47264.78
616.92	47224.99
617.07	47611.18
617.22	47171.16
617.37	46939.44
617.53	47260.10
617.68	47477.77
617.83	46546.23
617.99	46916.04
618.14	46993.28
618.29	47494.15
618.45	47014.34
618.60	47175.84
618.75	47122.01
618.90	47089.24
619.06	47079.88
619.21	46892.63
619.36	47126.69
619.51	46684.33
619.67	46658.58
619.82	46618.79
619.97	46717.09
620.12	46738.16
620.28	46925.40
620.43	46419.84
620.58	46990.94
620.73	46913.70
620.89	47079.88
621.04	47154.77
621.19	46820.08
621.34	46363.67
621.49	46487.72
621.65	46564.96
621.80	46614.11
621.95	46686.67
622.10	46443.25
622.25	46274.73
622.41	46450.27
622.56	46253.67
622.71	46546.23
622.86	46461.97
623.01	46284.09
623.16	46412.82
623.32	45949.40
623.47	46490.06
623.62	45991.53
623.77	46227.92
623.92	46256.01
624.07	46000.89
624.23	45911.95
624.38	46377.72
624.53	46234.94
624.68	46607.09
624.83	46260.69
624.98	45949.40
625.13	45904.93
625.29	46061.74
625.44	45928.33
625.59	45682.58
625.74	45666.19
625.89	45722.37
626.04	45368.94
626.19	45415.76
626.34	45577.25
626.49	45628.74
626.65	45638.11
626.80	45633.42
626.95	45577.25
627.10	45319.79
627.25	45539.80
627.40	44999.14
627.55	45464.91
627.70	45256.60
627.85	45558.53
628.00	45270.64
628.15	45305.75
628.30	45301.07
628.45	45382.99
628.60	45170.00
628.76	45488.31
628.91	45368.94
629.06	45294.05
629.21	45062.33
629.36	45425.12
629.51	45081.06
629.66	44886.79
629.81	45153.62
629.96	44828.28
630.11	44772.11
630.26	44982.76
630.41	44797.85
630.56	44966.37
630.71	44811.90
630.86	45233.19
631.01	44498.26
631.16	44973.39
631.31	44959.35
631.46	44626.99
631.61	45170.00
631.76	44809.56
631.91	44737.00
632.06	44397.62
632.21	44388.26
632.36	43959.94
632.51	43910.79
632.66	44486.56
632.81	44472.52
632.96	44329.75
633.10	44772.11
633.25	44697.21
633.40	44268.89
633.55	44332.09
633.70	43983.35
633.85	44006.75
634.00	43943.56
634.15	44299.32
634.30	43878.02
634.45	43650.99
634.60	43840.57
634.75	44182.29
634.90	43938.88
635.05	44367.20
635.19	44109.74
635.34	44231.44
635.49	44348.47
635.64	44081.65
635.79	44151.87
635.94	43859.30
636.09	43798.44
636.24	44002.07
636.39	43508.22
636.53	43470.77
636.68	43625.25
636.83	43391.19
636.98	44009.09
637.13	44002.07
637.28	44072.29
637.43	43814.83
637.57	43739.93
637.72	43232.04
637.87	43372.47
638.02	43466.09
638.17	43508.22
638.32	43681.42
638.46	43356.08
638.61	43522.26
638.76	43168.84
638.91	43054.15
639.06	43285.87
639.20	43414.60
639.35	43239.06
639.50	43337.36
639.65	43580.78
639.80	43084.58
639.94	43056.50
640.09	42670.31
640.24	43033.09
640.39	42850.53
640.54	42527.53
640.68	42567.32
640.83	42471.36
640.98	42682.01
641.13	42518.17
641.27	43056.50
641.42	42600.09
641.57	42925.42
641.72	42890.32
641.86	42710.10
642.01	42480.72
642.16	42845.85
642.31	42394.12
642.45	42391.78
642.60	42609.45
642.75	42251.35
642.90	42382.42
643.04	42263.05
643.19	42139.00
643.34	42312.20
643.48	42417.53
643.63	42522.85
643.78	42277.10
643.93	42876.27
644.07	42564.98
644.22	42305.18
644.37	42693.71
644.51	42403.49
644.66	42265.39
644.81	41469.61
644.95	41759.84
645.10	41764.52
645.25	41617.07
645.39	42426.89
645.54	42096.88
645.69	41771.54
645.83	42249.01
645.98	42050.06
646.13	41982.19
646.27	42249.01
646.42	42504.13
646.57	42263.05
646.71	41832.39
646.86	41401.74
647.00	41202.79
647.15	41614.72
647.30	41808.99
647.44	41406.42
647.59	41818.35
647.74	41689.62
647.88	41918.99
648.03	41851.12
648.17	41979.85
648.32	41993.89
648.47	41724.73
648.61	41366.63
648.76	41972.83
648.90	41776.22
649.05	41368.97
649.20	41542.17
649.34	41153.64
649.49	41247.26
649.63	41228.54
649.78	41265.99
649.92	41336.20
650.07	41385.35
650.21	41235.56
650.36	41092.79
650.51	41209.81
650.65	41542.17
650.80	41392.37
650.94	40985.12
651.09	41235.56
651.23	40837.67
651.38	40938.31
651.52	40671.49
651.67	40832.99
651.81	40720.64
651.96	40465.52
652.10	40715.96
652.25	40814.26
652.39	40706.60
652.54	40388.28
652.68	40732.34
652.83	41057.68
652.97	40678.51
653.12	40849.37
653.26	40814.26
653.41	40451.48
653.55	40495.95
653.70	40182.32
653.84	40634.04
653.99	40271.26
654.13	40287.64
654.27	40409.35
654.42	40294.66
654.56	40545.10
654.71	40322.75
654.85	40114.44
655.00	40292.32
655.14	40498.29
655.29	40409.35
655.43	40163.59
655.57	40222.11
655.72	39871.03
655.86	40020.82
656.01	39775.06
656.15	39739.96
656.30	39360.79
656.44	39690.80
656.58	39845.28
656.73	40144.87
656.87	39915.50
657.01	39915.50
657.16	40065.29
657.30	39885.07
657.45	40294.66
657.59	40062.95
657.73	39627.61
657.88	39571.44
658.02	39782.09
658.16	39381.85
658.31	39306.96
658.45	39208.65
658.60	39442.71
658.74	39421.64
658.88	39159.50
659.03	39367.81
659.17	39332.70
659.31	39112.69
659.46	39103.33
659.60	39321.00
659.74	39351.43
659.89	39363.13
660.03	38981.62
660.17	38962.90
660.32	38831.83
660.46	38649.27
660.60	38340.32
660.74	38822.47
660.89	38857.57
661.03	38363.72
661.17	38904.38
661.32	38843.53
661.46	38733.53
661.60	38354.36
661.74	39023.75
661.89	38714.80
662.03	38733.53
662.17	38443.30
662.31	38506.49
662.46	38749.91
662.60	38108.60
662.74	38080.52
662.88	38052.43
663.03	37996.26
663.17	38012.64
663.31	37972.85
663.45	37876.89
663.60	37961.15
663.74	37921.36
663.88	38117.96
664.02	37200.47
664.17	37825.40
664.31	37598.37
664.45	37518.79
664.59	37338.57
664.73	37401.76
664.88	37820.72
665.02	36879.82
665.16	36701.94
665.30	36875.14
665.44	37633.47
665.59	37167.71
665.73	36840.03
665.87	36545.12
666.01	37354.95
666.15	37170.05
666.29	36816.63
666.44	36975.78
666.58	36814.29
666.72	37067.06
666.86	36847.05
667.00	36741.73
667.14	36573.21
667.28	36402.35
667.43	36517.04
667.57	36348.52
667.71	36074.68
667.85	36044.25
667.99	36264.26
668.13	36070.00
668.27	36301.71
668.41	36208.09
668.56	35868.71
668.70	36226.81
668.84	35842.96
668.98	36362.56
669.12	36107.44
669.26	36521.72
669.40	35215.70
669.54	35498.91
669.68	35896.80
669.82	35157.19
669.96	35517.63
670.10	35445.07
670.25	35559.76
670.39	35274.21
670.53	35215.70
670.67	34583.76
670.81	35323.36
670.95	35442.73
671.09	35321.02
671.23	34962.92
671.37	35297.62
671.51	34733.55
671.65	34925.47
671.79	34876.32
671.93	34670.36
672.07	34824.83
672.21	34766.32
672.35	34183.52
672.49	34260.76
672.63	34101.61
672.77	34220.97
672.91	34073.52
673.05	33692.01
673.19	34155.44
673.33	34258.42
673.47	33582.01
673.61	34199.91
673.75	34012.66
673.89	34015.01
674.03	34106.29
674.17	33652.22
674.31	33125.60
674.45	33523.49
674.59	32900.91
674.73	33259.01
674.87	33226.24
675.01	33132.62
675.15	32730.05
675.29	33024.96
675.43	33373.70
675.56	33202.84
675.70	32973.47
675.84	32811.97
675.98	32257.26
676.12	33020.28
676.26	32510.04
676.40	32636.43
676.54	32378.97
676.68	32311.10
676.82	31548.08
676.96	32158.96
677.10	31648.72
677.23	31889.80
677.37	31730.64
677.51	31669.79
677.65	31667.45
677.79	31253.17
677.93	30995.71
678.07	31318.71
678.21	31557.44
678.34	31030.82
678.48	31145.51
678.62	31318.71
678.76	30927.84
678.90	30815.49
679.04	30808.47
679.18	30590.80
679.31	30405.90
679.45	30394.20
679.59	30087.59
679.73	30445.69
679.87	29600.76
680.00	30110.99
680.14	29640.54
680.28	29729.48
680.42	29895.66
680.56	29755.23
680.70	29806.72
680.83	29802.04
680.97	29488.41
681.11	30031.41
681.25	29596.07
681.39	29247.33
681.52	29085.84
681.66	29256.70
681.80	28781.57
681.94	28713.69
682.07	28870.51
682.21	28699.65
682.35	28701.99
682.49	28561.56
682.62	28423.47
682.76	28467.94
682.90	28091.11
683.04	28236.22
683.17	28198.77
683.31	28156.64
683.45	28130.90
683.59	27618.32
683.72	28187.07
683.86	27618.32
684.00	27482.57
684.13	27618.32
684.27	27461.51
684.41	27187.66
684.55	27154.90
684.68	27264.90
684.82	26881.05
684.96	27072.98
685.09	26852.97
685.23	26857.65
685.37	26888.07
685.50	26518.27
685.64	26747.64
685.78	26738.28
685.91	26536.99
686.05	26518.27
686.19	26251.45
686.32	26597.85
686.46	26106.34
686.60	25731.85
686.73	25940.16
686.87	25731.85
687.01	25689.72
687.14	25584.40
687.28	25322.26
687.42	25151.40
687.55	25336.30
687.69	25383.11
687.82	25116.29
687.96	25294.17
688.10	24919.68
688.23	25144.38
688.37	24999.26
688.50	24620.10
688.64	24673.93
688.78	24699.67
688.91	24465.62
689.05	24463.28
689.18	24201.14
689.32	24210.50
689.46	23789.20
689.59	23800.91
689.73	24245.61
689.86	23850.06
690.00	23711.97
690.13	23634.73
690.27	23388.97
690.41	23852.40
690.54	23531.75
690.68	23442.81
690.81	23398.34
690.95	23515.36
691.08	23538.77
691.22	22899.80
691.35	22843.63
691.49	22735.96
691.62	22630.64
691.76	22473.82
691.89	22721.92
692.03	22707.88
692.16	22263.18
692.30	22232.75
692.43	22321.69
692.57	22012.74
692.70	22361.48
692.84	22174.24
692.97	21804.43
693.11	22005.72
693.24	21979.97
693.38	21811.45
693.51	21818.47
693.65	21809.11
693.78	21362.07
693.92	21242.70
694.05	21673.36
694.19	21177.17
694.32	21343.35
694.45	21088.23
694.59	20755.87
694.72	20428.20
694.86	20575.65
694.99	20388.41
695.13	20599.05
695.26	20372.02
695.39	20418.83
695.53	20999.29
695.66	20531.18
695.80	20407.13
695.93	20168.40
696.07	20091.16
696.20	20393.09
696.33	20056.05
696.47	19744.76
696.60	19857.10
696.73	19964.77
696.87	19852.42
697.00	19173.67
697.14	19372.61
697.27	19239.20
697.40	19197.07
697.54	19056.64
697.67	19119.84
697.80	18920.89
697.94	19080.05
698.07	18834.29
698.21	18672.79
698.34	18991.11
698.47	18665.77
698.61	18597.90
698.74	18515.98
698.87	18527.68
699.01	18354.48
699.14	18295.97
699.27	18153.20
699.40	18143.83
699.54	17862.97
699.67	17446.35
699.80	17514.23
699.94	17579.76
700.07	17542.32
700.20	17270.81
700.34	17446.35
700.47	17329.33
700.60	17130.38
700.73	17568.06
700.87	17317.62
701.00	17050.80
701.13	17172.51
701.26	17062.51
701.40	17202.94
701.53	17231.02
701.66	16863.56
701.79	16727.81
701.93	16521.84
702.06	16751.21
702.19	16699.72
702.32	16533.54
702.46	16266.72
702.59	16053.73
702.72	16231.62
702.85	15915.64
702.99	15763.51
703.12	16074.80
703.25	15672.23
703.38	15880.53
703.51	15999.90
703.65	15815.00
703.78	15922.66
703.91	15424.13
704.04	15602.01
704.17	15555.20
704.31	15431.15
704.44	15346.89
704.57	15403.07
704.70	14970.07
704.83	14731.33
704.96	14717.29
705.10	14841.34
705.23	14829.63
>>>>>End Processed Spectral Data<<<<<
