SpectraSuite Data File
++++++++++++++++++++++++++++++++++++
Date: Fri Oct 04 11:39:31 GMT-05:00 2013
User: price-jones
Dark Spectrum Present: No
Reference Spectrum Present: No
Number of Sampled Component Spectra: 1
Spectrometers: USB2+H05261
Integration Time (usec): 100000 (USB2+H05261)
Spectra Averaged: 1 (USB2+H05261)
Boxcar Smoothing: 0 (USB2+H05261)
Correct for Electrical Dark: No (USB2+H05261)
Strobe/Lamp Enabled: No (USB2+H05261)
Correct for Detector Non-linearity: No (USB2+H05261)
Correct for Stray Light: No (USB2+H05261)
Number of Pixels in Processed Spectrum: 2048
>>>>>Begin Processed Spectral Data<<<<<
365.73	72.56
365.92	72.56
366.12	72.56
366.32	0.00
366.52	0.00
366.72	0.00
366.91	9.36
367.11	0.00
367.31	0.00
367.51	0.00
367.70	0.00
367.90	0.00
368.10	7.02
368.30	0.00
368.49	0.00
368.69	0.00
368.89	0.00
369.09	0.00
369.28	0.00
369.48	0.00
369.68	39.79
369.87	0.00
370.07	2.34
370.27	21.06
370.47	117.03
370.66	259.80
370.86	308.95
371.06	222.35
371.25	362.78
371.45	315.97
371.65	318.31
371.84	285.55
372.04	400.23
372.24	381.51
372.44	318.31
372.63	374.49
372.83	409.59
373.03	292.57
373.22	379.17
373.42	407.25
373.62	355.76
373.81	425.98
374.01	449.38
374.21	454.06
374.40	365.12
374.60	505.56
374.79	461.09
374.99	456.40
375.19	486.83
375.38	461.09
375.58	461.09
375.78	454.06
375.97	437.68
376.17	573.43
376.37	524.28
376.56	440.02
376.76	498.53
376.95	458.74
377.15	393.21
377.35	355.76
377.54	486.83
377.74	479.81
377.93	437.68
378.13	514.92
378.33	545.34
378.52	528.96
378.72	552.37
378.91	540.66
379.11	531.30
379.31	512.58
379.50	486.83
379.70	514.92
379.89	521.94
380.09	528.96
380.28	519.60
380.48	533.64
380.68	564.07
380.87	496.19
381.07	601.52
381.26	514.92
381.46	575.77
381.65	622.58
381.85	629.60
382.04	543.00
382.24	624.92
382.43	608.54
382.63	519.60
382.83	524.28
383.02	566.41
383.22	650.67
383.41	496.19
383.61	662.37
383.80	641.31
384.00	585.13
384.19	596.84
384.39	615.56
384.58	678.76
384.78	678.76
384.97	622.58
385.17	566.41
385.36	603.86
385.56	629.60
385.75	575.77
385.95	599.18
386.14	697.48
386.34	641.31
386.53	674.07
386.72	688.12
386.92	727.91
387.11	650.67
387.31	678.76
387.50	653.01
387.70	685.78
387.89	730.25
388.09	725.57
388.28	650.67
388.48	650.67
388.67	727.91
388.86	681.10
389.06	823.87
389.25	720.88
389.45	685.78
389.64	676.41
389.84	807.48
390.03	732.59
390.22	734.93
390.42	699.82
390.61	643.65
390.81	795.78
391.00	751.31
391.19	870.68
391.39	798.12
391.58	770.04
391.78	802.80
391.97	849.61
392.16	807.48
392.36	882.38
392.55	894.08
392.75	889.40
392.94	791.10
393.13	917.49
393.33	917.49
393.52	814.51
393.71	964.30
393.91	952.60
394.10	849.61
394.29	800.46
394.49	882.38
394.68	891.74
394.88	882.38
395.07	917.49
395.26	957.28
395.46	1053.24
395.65	1004.09
395.84	1064.94
396.04	1022.81
396.23	1064.94
396.42	1043.88
396.62	1048.56
396.81	1071.97
397.00	1029.84
397.19	1034.52
397.39	1025.15
397.58	1104.73
397.77	1090.69
397.97	1055.58
398.16	1121.12
398.35	1200.69
398.55	1022.81
398.74	1114.10
398.93	1132.82
399.12	1111.75
399.32	1029.84
399.51	1149.20
399.70	1277.93
399.90	1228.78
400.09	1210.06
400.28	1275.59
400.47	1256.87
400.67	1291.98
400.86	1331.76
401.05	1310.70
401.24	1334.11
401.44	1291.98
401.63	1359.85
401.82	1359.85
402.01	1327.08
402.21	1369.21
402.40	1261.55
402.59	1409.00
402.78	1301.34
402.97	1348.15
403.17	1390.28
403.36	1399.64
403.55	1423.05
403.74	1444.11
403.93	1467.52
404.13	1509.65
404.32	1589.22
404.51	1446.45
404.70	1593.90
404.89	1497.94
405.09	1509.65
405.28	1542.41
405.47	1589.22
405.66	1612.63
405.85	1551.78
406.05	1540.07
406.24	1619.65
406.43	1675.82
406.62	1753.06
406.81	1629.01
407.00	1720.29
407.20	1685.19
407.39	1703.91
407.58	1769.44
407.77	1764.76
407.96	1792.85
408.15	1802.21
408.34	1872.43
408.54	1790.51
408.73	1858.39
408.92	1900.52
409.11	1940.30
409.30	1947.33
409.49	1921.58
409.68	1933.28
409.87	1914.56
410.07	2040.95
410.26	2092.44
410.45	2062.01
410.64	1956.69
410.83	2104.14
411.02	2092.44
411.21	2076.06
411.40	2160.31
411.59	2211.81
411.78	2221.17
411.98	2174.36
412.17	2275.00
412.36	2232.87
412.55	2239.89
412.74	2326.49
412.93	2385.01
413.12	2197.76
413.31	2462.24
413.50	2422.45
413.69	2431.82
413.88	2532.46
414.07	2471.61
414.26	2576.93
414.45	2649.49
414.64	2616.72
414.83	2644.81
415.02	2633.10
415.22	2736.09
415.41	2619.06
415.60	2675.23
415.79	2750.13
415.98	2846.09
416.17	2946.73
416.36	2794.60
416.55	2965.46
416.74	2920.99
416.93	2986.52
417.12	3030.99
417.31	2937.37
417.50	3033.33
417.69	3218.24
417.88	3180.79
418.07	2876.52
418.26	3084.83
418.45	3248.66
418.64	3126.96
418.83	3194.83
419.02	3241.64
419.21	3220.58
419.39	3302.50
419.58	3187.81
419.77	3089.51
419.96	3407.82
420.15	3346.97
420.34	3386.76
420.53	3335.26
420.72	3468.67
420.91	3384.41
421.10	3468.67
421.29	3576.34
421.48	3524.85
421.67	3485.06
421.86	3421.86
422.05	3431.23
422.24	3555.27
422.43	3485.06
422.61	3569.32
422.80	3585.70
422.99	3632.51
423.18	3726.13
423.37	3583.36
423.56	3686.34
423.75	3719.11
423.94	3653.58
424.13	3480.38
424.32	3447.61
424.50	3779.97
424.69	3763.58
424.88	3681.66
425.07	3618.47
425.26	3679.32
425.45	3641.87
425.64	3772.94
425.83	3824.44
426.01	3726.13
426.20	3716.77
426.39	3789.33
426.58	3723.79
426.77	3733.15
426.96	3803.37
427.15	3744.86
427.33	3756.56
427.52	3847.84
427.71	3880.61
427.90	3908.69
428.09	3803.37
428.28	3861.88
428.46	4051.47
428.65	3901.67
428.84	4025.72
429.03	4025.72
429.22	3843.16
429.40	3981.25
429.59	3967.21
429.78	3894.65
429.97	3988.27
430.16	3964.87
430.34	4081.89
430.53	4224.67
430.72	4294.88
430.91	4147.43
431.10	4177.86
431.28	4152.11
431.47	4341.69
431.66	4322.97
431.85	4243.39
432.03	4367.44
432.22	4510.21
432.41	4390.84
432.60	4451.70
432.79	4334.67
432.97	4372.12
433.16	4346.37
433.35	4411.91
433.54	4489.15
433.72	4320.63
433.91	4622.56
434.10	4533.62
434.28	4475.10
434.47	4711.50
434.66	4758.31
434.85	4521.92
435.03	4681.07
435.22	4798.10
435.41	5036.83
435.59	5130.45
435.78	5015.77
435.97	4875.34
436.16	4856.61
436.34	4835.55
436.53	4645.96
436.72	5123.43
436.90	4828.53
437.09	4751.29
437.28	4788.74
437.46	4814.48
437.65	4830.87
437.84	5022.79
438.02	5025.13
438.21	5132.79
438.40	4978.32
438.58	5214.71
438.77	5100.03
438.96	5212.37
439.14	5289.61
439.33	5334.08
439.52	5303.65
439.70	5334.08
439.89	5373.87
440.08	5483.88
440.26	5540.05
440.45	5481.53
440.63	5404.30
440.82	5657.07
441.01	5643.03
441.19	5621.97
441.38	5694.52
441.57	5764.74
441.75	5736.65
441.94	5806.87
442.12	5783.46
442.31	5858.36
442.50	5881.77
442.68	6008.16
442.87	6094.76
443.05	5954.32
443.24	6038.58
443.43	6022.20
443.61	6066.67
443.80	6307.74
443.98	5968.37
444.17	5884.11
444.35	6061.99
444.54	6232.85
444.73	6106.46
444.91	6024.54
445.10	6043.26
445.28	6071.35
445.47	6073.69
445.65	6176.67
445.84	6115.82
446.02	6171.99
446.21	6291.36
446.39	6054.97
446.58	6242.21
446.77	6169.65
446.95	6230.51
447.14	6176.67
447.32	6434.13
447.51	6366.26
447.69	6167.31
447.88	6291.36
448.06	6305.40
448.25	6403.71
448.43	6399.02
448.62	6342.85
448.80	6300.72
448.99	6333.49
449.17	6340.51
449.36	6349.87
449.54	6452.86
449.73	6593.29
449.91	6438.81
450.10	6719.68
450.28	6717.34
450.46	6640.10
450.65	6670.53
450.83	6640.10
451.02	6588.61
451.20	6668.19
451.39	6897.56
451.57	6665.85
451.76	6881.18
451.94	6820.32
452.13	6754.79
452.31	6731.38
452.49	6820.32
452.68	6918.62
452.86	6846.07
453.05	6920.96
453.23	6958.41
453.42	7007.56
453.60	6913.94
453.78	6979.48
453.97	6867.13
454.15	6981.82
454.34	7000.54
454.52	7286.09
454.70	7098.84
454.89	7192.47
455.07	7255.66
455.26	7129.27
455.44	7332.90
455.62	7286.09
455.81	7328.22
455.99	7442.90
456.17	7288.43
456.36	7360.98
456.54	7485.03
456.73	7695.68
456.91	7698.02
457.09	7747.17
457.28	7658.23
457.46	7510.78
457.64	7595.04
457.83	7646.53
458.01	7578.65
458.19	7976.55
458.38	7751.85
458.56	7744.83
458.74	7566.95
458.93	7709.72
459.11	7878.24
459.29	7847.82
459.48	7981.23
459.66	7978.89
459.84	7906.33
460.03	8166.13
460.21	8145.06
460.39	8093.57
460.57	7964.84
460.76	8168.47
460.94	8241.03
461.12	8379.12
461.31	8271.45
461.49	8156.77
461.67	8032.72
461.85	8241.03
462.04	8280.82
462.22	8458.70
462.40	8439.97
462.59	8402.52
462.77	8344.01
462.95	8458.70
463.13	8360.39
463.32	8393.16
463.50	8528.91
463.68	8390.82
463.86	8645.94
464.05	8468.06
464.23	8498.49
464.41	8636.58
464.59	8528.91
464.78	8634.24
464.96	8449.33
465.14	8580.40
465.32	8910.42
465.50	8898.72
465.69	8844.88
465.87	8793.39
466.05	8793.39
466.23	8856.59
466.41	8929.14
466.60	9064.89
466.78	8908.08
466.96	8903.40
467.14	8975.95
467.32	9149.15
467.51	9188.94
467.69	8821.48
467.87	8968.93
468.05	9146.81
468.23	9039.15
468.41	9069.58
468.60	9043.83
468.78	9210.01
468.96	9158.52
469.14	9261.50
469.32	9518.96
469.50	9100.00
469.69	9399.59
469.87	9446.40
470.05	9621.94
470.23	9507.26
470.41	9589.17
470.59	9757.69
470.77	9359.80
470.95	9668.75
471.14	9591.52
471.32	9537.68
471.50	9928.55
471.68	10036.22
471.86	9935.57
472.04	9877.06
472.22	10132.18
472.40	9968.34
472.58	10031.54
472.77	10239.84
472.95	10284.31
473.13	10471.56
473.31	10207.08
473.49	10298.36
473.67	10270.27
473.85	10127.50
474.03	10527.73
474.21	10651.78
474.39	10551.14
474.57	10583.90
474.75	10630.71
474.93	10832.00
475.12	10560.50
475.30	10768.80
475.48	10930.30
475.66	10944.34
475.84	11091.80
476.02	10991.16
476.20	11023.92
476.38	11419.47
476.56	11534.16
476.74	11489.69
476.92	11454.58
477.10	11531.82
477.28	11770.55
477.46	11693.32
477.64	11831.41
477.82	11796.30
478.00	12191.85
478.18	12329.94
478.36	12049.08
478.54	12367.39
478.72	12479.74
478.90	12360.37
479.08	12458.67
479.26	12922.10
479.44	12498.46
479.62	12788.69
479.80	13109.34
479.98	13078.91
480.16	13107.00
480.34	12898.69
480.52	13401.91
480.70	13294.24
480.88	13245.09
481.06	13455.74
481.24	13418.29
481.41	13640.64
481.59	13619.58
481.77	14054.92
481.95	13987.04
482.13	14310.04
482.31	14073.64
482.49	14415.36
482.67	14473.87
482.85	14794.53
483.03	14916.23
483.21	14960.70
483.39	15297.74
483.57	15147.95
483.74	15056.67
483.92	15314.13
484.10	15468.60
484.28	15585.63
484.46	15936.71
484.64	16016.29
484.82	15735.42
485.00	16343.96
485.18	16273.74
485.35	16493.76
485.53	16608.44
485.71	16657.59
485.89	16978.25
486.07	16610.78
486.25	17006.33
486.43	16842.50
486.61	16945.48
486.78	17158.47
486.96	17518.91
487.14	17781.05
487.32	17525.93
487.50	17965.95
487.68	17879.35
487.85	17933.18
488.03	18546.40
488.21	18663.43
488.39	18260.86
488.57	18642.37
488.75	18871.74
488.92	18771.10
489.10	19323.46
489.28	19262.61
489.46	19693.27
489.64	19417.08
489.81	20027.96
489.99	19744.76
490.17	19917.96
490.35	20004.56
490.53	20304.15
490.70	20348.62
490.88	20278.40
491.06	20521.82
491.24	20837.79
491.41	20786.30
491.59	20615.44
491.77	21069.50
491.95	21069.50
492.13	21216.96
492.30	21291.85
492.48	21425.26
492.66	21493.14
492.84	21727.19
493.01	21841.88
493.19	21989.33
493.37	22043.17
493.54	22604.89
493.72	22279.56
493.90	22398.93
494.08	22764.05
494.25	22675.11
494.43	22822.56
494.61	23175.98
494.79	23498.98
494.96	23456.85
495.14	23449.83
495.32	23651.11
495.49	23442.81
495.67	23569.19
495.85	23957.72
496.02	24369.66
496.20	24285.40
496.38	23917.93
496.55	24364.98
496.73	25020.33
496.91	24652.86
497.09	24781.59
497.26	24893.94
497.44	25025.01
497.62	25163.10
497.79	25750.57
497.97	25399.49
498.14	26001.01
498.32	25837.17
498.50	25565.67
498.67	26050.16
498.85	26108.68
499.03	26286.56
499.20	26375.50
499.38	26321.66
499.56	26312.30
499.73	26569.76
499.91	27030.85
500.08	26803.82
500.26	26794.45
500.44	26831.90
500.61	26885.73
500.79	26927.86
500.97	27087.02
501.14	27735.35
501.32	27538.74
501.49	27374.91
501.67	27538.74
501.84	27707.26
502.02	27119.79
502.20	27885.14
502.37	28357.93
502.55	28011.53
502.72	28046.64
502.90	28446.87
503.07	28400.06
503.25	28278.35
503.43	28425.81
503.60	28416.44
503.78	29090.52
503.95	28624.75
504.13	28978.17
504.30	29027.32
504.48	28762.84
504.65	29085.84
504.83	29221.59
505.01	29563.31
505.18	29685.01
505.36	29851.19
505.53	29144.35
505.71	29497.77
505.88	29504.79
506.06	29446.28
506.23	29893.32
506.41	29888.64
506.58	30188.23
506.76	29635.86
506.93	30487.82
507.11	30213.98
507.28	30422.28
507.46	30410.58
507.63	30656.34
507.81	30953.58
507.98	30665.70
508.16	30874.01
508.33	30866.98
508.50	31035.50
508.68	31009.76
508.85	31395.95
509.03	31431.05
509.20	31461.48
509.38	31431.05
509.55	31793.84
509.73	31747.03
509.90	31814.90
510.08	31555.10
510.25	31936.61
510.42	32400.04
510.60	32547.49
510.77	32231.52
510.95	32591.96
511.12	31915.54
511.30	32119.17
511.47	32346.20
511.64	32781.54
511.82	33013.26
511.99	32613.02
512.17	33163.05
512.34	33006.23
512.51	33132.62
512.69	33570.30
512.86	33511.79
513.04	33628.82
513.21	33982.24
513.38	33617.11
513.56	33926.07
513.73	33701.37
513.90	33736.48
514.08	33495.41
514.25	33893.30
514.43	34024.37
514.60	33989.26
514.77	34295.87
514.95	34572.05
515.12	33958.83
515.29	33963.51
515.47	34558.01
515.64	34763.98
515.81	34574.39
515.99	34827.17
516.16	35117.40
516.33	35009.73
516.51	35449.75
516.68	34869.30
516.85	34740.57
517.03	35480.18
517.20	35384.22
517.37	35211.02
517.54	35452.09
517.72	35468.48
517.89	35632.32
518.06	35487.20
518.24	35374.86
518.41	35468.48
518.58	35992.76
518.75	35791.47
518.93	36070.00
519.10	35859.35
519.27	36175.32
519.45	36180.00
519.62	36180.00
519.79	36119.15
519.96	36203.41
520.14	36561.51
520.31	36512.36
520.48	36940.68
520.65	37095.15
520.83	37158.34
521.00	36931.31
521.17	36561.51
521.34	36893.86
521.52	37181.75
521.69	36989.83
521.86	37453.25
522.03	37429.85
522.20	37509.43
522.38	37528.15
522.55	37963.49
522.72	37511.77
522.89	37675.60
523.07	38263.08
523.24	37989.24
523.41	38040.73
523.58	38234.99
523.75	38234.99
523.92	37993.92
524.10	38047.75
524.27	38335.63
524.44	38490.11
524.61	38387.13
524.78	38869.28
524.96	38721.82
525.13	38728.84
525.30	38845.87
525.47	38389.47
525.64	38923.11
525.81	39063.54
525.98	39222.70
526.16	39225.04
526.33	38792.04
526.50	39253.12
526.67	39140.78
526.84	39445.05
527.01	39065.88
527.18	39433.35
527.36	39505.90
527.53	39541.01
527.70	39737.62
527.87	39573.78
528.04	40053.59
528.21	39871.03
528.38	39342.06
528.55	39690.80
528.72	40182.32
528.89	40142.53
529.07	40093.38
529.24	40006.78
529.41	40098.06
529.58	40240.83
529.75	40194.02
529.92	40224.45
530.09	40528.72
530.26	40407.01
530.43	40612.98
530.60	40135.51
530.77	40353.18
530.94	40407.01
531.11	40669.15
531.28	40538.08
531.46	40552.12
531.63	40713.62
531.80	40884.48
531.97	41184.07
532.14	41205.13
532.31	41170.02
532.48	40795.54
532.65	41212.15
532.82	40594.25
532.99	41240.24
533.16	41008.53
533.33	41476.63
533.50	41710.69
533.67	41691.96
533.84	41549.19
534.01	41298.75
534.18	41244.92
534.35	41895.59
534.52	41659.20
534.69	42110.92
534.86	42209.22
535.03	42029.00
535.20	42071.13
535.37	41963.46
535.54	41766.86
535.71	42089.85
535.88	42106.24
536.05	42089.85
536.22	42300.50
536.38	42808.40
536.55	42703.07
536.72	42815.42
536.89	42195.18
537.06	42260.71
537.23	42740.52
537.40	42515.83
537.57	42471.36
537.74	42609.45
537.91	43103.31
538.08	42967.55
538.25	42546.26
538.42	42934.79
538.59	43086.92
538.75	42384.76
538.92	43147.78
539.09	43035.43
539.26	43482.47
539.43	43344.38
539.60	43707.16
539.77	43473.11
539.94	43445.02
540.11	43859.30
540.28	43243.74
540.44	43653.33
540.61	43576.09
540.78	43672.06
540.95	44175.27
541.12	43800.79
541.29	44186.97
541.46	43931.86
541.62	44098.03
541.79	43828.87
541.96	44002.07
542.13	44041.86
542.30	44030.16
542.47	44287.62
542.63	44376.56
542.80	44083.99
542.97	44683.17
543.14	44669.12
543.31	44542.74
543.48	44746.36
543.64	44760.40
543.81	45338.52
543.98	45034.25
544.15	45024.89
544.32	44772.11
544.48	45095.10
544.65	45202.77
544.82	44884.45
544.99	44343.79
545.16	44975.73
545.32	45116.17
545.49	45504.70
545.66	46319.20
545.83	46284.09
546.00	46476.02
546.16	45579.59
546.33	45521.08
546.50	44760.40
546.67	44992.12
546.83	44849.35
547.00	45471.93
547.17	45497.67
547.34	45544.48
547.50	45443.84
547.67	45862.80
547.84	45698.96
548.00	46012.59
548.17	45839.39
548.34	45542.14
548.51	45687.26
548.67	45778.54
548.84	45797.26
549.01	45928.33
549.18	45610.02
549.34	45797.26
549.51	46122.60
549.68	45708.32
549.84	45834.71
550.01	45844.07
550.18	46078.13
550.34	46005.57
550.51	46349.63
550.68	45860.46
550.84	46178.77
551.01	46071.10
551.18	46260.69
551.34	46043.02
551.51	46263.03
551.68	45933.01
551.84	46529.85
552.01	46146.00
552.18	46593.04
552.34	46501.76
552.51	46513.47
552.68	46059.40
552.84	46096.85
553.01	46653.90
553.18	46616.45
553.34	46766.24
553.51	46363.67
553.67	46632.83
553.84	47201.58
554.01	46902.00
554.17	46911.36
554.34	46829.44
554.51	46796.67
554.67	46904.34
554.84	46777.95
555.00	46815.40
555.17	46932.42
555.33	47124.35
555.50	46515.81
555.67	46466.66
555.83	46555.60
556.00	46602.41
556.16	47540.96
556.33	46817.74
556.50	47423.93
556.66	47365.42
556.83	47192.22
556.99	47131.37
557.16	47175.84
557.32	47047.11
557.49	47243.71
557.65	47007.32
557.82	46997.96
557.98	47168.82
558.15	47571.39
558.32	47129.03
558.48	47524.58
558.65	47384.15
558.81	47416.91
558.98	47407.55
559.14	47234.35
559.31	47049.45
559.47	47206.26
559.64	47327.97
559.80	47196.90
559.97	47576.07
560.13	47555.00
560.30	47786.72
560.46	47700.12
560.63	47803.10
560.79	47587.77
560.96	47772.67
561.12	47552.66
561.29	47466.06
561.45	47737.57
561.61	47330.31
561.78	47852.25
561.94	47997.37
562.11	47608.84
562.27	47931.83
562.44	47496.49
562.60	47751.61
562.77	47538.62
562.93	47636.92
563.10	47863.96
563.26	47746.93
563.42	48023.11
563.59	47849.91
563.75	48186.95
563.92	47941.19
564.08	47901.40
564.24	47920.13
564.41	47943.53
564.57	47686.07
564.74	47861.61
564.90	48004.39
565.07	47812.46
565.23	47955.24
565.39	48002.05
565.56	48112.05
565.72	47936.51
565.88	47655.65
566.05	47863.96
566.21	47487.13
566.38	47810.12
566.54	47892.04
566.70	48313.34
566.87	48217.38
567.03	47959.92
567.19	48191.63
567.36	48259.51
567.52	47887.36
567.68	48177.59
567.85	47845.23
568.01	48247.80
568.17	47721.18
568.34	48250.14
568.50	47938.85
568.66	48072.26
568.83	48495.90
568.99	48191.63
569.15	47948.21
569.32	48095.67
569.48	47899.06
569.64	48158.86
569.81	48383.55
569.97	48456.11
570.13	48018.43
570.30	48250.14
570.46	48311.00
570.62	48039.50
570.78	48186.95
570.95	47838.21
571.11	48037.16
571.27	48353.13
571.43	47978.64
571.60	48390.58
571.76	47938.85
571.92	48266.53
572.09	48392.92
572.25	48144.82
572.41	48088.65
572.57	48233.76
572.74	48112.05
572.90	47707.14
573.06	48327.38
573.22	47831.19
573.38	48226.74
573.55	48083.97
573.71	48542.71
573.87	48636.33
574.03	48144.82
574.20	47983.32
574.36	47777.36
574.52	48039.50
574.68	48301.64
574.84	48350.79
575.01	48311.00
575.17	48212.70
575.33	47973.96
575.49	48282.91
575.65	48357.81
575.82	48362.49
575.98	48383.55
576.14	48395.26
576.30	48154.18
576.46	48114.39
576.62	48259.51
576.79	48182.27
576.95	48428.02
577.11	48355.47
577.27	48587.18
577.43	48322.70
577.59	48388.24
577.75	48626.97
577.92	47964.60
578.08	47833.53
578.24	48332.06
578.40	48170.57
578.56	48460.79
578.72	48399.94
578.88	48587.18
579.04	48952.30
579.21	48479.52
579.37	48479.52
579.53	48875.07
579.69	48105.03
579.85	48458.45
580.01	48306.32
580.17	48112.05
580.33	48086.31
580.49	48399.94
580.65	48486.54
580.82	48839.96
580.98	48479.52
581.14	48392.92
581.30	48706.55
581.46	48685.48
581.62	48580.16
581.78	48381.21
581.94	48280.57
582.10	48460.79
582.26	48421.00
582.42	48584.84
582.58	48428.02
582.74	48083.97
582.90	48519.31
583.06	48350.79
583.22	48299.30
583.38	48460.79
583.54	48561.44
583.70	48311.00
583.86	48769.74
584.02	48402.28
584.18	48849.32
584.34	48453.77
584.50	48566.12
584.66	48502.92
584.82	48116.73
584.98	48360.15
585.14	48612.93
585.30	48114.39
585.46	48109.71
585.62	48186.95
585.78	48509.94
585.94	48179.93
586.10	48629.31
586.26	48215.04
586.42	48523.99
586.58	48367.17
586.74	48212.70
586.90	48030.13
587.06	48308.66
587.22	48531.01
587.38	48329.72
587.54	48687.82
587.70	48755.70
587.86	48608.25
588.02	48940.60
588.18	48910.17
588.34	48418.66
588.49	48332.06
588.65	48135.46
588.81	48399.94
588.97	48648.03
589.13	48273.55
589.29	48514.62
589.45	48919.54
589.61	48580.16
589.77	49050.61
589.93	49024.86
590.08	48821.23
590.24	48896.13
590.40	49148.91
590.56	48680.80
590.72	48814.21
590.88	48584.84
591.04	48376.53
591.20	49226.15
591.35	49020.18
591.51	49457.86
591.67	48849.32
591.83	48954.64
591.99	48769.74
592.15	48552.07
592.31	48886.77
592.46	48413.98
592.62	48655.06
592.78	48416.32
592.94	48676.12
593.10	48631.65
593.26	49015.50
593.41	48659.74
593.57	48921.88
593.73	48746.34
593.89	48964.01
594.05	48718.25
594.20	48570.80
594.36	48739.32
594.52	48966.35
594.68	48655.06
594.84	48362.49
594.99	48928.90
595.15	48837.62
595.31	48832.94
595.47	49134.87
595.62	48645.69
595.78	48952.30
595.94	48889.11
596.10	48718.25
596.25	48554.41
596.41	48327.38
596.57	48699.53
596.73	48610.59
596.88	48758.04
597.04	48814.21
597.20	48713.57
597.36	48821.23
597.51	48746.34
597.67	48821.23
597.83	48451.43
597.99	48662.08
598.14	48296.95
598.30	48470.15
598.46	48996.77
598.61	48912.52
598.77	48643.35
598.93	48748.68
599.09	48821.23
599.24	49233.17
599.40	48966.35
599.56	48744.00
599.71	48982.73
599.87	48786.13
600.03	48598.88
600.18	48746.34
600.34	48821.23
600.50	49045.93
600.65	48816.55
600.81	49062.31
600.97	48807.19
601.12	49099.76
601.28	48594.20
601.44	48706.55
601.59	48591.86
601.75	48421.00
601.91	48762.72
602.06	48545.05
602.22	48758.04
602.37	48917.20
602.53	48811.87
602.69	48825.92
602.84	48397.60
603.00	48523.99
603.16	48624.63
603.31	48638.67
603.47	48722.93
603.62	48701.87
603.78	48374.19
603.94	48844.64
604.09	48453.77
604.25	48659.74
604.40	48692.50
604.56	48479.52
604.71	48797.83
604.87	48528.67
605.03	48706.55
605.18	48411.64
605.34	48479.52
605.49	48229.08
605.65	48507.60
605.80	48463.13
605.96	48491.22
606.12	48505.26
606.27	48739.32
606.43	48114.39
606.58	48683.14
606.74	48582.50
606.89	48509.94
607.05	48240.78
607.20	48928.90
607.36	48200.99
607.51	48610.59
607.67	48002.05
607.82	48322.70
607.98	48079.28
608.13	48409.30
608.29	48376.53
608.44	48222.06
608.60	48694.85
608.75	48437.39
608.91	48308.66
609.06	48191.63
609.22	48505.26
609.37	47927.15
609.53	48346.11
609.68	48086.31
609.84	48416.32
609.99	48633.99
610.15	48161.20
610.30	48168.22
610.46	48058.22
610.61	48706.55
610.76	48685.48
610.92	49029.54
611.07	49326.79
611.23	48872.73
611.38	48919.54
611.54	48839.96
611.69	48076.94
611.84	48168.22
612.00	47980.98
612.15	47735.23
612.31	48023.11
612.46	48170.57
612.62	48280.57
612.77	48250.14
612.92	47931.83
613.08	47938.85
613.23	48037.16
613.39	48006.73
613.54	47594.79
613.69	47903.74
613.85	47601.82
614.00	48009.07
614.15	47772.67
614.31	47587.77
614.46	48041.84
614.62	47487.13
614.77	47838.21
614.92	47976.30
615.08	47669.69
615.23	47269.46
615.38	47870.98
615.54	46899.65
615.69	47313.93
615.84	47416.91
616.00	47587.77
616.15	47232.01
616.30	47442.66
616.46	47075.19
616.61	47391.17
616.76	47753.95
616.92	47346.70
617.07	47353.72
617.22	47122.01
617.37	46902.00
617.53	47199.24
617.68	47178.18
617.83	46880.93
617.99	46993.28
618.14	46920.72
618.29	47028.38
618.45	47009.66
618.60	47505.85
618.75	47049.45
618.90	47416.91
619.06	46899.65
619.21	46852.84
619.36	47065.83
619.51	46328.56
619.67	46323.88
619.82	46710.07
619.97	47061.15
620.12	46438.57
620.28	46560.28
620.43	46869.23
620.58	46927.74
620.73	46759.22
620.89	46972.21
621.04	46958.17
621.19	46932.42
621.34	46344.95
621.49	47004.98
621.65	46319.20
621.80	46417.50
621.95	46284.09
622.10	46862.21
622.25	46358.99
622.41	46202.18
622.56	46218.56
622.71	46373.03
622.86	46770.93
623.01	46347.29
623.16	46548.57
623.32	46361.33
623.47	46529.85
623.62	46160.05
623.77	45675.55
623.92	46347.29
624.07	46017.27
624.23	46026.63
624.38	46258.35
624.53	46192.81
624.68	45862.80
624.83	46230.26
624.98	46129.62
625.13	45713.00
625.29	46050.04
625.44	45977.48
625.59	45565.55
625.74	45312.77
625.89	45563.21
626.04	45312.77
626.19	45595.98
626.34	45689.60
626.49	45673.21
626.65	45750.45
626.80	45925.99
626.95	45315.11
627.10	45429.80
627.25	45251.92
627.40	45198.09
627.55	45404.05
627.70	45165.32
627.85	45095.10
628.00	44926.58
628.15	45298.73
628.30	45057.65
628.45	45553.85
628.60	45331.50
628.76	45141.91
628.91	45507.04
629.06	45177.02
629.21	45275.32
629.36	45034.25
629.51	44928.92
629.66	44968.71
629.81	44694.87
629.96	44664.44
630.11	45230.85
630.26	44563.80
630.41	44858.71
630.56	44854.03
630.71	45205.11
630.86	44839.98
631.01	45020.20
631.16	44851.69
631.31	44914.88
631.46	44725.30
631.61	44568.48
631.76	45062.33
631.91	44601.25
632.06	44610.61
632.21	44334.43
632.36	44619.97
632.51	43885.04
632.66	44589.55
632.81	44154.21
632.96	44832.96
633.10	44938.29
633.25	44275.91
633.40	44587.21
633.55	44147.18
633.70	43952.92
633.85	43973.98
634.00	43847.60
634.15	44266.55
634.30	44147.18
634.45	43908.45
634.60	43995.05
634.75	44062.93
634.90	44219.74
635.05	44046.54
635.19	43997.39
635.34	44189.31
635.49	44004.41
635.64	43824.19
635.79	43938.88
635.94	43742.27
636.09	43608.86
636.24	43665.03
636.39	43552.69
636.53	43571.41
636.68	43384.17
636.83	43346.72
636.98	43739.93
637.13	43735.25
637.28	43662.69
637.43	44119.10
637.57	43597.16
637.72	43510.56
637.87	43346.72
638.02	43540.99
638.17	43524.60
638.32	43091.60
638.46	42981.60
638.61	43693.12
638.76	43168.84
638.91	43208.63
639.06	43234.38
639.20	43173.52
639.35	43255.44
639.50	43042.45
639.65	43349.06
639.80	43498.86
639.94	43133.73
640.09	43276.51
640.24	43107.99
640.39	42646.90
640.54	42993.30
640.68	42569.66
640.83	43384.17
640.98	42443.27
641.13	42550.94
641.27	43035.43
641.42	42611.79
641.57	43056.50
641.72	43360.76
641.86	43105.65
642.01	43100.97
642.16	42607.11
642.31	42822.44
642.45	42993.30
642.60	42005.59
642.75	42424.55
642.90	42499.45
643.04	42096.88
643.19	42429.23
643.34	42438.59
643.48	42459.66
643.63	42597.75
643.78	42878.61
643.93	42515.83
644.07	42272.42
644.22	42293.48
644.37	42534.56
644.51	42553.28
644.66	42225.60
644.81	42057.09
644.95	41893.25
645.10	42347.31
645.25	41900.27
645.39	42003.25
645.54	42265.39
645.69	42078.15
645.83	41975.17
645.98	42513.49
646.13	42478.38
646.27	42373.06
646.42	42316.89
646.57	41989.21
646.71	41837.08
646.86	41806.65
647.00	41808.99
647.15	41837.08
647.30	41766.86
647.44	41691.96
647.59	41532.81
647.74	41455.57
647.88	41975.17
648.03	41975.17
648.17	41670.90
648.32	41876.86
648.47	41968.15
648.61	41755.16
648.76	41799.63
648.90	41649.83
649.05	41443.87
649.20	41610.04
649.34	41778.56
649.49	41071.72
649.63	41375.99
649.78	41420.46
649.92	41057.68
650.07	41876.86
650.21	41408.76
650.36	41408.76
650.51	41312.80
650.65	41544.51
650.80	41331.52
650.94	41563.23
651.09	40957.03
651.23	41074.06
651.38	41067.04
651.52	40765.11
651.67	41219.17
651.81	40236.15
651.96	40978.10
652.10	41106.83
652.25	41216.83
652.39	40706.60
652.54	41289.39
652.68	40957.03
652.83	41116.19
652.97	40957.03
653.12	41151.30
653.26	41158.32
653.41	40755.75
653.55	40748.73
653.70	40521.69
653.84	40842.35
653.99	40662.13
654.13	40514.67
654.27	40610.64
654.42	40514.67
654.56	40718.30
654.71	40458.50
654.85	40526.38
655.00	40435.10
655.14	40500.63
655.29	40399.99
655.43	40491.27
655.57	39985.71
655.72	40023.16
655.86	40121.46
656.01	39990.39
656.15	40154.23
656.30	40259.55
656.44	40076.99
656.58	40098.06
656.73	39887.41
656.87	39903.79
657.01	40259.55
657.16	40250.19
657.30	40367.22
657.45	40069.97
657.59	40133.17
657.73	39807.83
657.88	39945.92
658.02	39543.35
658.16	39786.77
658.31	39058.86
658.45	39688.46
658.60	38976.94
658.74	39634.63
658.88	39344.41
659.03	39203.97
659.17	39349.09
659.31	39892.09
659.46	39377.17
659.60	39498.88
659.74	39152.48
659.89	38869.28
660.03	39030.77
660.17	39381.85
660.32	38731.18
660.46	38810.76
660.60	38864.60
660.74	38880.98
660.89	38820.13
661.03	39007.37
661.17	39012.05
661.32	38548.62
661.46	38733.53
661.60	38691.40
661.74	38721.82
661.89	38838.85
662.03	38623.52
662.17	38703.10
662.31	38438.62
662.46	39002.69
662.60	38904.38
662.74	38122.65
662.88	38129.67
663.03	37811.35
663.17	38295.85
663.31	37930.72
663.45	38026.68
663.60	37874.55
663.74	37668.58
663.88	38061.79
664.02	37909.66
664.17	38075.84
664.31	37902.64
664.45	38164.78
664.59	37525.81
664.73	37406.44
664.88	37888.59
665.02	37455.59
665.16	37603.05
665.30	37333.89
665.44	37626.45
665.59	37165.37
665.73	36914.93
665.87	36935.99
666.01	37200.47
666.15	36985.15
666.29	37434.53
666.44	37275.37
666.58	36648.11
666.72	37317.50
666.86	36954.72
667.00	36769.82
667.14	37008.55
667.28	36458.52
667.43	36701.94
667.57	36371.92
667.71	36418.74
667.85	36254.90
667.99	36055.95
668.13	36385.97
668.27	36299.37
668.41	36570.87
668.56	35929.56
668.70	36105.10
668.84	36364.90
668.98	35948.29
669.12	36175.32
669.26	36259.58
669.40	35988.08
669.54	36236.17
669.68	36100.42
669.82	35714.23
669.96	35529.33
670.10	35349.11
670.25	35482.52
670.39	35573.80
670.53	35409.96
670.67	35445.07
670.81	35311.66
670.95	35494.22
671.09	34855.26
671.23	35115.06
671.37	35306.98
671.51	35248.47
671.65	35166.55
671.79	34806.11
671.93	34934.84
672.07	35119.74
672.21	34611.84
672.35	34169.48
672.49	34300.55
672.63	34363.75
672.77	34375.45
672.91	34288.85
673.05	34188.21
673.19	34485.45
673.33	34223.31
673.47	34445.66
673.61	34005.64
673.75	33792.65
673.89	34209.27
674.03	34227.99
674.17	33890.96
674.31	33879.25
674.45	33455.62
674.59	33380.72
674.73	33390.08
674.87	33401.79
675.01	33432.21
675.15	33277.74
675.29	33205.18
675.43	33378.38
675.56	33106.88
675.70	33291.78
675.84	33184.12
675.98	31899.16
676.12	33006.23
676.26	33450.94
676.40	33116.24
676.54	32800.27
676.68	32636.43
676.82	31807.88
676.96	32102.79
677.10	32346.20
677.23	31819.58
677.37	31796.18
677.51	31875.76
677.65	31782.13
677.79	31438.08
677.93	31496.59
678.07	31538.72
678.21	31531.70
678.34	31566.81
678.48	31505.95
678.62	31133.81
678.76	31278.92
678.90	30909.11
679.04	31012.10
679.18	30717.19
679.31	30562.72
679.45	30572.08
679.59	30740.60
679.73	30384.83
679.87	30185.89
680.00	29979.92
680.14	29752.89
680.28	29773.95
680.42	30277.17
680.56	29673.31
680.70	29860.55
680.83	29720.12
680.97	29881.62
681.11	29546.92
681.25	29649.91
681.39	29560.97
681.52	29556.28
681.66	28882.21
681.80	29270.74
681.94	29567.99
682.07	29263.72
682.21	28882.21
682.35	28329.84
682.49	28940.72
682.62	28517.09
682.76	28374.31
682.90	28322.82
683.04	28460.91
683.17	28353.25
683.31	28322.82
683.45	27990.47
683.59	28149.62
683.72	27899.19
683.86	27974.08
684.00	27915.57
684.13	28051.32
684.27	27295.33
684.41	27166.60
684.55	27117.45
684.68	27538.74
684.82	27171.28
684.96	27136.17
685.09	27182.98
685.23	27351.50
685.37	26829.56
685.50	26649.34
685.64	26845.94
685.78	26843.60
685.91	27068.30
686.05	26951.27
686.19	26677.43
686.32	26417.63
686.46	26394.22
686.60	25703.76
686.73	26071.23
686.87	25907.39
687.01	25649.93
687.14	25921.43
687.28	25209.91
687.42	25607.80
687.55	25139.69
687.69	25687.38
687.82	25322.26
687.96	25340.98
688.10	25226.29
688.23	25062.46
688.37	25088.20
688.50	25170.12
688.64	24889.26
688.78	25125.65
688.91	24449.24
689.05	24702.01
689.18	24524.13
689.32	23896.87
689.46	23859.42
689.59	23782.18
689.73	24102.84
689.86	23955.38
690.00	23887.51
690.13	23812.61
690.27	23807.93
690.41	23646.43
690.54	23658.14
690.68	23335.14
690.81	23630.05
690.95	23569.19
691.08	23475.57
691.22	23407.70
691.35	23234.50
691.49	23370.25
691.62	22939.59
691.76	22700.86
691.89	22614.26
692.03	22852.99
692.16	22277.22
692.30	22429.35
692.43	22483.19
692.57	22228.07
692.70	22466.80
692.84	22312.33
692.97	22270.20
693.11	22401.27
693.24	22104.02
693.38	22181.26
693.51	21888.69
693.65	21734.21
693.78	21862.94
693.92	21736.56
694.05	21528.25
694.19	21214.62
694.32	21184.19
694.45	21245.04
694.59	20812.04
694.72	20807.36
694.86	20786.30
694.99	20692.68
695.13	20809.70
695.26	20386.07
695.39	20444.58
695.53	20713.74
695.66	20357.98
695.80	20484.37
695.93	20435.22
696.07	20374.36
696.20	20191.80
696.33	20065.41
696.47	20121.59
696.60	20098.18
696.73	19770.51
696.87	19843.06
697.00	19852.42
697.14	19552.84
697.27	19438.15
697.40	19452.19
697.54	19257.93
697.67	19161.97
697.80	18831.95
697.94	19311.76
698.07	18897.49
698.21	18778.12
698.34	18848.33
698.47	19199.41
698.61	18508.96
698.74	18789.82
698.87	18824.93
699.01	18780.46
699.14	18679.82
699.27	18527.68
699.40	18272.56
699.54	18087.66
699.67	18019.78
699.80	18108.72
699.94	17783.39
700.07	17837.22
700.20	17516.57
700.34	17376.14
700.47	17497.84
700.60	17334.01
700.73	17371.46
700.87	17434.65
701.00	17188.89
701.13	17205.28
701.26	17233.36
701.40	17537.63
701.53	16961.86
701.66	16905.69
701.79	17034.42
701.93	16917.39
702.06	16917.39
702.19	16528.86
702.32	16367.37
702.46	16327.58
702.59	16084.16
702.72	16081.82
702.85	16276.09
702.99	16159.06
703.12	16163.74
703.25	16081.82
703.38	16189.49
703.51	15903.94
703.65	16133.31
703.78	15843.09
703.91	15700.31
704.04	15723.72
704.17	15854.79
704.31	15662.86
704.44	15398.38
704.57	15255.61
704.70	15154.97
704.83	15215.82
704.96	15267.31
705.10	15220.50
705.23	15096.46
>>>>>End Processed Spectral Data<<<<<
