SpectraSuite Data File
++++++++++++++++++++++++++++++++++++
Date: Fri Oct 04 11:39:48 GMT-05:00 2013
User: price-jones
Dark Spectrum Present: No
Reference Spectrum Present: No
Number of Sampled Component Spectra: 1
Spectrometers: USB2+H05261
Integration Time (usec): 100000 (USB2+H05261)
Spectra Averaged: 1 (USB2+H05261)
Boxcar Smoothing: 0 (USB2+H05261)
Correct for Electrical Dark: No (USB2+H05261)
Strobe/Lamp Enabled: No (USB2+H05261)
Correct for Detector Non-linearity: No (USB2+H05261)
Correct for Stray Light: No (USB2+H05261)
Number of Pixels in Processed Spectrum: 2048
>>>>>Begin Processed Spectral Data<<<<<
365.73	58.51
365.92	58.51
366.12	58.51
366.32	14.04
366.52	0.00
366.72	9.36
366.91	0.00
367.11	0.00
367.31	0.00
367.51	0.00
367.70	0.00
367.90	0.00
368.10	0.00
368.30	0.00
368.49	0.00
368.69	0.00
368.89	0.00
369.09	0.00
369.28	0.00
369.48	0.00
369.68	0.00
369.87	77.24
370.07	0.00
370.27	35.11
370.47	105.32
370.66	339.38
370.86	402.57
371.06	538.32
371.25	535.98
371.45	444.70
371.65	451.72
371.84	400.23
372.04	500.87
372.24	461.09
372.44	531.30
372.63	524.28
372.83	608.54
373.03	517.26
373.22	550.03
373.42	547.69
373.62	564.07
373.81	545.34
374.01	571.09
374.21	615.56
374.40	538.32
374.60	587.47
374.79	545.34
374.99	580.45
375.19	557.05
375.38	601.52
375.58	552.37
375.78	627.26
375.97	706.84
376.17	725.57
376.37	606.20
376.56	690.46
376.76	627.26
376.95	695.14
377.15	634.29
377.35	613.22
377.54	695.14
377.74	685.78
377.93	634.29
378.13	669.39
378.33	697.48
378.52	645.99
378.72	730.25
378.91	657.69
379.11	699.82
379.31	690.46
379.50	608.54
379.70	720.88
379.89	821.53
380.09	755.99
380.28	727.91
380.48	798.12
380.68	748.97
380.87	702.16
381.07	760.67
381.26	795.78
381.46	765.36
381.65	720.88
381.85	798.12
382.04	821.53
382.24	788.76
382.43	763.01
382.63	744.29
382.83	730.25
383.02	774.72
383.22	805.14
383.41	830.89
383.61	851.96
383.80	828.55
384.00	814.51
384.19	861.32
384.39	896.43
384.58	819.19
384.78	910.47
384.97	915.15
385.17	873.02
385.36	861.32
385.56	961.96
385.75	863.66
385.95	947.92
386.14	1011.11
386.34	1013.45
386.53	968.98
386.72	961.96
386.92	959.62
387.11	1001.75
387.31	968.98
387.50	898.77
387.70	966.64
387.89	1013.45
388.09	1008.77
388.28	1041.54
388.48	994.73
388.67	971.32
388.86	1039.20
389.06	992.39
389.25	1158.57
389.45	1102.39
389.64	1116.44
389.84	1121.12
390.03	1181.97
390.22	1050.90
390.42	1104.73
390.61	1137.50
390.81	1081.33
391.00	1029.84
391.19	1116.44
391.39	1188.99
391.58	1235.80
391.78	1184.31
391.97	1109.41
392.16	1214.74
392.36	1299.00
392.55	1174.95
392.75	1249.85
392.94	1270.91
393.13	1165.59
393.33	1270.91
393.52	1247.51
393.71	1252.19
393.91	1247.51
394.10	1270.91
394.29	1324.74
394.49	1273.25
394.68	1296.66
394.88	1275.59
395.07	1348.15
395.26	1390.28
395.46	1364.53
395.65	1397.30
395.84	1331.76
396.04	1486.24
396.23	1373.89
396.42	1423.05
396.62	1469.86
396.81	1556.46
397.00	1458.15
397.19	1390.28
397.39	1444.11
397.58	1502.62
397.77	1409.00
397.97	1556.46
398.16	1502.62
398.35	1593.90
398.55	1526.03
398.74	1554.12
398.93	1607.95
399.12	1549.43
399.32	1668.80
399.51	1621.99
399.70	1577.52
399.90	1603.27
400.09	1685.19
400.28	1654.76
400.47	1739.02
400.67	1696.89
400.86	1753.06
401.05	1863.07
401.24	1783.49
401.44	1724.97
401.63	1879.45
401.82	1872.43
402.01	1834.98
402.21	1816.26
402.40	1741.36
402.59	1834.98
402.78	1909.88
402.97	1973.07
403.17	1952.01
403.36	1921.58
403.55	1827.96
403.74	1956.69
403.93	2005.84
404.13	2101.80
404.32	2064.35
404.51	2029.24
404.70	2136.91
404.89	2054.99
405.09	2167.34
405.28	2090.10
405.47	2157.97
405.66	2017.54
405.85	2160.31
406.05	2153.29
406.24	2218.83
406.43	2181.38
406.62	2272.66
406.81	2289.04
407.00	2251.60
407.20	2162.66
407.39	2211.81
407.58	2487.99
407.77	2267.98
407.96	2310.11
408.15	2436.50
408.34	2293.72
408.54	2387.35
408.73	2429.48
408.92	2511.39
409.11	2476.29
409.30	2523.10
409.49	2504.37
409.68	2431.82
409.87	2497.35
410.07	2658.85
410.26	2555.86
410.45	2567.57
410.64	2630.76
410.83	2696.30
411.02	2691.62
411.21	2722.04
411.40	2719.70
411.59	2717.36
411.78	3005.25
411.98	2750.13
412.17	2850.77
412.36	2904.60
412.55	2930.35
412.74	3028.65
412.93	2911.63
413.12	3009.93
413.31	3133.98
413.50	2951.42
413.69	3045.04
413.88	3122.27
414.07	3082.49
414.26	3141.00
414.45	3304.84
414.64	3157.38
414.83	3269.73
415.02	3243.98
415.22	3403.14
415.41	3449.95
415.60	3447.61
415.79	3382.07
415.98	3499.10
416.17	3529.53
416.36	3456.97
416.55	3459.31
416.74	3552.93
416.93	3702.73
417.12	3707.41
417.31	3779.97
417.50	3756.56
417.69	3815.07
417.88	3749.54
418.07	3946.14
418.26	3824.44
418.45	3747.20
418.64	3918.06
418.83	3906.35
419.02	3803.37
419.21	4025.72
419.39	4046.79
419.58	3950.82
419.77	3920.40
419.96	4145.09
420.15	4042.11
420.34	4077.21
420.53	4077.21
420.72	4149.77
420.91	4208.28
421.10	4203.60
421.29	4393.19
421.48	4208.28
421.67	4269.14
421.86	4395.53
422.05	4325.31
422.24	4224.67
422.43	4484.47
422.61	4322.97
422.80	4442.34
422.99	4339.35
423.18	4329.99
423.37	4404.89
423.56	4505.53
423.75	4407.23
423.94	4402.55
424.13	4142.75
424.32	4276.16
424.50	4475.10
424.69	4327.65
424.88	4489.15
425.07	4538.30
425.26	4458.72
425.45	4533.62
425.64	4507.87
425.83	4421.27
426.01	4491.49
426.20	4388.50
426.39	4638.94
426.58	4512.55
426.77	4648.30
426.96	4610.86
427.15	4648.30
427.33	4622.56
427.52	4528.94
427.71	4667.03
427.90	4713.84
428.09	4854.27
428.28	4730.22
428.46	4851.93
428.65	4929.17
428.84	5125.77
429.03	4978.32
429.22	4596.81
429.40	4861.29
429.59	4952.57
429.78	4835.55
429.97	4671.71
430.16	4880.02
430.34	4891.72
430.53	5107.05
430.72	5123.43
430.91	5118.75
431.10	4999.38
431.28	5132.79
431.47	5308.34
431.66	5411.32
431.85	5224.08
432.03	5233.44
432.22	5341.10
432.41	5298.97
432.60	5423.02
432.79	5453.45
432.97	5380.89
433.16	5444.09
433.35	5467.49
433.54	5355.15
433.72	5504.94
433.91	5521.32
434.10	5603.24
434.28	5628.99
434.47	5603.24
434.66	5636.01
434.85	5708.57
435.03	5678.14
435.22	5795.17
435.41	6211.78
435.59	6125.18
435.78	5996.45
435.97	5879.43
436.16	5907.51
436.34	5912.19
436.53	5921.56
436.72	5898.15
436.90	5966.03
437.09	5982.41
437.28	5905.17
437.46	5973.05
437.65	5980.07
437.84	6120.50
438.02	6036.24
438.21	6146.25
438.40	6031.56
438.58	6342.85
438.77	6258.59
438.96	6286.68
439.14	6384.98
439.33	6338.17
439.52	6595.63
439.70	6434.13
439.89	6380.30
440.08	6703.29
440.26	6722.02
440.45	6640.10
440.63	6874.15
440.82	6902.24
441.01	7002.88
441.19	7068.42
441.38	7000.54
441.57	7016.93
441.75	7150.34
441.94	7213.53
442.12	7309.49
442.31	7466.31
442.50	7279.07
442.68	7337.58
442.87	7414.82
443.05	7365.67
443.24	7398.43
443.43	7475.67
443.61	7382.05
443.80	7775.26
443.98	7241.62
444.17	7220.55
444.35	7454.61
444.54	7644.19
444.73	7550.57
444.91	7407.80
445.10	7566.95
445.28	7779.94
445.47	7438.22
445.65	7569.29
445.84	7595.04
446.02	7606.74
446.21	7655.89
446.39	7609.08
446.58	7644.19
446.77	7611.42
446.95	7592.70
447.14	7765.90
447.32	7812.71
447.51	7763.56
447.69	7662.91
447.88	7859.52
448.06	7793.98
448.25	7681.64
448.43	7620.78
448.62	7634.83
448.80	7639.51
448.99	7927.39
449.17	7948.46
449.36	7695.68
449.54	8025.70
449.73	7967.18
449.91	8318.26
450.10	8056.12
450.28	8276.13
450.46	8353.37
450.65	8194.22
450.83	8374.44
451.02	8100.59
451.20	8313.58
451.39	8465.72
451.57	8540.61
451.76	8243.37
451.94	8479.76
452.13	8610.83
452.31	8500.83
452.49	8425.93
452.68	8608.49
452.86	8519.55
453.05	8706.79
453.23	8690.41
453.42	8524.23
453.60	8503.17
453.78	8720.84
453.97	8758.28
454.15	8603.81
454.34	8772.33
454.52	8840.20
454.70	8856.59
454.89	9048.51
455.07	8891.70
455.26	9085.96
455.44	8966.59
455.62	8985.32
455.81	8891.70
455.99	8861.27
456.17	9312.99
456.36	9146.81
456.54	9205.33
456.73	9420.66
456.91	9439.38
457.09	9303.63
457.28	9675.77
457.46	9397.25
457.64	9394.91
457.83	9645.35
458.01	9448.74
458.19	9926.21
458.38	9638.33
458.56	9874.72
458.74	9963.66
458.93	9621.94
459.11	9874.72
459.29	9692.16
459.48	9909.83
459.66	9811.53
459.84	9970.68
460.03	10178.99
460.21	10160.27
460.39	10047.92
460.57	10047.92
460.76	10090.05
460.94	10310.06
461.12	10017.49
461.31	10349.85
461.49	10272.61
461.67	10073.67
461.85	10567.52
462.04	10427.09
462.22	10930.30
462.40	10555.82
462.59	10523.05
462.77	10532.41
462.95	10562.84
463.13	10581.56
463.32	10670.50
463.50	10658.80
463.68	10677.52
463.86	10558.16
464.05	10717.31
464.23	10324.10
464.41	11005.20
464.59	10707.95
464.78	10953.71
464.96	10813.28
465.14	10614.33
465.32	11026.26
465.50	11007.54
465.69	10902.22
465.87	10970.09
466.05	11066.05
466.23	11070.73
466.41	11279.04
466.60	11396.07
466.78	10953.71
466.96	11096.48
467.14	11098.82
467.32	11360.96
467.51	11274.36
467.69	11105.84
467.87	11396.07
468.05	11253.30
468.23	11475.65
468.41	11307.13
468.60	11721.40
468.78	11440.54
468.96	11325.85
469.14	11562.25
469.32	11754.17
469.50	11555.22
469.69	12002.27
469.87	11990.56
470.05	11756.51
470.23	11775.24
470.41	12006.95
470.59	12079.50
470.77	12056.10
470.95	11974.18
471.14	12315.90
471.32	12098.23
471.50	12554.63
471.68	12388.46
471.86	12243.34
472.04	12512.50
472.22	12781.67
472.40	12439.95
472.58	12837.84
472.77	12894.01
472.95	12741.88
473.13	13266.16
473.31	12807.41
473.49	12950.18
473.67	12807.41
473.85	12821.45
474.03	13158.49
474.21	13207.64
474.39	13563.40
474.57	13371.48
474.75	13755.33
474.93	13823.20
475.12	13554.04
475.30	13799.80
475.48	13987.04
475.66	13961.30
475.84	13874.70
476.02	14115.77
476.20	14260.88
476.38	14321.74
476.56	14410.68
476.74	14537.07
476.92	14492.60
477.10	14520.68
477.28	14516.00
477.46	14761.76
477.64	14689.20
477.82	15180.71
478.00	15637.12
478.18	15543.50
478.36	15477.96
478.54	15510.73
478.72	15981.18
478.90	15957.77
479.08	15873.51
479.26	16051.39
479.44	16140.33
479.62	16580.36
479.80	16585.04
479.98	16369.71
480.16	16608.44
480.34	16835.47
480.52	16945.48
480.70	17043.78
480.88	16837.81
481.06	17116.34
481.24	16957.18
481.41	17261.45
481.59	17778.71
481.77	17757.64
481.95	18216.39
482.13	18155.54
482.31	17989.36
482.49	18338.10
482.67	18363.84
482.85	18897.49
483.03	18927.91
483.21	18918.55
483.39	19302.40
483.57	19178.35
483.74	19452.19
483.92	19625.39
484.10	19606.67
484.28	19697.95
484.46	20070.09
484.64	20135.63
484.82	20020.94
485.00	20357.98
485.18	20367.34
485.35	20964.18
485.53	21069.50
485.71	21149.08
485.89	21738.90
486.07	21422.92
486.25	21680.38
486.43	21729.53
486.61	22061.89
486.78	22155.51
486.96	22258.49
487.14	22373.18
487.32	22621.28
487.50	22806.18
487.68	22806.18
487.85	23168.96
488.03	23309.40
488.21	23613.66
488.39	23707.29
488.57	23772.82
488.75	24023.26
488.92	24271.36
489.10	24421.15
489.28	24306.46
489.46	24837.76
489.64	25165.44
489.81	25366.73
489.99	25841.85
490.17	25273.10
490.35	25748.23
490.53	25703.76
490.70	26366.13
490.88	26040.80
491.06	26087.61
491.24	26525.29
491.41	26431.67
491.59	26733.60
491.77	26522.95
491.95	27063.61
492.13	27145.53
492.30	27337.46
492.48	27290.65
492.66	27639.39
492.84	28004.51
493.01	28271.33
493.19	28194.09
493.37	28608.37
493.54	28666.88
493.72	28781.57
493.90	28814.34
494.08	29280.10
494.25	29254.36
494.43	29783.32
494.61	29795.02
494.79	29830.13
494.96	29947.15
495.14	29956.52
495.32	30597.82
495.49	30672.72
495.67	30429.30
495.85	30876.35
496.02	31356.16
496.20	31129.12
496.38	31108.06
496.55	31377.22
496.73	31920.23
496.91	32081.72
497.09	32107.47
497.26	32421.10
497.44	32158.96
497.62	32327.48
497.79	33024.96
497.97	32987.51
498.14	33055.39
498.32	33343.27
498.50	33862.87
498.67	33120.92
498.85	33551.58
499.03	33553.92
499.20	33783.29
499.38	33895.64
499.56	34532.26
499.73	34134.37
499.91	34562.69
500.08	34679.72
500.26	34183.52
500.44	34766.32
500.61	34756.96
500.79	34380.13
500.97	35077.61
501.14	35800.83
501.32	35297.62
501.49	35192.30
501.67	35424.01
501.84	35611.25
502.02	35852.33
502.20	36278.30
502.37	36474.91
502.55	36245.54
502.72	36236.17
502.90	36582.57
503.07	36311.07
503.25	36418.74
503.43	36112.13
503.60	36877.48
503.78	36926.63
503.95	37174.73
504.13	37048.34
504.30	37078.77
504.48	37034.30
504.65	37317.50
504.83	37696.67
505.01	37940.08
505.18	38272.44
505.36	38281.80
505.53	37549.21
505.71	38120.31
505.88	38103.92
506.06	37947.11
506.23	38583.73
506.41	38637.56
506.58	39187.59
506.76	38656.29
506.93	38899.70
507.11	38803.74
507.28	39056.52
507.46	39395.90
507.63	39728.25
507.81	39899.11
507.98	39690.80
508.16	39913.16
508.33	39859.32
508.50	40093.38
508.68	39742.30
508.85	40680.85
509.03	40739.36
509.20	40671.49
509.38	41022.57
509.55	41006.19
509.73	40945.33
509.90	41282.37
510.08	41399.40
510.25	41593.66
510.42	41570.25
510.60	41771.54
510.77	41944.74
510.95	42286.46
511.12	41167.68
511.30	41947.08
511.47	42293.48
511.64	41876.86
511.82	42373.06
511.99	42131.98
512.17	42597.75
512.34	42600.09
512.51	43061.18
512.69	43016.71
512.86	42841.17
513.04	43213.31
513.21	43215.65
513.38	43838.23
513.56	43407.58
513.73	43040.11
513.90	43658.01
514.08	43611.20
514.25	43533.96
514.43	44039.52
514.60	43817.17
514.77	43999.73
514.95	44205.70
515.12	44119.10
515.29	44348.47
515.47	44294.64
515.64	44692.53
515.81	44753.38
515.99	44645.72
516.16	45310.43
516.33	45067.02
516.51	44975.73
516.68	44839.98
516.85	45242.56
517.03	45588.95
517.20	45696.62
517.37	45167.66
517.54	45738.75
517.72	45961.10
517.89	45766.84
518.06	45881.52
518.24	45975.14
518.41	45968.12
518.58	46333.24
518.75	46412.82
518.93	46876.25
519.10	46204.52
519.27	46358.99
519.45	46501.76
519.62	46263.03
519.79	46190.47
519.96	46230.26
520.14	46752.20
520.31	46689.01
520.48	47358.40
520.65	47571.39
520.83	47157.11
521.00	47009.66
521.17	47416.91
521.34	47234.35
521.52	47976.30
521.69	47208.61
521.86	48107.37
522.03	47929.49
522.20	48292.27
522.38	48044.18
522.55	48385.89
522.72	48046.52
522.89	48205.67
523.07	48376.53
523.24	48311.00
523.41	48786.13
523.58	48156.52
523.75	48924.22
523.92	48477.18
524.10	48699.53
524.27	48678.46
524.44	49148.91
524.61	49521.05
524.78	49336.15
524.96	49078.69
525.13	49277.64
525.30	49331.47
525.47	49600.63
525.64	49535.10
525.81	49645.10
525.98	49691.91
526.16	49663.83
526.33	49628.72
526.50	50057.04
526.67	49897.88
526.84	50279.39
527.01	49628.72
527.18	49893.20
527.36	50019.59
527.53	50185.77
527.70	50567.27
527.87	50581.32
528.04	49888.52
528.21	50124.91
528.38	50230.24
528.55	50639.83
528.72	50576.64
528.89	50691.32
529.07	50494.72
529.24	50571.96
529.41	50958.14
529.58	50862.18
529.75	50913.67
529.92	50815.37
530.09	50939.42
530.26	50946.44
530.43	51187.52
530.60	51093.89
530.77	50843.46
530.94	51587.75
531.11	51178.15
531.28	51414.55
531.46	51306.88
531.63	51599.45
531.80	51702.43
531.97	51657.96
532.14	51772.65
532.31	51716.48
532.48	51877.97
532.65	51899.04
532.82	51721.16
532.99	52226.71
533.16	51976.28
533.33	52301.61
533.50	52250.12
533.67	52151.82
533.84	52116.71
534.01	52313.31
534.18	51957.55
534.35	52210.33
534.52	52289.91
534.69	52959.30
534.86	52615.24
535.03	52626.95
535.20	52676.10
535.37	52729.93
535.54	53167.61
535.71	52519.28
535.88	52711.20
536.05	52535.66
536.22	52666.73
536.38	53041.22
536.55	53048.24
536.72	52692.48
536.89	53279.96
537.06	53336.13
537.23	53354.85
537.40	52835.25
537.57	53050.58
537.74	53436.77
537.91	53591.25
538.08	53408.68
538.25	53378.26
538.42	53331.45
538.59	53539.75
538.75	53069.31
538.92	53485.92
539.09	53460.18
539.26	53766.79
539.43	53811.26
539.60	54028.93
539.77	53441.45
539.94	53909.56
540.11	53818.28
540.28	53736.36
540.44	54047.65
540.61	53961.05
540.78	53904.88
540.95	53998.50
541.12	54134.25
541.29	54164.68
541.46	54452.56
541.62	54183.40
541.79	54410.43
541.96	54157.66
542.13	53998.50
542.30	54557.89
542.47	54700.66
542.63	54679.60
542.80	54447.88
542.97	54560.23
543.14	54913.65
543.31	54941.74
543.48	54831.73
543.64	54892.58
543.81	54915.99
543.98	55161.75
544.15	55107.91
544.32	55224.94
544.48	55201.53
544.65	54803.64
544.82	54974.50
544.99	54810.67
545.16	55159.41
545.32	55009.61
545.49	55784.33
545.66	56044.13
545.83	55774.97
546.00	56154.13
546.16	55697.73
546.33	55454.31
546.50	55037.70
546.67	55421.55
546.83	55091.53
547.00	55519.85
547.17	55501.12
547.34	55466.02
547.50	55393.46
547.67	55601.77
547.84	55585.38
548.00	55531.55
548.17	55810.07
548.34	55824.12
548.51	55711.77
548.67	55753.90
548.84	55934.12
549.01	55613.47
549.18	55725.81
549.34	55655.60
549.51	55669.64
549.68	55959.87
549.84	55936.46
550.01	55957.53
550.18	56011.36
550.34	55969.23
550.51	56090.94
550.68	55990.30
550.84	55693.05
551.01	56032.42
551.18	56104.98
551.34	55847.52
551.51	55915.40
551.68	56107.32
551.84	56184.56
552.01	56210.31
552.18	56245.41
552.34	56067.53
552.51	56669.05
552.68	56086.26
552.84	56523.94
553.01	56486.49
553.18	56640.96
553.34	56315.63
553.51	56376.48
553.67	56603.52
553.84	56750.97
554.01	56725.22
554.17	56554.36
554.34	56704.16
554.51	56622.24
554.67	56559.05
554.84	56584.79
555.00	56727.56
555.17	56736.93
555.33	56582.45
555.50	56631.60
555.67	56821.19
555.83	56860.97
556.00	56664.37
556.16	56814.16
556.33	56753.31
556.50	56956.94
556.66	57003.75
556.83	56823.53
556.99	57169.93
557.16	57099.71
557.32	57088.01
557.49	57179.29
557.65	56928.85
557.82	57020.13
557.98	57003.75
558.15	56961.62
558.32	57312.70
558.48	57165.24
558.65	57041.20
558.81	57275.25
558.98	57125.46
559.14	57258.87
559.31	57188.65
559.47	57261.21
559.64	57336.10
559.80	57619.31
559.97	57329.08
560.13	57326.74
560.30	57499.94
560.46	57359.51
560.63	57401.64
560.79	57469.51
560.96	57293.97
561.12	57336.10
561.29	57577.18
561.45	57406.32
561.61	57598.24
561.78	57373.55
561.94	57549.09
562.11	57586.54
562.27	57361.85
562.44	57481.22
562.60	57371.21
562.77	57607.61
562.93	57347.81
563.10	57504.62
563.26	57497.60
563.42	57705.91
563.59	57771.44
563.75	57502.28
563.92	57858.04
564.08	57724.63
564.24	57703.57
564.41	57551.43
564.57	57865.06
564.74	57633.35
564.90	57616.97
565.07	57743.36
565.23	58089.76
565.39	57771.44
565.56	58080.39
565.72	57848.68
565.88	57584.20
566.05	57710.59
566.21	57881.45
566.38	57836.98
566.54	57921.24
566.70	58014.86
566.87	58216.14
567.03	57932.94
567.19	58279.34
567.36	57923.58
567.52	57965.71
567.68	58099.12
567.85	57991.45
568.01	57968.05
568.17	57895.49
568.34	58038.26
568.50	57970.39
568.66	58047.63
568.83	58089.76
568.99	58075.71
569.15	57918.90
569.32	57818.25
569.48	57963.37
569.64	57881.45
569.81	58038.26
569.97	58127.20
570.13	58157.63
570.30	58169.33
570.46	58358.92
570.62	58251.25
570.78	58021.88
570.95	58017.20
571.11	58337.85
571.27	58012.52
571.43	58000.82
571.60	58232.53
571.76	58248.91
571.92	58295.72
572.09	58152.95
572.25	58202.10
572.41	58335.51
572.57	58489.99
572.74	58316.79
572.90	58124.86
573.06	58239.55
573.22	58487.65
573.38	58412.75
573.55	58152.95
573.71	58464.24
573.87	58499.35
574.03	58291.04
574.20	58436.16
574.36	58181.04
574.52	58232.53
574.68	58262.96
574.84	58358.92
575.01	58567.23
575.17	58305.09
575.33	58323.81
575.49	58342.53
575.65	58618.72
575.82	58705.32
575.98	58382.32
576.14	58398.71
576.30	58485.31
576.46	58195.08
576.62	58511.05
576.79	58616.38
576.95	58532.12
577.11	58548.50
577.27	58714.68
577.43	58578.93
577.59	58466.58
577.75	58361.26
577.92	58394.03
578.08	58489.99
578.24	58466.58
578.40	58504.03
578.56	58426.79
578.72	58454.88
578.88	58829.37
579.04	58901.92
579.21	58590.63
579.37	58642.12
579.53	58464.24
579.69	58555.52
579.85	58578.93
580.01	58494.67
580.17	58499.35
580.33	58773.19
580.49	58691.27
580.65	58724.04
580.82	58674.89
580.98	58630.42
581.14	58518.07
581.30	58890.22
581.46	58333.17
581.62	58609.35
581.78	58522.76
581.94	58527.44
582.10	58384.66
582.26	58803.62
582.42	58602.33
582.58	58738.08
582.74	58763.83
582.90	58644.46
583.06	58571.91
583.22	58443.18
583.38	58557.86
583.54	58403.39
583.70	58576.59
583.86	58798.94
584.02	58487.65
584.18	58656.17
584.34	58848.09
584.50	58862.13
584.66	58436.16
584.82	58630.42
584.98	58614.04
585.14	58595.31
585.30	58845.75
585.46	58635.10
585.62	58492.33
585.78	58775.53
585.94	58646.80
586.10	58848.09
586.26	58677.23
586.42	58880.86
586.58	58787.24
586.74	58672.55
586.90	58688.93
587.06	58614.04
587.22	58801.28
587.38	58726.38
587.54	58749.79
587.70	59077.46
587.86	59070.44
588.02	58892.56
588.18	59011.93
588.34	58728.72
588.49	58773.19
588.65	58937.03
588.81	58820.00
588.97	58848.09
589.13	58766.17
589.29	58796.60
589.45	59121.93
589.61	59042.35
589.77	59128.95
589.93	59065.76
590.08	59091.51
590.24	59023.63
590.40	59114.91
590.56	59250.66
590.72	58920.65
590.88	59000.22
591.04	58705.32
591.20	58843.41
591.35	59063.42
591.51	59121.93
591.67	59007.25
591.83	59203.85
591.99	59206.19
592.15	59248.32
592.31	59341.94
592.46	58925.33
592.62	58768.51
592.78	58850.43
592.94	58930.01
593.10	59166.40
593.26	59166.40
593.41	59061.08
593.57	59313.86
593.73	59290.45
593.89	59229.60
594.05	59147.68
594.20	59040.01
594.36	59049.38
594.52	59124.27
594.68	59124.27
594.84	58911.28
594.99	59150.02
595.15	59028.31
595.31	59271.73
595.47	59189.81
595.62	59114.91
595.78	59175.76
595.94	59217.89
596.10	58899.58
596.25	58937.03
596.41	59084.48
596.57	58906.60
596.73	59267.05
596.88	59147.68
597.04	59161.72
597.20	59000.22
597.36	59299.81
597.51	59360.67
597.67	58983.84
597.83	59121.93
597.99	58990.86
598.14	59330.24
598.30	59157.04
598.46	59030.65
598.61	59154.70
598.77	59103.21
598.93	59487.06
599.09	59224.92
599.24	59292.79
599.40	59683.66
599.56	59484.72
599.71	59231.94
599.87	59236.62
600.03	59185.13
600.18	59304.49
600.34	59138.32
600.50	59428.54
600.65	59180.45
600.81	59171.08
600.97	59337.26
601.12	59578.34
601.28	59650.89
601.44	59395.77
601.59	59426.20
601.75	59384.07
601.91	59444.93
602.06	59292.79
602.22	59388.75
602.37	59320.88
602.53	59334.92
602.69	59604.08
602.84	59295.13
603.00	59597.06
603.16	59700.04
603.31	59625.15
603.47	59433.22
603.62	59402.80
603.78	59613.44
603.94	59456.63
604.09	59304.49
604.25	59421.52
604.40	59154.70
604.56	59220.23
604.71	59370.03
604.87	59285.77
605.03	59463.65
605.18	59358.33
605.34	59009.59
605.49	59145.34
605.65	59215.55
605.80	58770.85
605.96	59370.03
606.12	59157.04
606.27	59578.34
606.43	59426.20
606.58	59337.26
606.74	59175.76
606.89	59355.99
607.05	59330.24
607.20	59447.27
607.36	59405.14
607.51	59592.38
607.67	59135.98
607.82	59121.93
607.98	59112.57
608.13	59121.93
608.29	59135.98
608.44	59166.40
608.60	59217.89
608.75	59367.69
608.91	59463.65
609.06	59185.13
609.22	59428.54
609.37	59143.00
609.53	59386.41
609.68	59358.33
609.84	59236.62
609.99	59196.83
610.15	59121.93
610.30	59117.25
610.46	59323.22
610.61	59114.91
610.76	59379.39
610.92	59494.08
611.07	59353.65
611.23	59332.58
611.38	59306.83
611.54	59283.43
611.69	59597.06
611.84	59325.56
612.00	59365.35
612.15	59236.62
612.31	59231.94
612.46	59201.51
612.62	59215.55
612.77	59028.31
612.92	59199.17
613.08	59178.10
613.23	59068.10
613.39	58937.03
613.54	58965.12
613.69	58915.96
613.85	58684.25
614.00	58906.60
614.15	59089.16
614.31	59000.22
614.46	58880.86
614.62	58770.85
614.77	59040.01
614.92	58831.71
615.08	59063.42
615.23	59126.61
615.38	58927.67
615.54	58747.45
615.69	58843.41
615.84	58625.74
616.00	58817.66
616.15	59054.06
616.30	58817.66
616.46	58731.06
616.61	58827.02
616.76	58801.28
616.92	58817.66
617.07	58656.17
617.22	58679.57
617.37	58604.67
617.53	58782.55
617.68	58555.52
617.83	58644.46
617.99	58504.03
618.14	58691.27
618.29	58609.35
618.45	58466.58
618.60	58489.99
618.75	58525.10
618.90	58529.78
619.06	58457.22
619.21	58674.89
619.36	58518.07
619.51	58422.11
619.67	58309.77
619.82	58246.57
619.97	58520.41
620.12	58305.09
620.28	58340.19
620.43	58412.75
620.58	58546.16
620.73	58466.58
620.89	58372.96
621.04	58623.40
621.19	58562.54
621.34	58255.93
621.49	58143.59
621.65	58096.78
621.80	58394.03
621.95	58274.66
622.10	58431.47
622.25	58326.15
622.41	58438.50
622.56	58422.11
622.71	58464.24
622.86	58265.30
623.01	58370.62
623.16	58405.73
623.32	57921.24
623.47	58042.95
623.62	58244.23
623.77	58337.85
623.92	58115.50
624.07	58103.80
624.23	58291.04
624.38	58272.32
624.53	57979.75
624.68	58277.00
624.83	58461.90
624.98	58410.41
625.13	58113.16
625.29	58321.47
625.44	58166.99
625.59	57848.68
625.74	57925.92
625.89	57954.00
626.04	57881.45
626.19	57925.92
626.34	57872.09
626.49	57633.35
626.65	57771.44
626.80	57738.68
626.95	57640.37
627.10	57748.04
627.25	57872.09
627.40	57961.03
627.55	57614.63
627.70	57705.91
627.85	57911.88
628.00	57778.46
628.15	57879.11
628.30	57654.42
628.45	57661.44
628.60	57834.64
628.76	57792.51
628.91	57766.76
629.06	57701.23
629.21	57677.82
629.36	57647.39
629.51	57558.45
629.66	57577.18
629.81	57462.49
629.96	57382.91
630.11	57301.00
630.26	57350.15
630.41	57567.82
630.56	57373.55
630.71	57411.00
630.86	57235.46
631.01	57567.82
631.16	57635.69
631.31	57448.45
631.46	57237.80
631.61	57581.86
631.76	57310.36
631.91	57422.70
632.06	57422.70
632.21	57361.85
632.36	57453.13
632.51	57223.76
632.66	57457.81
632.81	57186.31
632.96	57670.80
633.10	57265.89
633.25	57478.88
633.40	57062.26
633.55	57483.56
633.70	57174.61
633.85	57219.08
634.00	57258.87
634.15	57151.20
634.30	57069.28
634.45	56949.92
634.60	56942.89
634.75	57160.56
634.90	56917.15
635.05	57153.54
635.19	57209.71
635.34	57265.89
635.49	57359.51
635.64	57141.84
635.79	56877.36
635.94	56914.81
636.09	56566.07
636.24	56767.35
636.39	56942.89
636.53	56896.08
636.68	56856.29
636.83	56968.64
636.98	56722.88
637.13	56619.90
637.28	57167.58
637.43	56980.34
637.57	56898.42
637.72	56671.39
637.87	56779.06
638.02	56732.25
638.17	56659.69
638.32	56678.41
638.46	56727.56
638.61	56547.34
638.76	56456.06
638.91	56435.00
639.06	56645.65
639.20	56425.64
639.35	56664.37
639.50	56549.68
639.65	56844.59
639.80	56767.35
639.94	56610.54
640.09	56409.25
640.24	56404.57
640.39	56486.49
640.54	56495.85
640.68	55992.64
640.83	56523.94
640.98	56306.27
641.13	56292.22
641.27	56561.39
641.42	56554.36
641.57	56432.66
641.72	56306.27
641.86	56315.63
642.01	56348.40
642.16	56278.18
642.31	56030.08
642.45	56388.19
642.60	56067.53
642.75	56011.36
642.90	56025.40
643.04	55931.78
643.19	55838.16
643.34	55950.51
643.48	55934.12
643.63	56025.40
643.78	55985.61
643.93	56214.99
644.07	56046.47
644.22	55948.17
644.37	55742.20
644.51	56126.05
644.66	56329.67
644.81	55941.14
644.95	55796.03
645.10	55987.95
645.25	55896.67
645.39	55882.63
645.54	55840.50
645.69	55601.77
645.83	55707.09
645.98	55648.58
646.13	55966.89
646.27	55896.67
646.42	55679.00
646.57	55590.06
646.71	55592.40
646.86	55730.50
647.00	55643.90
647.15	55800.71
647.30	55920.08
647.44	55552.62
647.59	55365.37
647.74	55704.75
647.88	55531.55
648.03	55393.46
648.17	55793.69
648.32	55725.81
648.47	55831.14
648.61	55437.93
648.76	55510.49
648.90	55341.97
649.05	55608.79
649.20	55304.52
649.34	55302.18
649.49	55344.31
649.63	55236.64
649.78	55358.35
649.92	55260.05
650.07	55533.89
650.21	55290.48
650.36	55711.77
650.51	55292.82
650.65	55590.06
650.80	55367.71
650.94	55351.33
651.09	55243.66
651.23	55421.55
651.38	55407.50
651.52	55304.52
651.67	55168.77
651.81	55114.94
651.96	55379.42
652.10	55004.93
652.25	55227.28
652.39	55285.79
652.54	55175.79
652.68	54990.89
652.83	55224.94
652.97	55213.24
653.12	55161.75
653.26	54993.23
653.41	54890.24
653.55	55136.00
653.70	54829.39
653.84	55033.02
653.99	55150.04
654.13	55267.07
654.27	54944.08
654.42	54908.97
654.56	55100.89
654.71	55107.91
654.85	55260.05
655.00	55234.30
655.14	54822.37
655.29	55058.76
655.43	55117.28
655.57	55014.29
655.72	54911.31
655.86	54820.03
656.01	54805.98
656.15	54525.12
656.30	54602.36
656.44	54436.18
656.58	54281.70
656.73	54291.07
656.87	54756.83
657.01	54780.24
657.16	54925.35
657.30	54822.37
657.45	54698.32
657.59	54497.03
657.73	54239.57
657.88	54344.90
658.02	54560.23
658.16	54525.12
658.31	54164.68
658.45	54443.20
658.60	54035.95
658.74	54223.19
658.88	54213.83
659.03	54164.68
659.17	54185.74
659.31	54216.17
659.46	54251.28
659.60	54066.38
659.74	54031.27
659.89	53860.41
660.03	54101.48
660.17	54066.38
660.32	53818.28
660.46	53811.26
660.60	53977.43
660.74	53982.12
660.89	54085.10
661.03	53883.81
661.17	53944.67
661.32	53476.56
661.46	53888.49
661.60	53825.30
661.74	53607.63
661.89	53719.98
662.03	53778.49
662.17	53675.51
662.31	53556.14
662.46	53975.09
662.60	53481.24
662.74	53361.87
662.88	53382.94
663.03	53504.65
663.17	53425.07
663.31	52973.34
663.45	53207.40
663.60	53045.90
663.74	53052.92
663.88	53027.18
664.02	52891.43
664.17	53188.67
664.31	52371.83
664.45	52743.97
664.59	52942.92
664.73	53134.84
664.88	52828.23
665.02	52542.69
665.16	52715.89
665.30	52404.59
665.44	52760.36
665.59	52547.37
665.73	52430.34
665.87	52046.49
666.01	52390.55
666.15	52306.29
666.29	52425.66
666.44	52250.12
666.58	52200.97
666.72	52306.29
666.86	52123.73
667.00	52219.69
667.14	52053.51
667.28	52046.49
667.43	52016.07
667.57	52055.85
667.71	51931.81
667.85	52149.48
667.99	51657.96
668.13	51580.73
668.27	51800.74
668.41	51744.56
668.56	51227.31
668.70	51641.58
668.84	51508.17
668.98	51793.71
669.12	51772.65
669.26	51096.24
669.40	50855.16
669.54	51440.29
669.68	51058.79
669.82	51339.65
669.96	51337.31
670.10	50838.78
670.25	51201.56
670.39	50824.73
670.53	50965.17
670.67	50731.11
670.81	50798.99
670.95	50780.26
671.09	50527.48
671.23	50937.08
671.37	50883.25
671.51	50944.10
671.65	50941.76
671.79	50646.85
671.93	50108.53
672.07	50632.81
672.21	50365.99
672.35	49654.47
672.49	49656.81
672.63	50258.32
672.77	49668.51
672.91	49483.61
673.05	49715.32
673.19	49647.44
673.33	49563.18
673.47	49336.15
673.61	49724.68
673.75	49972.78
673.89	49804.26
674.03	49799.58
674.17	49146.57
674.31	49537.44
674.45	48933.58
674.59	49160.61
674.73	48940.60
674.87	48512.28
675.01	48465.47
675.15	48397.60
675.29	48512.28
675.43	48367.17
675.56	49123.16
675.70	48797.83
675.84	48612.93
675.98	47447.34
676.12	48465.47
676.26	48575.48
676.40	48252.48
676.54	47817.14
676.68	48275.89
676.82	47243.71
676.96	47730.54
677.10	47419.25
677.23	47147.75
677.37	47466.06
677.51	46878.59
677.65	46799.01
677.79	46541.55
677.93	46873.91
678.07	46667.94
678.21	46894.97
678.34	46429.21
678.48	46646.88
678.62	46295.80
678.76	46033.66
678.90	45717.68
679.04	46021.95
679.18	46478.36
679.31	45624.06
679.45	45354.90
679.59	45247.24
679.73	45771.52
679.87	45577.25
680.00	45731.73
680.14	45078.72
680.28	44971.05
680.42	45324.47
680.56	44856.37
680.70	44779.13
680.83	44732.32
680.97	44549.76
681.11	44481.88
681.25	44734.66
681.39	44320.38
681.52	44194.00
681.66	43903.77
681.80	43814.83
681.94	43449.70
682.07	42927.77
682.21	42845.85
682.35	43267.14
682.49	43175.86
682.62	42740.52
682.76	42256.03
682.90	43171.18
683.04	43133.73
683.17	43147.78
683.31	43140.75
683.45	42876.27
683.59	42803.72
683.72	42548.60
683.86	41876.86
684.00	42127.30
684.13	42071.13
684.27	42150.71
684.41	41696.64
684.55	41808.99
684.68	41427.48
684.82	41284.71
684.96	41109.17
685.09	40671.49
685.23	40898.52
685.37	40891.50
685.50	40823.62
685.64	40886.82
685.78	40243.17
685.91	40772.13
686.05	40617.66
686.19	40596.59
686.32	40325.09
686.46	39744.64
686.60	39133.76
686.73	39707.19
686.87	38838.85
687.01	39227.38
687.14	39143.12
687.28	39103.33
687.42	38953.54
687.55	38574.37
687.69	38766.29
687.82	38377.76
687.96	38646.93
688.10	38651.61
688.23	38459.68
688.37	38396.49
688.50	38700.76
688.64	38476.07
688.78	38017.32
688.91	37479.00
689.05	37778.59
689.18	37593.68
689.32	37221.54
689.46	37537.51
689.59	37317.50
689.73	36931.31
689.86	36823.65
690.00	36786.20
690.13	36535.76
690.27	36561.51
690.41	36292.35
690.54	36140.21
690.68	35997.44
690.81	36449.16
690.95	36519.38
691.08	36201.07
691.22	35828.92
691.35	35676.79
691.49	35398.26
691.62	35082.29
691.76	35201.66
691.89	34965.26
692.03	34562.69
692.16	34525.24
692.30	34356.72
692.43	34043.09
692.57	33890.96
692.70	34279.49
692.84	34181.18
692.97	34408.22
693.11	34618.86
693.24	34022.03
693.38	33586.69
693.51	33827.76
693.65	33787.97
693.78	33926.07
693.92	33457.96
694.05	33528.17
694.19	33193.48
694.32	32767.50
694.45	32680.90
694.59	32769.84
694.72	32800.27
694.86	32519.40
694.99	32341.52
695.13	32004.49
695.26	32187.05
695.39	31878.10
695.53	32339.18
695.66	32114.49
695.80	32184.71
695.93	31585.53
696.07	31627.66
696.20	31534.04
696.33	31220.41
696.47	30796.77
696.60	30586.12
696.73	30398.88
696.87	29792.68
697.00	30043.12
697.14	29809.06
697.27	29848.85
697.40	29724.80
697.54	29450.96
697.67	29469.69
697.80	28882.21
697.94	28938.38
698.07	28966.47
698.21	28716.03
698.34	29415.85
698.47	29083.50
698.61	28542.83
698.74	29252.02
698.87	29095.20
699.01	28671.56
699.14	28655.18
699.27	28002.17
699.40	28580.28
699.54	27941.32
699.67	27632.36
699.80	27515.34
699.94	27749.39
700.07	27498.95
700.20	27508.32
700.34	26700.83
700.47	27180.64
700.60	26916.16
700.73	27611.30
700.87	27257.88
701.00	27290.65
701.13	27194.68
701.26	27262.56
701.40	27072.98
701.53	26845.94
701.66	26370.82
701.79	26668.06
701.93	26029.10
702.06	25692.06
702.19	25420.56
702.32	25591.42
702.46	25102.25
702.59	25261.40
702.72	25097.56
702.85	25233.32
702.99	25439.28
703.12	24856.49
703.25	25017.99
703.38	24985.22
703.51	24952.45
703.65	25160.76
703.78	25067.14
703.91	24861.17
704.04	25434.60
704.17	24889.26
704.31	24615.41
704.44	24709.04
704.57	24187.10
704.70	23789.20
704.83	23370.25
704.96	23414.72
705.10	23447.49
705.23	23300.03
>>>>>End Processed Spectral Data<<<<<
