SpectraSuite Data File
++++++++++++++++++++++++++++++++++++
Date: Fri Oct 04 11:39:20 GMT-05:00 2013
User: price-jones
Dark Spectrum Present: No
Reference Spectrum Present: No
Number of Sampled Component Spectra: 1
Spectrometers: USB2+H05261
Integration Time (usec): 100000 (USB2+H05261)
Spectra Averaged: 1 (USB2+H05261)
Boxcar Smoothing: 0 (USB2+H05261)
Correct for Electrical Dark: No (USB2+H05261)
Strobe/Lamp Enabled: No (USB2+H05261)
Correct for Detector Non-linearity: No (USB2+H05261)
Correct for Stray Light: No (USB2+H05261)
Number of Pixels in Processed Spectrum: 2048
>>>>>Begin Processed Spectral Data<<<<<
365.73	37.45
365.92	37.45
366.12	37.45
366.32	0.00
366.52	0.00
366.72	42.13
366.91	0.00
367.11	0.00
367.31	0.00
367.51	0.00
367.70	0.00
367.90	0.00
368.10	0.00
368.30	0.00
368.49	0.00
368.69	11.70
368.89	0.00
369.09	0.00
369.28	0.00
369.48	0.00
369.68	0.00
369.87	11.70
370.07	0.00
370.27	119.37
370.47	100.64
370.66	266.82
370.86	227.03
371.06	259.80
371.25	332.36
371.45	297.25
371.65	348.74
371.84	322.99
372.04	341.72
372.24	388.53
372.44	292.57
372.63	341.72
372.83	428.32
373.03	278.52
373.22	351.08
373.42	421.30
373.62	395.55
373.81	327.68
374.01	390.87
374.21	346.40
374.40	381.51
374.60	442.36
374.79	407.25
374.99	435.34
375.19	470.45
375.38	397.89
375.58	463.43
375.78	414.27
375.97	400.23
376.17	514.92
376.37	528.96
376.56	472.79
376.76	468.11
376.95	451.72
377.15	486.83
377.35	416.62
377.54	468.11
377.74	411.93
377.93	477.47
378.13	440.02
378.33	493.85
378.52	465.77
378.72	458.74
378.91	451.72
379.11	543.00
379.31	451.72
379.50	430.66
379.70	489.17
379.89	603.86
380.09	557.05
380.28	475.13
380.48	533.64
380.68	468.11
380.87	535.98
381.07	540.66
381.26	550.03
381.46	514.92
381.65	535.98
381.85	482.15
382.04	568.75
382.24	620.24
382.43	472.79
382.63	561.73
382.83	533.64
383.02	596.84
383.22	622.58
383.41	526.62
383.61	589.82
383.80	538.32
384.00	552.37
384.19	669.39
384.39	638.97
384.58	552.37
384.78	568.75
384.97	650.67
385.17	641.31
385.36	615.56
385.56	655.35
385.75	615.56
385.95	599.18
386.14	594.50
386.34	671.73
386.53	617.90
386.72	620.24
386.92	681.10
387.11	704.50
387.31	674.07
387.50	557.05
387.70	587.47
387.89	671.73
388.09	695.14
388.28	699.82
388.48	676.41
388.67	699.82
388.86	704.50
389.06	746.63
389.25	720.88
389.45	727.91
389.64	751.31
389.84	732.59
390.03	858.98
390.22	760.67
390.42	636.63
390.61	751.31
390.81	702.16
391.00	770.04
391.19	873.02
391.39	734.93
391.58	744.29
391.78	807.48
391.97	816.85
392.16	802.80
392.36	896.43
392.55	884.72
392.75	863.66
392.94	788.76
393.13	844.93
393.33	763.01
393.52	868.34
393.71	898.77
393.91	896.43
394.10	870.68
394.29	940.90
394.49	791.10
394.68	968.98
394.88	950.26
395.07	1050.90
395.26	917.49
395.46	952.60
395.65	985.37
395.84	978.34
396.04	1104.73
396.23	1055.58
396.42	961.96
396.62	954.94
396.81	1015.79
397.00	976.00
397.19	1095.37
397.39	933.87
397.58	1027.50
397.77	1041.54
397.97	1048.56
398.16	1029.84
398.35	1097.71
398.55	1022.81
398.74	1151.54
398.93	1097.71
399.12	1123.46
399.32	1048.56
399.51	1114.10
399.70	1109.41
399.90	1219.42
400.09	1205.38
400.28	1186.65
400.47	1275.59
400.67	1219.42
400.86	1221.76
401.05	1203.04
401.24	1299.00
401.44	1261.55
401.63	1366.87
401.82	1282.61
402.01	1172.61
402.21	1275.59
402.40	1282.61
402.59	1327.08
402.78	1427.73
402.97	1366.87
403.17	1401.98
403.36	1409.00
403.55	1376.24
403.74	1444.11
403.93	1404.32
404.13	1437.09
404.32	1514.33
404.51	1423.05
404.70	1495.60
404.89	1460.49
405.09	1572.84
405.28	1476.88
405.47	1572.84
405.66	1549.43
405.85	1558.80
406.05	1591.56
406.24	1603.27
406.43	1570.50
406.62	1647.74
406.81	1675.82
407.00	1657.10
407.20	1556.46
407.39	1682.85
407.58	1657.10
407.77	1804.55
407.96	1727.32
408.15	1816.26
408.34	1753.06
408.54	1827.96
408.73	1842.00
408.92	1811.57
409.11	1923.92
409.30	1825.62
409.49	1802.21
409.68	1898.17
409.87	1858.39
410.07	1921.58
410.26	1954.35
410.45	1937.96
410.64	1977.75
410.83	1989.46
411.02	2050.31
411.21	1989.46
411.40	2062.01
411.59	2148.61
411.78	2125.21
411.98	2017.54
412.17	2221.17
412.36	2204.78
412.55	2169.68
412.74	2232.87
412.93	2342.88
413.12	2253.94
413.31	2363.94
413.50	2272.66
413.69	2284.36
413.88	2434.16
414.07	2480.97
414.26	2520.76
414.45	2408.41
414.64	2511.39
414.83	2525.44
415.02	2572.25
415.22	2548.84
415.41	2597.99
415.60	2703.32
415.79	2626.08
415.98	2846.09
416.17	2710.34
416.36	2754.81
416.55	2743.11
416.74	2764.17
416.93	2738.43
417.12	2787.58
417.31	2785.24
417.50	2885.88
417.69	2951.42
417.88	2981.84
418.07	2963.12
418.26	2967.80
418.45	2967.80
418.64	3087.17
418.83	3108.23
419.02	2993.55
419.21	3131.64
419.39	3180.79
419.58	3141.00
419.77	3117.59
419.96	3166.74
420.15	3274.41
420.34	3232.28
420.53	3279.09
420.72	3356.33
420.91	3365.69
421.10	3438.25
421.29	3517.83
421.48	3232.28
421.67	3290.79
421.86	3234.62
422.05	3349.31
422.24	3440.59
422.43	3283.77
422.61	3386.76
422.80	3435.91
422.99	3513.14
423.18	3356.33
423.37	3555.27
423.56	3445.27
423.75	3463.99
423.94	3480.38
424.13	3281.43
424.32	3353.99
424.50	3405.48
424.69	3569.32
424.88	3585.70
425.07	3499.10
425.26	3566.98
425.45	3492.08
425.64	3541.23
425.83	3641.87
426.01	3644.21
426.20	3604.42
426.39	3391.44
426.58	3552.93
426.77	3721.45
426.96	3660.60
427.15	3637.19
427.33	3653.58
427.52	3508.46
427.71	3702.73
427.90	3833.80
428.09	3737.84
428.28	3765.92
428.46	3808.05
428.65	3730.81
428.84	3988.27
429.03	3845.50
429.22	3920.40
429.40	3908.69
429.59	3988.27
429.78	3779.97
429.97	3723.79
430.16	3686.34
430.34	4086.58
430.53	4142.75
430.72	4093.60
430.91	4011.68
431.10	4070.19
431.28	4058.49
431.47	4252.75
431.66	4112.32
431.85	4126.36
432.03	4315.95
432.22	4327.65
432.41	4198.92
432.60	4290.20
432.79	4219.99
432.97	4292.54
433.16	4318.29
433.35	4283.18
433.54	4320.63
433.72	4290.20
433.91	4257.43
434.10	4304.25
434.28	4428.29
434.47	4484.47
434.66	4472.76
434.85	4491.49
435.03	4533.62
435.22	4755.97
435.41	4929.17
435.59	4901.08
435.78	4774.69
435.97	4755.97
436.16	4571.07
436.34	4727.88
436.53	4685.75
436.72	4767.67
436.90	4648.30
437.09	4610.86
437.28	4596.81
437.46	4685.75
437.65	4807.46
437.84	4938.53
438.02	4851.93
438.21	4692.77
438.40	4821.50
438.58	4950.23
438.77	5020.45
438.96	4978.32
439.14	5355.15
439.33	5174.92
439.52	5093.01
439.70	5399.62
439.89	5263.86
440.08	5172.58
440.26	5296.63
440.45	5334.08
440.63	5291.95
440.82	5408.98
441.01	5511.96
441.19	5493.24
441.38	5486.22
441.57	5568.13
441.75	5685.16
441.94	5689.84
442.12	5771.76
442.31	5905.17
442.50	5675.80
442.68	5804.53
442.87	5849.00
443.05	5743.67
443.24	5940.28
443.43	5837.30
443.61	5820.91
443.80	6104.12
443.98	5708.57
444.17	5741.33
444.35	5879.43
444.54	5987.09
444.73	5982.41
444.91	6031.56
445.10	5991.77
445.28	5907.51
445.47	5968.37
445.65	5956.66
445.84	5987.09
446.02	6099.44
446.21	5977.73
446.39	6026.88
446.58	6092.41
446.77	6118.16
446.95	5987.09
447.14	5942.62
447.32	6171.99
447.51	6291.36
447.69	6094.76
447.88	6029.22
448.06	6057.31
448.25	6085.39
448.43	6129.86
448.62	6050.28
448.80	6237.53
448.99	6289.02
449.17	6270.30
449.36	6305.40
449.54	6399.02
449.73	6345.19
449.91	6457.54
450.10	6338.17
450.28	6705.63
450.46	6392.00
450.65	6469.24
450.83	6523.07
451.02	6396.68
451.20	6417.75
451.39	6616.69
451.57	6490.31
451.76	6417.75
451.94	6527.75
452.13	6827.34
452.31	6640.10
452.49	6600.31
452.68	6867.13
452.86	6700.95
453.05	6899.90
453.23	6822.66
453.42	6778.19
453.60	6724.36
453.78	6719.68
453.97	6782.87
454.15	6815.64
454.34	6956.07
454.52	7082.46
454.70	6913.94
454.89	6979.48
455.07	7021.61
455.26	7080.12
455.44	7150.34
455.62	7042.67
455.81	7309.49
455.99	7131.61
456.17	7222.89
456.36	7033.31
456.54	7204.17
456.73	7403.11
456.91	7592.70
457.09	7468.65
457.28	7655.89
457.46	7414.82
457.64	7639.51
457.83	7735.47
458.01	7353.96
458.19	7737.81
458.38	7550.57
458.56	7691.00
458.74	7714.41
458.93	7585.68
459.11	7662.91
459.29	7662.91
459.48	7695.68
459.66	7705.04
459.84	7915.69
460.03	8091.23
460.21	7866.54
460.39	7801.01
460.57	7840.79
460.76	7948.46
460.94	8081.87
461.12	8051.44
461.31	7932.08
461.49	7957.82
461.67	7896.97
461.85	8304.22
462.04	8238.69
462.22	8613.17
462.40	8367.42
462.59	8250.39
462.77	8379.12
462.95	8397.84
463.13	8318.26
463.32	8386.14
463.50	8257.41
463.68	8339.33
463.86	8376.78
464.05	8346.35
464.23	8287.84
464.41	8671.68
464.59	8285.50
464.78	8549.98
464.96	8606.15
465.14	8491.46
465.32	8620.19
465.50	8795.73
465.69	8720.84
465.87	8589.77
466.05	8638.92
466.23	8678.71
466.41	8821.48
466.60	8912.76
466.78	8606.15
466.96	8716.16
467.14	8580.40
467.32	8889.35
467.51	8891.70
467.69	8753.60
467.87	8889.35
468.05	8985.32
468.23	8943.19
468.41	8809.78
468.60	9057.87
468.78	9233.41
468.96	9074.26
469.14	9245.12
469.32	9156.18
469.50	8980.64
469.69	9343.42
469.87	9163.20
470.05	9366.82
470.23	9341.08
470.41	9647.69
470.59	9488.53
470.77	9430.02
470.95	9390.23
471.14	9596.20
471.32	9465.13
471.50	9682.80
471.68	9652.37
471.86	9753.01
472.04	9956.64
472.22	9954.30
472.40	9635.99
472.58	9816.21
472.77	10246.87
472.95	9989.41
473.13	10104.09
473.31	10045.58
473.49	10033.88
473.67	10108.77
473.85	10265.59
474.03	10473.90
474.21	10368.57
474.39	10331.12
474.57	10572.20
474.75	10530.07
474.93	10981.79
475.12	10616.67
475.30	10670.50
475.48	10766.46
475.66	10710.29
475.84	10913.92
476.02	11040.31
476.20	10817.96
476.38	11166.70
476.56	11239.25
476.74	11396.07
476.92	11412.45
477.10	11466.28
477.28	11531.82
477.46	11529.48
477.64	11496.71
477.82	11616.08
478.00	12039.72
478.18	12156.74
478.36	12170.79
478.54	12145.04
478.72	12037.38
478.90	12491.44
479.08	12664.64
479.26	12617.83
479.44	12552.29
479.62	12919.76
479.80	13015.72
479.98	12798.05
480.16	13142.11
480.34	13008.70
480.52	13186.58
480.70	13069.55
480.88	12912.74
481.06	13249.77
481.24	13334.03
481.41	13392.55
481.59	13855.97
481.77	13855.97
481.95	13987.04
482.13	13830.23
482.31	14389.61
482.49	14286.63
482.67	14352.16
482.85	14291.31
483.03	14750.06
483.21	14923.26
483.39	14991.13
483.57	14883.47
483.74	14993.47
483.92	15372.64
484.10	15316.47
484.28	15480.30
484.46	15798.62
484.64	15838.41
484.82	15646.48
485.00	15843.09
485.18	16166.08
485.35	16444.60
485.53	16236.30
485.71	16531.20
485.89	16872.92
486.07	16390.77
486.25	16676.32
486.43	16627.17
486.61	17022.72
486.78	17238.05
486.96	17378.48
487.14	17415.93
487.32	17397.20
487.50	17568.06
487.68	17869.99
487.85	18038.51
488.03	18150.85
488.21	18457.46
488.39	18487.89
488.57	18827.27
488.75	18735.99
488.92	18993.45
489.10	19187.71
489.28	19082.39
489.46	19576.24
489.64	19468.58
489.81	19995.20
489.99	19707.31
490.17	19932.00
490.35	20025.62
490.53	20039.67
490.70	20512.46
490.88	20044.35
491.06	20285.42
491.24	20430.54
491.41	20479.69
491.59	20814.38
491.77	21001.63
491.95	21359.73
492.13	21341.00
492.30	21511.86
492.48	21441.65
492.66	21551.65
492.84	21855.92
493.01	21788.05
493.19	21940.18
493.37	22342.75
493.54	22113.38
493.72	22462.12
493.90	22537.02
494.08	22326.37
494.25	23005.13
494.43	23035.55
494.61	23529.41
494.79	23414.72
494.96	23239.18
495.14	23215.77
495.32	23524.72
495.49	23651.11
495.67	23985.81
495.85	24091.13
496.02	24254.97
496.20	24376.68
496.38	24519.45
496.55	24306.46
496.73	24702.01
496.91	24353.27
497.09	24645.84
497.26	25083.52
497.44	24957.13
497.62	25266.08
497.79	25329.28
497.97	25214.59
498.14	25280.13
498.32	26017.40
498.50	25830.15
498.67	25998.67
498.85	25750.57
499.03	25984.63
499.20	26204.64
499.38	26448.05
499.56	26696.15
499.73	26548.70
499.91	26974.67
500.08	26817.86
500.26	26693.81
500.44	26979.36
500.61	27082.34
500.79	26815.52
500.97	27300.01
501.14	27653.43
501.32	27541.08
501.49	27826.63
501.67	27569.17
501.84	27529.38
502.02	27761.09
502.20	28133.24
502.37	28053.66
502.55	28238.56
502.72	28182.39
502.90	28002.17
503.07	28072.39
503.25	28411.76
503.43	28322.82
503.60	28683.27
503.78	28666.88
503.95	28739.44
504.13	29095.20
504.30	28830.72
504.48	28999.24
504.65	29151.37
504.83	29408.83
505.01	29413.51
505.18	29663.95
505.36	29652.25
505.53	29502.45
505.71	29668.63
505.88	30038.44
506.06	29614.80
506.23	30136.74
506.41	30569.74
506.58	30604.84
506.76	30157.80
506.93	30202.27
507.11	30096.95
507.28	30630.59
507.46	30567.40
507.63	30553.35
507.81	31035.50
507.98	30918.48
508.16	30965.29
508.33	30658.68
508.50	30855.28
508.68	31566.81
508.85	31634.68
509.03	31402.97
509.20	31833.63
509.38	31878.10
509.55	31999.80
509.73	31889.80
509.90	32196.41
510.08	31548.08
510.25	32271.31
510.42	32292.37
510.60	32437.48
510.77	32900.91
510.95	33188.80
511.12	32556.85
511.30	32601.32
511.47	32842.40
511.64	32694.94
511.82	33186.46
511.99	32870.48
512.17	33514.13
512.34	33181.77
512.51	33956.49
512.69	33816.06
512.86	33277.74
513.04	33584.35
513.21	33984.58
513.38	33577.33
513.56	34047.77
513.73	33888.62
513.90	34122.67
514.08	33603.07
514.25	34272.46
514.43	34513.54
514.60	34181.18
514.77	34424.60
514.95	35103.35
515.12	34249.06
515.29	34579.07
515.47	34682.06
515.64	34885.68
515.81	34820.15
515.99	35269.53
516.16	35477.84
516.33	35393.58
516.51	35199.32
516.68	35601.89
516.85	35264.85
517.03	35428.69
517.20	35505.93
517.37	35716.58
517.54	36084.04
517.72	35529.33
517.89	35676.79
518.06	36107.44
518.24	35744.66
518.41	36182.34
518.58	35997.44
518.75	35882.75
518.93	36275.96
519.10	36231.49
519.27	36844.71
519.45	36793.22
519.62	36559.17
519.79	36762.79
519.96	36582.57
520.14	37371.33
520.31	36952.38
520.48	36961.74
520.65	37043.66
520.83	37181.75
521.00	37404.10
521.17	37434.53
521.34	37095.15
521.52	37404.10
521.69	37668.58
521.86	37757.52
522.03	38031.36
522.20	38258.40
522.38	38071.15
522.55	38106.26
522.72	38071.15
522.89	37794.97
523.07	38279.46
523.24	37930.72
523.41	38316.91
523.58	38447.98
523.75	38398.83
523.92	38557.99
524.10	38557.99
524.27	38801.40
524.44	39159.50
524.61	38824.81
524.78	39414.62
524.96	39037.80
525.13	39302.28
525.30	39178.23
525.47	39487.18
525.64	39538.67
525.81	39311.64
525.98	39826.56
526.16	39124.40
526.33	39901.45
526.50	39718.89
526.67	39541.01
526.84	40112.10
527.01	39482.50
527.18	40442.12
527.36	40238.49
527.53	40168.27
527.70	40863.41
527.87	40385.94
528.04	40098.06
528.21	40610.64
528.38	40392.97
528.55	40526.38
528.72	40741.71
528.89	40882.14
529.07	40751.07
529.24	40636.38
529.41	40629.36
529.58	40774.47
529.75	40533.40
529.92	41017.89
530.09	41165.34
530.26	41301.09
530.43	41146.62
530.60	40940.65
530.77	40973.42
530.94	41434.50
531.11	41148.96
531.28	41268.33
531.46	41411.10
531.63	41446.21
531.80	41329.18
531.97	42295.82
532.14	41790.27
532.31	41780.90
532.48	41778.56
532.65	41869.84
532.82	41869.84
532.99	41518.76
533.16	42082.83
533.33	42054.75
533.50	42696.05
533.67	42148.37
533.84	42007.94
534.01	42244.33
534.18	41794.95
534.35	42536.90
534.52	42267.73
534.69	43241.40
534.86	42885.64
535.03	42564.98
535.20	43147.78
535.37	42396.46
535.54	42721.80
535.71	42684.35
535.88	43503.54
536.05	42934.79
536.22	43061.18
536.38	43079.90
536.55	43452.05
536.72	43208.63
536.89	43033.09
537.06	43100.97
537.23	43480.13
537.40	43292.89
537.57	43335.02
537.74	43615.88
537.91	43880.36
538.08	43681.42
538.25	43915.47
538.42	43875.68
538.59	43887.39
538.75	43709.50
538.92	43667.37
539.09	43763.34
539.26	44170.59
539.43	44004.41
539.60	44128.46
539.77	43962.28
539.94	44428.05
540.11	44835.30
540.28	44449.11
540.44	44114.42
540.61	44524.01
540.78	44847.00
540.95	44776.79
541.12	44809.56
541.29	44987.44
541.46	45015.52
541.62	44898.50
541.79	45251.92
541.96	44414.01
542.13	44680.83
542.30	44945.31
542.47	45055.31
542.63	45350.22
542.80	45553.85
542.97	45743.43
543.14	45979.82
543.31	45448.52
543.48	45595.98
543.64	45668.53
543.81	45993.87
543.98	46010.25
544.15	45759.81
544.32	46314.52
544.48	46162.39
544.65	45846.41
544.82	45752.79
544.99	45427.46
545.16	46373.03
545.32	45907.27
545.49	46955.83
545.66	46852.84
545.83	47100.94
546.00	47318.61
546.16	46866.89
546.33	46131.96
546.50	46302.82
546.67	46305.16
546.83	45572.57
547.00	46518.15
547.17	46529.85
547.34	46457.29
547.50	46667.94
547.67	46777.95
547.84	46925.40
548.00	46944.12
548.17	46707.73
548.34	46801.35
548.51	46735.82
548.67	47316.27
548.84	46927.74
549.01	46735.82
549.18	46756.88
549.34	46817.74
549.51	47021.36
549.68	46539.21
549.84	46817.74
550.01	47110.30
550.18	46939.44
550.34	47096.26
550.51	46864.55
550.68	47386.49
550.84	47100.94
551.01	47337.33
551.18	47241.37
551.34	47077.54
551.51	47047.11
551.68	47311.59
551.84	47199.24
552.01	47140.73
552.18	47470.75
552.34	47452.02
552.51	47538.62
552.68	47339.68
552.84	47192.22
553.01	47517.56
553.18	47304.57
553.34	47716.50
553.51	47604.16
553.67	47721.18
553.84	48177.59
554.01	47906.08
554.17	47662.67
554.34	47641.60
554.51	47557.35
554.67	47629.90
554.84	47751.61
555.00	48165.88
555.17	47873.32
555.33	48282.91
555.50	48074.60
555.67	47753.95
555.83	47901.40
556.00	47859.27
556.16	48442.07
556.33	47913.11
556.50	48041.84
556.66	48233.76
556.83	47896.72
556.99	48751.02
557.16	48502.92
557.32	48458.45
557.49	48446.75
557.65	47697.78
557.82	48215.04
557.98	48083.97
558.15	48198.65
558.32	48624.63
558.48	48573.14
558.65	48526.33
558.81	48353.13
558.98	48528.67
559.14	48523.99
559.31	48481.86
559.47	48542.71
559.64	49186.36
559.80	48416.32
559.97	49059.97
560.13	48591.86
560.30	48786.13
560.46	48868.05
560.63	49523.40
560.79	48964.01
560.96	49127.84
561.12	48947.62
561.29	49139.55
561.45	49191.04
561.61	49205.08
561.78	48947.62
561.94	49169.97
562.11	49055.29
562.27	48975.71
562.44	48921.88
562.60	49294.02
562.77	49010.82
562.93	49001.46
563.10	49137.21
563.26	49085.72
563.42	49371.26
563.59	48755.70
563.75	49443.82
563.92	49509.35
564.08	49064.65
564.24	49069.33
564.41	49020.18
564.57	49027.20
564.74	48961.67
564.90	49509.35
565.07	49439.14
565.23	49165.29
565.39	49687.23
565.56	49546.80
565.72	49567.87
565.88	49062.31
566.05	49436.80
566.21	49209.76
566.38	49078.69
566.54	49497.65
566.70	49507.01
566.87	49574.89
567.03	49301.04
567.19	49727.02
567.36	49514.03
567.52	49378.28
567.68	49560.84
567.85	49184.02
568.01	49560.84
568.17	49577.23
568.34	49270.62
568.50	49820.64
568.66	49942.35
568.83	49928.31
568.99	49619.36
569.15	49434.45
569.32	49490.63
569.48	49284.66
569.64	49565.52
569.81	49340.83
569.97	49668.51
570.13	49841.71
570.30	49705.96
570.46	49851.07
570.62	49443.82
570.78	49621.70
570.95	49523.40
571.11	49820.64
571.27	49766.81
571.43	49378.28
571.60	49827.66
571.76	49399.35
571.92	49607.65
572.09	49951.71
572.25	50026.61
572.41	49387.64
572.57	49975.12
572.74	50401.10
572.90	49727.02
573.06	49605.31
573.22	49317.43
573.38	49806.60
573.55	50021.93
573.71	50461.95
573.87	50211.51
574.03	49944.69
574.20	50012.57
574.36	49984.48
574.52	49705.96
574.68	49640.42
574.84	49790.22
575.01	50068.74
575.17	49965.76
575.33	49689.57
575.49	50071.08
575.65	50358.97
575.82	50176.40
575.98	49935.33
576.14	50014.91
576.30	49834.69
576.46	49921.29
576.62	50066.40
576.79	50291.09
576.95	50089.80
577.11	50237.26
577.27	50286.41
577.43	50305.13
577.59	50059.38
577.75	50185.77
577.92	50026.61
578.08	49813.62
578.24	49752.77
578.40	49982.14
578.56	49670.85
578.72	49806.60
578.88	50770.90
579.04	50597.70
579.21	50255.98
579.37	50141.30
579.53	50019.59
579.69	49954.05
579.85	50106.19
580.01	50183.43
580.17	49998.52
580.33	50082.78
580.49	49947.03
580.65	50557.91
580.82	50150.66
580.98	50057.04
581.14	50028.95
581.30	50237.26
581.46	50122.57
581.62	50384.71
581.78	49940.01
581.94	50136.62
582.10	50071.08
582.26	49986.82
582.42	50220.87
582.58	50199.81
582.74	49986.82
582.90	50272.37
583.06	50511.10
583.22	50309.82
583.38	50192.79
583.54	49876.82
583.70	50138.96
583.86	50298.11
584.02	49935.33
584.18	50124.91
584.34	50410.46
584.50	50494.72
584.66	50576.64
584.82	50045.33
584.98	50237.26
585.14	50365.99
585.30	50239.60
585.46	50614.08
585.62	49703.62
585.78	50335.56
585.94	50513.44
586.10	50391.73
586.26	50295.77
586.42	50223.22
586.58	50368.33
586.74	50525.14
586.90	49984.48
587.06	50541.53
587.22	50586.00
587.38	50604.72
587.54	50314.50
587.70	50609.40
587.86	50754.52
588.02	50368.33
588.18	50770.90
588.34	50595.36
588.49	50532.17
588.65	50199.81
588.81	50337.90
588.97	50504.08
589.13	50274.71
589.29	50347.26
589.45	50539.19
589.61	50288.75
589.77	50646.85
589.93	50894.95
590.08	50951.12
590.24	50850.48
590.40	50824.73
590.56	50789.62
590.72	50756.86
590.88	50230.24
591.04	50326.20
591.20	50838.78
591.35	51114.96
591.51	51297.52
591.67	51119.64
591.83	51068.15
591.99	50660.90
592.15	50679.62
592.31	50483.01
592.46	50916.01
592.62	50548.55
592.78	50965.17
592.94	50887.93
593.10	50581.32
593.26	50770.90
593.41	50908.99
593.57	50483.01
593.73	50670.26
593.89	51030.70
594.05	51107.94
594.20	50618.77
594.36	50749.84
594.52	50740.47
594.68	50738.13
594.84	50410.46
594.99	50747.50
595.15	51011.98
595.31	51358.38
595.47	51030.70
595.62	50827.07
595.78	50745.15
595.94	51033.04
596.10	50852.82
596.25	50555.57
596.41	50593.02
596.57	50740.47
596.73	50651.53
596.88	50536.85
597.04	50925.38
597.20	51147.73
597.36	51030.70
597.51	51131.34
597.67	50908.99
597.83	50525.14
597.99	50908.99
598.14	51054.11
598.30	50763.88
598.46	50761.54
598.61	51332.63
598.77	50693.66
598.93	51126.66
599.09	51030.70
599.24	51302.20
599.40	51292.84
599.56	51117.30
599.71	51208.58
599.87	51206.24
600.03	51070.49
600.18	50817.71
600.34	50852.82
600.50	50932.40
600.65	51189.86
600.81	51208.58
600.97	51257.73
601.12	51447.32
601.28	51131.34
601.44	50869.20
601.59	51175.81
601.75	50621.11
601.91	50899.63
602.06	50815.37
602.22	50976.87
602.37	50906.65
602.53	50944.10
602.69	51246.03
602.84	51192.20
603.00	50822.39
603.16	51093.89
603.31	51011.98
603.47	50777.92
603.62	50663.24
603.78	50890.27
603.94	50883.25
604.09	50815.37
604.25	51028.36
604.40	50616.43
604.56	50630.47
604.71	51395.82
604.87	50834.10
605.03	51264.75
605.18	50733.45
605.34	50614.08
605.49	50546.21
605.65	50890.27
605.80	50688.98
605.96	50710.05
606.12	50665.58
606.27	50899.63
606.43	50543.87
606.58	51033.04
606.74	50894.95
606.89	50838.78
607.05	50890.27
607.20	50988.57
607.36	50323.86
607.51	50887.93
607.67	50988.57
607.82	50665.58
607.98	50628.13
608.13	50342.58
608.29	50644.51
608.44	50525.14
608.60	50930.06
608.75	50831.75
608.91	50672.60
609.06	50415.14
609.22	50597.70
609.37	50593.02
609.53	51047.08
609.68	50300.45
609.84	50445.57
609.99	50820.05
610.15	50794.31
610.30	50920.70
610.46	50904.31
610.61	51196.88
610.76	51227.31
610.92	51255.39
611.07	51253.05
611.23	51210.92
611.38	51047.08
611.54	50820.05
611.69	50838.78
611.84	50876.22
612.00	50555.57
612.15	50787.28
612.31	50803.67
612.46	50464.29
612.62	51072.83
612.77	50443.23
612.92	51119.64
613.08	50546.21
613.23	50721.75
613.39	50838.78
613.54	50712.39
613.69	50571.96
613.85	50237.26
614.00	50555.57
614.15	50368.33
614.31	50494.72
614.46	50258.32
614.62	50321.52
614.77	50667.92
614.92	50546.21
615.08	50756.86
615.23	50429.18
615.38	50672.60
615.54	50047.68
615.69	50197.47
615.84	49902.56
616.00	50141.30
616.15	50457.27
616.30	50508.76
616.46	49958.73
616.61	50082.78
616.76	50454.93
616.92	49865.11
617.07	49865.11
617.22	49865.11
617.37	49703.62
617.53	49865.11
617.68	49811.28
617.83	49928.31
617.99	49811.28
618.14	49694.25
618.29	49986.82
618.45	49932.99
618.60	50059.38
618.75	50169.38
618.90	49846.39
619.06	49722.34
619.21	49822.98
619.36	49918.95
619.51	49443.82
619.67	49649.78
619.82	49638.08
619.97	49776.17
620.12	49483.61
620.28	49612.34
620.43	49954.05
620.58	49645.10
620.73	49432.11
620.89	49680.21
621.04	49766.81
621.19	49284.66
621.34	49270.62
621.49	49338.49
621.65	49251.89
621.80	49076.35
621.95	48802.51
622.10	49525.74
622.25	48966.35
622.41	49074.01
622.56	49216.78
622.71	49797.24
622.86	49179.34
623.01	49050.61
623.16	49380.62
623.32	49130.19
623.47	49233.17
623.62	49055.29
623.77	48832.94
623.92	48741.66
624.07	48940.60
624.23	49230.83
624.38	49027.20
624.53	48509.94
624.68	49413.39
624.83	49336.15
624.98	49003.80
625.13	49027.20
625.29	49017.84
625.44	49249.55
625.59	48919.54
625.74	48781.45
625.89	48655.06
626.04	48779.10
626.19	48956.99
626.34	48413.98
626.49	48807.19
626.65	48645.69
626.80	48772.08
626.95	48633.99
627.10	48198.65
627.25	48744.00
627.40	48715.91
627.55	48322.70
627.70	48587.18
627.85	48582.50
628.00	48329.72
628.15	48795.49
628.30	48046.52
628.45	48425.68
628.60	48596.54
628.76	48509.94
628.91	48444.41
629.06	48093.33
629.21	48208.01
629.36	48055.88
629.51	47988.00
629.66	47983.32
629.81	48030.13
629.96	47512.88
630.11	47606.50
630.26	47760.97
630.41	48137.80
630.56	48172.91
630.71	48346.11
630.86	48158.86
631.01	48783.79
631.16	48402.28
631.31	48121.41
631.46	47992.68
631.61	48385.89
631.76	47978.64
631.91	47807.78
632.06	47529.26
632.21	47538.62
632.36	47515.22
632.51	47009.66
632.66	47662.67
632.81	47632.24
632.96	47718.84
633.10	47693.10
633.25	47831.19
633.40	47597.13
633.55	48200.99
633.70	47510.53
633.85	47334.99
634.00	47276.48
634.15	47480.11
634.30	47058.81
634.45	47334.99
634.60	47283.50
634.75	47639.26
634.90	47683.73
635.05	47445.00
635.19	47171.16
635.34	47442.66
635.49	47592.45
635.64	47428.62
635.79	46653.90
635.94	46864.55
636.09	46948.81
636.24	46902.00
636.39	46478.36
636.53	47084.56
636.68	46768.58
636.83	47112.64
636.98	47201.58
637.13	46649.22
637.28	47611.18
637.43	47077.54
637.57	46927.74
637.72	47019.02
637.87	46658.58
638.02	46749.86
638.17	46501.76
638.32	46756.88
638.46	46799.01
638.61	46628.15
638.76	46209.20
638.91	46354.31
639.06	46153.02
639.20	46532.19
639.35	46363.67
639.50	46925.40
639.65	46752.20
639.80	46728.80
639.94	46564.96
640.09	46843.48
640.24	46054.72
640.39	46721.77
640.54	46579.00
640.68	46344.95
640.83	46323.88
640.98	46146.00
641.13	46227.92
641.27	46368.35
641.42	46183.45
641.57	46920.72
641.72	46862.21
641.86	46031.32
642.01	46073.45
642.16	46017.27
642.31	45764.49
642.45	46220.90
642.60	45483.63
642.75	45345.54
642.90	45818.33
643.04	45717.68
643.19	45853.44
643.34	46124.94
643.48	45773.86
643.63	46146.00
643.78	45717.68
643.93	46075.79
644.07	45839.39
644.22	46429.21
644.37	45738.75
644.51	45572.57
644.66	45904.93
644.81	45350.22
644.95	45752.79
645.10	45455.54
645.25	45853.44
645.39	45689.60
645.54	45600.66
645.69	45698.96
645.83	45331.50
645.98	45773.86
646.13	45729.39
646.27	46005.57
646.42	45563.21
646.57	45752.79
646.71	45869.82
646.86	45378.31
647.00	45680.24
647.15	45677.90
647.30	45172.34
647.44	45010.84
647.59	45345.54
647.74	45195.74
647.88	45177.02
648.03	45207.45
648.17	45911.95
648.32	45567.89
648.47	45900.25
648.61	44875.09
648.76	45516.40
648.90	45542.14
649.05	45130.21
649.20	44835.30
649.34	44802.53
649.49	44884.45
649.63	44587.21
649.78	44765.09
649.92	44690.19
650.07	45067.02
650.21	45155.96
650.36	45031.91
650.51	45397.03
650.65	45099.78
650.80	44931.26
650.94	45071.70
651.09	45294.05
651.23	44865.73
651.38	44781.47
651.52	44809.56
651.67	44737.00
651.81	44477.20
651.96	44194.00
652.10	44732.32
652.25	44458.48
652.39	44753.38
652.54	44882.11
652.68	44481.88
652.83	44701.89
652.97	44488.90
653.12	44390.60
653.26	44818.92
653.41	44683.17
653.55	44390.60
653.70	44271.23
653.84	44149.53
653.99	43922.49
654.13	44430.39
654.27	44282.94
654.42	43988.03
654.56	44655.08
654.71	44453.79
654.85	44140.16
655.00	44308.68
655.14	44217.40
655.29	43943.56
655.43	44135.48
655.57	43973.98
655.72	44067.61
655.86	43962.28
656.01	43952.92
656.15	43660.35
656.30	43524.60
656.44	43981.01
656.58	43880.36
656.73	43819.51
656.87	43735.25
657.01	43959.94
657.16	43690.78
657.30	44060.58
657.45	43941.22
657.59	43868.66
657.73	43107.99
657.88	43150.12
658.02	43100.97
658.16	43040.11
658.31	43213.31
658.45	42988.62
658.60	43328.00
658.74	43573.75
658.88	43035.43
659.03	43320.98
659.17	42972.24
659.31	42976.92
659.46	42880.95
659.60	43119.69
659.74	42848.19
659.89	43262.46
660.03	42962.87
660.17	42768.61
660.32	42504.13
660.46	42518.17
660.60	42639.88
660.74	42394.12
660.89	42258.37
661.03	42047.72
661.17	42099.22
661.32	42227.95
661.46	41926.02
661.60	42518.17
661.74	42246.67
661.89	42059.43
662.03	42265.39
662.17	42080.49
662.31	41886.23
662.46	42588.39
662.60	42272.42
662.74	42136.66
662.88	41631.11
663.03	41661.54
663.17	41258.96
663.31	41673.24
663.45	41680.26
663.60	41635.79
663.74	41455.57
663.88	41493.02
664.02	41649.83
664.17	41865.16
664.31	41518.76
664.45	41368.97
664.59	41411.10
664.73	41057.68
664.88	41258.96
665.02	40774.47
665.16	40898.52
665.30	40467.86
665.44	40683.19
665.59	40573.19
665.73	41045.97
665.87	40280.62
666.01	40727.66
666.15	40289.98
666.29	40919.59
666.44	40854.05
666.58	40837.67
666.72	40261.90
666.86	39945.92
667.00	40280.62
667.14	40301.68
667.28	40158.91
667.43	40119.12
667.57	39866.34
667.71	40088.70
667.85	39721.23
667.99	39604.20
668.13	39974.01
668.27	39768.04
668.41	40053.59
668.56	39789.11
668.70	40027.84
668.84	39854.64
668.98	39512.92
669.12	39805.49
669.26	39875.71
669.40	39423.98
669.54	39063.54
669.68	39749.32
669.82	39164.18
669.96	38822.47
670.10	38684.37
670.25	38951.20
670.39	39136.10
670.53	39058.86
670.67	38726.50
670.81	39262.49
670.95	39110.35
671.09	39243.76
671.23	39131.42
671.37	38658.63
671.51	39150.14
671.65	38902.04
671.79	38534.58
671.93	38438.62
672.07	38445.64
672.21	38291.16
672.35	37825.40
672.49	37825.40
672.63	38405.85
672.77	37666.24
672.91	38321.59
673.05	38206.90
673.19	38014.98
673.33	37984.55
673.47	38263.08
673.61	37837.10
673.75	37780.93
673.89	37731.78
674.03	37504.74
674.17	37235.58
674.31	37376.01
674.45	37570.28
674.59	36985.15
674.73	37443.89
674.87	37062.38
675.01	36774.50
675.15	36577.89
675.29	36643.43
675.43	36825.99
675.56	36814.29
675.70	37148.98
675.84	36804.92
675.98	35718.92
676.12	36957.06
676.26	36659.81
676.40	36275.96
676.54	36313.41
676.68	36065.31
676.82	35435.71
676.96	35962.33
677.10	36037.23
677.23	35723.60
677.37	35505.93
677.51	35761.05
677.65	35267.19
677.79	34916.11
677.93	35578.48
678.07	35473.16
678.21	34574.39
678.34	35218.04
678.48	34574.39
678.62	35075.27
678.76	34738.23
678.90	34462.05
679.04	34635.25
679.18	34464.39
679.31	33839.47
679.45	34368.43
679.59	33921.38
679.73	33563.28
679.87	33912.02
680.00	34136.71
680.14	33919.04
680.28	33317.53
680.42	33312.84
680.56	33219.22
680.70	33071.77
680.83	33383.06
680.97	33521.15
681.11	33582.01
681.25	33303.48
681.39	33160.71
681.52	32861.12
681.66	32577.92
681.80	32547.49
681.94	32503.02
682.07	32491.32
682.21	32378.97
682.35	32222.16
682.49	32233.86
682.62	31985.76
682.76	31945.97
682.90	32458.55
683.04	32025.55
683.17	31702.56
683.31	31522.34
683.45	31777.45
683.59	31409.99
683.72	31751.71
683.86	31480.21
684.00	31531.70
684.13	31058.91
684.27	31372.54
684.41	31035.50
684.55	30731.23
684.68	30635.27
684.82	30675.06
684.96	30469.09
685.09	30260.79
685.23	30590.80
685.37	30106.31
685.50	30141.42
685.64	30265.47
685.78	30155.46
685.91	30305.26
686.05	30242.06
686.19	29282.44
686.32	29788.00
686.46	29521.18
686.60	29027.32
686.73	29570.33
686.87	29509.47
687.01	29247.33
687.14	28982.85
687.28	29102.22
687.42	28903.28
687.55	28701.99
687.69	28428.15
687.82	28428.15
687.96	28732.42
688.10	28463.25
688.23	28393.04
688.37	28498.36
688.50	28280.69
688.64	28456.23
688.78	28374.31
688.91	28257.29
689.05	28273.67
689.18	28432.83
689.32	27365.54
689.46	27564.49
689.59	27346.82
689.73	27342.14
689.86	26838.92
690.00	26974.67
690.13	27276.60
690.27	27007.44
690.41	27175.96
690.54	26485.50
690.68	27222.77
690.81	26218.68
690.95	26529.97
691.08	26703.17
691.22	26284.22
691.35	26415.29
691.49	26202.30
691.62	26017.40
691.76	25865.26
691.89	25905.05
692.03	25649.93
692.16	25450.99
692.30	25715.47
692.43	25685.04
692.57	25575.03
692.70	25530.56
692.84	25495.46
692.97	25177.14
693.11	25443.96
693.24	25193.53
693.38	25104.59
693.51	24945.43
693.65	24924.36
693.78	24739.46
693.92	24573.28
694.05	24570.94
694.19	24030.28
694.32	24395.40
694.45	24168.37
694.59	24121.56
694.72	24245.61
694.86	23964.75
694.99	23742.39
695.13	23779.84
695.26	23360.89
695.39	23475.57
695.53	23812.61
695.66	23461.53
695.80	23293.01
695.93	23117.47
696.07	23398.34
696.20	23126.83
696.33	23136.20
696.47	22881.08
696.60	23014.49
696.73	22611.92
696.87	22721.92
697.00	22642.34
697.14	22712.56
697.27	22251.47
697.40	22104.02
697.54	22190.62
697.67	22015.08
697.80	21675.70
697.94	21846.56
698.07	21759.96
698.21	21582.08
698.34	21685.06
698.47	21362.07
698.61	21310.58
698.74	21184.19
698.87	21701.45
699.01	21104.61
699.14	21294.19
699.27	20959.50
699.40	21193.55
699.54	21071.84
699.67	20685.65
699.80	20594.37
699.94	20580.33
700.07	20592.03
700.20	20568.63
700.34	20135.63
700.47	19932.00
700.60	19936.68
700.73	20074.77
700.87	20020.94
701.00	19723.69
701.13	19414.74
701.26	19857.10
701.40	19711.99
701.53	19573.90
701.66	19630.07
701.79	19552.84
701.93	19454.53
702.06	19428.79
702.19	19145.58
702.32	19314.10
702.46	19194.73
702.59	18733.65
702.72	18841.31
702.85	18651.73
702.99	18993.45
703.12	18984.09
703.25	18801.52
703.38	18768.76
703.51	18569.81
703.65	18246.82
703.78	18279.58
703.91	18153.20
704.04	18291.29
704.17	18054.89
704.31	17731.90
704.44	17818.50
704.57	17792.75
704.70	17788.07
704.83	17778.71
704.96	17565.72
705.10	17535.29
705.23	17324.65
>>>>>End Processed Spectral Data<<<<<
