SpectraSuite Data File
++++++++++++++++++++++++++++++++++++
Date: Fri Oct 04 11:33:52 GMT-05:00 2013
User: price-jones
Dark Spectrum Present: No
Reference Spectrum Present: No
Number of Sampled Component Spectra: 1
Spectrometers: USB2+H05261
Integration Time (usec): 100000 (USB2+H05261)
Spectra Averaged: 1 (USB2+H05261)
Boxcar Smoothing: 0 (USB2+H05261)
Correct for Electrical Dark: No (USB2+H05261)
Strobe/Lamp Enabled: No (USB2+H05261)
Correct for Detector Non-linearity: No (USB2+H05261)
Correct for Stray Light: No (USB2+H05261)
Number of Pixels in Processed Spectrum: 2048
>>>>>Begin Processed Spectral Data<<<<<
365.73	98.30
365.92	98.30
366.12	98.30
366.32	0.00
366.52	0.00
366.72	0.00
366.91	14.04
367.11	32.77
367.31	0.00
367.51	0.00
367.70	14.04
367.90	21.06
368.10	2.34
368.30	0.00
368.49	0.00
368.69	42.13
368.89	0.00
369.09	0.00
369.28	11.70
369.48	0.00
369.68	30.43
369.87	98.30
370.07	77.24
370.27	37.45
370.47	53.83
370.66	105.32
370.86	126.39
371.06	105.32
371.25	81.92
371.45	93.62
371.65	114.69
371.84	79.58
372.04	84.26
372.24	145.11
372.44	88.94
372.63	159.16
372.83	166.18
373.03	112.35
373.22	147.45
373.42	149.79
373.62	131.07
373.81	154.48
374.01	170.86
374.21	184.90
374.40	154.48
374.60	163.84
374.79	175.54
374.99	133.41
375.19	173.20
375.38	140.43
375.58	210.65
375.78	154.48
375.97	161.50
376.17	184.90
376.37	210.65
376.56	201.29
376.76	110.01
376.95	145.11
377.15	138.09
377.35	114.69
377.54	203.63
377.74	128.73
377.93	117.03
378.13	152.13
378.33	205.97
378.52	198.95
378.72	154.48
378.91	182.56
379.11	140.43
379.31	184.90
379.50	177.88
379.70	166.18
379.89	145.11
380.09	229.37
380.28	145.11
380.48	147.45
380.68	112.35
380.87	18.72
381.07	119.37
381.26	166.18
381.46	184.90
381.65	175.54
381.85	119.37
382.04	112.35
382.24	135.75
382.43	105.32
382.63	121.71
382.83	114.69
383.02	119.37
383.22	175.54
383.41	156.82
383.61	147.45
383.80	154.48
384.00	152.13
384.19	217.67
384.39	138.09
384.58	102.98
384.78	159.16
384.97	105.32
385.17	173.20
385.36	135.75
385.56	149.79
385.75	110.01
385.95	128.73
386.14	238.73
386.34	180.22
386.53	217.67
386.72	149.79
386.92	149.79
387.11	180.22
387.31	112.35
387.50	102.98
387.70	72.56
387.89	149.79
388.09	133.41
388.28	147.45
388.48	88.94
388.67	154.48
388.86	255.12
389.06	138.09
389.25	159.16
389.45	142.77
389.64	117.03
389.84	133.41
390.03	163.84
390.22	191.92
390.42	142.77
390.61	168.52
390.81	163.84
391.00	98.30
391.19	224.69
391.39	74.90
391.58	159.16
391.78	145.11
391.97	126.39
392.16	196.60
392.36	121.71
392.55	100.64
392.75	154.48
392.94	210.65
393.13	168.52
393.33	170.86
393.52	119.37
393.71	149.79
393.91	131.07
394.10	126.39
394.29	147.45
394.49	124.05
394.68	201.29
394.88	217.67
395.07	105.32
395.26	170.86
395.46	149.79
395.65	163.84
395.84	152.13
396.04	276.18
396.23	105.32
396.42	117.03
396.62	147.45
396.81	208.31
397.00	142.77
397.19	105.32
397.39	152.13
397.58	182.56
397.77	135.75
397.97	170.86
398.16	191.92
398.35	180.22
398.55	126.39
398.74	196.60
398.93	149.79
399.12	152.13
399.32	180.22
399.51	159.16
399.70	142.77
399.90	205.97
400.09	112.35
400.28	105.32
400.47	98.30
400.67	131.07
400.86	142.77
401.05	170.86
401.24	201.29
401.44	217.67
401.63	208.31
401.82	175.54
402.01	212.99
402.21	100.64
402.40	147.45
402.59	138.09
402.78	187.24
402.97	98.30
403.17	156.82
403.36	135.75
403.55	184.90
403.74	114.69
403.93	196.60
404.13	227.03
404.32	189.58
404.51	227.03
404.70	156.82
404.89	88.94
405.09	135.75
405.28	117.03
405.47	56.17
405.66	100.64
405.85	126.39
406.05	119.37
406.24	170.86
406.43	159.16
406.62	224.69
406.81	133.41
407.00	175.54
407.20	201.29
407.39	166.18
407.58	175.54
407.77	187.24
407.96	126.39
408.15	163.84
408.34	105.32
408.54	166.18
408.73	189.58
408.92	227.03
409.11	203.63
409.30	217.67
409.49	152.13
409.68	163.84
409.87	135.75
410.07	149.79
410.26	203.63
410.45	184.90
410.64	236.39
410.83	168.52
411.02	147.45
411.21	198.95
411.40	175.54
411.59	117.03
411.78	173.20
411.98	154.48
412.17	147.45
412.36	119.37
412.55	173.20
412.74	187.24
412.93	234.05
413.12	138.09
413.31	198.95
413.50	229.37
413.69	124.05
413.88	177.88
414.07	194.26
414.26	163.84
414.45	173.20
414.64	133.41
414.83	163.84
415.02	147.45
415.22	140.43
415.41	177.88
415.60	121.71
415.79	205.97
415.98	159.16
416.17	135.75
416.36	170.86
416.55	177.88
416.74	173.20
416.93	210.65
417.12	138.09
417.31	133.41
417.50	166.18
417.69	234.05
417.88	198.95
418.07	278.52
418.26	168.52
418.45	156.82
418.64	229.37
418.83	175.54
419.02	227.03
419.21	191.92
419.39	110.01
419.58	128.73
419.77	161.50
419.96	180.22
420.15	271.50
420.34	131.07
420.53	152.13
420.72	163.84
420.91	175.54
421.10	149.79
421.29	170.86
421.48	131.07
421.67	156.82
421.86	152.13
422.05	131.07
422.24	133.41
422.43	175.54
422.61	107.66
422.80	180.22
422.99	191.92
423.18	117.03
423.37	191.92
423.56	70.22
423.75	154.48
423.94	238.73
424.13	205.97
424.32	149.79
424.50	88.94
424.69	74.90
424.88	170.86
425.07	152.13
425.26	175.54
425.45	215.33
425.64	234.05
425.83	227.03
426.01	212.99
426.20	191.92
426.39	180.22
426.58	112.35
426.77	182.56
426.96	177.88
427.15	156.82
427.33	184.90
427.52	205.97
427.71	128.73
427.90	222.35
428.09	128.73
428.28	100.64
428.46	311.29
428.65	177.88
428.84	217.67
429.03	194.26
429.22	140.43
429.40	173.20
429.59	154.48
429.78	262.14
429.97	77.24
430.16	182.56
430.34	161.50
430.53	102.98
430.72	170.86
430.91	161.50
431.10	187.24
431.28	152.13
431.47	187.24
431.66	184.90
431.85	184.90
432.03	173.20
432.22	224.69
432.41	159.16
432.60	154.48
432.79	224.69
432.97	184.90
433.16	222.35
433.35	138.09
433.54	194.26
433.72	191.92
433.91	163.84
434.10	201.29
434.28	149.79
434.47	201.29
434.66	184.90
434.85	241.08
435.03	224.69
435.22	388.53
435.41	491.51
435.59	428.32
435.78	334.70
435.97	245.76
436.16	215.33
436.34	154.48
436.53	156.82
436.72	231.71
436.90	222.35
437.09	147.45
437.28	201.29
437.46	210.65
437.65	163.84
437.84	128.73
438.02	194.26
438.21	217.67
438.40	208.31
438.58	110.01
438.77	196.60
438.96	198.95
439.14	161.50
439.33	194.26
439.52	166.18
439.70	152.13
439.89	159.16
440.08	135.75
440.26	161.50
440.45	234.05
440.63	187.24
440.82	217.67
441.01	163.84
441.19	163.84
441.38	191.92
441.57	196.60
441.75	161.50
441.94	191.92
442.12	156.82
442.31	220.01
442.50	145.11
442.68	283.20
442.87	177.88
443.05	184.90
443.24	154.48
443.43	212.99
443.61	205.97
443.80	154.48
443.98	187.24
444.17	248.10
444.35	198.95
444.54	145.11
444.73	161.50
444.91	161.50
445.10	133.41
445.28	138.09
445.47	205.97
445.65	140.43
445.84	177.88
446.02	180.22
446.21	184.90
446.39	110.01
446.58	124.05
446.77	152.13
446.95	149.79
447.14	227.03
447.32	285.55
447.51	147.45
447.69	196.60
447.88	227.03
448.06	262.14
448.25	182.56
448.43	166.18
448.62	180.22
448.80	224.69
448.99	187.24
449.17	203.63
449.36	168.52
449.54	168.52
449.73	168.52
449.91	194.26
450.10	177.88
450.28	210.65
450.46	220.01
450.65	191.92
450.83	163.84
451.02	220.01
451.20	217.67
451.39	154.48
451.57	184.90
451.76	198.95
451.94	255.12
452.13	238.73
452.31	182.56
452.49	189.58
452.68	168.52
452.86	220.01
453.05	217.67
453.23	217.67
453.42	140.43
453.60	215.33
453.78	198.95
453.97	180.22
454.15	138.09
454.34	145.11
454.52	173.20
454.70	168.52
454.89	177.88
455.07	222.35
455.26	196.60
455.44	215.33
455.62	191.92
455.81	229.37
455.99	177.88
456.17	194.26
456.36	161.50
456.54	182.56
456.73	215.33
456.91	107.66
457.09	152.13
457.28	217.67
457.46	205.97
457.64	220.01
457.83	173.20
458.01	257.46
458.19	168.52
458.38	222.35
458.56	203.63
458.74	166.18
458.93	308.95
459.11	212.99
459.29	220.01
459.48	217.67
459.66	201.29
459.84	217.67
460.03	273.84
460.21	180.22
460.39	196.60
460.57	229.37
460.76	215.33
460.94	124.05
461.12	257.46
461.31	245.76
461.49	180.22
461.67	280.86
461.85	285.55
462.04	220.01
462.22	608.54
462.40	210.65
462.59	189.58
462.77	208.31
462.95	147.45
463.13	198.95
463.32	248.10
463.50	145.11
463.68	168.52
463.86	210.65
464.05	212.99
464.23	283.20
464.41	201.29
464.59	126.39
464.78	95.96
464.96	215.33
465.14	250.44
465.32	163.84
465.50	145.11
465.69	203.63
465.87	133.41
466.05	187.24
466.23	110.01
466.41	203.63
466.60	191.92
466.78	231.71
466.96	163.84
467.14	152.13
467.32	173.20
467.51	245.76
467.69	180.22
467.87	236.39
468.05	154.48
468.23	231.71
468.41	201.29
468.60	220.01
468.78	187.24
468.96	205.97
469.14	67.88
469.32	147.45
469.50	220.01
469.69	227.03
469.87	222.35
470.05	194.26
470.23	189.58
470.41	107.66
470.59	170.86
470.77	210.65
470.95	236.39
471.14	222.35
471.32	210.65
471.50	222.35
471.68	161.50
471.86	205.97
472.04	156.82
472.22	222.35
472.40	114.69
472.58	245.76
472.77	180.22
472.95	243.42
473.13	259.80
473.31	161.50
473.49	175.54
473.67	194.26
473.85	266.82
474.03	238.73
474.21	180.22
474.39	308.95
474.57	180.22
474.75	231.71
474.93	215.33
475.12	227.03
475.30	236.39
475.48	180.22
475.66	191.92
475.84	187.24
476.02	238.73
476.20	217.67
476.38	177.88
476.56	259.80
476.74	262.14
476.92	222.35
477.10	79.58
477.28	152.13
477.46	166.18
477.64	175.54
477.82	189.58
478.00	215.33
478.18	205.97
478.36	177.88
478.54	196.60
478.72	217.67
478.90	194.26
479.08	224.69
479.26	177.88
479.44	128.73
479.62	250.44
479.80	154.48
479.98	231.71
480.16	198.95
480.34	243.42
480.52	212.99
480.70	203.63
480.88	215.33
481.06	224.69
481.24	259.80
481.41	229.37
481.59	166.18
481.77	241.08
481.95	217.67
482.13	285.55
482.31	210.65
482.49	269.16
482.67	266.82
482.85	278.52
483.03	287.89
483.21	290.23
483.39	180.22
483.57	191.92
483.74	292.57
483.92	236.39
484.10	290.23
484.28	290.23
484.46	297.25
484.64	248.10
484.82	264.48
485.00	205.97
485.18	187.24
485.35	184.90
485.53	250.44
485.71	252.78
485.89	215.33
486.07	257.46
486.25	241.08
486.43	245.76
486.61	238.73
486.78	262.14
486.96	234.05
487.14	212.99
487.32	236.39
487.50	220.01
487.68	306.61
487.85	156.82
488.03	271.50
488.21	220.01
488.39	280.86
488.57	257.46
488.75	262.14
488.92	503.22
489.10	252.78
489.28	304.27
489.46	180.22
489.64	215.33
489.81	250.44
489.99	271.50
490.17	276.18
490.35	264.48
490.53	184.90
490.70	299.59
490.88	245.76
491.06	236.39
491.24	255.12
491.41	292.57
491.59	245.76
491.77	262.14
491.95	222.35
492.13	224.69
492.30	285.55
492.48	224.69
492.66	229.37
492.84	259.80
493.01	283.20
493.19	238.73
493.37	201.29
493.54	255.12
493.72	215.33
493.90	292.57
494.08	280.86
494.25	269.16
494.43	294.91
494.61	191.92
494.79	245.76
494.96	308.95
495.14	255.12
495.32	315.97
495.49	257.46
495.67	229.37
495.85	234.05
496.02	248.10
496.20	276.18
496.38	322.99
496.55	170.86
496.73	234.05
496.91	184.90
497.09	257.46
497.26	299.59
497.44	220.01
497.62	168.52
497.79	351.08
497.97	255.12
498.14	234.05
498.32	273.84
498.50	297.25
498.67	220.01
498.85	294.91
499.03	110.01
499.20	278.52
499.38	231.71
499.56	257.46
499.73	255.12
499.91	217.67
500.08	238.73
500.26	222.35
500.44	266.82
500.61	236.39
500.79	231.71
500.97	264.48
501.14	255.12
501.32	266.82
501.49	264.48
501.67	241.08
501.84	245.76
502.02	184.90
502.20	299.59
502.37	374.49
502.55	285.55
502.72	252.78
502.90	241.08
503.07	290.23
503.25	236.39
503.43	252.78
503.60	262.14
503.78	236.39
503.95	266.82
504.13	278.52
504.30	227.03
504.48	198.95
504.65	248.10
504.83	241.08
505.01	227.03
505.18	248.10
505.36	269.16
505.53	205.97
505.71	287.89
505.88	285.55
506.06	208.31
506.23	182.56
506.41	201.29
506.58	290.23
506.76	166.18
506.93	194.26
507.11	266.82
507.28	236.39
507.46	196.60
507.63	236.39
507.81	182.56
507.98	241.08
508.16	234.05
508.33	318.31
508.50	252.78
508.68	173.20
508.85	227.03
509.03	198.95
509.20	285.55
509.38	294.91
509.55	276.18
509.73	227.03
509.90	308.95
510.08	220.01
510.25	198.95
510.42	255.12
510.60	238.73
510.77	175.54
510.95	346.40
511.12	285.55
511.30	283.20
511.47	290.23
511.64	325.33
511.82	318.31
511.99	234.05
512.17	266.82
512.34	229.37
512.51	280.86
512.69	208.31
512.86	273.84
513.04	248.10
513.21	243.42
513.38	280.86
513.56	315.97
513.73	205.97
513.90	255.12
514.08	182.56
514.25	290.23
514.43	236.39
514.60	224.69
514.77	212.99
514.95	311.29
515.12	210.65
515.29	280.86
515.47	252.78
515.64	234.05
515.81	299.59
515.99	285.55
516.16	241.08
516.33	257.46
516.51	308.95
516.68	236.39
516.85	283.20
517.03	222.35
517.20	231.71
517.37	287.89
517.54	306.61
517.72	196.60
517.89	177.88
518.06	208.31
518.24	299.59
518.41	311.29
518.58	266.82
518.75	227.03
518.93	229.37
519.10	308.95
519.27	257.46
519.45	262.14
519.62	227.03
519.79	255.12
519.96	337.04
520.14	292.57
520.31	271.50
520.48	245.76
520.65	266.82
520.83	280.86
521.00	205.97
521.17	250.44
521.34	266.82
521.52	313.63
521.69	330.02
521.86	222.35
522.03	346.40
522.20	266.82
522.38	266.82
522.55	292.57
522.72	236.39
522.89	308.95
523.07	299.59
523.24	285.55
523.41	273.84
523.58	212.99
523.75	299.59
523.92	222.35
524.10	266.82
524.27	283.20
524.44	315.97
524.61	252.78
524.78	215.33
524.96	297.25
525.13	252.78
525.30	290.23
525.47	320.65
525.64	283.20
525.81	308.95
525.98	318.31
526.16	163.84
526.33	264.48
526.50	238.73
526.67	248.10
526.84	198.95
527.01	252.78
527.18	238.73
527.36	304.27
527.53	259.80
527.70	353.42
527.87	285.55
528.04	257.46
528.21	210.65
528.38	311.29
528.55	248.10
528.72	252.78
528.89	372.15
529.07	294.91
529.24	285.55
529.41	278.52
529.58	269.16
529.75	266.82
529.92	285.55
530.09	257.46
530.26	294.91
530.43	255.12
530.60	210.65
530.77	276.18
530.94	231.71
531.11	262.14
531.28	238.73
531.46	280.86
531.63	264.48
531.80	269.16
531.97	334.70
532.14	339.38
532.31	318.31
532.48	322.99
532.65	362.78
532.82	283.20
532.99	322.99
533.16	273.84
533.33	262.14
533.50	334.70
533.67	271.50
533.84	397.89
534.01	344.06
534.18	315.97
534.35	280.86
534.52	280.86
534.69	299.59
534.86	280.86
535.03	287.89
535.20	299.59
535.37	318.31
535.54	259.80
535.71	301.93
535.88	355.76
536.05	341.72
536.22	306.61
536.38	269.16
536.55	285.55
536.72	409.59
536.89	315.97
537.06	266.82
537.23	318.31
537.40	292.57
537.57	320.65
537.74	341.72
537.91	402.57
538.08	283.20
538.25	278.52
538.42	271.50
538.59	227.03
538.75	248.10
538.92	322.99
539.09	318.31
539.26	320.65
539.43	400.23
539.60	807.48
539.77	968.98
539.94	950.26
540.11	692.80
540.28	554.71
540.44	479.81
540.61	414.27
540.78	430.66
540.95	479.81
541.12	582.79
541.29	552.37
541.46	627.26
541.62	486.83
541.79	470.45
541.96	489.17
542.13	493.85
542.30	514.92
542.47	475.13
542.63	500.87
542.80	512.58
542.97	482.15
543.14	430.66
543.31	486.83
543.48	468.11
543.64	528.96
543.81	514.92
543.98	465.77
544.15	472.79
544.32	475.13
544.48	477.47
544.65	507.90
544.82	458.74
544.99	447.04
545.16	428.32
545.32	482.15
545.49	720.88
545.66	903.45
545.83	997.07
546.00	809.83
546.16	634.29
546.33	650.67
546.50	486.83
546.67	470.45
546.83	442.36
547.00	409.59
547.17	433.00
547.34	407.25
547.50	416.62
547.67	332.36
547.84	383.85
548.00	348.74
548.17	388.53
548.34	358.10
548.51	355.76
548.67	404.91
548.84	379.17
549.01	325.33
549.18	414.27
549.34	418.96
549.51	337.04
549.68	358.10
549.84	362.78
550.01	313.63
550.18	442.36
550.34	376.83
550.51	348.74
550.68	339.38
550.84	299.59
551.01	297.25
551.18	393.21
551.34	337.04
551.51	287.89
551.68	360.44
551.84	376.83
552.01	308.95
552.18	332.36
552.34	325.33
552.51	299.59
552.68	245.76
552.84	301.93
553.01	365.12
553.18	318.31
553.34	297.25
553.51	266.82
553.67	255.12
553.84	330.02
554.01	276.18
554.17	346.40
554.34	330.02
554.51	327.68
554.67	271.50
554.84	266.82
555.00	301.93
555.17	330.02
555.33	341.72
555.50	372.15
555.67	259.80
555.83	311.29
556.00	339.38
556.16	458.74
556.33	299.59
556.50	245.76
556.66	283.20
556.83	306.61
556.99	259.80
557.16	271.50
557.32	248.10
557.49	236.39
557.65	306.61
557.82	269.16
557.98	287.89
558.15	201.29
558.32	238.73
558.48	212.99
558.65	283.20
558.81	238.73
558.98	212.99
559.14	308.95
559.31	252.78
559.47	257.46
559.64	290.23
559.80	337.04
559.97	252.78
560.13	215.33
560.30	196.60
560.46	224.69
560.63	276.18
560.79	280.86
560.96	241.08
561.12	210.65
561.29	238.73
561.45	241.08
561.61	330.02
561.78	320.65
561.94	187.24
562.11	170.86
562.27	273.84
562.44	297.25
562.60	252.78
562.77	285.55
562.93	304.27
563.10	355.76
563.26	301.93
563.42	308.95
563.59	306.61
563.75	215.33
563.92	259.80
564.08	215.33
564.24	348.74
564.41	299.59
564.57	215.33
564.74	135.75
564.90	248.10
565.07	276.18
565.23	339.38
565.39	322.99
565.56	297.25
565.72	334.70
565.88	255.12
566.05	212.99
566.21	201.29
566.38	266.82
566.54	255.12
566.70	210.65
566.87	283.20
567.03	248.10
567.19	252.78
567.36	248.10
567.52	257.46
567.68	320.65
567.85	245.76
568.01	294.91
568.17	234.05
568.34	280.86
568.50	290.23
568.66	203.63
568.83	248.10
568.99	264.48
569.15	262.14
569.32	273.84
569.48	248.10
569.64	266.82
569.81	285.55
569.97	283.20
570.13	222.35
570.30	208.31
570.46	273.84
570.62	285.55
570.78	243.42
570.95	245.76
571.11	304.27
571.27	334.70
571.43	236.39
571.60	205.97
571.76	318.31
571.92	285.55
572.09	266.82
572.25	187.24
572.41	184.90
572.57	220.01
572.74	315.97
572.90	217.67
573.06	203.63
573.22	266.82
573.38	271.50
573.55	175.54
573.71	208.31
573.87	280.86
574.03	196.60
574.20	236.39
574.36	266.82
574.52	294.91
574.68	313.63
574.84	234.05
575.01	245.76
575.17	325.33
575.33	231.71
575.49	311.29
575.65	266.82
575.82	353.42
575.98	482.15
576.14	463.43
576.30	519.60
576.46	489.17
576.62	468.11
576.79	435.34
576.95	449.38
577.11	311.29
577.27	367.46
577.43	376.83
577.59	273.84
577.75	259.80
577.92	290.23
578.08	292.57
578.24	330.02
578.40	390.87
578.56	334.70
578.72	479.81
578.88	416.62
579.04	320.65
579.21	315.97
579.37	390.87
579.53	257.46
579.69	393.21
579.85	292.57
580.01	369.80
580.17	334.70
580.33	484.49
580.49	372.15
580.65	355.76
580.82	386.19
580.98	334.70
581.14	337.04
581.30	292.57
581.46	337.04
581.62	404.91
581.78	475.13
581.94	500.87
582.10	379.17
582.26	348.74
582.42	409.59
582.58	407.25
582.74	414.27
582.90	411.93
583.06	379.17
583.22	330.02
583.38	440.02
583.54	435.34
583.70	393.21
583.86	470.45
584.02	531.30
584.18	685.78
584.34	774.72
584.50	1781.15
584.66	12280.79
584.82	30052.48
584.98	40133.17
585.14	34534.60
585.30	21474.42
585.46	12961.89
585.62	8093.57
585.78	4095.94
585.94	1720.29
586.10	966.64
586.26	688.12
586.42	667.05
586.58	503.22
586.74	491.51
586.90	416.62
587.06	500.87
587.22	496.19
587.38	493.85
587.54	816.85
587.70	1895.83
587.86	2782.90
588.02	2928.01
588.18	2172.02
588.34	1490.92
588.49	1046.22
588.65	725.57
588.81	454.06
588.97	278.52
589.13	339.38
589.29	306.61
589.45	259.80
589.61	297.25
589.77	442.36
589.93	374.49
590.08	414.27
590.24	341.72
590.40	330.02
590.56	315.97
590.72	367.46
590.88	355.76
591.04	435.34
591.20	273.84
591.35	374.49
591.51	358.10
591.67	238.73
591.83	337.04
591.99	341.72
592.15	320.65
592.31	320.65
592.46	280.86
592.62	372.15
592.78	369.80
592.94	376.83
593.10	339.38
593.26	334.70
593.41	360.44
593.57	416.62
593.73	423.64
593.89	1640.72
594.05	3686.34
594.20	5029.81
594.36	4514.89
594.52	3126.96
594.68	2129.89
594.84	1423.05
594.99	884.72
595.15	528.96
595.31	374.49
595.47	397.89
595.62	287.89
595.78	311.29
595.94	320.65
596.10	383.85
596.25	360.44
596.41	283.20
596.57	278.52
596.73	243.42
596.88	484.49
597.04	980.68
597.20	1320.06
597.36	1394.96
597.51	1135.16
597.67	753.65
597.83	697.48
597.99	493.85
598.14	367.46
598.30	330.02
598.46	311.29
598.61	369.80
598.77	313.63
598.93	334.70
599.09	337.04
599.24	283.20
599.40	311.29
599.56	299.59
599.71	311.29
599.87	259.80
600.03	353.42
600.18	283.20
600.34	297.25
600.50	276.18
600.65	257.46
600.81	301.93
600.97	283.20
601.12	266.82
601.28	348.74
601.44	339.38
601.59	297.25
601.75	341.72
601.91	287.89
602.06	292.57
602.22	365.12
602.37	472.79
602.53	954.94
602.69	1413.68
602.84	1387.94
603.00	1074.31
603.16	760.67
603.31	606.20
603.47	435.34
603.62	299.59
603.78	245.76
603.94	234.05
604.09	234.05
604.25	280.86
604.40	290.23
604.56	220.01
604.71	236.39
604.87	259.80
605.03	205.97
605.18	315.97
605.34	379.17
605.49	264.48
605.65	273.84
605.80	264.48
605.96	262.14
606.12	276.18
606.27	313.63
606.43	334.70
606.58	367.46
606.74	575.77
606.89	1872.43
607.05	3475.70
607.20	4290.20
607.36	3515.48
607.51	2497.35
607.67	1727.32
607.82	1221.76
607.98	753.65
608.13	500.87
608.29	468.11
608.44	435.34
608.60	425.98
608.75	503.22
608.91	786.42
609.06	3016.95
609.22	5675.80
609.37	7096.50
609.53	6394.34
609.68	4423.61
609.84	2953.76
609.99	2106.48
610.15	1233.46
610.30	821.53
610.46	720.88
610.61	812.17
610.76	929.19
610.92	978.34
611.07	1039.20
611.23	987.71
611.38	1011.11
611.54	847.27
611.69	816.85
611.84	655.35
612.00	674.07
612.15	582.79
612.31	662.37
612.46	592.16
612.62	634.29
612.77	678.76
612.92	606.20
613.08	587.47
613.23	526.62
613.39	444.70
613.54	739.61
613.69	2834.39
613.85	7262.68
614.00	10864.77
614.15	11007.54
614.31	8044.42
614.46	5254.50
614.62	3737.84
614.77	2328.83
614.92	1320.06
615.08	713.86
615.23	552.37
615.38	512.58
615.54	477.47
615.69	699.82
615.84	1650.08
616.00	2696.30
616.15	3192.49
616.30	2478.63
616.46	1867.75
616.61	1441.77
616.76	919.83
616.92	664.71
617.07	428.32
617.22	409.59
617.37	280.86
617.53	348.74
617.68	231.71
617.83	297.25
617.99	397.89
618.14	369.80
618.29	339.38
618.45	234.05
618.60	273.84
618.75	362.78
618.90	292.57
619.06	346.40
619.21	257.46
619.36	351.08
619.51	250.44
619.67	341.72
619.82	276.18
619.97	262.14
620.12	337.04
620.28	212.99
620.43	229.37
620.58	306.61
620.73	311.29
620.89	299.59
621.04	500.87
621.19	1001.75
621.34	1495.60
621.49	1886.47
621.65	1659.44
621.80	1252.19
621.95	922.17
622.10	678.76
622.25	498.53
622.41	325.33
622.56	315.97
622.71	299.59
622.86	341.72
623.01	390.87
623.16	283.20
623.32	330.02
623.47	341.72
623.62	264.48
623.77	287.89
623.92	318.31
624.07	294.91
624.23	280.86
624.38	322.99
624.53	276.18
624.68	276.18
624.83	292.57
624.98	269.16
625.13	285.55
625.29	252.78
625.44	283.20
625.59	367.46
625.74	348.74
625.89	500.87
626.04	1324.74
626.19	3552.93
626.34	5437.06
626.49	5809.21
626.65	4423.61
626.80	3091.85
626.95	2216.49
627.10	1418.36
627.25	779.40
627.40	465.77
627.55	358.10
627.70	313.63
627.85	299.59
628.00	292.57
628.15	339.38
628.30	355.76
628.45	252.78
628.60	313.63
628.76	320.65
628.91	217.67
629.06	290.23
629.21	297.25
629.36	346.40
629.51	292.57
629.66	306.61
629.81	351.08
629.96	793.44
630.11	1376.24
630.26	1647.74
630.41	1579.86
630.56	1233.46
630.71	814.51
630.86	699.82
631.01	458.74
631.16	374.49
631.31	353.42
631.46	344.06
631.61	308.95
631.76	224.69
631.91	252.78
632.06	248.10
632.21	259.80
632.36	334.70
632.51	318.31
632.66	402.57
632.81	676.41
632.96	2092.44
633.10	3335.26
633.25	4035.08
633.40	3208.87
633.55	2389.69
633.70	1764.76
633.85	1142.18
634.00	777.06
634.15	447.04
634.30	355.76
634.45	348.74
634.60	294.91
634.75	297.25
634.90	224.69
635.05	224.69
635.19	168.52
635.34	301.93
635.49	257.46
635.64	208.31
635.79	299.59
635.94	255.12
636.09	248.10
636.24	241.08
636.39	250.44
636.53	294.91
636.68	341.72
636.83	313.63
636.98	351.08
637.13	283.20
637.28	353.42
637.43	294.91
637.57	456.40
637.72	1825.62
637.87	4547.66
638.02	6736.06
638.17	7265.02
638.32	5401.96
638.46	3875.93
638.61	2581.61
638.76	1645.40
638.91	837.91
639.06	526.62
639.20	479.81
639.35	475.13
639.50	552.37
639.65	2628.42
639.80	6883.52
639.94	10232.82
640.09	10846.04
640.24	8266.77
640.39	5886.45
640.54	3873.59
640.68	2544.16
640.83	1228.78
640.98	727.91
641.13	435.34
641.27	325.33
641.42	330.02
641.57	332.36
641.72	248.10
641.86	290.23
642.01	313.63
642.16	250.44
642.31	243.42
642.45	269.16
642.60	294.91
642.75	210.65
642.90	308.95
643.04	255.12
643.19	229.37
643.34	259.80
643.48	269.16
643.63	248.10
643.78	231.71
643.93	299.59
644.07	243.42
644.22	304.27
644.37	191.92
644.51	241.08
644.66	255.12
644.81	227.03
644.95	250.44
645.10	194.26
645.25	170.86
645.39	138.09
645.54	215.33
645.69	273.84
645.83	234.05
645.98	227.03
646.13	259.80
646.27	142.77
646.42	252.78
646.57	259.80
646.71	210.65
646.86	234.05
647.00	222.35
647.15	264.48
647.30	182.56
647.44	227.03
647.59	191.92
647.74	217.67
647.88	224.69
648.03	320.65
648.17	269.16
648.32	266.82
648.47	318.31
648.61	292.57
648.76	210.65
648.90	208.31
649.05	248.10
649.20	250.44
649.34	220.01
649.49	234.05
649.63	311.29
649.78	236.39
649.92	299.59
650.07	1018.13
650.21	3028.65
650.36	4809.80
650.51	5509.62
650.65	4566.39
650.80	3276.75
650.94	2443.52
651.09	1528.37
651.23	873.02
651.38	514.92
651.52	337.04
651.67	292.57
651.81	294.91
651.96	313.63
652.10	245.76
652.25	348.74
652.39	287.89
652.54	252.78
652.68	416.62
652.83	1121.12
652.97	1809.23
653.12	2223.51
653.26	1881.79
653.41	1406.66
653.55	1100.05
653.70	716.20
653.84	496.19
653.99	358.10
654.13	292.57
654.27	259.80
654.42	262.14
654.56	220.01
654.71	259.80
654.85	205.97
655.00	224.69
655.14	269.16
655.29	163.84
655.43	187.24
655.57	198.95
655.72	154.48
655.86	252.78
656.01	194.26
656.15	198.95
656.30	264.48
656.44	189.58
656.58	297.25
656.73	166.18
656.87	147.45
657.01	149.79
657.16	215.33
657.30	201.29
657.45	198.95
657.59	259.80
657.73	229.37
657.88	147.45
658.02	231.71
658.16	238.73
658.31	255.12
658.45	245.76
658.60	161.50
658.74	194.26
658.88	184.90
659.03	191.92
659.17	243.42
659.31	559.39
659.46	1493.26
659.60	2380.32
659.74	2862.48
659.89	2633.10
660.03	2047.97
660.17	1514.33
660.32	950.26
660.46	627.26
660.60	369.80
660.74	262.14
660.89	266.82
661.03	229.37
661.17	131.07
661.32	234.05
661.46	292.57
661.60	191.92
661.74	241.08
661.89	266.82
662.03	236.39
662.17	341.72
662.31	191.92
662.46	283.20
662.60	187.24
662.74	189.58
662.88	208.31
663.03	238.73
663.17	227.03
663.31	243.42
663.45	203.63
663.60	187.24
663.74	154.48
663.88	215.33
664.02	215.33
664.17	142.77
664.31	217.67
664.45	196.60
664.59	220.01
664.73	189.58
664.88	173.20
665.02	308.95
665.16	156.82
665.30	161.50
665.44	208.31
665.59	308.95
665.73	280.86
665.87	205.97
666.01	262.14
666.15	215.33
666.29	217.67
666.44	227.03
666.58	318.31
666.72	224.69
666.86	224.69
667.00	212.99
667.14	299.59
667.28	1057.92
667.43	2658.85
667.57	4187.22
667.71	5043.85
667.85	4334.67
667.99	3162.06
668.13	1987.11
668.27	1242.82
668.41	837.91
668.56	550.03
668.70	381.51
668.84	248.10
668.98	203.63
669.12	177.88
669.26	273.84
669.40	346.40
669.54	173.20
669.68	198.95
669.82	182.56
669.96	210.65
670.10	224.69
670.25	241.08
670.39	229.37
670.53	194.26
670.67	278.52
670.81	182.56
670.95	283.20
671.09	367.46
671.23	1064.94
671.37	2242.23
671.51	3122.27
671.65	3288.45
671.79	2490.33
671.93	1757.74
672.07	1160.91
672.21	713.86
672.35	425.98
672.49	341.72
672.63	287.89
672.77	266.82
672.91	177.88
673.05	212.99
673.19	215.33
673.33	102.98
673.47	290.23
673.61	180.22
673.75	212.99
673.89	224.69
674.03	234.05
674.17	212.99
674.31	191.92
674.45	159.16
674.59	210.65
674.73	198.95
674.87	308.95
675.01	227.03
675.15	166.18
675.29	299.59
675.43	266.82
675.56	271.50
675.70	241.08
675.84	271.50
675.98	236.39
676.12	180.22
676.26	152.13
676.40	175.54
676.54	163.84
676.68	180.22
676.82	198.95
676.96	170.86
677.10	149.79
677.23	191.92
677.37	173.20
677.51	236.39
677.65	245.76
677.79	224.69
677.93	208.31
678.07	189.58
678.21	189.58
678.34	212.99
678.48	184.90
678.62	217.67
678.76	217.67
678.90	224.69
679.04	184.90
679.18	145.11
679.31	168.52
679.45	124.05
679.59	182.56
679.73	170.86
679.87	105.32
680.00	191.92
680.14	110.01
680.28	220.01
680.42	196.60
680.56	236.39
680.70	154.48
680.83	154.48
680.97	194.26
681.11	215.33
681.25	234.05
681.39	231.71
681.52	205.97
681.66	86.60
681.80	149.79
681.94	119.37
682.07	245.76
682.21	86.60
682.35	198.95
682.49	205.97
682.62	189.58
682.76	182.56
682.90	168.52
683.04	177.88
683.17	203.63
683.31	88.94
683.45	238.73
683.59	191.92
683.72	135.75
683.86	168.52
684.00	234.05
684.13	222.35
684.27	210.65
684.41	142.77
684.55	107.66
684.68	138.09
684.82	243.42
684.96	166.18
685.09	208.31
685.23	212.99
685.37	203.63
685.50	163.84
685.64	189.58
685.78	77.24
685.91	177.88
686.05	315.97
686.19	224.69
686.32	177.88
686.46	133.41
686.60	215.33
686.73	315.97
686.87	203.63
687.01	191.92
687.14	257.46
687.28	215.33
687.42	173.20
687.55	147.45
687.69	159.16
687.82	175.54
687.96	184.90
688.10	161.50
688.23	170.86
688.37	224.69
688.50	173.20
688.64	161.50
688.78	133.41
688.91	236.39
689.05	154.48
689.18	128.73
689.32	180.22
689.46	177.88
689.59	166.18
689.73	217.67
689.86	117.03
690.00	133.41
690.13	142.77
690.27	203.63
690.41	196.60
690.54	259.80
690.68	142.77
690.81	142.77
690.95	168.52
691.08	203.63
691.22	187.24
691.35	107.66
691.49	205.97
691.62	201.29
691.76	163.84
691.89	161.50
692.03	140.43
692.16	210.65
692.30	243.42
692.43	341.72
692.57	1034.52
692.70	1830.30
692.84	2354.58
692.97	2045.63
693.11	1514.33
693.24	1069.62
693.38	828.55
693.51	557.05
693.65	440.02
693.78	301.93
693.92	236.39
694.05	276.18
694.19	175.54
694.32	187.24
694.45	266.82
694.59	128.73
694.72	131.07
694.86	133.41
694.99	161.50
695.13	224.69
695.26	159.16
695.39	119.37
695.53	119.37
695.66	117.03
695.80	208.31
695.93	152.13
696.07	128.73
696.20	236.39
696.33	252.78
696.47	348.74
696.60	301.93
696.73	222.35
696.87	203.63
697.00	154.48
697.14	201.29
697.27	194.26
697.40	276.18
697.54	201.29
697.67	131.07
697.80	198.95
697.94	217.67
698.07	175.54
698.21	166.18
698.34	205.97
698.47	210.65
698.61	170.86
698.74	147.45
698.87	191.92
699.01	184.90
699.14	131.07
699.27	182.56
699.40	273.84
699.54	95.96
699.67	133.41
699.80	234.05
699.94	194.26
700.07	184.90
700.20	161.50
700.34	175.54
700.47	220.01
700.60	126.39
700.73	175.54
700.87	175.54
701.00	154.48
701.13	170.86
701.26	163.84
701.40	201.29
701.53	133.41
701.66	170.86
701.79	189.58
701.93	220.01
702.06	313.63
702.19	325.33
702.32	290.23
702.46	381.51
702.59	229.37
702.72	585.13
702.85	1458.15
702.99	2885.88
703.12	3747.20
703.25	4095.94
703.38	3691.02
703.51	2883.54
703.65	2202.44
703.78	1619.65
703.91	1064.94
704.04	748.97
704.17	552.37
704.31	320.65
704.44	194.26
704.57	234.05
704.70	196.60
704.83	212.99
704.96	149.79
705.10	175.54
705.23	189.58
>>>>>End Processed Spectral Data<<<<<
