SpectraSuite Data File
++++++++++++++++++++++++++++++++++++
Date: Fri Oct 04 11:34:02 GMT-05:00 2013
User: price-jones
Dark Spectrum Present: No
Reference Spectrum Present: No
Number of Sampled Component Spectra: 1
Spectrometers: USB2+H05261
Integration Time (usec): 100000 (USB2+H05261)
Spectra Averaged: 1 (USB2+H05261)
Boxcar Smoothing: 0 (USB2+H05261)
Correct for Electrical Dark: No (USB2+H05261)
Strobe/Lamp Enabled: No (USB2+H05261)
Correct for Detector Non-linearity: No (USB2+H05261)
Correct for Stray Light: No (USB2+H05261)
Number of Pixels in Processed Spectrum: 2048
>>>>>Begin Processed Spectral Data<<<<<
365.73	30.43
365.92	30.43
366.12	30.43
366.32	30.43
366.52	0.00
366.72	0.00
366.91	23.41
367.11	0.00
367.31	0.00
367.51	0.00
367.70	0.00
367.90	0.00
368.10	14.04
368.30	23.41
368.49	0.00
368.69	0.00
368.89	0.00
369.09	0.00
369.28	21.06
369.48	44.47
369.68	0.00
369.87	112.35
370.07	9.36
370.27	91.28
370.47	126.39
370.66	51.49
370.86	93.62
371.06	81.92
371.25	112.35
371.45	49.15
371.65	166.18
371.84	110.01
372.04	70.22
372.24	105.32
372.44	138.09
372.63	145.11
372.83	131.07
373.03	119.37
373.22	175.54
373.42	138.09
373.62	145.11
373.81	189.58
374.01	191.92
374.21	168.52
374.40	128.73
374.60	184.90
374.79	180.22
374.99	133.41
375.19	229.37
375.38	131.07
375.58	147.45
375.78	168.52
375.97	222.35
376.17	198.95
376.37	119.37
376.56	88.94
376.76	138.09
376.95	133.41
377.15	131.07
377.35	107.66
377.54	238.73
377.74	117.03
377.93	175.54
378.13	203.63
378.33	241.08
378.52	128.73
378.72	203.63
378.91	177.88
379.11	126.39
379.31	114.69
379.50	133.41
379.70	194.26
379.89	182.56
380.09	170.86
380.28	119.37
380.48	131.07
380.68	114.69
380.87	65.54
381.07	177.88
381.26	159.16
381.46	156.82
381.65	203.63
381.85	112.35
382.04	149.79
382.24	168.52
382.43	138.09
382.63	117.03
382.83	152.13
383.02	112.35
383.22	140.43
383.41	126.39
383.61	35.11
383.80	159.16
384.00	159.16
384.19	74.90
384.39	194.26
384.58	112.35
384.78	133.41
384.97	133.41
385.17	152.13
385.36	156.82
385.56	215.33
385.75	93.62
385.95	117.03
386.14	170.86
386.34	173.20
386.53	173.20
386.72	117.03
386.92	147.45
387.11	119.37
387.31	163.84
387.50	140.43
387.70	156.82
387.89	175.54
388.09	161.50
388.28	149.79
388.48	81.92
388.67	191.92
388.86	105.32
389.06	138.09
389.25	166.18
389.45	133.41
389.64	140.43
389.84	229.37
390.03	163.84
390.22	163.84
390.42	102.98
390.61	72.56
390.81	133.41
391.00	147.45
391.19	168.52
391.39	149.79
391.58	126.39
391.78	140.43
391.97	142.77
392.16	149.79
392.36	124.05
392.55	173.20
392.75	152.13
392.94	138.09
393.13	173.20
393.33	135.75
393.52	138.09
393.71	227.03
393.91	175.54
394.10	177.88
394.29	163.84
394.49	58.51
394.68	271.50
394.88	248.10
395.07	208.31
395.26	147.45
395.46	117.03
395.65	173.20
395.84	128.73
396.04	187.24
396.23	124.05
396.42	119.37
396.62	121.71
396.81	105.32
397.00	173.20
397.19	63.19
397.39	133.41
397.58	198.95
397.77	149.79
397.97	77.24
398.16	126.39
398.35	220.01
398.55	133.41
398.74	119.37
398.93	163.84
399.12	142.77
399.32	119.37
399.51	152.13
399.70	156.82
399.90	196.60
400.09	145.11
400.28	117.03
400.47	147.45
400.67	245.76
400.86	156.82
401.05	191.92
401.24	173.20
401.44	107.66
401.63	224.69
401.82	182.56
402.01	149.79
402.21	161.50
402.40	84.26
402.59	152.13
402.78	114.69
402.97	156.82
403.17	203.63
403.36	140.43
403.55	222.35
403.74	215.33
403.93	175.54
404.13	266.82
404.32	236.39
404.51	161.50
404.70	215.33
404.89	177.88
405.09	220.01
405.28	114.69
405.47	44.47
405.66	208.31
405.85	184.90
406.05	114.69
406.24	133.41
406.43	121.71
406.62	147.45
406.81	220.01
407.00	163.84
407.20	173.20
407.39	110.01
407.58	163.84
407.77	212.99
407.96	191.92
408.15	220.01
408.34	191.92
408.54	93.62
408.73	126.39
408.92	67.88
409.11	203.63
409.30	220.01
409.49	135.75
409.68	124.05
409.87	121.71
410.07	147.45
410.26	152.13
410.45	124.05
410.64	173.20
410.83	159.16
411.02	194.26
411.21	177.88
411.40	175.54
411.59	140.43
411.78	191.92
411.98	114.69
412.17	138.09
412.36	184.90
412.55	117.03
412.74	198.95
412.93	177.88
413.12	128.73
413.31	152.13
413.50	166.18
413.69	156.82
413.88	168.52
414.07	212.99
414.26	84.26
414.45	194.26
414.64	154.48
414.83	140.43
415.02	112.35
415.22	180.22
415.41	187.24
415.60	119.37
415.79	152.13
415.98	243.42
416.17	205.97
416.36	149.79
416.55	124.05
416.74	203.63
416.93	128.73
417.12	142.77
417.31	124.05
417.50	156.82
417.69	280.86
417.88	224.69
418.07	241.08
418.26	184.90
418.45	203.63
418.64	266.82
418.83	241.08
419.02	297.25
419.21	231.71
419.39	180.22
419.58	161.50
419.77	173.20
419.96	222.35
420.15	212.99
420.34	154.48
420.53	145.11
420.72	191.92
420.91	177.88
421.10	222.35
421.29	241.08
421.48	135.75
421.67	187.24
421.86	196.60
422.05	166.18
422.24	227.03
422.43	191.92
422.61	135.75
422.80	212.99
422.99	149.79
423.18	154.48
423.37	208.31
423.56	196.60
423.75	145.11
423.94	217.67
424.13	121.71
424.32	135.75
424.50	215.33
424.69	166.18
424.88	220.01
425.07	227.03
425.26	231.71
425.45	280.86
425.64	278.52
425.83	229.37
426.01	187.24
426.20	222.35
426.39	163.84
426.58	147.45
426.77	173.20
426.96	250.44
427.15	166.18
427.33	212.99
427.52	201.29
427.71	161.50
427.90	196.60
428.09	238.73
428.28	140.43
428.46	161.50
428.65	208.31
428.84	161.50
429.03	182.56
429.22	142.77
429.40	147.45
429.59	241.08
429.78	177.88
429.97	173.20
430.16	156.82
430.34	147.45
430.53	121.71
430.72	189.58
430.91	182.56
431.10	135.75
431.28	191.92
431.47	159.16
431.66	175.54
431.85	117.03
432.03	224.69
432.22	243.42
432.41	187.24
432.60	201.29
432.79	276.18
432.97	196.60
433.16	320.65
433.35	266.82
433.54	245.76
433.72	184.90
433.91	198.95
434.10	168.52
434.28	255.12
434.47	210.65
434.66	229.37
434.85	224.69
435.03	269.16
435.22	423.64
435.41	440.02
435.59	521.94
435.78	339.38
435.97	245.76
436.16	168.52
436.34	152.13
436.53	196.60
436.72	105.32
436.90	102.98
437.09	191.92
437.28	138.09
437.46	215.33
437.65	229.37
437.84	245.76
438.02	166.18
438.21	198.95
438.40	152.13
438.58	156.82
438.77	196.60
438.96	175.54
439.14	149.79
439.33	238.73
439.52	227.03
439.70	154.48
439.89	234.05
440.08	236.39
440.26	191.92
440.45	182.56
440.63	126.39
440.82	212.99
441.01	252.78
441.19	203.63
441.38	135.75
441.57	159.16
441.75	203.63
441.94	205.97
442.12	189.58
442.31	138.09
442.50	224.69
442.68	198.95
442.87	182.56
443.05	102.98
443.24	180.22
443.43	191.92
443.61	210.65
443.80	189.58
443.98	257.46
444.17	198.95
444.35	156.82
444.54	243.42
444.73	203.63
444.91	180.22
445.10	159.16
445.28	222.35
445.47	215.33
445.65	234.05
445.84	149.79
446.02	149.79
446.21	170.86
446.39	135.75
446.58	191.92
446.77	154.48
446.95	231.71
447.14	173.20
447.32	266.82
447.51	203.63
447.69	173.20
447.88	215.33
448.06	304.27
448.25	126.39
448.43	217.67
448.62	173.20
448.80	234.05
448.99	112.35
449.17	173.20
449.36	145.11
449.54	201.29
449.73	95.96
449.91	168.52
450.10	269.16
450.28	217.67
450.46	217.67
450.65	238.73
450.83	203.63
451.02	208.31
451.20	177.88
451.39	177.88
451.57	236.39
451.76	191.92
451.94	262.14
452.13	175.54
452.31	173.20
452.49	117.03
452.68	128.73
452.86	229.37
453.05	234.05
453.23	156.82
453.42	182.56
453.60	161.50
453.78	210.65
453.97	147.45
454.15	170.86
454.34	180.22
454.52	152.13
454.70	255.12
454.89	266.82
455.07	231.71
455.26	184.90
455.44	205.97
455.62	163.84
455.81	189.58
455.99	227.03
456.17	159.16
456.36	215.33
456.54	248.10
456.73	203.63
456.91	140.43
457.09	203.63
457.28	166.18
457.46	212.99
457.64	196.60
457.83	168.52
458.01	175.54
458.19	198.95
458.38	196.60
458.56	229.37
458.74	257.46
458.93	231.71
459.11	231.71
459.29	224.69
459.48	271.50
459.66	248.10
459.84	161.50
460.03	276.18
460.21	182.56
460.39	152.13
460.57	163.84
460.76	205.97
460.94	189.58
461.12	180.22
461.31	196.60
461.49	180.22
461.67	163.84
461.85	198.95
462.04	210.65
462.22	573.43
462.40	236.39
462.59	236.39
462.77	152.13
462.95	215.33
463.13	231.71
463.32	161.50
463.50	311.29
463.68	198.95
463.86	234.05
464.05	196.60
464.23	168.52
464.41	259.80
464.59	131.07
464.78	177.88
464.96	210.65
465.14	175.54
465.32	173.20
465.50	220.01
465.69	222.35
465.87	196.60
466.05	208.31
466.23	222.35
466.41	154.48
466.60	224.69
466.78	217.67
466.96	245.76
467.14	220.01
467.32	299.59
467.51	187.24
467.69	182.56
467.87	236.39
468.05	189.58
468.23	201.29
468.41	189.58
468.60	255.12
468.78	280.86
468.96	187.24
469.14	252.78
469.32	215.33
469.50	205.97
469.69	238.73
469.87	248.10
470.05	168.52
470.23	168.52
470.41	161.50
470.59	166.18
470.77	224.69
470.95	196.60
471.14	177.88
471.32	140.43
471.50	236.39
471.68	161.50
471.86	231.71
472.04	124.05
472.22	131.07
472.40	184.90
472.58	175.54
472.77	196.60
472.95	191.92
473.13	280.86
473.31	236.39
473.49	201.29
473.67	173.20
473.85	220.01
474.03	248.10
474.21	198.95
474.39	255.12
474.57	257.46
474.75	173.20
474.93	212.99
475.12	201.29
475.30	220.01
475.48	191.92
475.66	205.97
475.84	217.67
476.02	227.03
476.20	177.88
476.38	201.29
476.56	248.10
476.74	170.86
476.92	173.20
477.10	217.67
477.28	290.23
477.46	250.44
477.64	175.54
477.82	227.03
478.00	208.31
478.18	215.33
478.36	234.05
478.54	184.90
478.72	255.12
478.90	229.37
479.08	187.24
479.26	241.08
479.44	159.16
479.62	182.56
479.80	180.22
479.98	227.03
480.16	205.97
480.34	234.05
480.52	215.33
480.70	229.37
480.88	212.99
481.06	252.78
481.24	180.22
481.41	194.26
481.59	224.69
481.77	180.22
481.95	210.65
482.13	266.82
482.31	215.33
482.49	220.01
482.67	229.37
482.85	287.89
483.03	220.01
483.21	290.23
483.39	203.63
483.57	224.69
483.74	299.59
483.92	224.69
484.10	191.92
484.28	224.69
484.46	248.10
484.64	250.44
484.82	306.61
485.00	306.61
485.18	177.88
485.35	205.97
485.53	168.52
485.71	184.90
485.89	201.29
486.07	259.80
486.25	339.38
486.43	238.73
486.61	198.95
486.78	287.89
486.96	194.26
487.14	322.99
487.32	187.24
487.50	234.05
487.68	255.12
487.85	215.33
488.03	308.95
488.21	320.65
488.39	203.63
488.57	292.57
488.75	334.70
488.92	498.53
489.10	301.93
489.28	294.91
489.46	257.46
489.64	304.27
489.81	220.01
489.99	304.27
490.17	262.14
490.35	290.23
490.53	280.86
490.70	231.71
490.88	255.12
491.06	245.76
491.24	245.76
491.41	315.97
491.59	264.48
491.77	198.95
491.95	304.27
492.13	266.82
492.30	245.76
492.48	208.31
492.66	196.60
492.84	241.08
493.01	252.78
493.19	198.95
493.37	285.55
493.54	278.52
493.72	337.04
493.90	208.31
494.08	250.44
494.25	248.10
494.43	220.01
494.61	234.05
494.79	273.84
494.96	266.82
495.14	269.16
495.32	315.97
495.49	287.89
495.67	315.97
495.85	224.69
496.02	250.44
496.20	304.27
496.38	198.95
496.55	339.38
496.73	304.27
496.91	234.05
497.09	177.88
497.26	215.33
497.44	318.31
497.62	215.33
497.79	273.84
497.97	262.14
498.14	208.31
498.32	212.99
498.50	220.01
498.67	269.16
498.85	304.27
499.03	294.91
499.20	280.86
499.38	283.20
499.56	234.05
499.73	248.10
499.91	252.78
500.08	257.46
500.26	135.75
500.44	205.97
500.61	201.29
500.79	294.91
500.97	264.48
501.14	236.39
501.32	250.44
501.49	285.55
501.67	243.42
501.84	259.80
502.02	217.67
502.20	252.78
502.37	224.69
502.55	170.86
502.72	262.14
502.90	259.80
503.07	283.20
503.25	271.50
503.43	205.97
503.60	330.02
503.78	262.14
503.95	255.12
504.13	306.61
504.30	294.91
504.48	327.68
504.65	308.95
504.83	264.48
505.01	229.37
505.18	243.42
505.36	262.14
505.53	205.97
505.71	227.03
505.88	259.80
506.06	264.48
506.23	184.90
506.41	311.29
506.58	290.23
506.76	238.73
506.93	278.52
507.11	231.71
507.28	220.01
507.46	264.48
507.63	313.63
507.81	217.67
507.98	231.71
508.16	259.80
508.33	238.73
508.50	187.24
508.68	252.78
508.85	255.12
509.03	308.95
509.20	236.39
509.38	318.31
509.55	283.20
509.73	292.57
509.90	304.27
510.08	271.50
510.25	245.76
510.42	177.88
510.60	173.20
510.77	285.55
510.95	297.25
511.12	383.85
511.30	318.31
511.47	351.08
511.64	327.68
511.82	313.63
511.99	294.91
512.17	243.42
512.34	262.14
512.51	266.82
512.69	220.01
512.86	285.55
513.04	234.05
513.21	248.10
513.38	238.73
513.56	238.73
513.73	245.76
513.90	304.27
514.08	222.35
514.25	250.44
514.43	320.65
514.60	241.08
514.77	292.57
514.95	264.48
515.12	191.92
515.29	273.84
515.47	308.95
515.64	257.46
515.81	276.18
515.99	311.29
516.16	257.46
516.33	234.05
516.51	231.71
516.68	194.26
516.85	220.01
517.03	159.16
517.20	276.18
517.37	187.24
517.54	187.24
517.72	294.91
517.89	215.33
518.06	210.65
518.24	269.16
518.41	315.97
518.58	332.36
518.75	255.12
518.93	327.68
519.10	280.86
519.27	308.95
519.45	271.50
519.62	243.42
519.79	276.18
519.96	168.52
520.14	287.89
520.31	236.39
520.48	276.18
520.65	262.14
520.83	294.91
521.00	241.08
521.17	285.55
521.34	276.18
521.52	250.44
521.69	236.39
521.86	262.14
522.03	315.97
522.20	313.63
522.38	252.78
522.55	173.20
522.72	252.78
522.89	227.03
523.07	353.42
523.24	269.16
523.41	252.78
523.58	252.78
523.75	262.14
523.92	269.16
524.10	290.23
524.27	325.33
524.44	304.27
524.61	318.31
524.78	266.82
524.96	266.82
525.13	325.33
525.30	278.52
525.47	290.23
525.64	271.50
525.81	203.63
525.98	259.80
526.16	280.86
526.33	210.65
526.50	187.24
526.67	245.76
526.84	266.82
527.01	273.84
527.18	231.71
527.36	229.37
527.53	245.76
527.70	273.84
527.87	269.16
528.04	245.76
528.21	327.68
528.38	294.91
528.55	269.16
528.72	358.10
528.89	337.04
529.07	311.29
529.24	245.76
529.41	294.91
529.58	346.40
529.75	266.82
529.92	365.12
530.09	269.16
530.26	280.86
530.43	390.87
530.60	308.95
530.77	287.89
530.94	227.03
531.11	264.48
531.28	287.89
531.46	252.78
531.63	262.14
531.80	285.55
531.97	194.26
532.14	278.52
532.31	257.46
532.48	325.33
532.65	355.76
532.82	470.45
532.99	376.83
533.16	400.23
533.33	344.06
533.50	358.10
533.67	428.32
533.84	400.23
534.01	592.16
534.18	404.91
534.35	404.91
534.52	318.31
534.69	327.68
534.86	337.04
535.03	231.71
535.20	184.90
535.37	304.27
535.54	276.18
535.71	262.14
535.88	367.46
536.05	306.61
536.22	287.89
536.38	283.20
536.55	290.23
536.72	269.16
536.89	248.10
537.06	280.86
537.23	269.16
537.40	184.90
537.57	276.18
537.74	339.38
537.91	332.36
538.08	306.61
538.25	353.42
538.42	339.38
538.59	348.74
538.75	276.18
538.92	276.18
539.09	334.70
539.26	313.63
539.43	552.37
539.60	1188.99
539.77	1839.66
539.94	1797.53
540.11	1149.20
540.28	910.47
540.44	622.58
540.61	634.29
540.78	479.81
540.95	454.06
541.12	587.47
541.29	578.11
541.46	552.37
541.62	585.13
541.79	573.43
541.96	535.98
542.13	557.05
542.30	573.43
542.47	519.60
542.63	582.79
542.80	510.24
542.97	571.09
543.14	463.43
543.31	475.13
543.48	503.22
543.64	468.11
543.81	484.49
543.98	526.62
544.15	535.98
544.32	550.03
544.48	564.07
544.65	524.28
544.82	557.05
544.99	468.11
545.16	425.98
545.32	594.50
545.49	746.63
545.66	896.43
545.83	1083.67
546.00	833.23
546.16	727.91
546.33	615.56
546.50	643.65
546.67	468.11
546.83	503.22
547.00	416.62
547.17	381.51
547.34	362.78
547.50	479.81
547.67	454.06
547.84	482.15
548.00	430.66
548.17	407.25
548.34	365.12
548.51	400.23
548.67	407.25
548.84	393.21
549.01	435.34
549.18	442.36
549.34	440.02
549.51	381.51
549.68	318.31
549.84	386.19
550.01	308.95
550.18	379.17
550.34	458.74
550.51	294.91
550.68	390.87
550.84	332.36
551.01	311.29
551.18	362.78
551.34	339.38
551.51	311.29
551.68	311.29
551.84	313.63
552.01	339.38
552.18	259.80
552.34	362.78
552.51	318.31
552.68	290.23
552.84	278.52
553.01	243.42
553.18	362.78
553.34	360.44
553.51	283.20
553.67	280.86
553.84	304.27
554.01	278.52
554.17	306.61
554.34	266.82
554.51	308.95
554.67	278.52
554.84	294.91
555.00	287.89
555.17	262.14
555.33	283.20
555.50	285.55
555.67	269.16
555.83	224.69
556.00	332.36
556.16	437.68
556.33	386.19
556.50	294.91
556.66	264.48
556.83	341.72
556.99	297.25
557.16	365.12
557.32	276.18
557.49	273.84
557.65	252.78
557.82	227.03
557.98	229.37
558.15	271.50
558.32	243.42
558.48	264.48
558.65	315.97
558.81	306.61
558.98	292.57
559.14	273.84
559.31	287.89
559.47	311.29
559.64	248.10
559.80	290.23
559.97	287.89
560.13	257.46
560.30	203.63
560.46	210.65
560.63	278.52
560.79	276.18
560.96	241.08
561.12	320.65
561.29	287.89
561.45	210.65
561.61	287.89
561.78	379.17
561.94	290.23
562.11	287.89
562.27	294.91
562.44	231.71
562.60	262.14
562.77	222.35
562.93	266.82
563.10	273.84
563.26	283.20
563.42	299.59
563.59	262.14
563.75	271.50
563.92	262.14
564.08	313.63
564.24	308.95
564.41	327.68
564.57	222.35
564.74	220.01
564.90	222.35
565.07	327.68
565.23	346.40
565.39	365.12
565.56	421.30
565.72	278.52
565.88	203.63
566.05	301.93
566.21	241.08
566.38	222.35
566.54	182.56
566.70	262.14
566.87	229.37
567.03	227.03
567.19	273.84
567.36	292.57
567.52	306.61
567.68	264.48
567.85	276.18
568.01	271.50
568.17	266.82
568.34	304.27
568.50	299.59
568.66	255.12
568.83	346.40
568.99	294.91
569.15	376.83
569.32	269.16
569.48	252.78
569.64	276.18
569.81	280.86
569.97	248.10
570.13	318.31
570.30	255.12
570.46	283.20
570.62	252.78
570.78	189.58
570.95	308.95
571.11	276.18
571.27	301.93
571.43	304.27
571.60	320.65
571.76	285.55
571.92	269.16
572.09	231.71
572.25	283.20
572.41	292.57
572.57	255.12
572.74	351.08
572.90	257.46
573.06	318.31
573.22	322.99
573.38	311.29
573.55	227.03
573.71	280.86
573.87	325.33
574.03	273.84
574.20	304.27
574.36	306.61
574.52	304.27
574.68	374.49
574.84	418.96
575.01	383.85
575.17	374.49
575.33	332.36
575.49	351.08
575.65	360.44
575.82	344.06
575.98	585.13
576.14	821.53
576.30	826.21
576.46	718.54
576.62	582.79
576.79	648.33
576.95	463.43
577.11	414.27
577.27	301.93
577.43	351.08
577.59	330.02
577.75	416.62
577.92	327.68
578.08	273.84
578.24	337.04
578.40	355.76
578.56	496.19
578.72	468.11
578.88	449.38
579.04	468.11
579.21	442.36
579.37	294.91
579.53	407.25
579.69	409.59
579.85	442.36
580.01	423.64
580.17	444.70
580.33	425.98
580.49	454.06
580.65	374.49
580.82	430.66
580.98	367.46
581.14	353.42
581.30	440.02
581.46	435.34
581.62	641.31
581.78	641.31
581.94	660.03
582.10	566.41
582.26	552.37
582.42	528.96
582.58	528.96
582.74	510.24
582.90	557.05
583.06	503.22
583.22	545.34
583.38	538.32
583.54	594.50
583.70	690.46
583.86	805.14
584.02	734.93
584.18	1067.28
584.34	1287.29
584.50	3185.47
584.66	22363.82
584.82	56790.76
584.98	65535.00
585.14	65424.99
585.30	52704.18
585.46	32751.12
585.62	20102.86
585.78	9312.99
585.94	3847.84
586.10	1767.10
586.26	1142.18
586.42	1050.90
586.58	791.10
586.74	702.16
586.90	709.18
587.06	737.27
587.22	678.76
587.38	650.67
587.54	1170.27
587.70	3609.11
587.86	6132.20
588.02	7063.74
588.18	5046.20
588.34	3410.16
588.49	2120.53
588.65	1315.38
588.81	755.99
588.97	477.47
589.13	409.59
589.29	496.19
589.45	407.25
589.61	484.49
589.77	430.66
589.93	470.45
590.08	573.43
590.24	475.13
590.40	484.49
590.56	465.77
590.72	461.09
590.88	472.79
591.04	507.90
591.20	395.55
591.35	451.72
591.51	407.25
591.67	365.12
591.83	369.80
591.99	430.66
592.15	407.25
592.31	411.93
592.46	379.17
592.62	440.02
592.78	409.59
592.94	423.64
593.10	390.87
593.26	388.53
593.41	470.45
593.57	437.68
593.73	671.73
593.89	2794.60
594.05	7683.98
594.20	12105.25
594.36	11793.96
594.52	7545.89
594.68	4854.27
594.84	3302.50
594.99	1863.07
595.15	912.81
595.31	550.03
595.47	402.57
595.62	395.55
595.78	388.53
595.94	372.15
596.10	383.85
596.25	388.53
596.41	447.04
596.57	346.40
596.73	362.78
596.88	564.07
597.04	1472.20
597.20	2450.54
597.36	3176.11
597.51	2279.68
597.67	1547.09
597.83	1167.93
597.99	795.78
598.14	538.32
598.30	465.77
598.46	386.19
598.61	369.80
598.77	362.78
598.93	367.46
599.09	388.53
599.24	418.96
599.40	311.29
599.56	280.86
599.71	306.61
599.87	355.76
600.03	369.80
600.18	381.51
600.34	313.63
600.50	276.18
600.65	313.63
600.81	315.97
600.97	205.97
601.12	290.23
601.28	362.78
601.44	327.68
601.59	283.20
601.75	306.61
601.91	320.65
602.06	362.78
602.22	407.25
602.37	730.25
602.53	1785.83
602.69	2904.60
602.84	3199.51
603.00	2270.32
603.16	1696.89
603.31	1153.88
603.47	777.06
603.62	491.51
603.78	430.66
603.94	327.68
604.09	341.72
604.25	330.02
604.40	348.74
604.56	311.29
604.71	337.04
604.87	269.16
605.03	290.23
605.18	299.59
605.34	411.93
605.49	299.59
605.65	365.12
605.80	421.30
605.96	447.04
606.12	409.59
606.27	397.89
606.43	376.83
606.58	468.11
606.74	905.79
606.89	3435.91
607.05	7187.79
607.20	10403.68
607.36	8589.77
607.51	5753.04
607.67	3885.29
607.82	2565.23
607.98	1476.88
608.13	812.17
608.29	585.13
608.44	601.52
608.60	578.11
608.75	624.92
608.91	1242.82
609.06	5107.05
609.22	12643.57
609.37	17886.37
609.53	15758.83
609.68	10726.68
609.84	6843.73
609.99	4727.88
610.15	2693.96
610.30	1514.33
610.46	1029.84
610.61	1013.45
610.76	1064.94
610.92	1121.12
611.07	1214.74
611.23	1252.19
611.38	1184.31
611.54	1057.92
611.69	952.60
611.84	788.76
612.00	685.78
612.15	695.14
612.31	746.63
612.46	978.34
612.62	1057.92
612.77	952.60
612.92	915.15
613.08	840.25
613.23	770.04
613.39	746.63
613.54	1104.73
613.69	4779.37
613.85	15133.90
614.00	25830.15
614.15	28680.92
614.31	20126.27
614.46	13092.96
614.62	8833.18
614.77	5320.04
614.92	2530.12
615.08	1334.11
615.23	816.85
615.38	695.14
615.54	606.20
615.69	1001.75
615.84	2855.45
616.00	5675.80
616.15	7307.15
616.30	6094.76
616.46	4217.65
616.61	2930.35
616.76	1980.09
616.92	1207.72
617.07	704.50
617.22	531.30
617.37	409.59
617.53	353.42
617.68	444.70
617.83	341.72
617.99	402.57
618.14	449.38
618.29	351.08
618.45	437.68
618.60	341.72
618.75	332.36
618.90	320.65
619.06	341.72
619.21	404.91
619.36	376.83
619.51	315.97
619.67	367.46
619.82	294.91
619.97	365.12
620.12	414.27
620.28	285.55
620.43	290.23
620.58	351.08
620.73	334.70
620.89	341.72
621.04	622.58
621.19	1509.65
621.34	3164.40
621.49	4266.80
621.65	3927.42
621.80	2778.22
621.95	1867.75
622.10	1380.92
622.25	807.48
622.41	564.07
622.56	395.55
622.71	355.76
622.86	348.74
623.01	301.93
623.16	306.61
623.32	376.83
623.47	388.53
623.62	379.17
623.77	355.76
623.92	379.17
624.07	332.36
624.23	287.89
624.38	330.02
624.53	358.10
624.68	353.42
624.83	360.44
624.98	395.55
625.13	337.04
625.29	322.99
625.44	294.91
625.59	428.32
625.74	428.32
625.89	594.50
626.04	2347.56
626.19	7129.27
626.34	12554.63
626.49	14581.54
626.65	11061.37
626.80	7342.26
626.95	5100.03
627.10	3157.38
627.25	1542.41
627.40	863.66
627.55	575.77
627.70	416.62
627.85	470.45
628.00	372.15
628.15	332.36
628.30	313.63
628.45	367.46
628.60	348.74
628.76	369.80
628.91	271.50
629.06	315.97
629.21	292.57
629.36	367.46
629.51	287.89
629.66	376.83
629.81	512.58
629.96	1350.49
630.11	2778.22
630.26	3775.28
630.41	3541.23
630.56	2523.10
630.71	1844.34
630.86	1345.81
631.01	847.27
631.16	557.05
631.31	479.81
631.46	393.21
631.61	346.40
631.76	388.53
631.91	367.46
632.06	294.91
632.21	334.70
632.36	416.62
632.51	372.15
632.66	507.90
632.81	1125.80
632.96	4065.51
633.10	7550.57
633.25	9987.07
633.40	8030.38
633.55	5748.36
633.70	3838.48
633.85	2628.42
634.00	1441.77
634.15	751.31
634.30	491.51
634.45	425.98
634.60	353.42
634.75	341.72
634.90	374.49
635.05	315.97
635.19	301.93
635.34	332.36
635.49	299.59
635.64	266.82
635.79	353.42
635.94	304.27
636.09	325.33
636.24	341.72
636.39	280.86
636.53	322.99
636.68	355.76
636.83	397.89
636.98	358.10
637.13	304.27
637.28	381.51
637.43	444.70
637.57	732.59
637.72	3157.38
637.87	9305.97
638.02	16428.22
638.17	18434.06
638.32	13666.39
638.46	9401.93
638.61	6340.51
638.76	3772.94
638.91	1923.92
639.06	978.34
639.20	725.57
639.35	676.41
639.50	931.53
639.65	4557.02
639.80	14696.22
639.94	25532.90
640.09	28254.95
640.24	21123.33
640.39	14452.81
640.54	9427.68
640.68	5879.43
640.83	2733.75
640.98	1275.59
641.13	748.97
641.27	582.79
641.42	447.04
641.57	369.80
641.72	344.06
641.86	365.12
642.01	346.40
642.16	388.53
642.31	229.37
642.45	315.97
642.60	224.69
642.75	259.80
642.90	383.85
643.04	234.05
643.19	287.89
643.34	238.73
643.48	212.99
643.63	245.76
643.78	285.55
643.93	224.69
644.07	280.86
644.22	276.18
644.37	257.46
644.51	308.95
644.66	238.73
644.81	182.56
644.95	245.76
645.10	257.46
645.25	259.80
645.39	273.84
645.54	182.56
645.69	280.86
645.83	271.50
645.98	332.36
646.13	266.82
646.27	243.42
646.42	224.69
646.57	220.01
646.71	250.44
646.86	205.97
647.00	196.60
647.15	234.05
647.30	276.18
647.44	236.39
647.59	241.08
647.74	273.84
647.88	278.52
648.03	255.12
648.17	255.12
648.32	278.52
648.47	224.69
648.61	297.25
648.76	255.12
648.90	241.08
649.05	360.44
649.20	259.80
649.34	262.14
649.49	273.84
649.63	290.23
649.78	402.57
649.92	440.02
650.07	1776.47
650.21	6211.78
650.36	11580.97
650.51	14710.27
650.65	12306.54
650.80	8486.78
650.94	5722.61
651.09	3583.36
651.23	1839.66
651.38	1039.20
651.52	533.64
651.67	400.23
651.81	353.42
651.96	327.68
652.10	346.40
652.25	322.99
652.39	367.46
652.54	325.33
652.68	676.41
652.83	1928.60
652.97	4032.74
653.12	5205.35
653.26	4678.73
653.41	3445.27
653.55	2392.03
653.70	1603.27
653.84	931.53
653.99	521.94
654.13	355.76
654.27	264.48
654.42	306.61
654.56	325.33
654.71	348.74
654.85	250.44
655.00	248.10
655.14	259.80
655.29	245.76
655.43	220.01
655.57	245.76
655.72	215.33
655.86	262.14
656.01	217.67
656.15	259.80
656.30	255.12
656.44	245.76
656.58	236.39
656.73	259.80
656.87	196.60
657.01	198.95
657.16	287.89
657.30	315.97
657.45	255.12
657.59	191.92
657.73	224.69
657.88	255.12
658.02	287.89
658.16	252.78
658.31	248.10
658.45	285.55
658.60	231.71
658.74	255.12
658.88	292.57
659.03	287.89
659.17	365.12
659.31	856.64
659.46	2810.98
659.60	5448.77
659.74	7269.70
659.89	6513.71
660.03	4814.48
660.17	3365.69
660.32	2090.10
660.46	1284.95
660.60	671.73
660.74	491.51
660.89	374.49
661.03	243.42
661.17	269.16
661.32	257.46
661.46	292.57
661.60	292.57
661.74	250.44
661.89	266.82
662.03	257.46
662.17	241.08
662.31	241.08
662.46	257.46
662.60	280.86
662.74	322.99
662.88	280.86
663.03	215.33
663.17	236.39
663.31	208.31
663.45	182.56
663.60	231.71
663.74	198.95
663.88	229.37
664.02	285.55
664.17	273.84
664.31	236.39
664.45	252.78
664.59	248.10
664.73	163.84
664.88	294.91
665.02	276.18
665.16	301.93
665.30	287.89
665.44	283.20
665.59	311.29
665.73	276.18
665.87	205.97
666.01	220.01
666.15	271.50
666.29	262.14
666.44	252.78
666.58	276.18
666.72	276.18
666.86	318.31
667.00	330.02
667.14	514.92
667.28	1715.61
667.43	5291.95
667.57	9479.17
667.71	12835.50
667.85	10949.03
667.99	7941.44
668.13	5245.14
668.27	3026.31
668.41	1743.70
668.56	917.49
668.70	568.75
668.84	400.23
668.98	308.95
669.12	271.50
669.26	287.89
669.40	337.04
669.54	301.93
669.68	241.08
669.82	229.37
669.96	304.27
670.10	299.59
670.25	264.48
670.39	287.89
670.53	250.44
670.67	287.89
670.81	287.89
670.95	327.68
671.09	535.98
671.23	1923.92
671.37	4561.70
671.51	7206.51
671.65	7864.20
671.79	6228.17
671.93	4432.97
672.07	2726.72
672.21	1673.48
672.35	985.37
672.49	629.60
672.63	493.85
672.77	278.52
672.91	285.55
673.05	203.63
673.19	259.80
673.33	180.22
673.47	257.46
673.61	245.76
673.75	234.05
673.89	243.42
674.03	194.26
674.17	180.22
674.31	210.65
674.45	229.37
674.59	177.88
674.73	320.65
674.87	194.26
675.01	318.31
675.15	241.08
675.29	266.82
675.43	318.31
675.56	250.44
675.70	262.14
675.84	208.31
675.98	273.84
676.12	182.56
676.26	252.78
676.40	208.31
676.54	243.42
676.68	201.29
676.82	222.35
676.96	201.29
677.10	138.09
677.23	236.39
677.37	205.97
677.51	114.69
677.65	194.26
677.79	196.60
677.93	170.86
678.07	180.22
678.21	236.39
678.34	229.37
678.48	196.60
678.62	236.39
678.76	191.92
678.90	224.69
679.04	229.37
679.18	161.50
679.31	210.65
679.45	271.50
679.59	280.86
679.73	280.86
679.87	163.84
680.00	210.65
680.14	198.95
680.28	234.05
680.42	170.86
680.56	196.60
680.70	159.16
680.83	231.71
680.97	182.56
681.11	201.29
681.25	133.41
681.39	210.65
681.52	210.65
681.66	177.88
681.80	227.03
681.94	152.13
682.07	224.69
682.21	189.58
682.35	135.75
682.49	173.20
682.62	163.84
682.76	156.82
682.90	205.97
683.04	234.05
683.17	224.69
683.31	182.56
683.45	231.71
683.59	224.69
683.72	241.08
683.86	262.14
684.00	163.84
684.13	210.65
684.27	264.48
684.41	175.54
684.55	205.97
684.68	203.63
684.82	154.48
684.96	166.18
685.09	229.37
685.23	222.35
685.37	163.84
685.50	201.29
685.64	276.18
685.78	210.65
685.91	203.63
686.05	271.50
686.19	271.50
686.32	180.22
686.46	222.35
686.60	159.16
686.73	308.95
686.87	252.78
687.01	220.01
687.14	215.33
687.28	227.03
687.42	292.57
687.55	210.65
687.69	299.59
687.82	189.58
687.96	145.11
688.10	147.45
688.23	180.22
688.37	257.46
688.50	173.20
688.64	208.31
688.78	210.65
688.91	191.92
689.05	159.16
689.18	138.09
689.32	187.24
689.46	168.52
689.59	173.20
689.73	269.16
689.86	154.48
690.00	198.95
690.13	147.45
690.27	217.67
690.41	145.11
690.54	238.73
690.68	205.97
690.81	170.86
690.95	145.11
691.08	133.41
691.22	245.76
691.35	105.32
691.49	126.39
691.62	203.63
691.76	198.95
691.89	210.65
692.03	102.98
692.16	224.69
692.30	290.23
692.43	648.33
692.57	2193.08
692.70	3997.64
692.84	5446.43
692.97	5078.96
693.11	3782.31
693.24	2771.19
693.38	1877.11
693.51	1242.82
693.65	866.00
693.78	697.48
693.92	369.80
694.05	374.49
694.19	304.27
694.32	283.20
694.45	208.31
694.59	175.54
694.72	138.09
694.86	145.11
694.99	287.89
695.13	156.82
695.26	196.60
695.39	175.54
695.53	252.78
695.66	133.41
695.80	147.45
695.93	159.16
696.07	217.67
696.20	346.40
696.33	423.64
696.47	489.17
696.60	472.79
696.73	468.11
696.87	339.38
697.00	435.34
697.14	285.55
697.27	278.52
697.40	248.10
697.54	294.91
697.67	124.05
697.80	243.42
697.94	149.79
698.07	133.41
698.21	196.60
698.34	180.22
698.47	117.03
698.61	198.95
698.74	184.90
698.87	56.17
699.01	231.71
699.14	142.77
699.27	173.20
699.40	306.61
699.54	173.20
699.67	145.11
699.80	201.29
699.94	212.99
700.07	177.88
700.20	140.43
700.34	140.43
700.47	194.26
700.60	224.69
700.73	173.20
700.87	201.29
701.00	142.77
701.13	184.90
701.26	252.78
701.40	208.31
701.53	205.97
701.66	159.16
701.79	217.67
701.93	236.39
702.06	386.19
702.19	388.53
702.32	475.13
702.46	620.24
702.59	662.37
702.72	877.70
702.85	2785.24
702.99	6120.50
703.12	9380.87
703.25	10651.78
703.38	9200.65
703.51	7391.41
703.65	5699.20
703.78	3983.59
703.91	2752.47
704.04	1640.72
704.17	1086.01
704.31	615.56
704.44	421.30
704.57	355.76
704.70	280.86
704.83	290.23
704.96	285.55
705.10	241.08
705.23	241.08
>>>>>End Processed Spectral Data<<<<<
