SpectraSuite Data File
++++++++++++++++++++++++++++++++++++
Date: Fri Oct 04 11:33:49 GMT-05:00 2013
User: price-jones
Dark Spectrum Present: No
Reference Spectrum Present: No
Number of Sampled Component Spectra: 1
Spectrometers: USB2+H05261
Integration Time (usec): 100000 (USB2+H05261)
Spectra Averaged: 1 (USB2+H05261)
Boxcar Smoothing: 0 (USB2+H05261)
Correct for Electrical Dark: No (USB2+H05261)
Strobe/Lamp Enabled: No (USB2+H05261)
Correct for Detector Non-linearity: No (USB2+H05261)
Correct for Stray Light: No (USB2+H05261)
Number of Pixels in Processed Spectrum: 2048
>>>>>Begin Processed Spectral Data<<<<<
365.73	72.56
365.92	72.56
366.12	72.56
366.32	42.13
366.52	28.09
366.72	0.00
366.91	0.00
367.11	11.70
367.31	2.34
367.51	0.00
367.70	0.00
367.90	0.00
368.10	0.00
368.30	11.70
368.49	0.00
368.69	23.41
368.89	4.68
369.09	9.36
369.28	0.00
369.48	0.00
369.68	0.00
369.87	70.22
370.07	23.41
370.27	28.09
370.47	84.26
370.66	0.00
370.86	114.69
371.06	168.52
371.25	140.43
371.45	49.15
371.65	147.45
371.84	58.51
372.04	154.48
372.24	60.85
372.44	124.05
372.63	70.22
372.83	189.58
373.03	133.41
373.22	156.82
373.42	114.69
373.62	166.18
373.81	131.07
374.01	224.69
374.21	117.03
374.40	170.86
374.60	126.39
374.79	149.79
374.99	161.50
375.19	102.98
375.38	184.90
375.58	177.88
375.78	168.52
375.97	255.12
376.17	227.03
376.37	112.35
376.56	231.71
376.76	131.07
376.95	119.37
377.15	175.54
377.35	138.09
377.54	138.09
377.74	140.43
377.93	147.45
378.13	227.03
378.33	182.56
378.52	201.29
378.72	194.26
378.91	135.75
379.11	194.26
379.31	98.30
379.50	91.28
379.70	208.31
379.89	131.07
380.09	88.94
380.28	140.43
380.48	114.69
380.68	51.49
380.87	131.07
381.07	184.90
381.26	208.31
381.46	166.18
381.65	51.49
381.85	131.07
382.04	159.16
382.24	170.86
382.43	100.64
382.63	98.30
382.83	65.54
383.02	170.86
383.22	145.11
383.41	152.13
383.61	93.62
383.80	100.64
384.00	170.86
384.19	74.90
384.39	107.66
384.58	128.73
384.78	152.13
384.97	173.20
385.17	86.60
385.36	126.39
385.56	189.58
385.75	231.71
385.95	184.90
386.14	159.16
386.34	138.09
386.53	147.45
386.72	126.39
386.92	194.26
387.11	145.11
387.31	110.01
387.50	133.41
387.70	147.45
387.89	126.39
388.09	42.13
388.28	91.28
388.48	135.75
388.67	241.08
388.86	114.69
389.06	88.94
389.25	100.64
389.45	191.92
389.64	145.11
389.84	154.48
390.03	184.90
390.22	86.60
390.42	175.54
390.61	117.03
390.81	110.01
391.00	70.22
391.19	205.97
391.39	159.16
391.58	145.11
391.78	114.69
391.97	184.90
392.16	138.09
392.36	149.79
392.55	168.52
392.75	154.48
392.94	170.86
393.13	191.92
393.33	149.79
393.52	156.82
393.71	173.20
393.91	138.09
394.10	142.77
394.29	124.05
394.49	149.79
394.68	215.33
394.88	201.29
395.07	135.75
395.26	187.24
395.46	98.30
395.65	93.62
395.84	93.62
396.04	234.05
396.23	166.18
396.42	114.69
396.62	180.22
396.81	187.24
397.00	117.03
397.19	131.07
397.39	133.41
397.58	166.18
397.77	88.94
397.97	175.54
398.16	145.11
398.35	133.41
398.55	166.18
398.74	142.77
398.93	107.66
399.12	138.09
399.32	175.54
399.51	112.35
399.70	168.52
399.90	138.09
400.09	114.69
400.28	196.60
400.47	156.82
400.67	201.29
400.86	196.60
401.05	180.22
401.24	142.77
401.44	145.11
401.63	180.22
401.82	142.77
402.01	105.32
402.21	180.22
402.40	119.37
402.59	161.50
402.78	145.11
402.97	119.37
403.17	194.26
403.36	93.62
403.55	194.26
403.74	135.75
403.93	222.35
404.13	224.69
404.32	173.20
404.51	149.79
404.70	241.08
404.89	196.60
405.09	257.46
405.28	147.45
405.47	140.43
405.66	189.58
405.85	154.48
406.05	189.58
406.24	86.60
406.43	161.50
406.62	166.18
406.81	168.52
407.00	180.22
407.20	145.11
407.39	222.35
407.58	60.85
407.77	133.41
407.96	217.67
408.15	145.11
408.34	208.31
408.54	159.16
408.73	126.39
408.92	131.07
409.11	170.86
409.30	184.90
409.49	177.88
409.68	149.79
409.87	159.16
410.07	138.09
410.26	135.75
410.45	152.13
410.64	128.73
410.83	142.77
411.02	124.05
411.21	105.32
411.40	194.26
411.59	133.41
411.78	126.39
411.98	159.16
412.17	147.45
412.36	110.01
412.55	147.45
412.74	215.33
412.93	175.54
413.12	173.20
413.31	180.22
413.50	173.20
413.69	117.03
413.88	173.20
414.07	175.54
414.26	168.52
414.45	100.64
414.64	182.56
414.83	257.46
415.02	121.71
415.22	140.43
415.41	217.67
415.60	152.13
415.79	156.82
415.98	154.48
416.17	229.37
416.36	145.11
416.55	220.01
416.74	203.63
416.93	215.33
417.12	163.84
417.31	110.01
417.50	205.97
417.69	227.03
417.88	212.99
418.07	177.88
418.26	189.58
418.45	224.69
418.64	227.03
418.83	184.90
419.02	198.95
419.21	168.52
419.39	255.12
419.58	196.60
419.77	212.99
419.96	227.03
420.15	252.78
420.34	142.77
420.53	159.16
420.72	175.54
420.91	133.41
421.10	173.20
421.29	161.50
421.48	124.05
421.67	154.48
421.86	220.01
422.05	121.71
422.24	140.43
422.43	236.39
422.61	138.09
422.80	196.60
422.99	224.69
423.18	138.09
423.37	245.76
423.56	126.39
423.75	138.09
423.94	135.75
424.13	110.01
424.32	154.48
424.50	145.11
424.69	168.52
424.88	198.95
425.07	168.52
425.26	201.29
425.45	252.78
425.64	264.48
425.83	215.33
426.01	255.12
426.20	201.29
426.39	119.37
426.58	161.50
426.77	161.50
426.96	140.43
427.15	203.63
427.33	177.88
427.52	95.96
427.71	182.56
427.90	215.33
428.09	145.11
428.28	124.05
428.46	135.75
428.65	227.03
428.84	191.92
429.03	191.92
429.22	175.54
429.40	145.11
429.59	170.86
429.78	241.08
429.97	152.13
430.16	147.45
430.34	166.18
430.53	189.58
430.72	166.18
430.91	241.08
431.10	170.86
431.28	131.07
431.47	222.35
431.66	175.54
431.85	238.73
432.03	163.84
432.22	201.29
432.41	100.64
432.60	278.52
432.79	194.26
432.97	220.01
433.16	187.24
433.35	217.67
433.54	203.63
433.72	175.54
433.91	276.18
434.10	222.35
434.28	243.42
434.47	203.63
434.66	208.31
434.85	191.92
435.03	208.31
435.22	332.36
435.41	402.57
435.59	273.84
435.78	301.93
435.97	234.05
436.16	175.54
436.34	135.75
436.53	170.86
436.72	215.33
436.90	201.29
437.09	224.69
437.28	203.63
437.46	210.65
437.65	154.48
437.84	175.54
438.02	212.99
438.21	152.13
438.40	142.77
438.58	131.07
438.77	154.48
438.96	154.48
439.14	170.86
439.33	205.97
439.52	184.90
439.70	224.69
439.89	280.86
440.08	159.16
440.26	133.41
440.45	212.99
440.63	215.33
440.82	189.58
441.01	175.54
441.19	140.43
441.38	102.98
441.57	152.13
441.75	175.54
441.94	180.22
442.12	142.77
442.31	227.03
442.50	210.65
442.68	142.77
442.87	170.86
443.05	217.67
443.24	163.84
443.43	140.43
443.61	229.37
443.80	208.31
443.98	102.98
444.17	173.20
444.35	135.75
444.54	191.92
444.73	191.92
444.91	189.58
445.10	173.20
445.28	154.48
445.47	180.22
445.65	128.73
445.84	187.24
446.02	215.33
446.21	154.48
446.39	217.67
446.58	126.39
446.77	205.97
446.95	168.52
447.14	173.20
447.32	243.42
447.51	222.35
447.69	184.90
447.88	138.09
448.06	189.58
448.25	175.54
448.43	210.65
448.62	210.65
448.80	196.60
448.99	220.01
449.17	140.43
449.36	180.22
449.54	182.56
449.73	238.73
449.91	203.63
450.10	196.60
450.28	222.35
450.46	259.80
450.65	142.77
450.83	189.58
451.02	182.56
451.20	191.92
451.39	182.56
451.57	147.45
451.76	187.24
451.94	222.35
452.13	203.63
452.31	234.05
452.49	266.82
452.68	159.16
452.86	154.48
453.05	252.78
453.23	201.29
453.42	140.43
453.60	184.90
453.78	198.95
453.97	152.13
454.15	189.58
454.34	222.35
454.52	201.29
454.70	203.63
454.89	205.97
455.07	168.52
455.26	203.63
455.44	140.43
455.62	131.07
455.81	100.64
455.99	175.54
456.17	177.88
456.36	201.29
456.54	194.26
456.73	196.60
456.91	184.90
457.09	131.07
457.28	220.01
457.46	154.48
457.64	135.75
457.83	145.11
458.01	229.37
458.19	238.73
458.38	175.54
458.56	189.58
458.74	170.86
458.93	250.44
459.11	154.48
459.29	175.54
459.48	180.22
459.66	191.92
459.84	170.86
460.03	320.65
460.21	273.84
460.39	173.20
460.57	194.26
460.76	294.91
460.94	170.86
461.12	201.29
461.31	196.60
461.49	187.24
461.67	198.95
461.85	224.69
462.04	212.99
462.22	655.35
462.40	248.10
462.59	191.92
462.77	203.63
462.95	194.26
463.13	126.39
463.32	152.13
463.50	147.45
463.68	184.90
463.86	117.03
464.05	203.63
464.23	262.14
464.41	205.97
464.59	168.52
464.78	177.88
464.96	152.13
465.14	210.65
465.32	243.42
465.50	222.35
465.69	182.56
465.87	145.11
466.05	166.18
466.23	168.52
466.41	231.71
466.60	271.50
466.78	149.79
466.96	156.82
467.14	220.01
467.32	245.76
467.51	205.97
467.69	163.84
467.87	224.69
468.05	194.26
468.23	278.52
468.41	182.56
468.60	210.65
468.78	152.13
468.96	220.01
469.14	252.78
469.32	212.99
469.50	180.22
469.69	196.60
469.87	238.73
470.05	231.71
470.23	173.20
470.41	145.11
470.59	217.67
470.77	163.84
470.95	210.65
471.14	184.90
471.32	208.31
471.50	201.29
471.68	205.97
471.86	203.63
472.04	203.63
472.22	180.22
472.40	131.07
472.58	135.75
472.77	224.69
472.95	250.44
473.13	227.03
473.31	196.60
473.49	168.52
473.67	217.67
473.85	184.90
474.03	241.08
474.21	220.01
474.39	229.37
474.57	299.59
474.75	231.71
474.93	248.10
475.12	220.01
475.30	187.24
475.48	184.90
475.66	191.92
475.84	184.90
476.02	173.20
476.20	198.95
476.38	196.60
476.56	306.61
476.74	210.65
476.92	229.37
477.10	208.31
477.28	168.52
477.46	212.99
477.64	269.16
477.82	205.97
478.00	262.14
478.18	180.22
478.36	170.86
478.54	102.98
478.72	198.95
478.90	220.01
479.08	236.39
479.26	220.01
479.44	145.11
479.62	180.22
479.80	156.82
479.98	142.77
480.16	217.67
480.34	201.29
480.52	175.54
480.70	212.99
480.88	217.67
481.06	236.39
481.24	180.22
481.41	271.50
481.59	196.60
481.77	299.59
481.95	203.63
482.13	140.43
482.31	196.60
482.49	234.05
482.67	245.76
482.85	182.56
483.03	175.54
483.21	229.37
483.39	161.50
483.57	234.05
483.74	271.50
483.92	250.44
484.10	266.82
484.28	250.44
484.46	290.23
484.64	194.26
484.82	191.92
485.00	177.88
485.18	224.69
485.35	161.50
485.53	201.29
485.71	220.01
485.89	238.73
486.07	217.67
486.25	280.86
486.43	252.78
486.61	285.55
486.78	236.39
486.96	142.77
487.14	217.67
487.32	184.90
487.50	250.44
487.68	196.60
487.85	177.88
488.03	222.35
488.21	325.33
488.39	128.73
488.57	318.31
488.75	224.69
488.92	482.15
489.10	175.54
489.28	271.50
489.46	266.82
489.64	257.46
489.81	196.60
489.99	264.48
490.17	276.18
490.35	220.01
490.53	231.71
490.70	241.08
490.88	229.37
491.06	297.25
491.24	236.39
491.41	311.29
491.59	313.63
491.77	262.14
491.95	229.37
492.13	271.50
492.30	250.44
492.48	243.42
492.66	238.73
492.84	163.84
493.01	227.03
493.19	189.58
493.37	301.93
493.54	287.89
493.72	229.37
493.90	208.31
494.08	243.42
494.25	224.69
494.43	283.20
494.61	257.46
494.79	234.05
494.96	238.73
495.14	210.65
495.32	224.69
495.49	187.24
495.67	168.52
495.85	182.56
496.02	264.48
496.20	252.78
496.38	269.16
496.55	236.39
496.73	308.95
496.91	278.52
497.09	257.46
497.26	182.56
497.44	229.37
497.62	273.84
497.79	203.63
497.97	234.05
498.14	243.42
498.32	252.78
498.50	227.03
498.67	191.92
498.85	306.61
499.03	198.95
499.20	180.22
499.38	212.99
499.56	222.35
499.73	299.59
499.91	287.89
500.08	287.89
500.26	264.48
500.44	245.76
500.61	238.73
500.79	180.22
500.97	264.48
501.14	222.35
501.32	187.24
501.49	287.89
501.67	220.01
501.84	299.59
502.02	222.35
502.20	217.67
502.37	287.89
502.55	252.78
502.72	250.44
502.90	241.08
503.07	327.68
503.25	283.20
503.43	266.82
503.60	304.27
503.78	285.55
503.95	278.52
504.13	250.44
504.30	210.65
504.48	278.52
504.65	243.42
504.83	257.46
505.01	187.24
505.18	229.37
505.36	227.03
505.53	208.31
505.71	234.05
505.88	262.14
506.06	301.93
506.23	189.58
506.41	245.76
506.58	245.76
506.76	220.01
506.93	215.33
507.11	250.44
507.28	255.12
507.46	266.82
507.63	308.95
507.81	250.44
507.98	241.08
508.16	248.10
508.33	271.50
508.50	290.23
508.68	229.37
508.85	208.31
509.03	273.84
509.20	264.48
509.38	201.29
509.55	255.12
509.73	224.69
509.90	273.84
510.08	224.69
510.25	229.37
510.42	166.18
510.60	241.08
510.77	236.39
510.95	348.74
511.12	273.84
511.30	306.61
511.47	234.05
511.64	351.08
511.82	252.78
511.99	243.42
512.17	236.39
512.34	227.03
512.51	217.67
512.69	196.60
512.86	250.44
513.04	273.84
513.21	262.14
513.38	227.03
513.56	227.03
513.73	273.84
513.90	166.18
514.08	208.31
514.25	266.82
514.43	285.55
514.60	212.99
514.77	337.04
514.95	301.93
515.12	212.99
515.29	297.25
515.47	238.73
515.64	276.18
515.81	212.99
515.99	308.95
516.16	299.59
516.33	243.42
516.51	264.48
516.68	198.95
516.85	248.10
517.03	173.20
517.20	278.52
517.37	234.05
517.54	276.18
517.72	241.08
517.89	304.27
518.06	173.20
518.24	241.08
518.41	220.01
518.58	280.86
518.75	208.31
518.93	304.27
519.10	257.46
519.27	311.29
519.45	210.65
519.62	229.37
519.79	238.73
519.96	224.69
520.14	210.65
520.31	241.08
520.48	229.37
520.65	189.58
520.83	313.63
521.00	241.08
521.17	273.84
521.34	177.88
521.52	283.20
521.69	278.52
521.86	231.71
522.03	318.31
522.20	325.33
522.38	278.52
522.55	245.76
522.72	187.24
522.89	248.10
523.07	252.78
523.24	248.10
523.41	255.12
523.58	236.39
523.75	220.01
523.92	191.92
524.10	248.10
524.27	229.37
524.44	266.82
524.61	344.06
524.78	252.78
524.96	229.37
525.13	212.99
525.30	290.23
525.47	348.74
525.64	320.65
525.81	299.59
525.98	241.08
526.16	297.25
526.33	224.69
526.50	243.42
526.67	234.05
526.84	271.50
527.01	208.31
527.18	227.03
527.36	271.50
527.53	220.01
527.70	243.42
527.87	217.67
528.04	273.84
528.21	264.48
528.38	266.82
528.55	308.95
528.72	266.82
528.89	306.61
529.07	292.57
529.24	252.78
529.41	287.89
529.58	264.48
529.75	271.50
529.92	271.50
530.09	339.38
530.26	292.57
530.43	311.29
530.60	257.46
530.77	290.23
530.94	311.29
531.11	234.05
531.28	304.27
531.46	175.54
531.63	224.69
531.80	222.35
531.97	236.39
532.14	259.80
532.31	266.82
532.48	346.40
532.65	369.80
532.82	332.36
532.99	308.95
533.16	315.97
533.33	320.65
533.50	313.63
533.67	332.36
533.84	404.91
534.01	402.57
534.18	386.19
534.35	341.72
534.52	280.86
534.69	308.95
534.86	273.84
535.03	257.46
535.20	252.78
535.37	379.17
535.54	245.76
535.71	290.23
535.88	348.74
536.05	276.18
536.22	318.31
536.38	210.65
536.55	306.61
536.72	369.80
536.89	245.76
537.06	271.50
537.23	322.99
537.40	280.86
537.57	280.86
537.74	341.72
537.91	285.55
538.08	241.08
538.25	290.23
538.42	304.27
538.59	313.63
538.75	301.93
538.92	332.36
539.09	332.36
539.26	304.27
539.43	568.75
539.60	870.68
539.77	1266.23
539.94	1146.86
540.11	847.27
540.28	610.88
540.44	573.43
540.61	442.36
540.78	344.06
540.95	390.87
541.12	437.68
541.29	449.38
541.46	547.69
541.62	486.83
541.79	521.94
541.96	500.87
542.13	458.74
542.30	451.72
542.47	451.72
542.63	451.72
542.80	507.90
542.97	465.77
543.14	397.89
543.31	477.47
543.48	383.85
543.64	526.62
543.81	376.83
543.98	332.36
544.15	404.91
544.32	468.11
544.48	479.81
544.65	440.02
544.82	425.98
544.99	416.62
545.16	477.47
545.32	449.38
545.49	657.69
545.66	730.25
545.83	784.08
546.00	695.14
546.16	517.26
546.33	526.62
546.50	397.89
546.67	376.83
546.83	388.53
547.00	358.10
547.17	330.02
547.34	400.23
547.50	425.98
547.67	330.02
547.84	355.76
548.00	369.80
548.17	351.08
548.34	337.04
548.51	367.46
548.67	327.68
548.84	381.51
549.01	372.15
549.18	276.18
549.34	372.15
549.51	386.19
549.68	339.38
549.84	341.72
550.01	351.08
550.18	402.57
550.34	430.66
550.51	362.78
550.68	353.42
550.84	299.59
551.01	339.38
551.18	315.97
551.34	273.84
551.51	301.93
551.68	262.14
551.84	362.78
552.01	306.61
552.18	222.35
552.34	262.14
552.51	320.65
552.68	283.20
552.84	306.61
553.01	229.37
553.18	337.04
553.34	353.42
553.51	297.25
553.67	339.38
553.84	325.33
554.01	334.70
554.17	255.12
554.34	229.37
554.51	201.29
554.67	250.44
554.84	315.97
555.00	341.72
555.17	266.82
555.33	337.04
555.50	337.04
555.67	304.27
555.83	287.89
556.00	301.93
556.16	393.21
556.33	287.89
556.50	231.71
556.66	229.37
556.83	259.80
556.99	287.89
557.16	245.76
557.32	210.65
557.49	227.03
557.65	285.55
557.82	227.03
557.98	264.48
558.15	243.42
558.32	224.69
558.48	255.12
558.65	315.97
558.81	248.10
558.98	224.69
559.14	210.65
559.31	255.12
559.47	133.41
559.64	262.14
559.80	215.33
559.97	280.86
560.13	287.89
560.30	266.82
560.46	250.44
560.63	264.48
560.79	215.33
560.96	308.95
561.12	259.80
561.29	287.89
561.45	283.20
561.61	311.29
561.78	315.97
561.94	222.35
562.11	236.39
562.27	320.65
562.44	308.95
562.60	245.76
562.77	147.45
562.93	334.70
563.10	339.38
563.26	210.65
563.42	318.31
563.59	262.14
563.75	276.18
563.92	208.31
564.08	269.16
564.24	248.10
564.41	339.38
564.57	280.86
564.74	248.10
564.90	271.50
565.07	322.99
565.23	320.65
565.39	257.46
565.56	332.36
565.72	304.27
565.88	217.67
566.05	252.78
566.21	287.89
566.38	325.33
566.54	252.78
566.70	201.29
566.87	290.23
567.03	250.44
567.19	227.03
567.36	299.59
567.52	271.50
567.68	196.60
567.85	304.27
568.01	229.37
568.17	294.91
568.34	276.18
568.50	341.72
568.66	339.38
568.83	369.80
568.99	301.93
569.15	248.10
569.32	287.89
569.48	210.65
569.64	212.99
569.81	245.76
569.97	241.08
570.13	184.90
570.30	238.73
570.46	212.99
570.62	182.56
570.78	278.52
570.95	245.76
571.11	283.20
571.27	337.04
571.43	273.84
571.60	339.38
571.76	337.04
571.92	283.20
572.09	248.10
572.25	208.31
572.41	266.82
572.57	236.39
572.74	266.82
572.90	311.29
573.06	320.65
573.22	255.12
573.38	301.93
573.55	220.01
573.71	351.08
573.87	280.86
574.03	238.73
574.20	294.91
574.36	334.70
574.52	292.57
574.68	304.27
574.84	297.25
575.01	320.65
575.17	306.61
575.33	283.20
575.49	283.20
575.65	325.33
575.82	318.31
575.98	421.30
576.14	561.73
576.30	589.82
576.46	543.00
576.62	423.64
576.79	440.02
576.95	369.80
577.11	292.57
577.27	255.12
577.43	243.42
577.59	299.59
577.75	344.06
577.92	280.86
578.08	271.50
578.24	318.31
578.40	374.49
578.56	322.99
578.72	423.64
578.88	322.99
579.04	369.80
579.21	362.78
579.37	273.84
579.53	402.57
579.69	353.42
579.85	290.23
580.01	348.74
580.17	409.59
580.33	337.04
580.49	311.29
580.65	320.65
580.82	318.31
580.98	353.42
581.14	332.36
581.30	344.06
581.46	411.93
581.62	500.87
581.78	613.22
581.94	496.19
582.10	468.11
582.26	463.43
582.42	449.38
582.58	425.98
582.74	365.12
582.90	435.34
583.06	407.25
583.22	418.96
583.38	451.72
583.54	500.87
583.70	418.96
583.86	557.05
584.02	627.26
584.18	716.20
584.34	866.00
584.50	2064.35
584.66	13912.14
584.82	37771.57
584.98	54251.28
585.14	49780.85
585.30	31929.59
585.46	19152.60
585.62	11880.56
585.78	5509.62
585.94	2286.70
586.10	1203.04
586.26	739.61
586.42	690.46
586.58	585.13
586.74	594.50
586.90	543.00
587.06	486.83
587.22	585.13
587.38	423.64
587.54	798.12
587.70	2167.34
587.86	3789.33
588.02	4140.41
588.18	3066.10
588.34	1923.92
588.49	1282.61
588.65	812.17
588.81	531.30
588.97	327.68
589.13	283.20
589.29	306.61
589.45	304.27
589.61	280.86
589.77	367.46
589.93	341.72
590.08	381.51
590.24	344.06
590.40	437.68
590.56	320.65
590.72	395.55
590.88	414.27
591.04	365.12
591.20	430.66
591.35	374.49
591.51	379.17
591.67	327.68
591.83	327.68
591.99	332.36
592.15	294.91
592.31	320.65
592.46	344.06
592.62	278.52
592.78	276.18
592.94	362.78
593.10	334.70
593.26	381.51
593.41	390.87
593.57	454.06
593.73	503.22
593.89	1966.05
594.05	4475.10
594.20	6878.83
594.36	6792.23
594.52	4645.96
594.68	3016.95
594.84	1970.73
594.99	1214.74
595.15	620.24
595.31	402.57
595.47	381.51
595.62	297.25
595.78	346.40
595.94	290.23
596.10	341.72
596.25	362.78
596.41	334.70
596.57	294.91
596.73	355.76
596.88	390.87
597.04	950.26
597.20	1575.18
597.36	1884.13
597.51	1432.41
597.67	1086.01
597.83	716.20
597.99	599.18
598.14	351.08
598.30	308.95
598.46	332.36
598.61	341.72
598.77	339.38
598.93	397.89
599.09	318.31
599.24	306.61
599.40	264.48
599.56	271.50
599.71	280.86
599.87	315.97
600.03	304.27
600.18	353.42
600.34	304.27
600.50	248.10
600.65	220.01
600.81	259.80
600.97	299.59
601.12	304.27
601.28	290.23
601.44	304.27
601.59	280.86
601.75	339.38
601.91	241.08
602.06	292.57
602.22	360.44
602.37	526.62
602.53	1324.74
602.69	1851.36
602.84	1947.33
603.00	1418.36
603.16	1008.77
603.31	791.10
603.47	540.66
603.62	362.78
603.78	311.29
603.94	346.40
604.09	241.08
604.25	294.91
604.40	308.95
604.56	294.91
604.71	264.48
604.87	201.29
605.03	273.84
605.18	287.89
605.34	351.08
605.49	285.55
605.65	367.46
605.80	304.27
605.96	332.36
606.12	355.76
606.27	334.70
606.43	271.50
606.58	339.38
606.74	564.07
606.89	2127.55
607.05	4510.21
607.20	6012.84
607.36	4983.00
607.51	3337.60
607.67	2380.32
607.82	1589.22
607.98	968.98
608.13	596.84
608.29	486.83
608.44	489.17
608.60	489.17
608.75	526.62
608.91	854.30
609.06	3314.20
609.22	7461.63
609.37	10022.17
609.53	8795.73
609.68	5991.77
609.84	3948.48
609.99	2813.32
610.15	1671.14
610.30	971.32
610.46	753.65
610.61	786.42
610.76	819.19
610.92	814.51
611.07	894.08
611.23	856.64
611.38	812.17
611.54	737.27
611.69	702.16
611.84	615.56
612.00	571.09
612.15	545.34
612.31	655.35
612.46	674.07
612.62	697.48
612.77	767.70
612.92	645.99
613.08	662.37
613.23	601.52
613.39	580.45
613.54	777.06
613.69	3129.30
613.85	9008.72
614.00	15014.54
614.15	16402.47
614.31	11887.58
614.46	7850.16
614.62	5088.32
614.77	3241.64
614.92	1586.88
615.08	863.66
615.23	582.79
615.38	482.15
615.54	465.77
615.69	767.70
615.84	1907.54
616.00	3384.41
616.15	4393.19
616.30	3524.85
616.46	2509.05
616.61	1732.00
616.76	1327.08
616.92	720.88
617.07	468.11
617.22	339.38
617.37	395.55
617.53	428.32
617.68	339.38
617.83	259.80
617.99	337.04
618.14	308.95
618.29	313.63
618.45	287.89
618.60	285.55
618.75	238.73
618.90	210.65
619.06	271.50
619.21	285.55
619.36	292.57
619.51	285.55
619.67	210.65
619.82	304.27
619.97	290.23
620.12	348.74
620.28	250.44
620.43	257.46
620.58	402.57
620.73	334.70
620.89	330.02
621.04	393.21
621.19	1062.60
621.34	2005.84
621.49	2647.15
621.65	2361.60
621.80	1713.27
621.95	1245.16
622.10	905.79
622.25	587.47
622.41	381.51
622.56	351.08
622.71	407.25
622.86	318.31
623.01	278.52
623.16	308.95
623.32	212.99
623.47	306.61
623.62	229.37
623.77	299.59
623.92	264.48
624.07	189.58
624.23	292.57
624.38	229.37
624.53	306.61
624.68	351.08
624.83	320.65
624.98	325.33
625.13	248.10
625.29	241.08
625.44	362.78
625.59	297.25
625.74	285.55
625.89	538.32
626.04	1579.86
626.19	4622.56
626.34	7763.56
626.49	8674.03
626.65	6239.87
626.80	4367.44
626.95	3021.63
627.10	1837.32
627.25	1048.56
627.40	568.75
627.55	470.45
627.70	299.59
627.85	299.59
628.00	252.78
628.15	257.46
628.30	262.14
628.45	271.50
628.60	250.44
628.76	315.97
628.91	304.27
629.06	283.20
629.21	278.52
629.36	278.52
629.51	241.08
629.66	217.67
629.81	440.02
629.96	957.28
630.11	1680.50
630.26	2197.76
630.41	2115.84
630.56	1458.15
630.71	1067.28
630.86	849.61
631.01	603.86
631.16	414.27
631.31	418.96
631.46	376.83
631.61	341.72
631.76	299.59
631.91	231.71
632.06	337.04
632.21	229.37
632.36	346.40
632.51	362.78
632.66	355.76
632.81	809.83
632.96	2469.27
633.10	4610.86
633.25	5860.70
633.40	4999.38
633.55	3258.03
633.70	2345.22
633.85	1582.20
634.00	898.77
634.15	552.37
634.30	358.10
634.45	320.65
634.60	269.16
634.75	250.44
634.90	269.16
635.05	306.61
635.19	332.36
635.34	262.14
635.49	308.95
635.64	238.73
635.79	243.42
635.94	198.95
636.09	257.46
636.24	341.72
636.39	280.86
636.53	339.38
636.68	287.89
636.83	376.83
636.98	346.40
637.13	341.72
637.28	318.31
637.43	393.21
637.57	526.62
637.72	2122.87
637.87	5872.40
638.02	9680.46
638.17	11162.01
638.32	8088.89
638.46	5472.17
638.61	3812.73
638.76	2401.39
638.91	1240.48
639.06	641.31
639.20	573.43
639.35	517.26
639.50	669.39
639.65	3105.89
639.80	8662.32
639.94	14427.06
640.09	16528.86
640.24	12374.41
640.39	8229.32
640.54	5692.18
640.68	3471.01
640.83	1776.47
640.98	849.61
641.13	503.22
641.27	407.25
641.42	320.65
641.57	301.93
641.72	383.85
641.86	259.80
642.01	337.04
642.16	280.86
642.31	262.14
642.45	339.38
642.60	304.27
642.75	259.80
642.90	241.08
643.04	245.76
643.19	236.39
643.34	257.46
643.48	243.42
643.63	259.80
643.78	257.46
643.93	264.48
644.07	271.50
644.22	135.75
644.37	210.65
644.51	308.95
644.66	325.33
644.81	264.48
644.95	229.37
645.10	138.09
645.25	290.23
645.39	278.52
645.54	205.97
645.69	210.65
645.83	224.69
645.98	304.27
646.13	215.33
646.27	248.10
646.42	166.18
646.57	224.69
646.71	227.03
646.86	255.12
647.00	168.52
647.15	255.12
647.30	224.69
647.44	191.92
647.59	163.84
647.74	273.84
647.88	276.18
648.03	196.60
648.17	203.63
648.32	180.22
648.47	259.80
648.61	210.65
648.76	278.52
648.90	304.27
649.05	280.86
649.20	196.60
649.34	252.78
649.49	236.39
649.63	287.89
649.78	297.25
649.92	374.49
650.07	1160.91
650.21	3953.16
650.36	7012.24
650.51	8758.28
650.65	7145.66
650.80	5015.77
650.94	3309.52
651.09	2188.40
651.23	1214.74
651.38	662.37
651.52	425.98
651.67	348.74
651.81	294.91
651.96	208.31
652.10	252.78
652.25	255.12
652.39	259.80
652.54	334.70
652.68	433.00
652.83	1338.79
652.97	2356.92
653.12	3225.26
653.26	2855.45
653.41	2115.84
653.55	1563.48
653.70	1011.11
653.84	655.35
653.99	402.57
654.13	264.48
654.27	210.65
654.42	187.24
654.56	168.52
654.71	220.01
654.85	217.67
655.00	236.39
655.14	231.71
655.29	184.90
655.43	248.10
655.57	196.60
655.72	238.73
655.86	252.78
656.01	259.80
656.15	255.12
656.30	297.25
656.44	161.50
656.58	231.71
656.73	262.14
656.87	236.39
657.01	222.35
657.16	283.20
657.30	255.12
657.45	278.52
657.59	173.20
657.73	194.26
657.88	259.80
658.02	325.33
658.16	222.35
658.31	292.57
658.45	187.24
658.60	145.11
658.74	248.10
658.88	175.54
659.03	273.84
659.17	271.50
659.31	580.45
659.46	1823.28
659.60	3442.93
659.74	4271.48
659.89	3906.35
660.03	2977.16
660.17	2066.69
660.32	1247.51
660.46	772.38
660.60	524.28
660.74	402.57
660.89	292.57
661.03	203.63
661.17	332.36
661.32	327.68
661.46	255.12
661.60	224.69
661.74	313.63
661.89	294.91
662.03	224.69
662.17	252.78
662.31	224.69
662.46	205.97
662.60	259.80
662.74	152.13
662.88	191.92
663.03	236.39
663.17	154.48
663.31	264.48
663.45	250.44
663.60	175.54
663.74	161.50
663.88	248.10
664.02	208.31
664.17	180.22
664.31	159.16
664.45	229.37
664.59	241.08
664.73	278.52
664.88	308.95
665.02	234.05
665.16	250.44
665.30	264.48
665.44	140.43
665.59	187.24
665.73	262.14
665.87	198.95
666.01	248.10
666.15	208.31
666.29	210.65
666.44	259.80
666.58	264.48
666.72	241.08
666.86	271.50
667.00	308.95
667.14	397.89
667.28	1219.42
667.43	3379.73
667.57	5874.74
667.71	7625.47
667.85	6551.16
667.99	4884.70
668.13	3138.66
668.27	1940.30
668.41	1144.52
668.56	660.03
668.70	470.45
668.84	327.68
668.98	362.78
669.12	294.91
669.26	278.52
669.40	299.59
669.54	334.70
669.68	234.05
669.82	238.73
669.96	163.84
670.10	248.10
670.25	241.08
670.39	212.99
670.53	182.56
670.67	245.76
670.81	217.67
670.95	238.73
671.09	430.66
671.23	1313.04
671.37	2895.24
671.51	4145.09
671.65	4861.29
671.79	3819.75
671.93	2647.15
672.07	1675.82
672.21	1086.01
672.35	608.54
672.49	360.44
672.63	358.10
672.77	353.42
672.91	250.44
673.05	182.56
673.19	159.16
673.33	217.67
673.47	220.01
673.61	173.20
673.75	210.65
673.89	252.78
674.03	220.01
674.17	198.95
674.31	184.90
674.45	231.71
674.59	166.18
674.73	241.08
674.87	264.48
675.01	191.92
675.15	212.99
675.29	280.86
675.43	203.63
675.56	234.05
675.70	273.84
675.84	243.42
675.98	152.13
676.12	189.58
676.26	163.84
676.40	117.03
676.54	102.98
676.68	184.90
676.82	252.78
676.96	205.97
677.10	224.69
677.23	152.13
677.37	166.18
677.51	262.14
677.65	236.39
677.79	159.16
677.93	210.65
678.07	257.46
678.21	191.92
678.34	227.03
678.48	168.52
678.62	175.54
678.76	163.84
678.90	180.22
679.04	163.84
679.18	205.97
679.31	189.58
679.45	191.92
679.59	262.14
679.73	154.48
679.87	184.90
680.00	215.33
680.14	152.13
680.28	170.86
680.42	198.95
680.56	217.67
680.70	191.92
680.83	220.01
680.97	245.76
681.11	224.69
681.25	241.08
681.39	231.71
681.52	170.86
681.66	168.52
681.80	205.97
681.94	154.48
682.07	175.54
682.21	224.69
682.35	187.24
682.49	147.45
682.62	264.48
682.76	210.65
682.90	149.79
683.04	241.08
683.17	147.45
683.31	205.97
683.45	149.79
683.59	201.29
683.72	138.09
683.86	175.54
684.00	131.07
684.13	227.03
684.27	205.97
684.41	173.20
684.55	191.92
684.68	236.39
684.82	161.50
684.96	220.01
685.09	152.13
685.23	238.73
685.37	198.95
685.50	231.71
685.64	210.65
685.78	156.82
685.91	191.92
686.05	236.39
686.19	114.69
686.32	135.75
686.46	163.84
686.60	168.52
686.73	196.60
686.87	330.02
687.01	168.52
687.14	173.20
687.28	220.01
687.42	205.97
687.55	182.56
687.69	182.56
687.82	138.09
687.96	238.73
688.10	241.08
688.23	168.52
688.37	189.58
688.50	241.08
688.64	175.54
688.78	180.22
688.91	81.92
689.05	128.73
689.18	168.52
689.32	238.73
689.46	126.39
689.59	175.54
689.73	175.54
689.86	114.69
690.00	170.86
690.13	121.71
690.27	194.26
690.41	203.63
690.54	182.56
690.68	238.73
690.81	133.41
690.95	166.18
691.08	182.56
691.22	170.86
691.35	203.63
691.49	203.63
691.62	112.35
691.76	163.84
691.89	156.82
692.03	152.13
692.16	156.82
692.30	229.37
692.43	531.30
692.57	1500.28
692.70	2537.14
692.84	3414.84
692.97	3225.26
693.11	2340.54
693.24	1797.53
693.38	1217.08
693.51	798.12
693.65	603.86
693.78	388.53
693.92	304.27
694.05	255.12
694.19	198.95
694.32	245.76
694.45	196.60
694.59	187.24
694.72	234.05
694.86	124.05
694.99	173.20
695.13	138.09
695.26	229.37
695.39	119.37
695.53	168.52
695.66	163.84
695.80	266.82
695.93	166.18
696.07	168.52
696.20	285.55
696.33	313.63
696.47	322.99
696.60	390.87
696.73	369.80
696.87	332.36
697.00	255.12
697.14	159.16
697.27	142.77
697.40	189.58
697.54	189.58
697.67	234.05
697.80	149.79
697.94	177.88
698.07	212.99
698.21	203.63
698.34	210.65
698.47	145.11
698.61	166.18
698.74	95.96
698.87	276.18
699.01	145.11
699.14	229.37
699.27	257.46
699.40	231.71
699.54	88.94
699.67	198.95
699.80	138.09
699.94	168.52
700.07	205.97
700.20	156.82
700.34	168.52
700.47	161.50
700.60	201.29
700.73	152.13
700.87	170.86
701.00	173.20
701.13	161.50
701.26	156.82
701.40	203.63
701.53	124.05
701.66	154.48
701.79	224.69
701.93	187.24
702.06	262.14
702.19	299.59
702.32	433.00
702.46	351.08
702.59	320.65
702.72	465.77
702.85	1767.10
702.99	3751.88
703.12	5394.93
703.25	6101.78
703.38	5160.88
703.51	4259.78
703.65	3330.58
703.78	2417.77
703.91	1596.25
704.04	1116.44
704.17	758.33
704.31	521.94
704.44	334.70
704.57	313.63
704.70	163.84
704.83	255.12
704.96	269.16
705.10	184.90
705.23	229.37
>>>>>End Processed Spectral Data<<<<<
