SpectraSuite Data File
++++++++++++++++++++++++++++++++++++
Date: Fri Oct 04 11:33:56 GMT-05:00 2013
User: price-jones
Dark Spectrum Present: No
Reference Spectrum Present: No
Number of Sampled Component Spectra: 1
Spectrometers: USB2+H05261
Integration Time (usec): 100000 (USB2+H05261)
Spectra Averaged: 1 (USB2+H05261)
Boxcar Smoothing: 0 (USB2+H05261)
Correct for Electrical Dark: No (USB2+H05261)
Strobe/Lamp Enabled: No (USB2+H05261)
Correct for Detector Non-linearity: No (USB2+H05261)
Correct for Stray Light: No (USB2+H05261)
Number of Pixels in Processed Spectrum: 2048
>>>>>Begin Processed Spectral Data<<<<<
365.73	86.60
365.92	86.60
366.12	86.60
366.32	49.15
366.52	0.00
366.72	35.11
366.91	0.00
367.11	0.00
367.31	0.00
367.51	4.68
367.70	0.00
367.90	0.00
368.10	0.00
368.30	0.00
368.49	0.00
368.69	0.00
368.89	0.00
369.09	0.00
369.28	0.00
369.48	0.00
369.68	0.00
369.87	30.43
370.07	30.43
370.27	117.03
370.47	110.01
370.66	53.83
370.86	100.64
371.06	77.24
371.25	133.41
371.45	84.26
371.65	133.41
371.84	147.45
372.04	105.32
372.24	145.11
372.44	70.22
372.63	173.20
372.83	135.75
373.03	95.96
373.22	149.79
373.42	100.64
373.62	168.52
373.81	170.86
374.01	187.24
374.21	187.24
374.40	147.45
374.60	227.03
374.79	112.35
374.99	60.85
375.19	149.79
375.38	184.90
375.58	128.73
375.78	217.67
375.97	154.48
376.17	166.18
376.37	154.48
376.56	161.50
376.76	119.37
376.95	149.79
377.15	126.39
377.35	124.05
377.54	131.07
377.74	126.39
377.93	152.13
378.13	156.82
378.33	210.65
378.52	184.90
378.72	161.50
378.91	145.11
379.11	173.20
379.31	140.43
379.50	86.60
379.70	180.22
379.89	175.54
380.09	117.03
380.28	138.09
380.48	107.66
380.68	119.37
380.87	124.05
381.07	117.03
381.26	173.20
381.46	79.58
381.65	189.58
381.85	166.18
382.04	88.94
382.24	154.48
382.43	135.75
382.63	166.18
382.83	203.63
383.02	191.92
383.22	114.69
383.41	156.82
383.61	145.11
383.80	154.48
384.00	117.03
384.19	159.16
384.39	121.71
384.58	119.37
384.78	121.71
384.97	145.11
385.17	154.48
385.36	159.16
385.56	154.48
385.75	126.39
385.95	100.64
386.14	135.75
386.34	119.37
386.53	128.73
386.72	91.28
386.92	245.76
387.11	149.79
387.31	112.35
387.50	133.41
387.70	93.62
387.89	170.86
388.09	156.82
388.28	168.52
388.48	102.98
388.67	112.35
388.86	217.67
389.06	114.69
389.25	135.75
389.45	163.84
389.64	102.98
389.84	133.41
390.03	152.13
390.22	135.75
390.42	140.43
390.61	110.01
390.81	95.96
391.00	128.73
391.19	138.09
391.39	198.95
391.58	166.18
391.78	196.60
391.97	142.77
392.16	175.54
392.36	173.20
392.55	182.56
392.75	114.69
392.94	133.41
393.13	196.60
393.33	77.24
393.52	142.77
393.71	191.92
393.91	229.37
394.10	88.94
394.29	93.62
394.49	259.80
394.68	191.92
394.88	98.30
395.07	220.01
395.26	217.67
395.46	189.58
395.65	168.52
395.84	119.37
396.04	292.57
396.23	138.09
396.42	79.58
396.62	161.50
396.81	180.22
397.00	180.22
397.19	191.92
397.39	180.22
397.58	138.09
397.77	124.05
397.97	138.09
398.16	126.39
398.35	208.31
398.55	140.43
398.74	201.29
398.93	124.05
399.12	86.60
399.32	149.79
399.51	112.35
399.70	159.16
399.90	212.99
400.09	98.30
400.28	236.39
400.47	131.07
400.67	142.77
400.86	98.30
401.05	121.71
401.24	177.88
401.44	210.65
401.63	98.30
401.82	187.24
402.01	220.01
402.21	147.45
402.40	110.01
402.59	177.88
402.78	102.98
402.97	117.03
403.17	196.60
403.36	142.77
403.55	227.03
403.74	140.43
403.93	280.86
404.13	229.37
404.32	259.80
404.51	154.48
404.70	95.96
404.89	117.03
405.09	187.24
405.28	215.33
405.47	102.98
405.66	161.50
405.85	177.88
406.05	208.31
406.24	135.75
406.43	102.98
406.62	117.03
406.81	266.82
407.00	248.10
407.20	180.22
407.39	142.77
407.58	110.01
407.77	187.24
407.96	191.92
408.15	142.77
408.34	154.48
408.54	170.86
408.73	159.16
408.92	114.69
409.11	166.18
409.30	170.86
409.49	194.26
409.68	236.39
409.87	196.60
410.07	224.69
410.26	147.45
410.45	191.92
410.64	156.82
410.83	126.39
411.02	173.20
411.21	107.66
411.40	163.84
411.59	95.96
411.78	156.82
411.98	67.88
412.17	102.98
412.36	159.16
412.55	224.69
412.74	159.16
412.93	224.69
413.12	170.86
413.31	180.22
413.50	124.05
413.69	128.73
413.88	168.52
414.07	121.71
414.26	145.11
414.45	156.82
414.64	163.84
414.83	198.95
415.02	217.67
415.22	238.73
415.41	168.52
415.60	177.88
415.79	177.88
415.98	187.24
416.17	133.41
416.36	184.90
416.55	147.45
416.74	189.58
416.93	140.43
417.12	175.54
417.31	112.35
417.50	166.18
417.69	234.05
417.88	262.14
418.07	145.11
418.26	98.30
418.45	128.73
418.64	257.46
418.83	215.33
419.02	163.84
419.21	147.45
419.39	191.92
419.58	177.88
419.77	184.90
419.96	203.63
420.15	182.56
420.34	156.82
420.53	161.50
420.72	189.58
420.91	215.33
421.10	234.05
421.29	163.84
421.48	140.43
421.67	184.90
421.86	205.97
422.05	117.03
422.24	131.07
422.43	95.96
422.61	161.50
422.80	173.20
422.99	259.80
423.18	173.20
423.37	259.80
423.56	142.77
423.75	147.45
423.94	138.09
424.13	117.03
424.32	124.05
424.50	170.86
424.69	88.94
424.88	194.26
425.07	114.69
425.26	198.95
425.45	301.93
425.64	257.46
425.83	203.63
426.01	315.97
426.20	168.52
426.39	210.65
426.58	177.88
426.77	147.45
426.96	257.46
427.15	252.78
427.33	166.18
427.52	175.54
427.71	205.97
427.90	93.62
428.09	156.82
428.28	236.39
428.46	117.03
428.65	175.54
428.84	215.33
429.03	126.39
429.22	173.20
429.40	173.20
429.59	121.71
429.78	217.67
429.97	135.75
430.16	133.41
430.34	198.95
430.53	255.12
430.72	203.63
430.91	248.10
431.10	112.35
431.28	212.99
431.47	159.16
431.66	201.29
431.85	128.73
432.03	166.18
432.22	222.35
432.41	184.90
432.60	168.52
432.79	208.31
432.97	248.10
433.16	285.55
433.35	257.46
433.54	198.95
433.72	184.90
433.91	182.56
434.10	198.95
434.28	196.60
434.47	180.22
434.66	163.84
434.85	184.90
435.03	229.37
435.22	355.76
435.41	486.83
435.59	407.25
435.78	283.20
435.97	294.91
436.16	168.52
436.34	110.01
436.53	147.45
436.72	159.16
436.90	173.20
437.09	224.69
437.28	236.39
437.46	131.07
437.65	142.77
437.84	163.84
438.02	208.31
438.21	159.16
438.40	241.08
438.58	152.13
438.77	168.52
438.96	86.60
439.14	187.24
439.33	128.73
439.52	126.39
439.70	173.20
439.89	224.69
440.08	110.01
440.26	145.11
440.45	308.95
440.63	241.08
440.82	205.97
441.01	210.65
441.19	170.86
441.38	175.54
441.57	203.63
441.75	180.22
441.94	227.03
442.12	210.65
442.31	168.52
442.50	222.35
442.68	180.22
442.87	227.03
443.05	142.77
443.24	280.86
443.43	189.58
443.61	191.92
443.80	243.42
443.98	163.84
444.17	168.52
444.35	203.63
444.54	234.05
444.73	187.24
444.91	187.24
445.10	159.16
445.28	198.95
445.47	166.18
445.65	142.77
445.84	95.96
446.02	205.97
446.21	161.50
446.39	152.13
446.58	194.26
446.77	163.84
446.95	177.88
447.14	187.24
447.32	205.97
447.51	119.37
447.69	234.05
447.88	154.48
448.06	220.01
448.25	147.45
448.43	196.60
448.62	168.52
448.80	210.65
448.99	212.99
449.17	194.26
449.36	124.05
449.54	215.33
449.73	161.50
449.91	283.20
450.10	182.56
450.28	220.01
450.46	215.33
450.65	166.18
450.83	191.92
451.02	203.63
451.20	205.97
451.39	128.73
451.57	107.66
451.76	236.39
451.94	173.20
452.13	173.20
452.31	196.60
452.49	208.31
452.68	159.16
452.86	163.84
453.05	236.39
453.23	166.18
453.42	177.88
453.60	191.92
453.78	287.89
453.97	243.42
454.15	168.52
454.34	168.52
454.52	189.58
454.70	236.39
454.89	154.48
455.07	114.69
455.26	154.48
455.44	220.01
455.62	187.24
455.81	238.73
455.99	184.90
456.17	138.09
456.36	201.29
456.54	191.92
456.73	142.77
456.91	201.29
457.09	168.52
457.28	250.44
457.46	131.07
457.64	210.65
457.83	119.37
458.01	121.71
458.19	196.60
458.38	135.75
458.56	184.90
458.74	191.92
458.93	149.79
459.11	217.67
459.29	140.43
459.48	180.22
459.66	212.99
459.84	175.54
460.03	187.24
460.21	248.10
460.39	110.01
460.57	245.76
460.76	203.63
460.94	173.20
461.12	241.08
461.31	170.86
461.49	168.52
461.67	196.60
461.85	266.82
462.04	149.79
462.22	638.97
462.40	262.14
462.59	222.35
462.77	124.05
462.95	269.16
463.13	131.07
463.32	163.84
463.50	217.67
463.68	159.16
463.86	243.42
464.05	166.18
464.23	220.01
464.41	248.10
464.59	217.67
464.78	189.58
464.96	163.84
465.14	201.29
465.32	105.32
465.50	201.29
465.69	168.52
465.87	135.75
466.05	187.24
466.23	210.65
466.41	184.90
466.60	145.11
466.78	203.63
466.96	180.22
467.14	121.71
467.32	212.99
467.51	191.92
467.69	154.48
467.87	166.18
468.05	198.95
468.23	250.44
468.41	156.82
468.60	170.86
468.78	205.97
468.96	229.37
469.14	203.63
469.32	215.33
469.50	180.22
469.69	264.48
469.87	187.24
470.05	161.50
470.23	191.92
470.41	154.48
470.59	128.73
470.77	224.69
470.95	177.88
471.14	191.92
471.32	208.31
471.50	184.90
471.68	191.92
471.86	173.20
472.04	212.99
472.22	147.45
472.40	203.63
472.58	154.48
472.77	175.54
472.95	194.26
473.13	250.44
473.31	245.76
473.49	138.09
473.67	203.63
473.85	161.50
474.03	201.29
474.21	205.97
474.39	243.42
474.57	294.91
474.75	203.63
474.93	220.01
475.12	147.45
475.30	238.73
475.48	156.82
475.66	220.01
475.84	266.82
476.02	159.16
476.20	215.33
476.38	180.22
476.56	278.52
476.74	168.52
476.92	262.14
477.10	250.44
477.28	255.12
477.46	229.37
477.64	280.86
477.82	203.63
478.00	203.63
478.18	198.95
478.36	173.20
478.54	182.56
478.72	212.99
478.90	210.65
479.08	250.44
479.26	220.01
479.44	245.76
479.62	168.52
479.80	264.48
479.98	210.65
480.16	180.22
480.34	236.39
480.52	189.58
480.70	210.65
480.88	198.95
481.06	231.71
481.24	173.20
481.41	241.08
481.59	278.52
481.77	280.86
481.95	227.03
482.13	250.44
482.31	229.37
482.49	224.69
482.67	250.44
482.85	250.44
483.03	217.67
483.21	175.54
483.39	252.78
483.57	248.10
483.74	259.80
483.92	177.88
484.10	252.78
484.28	264.48
484.46	299.59
484.64	210.65
484.82	191.92
485.00	187.24
485.18	234.05
485.35	238.73
485.53	259.80
485.71	264.48
485.89	278.52
486.07	201.29
486.25	313.63
486.43	255.12
486.61	318.31
486.78	264.48
486.96	234.05
487.14	351.08
487.32	238.73
487.50	264.48
487.68	215.33
487.85	238.73
488.03	236.39
488.21	255.12
488.39	231.71
488.57	222.35
488.75	262.14
488.92	528.96
489.10	269.16
489.28	313.63
489.46	191.92
489.64	191.92
489.81	241.08
489.99	276.18
490.17	236.39
490.35	229.37
490.53	248.10
490.70	184.90
490.88	315.97
491.06	198.95
491.24	290.23
491.41	278.52
491.59	222.35
491.77	191.92
491.95	220.01
492.13	215.33
492.30	269.16
492.48	252.78
492.66	266.82
492.84	198.95
493.01	196.60
493.19	238.73
493.37	306.61
493.54	248.10
493.72	294.91
493.90	208.31
494.08	308.95
494.25	280.86
494.43	229.37
494.61	245.76
494.79	217.67
494.96	255.12
495.14	231.71
495.32	315.97
495.49	283.20
495.67	184.90
495.85	250.44
496.02	262.14
496.20	315.97
496.38	215.33
496.55	318.31
496.73	278.52
496.91	290.23
497.09	280.86
497.26	231.71
497.44	266.82
497.62	189.58
497.79	285.55
497.97	283.20
498.14	269.16
498.32	264.48
498.50	280.86
498.67	229.37
498.85	250.44
499.03	266.82
499.20	250.44
499.38	145.11
499.56	241.08
499.73	301.93
499.91	269.16
500.08	308.95
500.26	252.78
500.44	236.39
500.61	238.73
500.79	161.50
500.97	257.46
501.14	278.52
501.32	358.10
501.49	234.05
501.67	266.82
501.84	252.78
502.02	238.73
502.20	271.50
502.37	250.44
502.55	238.73
502.72	191.92
502.90	271.50
503.07	220.01
503.25	175.54
503.43	250.44
503.60	285.55
503.78	266.82
503.95	196.60
504.13	241.08
504.30	283.20
504.48	383.85
504.65	257.46
504.83	243.42
505.01	189.58
505.18	255.12
505.36	212.99
505.53	215.33
505.71	266.82
505.88	224.69
506.06	220.01
506.23	175.54
506.41	255.12
506.58	311.29
506.76	264.48
506.93	229.37
507.11	196.60
507.28	194.26
507.46	222.35
507.63	266.82
507.81	189.58
507.98	229.37
508.16	220.01
508.33	269.16
508.50	280.86
508.68	264.48
508.85	191.92
509.03	168.52
509.20	271.50
509.38	255.12
509.55	245.76
509.73	278.52
509.90	248.10
510.08	194.26
510.25	278.52
510.42	250.44
510.60	241.08
510.77	301.93
510.95	259.80
511.12	245.76
511.30	278.52
511.47	315.97
511.64	386.19
511.82	337.04
511.99	248.10
512.17	252.78
512.34	248.10
512.51	283.20
512.69	198.95
512.86	257.46
513.04	231.71
513.21	236.39
513.38	278.52
513.56	283.20
513.73	273.84
513.90	196.60
514.08	175.54
514.25	266.82
514.43	292.57
514.60	222.35
514.77	285.55
514.95	262.14
515.12	248.10
515.29	210.65
515.47	299.59
515.64	262.14
515.81	273.84
515.99	285.55
516.16	269.16
516.33	229.37
516.51	201.29
516.68	229.37
516.85	222.35
517.03	234.05
517.20	229.37
517.37	250.44
517.54	205.97
517.72	217.67
517.89	255.12
518.06	224.69
518.24	344.06
518.41	332.36
518.58	269.16
518.75	208.31
518.93	252.78
519.10	292.57
519.27	210.65
519.45	311.29
519.62	255.12
519.79	327.68
519.96	280.86
520.14	243.42
520.31	285.55
520.48	196.60
520.65	276.18
520.83	234.05
521.00	243.42
521.17	339.38
521.34	276.18
521.52	322.99
521.69	285.55
521.86	224.69
522.03	353.42
522.20	365.12
522.38	224.69
522.55	217.67
522.72	229.37
522.89	358.10
523.07	304.27
523.24	212.99
523.41	210.65
523.58	222.35
523.75	280.86
523.92	264.48
524.10	325.33
524.27	301.93
524.44	348.74
524.61	198.95
524.78	287.89
524.96	325.33
525.13	322.99
525.30	318.31
525.47	311.29
525.64	238.73
525.81	283.20
525.98	306.61
526.16	327.68
526.33	243.42
526.50	283.20
526.67	245.76
526.84	220.01
527.01	299.59
527.18	304.27
527.36	222.35
527.53	266.82
527.70	285.55
527.87	252.78
528.04	325.33
528.21	250.44
528.38	315.97
528.55	390.87
528.72	346.40
528.89	325.33
529.07	271.50
529.24	283.20
529.41	294.91
529.58	220.01
529.75	304.27
529.92	243.42
530.09	250.44
530.26	280.86
530.43	327.68
530.60	290.23
530.77	308.95
530.94	322.99
531.11	231.71
531.28	320.65
531.46	299.59
531.63	276.18
531.80	283.20
531.97	264.48
532.14	283.20
532.31	236.39
532.48	322.99
532.65	383.85
532.82	400.23
532.99	383.85
533.16	369.80
533.33	362.78
533.50	358.10
533.67	346.40
533.84	470.45
534.01	367.46
534.18	341.72
534.35	292.57
534.52	376.83
534.69	315.97
534.86	315.97
535.03	301.93
535.20	236.39
535.37	313.63
535.54	313.63
535.71	243.42
535.88	376.83
536.05	322.99
536.22	313.63
536.38	290.23
536.55	297.25
536.72	285.55
536.89	266.82
537.06	330.02
537.23	334.70
537.40	276.18
537.57	337.04
537.74	332.36
537.91	346.40
538.08	358.10
538.25	215.33
538.42	280.86
538.59	266.82
538.75	362.78
538.92	327.68
539.09	395.55
539.26	315.97
539.43	468.11
539.60	980.68
539.77	1350.49
539.94	1235.80
540.11	849.61
540.28	622.58
540.44	496.19
540.61	437.68
540.78	423.64
540.95	430.66
541.12	447.04
541.29	517.26
541.46	559.39
541.62	531.30
541.79	559.39
541.96	540.66
542.13	472.79
542.30	540.66
542.47	451.72
542.63	500.87
542.80	454.06
542.97	477.47
543.14	507.90
543.31	425.98
543.48	538.32
543.64	496.19
543.81	498.53
543.98	454.06
544.15	489.17
544.32	454.06
544.48	430.66
544.65	491.51
544.82	491.51
544.99	512.58
545.16	484.49
545.32	519.60
545.49	751.31
545.66	887.06
545.83	844.93
546.00	840.25
546.16	683.44
546.33	575.77
546.50	550.03
546.67	475.13
546.83	468.11
547.00	409.59
547.17	404.91
547.34	409.59
547.50	320.65
547.67	397.89
547.84	346.40
548.00	402.57
548.17	397.89
548.34	304.27
548.51	418.96
548.67	397.89
548.84	402.57
549.01	390.87
549.18	390.87
549.34	332.36
549.51	322.99
549.68	290.23
549.84	301.93
550.01	339.38
550.18	414.27
550.34	400.23
550.51	337.04
550.68	341.72
550.84	355.76
551.01	297.25
551.18	278.52
551.34	374.49
551.51	283.20
551.68	344.06
551.84	278.52
552.01	318.31
552.18	292.57
552.34	313.63
552.51	278.52
552.68	276.18
552.84	269.16
553.01	285.55
553.18	250.44
553.34	292.57
553.51	304.27
553.67	273.84
553.84	285.55
554.01	344.06
554.17	252.78
554.34	276.18
554.51	290.23
554.67	308.95
554.84	292.57
555.00	250.44
555.17	355.76
555.33	411.93
555.50	299.59
555.67	365.12
555.83	304.27
556.00	299.59
556.16	407.25
556.33	271.50
556.50	210.65
556.66	285.55
556.83	271.50
556.99	259.80
557.16	318.31
557.32	215.33
557.49	276.18
557.65	273.84
557.82	212.99
557.98	222.35
558.15	234.05
558.32	327.68
558.48	283.20
558.65	292.57
558.81	248.10
558.98	238.73
559.14	283.20
559.31	231.71
559.47	259.80
559.64	231.71
559.80	231.71
559.97	257.46
560.13	278.52
560.30	285.55
560.46	325.33
560.63	271.50
560.79	252.78
560.96	318.31
561.12	220.01
561.29	224.69
561.45	259.80
561.61	271.50
561.78	311.29
561.94	259.80
562.11	217.67
562.27	229.37
562.44	168.52
562.60	255.12
562.77	222.35
562.93	311.29
563.10	320.65
563.26	276.18
563.42	332.36
563.59	292.57
563.75	259.80
563.92	308.95
564.08	304.27
564.24	238.73
564.41	236.39
564.57	301.93
564.74	276.18
564.90	269.16
565.07	250.44
565.23	222.35
565.39	297.25
565.56	325.33
565.72	337.04
565.88	292.57
566.05	220.01
566.21	236.39
566.38	276.18
566.54	250.44
566.70	278.52
566.87	287.89
567.03	250.44
567.19	220.01
567.36	271.50
567.52	248.10
567.68	222.35
567.85	215.33
568.01	222.35
568.17	325.33
568.34	320.65
568.50	278.52
568.66	271.50
568.83	348.74
568.99	262.14
569.15	259.80
569.32	248.10
569.48	322.99
569.64	182.56
569.81	224.69
569.97	245.76
570.13	308.95
570.30	269.16
570.46	231.71
570.62	229.37
570.78	285.55
570.95	212.99
571.11	276.18
571.27	262.14
571.43	344.06
571.60	287.89
571.76	294.91
571.92	346.40
572.09	278.52
572.25	236.39
572.41	315.97
572.57	227.03
572.74	266.82
572.90	292.57
573.06	315.97
573.22	128.73
573.38	337.04
573.55	311.29
573.71	273.84
573.87	362.78
574.03	264.48
574.20	292.57
574.36	358.10
574.52	344.06
574.68	299.59
574.84	369.80
575.01	330.02
575.17	330.02
575.33	285.55
575.49	320.65
575.65	360.44
575.82	332.36
575.98	475.13
576.14	580.45
576.30	610.88
576.46	550.03
576.62	552.37
576.79	482.15
576.95	430.66
577.11	390.87
577.27	292.57
577.43	416.62
577.59	381.51
577.75	372.15
577.92	301.93
578.08	327.68
578.24	334.70
578.40	285.55
578.56	411.93
578.72	465.77
578.88	503.22
579.04	407.25
579.21	418.96
579.37	360.44
579.53	348.74
579.69	402.57
579.85	388.53
580.01	346.40
580.17	402.57
580.33	393.21
580.49	402.57
580.65	407.25
580.82	358.10
580.98	337.04
581.14	374.49
581.30	454.06
581.46	435.34
581.62	543.00
581.78	582.79
581.94	458.74
582.10	463.43
582.26	463.43
582.42	444.70
582.58	442.36
582.74	472.79
582.90	428.32
583.06	470.45
583.22	491.51
583.38	472.79
583.54	538.32
583.70	683.44
583.86	636.63
584.02	671.73
584.18	816.85
584.34	1039.20
584.50	2630.76
584.66	18546.40
584.82	45975.14
584.98	56837.57
585.14	53207.40
585.30	35061.22
585.46	21198.23
585.62	13090.62
585.78	6225.82
585.94	2485.65
586.10	1334.11
586.26	889.40
586.42	748.97
586.58	720.88
586.74	582.79
586.90	599.18
587.06	540.66
587.22	519.60
587.38	564.07
587.54	1069.62
587.70	2759.49
587.86	4325.31
588.02	4561.70
588.18	3370.37
588.34	2218.83
588.49	1472.20
588.65	1015.79
588.81	517.26
588.97	411.93
589.13	337.04
589.29	334.70
589.45	243.42
589.61	315.97
589.77	411.93
589.93	414.27
590.08	456.40
590.24	461.09
590.40	451.72
590.56	376.83
590.72	472.79
590.88	344.06
591.04	348.74
591.20	313.63
591.35	411.93
591.51	348.74
591.67	301.93
591.83	304.27
591.99	416.62
592.15	435.34
592.31	325.33
592.46	346.40
592.62	414.27
592.78	318.31
592.94	322.99
593.10	290.23
593.26	337.04
593.41	456.40
593.57	470.45
593.73	498.53
593.89	2317.13
594.05	5614.95
594.20	8028.04
594.36	7456.95
594.52	4917.47
594.68	3150.36
594.84	2097.12
594.99	1249.85
595.15	631.94
595.31	421.30
595.47	414.27
595.62	294.91
595.78	360.44
595.94	358.10
596.10	404.91
596.25	411.93
596.41	397.89
596.57	299.59
596.73	423.64
596.88	524.28
597.04	1177.29
597.20	1748.38
597.36	2085.42
597.51	1626.67
597.67	1137.50
597.83	821.53
597.99	713.86
598.14	491.51
598.30	437.68
598.46	341.72
598.61	430.66
598.77	308.95
598.93	285.55
599.09	379.17
599.24	252.78
599.40	308.95
599.56	337.04
599.71	376.83
599.87	369.80
600.03	388.53
600.18	266.82
600.34	311.29
600.50	292.57
600.65	259.80
600.81	346.40
600.97	297.25
601.12	301.93
601.28	320.65
601.44	362.78
601.59	280.86
601.75	278.52
601.91	273.84
602.06	266.82
602.22	372.15
602.37	636.63
602.53	1444.11
602.69	1980.09
602.84	2132.23
603.00	1568.16
603.16	1254.53
603.31	814.51
603.47	667.05
603.62	400.23
603.78	332.36
603.94	344.06
604.09	311.29
604.25	379.17
604.40	348.74
604.56	285.55
604.71	311.29
604.87	198.95
605.03	327.68
605.18	320.65
605.34	341.72
605.49	325.33
605.65	327.68
605.80	327.68
605.96	330.02
606.12	273.84
606.27	402.57
606.43	311.29
606.58	414.27
606.74	692.80
606.89	2698.64
607.05	5317.70
607.20	6682.23
607.36	5614.95
607.51	3761.24
607.67	2527.78
607.82	1750.72
607.98	1057.92
608.13	526.62
608.29	479.81
608.44	442.36
608.60	475.13
608.75	547.69
608.91	1032.18
609.06	4205.94
609.22	8748.92
609.37	11576.29
609.53	10139.20
609.68	6958.41
609.84	4521.92
609.99	3138.66
610.15	1863.07
610.30	1074.31
610.46	786.42
610.61	938.55
610.76	882.38
610.92	1018.13
611.07	1034.52
611.23	1041.54
611.38	1064.94
611.54	924.51
611.69	828.55
611.84	711.52
612.00	606.20
612.15	578.11
612.31	699.82
612.46	791.10
612.62	765.36
612.77	774.72
612.92	732.59
613.08	678.76
613.23	706.84
613.39	645.99
613.54	844.93
613.69	3864.22
613.85	10785.19
614.00	17083.57
614.15	18214.05
614.31	12758.26
614.46	8372.10
614.62	5755.38
614.77	3473.36
614.92	1645.40
615.08	896.43
615.23	763.01
615.38	557.05
615.54	484.49
615.69	805.14
615.84	2270.32
616.00	3922.74
616.15	4851.93
616.30	3988.27
616.46	2881.20
616.61	1987.11
616.76	1387.94
616.92	823.87
617.07	582.79
617.22	409.59
617.37	320.65
617.53	369.80
617.68	334.70
617.83	327.68
617.99	376.83
618.14	365.12
618.29	374.49
618.45	332.36
618.60	280.86
618.75	259.80
618.90	294.91
619.06	365.12
619.21	381.51
619.36	372.15
619.51	351.08
619.67	287.89
619.82	308.95
619.97	311.29
620.12	320.65
620.28	292.57
620.43	320.65
620.58	428.32
620.73	271.50
620.89	379.17
621.04	521.94
621.19	1266.23
621.34	2305.43
621.49	2892.90
621.65	2567.57
621.80	1884.13
621.95	1301.34
622.10	968.98
622.25	580.45
622.41	435.34
622.56	355.76
622.71	325.33
622.86	369.80
623.01	315.97
623.16	322.99
623.32	290.23
623.47	294.91
623.62	334.70
623.77	346.40
623.92	266.82
624.07	320.65
624.23	271.50
624.38	285.55
624.53	320.65
624.68	374.49
624.83	376.83
624.98	278.52
625.13	308.95
625.29	290.23
625.44	355.76
625.59	411.93
625.74	388.53
625.89	454.06
626.04	1956.69
626.19	5465.15
626.34	8259.75
626.49	9373.85
626.65	7026.29
626.80	4734.90
626.95	3232.28
627.10	2017.54
627.25	1046.22
627.40	648.33
627.55	376.83
627.70	301.93
627.85	297.25
628.00	294.91
628.15	308.95
628.30	327.68
628.45	271.50
628.60	278.52
628.76	322.99
628.91	308.95
629.06	259.80
629.21	212.99
629.36	346.40
629.51	299.59
629.66	252.78
629.81	418.96
629.96	1196.01
630.11	1963.71
630.26	2537.14
630.41	2104.14
630.56	1715.61
630.71	1146.86
630.86	943.24
631.01	552.37
631.16	442.36
631.31	440.02
631.46	332.36
631.61	397.89
631.76	360.44
631.91	301.93
632.06	339.38
632.21	308.95
632.36	451.72
632.51	341.72
632.66	442.36
632.81	917.49
632.96	3122.27
633.10	5336.42
633.25	6235.19
633.40	5284.93
633.55	3852.52
633.70	2534.80
633.85	1703.91
634.00	1039.20
634.15	627.26
634.30	400.23
634.45	341.72
634.60	301.93
634.75	273.84
634.90	297.25
635.05	337.04
635.19	248.10
635.34	238.73
635.49	313.63
635.64	292.57
635.79	224.69
635.94	313.63
636.09	280.86
636.24	315.97
636.39	266.82
636.53	304.27
636.68	271.50
636.83	262.14
636.98	269.16
637.13	341.72
637.28	355.76
637.43	472.79
637.57	620.24
637.72	2614.38
637.87	6869.47
638.02	10757.10
638.17	11590.33
638.32	8643.60
638.46	5837.30
638.61	4177.86
638.76	2450.54
638.91	1329.42
639.06	709.18
639.20	613.22
639.35	559.39
639.50	751.31
639.65	3882.95
639.80	10553.48
639.94	16606.10
640.09	17823.18
640.24	13305.95
640.39	9224.05
640.54	6235.19
640.68	3784.65
640.83	1874.77
640.98	976.00
641.13	547.69
641.27	418.96
641.42	449.38
641.57	367.46
641.72	397.89
641.86	383.85
642.01	362.78
642.16	285.55
642.31	290.23
642.45	294.91
642.60	241.08
642.75	208.31
642.90	294.91
643.04	250.44
643.19	191.92
643.34	255.12
643.48	306.61
643.63	269.16
643.78	250.44
643.93	273.84
644.07	205.97
644.22	208.31
644.37	203.63
644.51	271.50
644.66	294.91
644.81	205.97
644.95	304.27
645.10	189.58
645.25	215.33
645.39	248.10
645.54	184.90
645.69	273.84
645.83	241.08
645.98	241.08
646.13	154.48
646.27	285.55
646.42	234.05
646.57	241.08
646.71	224.69
646.86	231.71
647.00	292.57
647.15	142.77
647.30	262.14
647.44	266.82
647.59	306.61
647.74	201.29
647.88	271.50
648.03	238.73
648.17	241.08
648.32	250.44
648.47	191.92
648.61	292.57
648.76	248.10
648.90	203.63
649.05	292.57
649.20	212.99
649.34	311.29
649.49	229.37
649.63	318.31
649.78	322.99
649.92	463.43
650.07	1474.54
650.21	4571.07
650.36	7679.30
650.51	9320.01
650.65	7644.19
650.80	5364.51
650.94	3632.51
651.09	2300.75
651.23	1238.14
651.38	697.48
651.52	376.83
651.67	337.04
651.81	243.42
651.96	266.82
652.10	243.42
652.25	238.73
652.39	194.26
652.54	259.80
652.68	535.98
652.83	1540.07
652.97	2588.63
653.12	3316.54
653.26	3047.38
653.41	2155.63
653.55	1654.76
653.70	1001.75
653.84	681.10
653.99	433.00
654.13	297.25
654.27	290.23
654.42	224.69
654.56	245.76
654.71	243.42
654.85	191.92
655.00	248.10
655.14	224.69
655.29	173.20
655.43	224.69
655.57	280.86
655.72	159.16
655.86	208.31
656.01	184.90
656.15	210.65
656.30	234.05
656.44	205.97
656.58	229.37
656.73	231.71
656.87	189.58
657.01	278.52
657.16	255.12
657.30	201.29
657.45	196.60
657.59	210.65
657.73	241.08
657.88	198.95
658.02	238.73
658.16	212.99
658.31	203.63
658.45	177.88
658.60	177.88
658.74	208.31
658.88	222.35
659.03	299.59
659.17	358.10
659.31	800.46
659.46	2181.38
659.60	3566.98
659.74	4760.65
659.89	4140.41
660.03	3152.70
660.17	2106.48
660.32	1348.15
660.46	800.46
660.60	521.94
660.74	362.78
660.89	250.44
661.03	285.55
661.17	220.01
661.32	198.95
661.46	182.56
661.60	243.42
661.74	252.78
661.89	215.33
662.03	238.73
662.17	266.82
662.31	215.33
662.46	248.10
662.60	208.31
662.74	210.65
662.88	234.05
663.03	278.52
663.17	175.54
663.31	180.22
663.45	166.18
663.60	210.65
663.74	205.97
663.88	234.05
664.02	133.41
664.17	234.05
664.31	262.14
664.45	196.60
664.59	241.08
664.73	224.69
664.88	255.12
665.02	177.88
665.16	227.03
665.30	292.57
665.44	196.60
665.59	262.14
665.73	262.14
665.87	227.03
666.01	283.20
666.15	248.10
666.29	264.48
666.44	245.76
666.58	315.97
666.72	276.18
666.86	236.39
667.00	259.80
667.14	425.98
667.28	1394.96
667.43	3990.61
667.57	6546.48
667.71	8086.55
667.85	6792.23
667.99	5177.26
668.13	3473.36
668.27	2097.12
668.41	1128.14
668.56	723.23
668.70	463.43
668.84	297.25
668.98	196.60
669.12	252.78
669.26	238.73
669.40	301.93
669.54	269.16
669.68	224.69
669.82	250.44
669.96	248.10
670.10	238.73
670.25	280.86
670.39	271.50
670.53	168.52
670.67	205.97
670.81	212.99
670.95	257.46
671.09	449.38
671.23	1519.01
671.37	3253.34
671.51	4690.43
671.65	5139.82
671.79	3948.48
671.93	2803.96
672.07	1783.49
672.21	1039.20
672.35	512.58
672.49	339.38
672.63	428.32
672.77	252.78
672.91	243.42
673.05	241.08
673.19	234.05
673.33	170.86
673.47	313.63
673.61	241.08
673.75	189.58
673.89	229.37
674.03	187.24
674.17	147.45
674.31	220.01
674.45	306.61
674.59	264.48
674.73	210.65
674.87	257.46
675.01	339.38
675.15	287.89
675.29	318.31
675.43	248.10
675.56	327.68
675.70	276.18
675.84	273.84
675.98	222.35
676.12	227.03
676.26	131.07
676.40	105.32
676.54	189.58
676.68	271.50
676.82	201.29
676.96	198.95
677.10	161.50
677.23	191.92
677.37	142.77
677.51	212.99
677.65	255.12
677.79	224.69
677.93	252.78
678.07	170.86
678.21	196.60
678.34	241.08
678.48	180.22
678.62	154.48
678.76	142.77
678.90	212.99
679.04	227.03
679.18	177.88
679.31	149.79
679.45	138.09
679.59	156.82
679.73	203.63
679.87	95.96
680.00	236.39
680.14	250.44
680.28	224.69
680.42	177.88
680.56	198.95
680.70	184.90
680.83	205.97
680.97	175.54
681.11	159.16
681.25	259.80
681.39	217.67
681.52	243.42
681.66	269.16
681.80	194.26
681.94	119.37
682.07	147.45
682.21	248.10
682.35	201.29
682.49	227.03
682.62	259.80
682.76	205.97
682.90	189.58
683.04	191.92
683.17	203.63
683.31	229.37
683.45	170.86
683.59	231.71
683.72	236.39
683.86	126.39
684.00	170.86
684.13	187.24
684.27	166.18
684.41	191.92
684.55	112.35
684.68	170.86
684.82	166.18
684.96	189.58
685.09	184.90
685.23	196.60
685.37	170.86
685.50	224.69
685.64	189.58
685.78	168.52
685.91	222.35
686.05	241.08
686.19	308.95
686.32	182.56
686.46	173.20
686.60	128.73
686.73	290.23
686.87	241.08
687.01	215.33
687.14	205.97
687.28	236.39
687.42	149.79
687.55	196.60
687.69	168.52
687.82	105.32
687.96	180.22
688.10	238.73
688.23	203.63
688.37	203.63
688.50	135.75
688.64	194.26
688.78	177.88
688.91	189.58
689.05	170.86
689.18	191.92
689.32	110.01
689.46	168.52
689.59	154.48
689.73	210.65
689.86	170.86
690.00	175.54
690.13	180.22
690.27	119.37
690.41	189.58
690.54	187.24
690.68	175.54
690.81	205.97
690.95	163.84
691.08	208.31
691.22	187.24
691.35	147.45
691.49	88.94
691.62	147.45
691.76	205.97
691.89	191.92
692.03	182.56
692.16	152.13
692.30	205.97
692.43	568.75
692.57	1577.52
692.70	2747.79
692.84	3407.82
692.97	3187.81
693.11	2319.47
693.24	1771.79
693.38	1212.40
693.51	863.66
693.65	676.41
693.78	421.30
693.92	362.78
694.05	292.57
694.19	210.65
694.32	163.84
694.45	154.48
694.59	152.13
694.72	212.99
694.86	189.58
694.99	184.90
695.13	182.56
695.26	163.84
695.39	121.71
695.53	191.92
695.66	175.54
695.80	196.60
695.93	182.56
696.07	159.16
696.20	248.10
696.33	376.83
696.47	376.83
696.60	376.83
696.73	269.16
696.87	290.23
697.00	313.63
697.14	191.92
697.27	210.65
697.40	292.57
697.54	142.77
697.67	177.88
697.80	203.63
697.94	145.11
698.07	259.80
698.21	138.09
698.34	215.33
698.47	187.24
698.61	152.13
698.74	138.09
698.87	231.71
699.01	182.56
699.14	166.18
699.27	224.69
699.40	290.23
699.54	159.16
699.67	248.10
699.80	191.92
699.94	173.20
700.07	163.84
700.20	133.41
700.34	194.26
700.47	163.84
700.60	119.37
700.73	201.29
700.87	175.54
701.00	184.90
701.13	182.56
701.26	248.10
701.40	182.56
701.53	189.58
701.66	154.48
701.79	212.99
701.93	250.44
702.06	304.27
702.19	334.70
702.32	418.96
702.46	372.15
702.59	348.74
702.72	653.01
702.85	2033.93
702.99	4334.67
703.12	5984.75
703.25	6778.19
703.38	6003.47
703.51	4812.14
703.65	3623.15
703.78	2619.06
703.91	1675.82
704.04	1086.01
704.17	695.14
704.31	433.00
704.44	334.70
704.57	201.29
704.70	224.69
704.83	243.42
704.96	264.48
705.10	142.77
705.23	170.86
>>>>>End Processed Spectral Data<<<<<
