SpectraSuite Data File
++++++++++++++++++++++++++++++++++++
Date: Fri Oct 04 11:33:56 GMT-05:00 2013
User: price-jones
Dark Spectrum Present: No
Reference Spectrum Present: No
Number of Sampled Component Spectra: 1
Spectrometers: USB2+H05261
Integration Time (usec): 100000 (USB2+H05261)
Spectra Averaged: 1 (USB2+H05261)
Boxcar Smoothing: 0 (USB2+H05261)
Correct for Electrical Dark: No (USB2+H05261)
Strobe/Lamp Enabled: No (USB2+H05261)
Correct for Detector Non-linearity: No (USB2+H05261)
Correct for Stray Light: No (USB2+H05261)
Number of Pixels in Processed Spectrum: 2048
>>>>>Begin Processed Spectral Data<<<<<
365.73	161.50
365.92	161.50
366.12	161.50
366.32	23.41
366.52	0.00
366.72	0.00
366.91	0.00
367.11	51.49
367.31	0.00
367.51	0.00
367.70	2.34
367.90	35.11
368.10	0.00
368.30	0.00
368.49	0.00
368.69	25.75
368.89	0.00
369.09	7.02
369.28	28.09
369.48	18.72
369.68	14.04
369.87	35.11
370.07	23.41
370.27	35.11
370.47	7.02
370.66	0.00
370.86	53.83
371.06	131.07
371.25	168.52
371.45	140.43
371.65	191.92
371.84	133.41
372.04	77.24
372.24	102.98
372.44	142.77
372.63	102.98
372.83	182.56
373.03	126.39
373.22	128.73
373.42	156.82
373.62	180.22
373.81	191.92
374.01	220.01
374.21	198.95
374.40	191.92
374.60	180.22
374.79	138.09
374.99	177.88
375.19	117.03
375.38	161.50
375.58	142.77
375.78	212.99
375.97	175.54
376.17	231.71
376.37	140.43
376.56	145.11
376.76	142.77
376.95	56.17
377.15	159.16
377.35	110.01
377.54	110.01
377.74	102.98
377.93	140.43
378.13	166.18
378.33	177.88
378.52	163.84
378.72	145.11
378.91	210.65
379.11	173.20
379.31	121.71
379.50	32.77
379.70	88.94
379.89	135.75
380.09	177.88
380.28	215.33
380.48	175.54
380.68	114.69
380.87	110.01
381.07	126.39
381.26	140.43
381.46	147.45
381.65	156.82
381.85	70.22
382.04	201.29
382.24	152.13
382.43	128.73
382.63	100.64
382.83	135.75
383.02	114.69
383.22	184.90
383.41	93.62
383.61	159.16
383.80	117.03
384.00	100.64
384.19	133.41
384.39	152.13
384.58	128.73
384.78	140.43
384.97	222.35
385.17	177.88
385.36	135.75
385.56	135.75
385.75	107.66
385.95	91.28
386.14	152.13
386.34	180.22
386.53	126.39
386.72	159.16
386.92	138.09
387.11	152.13
387.31	182.56
387.50	145.11
387.70	177.88
387.89	81.92
388.09	170.86
388.28	81.92
388.48	110.01
388.67	212.99
388.86	163.84
389.06	145.11
389.25	107.66
389.45	126.39
389.64	156.82
389.84	163.84
390.03	220.01
390.22	173.20
390.42	152.13
390.61	189.58
390.81	124.05
391.00	133.41
391.19	105.32
391.39	149.79
391.58	105.32
391.78	140.43
391.97	126.39
392.16	98.30
392.36	145.11
392.55	138.09
392.75	107.66
392.94	49.15
393.13	147.45
393.33	131.07
393.52	128.73
393.71	177.88
393.91	224.69
394.10	182.56
394.29	227.03
394.49	163.84
394.68	161.50
394.88	201.29
395.07	135.75
395.26	182.56
395.46	205.97
395.65	203.63
395.84	142.77
396.04	276.18
396.23	231.71
396.42	126.39
396.62	198.95
396.81	147.45
397.00	142.77
397.19	152.13
397.39	159.16
397.58	124.05
397.77	159.16
397.97	72.56
398.16	154.48
398.35	170.86
398.55	194.26
398.74	133.41
398.93	170.86
399.12	117.03
399.32	84.26
399.51	117.03
399.70	142.77
399.90	154.48
400.09	241.08
400.28	156.82
400.47	142.77
400.67	154.48
400.86	117.03
401.05	98.30
401.24	184.90
401.44	177.88
401.63	170.86
401.82	126.39
402.01	166.18
402.21	145.11
402.40	201.29
402.59	102.98
402.78	149.79
402.97	37.45
403.17	173.20
403.36	159.16
403.55	201.29
403.74	231.71
403.93	163.84
404.13	266.82
404.32	231.71
404.51	173.20
404.70	194.26
404.89	243.42
405.09	276.18
405.28	224.69
405.47	63.19
405.66	210.65
405.85	126.39
406.05	140.43
406.24	147.45
406.43	159.16
406.62	182.56
406.81	238.73
407.00	194.26
407.20	117.03
407.39	159.16
407.58	126.39
407.77	140.43
407.96	161.50
408.15	149.79
408.34	124.05
408.54	166.18
408.73	147.45
408.92	175.54
409.11	177.88
409.30	168.52
409.49	184.90
409.68	166.18
409.87	224.69
410.07	105.32
410.26	140.43
410.45	67.88
410.64	107.66
410.83	189.58
411.02	182.56
411.21	128.73
411.40	203.63
411.59	140.43
411.78	145.11
411.98	149.79
412.17	170.86
412.36	175.54
412.55	212.99
412.74	236.39
412.93	152.13
413.12	184.90
413.31	203.63
413.50	105.32
413.69	154.48
413.88	138.09
414.07	198.95
414.26	145.11
414.45	154.48
414.64	248.10
414.83	257.46
415.02	170.86
415.22	205.97
415.41	175.54
415.60	131.07
415.79	196.60
415.98	182.56
416.17	212.99
416.36	154.48
416.55	194.26
416.74	128.73
416.93	147.45
417.12	131.07
417.31	112.35
417.50	154.48
417.69	248.10
417.88	236.39
418.07	236.39
418.26	166.18
418.45	191.92
418.64	215.33
418.83	257.46
419.02	238.73
419.21	220.01
419.39	196.60
419.58	208.31
419.77	234.05
419.96	187.24
420.15	201.29
420.34	102.98
420.53	215.33
420.72	147.45
420.91	257.46
421.10	168.52
421.29	182.56
421.48	264.48
421.67	196.60
421.86	173.20
422.05	124.05
422.24	173.20
422.43	175.54
422.61	124.05
422.80	156.82
422.99	189.58
423.18	201.29
423.37	168.52
423.56	166.18
423.75	114.69
423.94	198.95
424.13	205.97
424.32	163.84
424.50	215.33
424.69	175.54
424.88	196.60
425.07	149.79
425.26	287.89
425.45	294.91
425.64	222.35
425.83	212.99
426.01	180.22
426.20	159.16
426.39	177.88
426.58	156.82
426.77	194.26
426.96	208.31
427.15	161.50
427.33	147.45
427.52	189.58
427.71	194.26
427.90	248.10
428.09	147.45
428.28	42.13
428.46	140.43
428.65	173.20
428.84	201.29
429.03	203.63
429.22	170.86
429.40	107.66
429.59	191.92
429.78	191.92
429.97	128.73
430.16	161.50
430.34	196.60
430.53	140.43
430.72	149.79
430.91	203.63
431.10	215.33
431.28	180.22
431.47	243.42
431.66	227.03
431.85	189.58
432.03	154.48
432.22	215.33
432.41	163.84
432.60	212.99
432.79	217.67
432.97	273.84
433.16	248.10
433.35	294.91
433.54	217.67
433.72	194.26
433.91	180.22
434.10	250.44
434.28	234.05
434.47	177.88
434.66	257.46
434.85	163.84
435.03	241.08
435.22	425.98
435.41	435.34
435.59	362.78
435.78	306.61
435.97	227.03
436.16	159.16
436.34	220.01
436.53	241.08
436.72	133.41
436.90	196.60
437.09	208.31
437.28	173.20
437.46	194.26
437.65	222.35
437.84	243.42
438.02	194.26
438.21	196.60
438.40	189.58
438.58	161.50
438.77	170.86
438.96	205.97
439.14	175.54
439.33	217.67
439.52	152.13
439.70	173.20
439.89	231.71
440.08	187.24
440.26	147.45
440.45	210.65
440.63	175.54
440.82	194.26
441.01	201.29
441.19	140.43
441.38	201.29
441.57	231.71
441.75	262.14
441.94	215.33
442.12	142.77
442.31	187.24
442.50	156.82
442.68	110.01
442.87	194.26
443.05	189.58
443.24	201.29
443.43	250.44
443.61	201.29
443.80	241.08
443.98	212.99
444.17	198.95
444.35	161.50
444.54	154.48
444.73	210.65
444.91	194.26
445.10	166.18
445.28	131.07
445.47	163.84
445.65	156.82
445.84	201.29
446.02	149.79
446.21	147.45
446.39	159.16
446.58	102.98
446.77	91.28
446.95	182.56
447.14	259.80
447.32	224.69
447.51	184.90
447.69	138.09
447.88	138.09
448.06	236.39
448.25	205.97
448.43	145.11
448.62	222.35
448.80	220.01
448.99	191.92
449.17	203.63
449.36	159.16
449.54	154.48
449.73	166.18
449.91	205.97
450.10	248.10
450.28	229.37
450.46	280.86
450.65	278.52
450.83	210.65
451.02	117.03
451.20	117.03
451.39	114.69
451.57	168.52
451.76	175.54
451.94	117.03
452.13	142.77
452.31	166.18
452.49	224.69
452.68	198.95
452.86	119.37
453.05	194.26
453.23	117.03
453.42	138.09
453.60	100.64
453.78	147.45
453.97	229.37
454.15	170.86
454.34	198.95
454.52	173.20
454.70	189.58
454.89	194.26
455.07	166.18
455.26	196.60
455.44	135.75
455.62	140.43
455.81	168.52
455.99	208.31
456.17	224.69
456.36	161.50
456.54	161.50
456.73	149.79
456.91	154.48
457.09	252.78
457.28	227.03
457.46	191.92
457.64	198.95
457.83	229.37
458.01	201.29
458.19	182.56
458.38	182.56
458.56	224.69
458.74	182.56
458.93	196.60
459.11	170.86
459.29	227.03
459.48	173.20
459.66	205.97
459.84	138.09
460.03	283.20
460.21	170.86
460.39	205.97
460.57	278.52
460.76	170.86
460.94	269.16
461.12	266.82
461.31	175.54
461.49	177.88
461.67	187.24
461.85	248.10
462.04	283.20
462.22	699.82
462.40	280.86
462.59	252.78
462.77	201.29
462.95	177.88
463.13	198.95
463.32	241.08
463.50	234.05
463.68	170.86
463.86	196.60
464.05	161.50
464.23	234.05
464.41	177.88
464.59	159.16
464.78	215.33
464.96	128.73
465.14	187.24
465.32	191.92
465.50	194.26
465.69	245.76
465.87	152.13
466.05	234.05
466.23	215.33
466.41	205.97
466.60	215.33
466.78	175.54
466.96	210.65
467.14	187.24
467.32	173.20
467.51	140.43
467.69	220.01
467.87	287.89
468.05	224.69
468.23	266.82
468.41	215.33
468.60	241.08
468.78	241.08
468.96	259.80
469.14	250.44
469.32	173.20
469.50	154.48
469.69	177.88
469.87	208.31
470.05	194.26
470.23	198.95
470.41	280.86
470.59	201.29
470.77	187.24
470.95	159.16
471.14	212.99
471.32	154.48
471.50	149.79
471.68	198.95
471.86	203.63
472.04	208.31
472.22	149.79
472.40	154.48
472.58	276.18
472.77	175.54
472.95	229.37
473.13	182.56
473.31	196.60
473.49	168.52
473.67	196.60
473.85	236.39
474.03	173.20
474.21	187.24
474.39	224.69
474.57	306.61
474.75	203.63
474.93	245.76
475.12	161.50
475.30	161.50
475.48	208.31
475.66	177.88
475.84	203.63
476.02	229.37
476.20	236.39
476.38	229.37
476.56	301.93
476.74	217.67
476.92	210.65
477.10	210.65
477.28	257.46
477.46	149.79
477.64	175.54
477.82	276.18
478.00	182.56
478.18	252.78
478.36	203.63
478.54	215.33
478.72	175.54
478.90	212.99
479.08	154.48
479.26	177.88
479.44	159.16
479.62	201.29
479.80	283.20
479.98	175.54
480.16	205.97
480.34	266.82
480.52	231.71
480.70	187.24
480.88	175.54
481.06	236.39
481.24	161.50
481.41	156.82
481.59	238.73
481.77	236.39
481.95	248.10
482.13	255.12
482.31	208.31
482.49	177.88
482.67	252.78
482.85	252.78
483.03	285.55
483.21	227.03
483.39	177.88
483.57	194.26
483.74	224.69
483.92	194.26
484.10	198.95
484.28	294.91
484.46	269.16
484.64	191.92
484.82	271.50
485.00	271.50
485.18	259.80
485.35	255.12
485.53	236.39
485.71	203.63
485.89	236.39
486.07	248.10
486.25	262.14
486.43	283.20
486.61	294.91
486.78	327.68
486.96	248.10
487.14	224.69
487.32	255.12
487.50	180.22
487.68	198.95
487.85	266.82
488.03	229.37
488.21	308.95
488.39	294.91
488.57	168.52
488.75	212.99
488.92	531.30
489.10	290.23
489.28	297.25
489.46	255.12
489.64	229.37
489.81	180.22
489.99	224.69
490.17	205.97
490.35	299.59
490.53	283.20
490.70	257.46
490.88	210.65
491.06	257.46
491.24	273.84
491.41	245.76
491.59	222.35
491.77	266.82
491.95	234.05
492.13	184.90
492.30	238.73
492.48	304.27
492.66	266.82
492.84	245.76
493.01	252.78
493.19	308.95
493.37	320.65
493.54	245.76
493.72	248.10
493.90	292.57
494.08	297.25
494.25	304.27
494.43	304.27
494.61	217.67
494.79	203.63
494.96	245.76
495.14	299.59
495.32	255.12
495.49	255.12
495.67	287.89
495.85	285.55
496.02	278.52
496.20	257.46
496.38	276.18
496.55	259.80
496.73	250.44
496.91	222.35
497.09	276.18
497.26	248.10
497.44	215.33
497.62	278.52
497.79	257.46
497.97	283.20
498.14	278.52
498.32	294.91
498.50	348.74
498.67	262.14
498.85	238.73
499.03	208.31
499.20	222.35
499.38	205.97
499.56	245.76
499.73	304.27
499.91	262.14
500.08	245.76
500.26	208.31
500.44	271.50
500.61	224.69
500.79	243.42
500.97	210.65
501.14	299.59
501.32	262.14
501.49	269.16
501.67	276.18
501.84	255.12
502.02	241.08
502.20	271.50
502.37	227.03
502.55	257.46
502.72	245.76
502.90	264.48
503.07	238.73
503.25	245.76
503.43	224.69
503.60	304.27
503.78	262.14
503.95	337.04
504.13	259.80
504.30	210.65
504.48	320.65
504.65	264.48
504.83	325.33
505.01	170.86
505.18	294.91
505.36	217.67
505.53	337.04
505.71	248.10
505.88	273.84
506.06	301.93
506.23	252.78
506.41	301.93
506.58	215.33
506.76	187.24
506.93	264.48
507.11	271.50
507.28	238.73
507.46	255.12
507.63	325.33
507.81	245.76
507.98	283.20
508.16	285.55
508.33	273.84
508.50	147.45
508.68	285.55
508.85	248.10
509.03	220.01
509.20	299.59
509.38	327.68
509.55	205.97
509.73	252.78
509.90	241.08
510.08	220.01
510.25	285.55
510.42	252.78
510.60	259.80
510.77	315.97
510.95	304.27
511.12	283.20
511.30	250.44
511.47	245.76
511.64	374.49
511.82	297.25
511.99	285.55
512.17	266.82
512.34	273.84
512.51	276.18
512.69	231.71
512.86	294.91
513.04	196.60
513.21	311.29
513.38	194.26
513.56	255.12
513.73	189.58
513.90	229.37
514.08	196.60
514.25	304.27
514.43	351.08
514.60	269.16
514.77	138.09
514.95	269.16
515.12	327.68
515.29	241.08
515.47	248.10
515.64	264.48
515.81	278.52
515.99	241.08
516.16	297.25
516.33	276.18
516.51	259.80
516.68	208.31
516.85	212.99
517.03	259.80
517.20	325.33
517.37	311.29
517.54	301.93
517.72	248.10
517.89	184.90
518.06	264.48
518.24	313.63
518.41	318.31
518.58	285.55
518.75	273.84
518.93	252.78
519.10	306.61
519.27	283.20
519.45	184.90
519.62	276.18
519.79	273.84
519.96	269.16
520.14	248.10
520.31	264.48
520.48	320.65
520.65	304.27
520.83	224.69
521.00	327.68
521.17	283.20
521.34	238.73
521.52	311.29
521.69	318.31
521.86	278.52
522.03	259.80
522.20	315.97
522.38	180.22
522.55	220.01
522.72	250.44
522.89	210.65
523.07	259.80
523.24	238.73
523.41	201.29
523.58	276.18
523.75	262.14
523.92	205.97
524.10	269.16
524.27	273.84
524.44	273.84
524.61	252.78
524.78	248.10
524.96	252.78
525.13	299.59
525.30	259.80
525.47	264.48
525.64	257.46
525.81	325.33
525.98	154.48
526.16	229.37
526.33	299.59
526.50	241.08
526.67	189.58
526.84	245.76
527.01	220.01
527.18	320.65
527.36	269.16
527.53	252.78
527.70	327.68
527.87	301.93
528.04	388.53
528.21	236.39
528.38	306.61
528.55	292.57
528.72	332.36
528.89	341.72
529.07	264.48
529.24	318.31
529.41	250.44
529.58	255.12
529.75	224.69
529.92	255.12
530.09	306.61
530.26	306.61
530.43	276.18
530.60	325.33
530.77	210.65
530.94	245.76
531.11	287.89
531.28	306.61
531.46	212.99
531.63	294.91
531.80	250.44
531.97	259.80
532.14	327.68
532.31	264.48
532.48	313.63
532.65	278.52
532.82	365.12
532.99	414.27
533.16	386.19
533.33	266.82
533.50	276.18
533.67	322.99
533.84	437.68
534.01	418.96
534.18	409.59
534.35	299.59
534.52	351.08
534.69	400.23
534.86	257.46
535.03	318.31
535.20	299.59
535.37	280.86
535.54	301.93
535.71	257.46
535.88	278.52
536.05	285.55
536.22	301.93
536.38	301.93
536.55	320.65
536.72	304.27
536.89	262.14
537.06	308.95
537.23	311.29
537.40	301.93
537.57	227.03
537.74	346.40
537.91	285.55
538.08	362.78
538.25	337.04
538.42	287.89
538.59	339.38
538.75	334.70
538.92	313.63
539.09	337.04
539.26	379.17
539.43	533.64
539.60	1088.35
539.77	1383.26
539.94	1448.79
540.11	1039.20
540.28	660.03
540.44	660.03
540.61	458.74
540.78	470.45
540.95	510.24
541.12	650.67
541.29	456.40
541.46	578.11
541.62	479.81
541.79	594.50
541.96	493.85
542.13	442.36
542.30	463.43
542.47	465.77
542.63	421.30
542.80	458.74
542.97	580.45
543.14	414.27
543.31	519.60
543.48	458.74
543.64	517.26
543.81	440.02
543.98	435.34
544.15	411.93
544.32	547.69
544.48	458.74
544.65	526.62
544.82	486.83
544.99	458.74
545.16	425.98
545.32	475.13
545.49	713.86
545.66	896.43
545.83	912.81
546.00	802.80
546.16	660.03
546.33	500.87
546.50	510.24
546.67	475.13
546.83	409.59
547.00	351.08
547.17	400.23
547.34	379.17
547.50	341.72
547.67	341.72
547.84	411.93
548.00	430.66
548.17	435.34
548.34	372.15
548.51	416.62
548.67	372.15
548.84	386.19
549.01	402.57
549.18	381.51
549.34	421.30
549.51	355.76
549.68	327.68
549.84	374.49
550.01	273.84
550.18	411.93
550.34	367.46
550.51	332.36
550.68	379.17
550.84	358.10
551.01	337.04
551.18	278.52
551.34	280.86
551.51	344.06
551.68	358.10
551.84	297.25
552.01	236.39
552.18	344.06
552.34	369.80
552.51	308.95
552.68	299.59
552.84	322.99
553.01	362.78
553.18	278.52
553.34	241.08
553.51	330.02
553.67	381.51
553.84	262.14
554.01	287.89
554.17	351.08
554.34	238.73
554.51	271.50
554.67	234.05
554.84	243.42
555.00	255.12
555.17	236.39
555.33	334.70
555.50	259.80
555.67	245.76
555.83	299.59
556.00	280.86
556.16	428.32
556.33	290.23
556.50	245.76
556.66	297.25
556.83	278.52
556.99	241.08
557.16	191.92
557.32	269.16
557.49	297.25
557.65	236.39
557.82	353.42
557.98	248.10
558.15	250.44
558.32	283.20
558.48	180.22
558.65	283.20
558.81	285.55
558.98	220.01
559.14	313.63
559.31	229.37
559.47	297.25
559.64	271.50
559.80	269.16
559.97	259.80
560.13	290.23
560.30	243.42
560.46	248.10
560.63	294.91
560.79	191.92
560.96	294.91
561.12	287.89
561.29	250.44
561.45	238.73
561.61	315.97
561.78	292.57
561.94	257.46
562.11	163.84
562.27	283.20
562.44	177.88
562.60	276.18
562.77	250.44
562.93	313.63
563.10	276.18
563.26	248.10
563.42	315.97
563.59	250.44
563.75	276.18
563.92	266.82
564.08	306.61
564.24	245.76
564.41	269.16
564.57	264.48
564.74	320.65
564.90	266.82
565.07	236.39
565.23	304.27
565.39	346.40
565.56	304.27
565.72	257.46
565.88	311.29
566.05	152.13
566.21	189.58
566.38	306.61
566.54	269.16
566.70	306.61
566.87	236.39
567.03	203.63
567.19	227.03
567.36	262.14
567.52	269.16
567.68	264.48
567.85	241.08
568.01	259.80
568.17	280.86
568.34	243.42
568.50	262.14
568.66	248.10
568.83	360.44
568.99	241.08
569.15	290.23
569.32	278.52
569.48	280.86
569.64	248.10
569.81	250.44
569.97	224.69
570.13	273.84
570.30	182.56
570.46	285.55
570.62	245.76
570.78	271.50
570.95	194.26
571.11	250.44
571.27	271.50
571.43	205.97
571.60	271.50
571.76	283.20
571.92	266.82
572.09	283.20
572.25	269.16
572.41	252.78
572.57	262.14
572.74	346.40
572.90	245.76
573.06	311.29
573.22	227.03
573.38	257.46
573.55	215.33
573.71	301.93
573.87	337.04
574.03	285.55
574.20	334.70
574.36	334.70
574.52	369.80
574.68	341.72
574.84	353.42
575.01	334.70
575.17	276.18
575.33	264.48
575.49	341.72
575.65	297.25
575.82	337.04
575.98	585.13
576.14	685.78
576.30	713.86
576.46	592.16
576.62	589.82
576.79	447.04
576.95	505.56
577.11	383.85
577.27	322.99
577.43	367.46
577.59	266.82
577.75	355.76
577.92	318.31
578.08	297.25
578.24	245.76
578.40	390.87
578.56	383.85
578.72	365.12
578.88	418.96
579.04	383.85
579.21	397.89
579.37	367.46
579.53	353.42
579.69	379.17
579.85	386.19
580.01	397.89
580.17	428.32
580.33	360.44
580.49	362.78
580.65	383.85
580.82	337.04
580.98	362.78
581.14	376.83
581.30	423.64
581.46	472.79
581.62	540.66
581.78	627.26
581.94	613.22
582.10	547.69
582.26	486.83
582.42	475.13
582.58	468.11
582.74	376.83
582.90	507.90
583.06	475.13
583.22	461.09
583.38	465.77
583.54	528.96
583.70	589.82
583.86	580.45
584.02	788.76
584.18	936.21
584.34	1240.48
584.50	2848.43
584.66	21731.87
584.82	52088.62
584.98	61352.46
585.14	58342.53
585.30	42005.59
585.46	25202.89
585.62	15225.18
585.78	7201.83
585.94	2942.05
586.10	1493.26
586.26	1039.20
586.42	807.48
586.58	671.73
586.74	697.48
586.90	781.74
587.06	711.52
587.22	695.14
587.38	580.45
587.54	1163.25
587.70	3066.10
587.86	5046.20
588.02	5446.43
588.18	3808.05
588.34	2621.40
588.49	1708.59
588.65	1069.62
588.81	634.29
588.97	479.81
589.13	362.78
589.29	339.38
589.45	374.49
589.61	360.44
589.77	454.06
589.93	517.26
590.08	381.51
590.24	454.06
590.40	421.30
590.56	442.36
590.72	414.27
590.88	433.00
591.04	498.53
591.20	435.34
591.35	367.46
591.51	369.80
591.67	351.08
591.83	283.20
591.99	355.76
592.15	308.95
592.31	351.08
592.46	358.10
592.62	365.12
592.78	379.17
592.94	344.06
593.10	416.62
593.26	407.25
593.41	425.98
593.57	449.38
593.73	599.18
593.89	2658.85
594.05	6459.88
594.20	9233.41
594.36	8767.65
594.52	5825.59
594.68	3646.55
594.84	2595.65
594.99	1343.47
595.15	688.12
595.31	533.64
595.47	367.46
595.62	330.02
595.78	381.51
595.94	341.72
596.10	365.12
596.25	353.42
596.41	454.06
596.57	346.40
596.73	367.46
596.88	638.97
597.04	1315.38
597.20	2010.52
597.36	2445.86
597.51	1853.70
597.67	1308.36
597.83	837.91
597.99	730.25
598.14	559.39
598.30	500.87
598.46	386.19
598.61	421.30
598.77	470.45
598.93	339.38
599.09	362.78
599.24	315.97
599.40	334.70
599.56	259.80
599.71	271.50
599.87	390.87
600.03	264.48
600.18	294.91
600.34	362.78
600.50	292.57
600.65	273.84
600.81	287.89
600.97	299.59
601.12	327.68
601.28	379.17
601.44	278.52
601.59	325.33
601.75	313.63
601.91	351.08
602.06	322.99
602.22	386.19
602.37	739.61
602.53	1612.63
602.69	2403.73
602.84	2441.18
603.00	1823.28
603.16	1313.04
603.31	933.87
603.47	685.78
603.62	433.00
603.78	358.10
603.94	308.95
604.09	358.10
604.25	278.52
604.40	351.08
604.56	262.14
604.71	243.42
604.87	386.19
605.03	313.63
605.18	248.10
605.34	212.99
605.49	283.20
605.65	414.27
605.80	311.29
605.96	383.85
606.12	311.29
606.27	346.40
606.43	337.04
606.58	383.85
606.74	861.32
606.89	3068.44
607.05	6106.46
607.20	7857.18
607.36	6579.25
607.51	4519.57
607.67	3091.85
607.82	2094.78
607.98	1160.91
608.13	638.97
608.29	528.96
608.44	500.87
608.60	477.47
608.75	545.34
608.91	1067.28
609.06	4943.21
609.22	10394.32
609.37	13781.07
609.53	12102.91
609.68	8074.85
609.84	5411.32
609.99	3784.65
610.15	2090.10
610.30	1256.87
610.46	933.87
610.61	896.43
610.76	915.15
610.92	959.62
611.07	1107.07
611.23	1137.50
611.38	976.00
611.54	861.32
611.69	861.32
611.84	753.65
612.00	746.63
612.15	660.03
612.31	751.31
612.46	847.27
612.62	910.47
612.77	880.04
612.92	688.12
613.08	697.48
613.23	645.99
613.39	631.94
613.54	858.98
613.69	4475.10
613.85	12821.45
614.00	20147.33
614.15	21516.54
614.31	15110.50
614.46	10064.30
614.62	6722.02
614.77	4037.42
614.92	2047.97
615.08	945.58
615.23	725.57
615.38	573.43
615.54	500.87
615.69	1018.13
615.84	2696.30
616.00	4627.24
616.15	5839.64
616.30	4709.16
616.46	3251.00
616.61	2300.75
616.76	1572.84
616.92	877.70
617.07	580.45
617.22	414.27
617.37	330.02
617.53	383.85
617.68	393.21
617.83	358.10
617.99	383.85
618.14	402.57
618.29	297.25
618.45	325.33
618.60	362.78
618.75	255.12
618.90	351.08
619.06	379.17
619.21	308.95
619.36	353.42
619.51	287.89
619.67	231.71
619.82	341.72
619.97	280.86
620.12	301.93
620.28	393.21
620.43	238.73
620.58	285.55
620.73	360.44
620.89	346.40
621.04	554.71
621.19	1462.83
621.34	2530.12
621.49	3239.30
621.65	3002.91
621.80	2228.19
621.95	1451.13
622.10	1121.12
622.25	730.25
622.41	468.11
622.56	360.44
622.71	346.40
622.86	379.17
623.01	264.48
623.16	355.76
623.32	278.52
623.47	273.84
623.62	341.72
623.77	301.93
623.92	241.08
624.07	301.93
624.23	299.59
624.38	297.25
624.53	304.27
624.68	273.84
624.83	339.38
624.98	332.36
625.13	271.50
625.29	355.76
625.44	381.51
625.59	393.21
625.74	383.85
625.89	589.82
626.04	2251.60
626.19	6389.66
626.34	10040.90
626.49	11075.42
626.65	8182.51
626.80	5497.92
626.95	3758.90
627.10	2368.62
627.25	1275.59
627.40	657.69
627.55	472.79
627.70	386.19
627.85	283.20
628.00	276.18
628.15	308.95
628.30	308.95
628.45	269.16
628.60	276.18
628.76	245.76
628.91	344.06
629.06	301.93
629.21	351.08
629.36	322.99
629.51	362.78
629.66	402.57
629.81	482.15
629.96	1186.65
630.11	2317.13
630.26	3066.10
630.41	2689.28
630.56	2019.88
630.71	1387.94
630.86	1008.77
631.01	760.67
631.16	498.53
631.31	379.17
631.46	348.74
631.61	313.63
631.76	365.12
631.91	313.63
632.06	227.03
632.21	358.10
632.36	367.46
632.51	393.21
632.66	456.40
632.81	1064.94
632.96	3501.44
633.10	6270.30
633.25	7662.91
633.40	6087.73
633.55	4344.03
633.70	2988.86
633.85	1975.41
634.00	1036.86
634.15	613.22
634.30	465.77
634.45	351.08
634.60	292.57
634.75	318.31
634.90	269.16
635.05	334.70
635.19	325.33
635.34	292.57
635.49	351.08
635.64	330.02
635.79	255.12
635.94	266.82
636.09	301.93
636.24	346.40
636.39	320.65
636.53	334.70
636.68	201.29
636.83	315.97
636.98	283.20
637.13	388.53
637.28	404.91
637.43	456.40
637.57	692.80
637.72	2986.52
637.87	8009.31
638.02	12510.16
638.17	14232.80
638.32	10272.61
638.46	7187.79
638.61	4706.82
638.76	2951.42
638.91	1479.22
639.06	791.10
639.20	627.26
639.35	608.54
639.50	901.11
639.65	4280.84
639.80	12175.47
639.94	19445.17
640.09	21521.23
640.24	15983.52
640.39	10747.74
640.54	7382.05
640.68	4484.47
640.83	2218.83
640.98	1076.65
641.13	662.37
641.27	421.30
641.42	351.08
641.57	353.42
641.72	325.33
641.86	318.31
642.01	344.06
642.16	393.21
642.31	330.02
642.45	290.23
642.60	386.19
642.75	222.35
642.90	313.63
643.04	271.50
643.19	318.31
643.34	217.67
643.48	290.23
643.63	187.24
643.78	255.12
643.93	306.61
644.07	285.55
644.22	255.12
644.37	271.50
644.51	273.84
644.66	301.93
644.81	273.84
644.95	250.44
645.10	156.82
645.25	276.18
645.39	308.95
645.54	266.82
645.69	320.65
645.83	252.78
645.98	330.02
646.13	215.33
646.27	269.16
646.42	252.78
646.57	208.31
646.71	241.08
646.86	194.26
647.00	241.08
647.15	238.73
647.30	156.82
647.44	269.16
647.59	220.01
647.74	210.65
647.88	201.29
648.03	236.39
648.17	252.78
648.32	250.44
648.47	269.16
648.61	196.60
648.76	180.22
648.90	250.44
649.05	194.26
649.20	208.31
649.34	348.74
649.49	278.52
649.63	299.59
649.78	280.86
649.92	500.87
650.07	1762.42
650.21	5444.09
650.36	9181.92
650.51	10878.81
650.65	9123.41
650.80	6480.94
650.94	4231.69
651.09	2705.66
651.23	1434.75
651.38	821.53
651.52	512.58
651.67	308.95
651.81	318.31
651.96	344.06
652.10	304.27
652.25	236.39
652.39	325.33
652.54	273.84
652.68	578.11
652.83	1813.92
652.97	3098.87
653.12	3953.16
653.26	3454.63
653.41	2640.12
653.55	1844.34
653.70	1261.55
653.84	791.10
653.99	425.98
654.13	346.40
654.27	290.23
654.42	290.23
654.56	205.97
654.71	278.52
654.85	301.93
655.00	163.84
655.14	224.69
655.29	245.76
655.43	217.67
655.57	236.39
655.72	220.01
655.86	194.26
656.01	238.73
656.15	245.76
656.30	259.80
656.44	187.24
656.58	175.54
656.73	187.24
656.87	149.79
657.01	285.55
657.16	252.78
657.30	238.73
657.45	248.10
657.59	220.01
657.73	159.16
657.88	245.76
658.02	318.31
658.16	187.24
658.31	257.46
658.45	236.39
658.60	210.65
658.74	262.14
658.88	269.16
659.03	318.31
659.17	273.84
659.31	873.02
659.46	2438.84
659.60	4372.12
659.74	5605.58
659.89	4856.61
660.03	3693.37
660.17	2527.78
660.32	1556.46
660.46	1013.45
660.60	547.69
660.74	411.93
660.89	337.04
661.03	308.95
661.17	220.01
661.32	187.24
661.46	252.78
661.60	234.05
661.74	205.97
661.89	215.33
662.03	222.35
662.17	187.24
662.31	257.46
662.46	250.44
662.60	271.50
662.74	243.42
662.88	280.86
663.03	215.33
663.17	205.97
663.31	287.89
663.45	243.42
663.60	236.39
663.74	191.92
663.88	198.95
664.02	201.29
664.17	100.64
664.31	276.18
664.45	212.99
664.59	145.11
664.73	180.22
664.88	229.37
665.02	299.59
665.16	191.92
665.30	311.29
665.44	208.31
665.59	276.18
665.73	266.82
665.87	175.54
666.01	180.22
666.15	250.44
666.29	229.37
666.44	276.18
666.58	250.44
666.72	187.24
666.86	280.86
667.00	259.80
667.14	381.51
667.28	1479.22
667.43	4603.83
667.57	7672.28
667.71	9586.83
667.85	8205.92
667.99	6183.70
668.13	3955.51
668.27	2277.34
668.41	1324.74
668.56	842.59
668.70	547.69
668.84	397.89
668.98	318.31
669.12	264.48
669.26	259.80
669.40	320.65
669.54	266.82
669.68	238.73
669.82	163.84
669.96	311.29
670.10	231.71
670.25	234.05
670.39	266.82
670.53	271.50
670.67	152.13
670.81	243.42
670.95	280.86
671.09	547.69
671.23	1734.34
671.37	3634.85
671.51	5710.91
671.65	6040.92
671.79	4814.48
671.93	3400.80
672.07	2069.03
672.21	1256.87
672.35	723.23
672.49	423.64
672.63	416.62
672.77	339.38
672.91	250.44
673.05	194.26
673.19	229.37
673.33	273.84
673.47	285.55
673.61	245.76
673.75	220.01
673.89	248.10
674.03	175.54
674.17	194.26
674.31	255.12
674.45	205.97
674.59	220.01
674.73	283.20
674.87	276.18
675.01	346.40
675.15	297.25
675.29	276.18
675.43	243.42
675.56	271.50
675.70	210.65
675.84	187.24
675.98	283.20
676.12	262.14
676.26	227.03
676.40	138.09
676.54	159.16
676.68	201.29
676.82	292.57
676.96	154.48
677.10	198.95
677.23	196.60
677.37	168.52
677.51	227.03
677.65	236.39
677.79	210.65
677.93	138.09
678.07	131.07
678.21	236.39
678.34	142.77
678.48	252.78
678.62	215.33
678.76	163.84
678.90	220.01
679.04	168.52
679.18	166.18
679.31	140.43
679.45	173.20
679.59	208.31
679.73	243.42
679.87	198.95
680.00	236.39
680.14	159.16
680.28	145.11
680.42	168.52
680.56	285.55
680.70	159.16
680.83	205.97
680.97	201.29
681.11	180.22
681.25	145.11
681.39	133.41
681.52	217.67
681.66	180.22
681.80	234.05
681.94	205.97
682.07	124.05
682.21	168.52
682.35	175.54
682.49	135.75
682.62	208.31
682.76	175.54
682.90	156.82
683.04	170.86
683.17	285.55
683.31	154.48
683.45	177.88
683.59	166.18
683.72	156.82
683.86	189.58
684.00	196.60
684.13	236.39
684.27	177.88
684.41	208.31
684.55	257.46
684.68	168.52
684.82	227.03
684.96	135.75
685.09	212.99
685.23	170.86
685.37	154.48
685.50	231.71
685.64	238.73
685.78	187.24
685.91	215.33
686.05	227.03
686.19	180.22
686.32	220.01
686.46	208.31
686.60	187.24
686.73	227.03
686.87	252.78
687.01	243.42
687.14	177.88
687.28	205.97
687.42	205.97
687.55	168.52
687.69	177.88
687.82	152.13
687.96	212.99
688.10	163.84
688.23	147.45
688.37	229.37
688.50	189.58
688.64	229.37
688.78	196.60
688.91	180.22
689.05	156.82
689.18	135.75
689.32	114.69
689.46	231.71
689.59	227.03
689.73	142.77
689.86	163.84
690.00	208.31
690.13	229.37
690.27	131.07
690.41	168.52
690.54	236.39
690.68	210.65
690.81	145.11
690.95	194.26
691.08	156.82
691.22	196.60
691.35	201.29
691.49	198.95
691.62	215.33
691.76	159.16
691.89	208.31
692.03	159.16
692.16	163.84
692.30	215.33
692.43	636.63
692.57	1806.89
692.70	3304.84
692.84	4060.83
692.97	3843.16
693.11	2768.85
693.24	2036.27
693.38	1432.41
693.51	990.05
693.65	767.70
693.78	498.53
693.92	334.70
694.05	306.61
694.19	278.52
694.32	224.69
694.45	180.22
694.59	138.09
694.72	203.63
694.86	152.13
694.99	304.27
695.13	208.31
695.26	182.56
695.39	201.29
695.53	215.33
695.66	255.12
695.80	276.18
695.93	182.56
696.07	224.69
696.20	320.65
696.33	400.23
696.47	421.30
696.60	337.04
696.73	362.78
696.87	278.52
697.00	257.46
697.14	215.33
697.27	280.86
697.40	210.65
697.54	177.88
697.67	177.88
697.80	168.52
697.94	163.84
698.07	168.52
698.21	163.84
698.34	203.63
698.47	149.79
698.61	161.50
698.74	198.95
698.87	175.54
699.01	149.79
699.14	168.52
699.27	168.52
699.40	292.57
699.54	159.16
699.67	210.65
699.80	212.99
699.94	152.13
700.07	184.90
700.20	187.24
700.34	255.12
700.47	140.43
700.60	173.20
700.73	196.60
700.87	236.39
701.00	166.18
701.13	173.20
701.26	175.54
701.40	234.05
701.53	194.26
701.66	159.16
701.79	180.22
701.93	210.65
702.06	304.27
702.19	353.42
702.32	397.89
702.46	442.36
702.59	376.83
702.72	779.40
702.85	2387.35
702.99	5046.20
703.12	7157.36
703.25	8166.13
703.38	7140.97
703.51	5708.57
703.65	4219.99
703.78	3155.04
703.91	2038.61
704.04	1277.93
704.17	800.46
704.31	533.64
704.44	435.34
704.57	311.29
704.70	248.10
704.83	212.99
704.96	255.12
705.10	203.63
705.23	308.95
>>>>>End Processed Spectral Data<<<<<
