SpectraSuite Data File
++++++++++++++++++++++++++++++++++++
Date: Fri Oct 04 12:13:47 GMT-05:00 2013
User: price-jones
Dark Spectrum Present: No
Reference Spectrum Present: No
Number of Sampled Component Spectra: 1
Spectrometers: USB2+H05261
Integration Time (usec): 1000000 (USB2+H05261)
Spectra Averaged: 1 (USB2+H05261)
Boxcar Smoothing: 0 (USB2+H05261)
Correct for Electrical Dark: No (USB2+H05261)
Strobe/Lamp Enabled: No (USB2+H05261)
Correct for Detector Non-linearity: No (USB2+H05261)
Correct for Stray Light: No (USB2+H05261)
Number of Pixels in Processed Spectrum: 2048
>>>>>Begin Processed Spectral Data<<<<<
365.73	0.00
365.92	0.00
366.12	0.00
366.32	0.00
366.52	0.00
366.72	386.19
366.91	51.49
367.11	205.97
367.31	189.58
367.51	245.76
367.70	346.40
367.90	517.26
368.10	313.63
368.30	304.27
368.49	53.83
368.69	397.89
368.89	217.67
369.09	154.48
369.28	262.14
369.48	114.69
369.68	266.82
369.87	367.46
370.07	222.35
370.27	571.09
370.47	430.66
370.66	346.40
370.86	458.74
371.06	793.44
371.25	929.19
371.45	367.46
371.65	662.37
371.84	299.59
372.04	250.44
372.24	517.26
372.44	362.78
372.63	447.04
372.83	940.90
373.03	505.56
373.22	362.78
373.42	332.36
373.62	454.06
373.81	575.77
374.01	709.18
374.21	606.20
374.40	458.74
374.60	734.93
374.79	418.96
374.99	475.13
375.19	531.30
375.38	585.13
375.58	510.24
375.78	655.35
375.97	610.88
376.17	924.51
376.37	482.15
376.56	557.05
376.76	348.74
376.95	362.78
377.15	526.62
377.35	580.45
377.54	592.16
377.74	435.34
377.93	376.83
378.13	510.24
378.33	711.52
378.52	505.56
378.72	767.70
378.91	697.48
379.11	500.87
379.31	461.09
379.50	280.86
379.70	676.41
379.89	620.24
380.09	416.62
380.28	297.25
380.48	521.94
380.68	458.74
380.87	301.93
381.07	547.69
381.26	795.78
381.46	690.46
381.65	631.94
381.85	514.92
382.04	510.24
382.24	603.86
382.43	433.00
382.63	332.36
382.83	493.85
383.02	720.88
383.22	737.27
383.41	404.91
383.61	507.90
383.80	470.45
384.00	454.06
384.19	477.47
384.39	571.09
384.58	386.19
384.78	634.29
384.97	564.07
385.17	566.41
385.36	402.57
385.56	681.10
385.75	365.12
385.95	383.85
386.14	645.99
386.34	404.91
386.53	521.94
386.72	428.32
386.92	823.87
387.11	524.28
387.31	564.07
387.50	381.51
387.70	330.02
387.89	477.47
388.09	437.68
388.28	353.42
388.48	383.85
388.67	676.41
388.86	500.87
389.06	517.26
389.25	603.86
389.45	526.62
389.64	517.26
389.84	758.33
390.03	608.54
390.22	573.43
390.42	491.51
390.61	285.55
390.81	320.65
391.00	468.11
391.19	716.20
391.39	510.24
391.58	615.56
391.78	514.92
391.97	566.41
392.16	386.19
392.36	777.06
392.55	816.85
392.75	477.47
392.94	379.17
393.13	660.03
393.33	360.44
393.52	440.02
393.71	847.27
393.91	589.82
394.10	339.38
394.29	400.23
394.49	472.79
394.68	566.41
394.88	798.12
395.07	720.88
395.26	538.32
395.46	503.22
395.65	767.70
395.84	587.47
396.04	1128.14
396.23	489.17
396.42	465.77
396.62	559.39
396.81	613.22
397.00	557.05
397.19	587.47
397.39	512.58
397.58	856.64
397.77	512.58
397.97	533.64
398.16	559.39
398.35	765.36
398.55	411.93
398.74	554.71
398.93	727.91
399.12	463.43
399.32	636.63
399.51	458.74
399.70	674.07
399.90	624.92
400.09	589.82
400.28	681.10
400.47	514.92
400.67	655.35
400.86	589.82
401.05	737.27
401.24	802.80
401.44	671.73
401.63	713.86
401.82	770.04
402.01	514.92
402.21	608.54
402.40	582.79
402.59	573.43
402.78	564.07
402.97	531.30
403.17	627.26
403.36	550.03
403.55	461.09
403.74	512.58
403.93	557.05
404.13	800.46
404.32	496.19
404.51	496.19
404.70	770.04
404.89	578.11
405.09	1053.24
405.28	587.47
405.47	484.49
405.66	681.10
405.85	847.27
406.05	678.76
406.24	582.79
406.43	638.97
406.62	706.84
406.81	957.28
407.00	814.51
407.20	610.88
407.39	704.50
407.58	603.86
407.77	786.42
407.96	833.23
408.15	772.38
408.34	816.85
408.54	695.14
408.73	695.14
408.92	627.26
409.11	676.41
409.30	802.80
409.49	440.02
409.68	578.11
409.87	657.69
410.07	496.19
410.26	643.65
410.45	582.79
410.64	540.66
410.83	662.37
411.02	517.26
411.21	737.27
411.40	819.19
411.59	594.50
411.78	620.24
411.98	566.41
412.17	456.40
412.36	531.30
412.55	594.50
412.74	805.14
412.93	968.98
413.12	482.15
413.31	837.91
413.50	821.53
413.69	594.50
413.88	971.32
414.07	741.95
414.26	716.20
414.45	533.64
414.64	753.65
414.83	681.10
415.02	711.52
415.22	842.59
415.41	877.70
415.60	538.32
415.79	603.86
415.98	980.68
416.17	624.92
416.36	685.78
416.55	629.60
416.74	753.65
416.93	833.23
417.12	692.80
417.31	716.20
417.50	580.45
417.69	1062.60
417.88	678.76
418.07	589.82
418.26	681.10
418.45	734.93
418.64	961.96
418.83	784.08
419.02	767.70
419.21	737.27
419.39	755.99
419.58	573.43
419.77	566.41
419.96	954.94
420.15	971.32
420.34	692.80
420.53	711.52
420.72	851.96
420.91	819.19
421.10	760.67
421.29	805.14
421.48	800.46
421.67	950.26
421.86	653.01
422.05	753.65
422.24	688.12
422.43	767.70
422.61	524.28
422.80	643.65
422.99	709.18
423.18	561.73
423.37	978.34
423.56	816.85
423.75	844.93
423.94	669.39
424.13	620.24
424.32	624.92
424.50	727.91
424.69	667.05
424.88	1057.92
425.07	645.99
425.26	695.14
425.45	802.80
425.64	660.03
425.83	580.45
426.01	940.90
426.20	746.63
426.39	650.67
426.58	578.11
426.77	660.03
426.96	997.07
427.15	828.55
427.33	564.07
427.52	653.01
427.71	716.20
427.90	774.72
428.09	727.91
428.28	610.88
428.46	709.18
428.65	798.12
428.84	844.93
429.03	1067.28
429.22	622.58
429.40	617.90
429.59	566.41
429.78	1130.48
429.97	653.01
430.16	587.47
430.34	634.29
430.53	580.45
430.72	655.35
430.91	903.45
431.10	585.13
431.28	751.31
431.47	961.96
431.66	807.48
431.85	624.92
432.03	725.57
432.22	1203.04
432.41	784.08
432.60	933.87
432.79	681.10
432.97	699.82
433.16	617.90
433.35	571.09
433.54	720.88
433.72	894.08
433.91	884.72
434.10	655.35
434.28	767.70
434.47	608.54
434.66	880.04
434.85	638.97
435.03	840.25
435.22	1053.24
435.41	1165.59
435.59	945.58
435.78	858.98
435.97	662.37
436.16	924.51
436.34	767.70
436.53	837.91
436.72	971.32
436.90	922.17
437.09	851.96
437.28	732.59
437.46	713.86
437.65	854.30
437.84	961.96
438.02	875.36
438.21	842.59
438.40	697.48
438.58	641.31
438.77	833.23
438.96	781.74
439.14	709.18
439.33	961.96
439.52	709.18
439.70	781.74
439.89	1039.20
440.08	849.61
440.26	793.44
440.45	1151.54
440.63	877.70
440.82	856.64
441.01	889.40
441.19	791.10
441.38	844.93
441.57	835.57
441.75	1008.77
441.94	1102.39
442.12	770.04
442.31	730.25
442.50	781.74
442.68	828.55
442.87	903.45
443.05	802.80
443.24	873.02
443.43	1055.58
443.61	1196.01
443.80	943.24
443.98	816.85
444.17	767.70
444.35	1067.28
444.54	812.17
444.73	858.98
444.91	1090.69
445.10	709.18
445.28	870.68
445.47	880.04
445.65	830.89
445.84	760.67
446.02	828.55
446.21	866.00
446.39	828.55
446.58	950.26
446.77	809.83
446.95	891.74
447.14	994.73
447.32	1259.21
447.51	875.36
447.69	997.07
447.88	908.13
448.06	1245.16
448.25	929.19
448.43	812.17
448.62	734.93
448.80	1022.81
448.99	1036.86
449.17	870.68
449.36	847.27
449.54	980.68
449.73	777.06
449.91	957.28
450.10	851.96
450.28	1401.98
450.46	1441.77
450.65	1184.31
450.83	1039.20
451.02	943.24
451.20	943.24
451.39	966.64
451.57	933.87
451.76	840.25
451.94	880.04
452.13	1029.84
452.31	1149.20
452.49	1032.18
452.68	744.29
452.86	1022.81
453.05	1430.07
453.23	898.77
453.42	870.68
453.60	915.15
453.78	976.00
453.97	814.51
454.15	798.12
454.34	866.00
454.52	826.21
454.70	1247.51
454.89	1074.31
455.07	875.36
455.26	1100.05
455.44	1139.84
455.62	887.06
455.81	1022.81
455.99	1137.50
456.17	1097.71
456.36	903.45
456.54	823.87
456.73	821.53
456.91	891.74
457.09	973.66
457.28	1146.86
457.46	990.05
457.64	1132.82
457.83	894.08
458.01	903.45
458.19	1015.79
458.38	947.92
458.56	966.64
458.74	844.93
458.93	1069.62
459.11	1001.75
459.29	812.17
459.48	1069.62
459.66	1343.47
459.84	1125.80
460.03	1689.87
460.21	1139.84
460.39	980.68
460.57	1144.52
460.76	1001.75
460.94	1001.75
461.12	1373.89
461.31	1287.29
461.49	889.40
461.67	971.32
461.85	1013.45
462.04	940.90
462.22	5834.96
462.40	1355.17
462.59	1235.80
462.77	905.79
462.95	1046.22
463.13	788.76
463.32	1158.57
463.50	1008.77
463.68	1088.35
463.86	945.58
464.05	919.83
464.23	1160.91
464.41	1146.86
464.59	903.45
464.78	889.40
464.96	828.55
465.14	1039.20
465.32	891.74
465.50	1060.26
465.69	1076.65
465.87	798.12
466.05	1060.26
466.23	854.30
466.41	976.00
466.60	856.64
466.78	1008.77
466.96	1181.97
467.14	1146.86
467.32	1221.76
467.51	1128.14
467.69	1193.67
467.87	1315.38
468.05	966.64
468.23	1434.75
468.41	1146.86
468.60	964.30
468.78	983.02
468.96	1207.72
469.14	1125.80
469.32	751.31
469.50	875.36
469.69	1118.78
469.87	983.02
470.05	1083.67
470.23	947.92
470.41	849.61
470.59	931.53
470.77	1107.07
470.95	1020.47
471.14	1217.08
471.32	992.39
471.50	1348.15
471.68	959.62
471.86	1095.37
472.04	961.96
472.22	1067.28
472.40	765.36
472.58	863.66
472.77	973.66
472.95	1006.43
473.13	1413.68
473.31	1306.02
473.49	889.40
473.67	947.92
473.85	1158.57
474.03	1156.22
474.21	1034.52
474.39	1291.98
474.57	1467.52
474.75	1142.18
474.93	971.32
475.12	887.06
475.30	1001.75
475.48	950.26
475.66	1011.11
475.84	1071.97
476.02	1090.69
476.20	1224.10
476.38	1067.28
476.56	1650.08
476.74	1123.46
476.92	1100.05
477.10	1109.41
477.28	1259.21
477.46	1027.50
477.64	1123.46
477.82	1069.62
478.00	1135.16
478.18	1125.80
478.36	1149.20
478.54	1043.88
478.72	968.98
478.90	1039.20
479.08	1146.86
479.26	1128.14
479.44	1006.43
479.62	1013.45
479.80	1013.45
479.98	966.64
480.16	1032.18
480.34	1299.00
480.52	1046.22
480.70	1277.93
480.88	1053.24
481.06	1109.41
481.24	1071.97
481.41	1078.99
481.59	1167.93
481.77	1179.63
481.95	1163.25
482.13	1406.66
482.31	1149.20
482.49	1057.92
482.67	1320.06
482.85	1299.00
483.03	1277.93
483.21	1235.80
483.39	1114.10
483.57	1203.04
483.74	1516.67
483.92	1121.12
484.10	1057.92
484.28	1399.64
484.46	1778.81
484.64	1146.86
484.82	1179.63
485.00	1093.03
485.18	1212.40
485.35	1179.63
485.53	943.24
485.71	1369.21
485.89	863.66
486.07	992.39
486.25	1713.27
486.43	1280.27
486.61	1423.05
486.78	1263.89
486.96	994.73
487.14	1163.25
487.32	1196.01
487.50	1153.88
487.68	1406.66
487.85	1149.20
488.03	1366.87
488.21	1572.84
488.39	1205.38
488.57	1430.07
488.75	1090.69
488.92	3878.27
489.10	1373.89
489.28	1703.91
489.46	1193.67
489.64	1275.59
489.81	1401.98
489.99	1483.90
490.17	1317.72
490.35	1872.43
490.53	1366.87
490.70	1315.38
490.88	1549.43
491.06	1345.81
491.24	1502.62
491.41	1701.57
491.59	1411.34
491.77	1165.59
491.95	1174.95
492.13	1259.21
492.30	1341.13
492.48	1357.51
492.66	1406.66
492.84	1329.42
493.01	1460.49
493.19	1299.00
493.37	1816.26
493.54	1575.18
493.72	1607.95
493.90	1348.15
494.08	1376.24
494.25	1561.14
494.43	1446.45
494.61	1411.34
494.79	1331.76
494.96	1376.24
495.14	1610.29
495.32	1465.18
495.49	1511.99
495.67	1579.86
495.85	1425.39
496.02	1336.45
496.20	1741.36
496.38	1603.27
496.55	1490.92
496.73	1549.43
496.91	1432.41
497.09	1652.42
497.26	1500.28
497.44	1486.24
497.62	1425.39
497.79	1409.00
497.97	1535.39
498.14	1629.01
498.32	1460.49
498.50	1612.63
498.67	1462.83
498.85	1514.33
499.03	1589.22
499.20	1577.52
499.38	1619.65
499.56	1605.61
499.73	1919.24
499.91	1701.57
500.08	1750.72
500.26	1488.58
500.44	1364.53
500.61	1621.99
500.79	1455.81
500.97	1710.93
501.14	1895.83
501.32	1540.07
501.49	1682.85
501.67	1537.73
501.84	1687.53
502.02	1444.11
502.20	1923.92
502.37	1673.48
502.55	1469.86
502.72	1423.05
502.90	1626.67
503.07	1650.08
503.25	1586.88
503.43	1455.81
503.60	1331.76
503.78	1483.90
503.95	1378.58
504.13	1371.55
504.30	1610.29
504.48	1757.74
504.65	1956.69
504.83	1870.09
505.01	1537.73
505.18	1551.78
505.36	1596.25
505.53	1668.80
505.71	1565.82
505.88	1867.75
506.06	1472.20
506.23	1533.05
506.41	1593.90
506.58	1724.97
506.76	1586.88
506.93	1544.75
507.11	1795.19
507.28	1423.05
507.46	1502.62
507.63	1535.39
507.81	1474.54
507.98	1523.69
508.16	1467.52
508.33	1659.44
508.50	1727.32
508.68	1624.33
508.85	1617.31
509.03	1575.18
509.20	1629.01
509.38	1795.19
509.55	1853.70
509.73	1844.34
509.90	1853.70
510.08	1493.26
510.25	1739.02
510.42	1549.43
510.60	1584.54
510.77	1762.42
510.95	1900.52
511.12	1584.54
511.30	1795.19
511.47	1778.81
511.64	2005.84
511.82	1586.88
511.99	1631.35
512.17	1453.47
512.34	1455.81
512.51	1460.49
512.69	1507.30
512.86	1926.26
513.04	1579.86
513.21	1614.97
513.38	1533.05
513.56	1558.80
513.73	1507.30
513.90	1455.81
514.08	1521.35
514.25	1739.02
514.43	1647.74
514.60	1488.58
514.77	1521.35
514.95	1764.76
515.12	1500.28
515.29	1743.70
515.47	1657.10
515.64	1748.38
515.81	1750.72
515.99	1860.73
516.16	1659.44
516.33	1757.74
516.51	1383.26
516.68	1348.15
516.85	1404.32
517.03	1446.45
517.20	1739.02
517.37	1713.27
517.54	1706.25
517.72	1568.16
517.89	1451.13
518.06	1338.79
518.24	1921.58
518.41	1961.37
518.58	1727.32
518.75	1577.52
518.93	1706.25
519.10	1741.36
519.27	1528.37
519.45	1680.50
519.62	1743.70
519.79	1685.19
519.96	1469.86
520.14	1734.34
520.31	1877.11
520.48	1617.31
520.65	1678.16
520.83	1832.64
521.00	1811.57
521.17	1802.21
521.34	1603.27
521.52	1675.82
521.69	1748.38
521.86	1935.62
522.03	1823.28
522.20	2104.14
522.38	1544.75
522.55	1788.17
522.72	1476.88
522.89	1860.73
523.07	2085.42
523.24	1680.50
523.41	1659.44
523.58	1650.08
523.75	1753.06
523.92	1673.48
524.10	1748.38
524.27	1685.19
524.44	1703.91
524.61	2029.24
524.78	1671.14
524.96	1860.73
525.13	1853.70
525.30	1926.26
525.47	1966.05
525.64	1750.72
525.81	1708.59
525.98	1706.25
526.16	1607.95
526.33	1530.71
526.50	1542.41
526.67	1385.60
526.84	1530.71
527.01	1490.92
527.18	1799.87
527.36	1678.16
527.53	1610.29
527.70	1860.73
527.87	1818.60
528.04	2099.46
528.21	1603.27
528.38	1863.07
528.55	2001.16
528.72	2019.88
528.89	2094.78
529.07	1830.30
529.24	1734.34
529.41	1947.33
529.58	1750.72
529.75	1593.90
529.92	1909.88
530.09	1783.49
530.26	1949.67
530.43	1778.81
530.60	1856.04
530.77	1849.02
530.94	1944.99
531.11	1837.32
531.28	1694.55
531.46	1629.01
531.63	1827.96
531.80	1867.75
531.97	1867.75
532.14	1778.81
532.31	1734.34
532.48	1692.21
532.65	1680.50
532.82	1540.07
532.99	1657.10
533.16	1577.52
533.33	1722.63
533.50	1685.19
533.67	1568.16
533.84	1783.49
534.01	1921.58
534.18	1699.23
534.35	1687.53
534.52	1804.55
534.69	2310.11
534.86	1802.21
535.03	1657.10
535.20	1636.03
535.37	2085.42
535.54	1832.64
535.71	1722.63
535.88	2036.27
536.05	1657.10
536.22	1952.01
536.38	1673.48
536.55	1762.42
536.72	2026.90
536.89	1565.82
537.06	1685.19
537.23	1540.07
537.40	1715.61
537.57	1661.78
537.74	1842.00
537.91	1846.68
538.08	1760.08
538.25	1912.22
538.42	1743.70
538.59	1771.79
538.75	1757.74
538.92	1640.72
539.09	1935.62
539.26	1753.06
539.43	1937.96
539.60	1659.44
539.77	1823.28
539.94	1621.99
540.11	1736.68
540.28	2038.61
540.44	1944.99
540.61	1703.91
540.78	1682.85
540.95	1600.93
541.12	2097.12
541.29	1696.89
541.46	2087.76
541.62	1858.39
541.79	1703.91
541.96	1579.86
542.13	1673.48
542.30	1584.54
542.47	1907.54
542.63	1636.03
542.80	1778.81
542.97	1916.90
543.14	1652.42
543.31	1753.06
543.48	1776.47
543.64	1879.45
543.81	1736.68
543.98	1544.75
544.15	1521.35
544.32	1713.27
544.48	1680.50
544.65	1652.42
544.82	1610.29
544.99	1703.91
545.16	2005.84
545.32	1582.20
545.49	1720.29
545.66	1818.60
545.83	1624.33
546.00	1535.39
546.16	1582.20
546.33	1689.87
546.50	1638.38
546.67	1982.43
546.83	1914.56
547.00	1760.08
547.17	1661.78
547.34	1554.12
547.50	1666.46
547.67	1760.08
547.84	1668.80
548.00	1743.70
548.17	1603.27
548.34	1621.99
548.51	1968.39
548.67	1994.14
548.84	1708.59
549.01	1652.42
549.18	1795.19
549.34	1720.29
549.51	1764.76
549.68	1762.42
549.84	1729.66
550.01	1502.62
550.18	2602.68
550.34	2370.96
550.51	1715.61
550.68	2111.16
550.84	1640.72
551.01	1724.97
551.18	1856.04
551.34	1774.13
551.51	1710.93
551.68	1607.95
551.84	1884.13
552.01	1699.23
552.18	1736.68
552.34	1621.99
552.51	1696.89
552.68	1813.92
552.84	1591.56
553.01	1689.87
553.18	1863.07
553.34	1643.06
553.51	1469.86
553.67	1830.30
553.84	2134.57
554.01	1842.00
554.17	1785.83
554.34	1563.48
554.51	1764.76
554.67	1909.88
554.84	1877.11
555.00	1771.79
555.17	1774.13
555.33	1834.98
555.50	1755.40
555.67	1769.44
555.83	1462.83
556.00	1593.90
556.16	3398.46
556.33	1844.34
556.50	1664.12
556.66	1619.65
556.83	1629.01
556.99	1624.33
557.16	1736.68
557.32	1596.25
557.49	1479.22
557.65	1584.54
557.82	1561.14
557.98	1755.40
558.15	1535.39
558.32	1526.03
558.48	1603.27
558.65	1519.01
558.81	1692.21
558.98	1626.67
559.14	1823.28
559.31	1521.35
559.47	1769.44
559.64	1612.63
559.80	1818.60
559.97	1448.79
560.13	1612.63
560.30	1558.80
560.46	1673.48
560.63	1568.16
560.79	1654.76
560.96	1593.90
561.12	1561.14
561.29	1825.62
561.45	1561.14
561.61	1614.97
561.78	2424.80
561.94	1732.00
562.11	1533.05
562.27	1582.20
562.44	1509.65
562.60	1692.21
562.77	1626.67
562.93	2300.75
563.10	1687.53
563.26	1607.95
563.42	1895.83
563.59	1762.42
563.75	1493.26
563.92	1799.87
564.08	1732.00
564.24	1795.19
564.41	2160.31
564.57	1493.26
564.74	1474.54
564.90	1727.32
565.07	1753.06
565.23	1757.74
565.39	1497.94
565.56	1736.68
565.72	1544.75
565.88	1568.16
566.05	1514.33
566.21	1654.76
566.38	1750.72
566.54	1624.33
566.70	1521.35
566.87	1558.80
567.03	1430.07
567.19	1495.60
567.36	1827.96
567.52	1509.65
567.68	1722.63
567.85	1682.85
568.01	1540.07
568.17	1348.15
568.34	1514.33
568.50	1902.86
568.66	1413.68
568.83	2118.18
568.99	1465.18
569.15	1827.96
569.32	1528.37
569.48	1533.05
569.64	1453.47
569.81	1530.71
569.97	1409.00
570.13	1629.01
570.30	1504.96
570.46	1479.22
570.62	1476.88
570.78	1469.86
570.95	1413.68
571.11	1968.39
571.27	1792.85
571.43	1397.30
571.60	1652.42
571.76	1460.49
571.92	1458.15
572.09	1537.73
572.25	1558.80
572.41	1565.82
572.57	1556.46
572.74	1895.83
572.90	1689.87
573.06	1748.38
573.22	1633.69
573.38	1778.81
573.55	1811.57
573.71	1743.70
573.87	1654.76
574.03	1327.08
574.20	1514.33
574.36	1666.46
574.52	1467.52
574.68	1345.81
574.84	1528.37
575.01	1542.41
575.17	1558.80
575.33	1469.86
575.49	1624.33
575.65	1696.89
575.82	1713.27
575.98	1921.58
576.14	1507.30
576.30	1430.07
576.46	1406.66
576.62	1516.67
576.79	1685.19
576.95	1863.07
577.11	1378.58
577.27	1343.47
577.43	1694.55
577.59	1750.72
577.75	1626.67
577.92	1359.85
578.08	1439.43
578.24	1371.55
578.40	1736.68
578.56	1816.26
578.72	1729.66
578.88	1743.70
579.04	1427.73
579.21	1614.97
579.37	1540.07
579.53	1495.60
579.69	1722.63
579.85	1404.32
580.01	1699.23
580.17	1425.39
580.33	1472.20
580.49	1612.63
580.65	1687.53
580.82	1467.52
580.98	1427.73
581.14	1455.81
581.30	1846.68
581.46	1486.24
581.62	1743.70
581.78	1425.39
581.94	1668.80
582.10	1380.92
582.26	1376.24
582.42	1446.45
582.58	1563.48
582.74	1547.09
582.90	1528.37
583.06	1507.30
583.22	1479.22
583.38	1376.24
583.54	1390.28
583.70	1806.89
583.86	1563.48
584.02	1451.13
584.18	1865.41
584.34	1359.85
584.50	1469.86
584.66	1481.56
584.82	1380.92
584.98	1605.61
585.14	1350.49
585.30	1746.04
585.46	1535.39
585.62	1315.38
585.78	1357.51
585.94	1652.42
586.10	1455.81
586.26	1540.07
586.42	1886.47
586.58	1589.22
586.74	1448.79
586.90	1476.88
587.06	1462.83
587.22	1455.81
587.38	1331.76
587.54	1383.26
587.70	1617.31
587.86	1568.16
588.02	1350.49
588.18	1394.96
588.34	1486.24
588.49	959.62
588.65	1205.38
588.81	1294.32
588.97	1008.77
589.13	1273.25
589.29	1282.61
589.45	1495.60
589.61	1357.51
589.77	1556.46
589.93	1277.93
590.08	1287.29
590.24	1177.29
590.40	1385.60
590.56	1535.39
590.72	1430.07
590.88	1128.14
591.04	1406.66
591.20	1362.19
591.35	1694.55
591.51	1280.27
591.67	1181.97
591.83	1294.32
591.99	1416.02
592.15	1430.07
592.31	1465.18
592.46	1273.25
592.62	1547.09
592.78	1198.35
592.94	1266.23
593.10	1163.25
593.26	1315.38
593.41	1488.58
593.57	1430.07
593.73	1210.06
593.89	1617.31
594.05	1266.23
594.20	1228.78
594.36	1582.20
594.52	1282.61
594.68	1266.23
594.84	1465.18
594.99	1816.26
595.15	1460.49
595.31	1579.86
595.47	1797.53
595.62	1378.58
595.78	1373.89
595.94	1238.14
596.10	1640.72
596.25	1526.03
596.41	1493.26
596.57	1207.72
596.73	1348.15
596.88	1479.22
597.04	1455.81
597.20	1289.64
597.36	1371.55
597.51	1191.33
597.67	1275.59
597.83	1341.13
597.99	1526.03
598.14	1462.83
598.30	1708.59
598.46	1261.55
598.61	1668.80
598.77	1502.62
598.93	1270.91
599.09	1329.42
599.24	1469.86
599.40	1673.48
599.56	1418.36
599.71	1334.11
599.87	1287.29
600.03	1373.89
600.18	1331.76
600.34	1563.48
600.50	1240.48
600.65	1226.44
600.81	1528.37
600.97	1336.45
601.12	1451.13
601.28	1668.80
601.44	1399.64
601.59	1249.85
601.75	1418.36
601.91	1205.38
602.06	1411.34
602.22	2066.69
602.37	1495.60
602.53	1310.70
602.69	1544.75
602.84	1247.51
603.00	1275.59
603.16	1509.65
603.31	1722.63
603.47	1493.26
603.62	1240.48
603.78	1511.99
603.94	1502.62
604.09	1355.17
604.25	1511.99
604.40	1544.75
604.56	1334.11
604.71	1441.77
604.87	1254.53
605.03	1411.34
605.18	1371.55
605.34	1647.74
605.49	1380.92
605.65	1299.00
605.80	1224.10
605.96	1362.19
606.12	1488.58
606.27	1554.12
606.43	1411.34
606.58	1617.31
606.74	1394.96
606.89	1439.43
607.05	1589.22
607.20	1497.94
607.36	1441.77
607.51	1249.85
607.67	1315.38
607.82	1376.24
607.98	1638.38
608.13	1383.26
608.29	1291.98
608.44	1654.76
608.60	1413.68
608.75	1657.10
608.91	1563.48
609.06	1579.86
609.22	1509.65
609.37	1284.95
609.53	1277.93
609.68	1380.92
609.84	1217.08
609.99	1198.35
610.15	1359.85
610.30	1392.62
610.46	1575.18
610.61	1404.32
610.76	1376.24
610.92	1409.00
611.07	1203.04
611.23	2104.14
611.38	1638.38
611.54	1205.38
611.69	1240.48
611.84	1306.02
612.00	1217.08
612.15	1107.07
612.31	1306.02
612.46	1219.42
612.62	1139.84
612.77	1621.99
612.92	1533.05
613.08	1666.46
613.23	1451.13
613.39	1362.19
613.54	1074.31
613.69	1137.50
613.85	1282.61
614.00	1259.21
614.15	1245.16
614.31	1097.71
614.46	1380.92
614.62	1181.97
614.77	1617.31
614.92	1233.46
615.08	1483.90
615.23	1357.51
615.38	1254.53
615.54	1294.32
615.69	1247.51
615.84	1125.80
616.00	1261.55
616.15	1179.63
616.30	1268.57
616.46	1277.93
616.61	1041.54
616.76	1336.45
616.92	1315.38
617.07	1146.86
617.22	1172.61
617.37	1200.69
617.53	1409.00
617.68	1294.32
617.83	1228.78
617.99	1542.41
618.14	1741.36
618.29	1453.47
618.45	1327.08
618.60	1235.80
618.75	1191.33
618.90	1144.52
619.06	1235.80
619.21	1614.97
619.36	1563.48
619.51	1207.72
619.67	1212.40
619.82	1174.95
619.97	1273.25
620.12	1331.76
620.28	1341.13
620.43	1282.61
620.58	1359.85
620.73	1317.72
620.89	1303.68
621.04	1376.24
621.19	1643.06
621.34	1177.29
621.49	980.68
621.65	1331.76
621.80	1064.94
621.95	1109.41
622.10	1294.32
622.25	1062.60
622.41	1170.27
622.56	1254.53
622.71	1289.64
622.86	1500.28
623.01	1266.23
623.16	1619.65
623.32	1050.90
623.47	1324.74
623.62	1240.48
623.77	1315.38
623.92	1277.93
624.07	1247.51
624.23	1128.14
624.38	1181.97
624.53	1235.80
624.68	1500.28
624.83	1507.30
624.98	1287.29
625.13	1102.39
625.29	1055.58
625.44	1153.88
625.59	1203.04
625.74	1334.11
625.89	1380.92
626.04	1107.07
626.19	1046.22
626.34	1086.01
626.49	1249.85
626.65	1048.56
626.80	1006.43
626.95	1224.10
627.10	1057.92
627.25	1174.95
627.40	1104.73
627.55	1200.69
627.70	1062.60
627.85	1245.16
628.00	1100.05
628.15	1034.52
628.30	1170.27
628.45	983.02
628.60	1165.59
628.76	1203.04
628.91	1093.03
629.06	1249.85
629.21	1074.31
629.36	1380.92
629.51	1046.22
629.66	1254.53
629.81	1064.94
629.96	1238.14
630.11	1275.59
630.26	1296.66
630.41	1128.14
630.56	1263.89
630.71	910.47
630.86	1055.58
631.01	919.83
631.16	1029.84
631.31	1495.60
631.46	1348.15
631.61	1188.99
631.76	1200.69
631.91	1093.03
632.06	1287.29
632.21	1245.16
632.36	1217.08
632.51	1006.43
632.66	1104.73
632.81	1048.56
632.96	1160.91
633.10	1186.65
633.25	1537.73
633.40	1203.04
633.55	1212.40
633.70	1139.84
633.85	1231.12
634.00	1013.45
634.15	961.96
634.30	1181.97
634.45	1261.55
634.60	1090.69
634.75	992.39
634.90	1032.18
635.05	1062.60
635.19	1261.55
635.34	1067.28
635.49	1214.74
635.64	1015.79
635.79	1114.10
635.94	1317.72
636.09	1245.16
636.24	1240.48
636.39	1191.33
636.53	1233.46
636.68	1050.90
636.83	1151.54
636.98	1364.53
637.13	992.39
637.28	1282.61
637.43	1465.18
637.57	1247.51
637.72	1504.96
637.87	1256.87
638.02	1001.75
638.17	1093.03
638.32	1242.82
638.46	1170.27
638.61	1504.96
638.76	1027.50
638.91	1039.20
639.06	945.58
639.20	1462.83
639.35	1242.82
639.50	1041.54
639.65	1542.41
639.80	1151.54
639.94	1324.74
640.09	1439.43
640.24	1371.55
640.39	1310.70
640.54	1181.97
640.68	1184.31
640.83	1291.98
640.98	1137.50
641.13	985.37
641.27	954.94
641.42	1041.54
641.57	1406.66
641.72	1135.16
641.86	1081.33
642.01	1088.35
642.16	1277.93
642.31	1090.69
642.45	1434.75
642.60	1217.08
642.75	950.26
642.90	1238.14
643.04	924.51
643.19	1046.22
643.34	1102.39
643.48	1123.46
643.63	994.73
643.78	1352.83
643.93	1486.24
644.07	1064.94
644.22	1067.28
644.37	840.25
644.51	1132.82
644.66	1181.97
644.81	1041.54
644.95	1273.25
645.10	1062.60
645.25	889.40
645.39	1198.35
645.54	1001.75
645.69	1474.54
645.83	868.34
645.98	1490.92
646.13	1018.13
646.27	1139.84
646.42	875.36
646.57	954.94
646.71	973.66
646.86	1006.43
647.00	971.32
647.15	1167.93
647.30	830.89
647.44	952.60
647.59	943.24
647.74	795.78
647.88	1116.44
648.03	784.08
648.17	1212.40
648.32	924.51
648.47	1090.69
648.61	994.73
648.76	924.51
648.90	898.77
649.05	912.81
649.20	786.42
649.34	856.64
649.49	784.08
649.63	1053.24
649.78	901.11
649.92	863.66
650.07	1121.12
650.21	936.21
650.36	1186.65
650.51	964.30
650.65	1369.21
650.80	990.05
650.94	821.53
651.09	983.02
651.23	849.61
651.38	905.79
651.52	910.47
651.67	884.72
651.81	1078.99
651.96	1306.02
652.10	1221.76
652.25	999.41
652.39	1167.93
652.54	1071.97
652.68	1020.47
652.83	1116.44
652.97	997.07
653.12	1083.67
653.26	978.34
653.41	1207.72
653.55	1128.14
653.70	940.90
653.84	929.19
653.99	922.17
654.13	823.87
654.27	971.32
654.42	1062.60
654.56	1036.86
654.71	1203.04
654.85	826.21
655.00	957.28
655.14	894.08
655.29	746.63
655.43	1083.67
655.57	898.77
655.72	856.64
655.86	1022.81
656.01	908.13
656.15	858.98
656.30	1289.64
656.44	821.53
656.58	772.38
656.73	978.34
656.87	802.80
657.01	877.70
657.16	1207.72
657.30	1015.79
657.45	1376.24
657.59	1093.03
657.73	795.78
657.88	966.64
658.02	1605.61
658.16	999.41
658.31	903.45
658.45	837.91
658.60	770.04
658.74	1013.45
658.88	840.25
659.03	772.38
659.17	922.17
659.31	858.98
659.46	880.04
659.60	1191.33
659.74	903.45
659.89	931.53
660.03	966.64
660.17	1362.19
660.32	1083.67
660.46	1132.82
660.60	950.26
660.74	1139.84
660.89	957.28
661.03	793.44
661.17	873.02
661.32	950.26
661.46	943.24
661.60	924.51
661.74	1076.65
661.89	1256.87
662.03	1071.97
662.17	957.28
662.31	973.66
662.46	1064.94
662.60	1043.88
662.74	891.74
662.88	1177.29
663.03	910.47
663.17	861.32
663.31	1006.43
663.45	1060.26
663.60	851.96
663.74	709.18
663.88	734.93
664.02	943.24
664.17	840.25
664.31	837.91
664.45	915.15
664.59	947.92
664.73	947.92
664.88	1081.33
665.02	823.87
665.16	898.77
665.30	1270.91
665.44	950.26
665.59	1233.46
665.73	980.68
665.87	903.45
666.01	957.28
666.15	816.85
666.29	795.78
666.44	1231.12
666.58	1483.90
666.72	837.91
666.86	802.80
667.00	1144.52
667.14	915.15
667.28	1057.92
667.43	931.53
667.57	980.68
667.71	1039.20
667.85	968.98
667.99	1076.65
668.13	940.90
668.27	987.71
668.41	1093.03
668.56	884.72
668.70	1242.82
668.84	889.40
668.98	1022.81
669.12	592.16
669.26	943.24
669.40	1554.12
669.54	1008.77
669.68	1144.52
669.82	779.40
669.96	980.68
670.10	931.53
670.25	1172.61
670.39	1118.78
670.53	880.04
670.67	994.73
670.81	720.88
670.95	915.15
671.09	926.85
671.23	1303.68
671.37	1036.86
671.51	973.66
671.65	1071.97
671.79	812.17
671.93	1057.92
672.07	1383.26
672.21	1086.01
672.35	889.40
672.49	861.32
672.63	1116.44
672.77	933.87
672.91	992.39
673.05	922.17
673.19	922.17
673.33	744.29
673.47	1352.83
673.61	961.96
673.75	772.38
673.89	702.16
674.03	1062.60
674.17	833.23
674.31	945.58
674.45	931.53
674.59	1032.18
674.73	819.19
674.87	957.28
675.01	1083.67
675.15	840.25
675.29	1177.29
675.43	1097.71
675.56	1219.42
675.70	1186.65
675.84	910.47
675.98	908.13
676.12	697.48
676.26	875.36
676.40	713.86
676.54	800.46
676.68	781.74
676.82	1069.62
676.96	688.12
677.10	945.58
677.23	847.27
677.37	734.93
677.51	880.04
677.65	1423.05
677.79	784.08
677.93	753.65
678.07	723.23
678.21	751.31
678.34	683.44
678.48	669.39
678.62	936.21
678.76	561.73
678.90	856.64
679.04	807.48
679.18	699.82
679.31	676.41
679.45	671.73
679.59	889.40
679.73	851.96
679.87	643.65
680.00	882.38
680.14	849.61
680.28	1015.79
680.42	751.31
680.56	964.30
680.70	718.54
680.83	870.68
680.97	676.41
681.11	753.65
681.25	936.21
681.39	734.93
681.52	856.64
681.66	870.68
681.80	917.49
681.94	655.35
682.07	751.31
682.21	880.04
682.35	697.48
682.49	667.05
682.62	985.37
682.76	629.60
682.90	748.97
683.04	858.98
683.17	894.08
683.31	706.84
683.45	940.90
683.59	1060.26
683.72	1055.58
683.86	898.77
684.00	734.93
684.13	954.94
684.27	863.66
684.41	891.74
684.55	781.74
684.68	784.08
684.82	566.41
684.96	786.42
685.09	741.95
685.23	594.50
685.37	664.71
685.50	999.41
685.64	1006.43
685.78	573.43
685.91	847.27
686.05	980.68
686.19	772.38
686.32	793.44
686.46	779.40
686.60	456.40
686.73	1245.16
686.87	947.92
687.01	496.19
687.14	381.51
687.28	526.62
687.42	622.58
687.55	587.47
687.69	922.17
687.82	587.47
687.96	606.20
688.10	1032.18
688.23	669.39
688.37	954.94
688.50	781.74
688.64	760.67
688.78	550.03
688.91	552.37
689.05	587.47
689.18	517.26
689.32	571.09
689.46	580.45
689.59	702.16
689.73	821.53
689.86	517.26
690.00	660.03
690.13	603.86
690.27	472.79
690.41	734.93
690.54	844.93
690.68	795.78
690.81	610.88
690.95	695.14
691.08	702.16
691.22	610.88
691.35	704.50
691.49	559.39
691.62	683.44
691.76	559.39
691.89	730.25
692.03	531.30
692.16	484.49
692.30	713.86
692.43	599.18
692.57	550.03
692.70	519.60
692.84	695.14
692.97	496.19
693.11	470.45
693.24	629.60
693.38	510.24
693.51	545.34
693.65	760.67
693.78	554.71
693.92	404.91
694.05	753.65
694.19	482.15
694.32	638.97
694.45	531.30
694.59	442.36
694.72	528.96
694.86	557.05
694.99	732.59
695.13	472.79
695.26	690.46
695.39	552.37
695.53	1107.07
695.66	613.22
695.80	915.15
695.93	479.81
696.07	564.07
696.20	636.63
696.33	479.81
696.47	613.22
696.60	575.77
696.73	676.41
696.87	475.13
697.00	987.71
697.14	648.33
697.27	629.60
697.40	1179.63
697.54	606.20
697.67	627.26
697.80	664.71
697.94	479.81
698.07	634.29
698.21	578.11
698.34	767.70
698.47	517.26
698.61	423.64
698.74	475.13
698.87	767.70
699.01	582.79
699.14	482.15
699.27	779.40
699.40	1556.46
699.54	538.32
699.67	428.32
699.80	472.79
699.94	526.62
700.07	475.13
700.20	416.62
700.34	561.73
700.47	435.34
700.60	456.40
700.73	545.34
700.87	842.59
701.00	493.85
701.13	557.05
701.26	564.07
701.40	575.77
701.53	550.03
701.66	470.45
701.79	573.43
701.93	627.26
702.06	994.73
702.19	489.17
702.32	847.27
702.46	571.09
702.59	456.40
702.72	407.25
702.85	545.34
702.99	433.00
703.12	800.46
703.25	517.26
703.38	505.56
703.51	711.52
703.65	535.98
703.78	528.96
703.91	608.54
704.04	816.85
704.17	596.84
704.31	369.80
704.44	433.00
704.57	575.77
704.70	589.82
704.83	496.19
704.96	608.54
705.10	575.77
705.23	554.71
>>>>>End Processed Spectral Data<<<<<
