SpectraSuite Data File
++++++++++++++++++++++++++++++++++++
Date: Fri Oct 04 11:34:01 GMT-05:00 2013
User: price-jones
Dark Spectrum Present: No
Reference Spectrum Present: No
Number of Sampled Component Spectra: 1
Spectrometers: USB2+H05261
Integration Time (usec): 100000 (USB2+H05261)
Spectra Averaged: 1 (USB2+H05261)
Boxcar Smoothing: 0 (USB2+H05261)
Correct for Electrical Dark: No (USB2+H05261)
Strobe/Lamp Enabled: No (USB2+H05261)
Correct for Detector Non-linearity: No (USB2+H05261)
Correct for Stray Light: No (USB2+H05261)
Number of Pixels in Processed Spectrum: 2048
>>>>>Begin Processed Spectral Data<<<<<
365.73	65.54
365.92	65.54
366.12	65.54
366.32	0.00
366.52	0.00
366.72	4.68
366.91	0.00
367.11	0.00
367.31	0.00
367.51	0.00
367.70	0.00
367.90	0.00
368.10	7.02
368.30	0.00
368.49	0.00
368.69	0.00
368.89	0.00
369.09	37.45
369.28	0.00
369.48	39.79
369.68	30.43
369.87	0.00
370.07	51.49
370.27	18.72
370.47	25.75
370.66	9.36
370.86	35.11
371.06	182.56
371.25	196.60
371.45	79.58
371.65	140.43
371.84	74.90
372.04	145.11
372.24	124.05
372.44	81.92
372.63	131.07
372.83	194.26
373.03	117.03
373.22	131.07
373.42	149.79
373.62	149.79
373.81	184.90
374.01	159.16
374.21	215.33
374.40	189.58
374.60	229.37
374.79	147.45
374.99	140.43
375.19	170.86
375.38	145.11
375.58	133.41
375.78	196.60
375.97	152.13
376.17	170.86
376.37	147.45
376.56	147.45
376.76	161.50
376.95	159.16
377.15	177.88
377.35	126.39
377.54	145.11
377.74	147.45
377.93	147.45
378.13	131.07
378.33	147.45
378.52	88.94
378.72	187.24
378.91	131.07
379.11	128.73
379.31	140.43
379.50	105.32
379.70	198.95
379.89	168.52
380.09	58.51
380.28	159.16
380.48	184.90
380.68	142.77
380.87	128.73
381.07	154.48
381.26	147.45
381.46	191.92
381.65	215.33
381.85	124.05
382.04	121.71
382.24	170.86
382.43	131.07
382.63	112.35
382.83	126.39
383.02	163.84
383.22	177.88
383.41	131.07
383.61	170.86
383.80	112.35
384.00	126.39
384.19	168.52
384.39	95.96
384.58	35.11
384.78	124.05
384.97	131.07
385.17	112.35
385.36	147.45
385.56	177.88
385.75	198.95
385.95	159.16
386.14	110.01
386.34	173.20
386.53	145.11
386.72	133.41
386.92	124.05
387.11	133.41
387.31	231.71
387.50	170.86
387.70	100.64
387.89	201.29
388.09	135.75
388.28	133.41
388.48	84.26
388.67	128.73
388.86	110.01
389.06	140.43
389.25	163.84
389.45	145.11
389.64	77.24
389.84	138.09
390.03	224.69
390.22	93.62
390.42	98.30
390.61	159.16
390.81	149.79
391.00	86.60
391.19	107.66
391.39	191.92
391.58	119.37
391.78	215.33
391.97	117.03
392.16	65.54
392.36	93.62
392.55	175.54
392.75	180.22
392.94	126.39
393.13	147.45
393.33	86.60
393.52	131.07
393.71	145.11
393.91	168.52
394.10	79.58
394.29	135.75
394.49	135.75
394.68	212.99
394.88	170.86
395.07	205.97
395.26	163.84
395.46	72.56
395.65	102.98
395.84	128.73
396.04	198.95
396.23	56.17
396.42	140.43
396.62	154.48
396.81	175.54
397.00	161.50
397.19	152.13
397.39	184.90
397.58	227.03
397.77	175.54
397.97	121.71
398.16	154.48
398.35	159.16
398.55	133.41
398.74	163.84
398.93	152.13
399.12	102.98
399.32	133.41
399.51	208.31
399.70	156.82
399.90	168.52
400.09	191.92
400.28	135.75
400.47	112.35
400.67	152.13
400.86	133.41
401.05	128.73
401.24	220.01
401.44	152.13
401.63	100.64
401.82	124.05
402.01	126.39
402.21	131.07
402.40	175.54
402.59	84.26
402.78	145.11
402.97	149.79
403.17	98.30
403.36	149.79
403.55	189.58
403.74	135.75
403.93	231.71
404.13	283.20
404.32	241.08
404.51	177.88
404.70	210.65
404.89	180.22
405.09	138.09
405.28	180.22
405.47	187.24
405.66	145.11
405.85	149.79
406.05	91.28
406.24	152.13
406.43	110.01
406.62	215.33
406.81	161.50
407.00	168.52
407.20	117.03
407.39	154.48
407.58	121.71
407.77	166.18
407.96	234.05
408.15	102.98
408.34	156.82
408.54	65.54
408.73	131.07
408.92	154.48
409.11	114.69
409.30	168.52
409.49	191.92
409.68	187.24
409.87	184.90
410.07	182.56
410.26	152.13
410.45	201.29
410.64	126.39
410.83	152.13
411.02	140.43
411.21	131.07
411.40	196.60
411.59	100.64
411.78	191.92
411.98	98.30
412.17	117.03
412.36	166.18
412.55	163.84
412.74	210.65
412.93	177.88
413.12	154.48
413.31	124.05
413.50	147.45
413.69	168.52
413.88	191.92
414.07	166.18
414.26	145.11
414.45	156.82
414.64	163.84
414.83	173.20
415.02	187.24
415.22	149.79
415.41	217.67
415.60	180.22
415.79	175.54
415.98	212.99
416.17	203.63
416.36	191.92
416.55	203.63
416.74	180.22
416.93	180.22
417.12	173.20
417.31	142.77
417.50	121.71
417.69	231.71
417.88	156.82
418.07	182.56
418.26	107.66
418.45	163.84
418.64	250.44
418.83	280.86
419.02	222.35
419.21	210.65
419.39	191.92
419.58	231.71
419.77	145.11
419.96	205.97
420.15	287.89
420.34	166.18
420.53	184.90
420.72	140.43
420.91	191.92
421.10	196.60
421.29	196.60
421.48	184.90
421.67	173.20
421.86	173.20
422.05	210.65
422.24	198.95
422.43	217.67
422.61	161.50
422.80	131.07
422.99	117.03
423.18	131.07
423.37	243.42
423.56	133.41
423.75	198.95
423.94	170.86
424.13	184.90
424.32	161.50
424.50	175.54
424.69	175.54
424.88	159.16
425.07	180.22
425.26	210.65
425.45	252.78
425.64	229.37
425.83	255.12
426.01	212.99
426.20	234.05
426.39	152.13
426.58	191.92
426.77	187.24
426.96	231.71
427.15	236.39
427.33	238.73
427.52	173.20
427.71	102.98
427.90	217.67
428.09	163.84
428.28	184.90
428.46	142.77
428.65	241.08
428.84	142.77
429.03	177.88
429.22	191.92
429.40	175.54
429.59	203.63
429.78	170.86
429.97	177.88
430.16	138.09
430.34	67.88
430.53	166.18
430.72	177.88
430.91	177.88
431.10	177.88
431.28	212.99
431.47	175.54
431.66	140.43
431.85	147.45
432.03	170.86
432.22	325.33
432.41	191.92
432.60	180.22
432.79	231.71
432.97	344.06
433.16	358.10
433.35	238.73
433.54	156.82
433.72	224.69
433.91	180.22
434.10	173.20
434.28	205.97
434.47	180.22
434.66	196.60
434.85	187.24
435.03	196.60
435.22	320.65
435.41	449.38
435.59	447.04
435.78	442.36
435.97	236.39
436.16	168.52
436.34	255.12
436.53	215.33
436.72	241.08
436.90	180.22
437.09	248.10
437.28	161.50
437.46	180.22
437.65	170.86
437.84	187.24
438.02	156.82
438.21	224.69
438.40	229.37
438.58	182.56
438.77	177.88
438.96	175.54
439.14	140.43
439.33	180.22
439.52	220.01
439.70	156.82
439.89	149.79
440.08	238.73
440.26	205.97
440.45	175.54
440.63	222.35
440.82	135.75
441.01	175.54
441.19	234.05
441.38	112.35
441.57	184.90
441.75	175.54
441.94	170.86
442.12	170.86
442.31	210.65
442.50	187.24
442.68	234.05
442.87	161.50
443.05	255.12
443.24	201.29
443.43	187.24
443.61	229.37
443.80	184.90
443.98	156.82
444.17	152.13
444.35	191.92
444.54	184.90
444.73	100.64
444.91	180.22
445.10	121.71
445.28	187.24
445.47	191.92
445.65	145.11
445.84	257.46
446.02	131.07
446.21	159.16
446.39	135.75
446.58	159.16
446.77	124.05
446.95	210.65
447.14	241.08
447.32	212.99
447.51	173.20
447.69	135.75
447.88	236.39
448.06	308.95
448.25	238.73
448.43	180.22
448.62	175.54
448.80	198.95
448.99	222.35
449.17	238.73
449.36	168.52
449.54	149.79
449.73	187.24
449.91	259.80
450.10	234.05
450.28	182.56
450.46	161.50
450.65	220.01
450.83	243.42
451.02	208.31
451.20	187.24
451.39	182.56
451.57	180.22
451.76	91.28
451.94	154.48
452.13	196.60
452.31	184.90
452.49	168.52
452.68	152.13
452.86	201.29
453.05	220.01
453.23	194.26
453.42	145.11
453.60	262.14
453.78	187.24
453.97	131.07
454.15	184.90
454.34	154.48
454.52	177.88
454.70	198.95
454.89	175.54
455.07	128.73
455.26	224.69
455.44	189.58
455.62	168.52
455.81	203.63
455.99	231.71
456.17	241.08
456.36	194.26
456.54	187.24
456.73	210.65
456.91	184.90
457.09	203.63
457.28	255.12
457.46	248.10
457.64	220.01
457.83	220.01
458.01	191.92
458.19	194.26
458.38	236.39
458.56	119.37
458.74	196.60
458.93	156.82
459.11	203.63
459.29	220.01
459.48	220.01
459.66	191.92
459.84	212.99
460.03	212.99
460.21	152.13
460.39	154.48
460.57	149.79
460.76	287.89
460.94	177.88
461.12	241.08
461.31	276.18
461.49	210.65
461.67	163.84
461.85	257.46
462.04	182.56
462.22	631.94
462.40	203.63
462.59	257.46
462.77	241.08
462.95	182.56
463.13	231.71
463.32	259.80
463.50	189.58
463.68	182.56
463.86	173.20
464.05	229.37
464.23	201.29
464.41	117.03
464.59	215.33
464.78	255.12
464.96	187.24
465.14	292.57
465.32	184.90
465.50	231.71
465.69	217.67
465.87	173.20
466.05	227.03
466.23	147.45
466.41	212.99
466.60	177.88
466.78	212.99
466.96	196.60
467.14	292.57
467.32	184.90
467.51	201.29
467.69	217.67
467.87	182.56
468.05	220.01
468.23	236.39
468.41	182.56
468.60	205.97
468.78	208.31
468.96	210.65
469.14	180.22
469.32	215.33
469.50	189.58
469.69	147.45
469.87	215.33
470.05	149.79
470.23	182.56
470.41	177.88
470.59	126.39
470.77	248.10
470.95	161.50
471.14	147.45
471.32	210.65
471.50	201.29
471.68	255.12
471.86	229.37
472.04	215.33
472.22	241.08
472.40	133.41
472.58	156.82
472.77	208.31
472.95	138.09
473.13	212.99
473.31	252.78
473.49	154.48
473.67	229.37
473.85	212.99
474.03	140.43
474.21	152.13
474.39	191.92
474.57	229.37
474.75	177.88
474.93	142.77
475.12	234.05
475.30	180.22
475.48	147.45
475.66	117.03
475.84	156.82
476.02	201.29
476.20	189.58
476.38	217.67
476.56	285.55
476.74	210.65
476.92	217.67
477.10	234.05
477.28	194.26
477.46	191.92
477.64	220.01
477.82	189.58
478.00	168.52
478.18	231.71
478.36	170.86
478.54	161.50
478.72	212.99
478.90	149.79
479.08	255.12
479.26	245.76
479.44	196.60
479.62	177.88
479.80	205.97
479.98	191.92
480.16	168.52
480.34	231.71
480.52	191.92
480.70	168.52
480.88	180.22
481.06	149.79
481.24	187.24
481.41	168.52
481.59	189.58
481.77	145.11
481.95	142.77
482.13	173.20
482.31	234.05
482.49	222.35
482.67	304.27
482.85	224.69
483.03	212.99
483.21	217.67
483.39	217.67
483.57	243.42
483.74	266.82
483.92	276.18
484.10	208.31
484.28	227.03
484.46	264.48
484.64	243.42
484.82	229.37
485.00	177.88
485.18	198.95
485.35	241.08
485.53	196.60
485.71	222.35
485.89	156.82
486.07	210.65
486.25	322.99
486.43	283.20
486.61	243.42
486.78	308.95
486.96	250.44
487.14	276.18
487.32	184.90
487.50	234.05
487.68	212.99
487.85	180.22
488.03	315.97
488.21	262.14
488.39	189.58
488.57	220.01
488.75	238.73
488.92	470.45
489.10	301.93
489.28	341.72
489.46	283.20
489.64	220.01
489.81	191.92
489.99	224.69
490.17	234.05
490.35	266.82
490.53	280.86
490.70	280.86
490.88	278.52
491.06	266.82
491.24	241.08
491.41	313.63
491.59	238.73
491.77	248.10
491.95	241.08
492.13	248.10
492.30	194.26
492.48	257.46
492.66	241.08
492.84	236.39
493.01	241.08
493.19	198.95
493.37	308.95
493.54	390.87
493.72	280.86
493.90	210.65
494.08	201.29
494.25	313.63
494.43	306.61
494.61	269.16
494.79	208.31
494.96	241.08
495.14	231.71
495.32	311.29
495.49	278.52
495.67	201.29
495.85	215.33
496.02	248.10
496.20	290.23
496.38	210.65
496.55	269.16
496.73	255.12
496.91	217.67
497.09	318.31
497.26	287.89
497.44	224.69
497.62	259.80
497.79	250.44
497.97	210.65
498.14	210.65
498.32	255.12
498.50	255.12
498.67	245.76
498.85	229.37
499.03	285.55
499.20	259.80
499.38	175.54
499.56	285.55
499.73	245.76
499.91	353.42
500.08	301.93
500.26	236.39
500.44	229.37
500.61	205.97
500.79	252.78
500.97	278.52
501.14	259.80
501.32	269.16
501.49	250.44
501.67	177.88
501.84	243.42
502.02	285.55
502.20	294.91
502.37	259.80
502.55	234.05
502.72	299.59
502.90	292.57
503.07	330.02
503.25	292.57
503.43	283.20
503.60	341.72
503.78	184.90
503.95	173.20
504.13	208.31
504.30	255.12
504.48	217.67
504.65	290.23
504.83	353.42
505.01	198.95
505.18	231.71
505.36	236.39
505.53	266.82
505.71	222.35
505.88	276.18
506.06	250.44
506.23	264.48
506.41	245.76
506.58	252.78
506.76	217.67
506.93	266.82
507.11	241.08
507.28	252.78
507.46	304.27
507.63	332.36
507.81	238.73
507.98	205.97
508.16	287.89
508.33	287.89
508.50	217.67
508.68	250.44
508.85	285.55
509.03	187.24
509.20	262.14
509.38	234.05
509.55	299.59
509.73	273.84
509.90	259.80
510.08	231.71
510.25	259.80
510.42	222.35
510.60	252.78
510.77	299.59
510.95	278.52
511.12	360.44
511.30	315.97
511.47	341.72
511.64	341.72
511.82	330.02
511.99	212.99
512.17	304.27
512.34	222.35
512.51	182.56
512.69	215.33
512.86	325.33
513.04	224.69
513.21	229.37
513.38	231.71
513.56	285.55
513.73	222.35
513.90	271.50
514.08	290.23
514.25	208.31
514.43	224.69
514.60	248.10
514.77	189.58
514.95	241.08
515.12	266.82
515.29	297.25
515.47	299.59
515.64	304.27
515.81	238.73
515.99	245.76
516.16	194.26
516.33	163.84
516.51	170.86
516.68	187.24
516.85	212.99
517.03	248.10
517.20	332.36
517.37	208.31
517.54	313.63
517.72	259.80
517.89	182.56
518.06	259.80
518.24	264.48
518.41	360.44
518.58	341.72
518.75	273.84
518.93	264.48
519.10	257.46
519.27	297.25
519.45	266.82
519.62	280.86
519.79	318.31
519.96	191.92
520.14	255.12
520.31	262.14
520.48	266.82
520.65	245.76
520.83	292.57
521.00	292.57
521.17	278.52
521.34	276.18
521.52	276.18
521.69	280.86
521.86	236.39
522.03	262.14
522.20	250.44
522.38	224.69
522.55	280.86
522.72	194.26
522.89	269.16
523.07	311.29
523.24	250.44
523.41	269.16
523.58	238.73
523.75	327.68
523.92	304.27
524.10	241.08
524.27	248.10
524.44	245.76
524.61	353.42
524.78	266.82
524.96	217.67
525.13	205.97
525.30	248.10
525.47	304.27
525.64	259.80
525.81	264.48
525.98	290.23
526.16	248.10
526.33	184.90
526.50	311.29
526.67	208.31
526.84	231.71
527.01	184.90
527.18	271.50
527.36	276.18
527.53	292.57
527.70	269.16
527.87	220.01
528.04	318.31
528.21	229.37
528.38	191.92
528.55	248.10
528.72	308.95
528.89	266.82
529.07	313.63
529.24	271.50
529.41	325.33
529.58	339.38
529.75	266.82
529.92	276.18
530.09	311.29
530.26	315.97
530.43	224.69
530.60	248.10
530.77	238.73
530.94	292.57
531.11	264.48
531.28	257.46
531.46	311.29
531.63	266.82
531.80	257.46
531.97	294.91
532.14	301.93
532.31	245.76
532.48	271.50
532.65	388.53
532.82	456.40
532.99	393.21
533.16	311.29
533.33	278.52
533.50	304.27
533.67	273.84
533.84	468.11
534.01	472.79
534.18	379.17
534.35	318.31
534.52	346.40
534.69	355.76
534.86	236.39
535.03	290.23
535.20	322.99
535.37	285.55
535.54	248.10
535.71	245.76
535.88	322.99
536.05	276.18
536.22	250.44
536.38	271.50
536.55	264.48
536.72	322.99
536.89	299.59
537.06	337.04
537.23	271.50
537.40	306.61
537.57	353.42
537.74	376.83
537.91	285.55
538.08	301.93
538.25	292.57
538.42	315.97
538.59	332.36
538.75	346.40
538.92	337.04
539.09	311.29
539.26	308.95
539.43	594.50
539.60	1043.88
539.77	1666.46
539.94	1652.42
540.11	1177.29
540.28	847.27
540.44	674.07
540.61	566.41
540.78	477.47
540.95	447.04
541.12	540.66
541.29	533.64
541.46	587.47
541.62	538.32
541.79	526.62
541.96	613.22
542.13	561.73
542.30	540.66
542.47	461.09
542.63	482.15
542.80	512.58
542.97	491.51
543.14	535.98
543.31	538.32
543.48	468.11
543.64	461.09
543.81	512.58
543.98	582.79
544.15	430.66
544.32	456.40
544.48	470.45
544.65	533.64
544.82	416.62
544.99	482.15
545.16	440.02
545.32	503.22
545.49	706.84
545.66	990.05
545.83	985.37
546.00	978.34
546.16	734.93
546.33	617.90
546.50	500.87
546.67	535.98
546.83	465.77
547.00	379.17
547.17	386.19
547.34	344.06
547.50	365.12
547.67	407.25
547.84	409.59
548.00	512.58
548.17	418.96
548.34	388.53
548.51	388.53
548.67	512.58
548.84	311.29
549.01	421.30
549.18	365.12
549.34	430.66
549.51	447.04
549.68	423.64
549.84	360.44
550.01	294.91
550.18	451.72
550.34	388.53
550.51	435.34
550.68	337.04
550.84	304.27
551.01	386.19
551.18	334.70
551.34	320.65
551.51	285.55
551.68	372.15
551.84	332.36
552.01	290.23
552.18	330.02
552.34	259.80
552.51	318.31
552.68	334.70
552.84	280.86
553.01	245.76
553.18	276.18
553.34	322.99
553.51	262.14
553.67	271.50
553.84	339.38
554.01	355.76
554.17	285.55
554.34	306.61
554.51	271.50
554.67	280.86
554.84	322.99
555.00	287.89
555.17	236.39
555.33	322.99
555.50	280.86
555.67	297.25
555.83	325.33
556.00	285.55
556.16	479.81
556.33	346.40
556.50	313.63
556.66	229.37
556.83	234.05
556.99	325.33
557.16	234.05
557.32	358.10
557.49	205.97
557.65	224.69
557.82	292.57
557.98	262.14
558.15	238.73
558.32	231.71
558.48	283.20
558.65	292.57
558.81	278.52
558.98	320.65
559.14	269.16
559.31	229.37
559.47	299.59
559.64	332.36
559.80	322.99
559.97	243.42
560.13	264.48
560.30	236.39
560.46	308.95
560.63	241.08
560.79	170.86
560.96	292.57
561.12	250.44
561.29	217.67
561.45	259.80
561.61	250.44
561.78	383.85
561.94	252.78
562.11	278.52
562.27	234.05
562.44	262.14
562.60	224.69
562.77	311.29
562.93	348.74
563.10	170.86
563.26	208.31
563.42	322.99
563.59	290.23
563.75	241.08
563.92	320.65
564.08	292.57
564.24	351.08
564.41	318.31
564.57	320.65
564.74	318.31
564.90	322.99
565.07	381.51
565.23	339.38
565.39	304.27
565.56	315.97
565.72	245.76
565.88	259.80
566.05	217.67
566.21	257.46
566.38	299.59
566.54	264.48
566.70	276.18
566.87	257.46
567.03	210.65
567.19	229.37
567.36	241.08
567.52	264.48
567.68	201.29
567.85	322.99
568.01	292.57
568.17	290.23
568.34	234.05
568.50	292.57
568.66	311.29
568.83	409.59
568.99	252.78
569.15	276.18
569.32	229.37
569.48	278.52
569.64	241.08
569.81	292.57
569.97	217.67
570.13	203.63
570.30	306.61
570.46	222.35
570.62	196.60
570.78	287.89
570.95	259.80
571.11	290.23
571.27	388.53
571.43	283.20
571.60	304.27
571.76	180.22
571.92	243.42
572.09	276.18
572.25	259.80
572.41	287.89
572.57	231.71
572.74	280.86
572.90	315.97
573.06	255.12
573.22	238.73
573.38	332.36
573.55	372.15
573.71	330.02
573.87	257.46
574.03	339.38
574.20	255.12
574.36	318.31
574.52	311.29
574.68	322.99
574.84	320.65
575.01	320.65
575.17	337.04
575.33	322.99
575.49	304.27
575.65	257.46
575.82	395.55
575.98	599.18
576.14	798.12
576.30	826.21
576.46	737.27
576.62	545.34
576.79	566.41
576.95	489.17
577.11	311.29
577.27	315.97
577.43	315.97
577.59	409.59
577.75	327.68
577.92	346.40
578.08	376.83
578.24	318.31
578.40	243.42
578.56	409.59
578.72	418.96
578.88	390.87
579.04	411.93
579.21	433.00
579.37	381.51
579.53	395.55
579.69	381.51
579.85	358.10
580.01	477.47
580.17	442.36
580.33	454.06
580.49	425.98
580.65	411.93
580.82	440.02
580.98	372.15
581.14	430.66
581.30	451.72
581.46	393.21
581.62	629.60
581.78	681.10
581.94	709.18
582.10	533.64
582.26	484.49
582.42	526.62
582.58	472.79
582.74	447.04
582.90	510.24
583.06	585.13
583.22	477.47
583.38	535.98
583.54	512.58
583.70	617.90
583.86	795.78
584.02	882.38
584.18	1062.60
584.34	1310.70
584.50	2998.23
584.66	21806.77
584.82	55267.07
584.98	65532.66
585.14	62976.79
585.30	49029.54
585.46	29944.81
585.62	18682.16
585.78	8643.60
585.94	3487.40
586.10	1696.89
586.26	1188.99
586.42	922.17
586.58	765.36
586.74	725.57
586.90	753.65
587.06	657.69
587.22	688.12
587.38	561.73
587.54	1207.72
587.70	3339.94
587.86	5813.89
588.02	6576.91
588.18	4737.24
588.34	3126.96
588.49	2054.99
588.65	1303.68
588.81	702.16
588.97	468.11
589.13	409.59
589.29	433.00
589.45	376.83
589.61	367.46
589.77	505.56
589.93	449.38
590.08	521.94
590.24	521.94
590.40	568.75
590.56	573.43
590.72	444.70
590.88	437.68
591.04	421.30
591.20	435.34
591.35	447.04
591.51	311.29
591.67	339.38
591.83	379.17
591.99	416.62
592.15	383.85
592.31	409.59
592.46	355.76
592.62	376.83
592.78	318.31
592.94	351.08
593.10	341.72
593.26	409.59
593.41	489.17
593.57	486.83
593.73	655.35
593.89	2719.70
594.05	7328.22
594.20	11302.45
594.36	10600.29
594.52	6920.96
594.68	4507.87
594.84	2932.69
594.99	1629.01
595.15	842.59
595.31	524.28
595.47	414.27
595.62	386.19
595.78	339.38
595.94	327.68
596.10	360.44
596.25	409.59
596.41	353.42
596.57	353.42
596.73	423.64
596.88	622.58
597.04	1366.87
597.20	2303.09
597.36	2724.38
597.51	2090.10
597.67	1469.86
597.83	952.60
597.99	819.19
598.14	552.37
598.30	388.53
598.46	386.19
598.61	421.30
598.77	421.30
598.93	442.36
599.09	400.23
599.24	386.19
599.40	327.68
599.56	395.55
599.71	388.53
599.87	332.36
600.03	318.31
600.18	322.99
600.34	315.97
600.50	304.27
600.65	189.58
600.81	337.04
600.97	292.57
601.12	322.99
601.28	360.44
601.44	308.95
601.59	306.61
601.75	280.86
601.91	278.52
602.06	283.20
602.22	411.93
602.37	713.86
602.53	1739.02
602.69	2743.11
602.84	2942.05
603.00	2108.82
603.16	1502.62
603.31	1076.65
603.47	748.97
603.62	423.64
603.78	360.44
603.94	388.53
604.09	348.74
604.25	292.57
604.40	386.19
604.56	308.95
604.71	358.10
604.87	358.10
605.03	327.68
605.18	355.76
605.34	402.57
605.49	358.10
605.65	393.21
605.80	318.31
605.96	358.10
606.12	334.70
606.27	381.51
606.43	421.30
606.58	400.23
606.74	915.15
606.89	3248.66
607.05	6981.82
607.20	9430.02
607.36	7943.78
607.51	5296.63
607.67	3492.08
607.82	2382.67
607.98	1444.11
608.13	755.99
608.29	564.07
608.44	479.81
608.60	479.81
608.75	566.41
608.91	1210.06
609.06	5203.01
609.22	12271.43
609.37	16816.75
609.53	14501.96
609.68	9996.43
609.84	6448.18
609.99	4383.82
610.15	2567.57
610.30	1411.34
610.46	1048.56
610.61	990.05
610.76	999.41
610.92	1078.99
611.07	1167.93
611.23	1287.29
611.38	1125.80
611.54	1015.79
611.69	924.51
611.84	844.93
612.00	681.10
612.15	608.54
612.31	807.48
612.46	910.47
612.62	1069.62
612.77	1011.11
612.92	779.40
613.08	739.61
613.23	732.59
613.39	678.76
613.54	1032.18
613.69	4664.69
613.85	14644.73
614.00	24236.25
614.15	26324.01
614.31	18471.51
614.46	12334.62
614.62	8245.71
614.77	4968.96
614.92	2347.56
615.08	1231.12
615.23	795.78
615.38	594.50
615.54	608.54
615.69	917.49
615.84	2874.18
616.00	5331.74
616.15	6888.20
616.30	5809.21
616.46	4007.00
616.61	2534.80
616.76	1820.94
616.92	1109.41
617.07	723.23
617.22	435.34
617.37	397.89
617.53	468.11
617.68	383.85
617.83	386.19
617.99	430.66
618.14	418.96
618.29	334.70
618.45	351.08
618.60	351.08
618.75	330.02
618.90	299.59
619.06	318.31
619.21	374.49
619.36	257.46
619.51	238.73
619.67	234.05
619.82	306.61
619.97	376.83
620.12	313.63
620.28	306.61
620.43	395.55
620.58	369.80
620.73	341.72
620.89	388.53
621.04	599.18
621.19	1600.93
621.34	3005.25
621.49	4156.79
621.65	3604.42
621.80	2516.08
621.95	1790.51
622.10	1268.57
622.25	784.08
622.41	486.83
622.56	423.64
622.71	379.17
622.86	367.46
623.01	320.65
623.16	287.89
623.32	285.55
623.47	306.61
623.62	318.31
623.77	358.10
623.92	280.86
624.07	304.27
624.23	332.36
624.38	299.59
624.53	320.65
624.68	365.12
624.83	311.29
624.98	308.95
625.13	353.42
625.29	299.59
625.44	337.04
625.59	430.66
625.74	383.85
625.89	610.88
626.04	2319.47
626.19	6979.48
626.34	11611.40
626.49	13404.25
626.65	10092.39
626.80	6733.72
626.95	4610.86
627.10	2965.46
627.25	1535.39
627.40	692.80
627.55	472.79
627.70	435.34
627.85	369.80
628.00	355.76
628.15	339.38
628.30	318.31
628.45	236.39
628.60	325.33
628.76	313.63
628.91	262.14
629.06	325.33
629.21	294.91
629.36	292.57
629.51	301.93
629.66	341.72
629.81	411.93
629.96	1280.27
630.11	2586.29
630.26	3407.82
630.41	3143.34
630.56	2387.35
630.71	1652.42
630.86	1291.98
631.01	858.98
631.16	526.62
631.31	512.58
631.46	388.53
631.61	409.59
631.76	353.42
631.91	278.52
632.06	372.15
632.21	418.96
632.36	414.27
632.51	351.08
632.66	491.51
632.81	1130.48
632.96	3730.81
633.10	7358.64
633.25	9170.22
633.40	7332.90
633.55	5378.55
633.70	3478.04
633.85	2445.86
634.00	1266.23
634.15	711.52
634.30	540.66
634.45	407.25
634.60	346.40
634.75	315.97
634.90	332.36
635.05	344.06
635.19	367.46
635.34	238.73
635.49	304.27
635.64	304.27
635.79	344.06
635.94	262.14
636.09	306.61
636.24	325.33
636.39	339.38
636.53	358.10
636.68	271.50
636.83	383.85
636.98	334.70
637.13	252.78
637.28	393.21
637.43	449.38
637.57	624.92
637.72	2991.20
637.87	8971.27
638.02	15166.67
638.17	17043.78
638.32	12540.59
638.46	8678.71
638.61	5870.06
638.76	3520.17
638.91	1746.04
639.06	971.32
639.20	664.71
639.35	594.50
639.50	936.21
639.65	4283.18
639.80	14195.35
639.94	23651.11
640.09	25834.83
640.24	19377.30
640.39	13144.45
640.54	8615.51
640.68	5226.42
640.83	2708.00
640.98	1423.05
641.13	727.91
641.27	435.34
641.42	388.53
641.57	393.21
641.72	374.49
641.86	243.42
642.01	290.23
642.16	327.68
642.31	292.57
642.45	358.10
642.60	346.40
642.75	220.01
642.90	229.37
643.04	224.69
643.19	299.59
643.34	243.42
643.48	245.76
643.63	271.50
643.78	325.33
643.93	355.76
644.07	229.37
644.22	245.76
644.37	220.01
644.51	304.27
644.66	220.01
644.81	241.08
644.95	259.80
645.10	294.91
645.25	210.65
645.39	318.31
645.54	238.73
645.69	297.25
645.83	229.37
645.98	351.08
646.13	250.44
646.27	250.44
646.42	266.82
646.57	184.90
646.71	252.78
646.86	271.50
647.00	217.67
647.15	220.01
647.30	306.61
647.44	255.12
647.59	229.37
647.74	248.10
647.88	250.44
648.03	217.67
648.17	315.97
648.32	271.50
648.47	351.08
648.61	259.80
648.76	147.45
648.90	269.16
649.05	198.95
649.20	241.08
649.34	266.82
649.49	301.93
649.63	257.46
649.78	287.89
649.92	484.49
650.07	1823.28
650.21	5977.73
650.36	10934.98
650.51	13469.78
650.65	11054.35
650.80	7775.26
650.94	5186.63
651.09	3171.43
651.23	1703.91
651.38	795.78
651.52	521.94
651.67	402.57
651.81	334.70
651.96	320.65
652.10	287.89
652.25	238.73
652.39	301.93
652.54	290.23
652.68	643.65
652.83	1984.77
652.97	3712.09
653.12	4922.15
653.26	4437.66
653.41	3155.04
653.55	2239.89
653.70	1427.73
653.84	802.80
653.99	578.11
654.13	334.70
654.27	346.40
654.42	210.65
654.56	271.50
654.71	306.61
654.85	229.37
655.00	168.52
655.14	138.09
655.29	241.08
655.43	187.24
655.57	245.76
655.72	245.76
655.86	262.14
656.01	140.43
656.15	236.39
656.30	252.78
656.44	252.78
656.58	196.60
656.73	269.16
656.87	231.71
657.01	227.03
657.16	278.52
657.30	177.88
657.45	231.71
657.59	133.41
657.73	215.33
657.88	238.73
658.02	248.10
658.16	191.92
658.31	276.18
658.45	257.46
658.60	220.01
658.74	220.01
658.88	255.12
659.03	283.20
659.17	243.42
659.31	788.76
659.46	2708.00
659.60	5170.24
659.74	6944.37
659.89	5963.68
660.03	4402.55
660.17	2977.16
660.32	1956.69
660.46	1109.41
660.60	664.71
660.74	421.30
660.89	297.25
661.03	285.55
661.17	283.20
661.32	236.39
661.46	180.22
661.60	170.86
661.74	229.37
661.89	255.12
662.03	283.20
662.17	229.37
662.31	255.12
662.46	280.86
662.60	248.10
662.74	220.01
662.88	262.14
663.03	271.50
663.17	252.78
663.31	131.07
663.45	220.01
663.60	250.44
663.74	180.22
663.88	203.63
664.02	182.56
664.17	140.43
664.31	217.67
664.45	212.99
664.59	187.24
664.73	184.90
664.88	257.46
665.02	250.44
665.16	290.23
665.30	264.48
665.44	224.69
665.59	210.65
665.73	231.71
665.87	259.80
666.01	234.05
666.15	201.29
666.29	241.08
666.44	266.82
666.58	308.95
666.72	255.12
666.86	287.89
667.00	334.70
667.14	554.71
667.28	1664.12
667.43	5039.17
667.57	9217.03
667.71	11901.62
667.85	10312.40
667.99	7478.01
668.13	4718.52
668.27	2876.52
668.41	1614.97
668.56	917.49
668.70	592.16
668.84	369.80
668.98	327.68
669.12	276.18
669.26	308.95
669.40	337.04
669.54	264.48
669.68	285.55
669.82	205.97
669.96	252.78
670.10	215.33
670.25	255.12
670.39	266.82
670.53	266.82
670.67	255.12
670.81	231.71
670.95	351.08
671.09	512.58
671.23	1788.17
671.37	4381.48
671.51	6621.38
671.65	7382.05
671.79	5769.42
671.93	3962.53
672.07	2600.34
672.21	1462.83
672.35	849.61
672.49	535.98
672.63	379.17
672.77	337.04
672.91	297.25
673.05	311.29
673.19	243.42
673.33	198.95
673.47	196.60
673.61	238.73
673.75	217.67
673.89	203.63
674.03	227.03
674.17	217.67
674.31	224.69
674.45	187.24
674.59	222.35
674.73	175.54
674.87	220.01
675.01	259.80
675.15	243.42
675.29	362.78
675.43	341.72
675.56	320.65
675.70	245.76
675.84	196.60
675.98	203.63
676.12	163.84
676.26	287.89
676.40	196.60
676.54	224.69
676.68	212.99
676.82	217.67
676.96	208.31
677.10	215.33
677.23	236.39
677.37	177.88
677.51	285.55
677.65	248.10
677.79	152.13
677.93	161.50
678.07	105.32
678.21	255.12
678.34	222.35
678.48	194.26
678.62	224.69
678.76	229.37
678.90	269.16
679.04	217.67
679.18	159.16
679.31	170.86
679.45	105.32
679.59	105.32
679.73	161.50
679.87	177.88
680.00	159.16
680.14	198.95
680.28	205.97
680.42	177.88
680.56	166.18
680.70	142.77
680.83	184.90
680.97	175.54
681.11	126.39
681.25	229.37
681.39	198.95
681.52	196.60
681.66	229.37
681.80	241.08
681.94	210.65
682.07	210.65
682.21	145.11
682.35	112.35
682.49	156.82
682.62	170.86
682.76	187.24
682.90	175.54
683.04	114.69
683.17	222.35
683.31	112.35
683.45	182.56
683.59	238.73
683.72	245.76
683.86	217.67
684.00	163.84
684.13	189.58
684.27	196.60
684.41	201.29
684.55	173.20
684.68	140.43
684.82	229.37
684.96	98.30
685.09	220.01
685.23	133.41
685.37	159.16
685.50	198.95
685.64	173.20
685.78	177.88
685.91	163.84
686.05	236.39
686.19	166.18
686.32	180.22
686.46	201.29
686.60	191.92
686.73	236.39
686.87	196.60
687.01	276.18
687.14	215.33
687.28	229.37
687.42	180.22
687.55	177.88
687.69	187.24
687.82	131.07
687.96	156.82
688.10	180.22
688.23	189.58
688.37	241.08
688.50	198.95
688.64	166.18
688.78	187.24
688.91	180.22
689.05	180.22
689.18	177.88
689.32	173.20
689.46	222.35
689.59	159.16
689.73	194.26
689.86	145.11
690.00	184.90
690.13	121.71
690.27	198.95
690.41	205.97
690.54	222.35
690.68	177.88
690.81	128.73
690.95	175.54
691.08	170.86
691.22	184.90
691.35	175.54
691.49	124.05
691.62	201.29
691.76	201.29
691.89	191.92
692.03	194.26
692.16	152.13
692.30	255.12
692.43	704.50
692.57	2078.40
692.70	3918.06
692.84	4950.23
692.97	4610.86
693.11	3368.03
693.24	2539.48
693.38	1682.85
693.51	1240.48
693.65	835.57
693.78	573.43
693.92	372.15
694.05	306.61
694.19	278.52
694.32	220.01
694.45	161.50
694.59	131.07
694.72	142.77
694.86	177.88
694.99	255.12
695.13	173.20
695.26	196.60
695.39	257.46
695.53	205.97
695.66	231.71
695.80	203.63
695.93	168.52
696.07	210.65
696.20	348.74
696.33	421.30
696.47	510.24
696.60	374.49
696.73	423.64
696.87	390.87
697.00	358.10
697.14	184.90
697.27	264.48
697.40	287.89
697.54	189.58
697.67	227.03
697.80	170.86
697.94	110.01
698.07	84.26
698.21	276.18
698.34	222.35
698.47	79.58
698.61	126.39
698.74	191.92
698.87	250.44
699.01	152.13
699.14	177.88
699.27	142.77
699.40	257.46
699.54	201.29
699.67	159.16
699.80	180.22
699.94	194.26
700.07	198.95
700.20	166.18
700.34	135.75
700.47	175.54
700.60	201.29
700.73	142.77
700.87	212.99
701.00	140.43
701.13	170.86
701.26	243.42
701.40	180.22
701.53	182.56
701.66	222.35
701.79	241.08
701.93	276.18
702.06	346.40
702.19	433.00
702.32	564.07
702.46	535.98
702.59	482.15
702.72	798.12
702.85	2698.64
702.99	5909.85
703.12	8657.64
703.25	9731.95
703.38	8404.86
703.51	6778.19
703.65	5298.97
703.78	3737.84
703.91	2480.97
704.04	1547.09
704.17	980.68
704.31	615.56
704.44	470.45
704.57	308.95
704.70	259.80
704.83	262.14
704.96	271.50
705.10	229.37
705.23	234.05
>>>>>End Processed Spectral Data<<<<<
