SpectraSuite Data File
++++++++++++++++++++++++++++++++++++
Date: Fri Oct 04 11:33:57 GMT-05:00 2013
User: price-jones
Dark Spectrum Present: No
Reference Spectrum Present: No
Number of Sampled Component Spectra: 1
Spectrometers: USB2+H05261
Integration Time (usec): 100000 (USB2+H05261)
Spectra Averaged: 1 (USB2+H05261)
Boxcar Smoothing: 0 (USB2+H05261)
Correct for Electrical Dark: No (USB2+H05261)
Strobe/Lamp Enabled: No (USB2+H05261)
Correct for Detector Non-linearity: No (USB2+H05261)
Correct for Stray Light: No (USB2+H05261)
Number of Pixels in Processed Spectrum: 2048
>>>>>Begin Processed Spectral Data<<<<<
365.73	77.24
365.92	77.24
366.12	77.24
366.32	0.00
366.52	14.04
366.72	65.54
366.91	2.34
367.11	0.00
367.31	0.00
367.51	16.38
367.70	0.00
367.90	0.00
368.10	0.00
368.30	25.75
368.49	0.00
368.69	35.11
368.89	0.00
369.09	0.00
369.28	0.00
369.48	0.00
369.68	0.00
369.87	0.00
370.07	0.00
370.27	21.06
370.47	14.04
370.66	0.00
370.86	110.01
371.06	74.90
371.25	88.94
371.45	77.24
371.65	124.05
371.84	135.75
372.04	53.83
372.24	100.64
372.44	70.22
372.63	152.13
372.83	243.42
373.03	135.75
373.22	84.26
373.42	30.43
373.62	166.18
373.81	187.24
374.01	145.11
374.21	189.58
374.40	180.22
374.60	166.18
374.79	140.43
374.99	119.37
375.19	147.45
375.38	154.48
375.58	117.03
375.78	182.56
375.97	149.79
376.17	229.37
376.37	201.29
376.56	163.84
376.76	98.30
376.95	72.56
377.15	170.86
377.35	191.92
377.54	131.07
377.74	173.20
377.93	147.45
378.13	142.77
378.33	140.43
378.52	95.96
378.72	215.33
378.91	262.14
379.11	170.86
379.31	149.79
379.50	107.66
379.70	173.20
379.89	243.42
380.09	212.99
380.28	112.35
380.48	124.05
380.68	170.86
380.87	138.09
381.07	91.28
381.26	212.99
381.46	189.58
381.65	124.05
381.85	128.73
382.04	81.92
382.24	91.28
382.43	154.48
382.63	138.09
382.83	128.73
383.02	128.73
383.22	203.63
383.41	81.92
383.61	163.84
383.80	77.24
384.00	124.05
384.19	107.66
384.39	145.11
384.58	170.86
384.78	175.54
384.97	168.52
385.17	105.32
385.36	205.97
385.56	166.18
385.75	128.73
385.95	131.07
386.14	170.86
386.34	107.66
386.53	177.88
386.72	93.62
386.92	222.35
387.11	170.86
387.31	182.56
387.50	220.01
387.70	119.37
387.89	119.37
388.09	161.50
388.28	124.05
388.48	131.07
388.67	205.97
388.86	224.69
389.06	124.05
389.25	166.18
389.45	159.16
389.64	133.41
389.84	241.08
390.03	182.56
390.22	126.39
390.42	124.05
390.61	93.62
390.81	163.84
391.00	163.84
391.19	131.07
391.39	154.48
391.58	168.52
391.78	168.52
391.97	189.58
392.16	110.01
392.36	241.08
392.55	142.77
392.75	138.09
392.94	121.71
393.13	102.98
393.33	79.58
393.52	112.35
393.71	198.95
393.91	166.18
394.10	145.11
394.29	175.54
394.49	189.58
394.68	184.90
394.88	156.82
395.07	149.79
395.26	177.88
395.46	187.24
395.65	138.09
395.84	191.92
396.04	163.84
396.23	102.98
396.42	100.64
396.62	133.41
396.81	110.01
397.00	173.20
397.19	168.52
397.39	93.62
397.58	252.78
397.77	191.92
397.97	105.32
398.16	198.95
398.35	105.32
398.55	124.05
398.74	138.09
398.93	180.22
399.12	133.41
399.32	84.26
399.51	142.77
399.70	135.75
399.90	154.48
400.09	135.75
400.28	159.16
400.47	147.45
400.67	140.43
400.86	159.16
401.05	131.07
401.24	131.07
401.44	131.07
401.63	74.90
401.82	182.56
402.01	140.43
402.21	126.39
402.40	95.96
402.59	140.43
402.78	184.90
402.97	70.22
403.17	145.11
403.36	187.24
403.55	135.75
403.74	142.77
403.93	173.20
404.13	245.76
404.32	203.63
404.51	222.35
404.70	182.56
404.89	159.16
405.09	208.31
405.28	203.63
405.47	168.52
405.66	135.75
405.85	194.26
406.05	159.16
406.24	180.22
406.43	201.29
406.62	149.79
406.81	170.86
407.00	170.86
407.20	60.85
407.39	168.52
407.58	170.86
407.77	259.80
407.96	126.39
408.15	133.41
408.34	126.39
408.54	194.26
408.73	147.45
408.92	210.65
409.11	138.09
409.30	166.18
409.49	81.92
409.68	161.50
409.87	187.24
410.07	245.76
410.26	135.75
410.45	154.48
410.64	138.09
410.83	140.43
411.02	149.79
411.21	124.05
411.40	184.90
411.59	121.71
411.78	161.50
411.98	135.75
412.17	53.83
412.36	88.94
412.55	131.07
412.74	131.07
412.93	243.42
413.12	161.50
413.31	147.45
413.50	149.79
413.69	217.67
413.88	166.18
414.07	203.63
414.26	163.84
414.45	177.88
414.64	215.33
414.83	147.45
415.02	220.01
415.22	191.92
415.41	114.69
415.60	154.48
415.79	121.71
415.98	175.54
416.17	79.58
416.36	149.79
416.55	196.60
416.74	205.97
416.93	102.98
417.12	98.30
417.31	133.41
417.50	196.60
417.69	161.50
417.88	210.65
418.07	163.84
418.26	184.90
418.45	205.97
418.64	187.24
418.83	210.65
419.02	241.08
419.21	189.58
419.39	163.84
419.58	159.16
419.77	152.13
419.96	227.03
420.15	212.99
420.34	182.56
420.53	131.07
420.72	212.99
420.91	170.86
421.10	177.88
421.29	166.18
421.48	210.65
421.67	201.29
421.86	166.18
422.05	205.97
422.24	248.10
422.43	196.60
422.61	156.82
422.80	168.52
422.99	131.07
423.18	154.48
423.37	191.92
423.56	184.90
423.75	189.58
423.94	152.13
424.13	163.84
424.32	105.32
424.50	215.33
424.69	191.92
424.88	201.29
425.07	119.37
425.26	330.02
425.45	250.44
425.64	236.39
425.83	159.16
426.01	203.63
426.20	191.92
426.39	168.52
426.58	159.16
426.77	222.35
426.96	198.95
427.15	205.97
427.33	168.52
427.52	159.16
427.71	145.11
427.90	184.90
428.09	227.03
428.28	168.52
428.46	180.22
428.65	227.03
428.84	184.90
429.03	191.92
429.22	131.07
429.40	191.92
429.59	145.11
429.78	168.52
429.97	166.18
430.16	145.11
430.34	149.79
430.53	182.56
430.72	98.30
430.91	184.90
431.10	191.92
431.28	173.20
431.47	198.95
431.66	191.92
431.85	217.67
432.03	159.16
432.22	217.67
432.41	173.20
432.60	205.97
432.79	234.05
432.97	227.03
433.16	152.13
433.35	234.05
433.54	189.58
433.72	184.90
433.91	161.50
434.10	234.05
434.28	229.37
434.47	266.82
434.66	238.73
434.85	201.29
435.03	238.73
435.22	322.99
435.41	477.47
435.59	461.09
435.78	381.51
435.97	208.31
436.16	215.33
436.34	168.52
436.53	124.05
436.72	173.20
436.90	156.82
437.09	259.80
437.28	182.56
437.46	187.24
437.65	142.77
437.84	191.92
438.02	187.24
438.21	245.76
438.40	161.50
438.58	95.96
438.77	140.43
438.96	166.18
439.14	182.56
439.33	210.65
439.52	126.39
439.70	147.45
439.89	147.45
440.08	152.13
440.26	170.86
440.45	224.69
440.63	220.01
440.82	102.98
441.01	170.86
441.19	147.45
441.38	140.43
441.57	194.26
441.75	196.60
441.94	255.12
442.12	189.58
442.31	191.92
442.50	128.73
442.68	224.69
442.87	95.96
443.05	180.22
443.24	140.43
443.43	161.50
443.61	196.60
443.80	159.16
443.98	147.45
444.17	140.43
444.35	262.14
444.54	170.86
444.73	147.45
444.91	283.20
445.10	163.84
445.28	259.80
445.47	224.69
445.65	152.13
445.84	170.86
446.02	198.95
446.21	173.20
446.39	220.01
446.58	187.24
446.77	182.56
446.95	189.58
447.14	208.31
447.32	182.56
447.51	84.26
447.69	168.52
447.88	161.50
448.06	287.89
448.25	163.84
448.43	212.99
448.62	184.90
448.80	135.75
448.99	161.50
449.17	126.39
449.36	135.75
449.54	170.86
449.73	117.03
449.91	184.90
450.10	198.95
450.28	264.48
450.46	231.71
450.65	184.90
450.83	161.50
451.02	203.63
451.20	175.54
451.39	196.60
451.57	159.16
451.76	236.39
451.94	224.69
452.13	301.93
452.31	234.05
452.49	220.01
452.68	168.52
452.86	191.92
453.05	208.31
453.23	161.50
453.42	166.18
453.60	173.20
453.78	224.69
453.97	102.98
454.15	196.60
454.34	161.50
454.52	152.13
454.70	208.31
454.89	196.60
455.07	210.65
455.26	238.73
455.44	194.26
455.62	133.41
455.81	177.88
455.99	159.16
456.17	159.16
456.36	177.88
456.54	168.52
456.73	196.60
456.91	107.66
457.09	236.39
457.28	255.12
457.46	117.03
457.64	220.01
457.83	196.60
458.01	231.71
458.19	161.50
458.38	269.16
458.56	170.86
458.74	173.20
458.93	273.84
459.11	187.24
459.29	205.97
459.48	203.63
459.66	138.09
459.84	248.10
460.03	294.91
460.21	285.55
460.39	248.10
460.57	236.39
460.76	266.82
460.94	222.35
461.12	173.20
461.31	217.67
461.49	168.52
461.67	177.88
461.85	212.99
462.04	145.11
462.22	620.24
462.40	163.84
462.59	236.39
462.77	159.16
462.95	236.39
463.13	198.95
463.32	259.80
463.50	198.95
463.68	234.05
463.86	201.29
464.05	177.88
464.23	255.12
464.41	166.18
464.59	259.80
464.78	161.50
464.96	161.50
465.14	182.56
465.32	163.84
465.50	229.37
465.69	210.65
465.87	138.09
466.05	217.67
466.23	184.90
466.41	152.13
466.60	231.71
466.78	187.24
466.96	210.65
467.14	212.99
467.32	238.73
467.51	184.90
467.69	203.63
467.87	203.63
468.05	220.01
468.23	173.20
468.41	227.03
468.60	215.33
468.78	208.31
468.96	234.05
469.14	217.67
469.32	173.20
469.50	194.26
469.69	224.69
469.87	283.20
470.05	234.05
470.23	229.37
470.41	196.60
470.59	203.63
470.77	175.54
470.95	224.69
471.14	255.12
471.32	220.01
471.50	189.58
471.68	161.50
471.86	222.35
472.04	140.43
472.22	145.11
472.40	189.58
472.58	163.84
472.77	238.73
472.95	222.35
473.13	231.71
473.31	163.84
473.49	196.60
473.67	161.50
473.85	224.69
474.03	198.95
474.21	266.82
474.39	222.35
474.57	227.03
474.75	163.84
474.93	220.01
475.12	208.31
475.30	100.64
475.48	241.08
475.66	210.65
475.84	259.80
476.02	266.82
476.20	196.60
476.38	241.08
476.56	250.44
476.74	196.60
476.92	262.14
477.10	191.92
477.28	205.97
477.46	194.26
477.64	241.08
477.82	224.69
478.00	166.18
478.18	248.10
478.36	184.90
478.54	217.67
478.72	248.10
478.90	224.69
479.08	231.71
479.26	194.26
479.44	266.82
479.62	184.90
479.80	278.52
479.98	119.37
480.16	220.01
480.34	269.16
480.52	212.99
480.70	255.12
480.88	248.10
481.06	184.90
481.24	236.39
481.41	168.52
481.59	297.25
481.77	243.42
481.95	231.71
482.13	266.82
482.31	152.13
482.49	154.48
482.67	198.95
482.85	152.13
483.03	266.82
483.21	173.20
483.39	184.90
483.57	231.71
483.74	283.20
483.92	222.35
484.10	224.69
484.28	198.95
484.46	318.31
484.64	177.88
484.82	248.10
485.00	278.52
485.18	280.86
485.35	203.63
485.53	208.31
485.71	245.76
485.89	236.39
486.07	201.29
486.25	278.52
486.43	208.31
486.61	257.46
486.78	229.37
486.96	229.37
487.14	184.90
487.32	306.61
487.50	196.60
487.68	168.52
487.85	262.14
488.03	276.18
488.21	234.05
488.39	236.39
488.57	299.59
488.75	227.03
488.92	440.02
489.10	248.10
489.28	241.08
489.46	227.03
489.64	220.01
489.81	234.05
489.99	210.65
490.17	215.33
490.35	259.80
490.53	234.05
490.70	252.78
490.88	245.76
491.06	224.69
491.24	205.97
491.41	301.93
491.59	252.78
491.77	215.33
491.95	299.59
492.13	180.22
492.30	262.14
492.48	280.86
492.66	248.10
492.84	205.97
493.01	264.48
493.19	177.88
493.37	236.39
493.54	292.57
493.72	285.55
493.90	252.78
494.08	248.10
494.25	224.69
494.43	280.86
494.61	320.65
494.79	222.35
494.96	201.29
495.14	283.20
495.32	266.82
495.49	285.55
495.67	290.23
495.85	287.89
496.02	250.44
496.20	290.23
496.38	259.80
496.55	278.52
496.73	234.05
496.91	203.63
497.09	301.93
497.26	257.46
497.44	315.97
497.62	257.46
497.79	245.76
497.97	257.46
498.14	273.84
498.32	191.92
498.50	201.29
498.67	285.55
498.85	229.37
499.03	266.82
499.20	243.42
499.38	266.82
499.56	175.54
499.73	292.57
499.91	227.03
500.08	290.23
500.26	301.93
500.44	166.18
500.61	238.73
500.79	208.31
500.97	271.50
501.14	259.80
501.32	248.10
501.49	266.82
501.67	259.80
501.84	215.33
502.02	222.35
502.20	304.27
502.37	262.14
502.55	234.05
502.72	278.52
502.90	313.63
503.07	248.10
503.25	285.55
503.43	208.31
503.60	266.82
503.78	252.78
503.95	280.86
504.13	308.95
504.30	308.95
504.48	297.25
504.65	374.49
504.83	229.37
505.01	180.22
505.18	250.44
505.36	222.35
505.53	306.61
505.71	224.69
505.88	301.93
506.06	243.42
506.23	264.48
506.41	238.73
506.58	278.52
506.76	222.35
506.93	292.57
507.11	308.95
507.28	210.65
507.46	306.61
507.63	231.71
507.81	283.20
507.98	262.14
508.16	285.55
508.33	248.10
508.50	283.20
508.68	259.80
508.85	229.37
509.03	269.16
509.20	217.67
509.38	257.46
509.55	294.91
509.73	285.55
509.90	285.55
510.08	215.33
510.25	290.23
510.42	243.42
510.60	259.80
510.77	290.23
510.95	269.16
511.12	273.84
511.30	273.84
511.47	320.65
511.64	327.68
511.82	227.03
511.99	212.99
512.17	203.63
512.34	255.12
512.51	173.20
512.69	175.54
512.86	231.71
513.04	168.52
513.21	234.05
513.38	243.42
513.56	252.78
513.73	210.65
513.90	276.18
514.08	280.86
514.25	348.74
514.43	229.37
514.60	280.86
514.77	271.50
514.95	381.51
515.12	252.78
515.29	236.39
515.47	285.55
515.64	208.31
515.81	318.31
515.99	259.80
516.16	290.23
516.33	266.82
516.51	224.69
516.68	229.37
516.85	227.03
517.03	231.71
517.20	313.63
517.37	299.59
517.54	259.80
517.72	262.14
517.89	173.20
518.06	203.63
518.24	257.46
518.41	285.55
518.58	259.80
518.75	294.91
518.93	285.55
519.10	278.52
519.27	332.36
519.45	290.23
519.62	301.93
519.79	231.71
519.96	208.31
520.14	311.29
520.31	271.50
520.48	210.65
520.65	245.76
520.83	315.97
521.00	271.50
521.17	264.48
521.34	283.20
521.52	276.18
521.69	248.10
521.86	278.52
522.03	278.52
522.20	264.48
522.38	198.95
522.55	252.78
522.72	224.69
522.89	315.97
523.07	285.55
523.24	243.42
523.41	278.52
523.58	266.82
523.75	255.12
523.92	196.60
524.10	283.20
524.27	290.23
524.44	290.23
524.61	344.06
524.78	278.52
524.96	243.42
525.13	245.76
525.30	290.23
525.47	259.80
525.64	252.78
525.81	208.31
525.98	308.95
526.16	224.69
526.33	198.95
526.50	194.26
526.67	255.12
526.84	245.76
527.01	283.20
527.18	306.61
527.36	257.46
527.53	238.73
527.70	313.63
527.87	259.80
528.04	315.97
528.21	262.14
528.38	273.84
528.55	212.99
528.72	245.76
528.89	255.12
529.07	198.95
529.24	255.12
529.41	313.63
529.58	255.12
529.75	231.71
529.92	306.61
530.09	252.78
530.26	290.23
530.43	344.06
530.60	278.52
530.77	273.84
530.94	245.76
531.11	337.04
531.28	252.78
531.46	292.57
531.63	262.14
531.80	266.82
531.97	315.97
532.14	255.12
532.31	444.70
532.48	271.50
532.65	313.63
532.82	271.50
532.99	362.78
533.16	280.86
533.33	306.61
533.50	297.25
533.67	346.40
533.84	365.12
534.01	330.02
534.18	379.17
534.35	332.36
534.52	315.97
534.69	257.46
534.86	264.48
535.03	273.84
535.20	276.18
535.37	339.38
535.54	257.46
535.71	397.89
535.88	369.80
536.05	257.46
536.22	290.23
536.38	292.57
536.55	322.99
536.72	301.93
536.89	292.57
537.06	285.55
537.23	320.65
537.40	362.78
537.57	245.76
537.74	388.53
537.91	367.46
538.08	341.72
538.25	337.04
538.42	325.33
538.59	285.55
538.75	313.63
538.92	287.89
539.09	313.63
539.26	285.55
539.43	559.39
539.60	936.21
539.77	1198.35
539.94	1181.97
540.11	774.72
540.28	730.25
540.44	561.73
540.61	472.79
540.78	421.30
540.95	397.89
541.12	543.00
541.29	507.90
541.46	524.28
541.62	472.79
541.79	528.96
541.96	580.45
542.13	571.09
542.30	561.73
542.47	554.71
542.63	454.06
542.80	493.85
542.97	451.72
543.14	444.70
543.31	484.49
543.48	528.96
543.64	465.77
543.81	491.51
543.98	440.02
544.15	475.13
544.32	566.41
544.48	491.51
544.65	400.23
544.82	503.22
544.99	435.34
545.16	545.34
545.32	458.74
545.49	833.23
545.66	844.93
545.83	926.85
546.00	837.91
546.16	638.97
546.33	585.13
546.50	526.62
546.67	486.83
546.83	416.62
547.00	479.81
547.17	449.38
547.34	351.08
547.50	393.21
547.67	435.34
547.84	393.21
548.00	367.46
548.17	397.89
548.34	315.97
548.51	407.25
548.67	372.15
548.84	327.68
549.01	365.12
549.18	416.62
549.34	348.74
549.51	290.23
549.68	383.85
549.84	388.53
550.01	318.31
550.18	479.81
550.34	440.02
550.51	379.17
550.68	390.87
550.84	318.31
551.01	294.91
551.18	381.51
551.34	301.93
551.51	278.52
551.68	308.95
551.84	308.95
552.01	318.31
552.18	304.27
552.34	280.86
552.51	383.85
552.68	264.48
552.84	330.02
553.01	332.36
553.18	308.95
553.34	358.10
553.51	318.31
553.67	308.95
553.84	325.33
554.01	280.86
554.17	372.15
554.34	322.99
554.51	264.48
554.67	278.52
554.84	292.57
555.00	269.16
555.17	255.12
555.33	252.78
555.50	255.12
555.67	322.99
555.83	341.72
556.00	255.12
556.16	444.70
556.33	273.84
556.50	290.23
556.66	283.20
556.83	278.52
556.99	250.44
557.16	245.76
557.32	241.08
557.49	280.86
557.65	257.46
557.82	327.68
557.98	332.36
558.15	283.20
558.32	287.89
558.48	245.76
558.65	248.10
558.81	318.31
558.98	248.10
559.14	318.31
559.31	337.04
559.47	278.52
559.64	257.46
559.80	280.86
559.97	168.52
560.13	243.42
560.30	201.29
560.46	262.14
560.63	243.42
560.79	315.97
560.96	285.55
561.12	210.65
561.29	278.52
561.45	257.46
561.61	264.48
561.78	290.23
561.94	287.89
562.11	196.60
562.27	255.12
562.44	250.44
562.60	308.95
562.77	264.48
562.93	325.33
563.10	262.14
563.26	222.35
563.42	257.46
563.59	264.48
563.75	234.05
563.92	313.63
564.08	259.80
564.24	276.18
564.41	400.23
564.57	252.78
564.74	290.23
564.90	306.61
565.07	231.71
565.23	271.50
565.39	212.99
565.56	348.74
565.72	280.86
565.88	229.37
566.05	220.01
566.21	283.20
566.38	294.91
566.54	264.48
566.70	222.35
566.87	229.37
567.03	245.76
567.19	229.37
567.36	280.86
567.52	280.86
567.68	278.52
567.85	231.71
568.01	201.29
568.17	227.03
568.34	222.35
568.50	290.23
568.66	299.59
568.83	299.59
568.99	320.65
569.15	224.69
569.32	299.59
569.48	243.42
569.64	259.80
569.81	220.01
569.97	231.71
570.13	250.44
570.30	227.03
570.46	318.31
570.62	330.02
570.78	227.03
570.95	255.12
571.11	252.78
571.27	313.63
571.43	234.05
571.60	285.55
571.76	229.37
571.92	318.31
572.09	189.58
572.25	259.80
572.41	238.73
572.57	243.42
572.74	311.29
572.90	243.42
573.06	308.95
573.22	290.23
573.38	297.25
573.55	346.40
573.71	220.01
573.87	264.48
574.03	308.95
574.20	290.23
574.36	306.61
574.52	327.68
574.68	348.74
574.84	353.42
575.01	299.59
575.17	304.27
575.33	241.08
575.49	306.61
575.65	290.23
575.82	372.15
575.98	472.79
576.14	573.43
576.30	582.79
576.46	433.00
576.62	543.00
576.79	479.81
576.95	395.55
577.11	299.59
577.27	301.93
577.43	358.10
577.59	341.72
577.75	292.57
577.92	248.10
578.08	269.16
578.24	276.18
578.40	327.68
578.56	397.89
578.72	411.93
578.88	416.62
579.04	379.17
579.21	400.23
579.37	243.42
579.53	330.02
579.69	315.97
579.85	330.02
580.01	313.63
580.17	360.44
580.33	358.10
580.49	341.72
580.65	402.57
580.82	313.63
580.98	306.61
581.14	299.59
581.30	344.06
581.46	461.09
581.62	491.51
581.78	524.28
581.94	472.79
582.10	444.70
582.26	470.45
582.42	435.34
582.58	421.30
582.74	376.83
582.90	454.06
583.06	437.68
583.22	407.25
583.38	449.38
583.54	400.23
583.70	601.52
583.86	636.63
584.02	678.76
584.18	674.07
584.34	943.24
584.50	2296.07
584.66	15707.34
584.82	39880.39
584.98	51756.27
585.14	46948.81
585.30	29418.19
585.46	18015.10
585.62	10923.28
585.78	5085.98
585.94	2125.21
586.10	1114.10
586.26	765.36
586.42	660.03
586.58	608.54
586.74	627.26
586.90	540.66
587.06	596.84
587.22	514.92
587.38	498.53
587.54	924.51
587.70	2413.09
587.86	3674.64
588.02	3915.72
588.18	2801.62
588.34	1914.56
588.49	1266.23
588.65	861.32
588.81	594.50
588.97	376.83
589.13	416.62
589.29	402.57
589.45	374.49
589.61	337.04
589.77	397.89
589.93	437.68
590.08	407.25
590.24	351.08
590.40	416.62
590.56	428.32
590.72	348.74
590.88	259.80
591.04	411.93
591.20	348.74
591.35	379.17
591.51	341.72
591.67	322.99
591.83	404.91
591.99	365.12
592.15	395.55
592.31	348.74
592.46	414.27
592.62	320.65
592.78	388.53
592.94	411.93
593.10	348.74
593.26	383.85
593.41	348.74
593.57	353.42
593.73	498.53
593.89	2050.31
594.05	4950.23
594.20	6679.89
594.36	6270.30
594.52	4236.37
594.68	2930.35
594.84	1778.81
594.99	1142.18
595.15	575.77
595.31	407.25
595.47	505.56
595.62	365.12
595.78	369.80
595.94	315.97
596.10	339.38
596.25	372.15
596.41	388.53
596.57	318.31
596.73	271.50
596.88	472.79
597.04	1109.41
597.20	1544.75
597.36	1785.83
597.51	1446.45
597.67	1006.43
597.83	695.14
597.99	545.34
598.14	442.36
598.30	358.10
598.46	304.27
598.61	332.36
598.77	353.42
598.93	346.40
599.09	355.76
599.24	325.33
599.40	292.57
599.56	301.93
599.71	313.63
599.87	337.04
600.03	353.42
600.18	259.80
600.34	304.27
600.50	271.50
600.65	257.46
600.81	280.86
600.97	372.15
601.12	238.73
601.28	290.23
601.44	259.80
601.59	205.97
601.75	393.21
601.91	266.82
602.06	330.02
602.22	376.83
602.37	543.00
602.53	1181.97
602.69	1757.74
602.84	1755.40
603.00	1322.40
603.16	1011.11
603.31	772.38
603.47	617.90
603.62	428.32
603.78	337.04
603.94	299.59
604.09	341.72
604.25	290.23
604.40	269.16
604.56	250.44
604.71	327.68
604.87	294.91
605.03	311.29
605.18	234.05
605.34	358.10
605.49	330.02
605.65	334.70
605.80	308.95
605.96	416.62
606.12	236.39
606.27	383.85
606.43	344.06
606.58	381.51
606.74	765.36
606.89	2476.29
607.05	4533.62
607.20	5624.31
607.36	4601.49
607.51	3248.66
607.67	2139.25
607.82	1521.35
607.98	961.96
608.13	521.94
608.29	503.22
608.44	456.40
608.60	465.77
608.75	543.00
608.91	999.41
609.06	3777.62
609.22	7688.66
609.37	9813.87
609.53	8582.74
609.68	5994.11
609.84	4021.04
609.99	2682.25
610.15	1579.86
610.30	987.71
610.46	870.68
610.61	767.70
610.76	954.94
610.92	957.28
611.07	1053.24
611.23	1107.07
611.38	952.60
611.54	863.66
611.69	751.31
611.84	720.88
612.00	568.75
612.15	603.86
612.31	706.84
612.46	816.85
612.62	744.29
612.77	744.29
612.92	596.84
613.08	624.92
613.23	596.84
613.39	610.88
613.54	741.95
613.69	3613.79
613.85	9563.43
614.00	14628.35
614.15	15286.04
614.31	10827.32
614.46	7052.03
614.62	5071.94
614.77	3094.19
614.92	1537.73
615.08	823.87
615.23	648.33
615.38	519.60
615.54	540.66
615.69	788.76
615.84	1944.99
616.00	3311.86
616.15	4231.69
616.30	3442.93
616.46	2431.82
616.61	1781.15
616.76	1167.93
616.92	744.29
617.07	512.58
617.22	334.70
617.37	280.86
617.53	409.59
617.68	351.08
617.83	320.65
617.99	388.53
618.14	447.04
618.29	332.36
618.45	362.78
618.60	299.59
618.75	283.20
618.90	290.23
619.06	325.33
619.21	411.93
619.36	337.04
619.51	372.15
619.67	273.84
619.82	250.44
619.97	280.86
620.12	299.59
620.28	318.31
620.43	257.46
620.58	330.02
620.73	390.87
620.89	308.95
621.04	428.32
621.19	1135.16
621.34	1912.22
621.49	2450.54
621.65	2197.76
621.80	1605.61
621.95	1135.16
622.10	837.91
622.25	601.52
622.41	383.85
622.56	346.40
622.71	351.08
622.86	301.93
623.01	337.04
623.16	386.19
623.32	243.42
623.47	322.99
623.62	283.20
623.77	264.48
623.92	313.63
624.07	322.99
624.23	292.57
624.38	297.25
624.53	264.48
624.68	379.17
624.83	360.44
624.98	383.85
625.13	301.93
625.29	325.33
625.44	360.44
625.59	362.78
625.74	393.21
625.89	456.40
626.04	1694.55
626.19	4634.26
626.34	7304.81
626.49	7871.22
626.65	5778.78
626.80	4002.32
626.95	2780.56
627.10	1769.44
627.25	1071.97
627.40	592.16
627.55	447.04
627.70	369.80
627.85	369.80
628.00	330.02
628.15	285.55
628.30	236.39
628.45	215.33
628.60	313.63
628.76	325.33
628.91	283.20
629.06	142.77
629.21	306.61
629.36	308.95
629.51	311.29
629.66	334.70
629.81	486.83
629.96	957.28
630.11	1703.91
630.26	2218.83
630.41	2047.97
630.56	1465.18
630.71	1102.39
630.86	858.98
631.01	645.99
631.16	409.59
631.31	374.49
631.46	301.93
631.61	318.31
631.76	320.65
631.91	248.10
632.06	250.44
632.21	269.16
632.36	379.17
632.51	334.70
632.66	337.04
632.81	873.02
632.96	2710.34
633.10	4559.36
633.25	5434.72
633.40	4416.59
633.55	3080.14
633.70	2155.63
633.85	1509.65
634.00	812.17
634.15	528.96
634.30	381.51
634.45	341.72
634.60	257.46
634.75	311.29
634.90	257.46
635.05	327.68
635.19	318.31
635.34	290.23
635.49	266.82
635.64	266.82
635.79	231.71
635.94	250.44
636.09	304.27
636.24	311.29
636.39	271.50
636.53	292.57
636.68	229.37
636.83	297.25
636.98	297.25
637.13	287.89
637.28	353.42
637.43	299.59
637.57	545.34
637.72	2129.89
637.87	5970.71
638.02	9184.26
638.17	9921.53
638.32	7403.11
638.46	5193.65
638.61	3496.76
638.76	2204.78
638.91	1146.86
639.06	697.48
639.20	491.51
639.35	477.47
639.50	739.61
639.65	3222.92
639.80	9170.22
639.94	13862.99
640.09	15082.41
640.24	11407.77
640.39	7889.95
640.54	5404.30
640.68	3227.60
640.83	1687.53
640.98	847.27
641.13	521.94
641.27	414.27
641.42	290.23
641.57	341.72
641.72	320.65
641.86	273.84
642.01	297.25
642.16	271.50
642.31	322.99
642.45	318.31
642.60	292.57
642.75	252.78
642.90	220.01
643.04	248.10
643.19	229.37
643.34	294.91
643.48	262.14
643.63	227.03
643.78	264.48
643.93	341.72
644.07	184.90
644.22	287.89
644.37	344.06
644.51	217.67
644.66	215.33
644.81	196.60
644.95	339.38
645.10	313.63
645.25	231.71
645.39	231.71
645.54	234.05
645.69	266.82
645.83	220.01
645.98	276.18
646.13	245.76
646.27	205.97
646.42	138.09
646.57	220.01
646.71	117.03
646.86	173.20
647.00	287.89
647.15	220.01
647.30	285.55
647.44	245.76
647.59	196.60
647.74	297.25
647.88	236.39
648.03	182.56
648.17	276.18
648.32	341.72
648.47	264.48
648.61	229.37
648.76	220.01
648.90	280.86
649.05	245.76
649.20	248.10
649.34	220.01
649.49	229.37
649.63	222.35
649.78	327.68
649.92	383.85
650.07	1336.45
650.21	3950.82
650.36	6492.65
650.51	7793.98
650.65	6377.96
650.80	4573.41
650.94	3005.25
651.09	2040.95
651.23	1107.07
651.38	561.73
651.52	353.42
651.67	301.93
651.81	276.18
651.96	266.82
652.10	313.63
652.25	238.73
652.39	212.99
652.54	287.89
652.68	484.49
652.83	1387.94
652.97	2326.49
653.12	2801.62
653.26	2530.12
653.41	1977.75
653.55	1341.13
653.70	887.06
653.84	603.86
653.99	325.33
654.13	313.63
654.27	208.31
654.42	231.71
654.56	224.69
654.71	306.61
654.85	255.12
655.00	229.37
655.14	236.39
655.29	245.76
655.43	266.82
655.57	142.77
655.72	159.16
655.86	292.57
656.01	189.58
656.15	191.92
656.30	252.78
656.44	229.37
656.58	222.35
656.73	198.95
656.87	198.95
657.01	257.46
657.16	243.42
657.30	269.16
657.45	180.22
657.59	294.91
657.73	196.60
657.88	257.46
658.02	271.50
658.16	210.65
658.31	292.57
658.45	269.16
658.60	182.56
658.74	248.10
658.88	241.08
659.03	229.37
659.17	271.50
659.31	589.82
659.46	1809.23
659.60	3251.00
659.74	3936.78
659.89	3478.04
660.03	2551.18
660.17	1785.83
660.32	1118.78
660.46	767.70
660.60	449.38
660.74	372.15
660.89	290.23
661.03	264.48
661.17	187.24
661.32	212.99
661.46	229.37
661.60	283.20
661.74	248.10
661.89	208.31
662.03	198.95
662.17	236.39
662.31	222.35
662.46	264.48
662.60	273.84
662.74	194.26
662.88	196.60
663.03	271.50
663.17	196.60
663.31	224.69
663.45	196.60
663.60	159.16
663.74	231.71
663.88	161.50
664.02	217.67
664.17	124.05
664.31	140.43
664.45	236.39
664.59	187.24
664.73	234.05
664.88	252.78
665.02	180.22
665.16	248.10
665.30	245.76
665.44	163.84
665.59	227.03
665.73	264.48
665.87	234.05
666.01	287.89
666.15	208.31
666.29	196.60
666.44	290.23
666.58	318.31
666.72	252.78
666.86	217.67
667.00	255.12
667.14	400.23
667.28	1310.70
667.43	3351.65
667.57	5518.98
667.71	7012.24
667.85	5956.66
667.99	4383.82
668.13	2825.03
668.27	1823.28
668.41	976.00
668.56	648.33
668.70	447.04
668.84	318.31
668.98	313.63
669.12	266.82
669.26	271.50
669.40	290.23
669.54	231.71
669.68	262.14
669.82	294.91
669.96	273.84
670.10	278.52
670.25	257.46
670.39	264.48
670.53	234.05
670.67	194.26
670.81	313.63
670.95	255.12
671.09	395.55
671.23	1432.41
671.37	2806.30
671.51	3967.21
671.65	4344.03
671.79	3384.41
671.93	2420.11
672.07	1474.54
672.21	910.47
672.35	606.20
672.49	409.59
672.63	315.97
672.77	308.95
672.91	180.22
673.05	238.73
673.19	210.65
673.33	238.73
673.47	271.50
673.61	105.32
673.75	173.20
673.89	231.71
674.03	234.05
674.17	175.54
674.31	194.26
674.45	271.50
674.59	236.39
674.73	262.14
674.87	266.82
675.01	252.78
675.15	264.48
675.29	212.99
675.43	194.26
675.56	278.52
675.70	215.33
675.84	196.60
675.98	243.42
676.12	215.33
676.26	234.05
676.40	166.18
676.54	224.69
676.68	198.95
676.82	208.31
676.96	222.35
677.10	149.79
677.23	222.35
677.37	159.16
677.51	168.52
677.65	224.69
677.79	156.82
677.93	128.73
678.07	163.84
678.21	140.43
678.34	224.69
678.48	126.39
678.62	191.92
678.76	182.56
678.90	124.05
679.04	161.50
679.18	177.88
679.31	175.54
679.45	187.24
679.59	243.42
679.73	203.63
679.87	201.29
680.00	126.39
680.14	117.03
680.28	203.63
680.42	182.56
680.56	166.18
680.70	124.05
680.83	201.29
680.97	163.84
681.11	182.56
681.25	252.78
681.39	133.41
681.52	241.08
681.66	86.60
681.80	177.88
681.94	208.31
682.07	135.75
682.21	147.45
682.35	168.52
682.49	163.84
682.62	231.71
682.76	241.08
682.90	154.48
683.04	227.03
683.17	212.99
683.31	210.65
683.45	163.84
683.59	259.80
683.72	210.65
683.86	170.86
684.00	212.99
684.13	222.35
684.27	198.95
684.41	152.13
684.55	189.58
684.68	227.03
684.82	205.97
684.96	128.73
685.09	245.76
685.23	124.05
685.37	74.90
685.50	250.44
685.64	217.67
685.78	217.67
685.91	159.16
686.05	131.07
686.19	205.97
686.32	259.80
686.46	187.24
686.60	208.31
686.73	205.97
686.87	266.82
687.01	229.37
687.14	210.65
687.28	187.24
687.42	168.52
687.55	182.56
687.69	170.86
687.82	262.14
687.96	177.88
688.10	252.78
688.23	234.05
688.37	205.97
688.50	191.92
688.64	224.69
688.78	175.54
688.91	205.97
689.05	145.11
689.18	168.52
689.32	220.01
689.46	234.05
689.59	173.20
689.73	208.31
689.86	222.35
690.00	138.09
690.13	210.65
690.27	131.07
690.41	243.42
690.54	210.65
690.68	131.07
690.81	238.73
690.95	234.05
691.08	205.97
691.22	234.05
691.35	187.24
691.49	175.54
691.62	208.31
691.76	203.63
691.89	175.54
692.03	201.29
692.16	159.16
692.30	262.14
692.43	538.32
692.57	1345.81
692.70	2363.94
692.84	2883.54
692.97	2789.92
693.11	1994.14
693.24	1629.01
693.38	1004.09
693.51	706.84
693.65	547.69
693.78	456.40
693.92	287.89
694.05	276.18
694.19	224.69
694.32	198.95
694.45	224.69
694.59	173.20
694.72	184.90
694.86	180.22
694.99	187.24
695.13	140.43
695.26	133.41
695.39	191.92
695.53	170.86
695.66	184.90
695.80	222.35
695.93	203.63
696.07	208.31
696.20	301.93
696.33	290.23
696.47	334.70
696.60	365.12
696.73	341.72
696.87	276.18
697.00	294.91
697.14	227.03
697.27	163.84
697.40	234.05
697.54	180.22
697.67	159.16
697.80	238.73
697.94	220.01
698.07	166.18
698.21	194.26
698.34	166.18
698.47	126.39
698.61	128.73
698.74	154.48
698.87	191.92
699.01	271.50
699.14	205.97
699.27	234.05
699.40	311.29
699.54	119.37
699.67	234.05
699.80	98.30
699.94	152.13
700.07	201.29
700.20	210.65
700.34	166.18
700.47	175.54
700.60	220.01
700.73	250.44
700.87	191.92
701.00	175.54
701.13	196.60
701.26	229.37
701.40	161.50
701.53	88.94
701.66	173.20
701.79	191.92
701.93	212.99
702.06	290.23
702.19	283.20
702.32	411.93
702.46	353.42
702.59	320.65
702.72	617.90
702.85	1916.90
702.99	3637.19
703.12	5179.61
703.25	5528.35
703.38	5078.96
703.51	3976.57
703.65	2998.23
703.78	2150.95
703.91	1474.54
704.04	992.39
704.17	690.46
704.31	435.34
704.44	388.53
704.57	255.12
704.70	184.90
704.83	191.92
704.96	236.39
705.10	217.67
705.23	180.22
>>>>>End Processed Spectral Data<<<<<
