SpectraSuite Data File
++++++++++++++++++++++++++++++++++++
Date: Fri Oct 04 11:33:56 GMT-05:00 2013
User: price-jones
Dark Spectrum Present: No
Reference Spectrum Present: No
Number of Sampled Component Spectra: 1
Spectrometers: USB2+H05261
Integration Time (usec): 100000 (USB2+H05261)
Spectra Averaged: 1 (USB2+H05261)
Boxcar Smoothing: 0 (USB2+H05261)
Correct for Electrical Dark: No (USB2+H05261)
Strobe/Lamp Enabled: No (USB2+H05261)
Correct for Detector Non-linearity: No (USB2+H05261)
Correct for Stray Light: No (USB2+H05261)
Number of Pixels in Processed Spectrum: 2048
>>>>>Begin Processed Spectral Data<<<<<
365.73	7.02
365.92	7.02
366.12	7.02
366.32	0.00
366.52	0.00
366.72	0.00
366.91	0.00
367.11	0.00
367.31	0.00
367.51	0.00
367.70	0.00
367.90	0.00
368.10	0.00
368.30	0.00
368.49	0.00
368.69	0.00
368.89	7.02
369.09	21.06
369.28	21.06
369.48	0.00
369.68	11.70
369.87	25.75
370.07	30.43
370.27	60.85
370.47	0.00
370.66	72.56
370.86	84.26
371.06	95.96
371.25	135.75
371.45	98.30
371.65	105.32
371.84	93.62
372.04	133.41
372.24	98.30
372.44	84.26
372.63	107.66
372.83	278.52
373.03	128.73
373.22	93.62
373.42	184.90
373.62	88.94
373.81	149.79
374.01	126.39
374.21	152.13
374.40	182.56
374.60	105.32
374.79	70.22
374.99	140.43
375.19	189.58
375.38	156.82
375.58	149.79
375.78	152.13
375.97	152.13
376.17	217.67
376.37	170.86
376.56	159.16
376.76	142.77
376.95	168.52
377.15	91.28
377.35	140.43
377.54	147.45
377.74	114.69
377.93	191.92
378.13	107.66
378.33	212.99
378.52	119.37
378.72	168.52
378.91	154.48
379.11	194.26
379.31	102.98
379.50	149.79
379.70	194.26
379.89	149.79
380.09	163.84
380.28	72.56
380.48	131.07
380.68	126.39
380.87	107.66
381.07	161.50
381.26	198.95
381.46	140.43
381.65	152.13
381.85	131.07
382.04	107.66
382.24	93.62
382.43	77.24
382.63	124.05
382.83	142.77
383.02	140.43
383.22	168.52
383.41	95.96
383.61	117.03
383.80	91.28
384.00	93.62
384.19	126.39
384.39	168.52
384.58	170.86
384.78	180.22
384.97	131.07
385.17	98.30
385.36	107.66
385.56	93.62
385.75	84.26
385.95	91.28
386.14	112.35
386.34	149.79
386.53	156.82
386.72	100.64
386.92	154.48
387.11	117.03
387.31	154.48
387.50	95.96
387.70	131.07
387.89	173.20
388.09	112.35
388.28	107.66
388.48	126.39
388.67	196.60
388.86	208.31
389.06	140.43
389.25	194.26
389.45	91.28
389.64	215.33
389.84	121.71
390.03	170.86
390.22	205.97
390.42	93.62
390.61	177.88
390.81	102.98
391.00	166.18
391.19	138.09
391.39	117.03
391.58	154.48
391.78	189.58
391.97	154.48
392.16	121.71
392.36	159.16
392.55	212.99
392.75	114.69
392.94	65.54
393.13	159.16
393.33	175.54
393.52	234.05
393.71	201.29
393.91	128.73
394.10	156.82
394.29	133.41
394.49	163.84
394.68	159.16
394.88	203.63
395.07	124.05
395.26	126.39
395.46	65.54
395.65	177.88
395.84	191.92
396.04	208.31
396.23	159.16
396.42	105.32
396.62	189.58
396.81	149.79
397.00	184.90
397.19	95.96
397.39	187.24
397.58	147.45
397.77	105.32
397.97	117.03
398.16	180.22
398.35	161.50
398.55	126.39
398.74	88.94
398.93	152.13
399.12	191.92
399.32	196.60
399.51	166.18
399.70	168.52
399.90	105.32
400.09	191.92
400.28	196.60
400.47	208.31
400.67	128.73
400.86	156.82
401.05	128.73
401.24	191.92
401.44	138.09
401.63	222.35
401.82	126.39
402.01	168.52
402.21	177.88
402.40	133.41
402.59	170.86
402.78	107.66
402.97	177.88
403.17	173.20
403.36	149.79
403.55	173.20
403.74	163.84
403.93	217.67
404.13	245.76
404.32	248.10
404.51	198.95
404.70	215.33
404.89	163.84
405.09	184.90
405.28	168.52
405.47	191.92
405.66	119.37
405.85	182.56
406.05	163.84
406.24	135.75
406.43	126.39
406.62	117.03
406.81	189.58
407.00	187.24
407.20	168.52
407.39	159.16
407.58	236.39
407.77	220.01
407.96	177.88
408.15	133.41
408.34	145.11
408.54	107.66
408.73	191.92
408.92	147.45
409.11	189.58
409.30	196.60
409.49	149.79
409.68	156.82
409.87	128.73
410.07	147.45
410.26	175.54
410.45	102.98
410.64	124.05
410.83	208.31
411.02	154.48
411.21	166.18
411.40	128.73
411.59	182.56
411.78	131.07
411.98	182.56
412.17	117.03
412.36	147.45
412.55	145.11
412.74	86.60
412.93	175.54
413.12	205.97
413.31	128.73
413.50	110.01
413.69	180.22
413.88	215.33
414.07	98.30
414.26	187.24
414.45	208.31
414.64	196.60
414.83	180.22
415.02	142.77
415.22	140.43
415.41	196.60
415.60	222.35
415.79	124.05
415.98	184.90
416.17	205.97
416.36	140.43
416.55	114.69
416.74	189.58
416.93	138.09
417.12	138.09
417.31	124.05
417.50	210.65
417.69	241.08
417.88	180.22
418.07	163.84
418.26	187.24
418.45	135.75
418.64	285.55
418.83	208.31
419.02	248.10
419.21	220.01
419.39	194.26
419.58	210.65
419.77	259.80
419.96	175.54
420.15	236.39
420.34	63.19
420.53	142.77
420.72	255.12
420.91	159.16
421.10	110.01
421.29	142.77
421.48	208.31
421.67	180.22
421.86	152.13
422.05	142.77
422.24	102.98
422.43	201.29
422.61	159.16
422.80	161.50
422.99	182.56
423.18	159.16
423.37	147.45
423.56	248.10
423.75	212.99
423.94	131.07
424.13	180.22
424.32	149.79
424.50	191.92
424.69	194.26
424.88	177.88
425.07	194.26
425.26	198.95
425.45	337.04
425.64	266.82
425.83	238.73
426.01	264.48
426.20	182.56
426.39	170.86
426.58	173.20
426.77	180.22
426.96	198.95
427.15	163.84
427.33	135.75
427.52	191.92
427.71	173.20
427.90	163.84
428.09	175.54
428.28	131.07
428.46	208.31
428.65	182.56
428.84	182.56
429.03	187.24
429.22	131.07
429.40	124.05
429.59	173.20
429.78	205.97
429.97	131.07
430.16	149.79
430.34	210.65
430.53	147.45
430.72	173.20
430.91	191.92
431.10	135.75
431.28	154.48
431.47	168.52
431.66	208.31
431.85	119.37
432.03	135.75
432.22	236.39
432.41	217.67
432.60	229.37
432.79	227.03
432.97	322.99
433.16	306.61
433.35	257.46
433.54	236.39
433.72	269.16
433.91	220.01
434.10	189.58
434.28	166.18
434.47	191.92
434.66	245.76
434.85	105.32
435.03	182.56
435.22	348.74
435.41	390.87
435.59	365.12
435.78	339.38
435.97	287.89
436.16	201.29
436.34	191.92
436.53	138.09
436.72	161.50
436.90	149.79
437.09	152.13
437.28	182.56
437.46	131.07
437.65	194.26
437.84	248.10
438.02	175.54
438.21	220.01
438.40	203.63
438.58	65.54
438.77	168.52
438.96	140.43
439.14	234.05
439.33	154.48
439.52	177.88
439.70	161.50
439.89	177.88
440.08	241.08
440.26	205.97
440.45	220.01
440.63	175.54
440.82	159.16
441.01	229.37
441.19	191.92
441.38	128.73
441.57	119.37
441.75	198.95
441.94	241.08
442.12	182.56
442.31	163.84
442.50	217.67
442.68	161.50
442.87	259.80
443.05	231.71
443.24	187.24
443.43	159.16
443.61	250.44
443.80	215.33
443.98	159.16
444.17	194.26
444.35	222.35
444.54	236.39
444.73	191.92
444.91	182.56
445.10	177.88
445.28	208.31
445.47	112.35
445.65	154.48
445.84	170.86
446.02	187.24
446.21	161.50
446.39	229.37
446.58	220.01
446.77	147.45
446.95	215.33
447.14	180.22
447.32	217.67
447.51	208.31
447.69	210.65
447.88	191.92
448.06	257.46
448.25	229.37
448.43	140.43
448.62	180.22
448.80	262.14
448.99	126.39
449.17	189.58
449.36	182.56
449.54	222.35
449.73	145.11
449.91	266.82
450.10	194.26
450.28	264.48
450.46	243.42
450.65	252.78
450.83	182.56
451.02	191.92
451.20	166.18
451.39	177.88
451.57	147.45
451.76	182.56
451.94	175.54
452.13	234.05
452.31	131.07
452.49	215.33
452.68	147.45
452.86	187.24
453.05	182.56
453.23	156.82
453.42	138.09
453.60	102.98
453.78	145.11
453.97	102.98
454.15	170.86
454.34	215.33
454.52	177.88
454.70	220.01
454.89	234.05
455.07	159.16
455.26	170.86
455.44	205.97
455.62	163.84
455.81	189.58
455.99	168.52
456.17	210.65
456.36	138.09
456.54	168.52
456.73	177.88
456.91	250.44
457.09	205.97
457.28	180.22
457.46	163.84
457.64	180.22
457.83	187.24
458.01	163.84
458.19	217.67
458.38	152.13
458.56	212.99
458.74	114.69
458.93	262.14
459.11	166.18
459.29	238.73
459.48	156.82
459.66	191.92
459.84	145.11
460.03	227.03
460.21	227.03
460.39	191.92
460.57	175.54
460.76	159.16
460.94	128.73
461.12	154.48
461.31	161.50
461.49	170.86
461.67	203.63
461.85	149.79
462.04	124.05
462.22	622.58
462.40	294.91
462.59	224.69
462.77	191.92
462.95	191.92
463.13	208.31
463.32	198.95
463.50	236.39
463.68	175.54
463.86	205.97
464.05	187.24
464.23	208.31
464.41	280.86
464.59	266.82
464.78	222.35
464.96	173.20
465.14	124.05
465.32	133.41
465.50	227.03
465.69	189.58
465.87	212.99
466.05	217.67
466.23	152.13
466.41	238.73
466.60	126.39
466.78	215.33
466.96	173.20
467.14	194.26
467.32	262.14
467.51	147.45
467.69	128.73
467.87	231.71
468.05	224.69
468.23	149.79
468.41	220.01
468.60	248.10
468.78	147.45
468.96	234.05
469.14	194.26
469.32	177.88
469.50	138.09
469.69	177.88
469.87	220.01
470.05	217.67
470.23	152.13
470.41	198.95
470.59	189.58
470.77	191.92
470.95	227.03
471.14	140.43
471.32	205.97
471.50	248.10
471.68	154.48
471.86	177.88
472.04	161.50
472.22	201.29
472.40	215.33
472.58	140.43
472.77	208.31
472.95	189.58
473.13	156.82
473.31	252.78
473.49	224.69
473.67	189.58
473.85	234.05
474.03	177.88
474.21	238.73
474.39	154.48
474.57	196.60
474.75	245.76
474.93	215.33
475.12	128.73
475.30	166.18
475.48	278.52
475.66	114.69
475.84	119.37
476.02	173.20
476.20	175.54
476.38	224.69
476.56	278.52
476.74	177.88
476.92	182.56
477.10	201.29
477.28	236.39
477.46	117.03
477.64	161.50
477.82	159.16
478.00	180.22
478.18	208.31
478.36	177.88
478.54	252.78
478.72	257.46
478.90	224.69
479.08	163.84
479.26	208.31
479.44	250.44
479.62	138.09
479.80	266.82
479.98	210.65
480.16	184.90
480.34	201.29
480.52	191.92
480.70	220.01
480.88	191.92
481.06	236.39
481.24	124.05
481.41	266.82
481.59	217.67
481.77	320.65
481.95	175.54
482.13	248.10
482.31	224.69
482.49	194.26
482.67	222.35
482.85	182.56
483.03	294.91
483.21	259.80
483.39	210.65
483.57	173.20
483.74	196.60
483.92	250.44
484.10	306.61
484.28	229.37
484.46	301.93
484.64	222.35
484.82	301.93
485.00	269.16
485.18	156.82
485.35	238.73
485.53	243.42
485.71	301.93
485.89	212.99
486.07	208.31
486.25	339.38
486.43	236.39
486.61	241.08
486.78	201.29
486.96	259.80
487.14	308.95
487.32	273.84
487.50	255.12
487.68	255.12
487.85	184.90
488.03	278.52
488.21	290.23
488.39	229.37
488.57	248.10
488.75	227.03
488.92	507.90
489.10	238.73
489.28	266.82
489.46	212.99
489.64	201.29
489.81	248.10
489.99	269.16
490.17	203.63
490.35	369.80
490.53	262.14
490.70	210.65
490.88	271.50
491.06	250.44
491.24	308.95
491.41	320.65
491.59	308.95
491.77	156.82
491.95	205.97
492.13	297.25
492.30	224.69
492.48	262.14
492.66	170.86
492.84	194.26
493.01	234.05
493.19	229.37
493.37	271.50
493.54	231.71
493.72	208.31
493.90	227.03
494.08	280.86
494.25	273.84
494.43	262.14
494.61	227.03
494.79	273.84
494.96	163.84
495.14	294.91
495.32	287.89
495.49	252.78
495.67	220.01
495.85	287.89
496.02	220.01
496.20	264.48
496.38	264.48
496.55	220.01
496.73	245.76
496.91	241.08
497.09	262.14
497.26	276.18
497.44	173.20
497.62	236.39
497.79	292.57
497.97	229.37
498.14	280.86
498.32	276.18
498.50	182.56
498.67	222.35
498.85	229.37
499.03	236.39
499.20	205.97
499.38	177.88
499.56	215.33
499.73	301.93
499.91	210.65
500.08	236.39
500.26	280.86
500.44	248.10
500.61	290.23
500.79	231.71
500.97	210.65
501.14	266.82
501.32	271.50
501.49	304.27
501.67	191.92
501.84	252.78
502.02	222.35
502.20	306.61
502.37	241.08
502.55	187.24
502.72	255.12
502.90	210.65
503.07	313.63
503.25	205.97
503.43	217.67
503.60	259.80
503.78	292.57
503.95	276.18
504.13	205.97
504.30	266.82
504.48	231.71
504.65	315.97
504.83	168.52
505.01	224.69
505.18	238.73
505.36	262.14
505.53	245.76
505.71	294.91
505.88	273.84
506.06	278.52
506.23	198.95
506.41	252.78
506.58	194.26
506.76	278.52
506.93	217.67
507.11	259.80
507.28	264.48
507.46	217.67
507.63	276.18
507.81	255.12
507.98	252.78
508.16	203.63
508.33	315.97
508.50	269.16
508.68	182.56
508.85	238.73
509.03	175.54
509.20	283.20
509.38	264.48
509.55	273.84
509.73	243.42
509.90	248.10
510.08	184.90
510.25	234.05
510.42	243.42
510.60	271.50
510.77	264.48
510.95	283.20
511.12	313.63
511.30	334.70
511.47	287.89
511.64	220.01
511.82	283.20
511.99	248.10
512.17	294.91
512.34	292.57
512.51	241.08
512.69	215.33
512.86	231.71
513.04	203.63
513.21	231.71
513.38	252.78
513.56	234.05
513.73	252.78
513.90	229.37
514.08	327.68
514.25	231.71
514.43	306.61
514.60	332.36
514.77	231.71
514.95	287.89
515.12	290.23
515.29	243.42
515.47	255.12
515.64	161.50
515.81	210.65
515.99	255.12
516.16	257.46
516.33	248.10
516.51	297.25
516.68	264.48
516.85	243.42
517.03	173.20
517.20	283.20
517.37	212.99
517.54	255.12
517.72	278.52
517.89	243.42
518.06	271.50
518.24	285.55
518.41	278.52
518.58	287.89
518.75	234.05
518.93	220.01
519.10	287.89
519.27	234.05
519.45	236.39
519.62	236.39
519.79	252.78
519.96	231.71
520.14	276.18
520.31	325.33
520.48	262.14
520.65	318.31
520.83	313.63
521.00	351.08
521.17	245.76
521.34	269.16
521.52	224.69
521.69	255.12
521.86	262.14
522.03	337.04
522.20	313.63
522.38	255.12
522.55	264.48
522.72	264.48
522.89	306.61
523.07	407.25
523.24	252.78
523.41	229.37
523.58	266.82
523.75	236.39
523.92	250.44
524.10	269.16
524.27	276.18
524.44	266.82
524.61	278.52
524.78	236.39
524.96	278.52
525.13	276.18
525.30	327.68
525.47	269.16
525.64	220.01
525.81	255.12
525.98	252.78
526.16	269.16
526.33	241.08
526.50	245.76
526.67	238.73
526.84	255.12
527.01	227.03
527.18	304.27
527.36	238.73
527.53	173.20
527.70	276.18
527.87	259.80
528.04	358.10
528.21	252.78
528.38	238.73
528.55	287.89
528.72	287.89
528.89	297.25
529.07	262.14
529.24	285.55
529.41	341.72
529.58	250.44
529.75	271.50
529.92	299.59
530.09	287.89
530.26	269.16
530.43	180.22
530.60	325.33
530.77	283.20
530.94	334.70
531.11	301.93
531.28	238.73
531.46	313.63
531.63	292.57
531.80	306.61
531.97	273.84
532.14	315.97
532.31	257.46
532.48	278.52
532.65	320.65
532.82	414.27
532.99	372.15
533.16	346.40
533.33	327.68
533.50	292.57
533.67	306.61
533.84	411.93
534.01	442.36
534.18	362.78
534.35	327.68
534.52	297.25
534.69	318.31
534.86	311.29
535.03	327.68
535.20	327.68
535.37	313.63
535.54	330.02
535.71	245.76
535.88	337.04
536.05	243.42
536.22	325.33
536.38	278.52
536.55	287.89
536.72	255.12
536.89	264.48
537.06	229.37
537.23	318.31
537.40	383.85
537.57	280.86
537.74	311.29
537.91	318.31
538.08	318.31
538.25	320.65
538.42	297.25
538.59	287.89
538.75	283.20
538.92	344.06
539.09	348.74
539.26	299.59
539.43	521.94
539.60	1102.39
539.77	1465.18
539.94	1556.46
540.11	978.34
540.28	793.44
540.44	634.29
540.61	498.53
540.78	428.32
540.95	435.34
541.12	463.43
541.29	587.47
541.46	477.47
541.62	550.03
541.79	496.19
541.96	550.03
542.13	484.49
542.30	496.19
542.47	493.85
542.63	482.15
542.80	528.96
542.97	409.59
543.14	503.22
543.31	449.38
543.48	514.92
543.64	458.74
543.81	470.45
543.98	423.64
544.15	486.83
544.32	477.47
544.48	430.66
544.65	505.56
544.82	454.06
544.99	482.15
545.16	372.15
545.32	512.58
545.49	748.97
545.66	851.96
545.83	910.47
546.00	802.80
546.16	641.31
546.33	535.98
546.50	456.40
546.67	510.24
546.83	404.91
547.00	355.76
547.17	407.25
547.34	355.76
547.50	330.02
547.67	358.10
547.84	374.49
548.00	388.53
548.17	376.83
548.34	381.51
548.51	477.47
548.67	379.17
548.84	341.72
549.01	376.83
549.18	383.85
549.34	348.74
549.51	400.23
549.68	332.36
549.84	330.02
550.01	355.76
550.18	379.17
550.34	395.55
550.51	348.74
550.68	348.74
550.84	264.48
551.01	236.39
551.18	348.74
551.34	379.17
551.51	262.14
551.68	327.68
551.84	344.06
552.01	285.55
552.18	330.02
552.34	271.50
552.51	355.76
552.68	365.12
552.84	308.95
553.01	287.89
553.18	334.70
553.34	313.63
553.51	290.23
553.67	348.74
553.84	404.91
554.01	358.10
554.17	358.10
554.34	224.69
554.51	369.80
554.67	322.99
554.84	344.06
555.00	292.57
555.17	304.27
555.33	330.02
555.50	301.93
555.67	393.21
555.83	292.57
556.00	308.95
556.16	418.96
556.33	229.37
556.50	273.84
556.66	259.80
556.83	259.80
556.99	236.39
557.16	280.86
557.32	320.65
557.49	215.33
557.65	224.69
557.82	255.12
557.98	259.80
558.15	283.20
558.32	290.23
558.48	266.82
558.65	311.29
558.81	231.71
558.98	259.80
559.14	292.57
559.31	299.59
559.47	297.25
559.64	264.48
559.80	304.27
559.97	222.35
560.13	283.20
560.30	241.08
560.46	315.97
560.63	243.42
560.79	292.57
560.96	308.95
561.12	196.60
561.29	264.48
561.45	266.82
561.61	271.50
561.78	374.49
561.94	229.37
562.11	238.73
562.27	227.03
562.44	248.10
562.60	203.63
562.77	262.14
562.93	285.55
563.10	248.10
563.26	276.18
563.42	285.55
563.59	255.12
563.75	266.82
563.92	273.84
564.08	271.50
564.24	290.23
564.41	315.97
564.57	257.46
564.74	346.40
564.90	224.69
565.07	294.91
565.23	376.83
565.39	250.44
565.56	255.12
565.72	332.36
565.88	259.80
566.05	273.84
566.21	278.52
566.38	278.52
566.54	308.95
566.70	304.27
566.87	241.08
567.03	205.97
567.19	248.10
567.36	234.05
567.52	245.76
567.68	269.16
567.85	297.25
568.01	231.71
568.17	264.48
568.34	238.73
568.50	360.44
568.66	245.76
568.83	383.85
568.99	311.29
569.15	315.97
569.32	238.73
569.48	301.93
569.64	196.60
569.81	278.52
569.97	220.01
570.13	285.55
570.30	285.55
570.46	248.10
570.62	276.18
570.78	184.90
570.95	297.25
571.11	325.33
571.27	334.70
571.43	273.84
571.60	243.42
571.76	243.42
571.92	292.57
572.09	271.50
572.25	248.10
572.41	306.61
572.57	313.63
572.74	257.46
572.90	313.63
573.06	285.55
573.22	231.71
573.38	238.73
573.55	325.33
573.71	313.63
573.87	259.80
574.03	330.02
574.20	271.50
574.36	330.02
574.52	304.27
574.68	322.99
574.84	400.23
575.01	325.33
575.17	271.50
575.33	362.78
575.49	301.93
575.65	299.59
575.82	353.42
575.98	573.43
576.14	608.54
576.30	695.14
576.46	571.09
576.62	458.74
576.79	512.58
576.95	468.11
577.11	304.27
577.27	299.59
577.43	353.42
577.59	311.29
577.75	313.63
577.92	320.65
578.08	292.57
578.24	208.31
578.40	334.70
578.56	433.00
578.72	397.89
578.88	390.87
579.04	388.53
579.21	304.27
579.37	299.59
579.53	238.73
579.69	421.30
579.85	278.52
580.01	458.74
580.17	430.66
580.33	379.17
580.49	425.98
580.65	299.59
580.82	353.42
580.98	346.40
581.14	283.20
581.30	458.74
581.46	477.47
581.62	655.35
581.78	653.01
581.94	603.86
582.10	500.87
582.26	470.45
582.42	507.90
582.58	454.06
582.74	491.51
582.90	482.15
583.06	550.03
583.22	472.79
583.38	500.87
583.54	507.90
583.70	732.59
583.86	718.54
584.02	763.01
584.18	997.07
584.34	1181.97
584.50	3164.40
584.66	22202.32
584.82	53616.99
584.98	62712.31
585.14	59798.35
585.30	43920.15
585.46	26665.72
585.62	16126.29
585.78	7714.41
585.94	3169.09
586.10	1465.18
586.26	987.71
586.42	866.00
586.58	662.37
586.74	688.12
586.90	699.82
587.06	645.99
587.22	650.67
587.38	559.39
587.54	1114.10
587.70	3365.69
587.86	5291.95
588.02	5710.91
588.18	4077.21
588.34	2590.97
588.49	1771.79
588.65	1130.48
588.81	695.14
588.97	500.87
589.13	386.19
589.29	383.85
589.45	360.44
589.61	372.15
589.77	395.55
589.93	425.98
590.08	491.51
590.24	393.21
590.40	425.98
590.56	369.80
590.72	341.72
590.88	421.30
591.04	479.81
591.20	411.93
591.35	437.68
591.51	344.06
591.67	367.46
591.83	327.68
591.99	322.99
592.15	395.55
592.31	395.55
592.46	362.78
592.62	372.15
592.78	355.76
592.94	304.27
593.10	346.40
593.26	463.43
593.41	470.45
593.57	465.77
593.73	571.09
593.89	2647.15
594.05	6717.34
594.20	9750.67
594.36	9217.03
594.52	6122.84
594.68	4016.36
594.84	2576.93
594.99	1479.22
595.15	777.06
595.31	458.74
595.47	456.40
595.62	348.74
595.78	348.74
595.94	339.38
596.10	428.32
596.25	423.64
596.41	402.57
596.57	355.76
596.73	318.31
596.88	573.43
597.04	1364.53
597.20	2188.40
597.36	2490.33
597.51	2005.84
597.67	1371.55
597.83	924.51
597.99	702.16
598.14	475.13
598.30	475.13
598.46	379.17
598.61	423.64
598.77	386.19
598.93	334.70
599.09	327.68
599.24	315.97
599.40	252.78
599.56	376.83
599.71	372.15
599.87	381.51
600.03	337.04
600.18	285.55
600.34	367.46
600.50	297.25
600.65	322.99
600.81	276.18
600.97	280.86
601.12	304.27
601.28	341.72
601.44	299.59
601.59	294.91
601.75	203.63
601.91	339.38
602.06	383.85
602.22	362.78
602.37	779.40
602.53	1561.14
602.69	2490.33
602.84	2597.99
603.00	1900.52
603.16	1348.15
603.31	908.13
603.47	589.82
603.62	461.09
603.78	407.25
603.94	294.91
604.09	294.91
604.25	365.12
604.40	266.82
604.56	273.84
604.71	334.70
604.87	318.31
605.03	351.08
605.18	367.46
605.34	372.15
605.49	344.06
605.65	355.76
605.80	376.83
605.96	362.78
606.12	421.30
606.27	428.32
606.43	339.38
606.58	395.55
606.74	887.06
606.89	3335.26
607.05	6473.92
607.20	8526.57
607.36	6729.04
607.51	4620.22
607.67	3110.57
607.82	2062.01
607.98	1217.08
608.13	746.63
608.29	514.92
608.44	566.41
608.60	451.72
608.75	510.24
608.91	1214.74
609.06	5137.48
609.22	10686.89
609.37	14541.75
609.53	12636.55
609.68	8557.00
609.84	5495.58
609.99	3805.71
610.15	2190.74
610.30	1181.97
610.46	966.64
610.61	833.23
610.76	966.64
610.92	994.73
611.07	1064.94
611.23	1100.05
611.38	1001.75
611.54	873.02
611.69	842.59
611.84	758.33
612.00	718.54
612.15	578.11
612.31	681.10
612.46	837.91
612.62	903.45
612.77	936.21
612.92	765.36
613.08	730.25
613.23	711.52
613.39	669.39
613.54	1015.79
613.69	4718.52
613.85	13209.98
614.00	21399.52
614.15	22927.89
614.31	16077.14
614.46	10588.58
614.62	7143.32
614.77	4360.42
614.92	1984.77
615.08	1048.56
615.23	765.36
615.38	566.41
615.54	599.18
615.69	947.92
615.84	2764.17
616.00	4760.65
616.15	5930.92
616.30	4880.02
616.46	3442.93
616.61	2452.88
616.76	1675.82
616.92	950.26
617.07	620.24
617.22	444.70
617.37	404.91
617.53	393.21
617.68	390.87
617.83	322.99
617.99	379.17
618.14	423.64
618.29	348.74
618.45	283.20
618.60	306.61
618.75	355.76
618.90	276.18
619.06	376.83
619.21	304.27
619.36	269.16
619.51	308.95
619.67	297.25
619.82	332.36
619.97	353.42
620.12	304.27
620.28	355.76
620.43	360.44
620.58	423.64
620.73	266.82
620.89	409.59
621.04	519.60
621.19	1458.15
621.34	2616.72
621.49	3466.33
621.65	3215.90
621.80	2338.20
621.95	1666.46
622.10	1146.86
622.25	704.50
622.41	468.11
622.56	341.72
622.71	479.81
622.86	369.80
623.01	320.65
623.16	315.97
623.32	238.73
623.47	297.25
623.62	283.20
623.77	259.80
623.92	351.08
624.07	322.99
624.23	332.36
624.38	339.38
624.53	280.86
624.68	236.39
624.83	346.40
624.98	306.61
625.13	369.80
625.29	283.20
625.44	248.10
625.59	362.78
625.74	477.47
625.89	512.58
626.04	2244.57
626.19	6588.61
626.34	10314.74
626.49	11756.51
626.65	8564.02
626.80	5788.14
626.95	3892.31
627.10	2417.77
627.25	1315.38
627.40	660.03
627.55	451.72
627.70	374.49
627.85	351.08
628.00	301.93
628.15	276.18
628.30	311.29
628.45	290.23
628.60	294.91
628.76	271.50
628.91	243.42
629.06	360.44
629.21	365.12
629.36	376.83
629.51	320.65
629.66	379.17
629.81	447.04
629.96	1369.21
630.11	2394.37
630.26	3002.91
630.41	2717.36
630.56	2045.63
630.71	1486.24
630.86	1097.71
631.01	648.33
631.16	468.11
631.31	416.62
631.46	400.23
631.61	383.85
631.76	257.46
631.91	248.10
632.06	322.99
632.21	297.25
632.36	393.21
632.51	400.23
632.66	458.74
632.81	1177.29
632.96	3693.37
633.10	6436.47
633.25	8004.63
633.40	6478.60
633.55	4545.32
633.70	3110.57
633.85	2111.16
634.00	1153.88
634.15	603.86
634.30	437.68
634.45	365.12
634.60	320.65
634.75	299.59
634.90	313.63
635.05	346.40
635.19	360.44
635.34	273.84
635.49	278.52
635.64	238.73
635.79	241.08
635.94	320.65
636.09	322.99
636.24	306.61
636.39	360.44
636.53	320.65
636.68	339.38
636.83	346.40
636.98	381.51
637.13	318.31
637.28	362.78
637.43	435.34
637.57	608.54
637.72	3009.93
637.87	8402.52
638.02	13376.16
638.17	14883.47
638.32	10850.72
638.46	7552.91
638.61	5057.90
638.76	3133.98
638.91	1586.88
639.06	861.32
639.20	676.41
639.35	641.31
639.50	826.21
639.65	4360.42
639.80	12966.57
639.94	20168.40
640.09	22338.07
640.24	17013.35
640.39	11595.01
640.54	7536.52
640.68	4634.26
640.83	2265.64
640.98	1097.71
641.13	699.82
641.27	505.56
641.42	433.00
641.57	442.36
641.72	393.21
641.86	346.40
642.01	325.33
642.16	344.06
642.31	294.91
642.45	320.65
642.60	280.86
642.75	297.25
642.90	294.91
643.04	205.97
643.19	283.20
643.34	262.14
643.48	306.61
643.63	294.91
643.78	229.37
643.93	287.89
644.07	259.80
644.22	255.12
644.37	224.69
644.51	271.50
644.66	252.78
644.81	224.69
644.95	271.50
645.10	248.10
645.25	215.33
645.39	306.61
645.54	271.50
645.69	250.44
645.83	222.35
645.98	341.72
646.13	273.84
646.27	241.08
646.42	280.86
646.57	245.76
646.71	182.56
646.86	231.71
647.00	231.71
647.15	229.37
647.30	189.58
647.44	245.76
647.59	273.84
647.74	231.71
647.88	269.16
648.03	231.71
648.17	271.50
648.32	229.37
648.47	245.76
648.61	227.03
648.76	257.46
648.90	208.31
649.05	308.95
649.20	243.42
649.34	229.37
649.49	238.73
649.63	271.50
649.78	353.42
649.92	514.92
650.07	1743.70
650.21	5558.77
650.36	9521.30
650.51	11536.50
650.65	9453.42
650.80	6731.38
650.94	4571.07
651.09	2890.56
651.23	1476.88
651.38	868.34
651.52	512.58
651.67	318.31
651.81	393.21
651.96	292.57
652.10	339.38
652.25	318.31
652.39	320.65
652.54	294.91
652.68	594.50
652.83	1846.68
652.97	3323.56
653.12	4187.22
653.26	3716.77
653.41	2780.56
653.55	1912.22
653.70	1177.29
653.84	737.27
653.99	421.30
654.13	322.99
654.27	290.23
654.42	149.79
654.56	217.67
654.71	222.35
654.85	250.44
655.00	234.05
655.14	154.48
655.29	231.71
655.43	252.78
655.57	273.84
655.72	175.54
655.86	210.65
656.01	245.76
656.15	224.69
656.30	252.78
656.44	166.18
656.58	170.86
656.73	203.63
656.87	236.39
657.01	212.99
657.16	294.91
657.30	259.80
657.45	313.63
657.59	250.44
657.73	180.22
657.88	238.73
658.02	348.74
658.16	262.14
658.31	220.01
658.45	252.78
658.60	201.29
658.74	227.03
658.88	231.71
659.03	306.61
659.17	346.40
659.31	727.91
659.46	2583.95
659.60	4482.13
659.74	5727.29
659.89	5238.12
660.03	3887.63
660.17	2581.61
660.32	1591.56
660.46	1004.09
660.60	622.58
660.74	421.30
660.89	358.10
661.03	262.14
661.17	294.91
661.32	220.01
661.46	222.35
661.60	238.73
661.74	124.05
661.89	287.89
662.03	252.78
662.17	241.08
662.31	180.22
662.46	217.67
662.60	287.89
662.74	203.63
662.88	269.16
663.03	222.35
663.17	198.95
663.31	238.73
663.45	301.93
663.60	198.95
663.74	149.79
663.88	217.67
664.02	208.31
664.17	257.46
664.31	217.67
664.45	301.93
664.59	189.58
664.73	297.25
664.88	266.82
665.02	222.35
665.16	250.44
665.30	287.89
665.44	210.65
665.59	248.10
665.73	266.82
665.87	217.67
666.01	269.16
666.15	255.12
666.29	234.05
666.44	283.20
666.58	294.91
666.72	276.18
666.86	278.52
667.00	308.95
667.14	442.36
667.28	1640.72
667.43	5027.47
667.57	8021.02
667.71	10193.03
667.85	8760.63
667.99	6494.99
668.13	4105.30
668.27	2532.46
668.41	1444.11
668.56	744.29
668.70	540.66
668.84	456.40
668.98	395.55
669.12	290.23
669.26	189.58
669.40	245.76
669.54	220.01
669.68	222.35
669.82	227.03
669.96	203.63
670.10	227.03
670.25	283.20
670.39	297.25
670.53	250.44
670.67	255.12
670.81	266.82
670.95	320.65
671.09	482.15
671.23	1830.30
671.37	3992.95
671.51	5795.17
671.65	6314.77
671.79	4994.70
671.93	3534.21
672.07	2172.02
672.21	1266.23
672.35	716.20
672.49	425.98
672.63	332.36
672.77	264.48
672.91	241.08
673.05	177.88
673.19	222.35
673.33	311.29
673.47	250.44
673.61	138.09
673.75	255.12
673.89	250.44
674.03	280.86
674.17	273.84
674.31	203.63
674.45	175.54
674.59	224.69
674.73	203.63
674.87	259.80
675.01	285.55
675.15	241.08
675.29	241.08
675.43	217.67
675.56	234.05
675.70	203.63
675.84	217.67
675.98	166.18
676.12	175.54
676.26	210.65
676.40	131.07
676.54	243.42
676.68	198.95
676.82	236.39
676.96	184.90
677.10	198.95
677.23	205.97
677.37	175.54
677.51	215.33
677.65	271.50
677.79	257.46
677.93	262.14
678.07	117.03
678.21	168.52
678.34	154.48
678.48	196.60
678.62	145.11
678.76	121.71
678.90	194.26
679.04	238.73
679.18	208.31
679.31	217.67
679.45	166.18
679.59	163.84
679.73	145.11
679.87	175.54
680.00	243.42
680.14	191.92
680.28	210.65
680.42	156.82
680.56	187.24
680.70	187.24
680.83	187.24
680.97	212.99
681.11	217.67
681.25	156.82
681.39	184.90
681.52	189.58
681.66	159.16
681.80	264.48
681.94	222.35
682.07	121.71
682.21	168.52
682.35	208.31
682.49	145.11
682.62	210.65
682.76	126.39
682.90	215.33
683.04	138.09
683.17	177.88
683.31	205.97
683.45	205.97
683.59	173.20
683.72	222.35
683.86	210.65
684.00	184.90
684.13	210.65
684.27	210.65
684.41	173.20
684.55	126.39
684.68	250.44
684.82	177.88
684.96	133.41
685.09	121.71
685.23	217.67
685.37	229.37
685.50	224.69
685.64	173.20
685.78	215.33
685.91	257.46
686.05	208.31
686.19	220.01
686.32	177.88
686.46	149.79
686.60	88.94
686.73	234.05
686.87	294.91
687.01	320.65
687.14	182.56
687.28	231.71
687.42	184.90
687.55	248.10
687.69	189.58
687.82	173.20
687.96	205.97
688.10	196.60
688.23	175.54
688.37	217.67
688.50	222.35
688.64	217.67
688.78	152.13
688.91	180.22
689.05	119.37
689.18	184.90
689.32	189.58
689.46	182.56
689.59	194.26
689.73	149.79
689.86	173.20
690.00	196.60
690.13	98.30
690.27	131.07
690.41	224.69
690.54	222.35
690.68	227.03
690.81	147.45
690.95	102.98
691.08	175.54
691.22	177.88
691.35	198.95
691.49	149.79
691.62	196.60
691.76	215.33
691.89	198.95
692.03	152.13
692.16	212.99
692.30	220.01
692.43	702.16
692.57	1968.39
692.70	3403.14
692.84	4311.27
692.97	4030.40
693.11	2942.05
693.24	2115.84
693.38	1584.54
693.51	1067.28
693.65	662.37
693.78	545.34
693.92	351.08
694.05	278.52
694.19	297.25
694.32	161.50
694.45	177.88
694.59	147.45
694.72	163.84
694.86	166.18
694.99	198.95
695.13	88.94
695.26	215.33
695.39	220.01
695.53	217.67
695.66	191.92
695.80	236.39
695.93	168.52
696.07	273.84
696.20	252.78
696.33	362.78
696.47	418.96
696.60	414.27
696.73	278.52
696.87	322.99
697.00	262.14
697.14	273.84
697.27	241.08
697.40	238.73
697.54	173.20
697.67	161.50
697.80	166.18
697.94	163.84
698.07	163.84
698.21	234.05
698.34	154.48
698.47	205.97
698.61	133.41
698.74	180.22
698.87	201.29
699.01	105.32
699.14	222.35
699.27	198.95
699.40	297.25
699.54	166.18
699.67	131.07
699.80	145.11
699.94	135.75
700.07	177.88
700.20	231.71
700.34	175.54
700.47	220.01
700.60	170.86
700.73	110.01
700.87	149.79
701.00	198.95
701.13	180.22
701.26	161.50
701.40	145.11
701.53	229.37
701.66	191.92
701.79	201.29
701.93	238.73
702.06	299.59
702.19	346.40
702.32	449.38
702.46	411.93
702.59	421.30
702.72	798.12
702.85	2525.44
702.99	5296.63
703.12	7328.22
703.25	8482.10
703.38	7330.56
703.51	5863.04
703.65	4671.71
703.78	3124.62
703.91	2078.40
704.04	1308.36
704.17	805.14
704.31	601.52
704.44	381.51
704.57	299.59
704.70	250.44
704.83	283.20
704.96	236.39
705.10	222.35
705.23	248.10
>>>>>End Processed Spectral Data<<<<<
