SpectraSuite Data File
++++++++++++++++++++++++++++++++++++
Date: Fri Oct 04 12:14:05 GMT-05:00 2013
User: price-jones
Dark Spectrum Present: No
Reference Spectrum Present: No
Number of Sampled Component Spectra: 1
Spectrometers: USB2+H05261
Integration Time (usec): 1000000 (USB2+H05261)
Spectra Averaged: 1 (USB2+H05261)
Boxcar Smoothing: 0 (USB2+H05261)
Correct for Electrical Dark: No (USB2+H05261)
Strobe/Lamp Enabled: No (USB2+H05261)
Correct for Detector Non-linearity: No (USB2+H05261)
Correct for Stray Light: No (USB2+H05261)
Number of Pixels in Processed Spectrum: 2048
>>>>>Begin Processed Spectral Data<<<<<
365.73	77.24
365.92	77.24
366.12	77.24
366.32	0.00
366.52	0.00
366.72	313.63
366.91	93.62
367.11	327.68
367.31	290.23
367.51	257.46
367.70	367.46
367.90	458.74
368.10	358.10
368.30	360.44
368.49	177.88
368.69	461.09
368.89	252.78
369.09	201.29
369.28	259.80
369.48	180.22
369.68	294.91
369.87	414.27
370.07	227.03
370.27	624.92
370.47	372.15
370.66	304.27
370.86	512.58
371.06	791.10
371.25	910.47
371.45	442.36
371.65	720.88
371.84	381.51
372.04	348.74
372.24	550.03
372.44	409.59
372.63	505.56
372.83	765.36
373.03	430.66
373.22	381.51
373.42	397.89
373.62	454.06
373.81	550.03
374.01	690.46
374.21	723.23
374.40	430.66
374.60	767.70
374.79	423.64
374.99	428.32
375.19	510.24
375.38	615.56
375.58	535.98
375.78	674.07
375.97	660.03
376.17	947.92
376.37	440.02
376.56	589.82
376.76	390.87
376.95	372.15
377.15	606.20
377.35	568.75
377.54	552.37
377.74	461.09
377.93	428.32
378.13	540.66
378.33	683.44
378.52	512.58
378.72	713.86
378.91	727.91
379.11	418.96
379.31	475.13
379.50	299.59
379.70	699.82
379.89	709.18
380.09	390.87
380.28	313.63
380.48	421.30
380.68	383.85
380.87	327.68
381.07	587.47
381.26	777.06
381.46	561.73
381.65	655.35
381.85	477.47
382.04	531.30
382.24	594.50
382.43	470.45
382.63	369.80
382.83	475.13
383.02	662.37
383.22	734.93
383.41	362.78
383.61	449.38
383.80	477.47
384.00	524.28
384.19	500.87
384.39	578.11
384.58	496.19
384.78	543.00
384.97	674.07
385.17	493.85
385.36	447.04
385.56	671.73
385.75	344.06
385.95	440.02
386.14	699.82
386.34	390.87
386.53	468.11
386.72	407.25
386.92	809.83
387.11	650.67
387.31	615.56
387.50	433.00
387.70	433.00
387.89	524.28
388.09	400.23
388.28	437.68
388.48	475.13
388.67	685.78
388.86	547.69
389.06	447.04
389.25	550.03
389.45	559.39
389.64	500.87
389.84	765.36
390.03	636.63
390.22	594.50
390.42	514.92
390.61	390.87
390.81	348.74
391.00	554.71
391.19	781.74
391.39	461.09
391.58	589.82
391.78	524.28
391.97	510.24
392.16	346.40
392.36	741.95
392.55	741.95
392.75	479.81
392.94	367.46
393.13	641.31
393.33	360.44
393.52	402.57
393.71	884.72
393.91	554.71
394.10	351.08
394.29	514.92
394.49	472.79
394.68	650.67
394.88	744.29
395.07	683.44
395.26	517.26
395.46	477.47
395.65	704.50
395.84	620.24
396.04	1151.54
396.23	578.11
396.42	479.81
396.62	608.54
396.81	634.29
397.00	514.92
397.19	528.96
397.39	535.98
397.58	795.78
397.77	503.22
397.97	538.32
398.16	526.62
398.35	674.07
398.55	402.57
398.74	582.79
398.93	734.93
399.12	528.96
399.32	627.26
399.51	545.34
399.70	676.41
399.90	657.69
400.09	695.14
400.28	681.10
400.47	557.05
400.67	683.44
400.86	578.11
401.05	690.46
401.24	748.97
401.44	725.57
401.63	653.01
401.82	765.36
402.01	388.53
402.21	653.01
402.40	676.41
402.59	568.75
402.78	482.15
402.97	500.87
403.17	566.41
403.36	669.39
403.55	543.00
403.74	545.34
403.93	608.54
404.13	835.57
404.32	540.66
404.51	493.85
404.70	711.52
404.89	610.88
405.09	1102.39
405.28	585.13
405.47	416.62
405.66	704.50
405.85	798.12
406.05	610.88
406.24	603.86
406.43	603.86
406.62	662.37
406.81	1027.50
407.00	772.38
407.20	613.22
407.39	550.03
407.58	528.96
407.77	653.01
407.96	844.93
408.15	807.48
408.34	657.69
408.54	608.54
408.73	699.82
408.92	627.26
409.11	671.73
409.30	875.36
409.49	428.32
409.68	596.84
409.87	571.09
410.07	421.30
410.26	688.12
410.45	545.34
410.64	435.34
410.83	627.26
411.02	554.71
411.21	723.23
411.40	809.83
411.59	648.33
411.78	458.74
411.98	601.52
412.17	444.70
412.36	603.86
412.55	543.00
412.74	777.06
412.93	908.13
413.12	575.77
413.31	821.53
413.50	716.20
413.69	660.03
413.88	929.19
414.07	720.88
414.26	709.18
414.45	627.26
414.64	727.91
414.83	683.44
415.02	727.91
415.22	814.51
415.41	931.53
415.60	561.73
415.79	723.23
415.98	1046.22
416.17	645.99
416.36	660.03
416.55	578.11
416.74	772.38
416.93	851.96
417.12	664.71
417.31	653.01
417.50	681.10
417.69	1095.37
417.88	732.59
418.07	568.75
418.26	711.52
418.45	781.74
418.64	1032.18
418.83	917.49
419.02	870.68
419.21	720.88
419.39	765.36
419.58	657.69
419.77	697.48
419.96	917.49
420.15	1074.31
420.34	657.69
420.53	812.17
420.72	931.53
420.91	767.70
421.10	802.80
421.29	760.67
421.48	786.42
421.67	837.91
421.86	711.52
422.05	690.46
422.24	638.97
422.43	791.10
422.61	538.32
422.80	645.99
422.99	716.20
423.18	638.97
423.37	1029.84
423.56	809.83
423.75	833.23
423.94	613.22
424.13	683.44
424.32	650.67
424.50	636.63
424.69	748.97
424.88	964.30
425.07	688.12
425.26	805.14
425.45	985.37
425.64	638.97
425.83	688.12
426.01	1008.77
426.20	758.33
426.39	695.14
426.58	601.52
426.77	739.61
426.96	889.40
427.15	795.78
427.33	706.84
427.52	667.05
427.71	784.08
427.90	809.83
428.09	653.01
428.28	568.75
428.46	748.97
428.65	755.99
428.84	844.93
429.03	1114.10
429.22	634.29
429.40	601.52
429.59	550.03
429.78	1025.15
429.97	620.24
430.16	554.71
430.34	620.24
430.53	657.69
430.72	664.71
430.91	884.72
431.10	505.56
431.28	746.63
431.47	929.19
431.66	835.57
431.85	739.61
432.03	758.33
432.22	1259.21
432.41	795.78
432.60	1032.18
432.79	765.36
432.97	868.34
433.16	807.48
433.35	727.91
433.54	615.56
433.72	851.96
433.91	987.71
434.10	706.84
434.28	779.40
434.47	688.12
434.66	856.64
434.85	620.24
435.03	709.18
435.22	1102.39
435.41	1224.10
435.59	933.87
435.78	746.63
435.97	638.97
436.16	983.02
436.34	788.76
436.53	908.13
436.72	1025.15
436.90	966.64
437.09	821.53
437.28	704.50
437.46	763.01
437.65	968.98
437.84	959.62
438.02	873.02
438.21	830.89
438.40	664.71
438.58	566.41
438.77	819.19
438.96	814.51
439.14	645.99
439.33	910.47
439.52	781.74
439.70	847.27
439.89	992.39
440.08	819.19
440.26	795.78
440.45	1174.95
440.63	851.96
440.82	767.70
441.01	882.38
441.19	802.80
441.38	844.93
441.57	793.44
441.75	1081.33
441.94	1135.16
442.12	868.34
442.31	795.78
442.50	725.57
442.68	809.83
442.87	863.66
443.05	873.02
443.24	910.47
443.43	1076.65
443.61	1142.18
443.80	812.17
443.98	669.39
444.17	772.38
444.35	1015.79
444.54	868.34
444.73	816.85
444.91	1057.92
445.10	653.01
445.28	685.78
445.47	884.72
445.65	823.87
445.84	695.14
446.02	830.89
446.21	898.77
446.39	767.70
446.58	919.83
446.77	737.27
446.95	840.25
447.14	990.05
447.32	1128.14
447.51	940.90
447.69	938.55
447.88	945.58
448.06	1188.99
448.25	945.58
448.43	753.65
448.62	737.27
448.80	966.64
448.99	1043.88
449.17	737.27
449.36	788.76
449.54	1093.03
449.73	837.91
449.91	992.39
450.10	856.64
450.28	1383.26
450.46	1404.32
450.65	1121.12
450.83	1060.26
451.02	903.45
451.20	938.55
451.39	884.72
451.57	798.12
451.76	814.51
451.94	844.93
452.13	1039.20
452.31	1128.14
452.49	1006.43
452.68	753.65
452.86	877.70
453.05	1254.53
453.23	987.71
453.42	713.86
453.60	821.53
453.78	1006.43
453.97	784.08
454.15	674.07
454.34	784.08
454.52	758.33
454.70	1149.20
454.89	1018.13
455.07	786.42
455.26	1064.94
455.44	987.71
455.62	882.38
455.81	870.68
455.99	943.24
456.17	1081.33
456.36	854.30
456.54	835.57
456.73	842.59
456.91	812.17
457.09	1039.20
457.28	1174.95
457.46	954.94
457.64	1022.81
457.83	868.34
458.01	856.64
458.19	945.58
458.38	858.98
458.56	1027.50
458.74	821.53
458.93	936.21
459.11	929.19
459.29	945.58
459.48	1001.75
459.66	1261.55
459.84	1125.80
460.03	1769.44
460.21	1083.67
460.39	945.58
460.57	1226.44
460.76	1015.79
460.94	997.07
461.12	1266.23
461.31	1217.08
461.49	938.55
461.67	917.49
461.85	990.05
462.04	924.51
462.22	5834.96
462.40	1224.10
462.59	1210.06
462.77	901.11
462.95	983.02
463.13	720.88
463.32	1179.63
463.50	1004.09
463.68	1053.24
463.86	1069.62
464.05	919.83
464.23	1158.57
464.41	1172.61
464.59	959.62
464.78	830.89
464.96	746.63
465.14	936.21
465.32	877.70
465.50	990.05
465.69	1100.05
465.87	837.91
466.05	1057.92
466.23	741.95
466.41	908.13
466.60	943.24
466.78	936.21
466.96	1160.91
467.14	1041.54
467.32	1191.33
467.51	1107.07
467.69	1027.50
467.87	1277.93
468.05	915.15
468.23	1313.04
468.41	1123.46
468.60	959.62
468.78	1060.26
468.96	1203.04
469.14	1081.33
469.32	755.99
469.50	866.00
469.69	1088.35
469.87	1006.43
470.05	992.39
470.23	961.96
470.41	880.04
470.59	868.34
470.77	1039.20
470.95	1029.84
471.14	1153.88
471.32	1025.15
471.50	1376.24
471.68	809.83
471.86	1083.67
472.04	868.34
472.22	952.60
472.40	777.06
472.58	889.40
472.77	894.08
472.95	854.30
473.13	1348.15
473.31	1270.91
473.49	837.91
473.67	842.59
473.85	1114.10
474.03	1184.31
474.21	1095.37
474.39	1214.74
474.57	1380.92
474.75	1163.25
474.93	926.85
475.12	833.23
475.30	919.83
475.48	1004.09
475.66	1083.67
475.84	978.34
476.02	952.60
476.20	1123.46
476.38	966.64
476.56	1659.44
476.74	978.34
476.92	952.60
477.10	976.00
477.28	1107.07
477.46	980.68
477.64	1184.31
477.82	1057.92
478.00	1029.84
478.18	1100.05
478.36	1081.33
478.54	1020.47
478.72	992.39
478.90	1064.94
479.08	1184.31
479.26	1057.92
479.44	1100.05
479.62	912.81
479.80	924.51
479.98	858.98
480.16	1015.79
480.34	1256.87
480.52	997.07
480.70	1177.29
480.88	950.26
481.06	1041.54
481.24	1018.13
481.41	1060.26
481.59	1249.85
481.77	1160.91
481.95	1111.75
482.13	1432.41
482.31	1135.16
482.49	1039.20
482.67	1261.55
482.85	1268.57
483.03	1163.25
483.21	1287.29
483.39	1029.84
483.57	1153.88
483.74	1509.65
483.92	1188.99
484.10	1050.90
484.28	1427.73
484.46	1687.53
484.64	1132.82
484.82	1135.16
485.00	1055.58
485.18	1095.37
485.35	1186.65
485.53	1004.09
485.71	1263.89
485.89	851.96
486.07	1027.50
486.25	1643.06
486.43	1273.25
486.61	1301.34
486.78	1303.68
486.96	1027.50
487.14	1160.91
487.32	1111.75
487.50	1086.01
487.68	1441.77
487.85	1156.22
488.03	1289.64
488.21	1460.49
488.39	1160.91
488.57	1308.36
488.75	1231.12
488.92	3904.01
489.10	1444.11
489.28	1614.97
489.46	1266.23
489.64	1313.04
489.81	1378.58
489.99	1390.28
490.17	1310.70
490.35	1914.56
490.53	1224.10
490.70	1212.40
490.88	1481.56
491.06	1146.86
491.24	1383.26
491.41	1577.52
491.59	1493.26
491.77	1186.65
491.95	1163.25
492.13	1196.01
492.30	1343.47
492.48	1235.80
492.66	1448.79
492.84	1219.42
493.01	1486.24
493.19	1247.51
493.37	1675.82
493.54	1633.69
493.72	1483.90
493.90	1348.15
494.08	1324.74
494.25	1448.79
494.43	1495.60
494.61	1472.20
494.79	1287.29
494.96	1273.25
495.14	1504.96
495.32	1277.93
495.49	1348.15
495.67	1378.58
495.85	1420.71
496.02	1310.70
496.20	1586.88
496.38	1584.54
496.55	1483.90
496.73	1514.33
496.91	1399.64
497.09	1614.97
497.26	1439.43
497.44	1371.55
497.62	1413.68
497.79	1418.36
497.97	1502.62
498.14	1558.80
498.32	1507.30
498.50	1507.30
498.67	1362.19
498.85	1493.26
499.03	1455.81
499.20	1540.07
499.38	1409.00
499.56	1526.03
499.73	1893.49
499.91	1610.29
500.08	1533.05
500.26	1502.62
500.44	1287.29
500.61	1497.94
500.79	1409.00
500.97	1558.80
501.14	1753.06
501.32	1481.56
501.49	1692.21
501.67	1455.81
501.84	1570.50
502.02	1306.02
502.20	1874.77
502.37	1600.93
502.55	1437.09
502.72	1350.49
502.90	1694.55
503.07	1563.48
503.25	1516.67
503.43	1252.19
503.60	1504.96
503.78	1561.14
503.95	1490.92
504.13	1341.13
504.30	1643.06
504.48	1776.47
504.65	1877.11
504.83	1678.16
505.01	1401.98
505.18	1600.93
505.36	1460.49
505.53	1561.14
505.71	1385.60
505.88	1727.32
506.06	1533.05
506.23	1668.80
506.41	1406.66
506.58	1551.78
506.76	1556.46
506.93	1425.39
507.11	1617.31
507.28	1371.55
507.46	1446.45
507.63	1612.63
507.81	1331.76
507.98	1481.56
508.16	1469.86
508.33	1558.80
508.50	1713.27
508.68	1605.61
508.85	1537.73
509.03	1469.86
509.20	1479.22
509.38	1650.08
509.55	1753.06
509.73	1650.08
509.90	1893.49
510.08	1446.45
510.25	1607.95
510.42	1479.22
510.60	1514.33
510.77	1797.53
510.95	1703.91
511.12	1636.03
511.30	1816.26
511.47	1783.49
511.64	1982.43
511.82	1530.71
511.99	1537.73
512.17	1413.68
512.34	1380.92
512.51	1439.43
512.69	1472.20
512.86	1820.94
513.04	1383.26
513.21	1675.82
513.38	1507.30
513.56	1453.47
513.73	1472.20
513.90	1380.92
514.08	1437.09
514.25	1631.35
514.43	1664.12
514.60	1507.30
514.77	1488.58
514.95	1579.86
515.12	1540.07
515.29	1636.03
515.47	1629.01
515.64	1680.50
515.81	1556.46
515.99	1891.15
516.16	1659.44
516.33	1753.06
516.51	1226.44
516.68	1254.53
516.85	1359.85
517.03	1409.00
517.20	1547.09
517.37	1582.20
517.54	1624.33
517.72	1502.62
517.89	1289.64
518.06	1327.08
518.24	1851.36
518.41	2092.44
518.58	1727.32
518.75	1469.86
518.93	1671.14
519.10	1617.31
519.27	1465.18
519.45	1610.29
519.62	1659.44
519.79	1764.76
519.96	1390.28
520.14	1591.56
520.31	1849.02
520.48	1591.56
520.65	1645.40
520.83	1762.42
521.00	1825.62
521.17	1687.53
521.34	1614.97
521.52	1619.65
521.69	1666.46
521.86	1558.80
522.03	1853.70
522.20	1921.58
522.38	1519.01
522.55	1647.74
522.72	1453.47
522.89	1736.68
523.07	2026.90
523.24	1558.80
523.41	1500.28
523.58	1591.56
523.75	1668.80
523.92	1441.77
524.10	1830.30
524.27	1561.14
524.44	1596.25
524.61	1921.58
524.78	1671.14
524.96	1818.60
525.13	1753.06
525.30	1902.86
525.47	1949.67
525.64	1706.25
525.81	1872.43
525.98	1551.78
526.16	1504.96
526.33	1394.96
526.50	1497.94
526.67	1376.24
526.84	1373.89
527.01	1511.99
527.18	1675.82
527.36	1703.91
527.53	1502.62
527.70	1909.88
527.87	1746.04
528.04	2108.82
528.21	1568.16
528.38	1935.62
528.55	1966.05
528.72	2005.84
528.89	2111.16
529.07	1680.50
529.24	1645.40
529.41	1959.03
529.58	1682.85
529.75	1673.48
529.92	1827.96
530.09	1734.34
530.26	1839.66
530.43	1788.17
530.60	1706.25
530.77	1715.61
530.94	1872.43
531.11	1853.70
531.28	1701.57
531.46	1647.74
531.63	1696.89
531.80	1804.55
531.97	1750.72
532.14	1722.63
532.31	1682.85
532.48	1741.36
532.65	1797.53
532.82	1785.83
532.99	1865.41
533.16	1753.06
533.33	1710.93
533.50	1694.55
533.67	1724.97
533.84	1966.05
534.01	2026.90
534.18	1750.72
534.35	1830.30
534.52	1790.51
534.69	2223.51
534.86	1811.57
535.03	1661.78
535.20	1593.90
535.37	1952.01
535.54	1806.89
535.71	1675.82
535.88	1996.48
536.05	1652.42
536.22	1703.91
536.38	1577.52
536.55	1753.06
536.72	1846.68
536.89	1535.39
537.06	1579.86
537.23	1558.80
537.40	1619.65
537.57	1621.99
537.74	1795.19
537.91	1926.26
538.08	1703.91
538.25	1767.10
538.42	1657.10
538.59	1830.30
538.75	1652.42
538.92	1603.27
539.09	1858.39
539.26	1572.84
539.43	2296.07
539.60	2911.63
539.77	3796.35
539.94	3485.06
540.11	2871.84
540.28	2565.23
540.44	2174.36
540.61	1757.74
540.78	1631.35
540.95	1444.11
541.12	2010.52
541.29	1572.84
541.46	2038.61
541.62	1753.06
541.79	1561.14
541.96	1551.78
542.13	1643.06
542.30	1577.52
542.47	1802.21
542.63	1607.95
542.80	1753.06
542.97	1961.37
543.14	1577.52
543.31	1764.76
543.48	1607.95
543.64	1795.19
543.81	1582.20
543.98	1530.71
544.15	1558.80
544.32	1521.35
544.48	1600.93
544.65	1593.90
544.82	1582.20
544.99	1643.06
545.16	1834.98
545.32	1551.78
545.49	1750.72
545.66	1603.27
545.83	1547.09
546.00	1521.35
546.16	1556.46
546.33	1643.06
546.50	1577.52
546.67	1881.79
546.83	1802.21
547.00	1682.85
547.17	1425.39
547.34	1488.58
547.50	1556.46
547.67	1582.20
547.84	1451.13
548.00	1783.49
548.17	1535.39
548.34	1603.27
548.51	1970.73
548.67	1888.81
548.84	1596.25
549.01	1727.32
549.18	1837.32
549.34	1650.08
549.51	1792.85
549.68	1727.32
549.84	1561.14
550.01	1516.67
550.18	2562.89
550.34	2324.15
550.51	1633.69
550.68	2054.99
550.84	1572.84
551.01	1678.16
551.18	1734.34
551.34	1619.65
551.51	1575.18
551.68	1614.97
551.84	1795.19
552.01	1643.06
552.18	1636.03
552.34	1614.97
552.51	1666.46
552.68	1820.94
552.84	1577.52
553.01	1687.53
553.18	1774.13
553.34	1605.61
553.51	1483.90
553.67	1750.72
553.84	2090.10
554.01	1668.80
554.17	1764.76
554.34	1572.84
554.51	1823.28
554.67	1909.88
554.84	1732.00
555.00	1748.38
555.17	1699.23
555.33	1961.37
555.50	1706.25
555.67	1788.17
555.83	1619.65
556.00	1764.76
556.16	3211.22
556.33	1743.70
556.50	1678.16
556.66	1523.69
556.83	1636.03
556.99	1476.88
557.16	1643.06
557.32	1455.81
557.49	1673.48
557.65	1401.98
557.82	1523.69
557.98	1675.82
558.15	1528.37
558.32	1591.56
558.48	1582.20
558.65	1554.12
558.81	1638.38
558.98	1451.13
559.14	1797.53
559.31	1542.41
559.47	1668.80
559.64	1519.01
559.80	1750.72
559.97	1345.81
560.13	1645.40
560.30	1376.24
560.46	1490.92
560.63	1444.11
560.79	1556.46
560.96	1673.48
561.12	1488.58
561.29	1577.52
561.45	1519.01
561.61	1561.14
561.78	2335.85
561.94	1661.78
562.11	1540.07
562.27	1586.88
562.44	1434.75
562.60	1577.52
562.77	1598.59
562.93	2094.78
563.10	1610.29
563.26	1556.46
563.42	1802.21
563.59	1600.93
563.75	1401.98
563.92	1755.40
564.08	1647.74
564.24	1743.70
564.41	2054.99
564.57	1399.64
564.74	1455.81
564.90	1680.50
565.07	1687.53
565.23	1703.91
565.39	1523.69
565.56	1629.01
565.72	1418.36
565.88	1483.90
566.05	1455.81
566.21	1500.28
566.38	1612.63
566.54	1645.40
566.70	1497.94
566.87	1507.30
567.03	1345.81
567.19	1544.75
567.36	1603.27
567.52	1535.39
567.68	1631.35
567.85	1668.80
568.01	1444.11
568.17	1357.51
568.34	1481.56
568.50	1781.15
568.66	1451.13
568.83	2157.97
568.99	1507.30
569.15	1916.90
569.32	1446.45
569.48	1469.86
569.64	1397.30
569.81	1483.90
569.97	1446.45
570.13	1540.07
570.30	1425.39
570.46	1364.53
570.62	1392.62
570.78	1373.89
570.95	1320.06
571.11	1921.58
571.27	1804.55
571.43	1397.30
571.60	1650.08
571.76	1420.71
571.92	1483.90
572.09	1401.98
572.25	1547.09
572.41	1416.02
572.57	1488.58
572.74	1872.43
572.90	1629.01
573.06	1636.03
573.22	1682.85
573.38	1769.44
573.55	1741.36
573.71	1753.06
573.87	1664.12
574.03	1329.42
574.20	1516.67
574.36	1816.26
574.52	1530.71
574.68	1582.20
574.84	1631.35
575.01	1411.34
575.17	1661.78
575.33	1511.99
575.49	1638.38
575.65	1767.10
575.82	1802.21
575.98	2443.52
576.14	2239.89
576.30	2085.42
576.46	1980.09
576.62	1830.30
576.79	1863.07
576.95	1881.79
577.11	1427.73
577.27	1394.96
577.43	1703.91
577.59	1851.36
577.75	1682.85
577.92	1497.94
578.08	1476.88
578.24	1247.51
578.40	1771.79
578.56	1767.10
578.72	1778.81
578.88	1654.76
579.04	1474.54
579.21	1596.25
579.37	1500.28
579.53	1439.43
579.69	1767.10
579.85	1472.20
580.01	1849.02
580.17	1586.88
580.33	1605.61
580.49	1734.34
580.65	1769.44
580.82	1724.97
580.98	1533.05
581.14	1612.63
581.30	1963.71
581.46	1734.34
581.62	2125.21
581.78	2054.99
581.94	2132.23
582.10	1638.38
582.26	1788.17
582.42	1767.10
582.58	1874.77
582.74	1708.59
582.90	1809.23
583.06	1834.98
583.22	1792.85
583.38	1715.61
583.54	1898.17
583.70	2291.38
583.86	2265.64
584.02	2340.54
584.18	2794.60
584.34	2953.76
584.50	6602.65
584.66	42490.09
584.82	65535.00
584.98	65535.00
585.14	65535.00
585.30	64430.27
585.46	44271.23
585.62	27803.22
585.78	13390.20
585.94	6078.37
586.10	3480.38
586.26	2663.53
586.42	2593.31
586.58	2251.60
586.74	2033.93
586.90	1970.73
587.06	2078.40
587.22	1905.20
587.38	1767.10
587.54	3063.76
587.70	7110.55
587.86	10436.45
588.02	10670.50
588.18	8018.68
588.34	5416.00
588.49	3845.50
588.65	2609.70
588.81	1893.49
588.97	1369.21
589.13	1327.08
589.29	1472.20
589.45	1657.10
589.61	1481.56
589.77	1771.79
589.93	1650.08
590.08	1530.71
590.24	1526.03
590.40	1652.42
590.56	1724.97
590.72	1495.60
590.88	1338.79
591.04	1551.78
591.20	1373.89
591.35	1741.36
591.51	1469.86
591.67	1299.00
591.83	1247.51
591.99	1544.75
592.15	1689.87
592.31	1493.26
592.46	1497.94
592.62	1645.40
592.78	1306.02
592.94	1348.15
593.10	1378.58
593.26	1460.49
593.41	1598.59
593.57	1547.09
593.73	1760.08
593.89	5886.45
594.05	13355.10
594.20	18171.92
594.36	16744.19
594.52	11239.25
594.68	7442.90
594.84	5479.19
594.99	3686.34
595.15	2228.19
595.31	1811.57
595.47	1937.96
595.62	1446.45
595.78	1483.90
595.94	1535.39
596.10	1830.30
596.25	1657.10
596.41	1736.68
596.57	1380.92
596.73	1425.39
596.88	1839.66
597.04	3421.86
597.20	4601.49
597.36	5078.96
597.51	3953.16
597.67	3047.38
597.83	2422.45
597.99	2115.84
598.14	1603.27
598.30	1837.32
598.46	1385.60
598.61	1694.55
598.77	1607.95
598.93	1380.92
599.09	1411.34
599.24	1591.56
599.40	1621.99
599.56	1376.24
599.71	1383.26
599.87	1341.13
600.03	1462.83
600.18	1327.08
600.34	1474.54
600.50	1371.55
600.65	1282.61
600.81	1528.37
600.97	1270.91
601.12	1327.08
601.28	1603.27
601.44	1404.32
601.59	1350.49
601.75	1423.05
601.91	1373.89
602.06	1474.54
602.22	2228.19
602.37	2333.51
602.53	4070.19
602.69	5488.56
602.84	5217.05
603.00	4191.90
603.16	3293.13
603.31	2738.43
603.47	2167.34
603.62	1516.67
603.78	1535.39
603.94	1596.25
604.09	1535.39
604.25	1591.56
604.40	1481.56
604.56	1406.66
604.71	1479.22
604.87	1268.57
605.03	1390.28
605.18	1516.67
605.34	1610.29
605.49	1488.58
605.65	1308.36
605.80	1329.42
605.96	1472.20
606.12	1486.24
606.27	1696.89
606.43	1537.73
606.58	1842.00
606.74	2551.18
606.89	7035.65
607.05	12617.83
607.20	15531.80
607.36	12559.31
607.51	8727.86
607.67	6277.32
607.82	4685.75
607.98	3342.28
608.13	2122.87
608.29	1694.55
608.44	1844.34
608.60	1696.89
608.75	1980.09
608.91	3166.74
609.06	10768.80
609.22	21598.46
609.37	26967.65
609.53	22530.00
609.68	15227.53
609.84	9963.66
609.99	6897.56
610.15	4187.22
610.30	2619.06
610.46	2125.21
610.61	1732.00
610.76	1441.77
610.92	1586.88
611.07	1394.96
611.23	2214.15
611.38	1668.80
611.54	1240.48
611.69	1240.48
611.84	1320.06
612.00	1345.81
612.15	1357.51
612.31	1582.20
612.46	1879.45
612.62	1944.99
612.77	2230.53
612.92	1975.41
613.08	2120.53
613.23	1888.81
613.39	1844.34
613.54	2195.42
613.69	9923.87
613.85	26820.20
614.00	40093.38
614.15	41247.26
614.31	28655.18
614.46	19768.16
614.62	13378.50
614.77	8573.38
614.92	4131.05
615.08	2513.74
615.23	1996.48
615.38	1760.08
615.54	1570.50
615.69	2368.62
615.84	5657.07
616.00	9570.45
616.15	11248.61
616.30	9167.88
616.46	6513.71
616.61	4517.23
616.76	3552.93
616.92	2443.52
617.07	1591.56
617.22	1448.79
617.37	1446.45
617.53	1437.09
617.68	1423.05
617.83	1378.58
617.99	1755.40
618.14	1790.51
618.29	1636.03
618.45	1455.81
618.60	1245.16
618.75	1207.72
618.90	1160.91
619.06	1310.70
619.21	1755.40
619.36	1586.88
619.51	1259.21
619.67	1252.19
619.82	1252.19
619.97	1359.85
620.12	1418.36
620.28	1299.00
620.43	1413.68
620.58	1404.32
620.73	1423.05
620.89	1493.26
621.04	1966.05
621.19	4084.23
621.34	5687.50
621.49	6843.73
621.65	6366.26
621.80	4568.73
621.95	3328.24
622.10	2960.78
622.25	1905.20
622.41	1425.39
622.56	1385.60
622.71	1343.47
622.86	1584.54
623.01	1268.57
623.16	1418.36
623.32	1109.41
623.47	1385.60
623.62	1324.74
623.77	1259.21
623.92	1132.82
624.07	1107.07
624.23	1245.16
624.38	1130.48
624.53	1282.61
624.68	1535.39
624.83	1521.35
624.98	1352.83
625.13	1245.16
625.29	1172.61
625.44	1308.36
625.59	1437.09
625.74	1451.13
625.89	2083.08
626.04	5027.47
626.19	13738.94
626.34	20458.62
626.49	22071.25
626.65	15714.36
626.80	10977.11
626.95	8095.91
627.10	4917.47
627.25	2897.58
627.40	1717.95
627.55	1519.01
627.70	1310.70
627.85	1441.77
628.00	1160.91
628.15	1146.86
628.30	1277.93
628.45	1100.05
628.60	1144.52
628.76	1284.95
628.91	1193.67
629.06	1282.61
629.21	1107.07
629.36	1411.34
629.51	1015.79
629.66	1259.21
629.81	1493.26
629.96	3314.20
630.11	5408.98
630.26	6162.63
630.41	5296.63
630.56	4264.46
630.71	2904.60
630.86	2401.39
631.01	1713.27
631.16	1373.89
631.31	1528.37
631.46	1558.80
631.61	1245.16
631.76	1303.68
631.91	1146.86
632.06	1345.81
632.21	1362.19
632.36	1451.13
632.51	1404.32
632.66	1385.60
632.81	2675.23
632.96	8086.55
633.10	12856.56
633.25	15693.29
633.40	12028.01
633.55	8631.90
633.70	6061.99
633.85	4327.65
634.00	2490.33
634.15	1820.94
634.30	1430.07
634.45	1390.28
634.60	1261.55
634.75	1139.84
634.90	1043.88
635.05	1139.84
635.19	1266.23
635.34	1116.44
635.49	1320.06
635.64	1107.07
635.79	1022.81
635.94	1282.61
636.09	1380.92
636.24	1238.14
636.39	1313.04
636.53	1404.32
636.68	1149.20
636.83	1273.25
636.98	1575.18
637.13	1221.76
637.28	1355.17
637.43	1888.81
637.57	2038.61
637.72	7281.41
637.87	18153.20
638.02	25689.72
638.17	27367.88
638.32	19995.20
638.46	13781.07
638.61	10251.55
638.76	6244.55
638.91	3566.98
639.06	2101.80
639.20	2080.74
639.35	1923.92
639.50	2429.48
639.65	10389.64
639.80	27592.58
639.94	40383.60
640.09	43239.06
640.24	31878.10
640.39	21596.12
640.54	14808.57
640.68	8840.20
640.83	4926.83
640.98	2551.18
641.13	1797.53
641.27	1448.79
641.42	1338.79
641.57	1565.82
641.72	1291.98
641.86	1238.14
642.01	1043.88
642.16	1387.94
642.31	1071.97
642.45	1556.46
642.60	1439.43
642.75	997.07
642.90	1277.93
643.04	1029.84
643.19	1029.84
643.34	1043.88
643.48	1118.78
643.63	1121.12
643.78	1373.89
643.93	1502.62
644.07	1137.50
644.22	1020.47
644.37	887.06
644.51	1254.53
644.66	1233.46
644.81	1008.77
644.95	1240.48
645.10	983.02
645.25	926.85
645.39	1315.38
645.54	938.55
645.69	1465.18
645.83	861.32
645.98	1678.16
646.13	1020.47
646.27	1273.25
646.42	903.45
646.57	943.24
646.71	1062.60
646.86	917.49
647.00	1015.79
647.15	1181.97
647.30	851.96
647.44	973.66
647.59	880.04
647.74	809.83
647.88	1078.99
648.03	816.85
648.17	1207.72
648.32	837.91
648.47	1027.50
648.61	929.19
648.76	940.90
648.90	997.07
649.05	947.92
649.20	870.68
649.34	875.36
649.49	866.00
649.63	1212.40
649.78	1114.10
649.92	1472.20
650.07	4194.24
650.21	11995.25
650.36	19534.11
650.51	22101.68
650.65	18778.12
650.80	13067.21
650.94	9100.00
651.09	5792.83
651.23	3297.81
651.38	1961.37
651.52	1385.60
651.67	1139.84
651.81	1240.48
651.96	1411.34
652.10	1369.21
652.25	1086.01
652.39	1308.36
652.54	1231.12
652.68	1741.36
652.83	4280.84
652.97	7096.50
653.12	8369.76
653.26	6942.03
653.41	5556.43
653.55	4032.74
653.70	2691.62
653.84	1811.57
653.99	1345.81
654.13	943.24
654.27	1118.78
654.42	915.15
654.56	971.32
654.71	1174.95
654.85	870.68
655.00	908.13
655.14	926.85
655.29	751.31
655.43	1128.14
655.57	947.92
655.72	833.23
655.86	994.73
656.01	983.02
656.15	821.53
656.30	1247.51
656.44	854.30
656.58	767.70
656.73	868.34
656.87	847.27
657.01	898.77
657.16	1331.76
657.30	1137.50
657.45	1268.57
657.59	1008.77
657.73	758.33
657.88	1034.52
658.02	1598.59
658.16	924.51
658.31	1078.99
658.45	854.30
658.60	781.74
658.74	1036.86
658.88	966.64
659.03	887.06
659.17	997.07
659.31	2111.16
659.46	5914.53
659.60	9600.88
659.74	11178.40
659.89	9685.14
660.03	7368.01
660.17	5708.57
660.32	3726.13
660.46	2310.11
660.60	1568.16
660.74	1409.00
660.89	1135.16
661.03	877.70
661.17	922.17
661.32	910.47
661.46	950.26
661.60	851.96
661.74	938.55
661.89	1163.25
662.03	1144.52
662.17	858.98
662.31	917.49
662.46	992.39
662.60	997.07
662.74	851.96
662.88	1090.69
663.03	903.45
663.17	877.70
663.31	992.39
663.45	943.24
663.60	875.36
663.74	793.44
663.88	683.44
664.02	910.47
664.17	858.98
664.31	814.51
664.45	933.87
664.59	959.62
664.73	901.11
664.88	1160.91
665.02	856.64
665.16	968.98
665.30	1303.68
665.44	1067.28
665.59	1277.93
665.73	973.66
665.87	1034.52
666.01	917.49
666.15	901.11
666.29	781.74
666.44	1338.79
666.58	1486.24
666.72	1001.75
666.86	922.17
667.00	1268.57
667.14	1350.49
667.28	3836.14
667.43	10012.81
667.57	16886.97
667.71	19903.92
667.85	16608.44
667.99	12231.64
668.13	7936.76
668.27	4896.40
668.41	3082.49
668.56	2003.50
668.70	1729.66
668.84	1158.57
668.98	1163.25
669.12	788.76
669.26	1062.60
669.40	1497.94
669.54	1123.46
669.68	1165.59
669.82	826.21
669.96	1018.13
670.10	959.62
670.25	1123.46
670.39	1125.80
670.53	863.66
670.67	999.41
670.81	844.93
670.95	1093.03
671.09	1446.45
671.23	4360.42
671.37	8552.32
671.51	11623.10
671.65	12112.27
671.79	9298.95
671.93	6644.78
672.07	4620.22
672.21	2881.20
672.35	1858.39
672.49	1364.53
672.63	1357.51
672.77	1078.99
672.91	1069.62
673.05	938.55
673.19	1025.15
673.33	767.70
673.47	1345.81
673.61	896.43
673.75	760.67
673.89	765.36
674.03	1013.45
674.17	835.57
674.31	912.81
674.45	959.62
674.59	968.98
674.73	901.11
674.87	1046.22
675.01	1128.14
675.15	898.77
675.29	1200.69
675.43	1153.88
675.56	1359.85
675.70	1303.68
675.84	901.11
675.98	959.62
676.12	683.44
676.26	924.51
676.40	641.31
676.54	961.96
676.68	802.80
676.82	1018.13
676.96	620.24
677.10	814.51
677.23	798.12
677.37	667.05
677.51	795.78
677.65	1404.32
677.79	791.10
677.93	697.48
678.07	744.29
678.21	603.86
678.34	631.94
678.48	664.71
678.62	828.55
678.76	617.90
678.90	725.57
679.04	908.13
679.18	730.25
679.31	645.99
679.45	720.88
679.59	821.53
679.73	812.17
679.87	648.33
680.00	837.91
680.14	819.19
680.28	910.47
680.42	725.57
680.56	957.28
680.70	704.50
680.83	931.53
680.97	571.09
681.11	751.31
681.25	908.13
681.39	779.40
681.52	821.53
681.66	791.10
681.80	887.06
681.94	648.33
682.07	678.76
682.21	849.61
682.35	638.97
682.49	655.35
682.62	945.58
682.76	596.84
682.90	753.65
683.04	917.49
683.17	798.12
683.31	767.70
683.45	856.64
683.59	1090.69
683.72	1008.77
683.86	898.77
684.00	660.03
684.13	1008.77
684.27	901.11
684.41	910.47
684.55	758.33
684.68	718.54
684.82	697.48
684.96	704.50
685.09	774.72
685.23	571.09
685.37	676.41
685.50	933.87
685.64	1006.43
685.78	587.47
685.91	863.66
686.05	894.08
686.19	779.40
686.32	777.06
686.46	819.19
686.60	580.45
686.73	1266.23
686.87	924.51
687.01	589.82
687.14	489.17
687.28	669.39
687.42	641.31
687.55	692.80
687.69	940.90
687.82	615.56
687.96	676.41
688.10	964.30
688.23	660.03
688.37	957.28
688.50	833.23
688.64	711.52
688.78	557.05
688.91	683.44
689.05	578.11
689.18	561.73
689.32	617.90
689.46	596.84
689.59	746.63
689.73	873.02
689.86	517.26
690.00	585.13
690.13	491.51
690.27	505.56
690.41	772.38
690.54	795.78
690.68	793.44
690.81	676.41
690.95	603.86
691.08	744.29
691.22	554.71
691.35	585.13
691.49	535.98
691.62	713.86
691.76	521.94
691.89	734.93
692.03	456.40
692.16	589.82
692.30	844.93
692.43	1479.22
692.57	4334.67
692.70	7131.61
692.84	8622.53
692.97	7719.09
693.11	5785.80
693.24	4241.05
693.38	2672.89
693.51	2024.56
693.65	1685.19
693.78	1071.97
693.92	840.25
694.05	905.79
694.19	575.77
694.32	823.87
694.45	631.94
694.59	468.11
694.72	622.58
694.86	613.22
694.99	805.14
695.13	631.94
695.26	702.16
695.39	617.90
695.53	1074.31
695.66	727.91
695.80	870.68
695.93	498.53
696.07	631.94
696.20	992.39
696.33	938.55
696.47	1135.16
696.60	976.00
696.73	943.24
696.87	807.48
697.00	1170.27
697.14	767.70
697.27	781.74
697.40	1224.10
697.54	599.18
697.67	678.76
697.80	636.63
697.94	521.94
698.07	538.32
698.21	521.94
698.34	760.67
698.47	507.90
698.61	503.22
698.74	531.30
698.87	835.57
699.01	688.12
699.14	512.58
699.27	767.70
699.40	1610.29
699.54	603.86
699.67	552.37
699.80	519.60
699.94	589.82
700.07	533.64
700.20	425.98
700.34	730.25
700.47	449.38
700.60	449.38
700.73	613.22
700.87	861.32
701.00	440.02
701.13	571.09
701.26	599.18
701.40	561.73
701.53	653.01
701.66	500.87
701.79	643.65
701.93	690.46
702.06	1221.76
702.19	968.98
702.32	1357.51
702.46	1022.81
702.59	994.73
702.72	1710.93
702.85	5844.32
702.99	11896.94
703.12	15885.22
703.25	16084.16
703.38	14097.05
703.51	11393.73
703.65	8449.33
703.78	5856.02
703.91	3946.14
704.04	2808.64
704.17	1703.91
704.31	1153.88
704.44	870.68
704.57	746.63
704.70	727.91
704.83	678.76
704.96	631.94
705.10	664.71
705.23	589.82
>>>>>End Processed Spectral Data<<<<<
