SpectraSuite Data File
++++++++++++++++++++++++++++++++++++
Date: Fri Oct 04 11:34:09 GMT-05:00 2013
User: price-jones
Dark Spectrum Present: No
Reference Spectrum Present: No
Number of Sampled Component Spectra: 1
Spectrometers: USB2+H05261
Integration Time (usec): 100000 (USB2+H05261)
Spectra Averaged: 1 (USB2+H05261)
Boxcar Smoothing: 0 (USB2+H05261)
Correct for Electrical Dark: No (USB2+H05261)
Strobe/Lamp Enabled: No (USB2+H05261)
Correct for Detector Non-linearity: No (USB2+H05261)
Correct for Stray Light: No (USB2+H05261)
Number of Pixels in Processed Spectrum: 2048
>>>>>Begin Processed Spectral Data<<<<<
365.73	98.30
365.92	98.30
366.12	98.30
366.32	4.68
366.52	0.00
366.72	0.00
366.91	16.38
367.11	0.00
367.31	0.00
367.51	0.00
367.70	7.02
367.90	0.00
368.10	0.00
368.30	0.00
368.49	0.00
368.69	0.00
368.89	53.83
369.09	0.00
369.28	0.00
369.48	0.00
369.68	28.09
369.87	0.00
370.07	0.00
370.27	70.22
370.47	79.58
370.66	67.88
370.86	77.24
371.06	100.64
371.25	184.90
371.45	138.09
371.65	210.65
371.84	105.32
372.04	88.94
372.24	126.39
372.44	168.52
372.63	128.73
372.83	189.58
373.03	166.18
373.22	170.86
373.42	215.33
373.62	131.07
373.81	88.94
374.01	177.88
374.21	138.09
374.40	105.32
374.60	222.35
374.79	124.05
374.99	131.07
375.19	203.63
375.38	220.01
375.58	131.07
375.78	168.52
375.97	191.92
376.17	142.77
376.37	117.03
376.56	196.60
376.76	70.22
376.95	138.09
377.15	161.50
377.35	152.13
377.54	119.37
377.74	77.24
377.93	93.62
378.13	145.11
378.33	105.32
378.52	161.50
378.72	119.37
378.91	102.98
379.11	173.20
379.31	170.86
379.50	154.48
379.70	147.45
379.89	194.26
380.09	112.35
380.28	107.66
380.48	191.92
380.68	88.94
380.87	110.01
381.07	152.13
381.26	140.43
381.46	166.18
381.65	128.73
381.85	114.69
382.04	107.66
382.24	182.56
382.43	81.92
382.63	117.03
382.83	147.45
383.02	198.95
383.22	203.63
383.41	152.13
383.61	133.41
383.80	156.82
384.00	203.63
384.19	177.88
384.39	189.58
384.58	100.64
384.78	166.18
384.97	187.24
385.17	210.65
385.36	126.39
385.56	208.31
385.75	128.73
385.95	147.45
386.14	191.92
386.34	133.41
386.53	133.41
386.72	161.50
386.92	175.54
387.11	168.52
387.31	220.01
387.50	105.32
387.70	112.35
387.89	145.11
388.09	140.43
388.28	166.18
388.48	142.77
388.67	159.16
388.86	170.86
389.06	168.52
389.25	234.05
389.45	114.69
389.64	131.07
389.84	184.90
390.03	107.66
390.22	131.07
390.42	140.43
390.61	77.24
390.81	133.41
391.00	154.48
391.19	194.26
391.39	114.69
391.58	168.52
391.78	110.01
391.97	191.92
392.16	142.77
392.36	133.41
392.55	131.07
392.75	133.41
392.94	138.09
393.13	168.52
393.33	145.11
393.52	163.84
393.71	205.97
393.91	135.75
394.10	135.75
394.29	117.03
394.49	187.24
394.68	182.56
394.88	215.33
395.07	166.18
395.26	117.03
395.46	117.03
395.65	231.71
395.84	198.95
396.04	304.27
396.23	147.45
396.42	159.16
396.62	210.65
396.81	149.79
397.00	112.35
397.19	142.77
397.39	140.43
397.58	184.90
397.77	152.13
397.97	156.82
398.16	119.37
398.35	168.52
398.55	91.28
398.74	140.43
398.93	126.39
399.12	72.56
399.32	124.05
399.51	191.92
399.70	170.86
399.90	156.82
400.09	236.39
400.28	180.22
400.47	168.52
400.67	234.05
400.86	86.60
401.05	147.45
401.24	198.95
401.44	194.26
401.63	168.52
401.82	114.69
402.01	217.67
402.21	203.63
402.40	131.07
402.59	117.03
402.78	152.13
402.97	121.71
403.17	187.24
403.36	161.50
403.55	145.11
403.74	154.48
403.93	236.39
404.13	299.59
404.32	283.20
404.51	238.73
404.70	177.88
404.89	191.92
405.09	191.92
405.28	198.95
405.47	182.56
405.66	238.73
405.85	102.98
406.05	173.20
406.24	154.48
406.43	154.48
406.62	203.63
406.81	154.48
407.00	156.82
407.20	147.45
407.39	173.20
407.58	140.43
407.77	161.50
407.96	170.86
408.15	161.50
408.34	117.03
408.54	170.86
408.73	154.48
408.92	121.71
409.11	224.69
409.30	243.42
409.49	91.28
409.68	77.24
409.87	128.73
410.07	58.51
410.26	159.16
410.45	166.18
410.64	163.84
410.83	161.50
411.02	166.18
411.21	205.97
411.40	222.35
411.59	175.54
411.78	149.79
411.98	184.90
412.17	53.83
412.36	121.71
412.55	194.26
412.74	191.92
412.93	128.73
413.12	86.60
413.31	194.26
413.50	191.92
413.69	166.18
413.88	212.99
414.07	110.01
414.26	184.90
414.45	140.43
414.64	205.97
414.83	259.80
415.02	201.29
415.22	205.97
415.41	194.26
415.60	161.50
415.79	180.22
415.98	243.42
416.17	187.24
416.36	133.41
416.55	102.98
416.74	168.52
416.93	177.88
417.12	100.64
417.31	189.58
417.50	180.22
417.69	217.67
417.88	224.69
418.07	243.42
418.26	198.95
418.45	166.18
418.64	299.59
418.83	208.31
419.02	201.29
419.21	217.67
419.39	198.95
419.58	191.92
419.77	177.88
419.96	283.20
420.15	257.46
420.34	177.88
420.53	180.22
420.72	163.84
420.91	266.82
421.10	189.58
421.29	177.88
421.48	205.97
421.67	152.13
421.86	138.09
422.05	227.03
422.24	152.13
422.43	236.39
422.61	215.33
422.80	262.14
422.99	189.58
423.18	149.79
423.37	196.60
423.56	182.56
423.75	121.71
423.94	142.77
424.13	196.60
424.32	163.84
424.50	191.92
424.69	168.52
424.88	191.92
425.07	184.90
425.26	182.56
425.45	311.29
425.64	259.80
425.83	238.73
426.01	250.44
426.20	170.86
426.39	140.43
426.58	229.37
426.77	180.22
426.96	196.60
427.15	163.84
427.33	170.86
427.52	138.09
427.71	124.05
427.90	273.84
428.09	159.16
428.28	133.41
428.46	229.37
428.65	184.90
428.84	81.92
429.03	161.50
429.22	201.29
429.40	194.26
429.59	184.90
429.78	315.97
429.97	163.84
430.16	117.03
430.34	177.88
430.53	149.79
430.72	194.26
430.91	149.79
431.10	196.60
431.28	154.48
431.47	187.24
431.66	184.90
431.85	152.13
432.03	173.20
432.22	269.16
432.41	163.84
432.60	173.20
432.79	257.46
432.97	234.05
433.16	308.95
433.35	245.76
433.54	182.56
433.72	229.37
433.91	182.56
434.10	217.67
434.28	175.54
434.47	156.82
434.66	236.39
434.85	198.95
435.03	184.90
435.22	327.68
435.41	486.83
435.59	456.40
435.78	435.34
435.97	264.48
436.16	266.82
436.34	182.56
436.53	145.11
436.72	175.54
436.90	180.22
437.09	259.80
437.28	149.79
437.46	149.79
437.65	278.52
437.84	177.88
438.02	208.31
438.21	166.18
438.40	187.24
438.58	227.03
438.77	187.24
438.96	201.29
439.14	114.69
439.33	187.24
439.52	154.48
439.70	198.95
439.89	222.35
440.08	135.75
440.26	168.52
440.45	163.84
440.63	210.65
440.82	198.95
441.01	175.54
441.19	191.92
441.38	191.92
441.57	166.18
441.75	227.03
441.94	224.69
442.12	161.50
442.31	159.16
442.50	142.77
442.68	121.71
442.87	140.43
443.05	236.39
443.24	234.05
443.43	196.60
443.61	210.65
443.80	142.77
443.98	110.01
444.17	184.90
444.35	208.31
444.54	205.97
444.73	191.92
444.91	173.20
445.10	177.88
445.28	168.52
445.47	205.97
445.65	208.31
445.84	184.90
446.02	222.35
446.21	201.29
446.39	180.22
446.58	184.90
446.77	180.22
446.95	147.45
447.14	145.11
447.32	180.22
447.51	128.73
447.69	217.67
447.88	241.08
448.06	182.56
448.25	241.08
448.43	140.43
448.62	215.33
448.80	184.90
448.99	147.45
449.17	166.18
449.36	142.77
449.54	224.69
449.73	205.97
449.91	224.69
450.10	187.24
450.28	229.37
450.46	224.69
450.65	180.22
450.83	243.42
451.02	166.18
451.20	222.35
451.39	161.50
451.57	212.99
451.76	159.16
451.94	147.45
452.13	161.50
452.31	159.16
452.49	210.65
452.68	152.13
452.86	205.97
453.05	203.63
453.23	231.71
453.42	187.24
453.60	229.37
453.78	196.60
453.97	105.32
454.15	250.44
454.34	234.05
454.52	175.54
454.70	255.12
454.89	170.86
455.07	189.58
455.26	203.63
455.44	259.80
455.62	196.60
455.81	166.18
455.99	238.73
456.17	234.05
456.36	170.86
456.54	220.01
456.73	210.65
456.91	215.33
457.09	222.35
457.28	184.90
457.46	210.65
457.64	234.05
457.83	227.03
458.01	189.58
458.19	194.26
458.38	250.44
458.56	154.48
458.74	205.97
458.93	191.92
459.11	196.60
459.29	191.92
459.48	184.90
459.66	196.60
459.84	107.66
460.03	308.95
460.21	156.82
460.39	182.56
460.57	205.97
460.76	180.22
460.94	234.05
461.12	259.80
461.31	248.10
461.49	191.92
461.67	217.67
461.85	180.22
462.04	215.33
462.22	311.29
462.40	220.01
462.59	170.86
462.77	205.97
462.95	294.91
463.13	105.32
463.32	198.95
463.50	198.95
463.68	177.88
463.86	170.86
464.05	119.37
464.23	224.69
464.41	117.03
464.59	140.43
464.78	133.41
464.96	194.26
465.14	210.65
465.32	208.31
465.50	241.08
465.69	273.84
465.87	177.88
466.05	156.82
466.23	154.48
466.41	180.22
466.60	187.24
466.78	217.67
466.96	177.88
467.14	163.84
467.32	191.92
467.51	215.33
467.69	198.95
467.87	142.77
468.05	222.35
468.23	315.97
468.41	236.39
468.60	229.37
468.78	159.16
468.96	269.16
469.14	177.88
469.32	119.37
469.50	248.10
469.69	269.16
469.87	184.90
470.05	210.65
470.23	224.69
470.41	238.73
470.59	201.29
470.77	294.91
470.95	238.73
471.14	278.52
471.32	215.33
471.50	154.48
471.68	208.31
471.86	222.35
472.04	222.35
472.22	215.33
472.40	234.05
472.58	212.99
472.77	262.14
472.95	173.20
473.13	212.99
473.31	215.33
473.49	234.05
473.67	149.79
473.85	280.86
474.03	266.82
474.21	248.10
474.39	259.80
474.57	252.78
474.75	189.58
474.93	217.67
475.12	201.29
475.30	159.16
475.48	180.22
475.66	175.54
475.84	203.63
476.02	262.14
476.20	187.24
476.38	208.31
476.56	280.86
476.74	250.44
476.92	264.48
477.10	119.37
477.28	222.35
477.46	236.39
477.64	234.05
477.82	177.88
478.00	175.54
478.18	271.50
478.36	212.99
478.54	196.60
478.72	227.03
478.90	180.22
479.08	222.35
479.26	276.18
479.44	187.24
479.62	196.60
479.80	266.82
479.98	266.82
480.16	227.03
480.34	259.80
480.52	194.26
480.70	285.55
480.88	194.26
481.06	210.65
481.24	217.67
481.41	252.78
481.59	189.58
481.77	243.42
481.95	217.67
482.13	257.46
482.31	241.08
482.49	229.37
482.67	215.33
482.85	248.10
483.03	266.82
483.21	166.18
483.39	212.99
483.57	215.33
483.74	194.26
483.92	269.16
484.10	205.97
484.28	243.42
484.46	294.91
484.64	217.67
484.82	259.80
485.00	266.82
485.18	234.05
485.35	348.74
485.53	271.50
485.71	236.39
485.89	149.79
486.07	271.50
486.25	194.26
486.43	334.70
486.61	285.55
486.78	222.35
486.96	294.91
487.14	238.73
487.32	212.99
487.50	248.10
487.68	285.55
487.85	198.95
488.03	327.68
488.21	245.76
488.39	229.37
488.57	325.33
488.75	241.08
488.92	449.38
489.10	243.42
489.28	262.14
489.46	177.88
489.64	222.35
489.81	231.71
489.99	245.76
490.17	243.42
490.35	346.40
490.53	280.86
490.70	290.23
490.88	287.89
491.06	215.33
491.24	271.50
491.41	278.52
491.59	327.68
491.77	278.52
491.95	241.08
492.13	224.69
492.30	229.37
492.48	208.31
492.66	280.86
492.84	248.10
493.01	224.69
493.19	271.50
493.37	266.82
493.54	266.82
493.72	245.76
493.90	264.48
494.08	215.33
494.25	241.08
494.43	224.69
494.61	306.61
494.79	273.84
494.96	234.05
495.14	271.50
495.32	241.08
495.49	283.20
495.67	348.74
495.85	278.52
496.02	222.35
496.20	278.52
496.38	231.71
496.55	250.44
496.73	290.23
496.91	276.18
497.09	229.37
497.26	290.23
497.44	271.50
497.62	266.82
497.79	236.39
497.97	276.18
498.14	360.44
498.32	229.37
498.50	262.14
498.67	264.48
498.85	280.86
499.03	203.63
499.20	290.23
499.38	236.39
499.56	304.27
499.73	311.29
499.91	262.14
500.08	243.42
500.26	194.26
500.44	290.23
500.61	220.01
500.79	250.44
500.97	292.57
501.14	257.46
501.32	203.63
501.49	224.69
501.67	243.42
501.84	292.57
502.02	208.31
502.20	236.39
502.37	290.23
502.55	262.14
502.72	201.29
502.90	299.59
503.07	273.84
503.25	287.89
503.43	353.42
503.60	250.44
503.78	224.69
503.95	269.16
504.13	250.44
504.30	297.25
504.48	217.67
504.65	252.78
504.83	229.37
505.01	170.86
505.18	201.29
505.36	255.12
505.53	259.80
505.71	224.69
505.88	306.61
506.06	294.91
506.23	301.93
506.41	224.69
506.58	262.14
506.76	259.80
506.93	222.35
507.11	292.57
507.28	198.95
507.46	280.86
507.63	248.10
507.81	273.84
507.98	257.46
508.16	259.80
508.33	299.59
508.50	257.46
508.68	133.41
508.85	224.69
509.03	203.63
509.20	227.03
509.38	313.63
509.55	315.97
509.73	283.20
509.90	327.68
510.08	266.82
510.25	236.39
510.42	269.16
510.60	255.12
510.77	341.72
510.95	290.23
511.12	330.02
511.30	334.70
511.47	376.83
511.64	313.63
511.82	271.50
511.99	203.63
512.17	330.02
512.34	266.82
512.51	306.61
512.69	325.33
512.86	285.55
513.04	255.12
513.21	238.73
513.38	217.67
513.56	187.24
513.73	280.86
513.90	269.16
514.08	292.57
514.25	280.86
514.43	208.31
514.60	259.80
514.77	287.89
514.95	322.99
515.12	290.23
515.29	278.52
515.47	311.29
515.64	222.35
515.81	297.25
515.99	266.82
516.16	278.52
516.33	278.52
516.51	203.63
516.68	287.89
516.85	227.03
517.03	252.78
517.20	276.18
517.37	280.86
517.54	217.67
517.72	250.44
517.89	238.73
518.06	301.93
518.24	315.97
518.41	304.27
518.58	318.31
518.75	376.83
518.93	285.55
519.10	290.23
519.27	292.57
519.45	250.44
519.62	217.67
519.79	243.42
519.96	222.35
520.14	320.65
520.31	297.25
520.48	264.48
520.65	266.82
520.83	344.06
521.00	283.20
521.17	322.99
521.34	355.76
521.52	266.82
521.69	236.39
521.86	271.50
522.03	334.70
522.20	372.15
522.38	283.20
522.55	273.84
522.72	243.42
522.89	271.50
523.07	332.36
523.24	292.57
523.41	250.44
523.58	238.73
523.75	250.44
523.92	290.23
524.10	339.38
524.27	257.46
524.44	301.93
524.61	245.76
524.78	259.80
524.96	292.57
525.13	292.57
525.30	276.18
525.47	287.89
525.64	290.23
525.81	294.91
525.98	304.27
526.16	290.23
526.33	222.35
526.50	255.12
526.67	262.14
526.84	189.58
527.01	212.99
527.18	287.89
527.36	322.99
527.53	217.67
527.70	304.27
527.87	327.68
528.04	332.36
528.21	264.48
528.38	285.55
528.55	346.40
528.72	297.25
528.89	330.02
529.07	229.37
529.24	313.63
529.41	393.21
529.58	344.06
529.75	339.38
529.92	320.65
530.09	327.68
530.26	322.99
530.43	255.12
530.60	285.55
530.77	320.65
530.94	315.97
531.11	250.44
531.28	243.42
531.46	266.82
531.63	285.55
531.80	322.99
531.97	266.82
532.14	299.59
532.31	241.08
532.48	313.63
532.65	355.76
532.82	355.76
532.99	379.17
533.16	320.65
533.33	320.65
533.50	376.83
533.67	402.57
533.84	538.32
534.01	440.02
534.18	400.23
534.35	404.91
534.52	283.20
534.69	320.65
534.86	264.48
535.03	201.29
535.20	283.20
535.37	383.85
535.54	367.46
535.71	238.73
535.88	344.06
536.05	360.44
536.22	292.57
536.38	292.57
536.55	327.68
536.72	362.78
536.89	334.70
537.06	374.49
537.23	334.70
537.40	259.80
537.57	290.23
537.74	362.78
537.91	320.65
538.08	351.08
538.25	348.74
538.42	280.86
538.59	348.74
538.75	325.33
538.92	332.36
539.09	339.38
539.26	397.89
539.43	564.07
539.60	1160.91
539.77	1666.46
539.94	1626.67
540.11	1104.73
540.28	877.70
540.44	660.03
540.61	500.87
540.78	526.62
540.95	447.04
541.12	587.47
541.29	650.67
541.46	664.71
541.62	496.19
541.79	580.45
541.96	568.75
542.13	543.00
542.30	594.50
542.47	613.22
542.63	554.71
542.80	561.73
542.97	643.65
543.14	496.19
543.31	521.94
543.48	528.96
543.64	557.05
543.81	533.64
543.98	458.74
544.15	449.38
544.32	552.37
544.48	528.96
544.65	547.69
544.82	533.64
544.99	468.11
545.16	486.83
545.32	582.79
545.49	844.93
545.66	971.32
545.83	1090.69
546.00	1027.50
546.16	842.59
546.33	662.37
546.50	528.96
546.67	475.13
546.83	461.09
547.00	407.25
547.17	463.43
547.34	409.59
547.50	493.85
547.67	468.11
547.84	423.64
548.00	400.23
548.17	407.25
548.34	461.09
548.51	493.85
548.67	479.81
548.84	348.74
549.01	388.53
549.18	355.76
549.34	404.91
549.51	425.98
549.68	397.89
549.84	404.91
550.01	313.63
550.18	470.45
550.34	442.36
550.51	379.17
550.68	409.59
550.84	330.02
551.01	440.02
551.18	388.53
551.34	339.38
551.51	297.25
551.68	337.04
551.84	367.46
552.01	362.78
552.18	376.83
552.34	278.52
552.51	313.63
552.68	353.42
552.84	320.65
553.01	266.82
553.18	332.36
553.34	276.18
553.51	348.74
553.67	292.57
553.84	306.61
554.01	297.25
554.17	287.89
554.34	322.99
554.51	341.72
554.67	271.50
554.84	313.63
555.00	365.12
555.17	299.59
555.33	276.18
555.50	285.55
555.67	344.06
555.83	290.23
556.00	262.14
556.16	430.66
556.33	315.97
556.50	229.37
556.66	290.23
556.83	264.48
556.99	353.42
557.16	243.42
557.32	334.70
557.49	304.27
557.65	276.18
557.82	248.10
557.98	327.68
558.15	241.08
558.32	234.05
558.48	290.23
558.65	252.78
558.81	262.14
558.98	264.48
559.14	269.16
559.31	236.39
559.47	294.91
559.64	252.78
559.80	313.63
559.97	339.38
560.13	299.59
560.30	217.67
560.46	325.33
560.63	273.84
560.79	297.25
560.96	196.60
561.12	248.10
561.29	276.18
561.45	311.29
561.61	273.84
561.78	353.42
561.94	278.52
562.11	215.33
562.27	273.84
562.44	250.44
562.60	297.25
562.77	205.97
562.93	318.31
563.10	255.12
563.26	278.52
563.42	208.31
563.59	276.18
563.75	248.10
563.92	318.31
564.08	252.78
564.24	332.36
564.41	315.97
564.57	266.82
564.74	287.89
564.90	308.95
565.07	283.20
565.23	285.55
565.39	280.86
565.56	229.37
565.72	299.59
565.88	271.50
566.05	229.37
566.21	327.68
566.38	269.16
566.54	308.95
566.70	313.63
566.87	306.61
567.03	271.50
567.19	259.80
567.36	351.08
567.52	313.63
567.68	276.18
567.85	229.37
568.01	297.25
568.17	210.65
568.34	313.63
568.50	339.38
568.66	339.38
568.83	402.57
568.99	203.63
569.15	313.63
569.32	259.80
569.48	287.89
569.64	264.48
569.81	259.80
569.97	248.10
570.13	250.44
570.30	241.08
570.46	325.33
570.62	222.35
570.78	271.50
570.95	241.08
571.11	294.91
571.27	311.29
571.43	264.48
571.60	273.84
571.76	294.91
571.92	262.14
572.09	264.48
572.25	292.57
572.41	283.20
572.57	266.82
572.74	353.42
572.90	264.48
573.06	301.93
573.22	294.91
573.38	276.18
573.55	215.33
573.71	360.44
573.87	334.70
574.03	212.99
574.20	299.59
574.36	313.63
574.52	437.68
574.68	353.42
574.84	397.89
575.01	341.72
575.17	306.61
575.33	290.23
575.49	290.23
575.65	353.42
575.82	327.68
575.98	571.09
576.14	681.10
576.30	702.16
576.46	683.44
576.62	685.78
576.79	587.47
576.95	486.83
577.11	402.57
577.27	416.62
577.43	404.91
577.59	337.04
577.75	325.33
577.92	341.72
578.08	341.72
578.24	294.91
578.40	353.42
578.56	390.87
578.72	491.51
578.88	486.83
579.04	397.89
579.21	367.46
579.37	362.78
579.53	435.34
579.69	411.93
579.85	383.85
580.01	479.81
580.17	521.94
580.33	477.47
580.49	456.40
580.65	390.87
580.82	442.36
580.98	404.91
581.14	355.76
581.30	388.53
581.46	547.69
581.62	601.52
581.78	741.95
581.94	737.27
582.10	594.50
582.26	547.69
582.42	430.66
582.58	519.60
582.74	482.15
582.90	533.64
583.06	540.66
583.22	634.29
583.38	643.65
583.54	547.69
583.70	723.23
583.86	706.84
584.02	777.06
584.18	992.39
584.34	1303.68
584.50	3286.11
584.66	24198.80
584.82	56678.41
584.98	65324.35
585.14	62454.86
585.30	48538.03
585.46	29649.91
585.62	18171.92
585.78	8252.73
585.94	3370.37
586.10	1715.61
586.26	1165.59
586.42	947.92
586.58	795.78
586.74	716.20
586.90	737.27
587.06	732.59
587.22	732.59
587.38	676.41
587.54	1364.53
587.70	3684.00
587.86	5863.04
588.02	6443.49
588.18	4517.23
588.34	2958.44
588.49	1975.41
588.65	1336.45
588.81	697.48
588.97	433.00
589.13	369.80
589.29	444.70
589.45	409.59
589.61	416.62
589.77	461.09
589.93	517.26
590.08	538.32
590.24	512.58
590.40	503.22
590.56	489.17
590.72	440.02
590.88	411.93
591.04	386.19
591.20	397.89
591.35	521.94
591.51	425.98
591.67	407.25
591.83	393.21
591.99	451.72
592.15	383.85
592.31	454.06
592.46	339.38
592.62	383.85
592.78	404.91
592.94	351.08
593.10	416.62
593.26	407.25
593.41	461.09
593.57	496.19
593.73	699.82
593.89	3080.14
594.05	7625.47
594.20	11002.86
594.36	10284.31
594.52	6967.77
594.68	4369.78
594.84	2890.56
594.99	1694.55
595.15	856.64
595.31	500.87
595.47	447.04
595.62	393.21
595.78	470.45
595.94	423.64
596.10	430.66
596.25	440.02
596.41	416.62
596.57	374.49
596.73	386.19
596.88	589.82
597.04	1490.92
597.20	2401.39
597.36	2839.07
597.51	2132.23
597.67	1500.28
597.83	1118.78
597.99	653.01
598.14	526.62
598.30	493.85
598.46	393.21
598.61	468.11
598.77	461.09
598.93	468.11
599.09	287.89
599.24	320.65
599.40	358.10
599.56	444.70
599.71	365.12
599.87	248.10
600.03	337.04
600.18	315.97
600.34	290.23
600.50	278.52
600.65	346.40
600.81	362.78
600.97	259.80
601.12	294.91
601.28	315.97
601.44	231.71
601.59	297.25
601.75	360.44
601.91	379.17
602.06	376.83
602.22	402.57
602.37	802.80
602.53	1858.39
602.69	2602.68
602.84	2846.09
603.00	2024.56
603.16	1392.62
603.31	1104.73
603.47	737.27
603.62	475.13
603.78	365.12
603.94	299.59
604.09	292.57
604.25	325.33
604.40	301.93
604.56	337.04
604.71	318.31
604.87	301.93
605.03	301.93
605.18	355.76
605.34	334.70
605.49	294.91
605.65	397.89
605.80	351.08
605.96	304.27
606.12	351.08
606.27	386.19
606.43	372.15
606.58	425.98
606.74	997.07
606.89	3499.10
607.05	6960.75
607.20	9362.14
607.36	7786.96
607.51	5212.37
607.67	3520.17
607.82	2356.92
607.98	1409.00
608.13	755.99
608.29	528.96
608.44	578.11
608.60	477.47
608.75	653.01
608.91	1352.83
609.06	5612.60
609.22	12531.23
609.37	16315.87
609.53	14183.65
609.68	9647.69
609.84	6413.07
609.99	4414.25
610.15	2427.14
610.30	1291.98
610.46	954.94
610.61	1029.84
610.76	997.07
610.92	1221.76
611.07	1235.80
611.23	1303.68
611.38	1160.91
611.54	1032.18
611.69	947.92
611.84	891.74
612.00	732.59
612.15	814.51
612.31	800.46
612.46	851.96
612.62	1004.09
612.77	924.51
612.92	901.11
613.08	821.53
613.23	788.76
613.39	774.72
613.54	1233.46
613.69	5174.92
613.85	15246.25
614.00	24556.90
614.15	25575.03
614.31	18176.60
614.46	11999.93
614.62	8081.87
614.77	4938.53
614.92	2284.36
615.08	1219.42
615.23	770.04
615.38	662.37
615.54	631.94
615.69	1001.75
615.84	3023.97
616.00	5376.21
616.15	6715.00
616.30	5533.03
616.46	3831.46
616.61	2614.38
616.76	1774.13
616.92	999.41
617.07	585.13
617.22	510.24
617.37	400.23
617.53	463.43
617.68	444.70
617.83	430.66
617.99	468.11
618.14	484.49
618.29	388.53
618.45	351.08
618.60	341.72
618.75	308.95
618.90	337.04
619.06	292.57
619.21	367.46
619.36	325.33
619.51	327.68
619.67	318.31
619.82	294.91
619.97	404.91
620.12	299.59
620.28	334.70
620.43	337.04
620.58	360.44
620.73	397.89
620.89	355.76
621.04	587.47
621.19	1764.76
621.34	3241.64
621.49	4037.42
621.65	3691.02
621.80	2422.45
621.95	1720.29
622.10	1366.87
622.25	861.32
622.41	489.17
622.56	435.34
622.71	327.68
622.86	386.19
623.01	304.27
623.16	276.18
623.32	374.49
623.47	330.02
623.62	320.65
623.77	372.15
623.92	339.38
624.07	330.02
624.23	280.86
624.38	346.40
624.53	313.63
624.68	433.00
624.83	414.27
624.98	311.29
625.13	292.57
625.29	322.99
625.44	416.62
625.59	318.31
625.74	435.34
625.89	603.86
626.04	2558.21
626.19	7283.75
626.34	12114.61
626.49	13198.28
626.65	9600.88
626.80	6712.66
626.95	4606.17
627.10	2801.62
627.25	1486.24
627.40	821.53
627.55	589.82
627.70	437.68
627.85	447.04
628.00	332.36
628.15	313.63
628.30	332.36
628.45	255.12
628.60	346.40
628.76	313.63
628.91	315.97
629.06	386.19
629.21	346.40
629.36	311.29
629.51	306.61
629.66	407.25
629.81	496.19
629.96	1490.92
630.11	2677.57
630.26	3501.44
630.41	3166.74
630.56	2314.79
630.71	1603.27
630.86	1263.89
631.01	828.55
631.16	552.37
631.31	489.17
631.46	346.40
631.61	313.63
631.76	353.42
631.91	313.63
632.06	374.49
632.21	454.06
632.36	407.25
632.51	367.46
632.66	451.72
632.81	1266.23
632.96	4063.17
633.10	7370.35
633.25	9015.74
633.40	7314.17
633.55	5228.76
633.70	3466.33
633.85	2420.11
634.00	1238.14
634.15	713.86
634.30	479.81
634.45	327.68
634.60	301.93
634.75	360.44
634.90	280.86
635.05	381.51
635.19	285.55
635.34	315.97
635.49	360.44
635.64	276.18
635.79	259.80
635.94	308.95
636.09	383.85
636.24	330.02
636.39	285.55
636.53	388.53
636.68	388.53
636.83	339.38
636.98	430.66
637.13	409.59
637.28	355.76
637.43	505.56
637.57	727.91
637.72	3349.31
637.87	9717.90
638.02	15304.76
638.17	16547.59
638.32	12077.16
638.46	8418.91
638.61	5619.63
638.76	3480.38
638.91	1783.49
639.06	980.68
639.20	641.31
639.35	688.12
639.50	968.98
639.65	5018.11
639.80	14764.10
639.94	23679.20
640.09	25846.54
640.24	19314.10
640.39	12975.93
640.54	8622.53
640.68	5146.84
640.83	2497.35
640.98	1214.74
641.13	629.60
641.27	519.60
641.42	404.91
641.57	409.59
641.72	393.21
641.86	341.72
642.01	388.53
642.16	308.95
642.31	308.95
642.45	301.93
642.60	252.78
642.75	318.31
642.90	294.91
643.04	297.25
643.19	299.59
643.34	224.69
643.48	313.63
643.63	222.35
643.78	313.63
643.93	313.63
644.07	304.27
644.22	255.12
644.37	241.08
644.51	306.61
644.66	341.72
644.81	250.44
644.95	301.93
645.10	257.46
645.25	222.35
645.39	285.55
645.54	341.72
645.69	285.55
645.83	212.99
645.98	285.55
646.13	280.86
646.27	264.48
646.42	280.86
646.57	273.84
646.71	271.50
646.86	241.08
647.00	273.84
647.15	320.65
647.30	299.59
647.44	215.33
647.59	248.10
647.74	224.69
647.88	229.37
648.03	208.31
648.17	266.82
648.32	264.48
648.47	283.20
648.61	262.14
648.76	304.27
648.90	264.48
649.05	287.89
649.20	311.29
649.34	264.48
649.49	315.97
649.63	339.38
649.78	339.38
649.92	564.07
650.07	2008.18
650.21	6333.49
650.36	11246.27
650.51	13259.13
650.65	10621.35
650.80	7468.65
650.94	4957.25
651.09	3227.60
651.23	1659.44
651.38	959.62
651.52	557.05
651.67	393.21
651.81	304.27
651.96	320.65
652.10	322.99
652.25	330.02
652.39	238.73
652.54	334.70
652.68	648.33
652.83	2069.03
652.97	3702.73
653.12	4863.63
653.26	4135.73
653.41	2972.48
653.55	2307.77
653.70	1341.13
653.84	880.04
653.99	498.53
654.13	348.74
654.27	290.23
654.42	236.39
654.56	285.55
654.71	245.76
654.85	241.08
655.00	299.59
655.14	257.46
655.29	212.99
655.43	337.04
655.57	203.63
655.72	194.26
655.86	273.84
656.01	287.89
656.15	276.18
656.30	250.44
656.44	245.76
656.58	248.10
656.73	299.59
656.87	304.27
657.01	276.18
657.16	241.08
657.30	264.48
657.45	271.50
657.59	245.76
657.73	205.97
657.88	212.99
658.02	297.25
658.16	266.82
658.31	255.12
658.45	311.29
658.60	252.78
658.74	248.10
658.88	222.35
659.03	290.23
659.17	355.76
659.31	873.02
659.46	2801.62
659.60	5270.89
659.74	6654.14
659.89	5781.12
660.03	4241.05
660.17	2928.01
660.32	1820.94
660.46	1109.41
660.60	634.29
660.74	437.68
660.89	414.27
661.03	290.23
661.17	325.33
661.32	220.01
661.46	189.58
661.60	238.73
661.74	194.26
661.89	231.71
662.03	222.35
662.17	217.67
662.31	208.31
662.46	259.80
662.60	262.14
662.74	255.12
662.88	205.97
663.03	234.05
663.17	208.31
663.31	210.65
663.45	194.26
663.60	250.44
663.74	227.03
663.88	231.71
664.02	259.80
664.17	212.99
664.31	205.97
664.45	252.78
664.59	212.99
664.73	224.69
664.88	313.63
665.02	234.05
665.16	259.80
665.30	278.52
665.44	142.77
665.59	234.05
665.73	231.71
665.87	191.92
666.01	257.46
666.15	243.42
666.29	198.95
666.44	313.63
666.58	348.74
666.72	271.50
666.86	259.80
667.00	330.02
667.14	428.32
667.28	1834.98
667.43	5486.22
667.57	9355.12
667.71	11426.50
667.85	9921.53
667.99	7297.79
668.13	4683.41
668.27	2712.68
668.41	1483.90
668.56	873.02
668.70	557.05
668.84	444.70
668.98	332.36
669.12	276.18
669.26	269.16
669.40	301.93
669.54	280.86
669.68	299.59
669.82	292.57
669.96	255.12
670.10	255.12
670.25	255.12
670.39	280.86
670.53	234.05
670.67	322.99
670.81	210.65
670.95	287.89
671.09	500.87
671.23	2083.08
671.37	4505.53
671.51	6722.02
671.65	7131.61
671.79	5802.19
671.93	3922.74
672.07	2495.01
672.21	1320.06
672.35	802.80
672.49	538.32
672.63	477.47
672.77	320.65
672.91	346.40
673.05	252.78
673.19	212.99
673.33	325.33
673.47	264.48
673.61	220.01
673.75	320.65
673.89	217.67
674.03	236.39
674.17	248.10
674.31	215.33
674.45	266.82
674.59	182.56
674.73	231.71
674.87	311.29
675.01	313.63
675.15	269.16
675.29	231.71
675.43	290.23
675.56	276.18
675.70	311.29
675.84	283.20
675.98	227.03
676.12	191.92
676.26	212.99
676.40	212.99
676.54	180.22
676.68	231.71
676.82	243.42
676.96	241.08
677.10	231.71
677.23	212.99
677.37	205.97
677.51	194.26
677.65	252.78
677.79	175.54
677.93	212.99
678.07	191.92
678.21	203.63
678.34	173.20
678.48	182.56
678.62	210.65
678.76	173.20
678.90	280.86
679.04	182.56
679.18	229.37
679.31	138.09
679.45	149.79
679.59	182.56
679.73	208.31
679.87	126.39
680.00	170.86
680.14	266.82
680.28	234.05
680.42	149.79
680.56	198.95
680.70	191.92
680.83	245.76
680.97	194.26
681.11	191.92
681.25	212.99
681.39	255.12
681.52	250.44
681.66	187.24
681.80	177.88
681.94	217.67
682.07	215.33
682.21	131.07
682.35	142.77
682.49	189.58
682.62	196.60
682.76	142.77
682.90	245.76
683.04	177.88
683.17	215.33
683.31	163.84
683.45	229.37
683.59	210.65
683.72	227.03
683.86	262.14
684.00	210.65
684.13	259.80
684.27	241.08
684.41	170.86
684.55	163.84
684.68	220.01
684.82	294.91
684.96	184.90
685.09	126.39
685.23	182.56
685.37	84.26
685.50	112.35
685.64	189.58
685.78	248.10
685.91	201.29
686.05	266.82
686.19	252.78
686.32	88.94
686.46	166.18
686.60	124.05
686.73	210.65
686.87	234.05
687.01	269.16
687.14	259.80
687.28	187.24
687.42	266.82
687.55	203.63
687.69	224.69
687.82	191.92
687.96	203.63
688.10	215.33
688.23	152.13
688.37	173.20
688.50	196.60
688.64	215.33
688.78	222.35
688.91	159.16
689.05	257.46
689.18	154.48
689.32	145.11
689.46	257.46
689.59	229.37
689.73	231.71
689.86	205.97
690.00	187.24
690.13	149.79
690.27	168.52
690.41	149.79
690.54	283.20
690.68	149.79
690.81	145.11
690.95	173.20
691.08	332.36
691.22	126.39
691.35	163.84
691.49	194.26
691.62	173.20
691.76	187.24
691.89	224.69
692.03	191.92
692.16	259.80
692.30	262.14
692.43	599.18
692.57	2207.13
692.70	3791.67
692.84	5001.72
692.97	4688.09
693.11	3258.03
693.24	2429.48
693.38	1701.57
693.51	1198.35
693.65	830.89
693.78	538.32
693.92	397.89
694.05	330.02
694.19	194.26
694.32	222.35
694.45	194.26
694.59	187.24
694.72	131.07
694.86	149.79
694.99	236.39
695.13	168.52
695.26	229.37
695.39	175.54
695.53	276.18
695.66	266.82
695.80	198.95
695.93	180.22
696.07	262.14
696.20	334.70
696.33	433.00
696.47	500.87
696.60	416.62
696.73	444.70
696.87	344.06
697.00	348.74
697.14	255.12
697.27	220.01
697.40	299.59
697.54	187.24
697.67	187.24
697.80	243.42
697.94	187.24
698.07	177.88
698.21	107.66
698.34	227.03
698.47	175.54
698.61	121.71
698.74	175.54
698.87	234.05
699.01	255.12
699.14	154.48
699.27	215.33
699.40	292.57
699.54	243.42
699.67	208.31
699.80	159.16
699.94	140.43
700.07	177.88
700.20	191.92
700.34	175.54
700.47	168.52
700.60	191.92
700.73	191.92
700.87	210.65
701.00	166.18
701.13	187.24
701.26	231.71
701.40	210.65
701.53	159.16
701.66	149.79
701.79	182.56
701.93	241.08
702.06	346.40
702.19	442.36
702.32	493.85
702.46	514.92
702.59	454.06
702.72	884.72
702.85	2913.97
702.99	6127.52
703.12	8744.24
703.25	9488.53
703.38	8163.79
703.51	6754.79
703.65	5090.67
703.78	3590.38
703.91	2324.15
704.04	1469.86
704.17	922.17
704.31	589.82
704.44	449.38
704.57	351.08
704.70	227.03
704.83	245.76
704.96	217.67
705.10	283.20
705.23	229.37
>>>>>End Processed Spectral Data<<<<<
