SpectraSuite Data File
++++++++++++++++++++++++++++++++++++
Date: Fri Oct 04 11:33:57 GMT-05:00 2013
User: price-jones
Dark Spectrum Present: No
Reference Spectrum Present: No
Number of Sampled Component Spectra: 1
Spectrometers: USB2+H05261
Integration Time (usec): 100000 (USB2+H05261)
Spectra Averaged: 1 (USB2+H05261)
Boxcar Smoothing: 0 (USB2+H05261)
Correct for Electrical Dark: No (USB2+H05261)
Strobe/Lamp Enabled: No (USB2+H05261)
Correct for Detector Non-linearity: No (USB2+H05261)
Correct for Stray Light: No (USB2+H05261)
Number of Pixels in Processed Spectrum: 2048
>>>>>Begin Processed Spectral Data<<<<<
365.73	74.90
365.92	74.90
366.12	74.90
366.32	0.00
366.52	0.00
366.72	32.77
366.91	0.00
367.11	0.00
367.31	0.00
367.51	0.00
367.70	60.85
367.90	0.00
368.10	2.34
368.30	0.00
368.49	0.00
368.69	7.02
368.89	0.00
369.09	0.00
369.28	0.00
369.48	0.00
369.68	14.04
369.87	0.00
370.07	95.96
370.27	65.54
370.47	93.62
370.66	175.54
370.86	65.54
371.06	117.03
371.25	100.64
371.45	30.43
371.65	121.71
371.84	191.92
372.04	98.30
372.24	74.90
372.44	147.45
372.63	140.43
372.83	180.22
373.03	105.32
373.22	215.33
373.42	105.32
373.62	98.30
373.81	98.30
374.01	177.88
374.21	147.45
374.40	135.75
374.60	220.01
374.79	84.26
374.99	112.35
375.19	100.64
375.38	147.45
375.58	198.95
375.78	138.09
375.97	180.22
376.17	234.05
376.37	105.32
376.56	133.41
376.76	119.37
376.95	175.54
377.15	107.66
377.35	161.50
377.54	184.90
377.74	159.16
377.93	110.01
378.13	152.13
378.33	154.48
378.52	163.84
378.72	142.77
378.91	93.62
379.11	86.60
379.31	95.96
379.50	100.64
379.70	138.09
379.89	184.90
380.09	168.52
380.28	72.56
380.48	159.16
380.68	81.92
380.87	72.56
381.07	138.09
381.26	191.92
381.46	170.86
381.65	149.79
381.85	93.62
382.04	126.39
382.24	156.82
382.43	182.56
382.63	145.11
382.83	166.18
383.02	149.79
383.22	208.31
383.41	70.22
383.61	175.54
383.80	142.77
384.00	124.05
384.19	140.43
384.39	184.90
384.58	110.01
384.78	145.11
384.97	95.96
385.17	135.75
385.36	102.98
385.56	121.71
385.75	152.13
385.95	170.86
386.14	168.52
386.34	149.79
386.53	140.43
386.72	119.37
386.92	220.01
387.11	212.99
387.31	210.65
387.50	135.75
387.70	140.43
387.89	147.45
388.09	163.84
388.28	46.81
388.48	145.11
388.67	154.48
388.86	72.56
389.06	168.52
389.25	217.67
389.45	191.92
389.64	117.03
389.84	159.16
390.03	180.22
390.22	124.05
390.42	117.03
390.61	88.94
390.81	86.60
391.00	121.71
391.19	201.29
391.39	154.48
391.58	110.01
391.78	126.39
391.97	107.66
392.16	65.54
392.36	168.52
392.55	88.94
392.75	121.71
392.94	149.79
393.13	149.79
393.33	156.82
393.52	147.45
393.71	142.77
393.91	147.45
394.10	100.64
394.29	203.63
394.49	149.79
394.68	191.92
394.88	81.92
395.07	126.39
395.26	159.16
395.46	93.62
395.65	191.92
395.84	126.39
396.04	212.99
396.23	110.01
396.42	124.05
396.62	121.71
396.81	131.07
397.00	168.52
397.19	114.69
397.39	152.13
397.58	198.95
397.77	138.09
397.97	110.01
398.16	173.20
398.35	131.07
398.55	201.29
398.74	149.79
398.93	168.52
399.12	166.18
399.32	161.50
399.51	100.64
399.70	128.73
399.90	138.09
400.09	91.28
400.28	121.71
400.47	212.99
400.67	117.03
400.86	189.58
401.05	231.71
401.24	184.90
401.44	117.03
401.63	173.20
401.82	177.88
402.01	91.28
402.21	161.50
402.40	145.11
402.59	203.63
402.78	131.07
402.97	149.79
403.17	149.79
403.36	156.82
403.55	210.65
403.74	152.13
403.93	140.43
404.13	198.95
404.32	201.29
404.51	255.12
404.70	184.90
404.89	121.71
405.09	182.56
405.28	110.01
405.47	182.56
405.66	152.13
405.85	140.43
406.05	114.69
406.24	173.20
406.43	156.82
406.62	110.01
406.81	180.22
407.00	159.16
407.20	229.37
407.39	201.29
407.58	177.88
407.77	159.16
407.96	215.33
408.15	189.58
408.34	173.20
408.54	201.29
408.73	145.11
408.92	217.67
409.11	182.56
409.30	173.20
409.49	154.48
409.68	180.22
409.87	112.35
410.07	173.20
410.26	100.64
410.45	65.54
410.64	205.97
410.83	140.43
411.02	70.22
411.21	177.88
411.40	182.56
411.59	142.77
411.78	140.43
411.98	198.95
412.17	119.37
412.36	187.24
412.55	149.79
412.74	149.79
412.93	276.18
413.12	145.11
413.31	210.65
413.50	173.20
413.69	166.18
413.88	210.65
414.07	180.22
414.26	105.32
414.45	168.52
414.64	198.95
414.83	107.66
415.02	163.84
415.22	234.05
415.41	255.12
415.60	149.79
415.79	177.88
415.98	147.45
416.17	117.03
416.36	227.03
416.55	229.37
416.74	201.29
416.93	168.52
417.12	180.22
417.31	170.86
417.50	191.92
417.69	241.08
417.88	121.71
418.07	114.69
418.26	161.50
418.45	208.31
418.64	269.16
418.83	243.42
419.02	215.33
419.21	168.52
419.39	161.50
419.58	255.12
419.77	210.65
419.96	201.29
420.15	175.54
420.34	201.29
420.53	88.94
420.72	149.79
420.91	166.18
421.10	142.77
421.29	201.29
421.48	191.92
421.67	189.58
421.86	149.79
422.05	229.37
422.24	182.56
422.43	133.41
422.61	114.69
422.80	203.63
422.99	262.14
423.18	102.98
423.37	184.90
423.56	133.41
423.75	173.20
423.94	234.05
424.13	86.60
424.32	170.86
424.50	208.31
424.69	173.20
424.88	173.20
425.07	117.03
425.26	238.73
425.45	208.31
425.64	229.37
425.83	161.50
426.01	163.84
426.20	212.99
426.39	173.20
426.58	180.22
426.77	128.73
426.96	184.90
427.15	112.35
427.33	154.48
427.52	208.31
427.71	145.11
427.90	224.69
428.09	142.77
428.28	140.43
428.46	175.54
428.65	217.67
428.84	180.22
429.03	248.10
429.22	187.24
429.40	147.45
429.59	203.63
429.78	187.24
429.97	182.56
430.16	93.62
430.34	126.39
430.53	189.58
430.72	205.97
430.91	147.45
431.10	173.20
431.28	161.50
431.47	243.42
431.66	198.95
431.85	201.29
432.03	182.56
432.22	210.65
432.41	266.82
432.60	264.48
432.79	212.99
432.97	278.52
433.16	311.29
433.35	205.97
433.54	280.86
433.72	236.39
433.91	184.90
434.10	147.45
434.28	180.22
434.47	196.60
434.66	212.99
434.85	238.73
435.03	252.78
435.22	404.91
435.41	400.23
435.59	344.06
435.78	348.74
435.97	215.33
436.16	255.12
436.34	159.16
436.53	170.86
436.72	163.84
436.90	142.77
437.09	102.98
437.28	212.99
437.46	173.20
437.65	184.90
437.84	187.24
438.02	121.71
438.21	224.69
438.40	177.88
438.58	222.35
438.77	145.11
438.96	180.22
439.14	145.11
439.33	212.99
439.52	194.26
439.70	238.73
439.89	173.20
440.08	264.48
440.26	191.92
440.45	227.03
440.63	189.58
440.82	168.52
441.01	159.16
441.19	231.71
441.38	238.73
441.57	208.31
441.75	131.07
441.94	234.05
442.12	184.90
442.31	145.11
442.50	114.69
442.68	194.26
442.87	229.37
443.05	201.29
443.24	159.16
443.43	163.84
443.61	280.86
443.80	121.71
443.98	105.32
444.17	147.45
444.35	154.48
444.54	112.35
444.73	205.97
444.91	259.80
445.10	154.48
445.28	154.48
445.47	229.37
445.65	189.58
445.84	217.67
446.02	163.84
446.21	201.29
446.39	191.92
446.58	166.18
446.77	170.86
446.95	142.77
447.14	236.39
447.32	166.18
447.51	245.76
447.69	177.88
447.88	154.48
448.06	217.67
448.25	175.54
448.43	152.13
448.62	184.90
448.80	187.24
448.99	271.50
449.17	163.84
449.36	154.48
449.54	191.92
449.73	149.79
449.91	250.44
450.10	184.90
450.28	210.65
450.46	255.12
450.65	182.56
450.83	203.63
451.02	220.01
451.20	201.29
451.39	173.20
451.57	222.35
451.76	220.01
451.94	182.56
452.13	191.92
452.31	180.22
452.49	257.46
452.68	203.63
452.86	156.82
453.05	231.71
453.23	217.67
453.42	156.82
453.60	112.35
453.78	168.52
453.97	229.37
454.15	140.43
454.34	177.88
454.52	117.03
454.70	234.05
454.89	231.71
455.07	182.56
455.26	166.18
455.44	170.86
455.62	198.95
455.81	215.33
455.99	229.37
456.17	170.86
456.36	201.29
456.54	159.16
456.73	166.18
456.91	154.48
457.09	187.24
457.28	250.44
457.46	166.18
457.64	210.65
457.83	201.29
458.01	161.50
458.19	140.43
458.38	236.39
458.56	187.24
458.74	201.29
458.93	177.88
459.11	173.20
459.29	173.20
459.48	184.90
459.66	212.99
459.84	205.97
460.03	222.35
460.21	212.99
460.39	241.08
460.57	196.60
460.76	203.63
460.94	187.24
461.12	184.90
461.31	259.80
461.49	138.09
461.67	248.10
461.85	163.84
462.04	124.05
462.22	636.63
462.40	180.22
462.59	191.92
462.77	210.65
462.95	210.65
463.13	229.37
463.32	203.63
463.50	287.89
463.68	198.95
463.86	191.92
464.05	180.22
464.23	222.35
464.41	173.20
464.59	217.67
464.78	248.10
464.96	149.79
465.14	278.52
465.32	159.16
465.50	208.31
465.69	161.50
465.87	173.20
466.05	259.80
466.23	154.48
466.41	131.07
466.60	189.58
466.78	203.63
466.96	170.86
467.14	161.50
467.32	173.20
467.51	220.01
467.69	203.63
467.87	175.54
468.05	145.11
468.23	198.95
468.41	215.33
468.60	234.05
468.78	210.65
468.96	175.54
469.14	222.35
469.32	135.75
469.50	105.32
469.69	210.65
469.87	191.92
470.05	131.07
470.23	187.24
470.41	196.60
470.59	203.63
470.77	238.73
470.95	212.99
471.14	177.88
471.32	238.73
471.50	224.69
471.68	220.01
471.86	212.99
472.04	163.84
472.22	217.67
472.40	152.13
472.58	236.39
472.77	215.33
472.95	163.84
473.13	220.01
473.31	140.43
473.49	208.31
473.67	138.09
473.85	222.35
474.03	152.13
474.21	170.86
474.39	255.12
474.57	273.84
474.75	217.67
474.93	220.01
475.12	184.90
475.30	262.14
475.48	184.90
475.66	208.31
475.84	252.78
476.02	196.60
476.20	187.24
476.38	243.42
476.56	262.14
476.74	203.63
476.92	191.92
477.10	180.22
477.28	187.24
477.46	189.58
477.64	264.48
477.82	198.95
478.00	152.13
478.18	201.29
478.36	170.86
478.54	205.97
478.72	238.73
478.90	128.73
479.08	210.65
479.26	189.58
479.44	201.29
479.62	180.22
479.80	149.79
479.98	241.08
480.16	250.44
480.34	238.73
480.52	212.99
480.70	222.35
480.88	159.16
481.06	191.92
481.24	170.86
481.41	191.92
481.59	259.80
481.77	255.12
481.95	248.10
482.13	297.25
482.31	259.80
482.49	208.31
482.67	184.90
482.85	175.54
483.03	220.01
483.21	241.08
483.39	245.76
483.57	201.29
483.74	259.80
483.92	187.24
484.10	152.13
484.28	229.37
484.46	294.91
484.64	231.71
484.82	243.42
485.00	285.55
485.18	163.84
485.35	191.92
485.53	205.97
485.71	271.50
485.89	205.97
486.07	271.50
486.25	299.59
486.43	273.84
486.61	241.08
486.78	205.97
486.96	222.35
487.14	224.69
487.32	227.03
487.50	241.08
487.68	255.12
487.85	222.35
488.03	245.76
488.21	229.37
488.39	290.23
488.57	301.93
488.75	234.05
488.92	477.47
489.10	271.50
489.28	285.55
489.46	285.55
489.64	220.01
489.81	264.48
489.99	236.39
490.17	229.37
490.35	320.65
490.53	262.14
490.70	269.16
490.88	224.69
491.06	215.33
491.24	217.67
491.41	245.76
491.59	290.23
491.77	301.93
491.95	271.50
492.13	187.24
492.30	344.06
492.48	290.23
492.66	287.89
492.84	159.16
493.01	257.46
493.19	292.57
493.37	220.01
493.54	306.61
493.72	245.76
493.90	187.24
494.08	205.97
494.25	308.95
494.43	297.25
494.61	245.76
494.79	276.18
494.96	252.78
495.14	304.27
495.32	262.14
495.49	191.92
495.67	292.57
495.85	229.37
496.02	236.39
496.20	278.52
496.38	259.80
496.55	191.92
496.73	166.18
496.91	259.80
497.09	241.08
497.26	210.65
497.44	285.55
497.62	182.56
497.79	217.67
497.97	266.82
498.14	227.03
498.32	273.84
498.50	234.05
498.67	245.76
498.85	262.14
499.03	145.11
499.20	205.97
499.38	220.01
499.56	145.11
499.73	280.86
499.91	236.39
500.08	236.39
500.26	318.31
500.44	266.82
500.61	224.69
500.79	297.25
500.97	259.80
501.14	311.29
501.32	187.24
501.49	259.80
501.67	231.71
501.84	236.39
502.02	308.95
502.20	250.44
502.37	271.50
502.55	187.24
502.72	231.71
502.90	255.12
503.07	297.25
503.25	301.93
503.43	243.42
503.60	238.73
503.78	248.10
503.95	271.50
504.13	227.03
504.30	241.08
504.48	334.70
504.65	269.16
504.83	308.95
505.01	245.76
505.18	245.76
505.36	255.12
505.53	229.37
505.71	271.50
505.88	273.84
506.06	301.93
506.23	337.04
506.41	250.44
506.58	252.78
506.76	245.76
506.93	203.63
507.11	217.67
507.28	252.78
507.46	271.50
507.63	266.82
507.81	229.37
507.98	308.95
508.16	227.03
508.33	231.71
508.50	222.35
508.68	194.26
508.85	255.12
509.03	222.35
509.20	224.69
509.38	203.63
509.55	262.14
509.73	259.80
509.90	250.44
510.08	133.41
510.25	259.80
510.42	231.71
510.60	311.29
510.77	325.33
510.95	299.59
511.12	325.33
511.30	266.82
511.47	159.16
511.64	271.50
511.82	285.55
511.99	248.10
512.17	208.31
512.34	208.31
512.51	287.89
512.69	215.33
512.86	306.61
513.04	243.42
513.21	299.59
513.38	243.42
513.56	248.10
513.73	257.46
513.90	308.95
514.08	273.84
514.25	248.10
514.43	280.86
514.60	198.95
514.77	285.55
514.95	259.80
515.12	278.52
515.29	285.55
515.47	278.52
515.64	250.44
515.81	257.46
515.99	320.65
516.16	315.97
516.33	320.65
516.51	210.65
516.68	248.10
516.85	308.95
517.03	276.18
517.20	276.18
517.37	250.44
517.54	299.59
517.72	245.76
517.89	252.78
518.06	231.71
518.24	278.52
518.41	318.31
518.58	271.50
518.75	311.29
518.93	229.37
519.10	287.89
519.27	299.59
519.45	287.89
519.62	187.24
519.79	217.67
519.96	250.44
520.14	304.27
520.31	332.36
520.48	170.86
520.65	259.80
520.83	299.59
521.00	264.48
521.17	290.23
521.34	257.46
521.52	271.50
521.69	278.52
521.86	301.93
522.03	337.04
522.20	327.68
522.38	257.46
522.55	322.99
522.72	266.82
522.89	322.99
523.07	257.46
523.24	306.61
523.41	250.44
523.58	248.10
523.75	243.42
523.92	264.48
524.10	257.46
524.27	301.93
524.44	252.78
524.61	292.57
524.78	208.31
524.96	327.68
525.13	278.52
525.30	374.49
525.47	325.33
525.64	315.97
525.81	252.78
525.98	205.97
526.16	266.82
526.33	208.31
526.50	248.10
526.67	236.39
526.84	259.80
527.01	278.52
527.18	259.80
527.36	304.27
527.53	220.01
527.70	208.31
527.87	262.14
528.04	388.53
528.21	241.08
528.38	344.06
528.55	313.63
528.72	346.40
528.89	348.74
529.07	276.18
529.24	304.27
529.41	313.63
529.58	255.12
529.75	280.86
529.92	327.68
530.09	318.31
530.26	238.73
530.43	229.37
530.60	276.18
530.77	287.89
530.94	269.16
531.11	290.23
531.28	327.68
531.46	250.44
531.63	266.82
531.80	238.73
531.97	194.26
532.14	273.84
532.31	241.08
532.48	334.70
532.65	360.44
532.82	386.19
532.99	334.70
533.16	320.65
533.33	322.99
533.50	257.46
533.67	271.50
533.84	346.40
534.01	339.38
534.18	362.78
534.35	325.33
534.52	294.91
534.69	313.63
534.86	255.12
535.03	297.25
535.20	276.18
535.37	362.78
535.54	252.78
535.71	257.46
535.88	313.63
536.05	297.25
536.22	304.27
536.38	280.86
536.55	290.23
536.72	369.80
536.89	266.82
537.06	287.89
537.23	266.82
537.40	306.61
537.57	217.67
537.74	304.27
537.91	290.23
538.08	308.95
538.25	367.46
538.42	365.12
538.59	339.38
538.75	294.91
538.92	306.61
539.09	353.42
539.26	313.63
539.43	489.17
539.60	739.61
539.77	1172.61
539.94	1001.75
540.11	758.33
540.28	690.46
540.44	503.22
540.61	493.85
540.78	435.34
540.95	510.24
541.12	477.47
541.29	554.71
541.46	557.05
541.62	528.96
541.79	554.71
541.96	505.56
542.13	505.56
542.30	477.47
542.47	428.32
542.63	456.40
542.80	470.45
542.97	449.38
543.14	472.79
543.31	491.51
543.48	451.72
543.64	390.87
543.81	543.00
543.98	559.39
544.15	498.53
544.32	458.74
544.48	528.96
544.65	475.13
544.82	430.66
544.99	430.66
545.16	484.49
545.32	444.70
545.49	758.33
545.66	887.06
545.83	983.02
546.00	847.27
546.16	662.37
546.33	503.22
546.50	465.77
546.67	496.19
546.83	444.70
547.00	360.44
547.17	383.85
547.34	379.17
547.50	372.15
547.67	379.17
547.84	393.21
548.00	458.74
548.17	456.40
548.34	388.53
548.51	372.15
548.67	332.36
548.84	421.30
549.01	346.40
549.18	393.21
549.34	358.10
549.51	348.74
549.68	383.85
549.84	351.08
550.01	273.84
550.18	482.15
550.34	500.87
550.51	301.93
550.68	339.38
550.84	379.17
551.01	395.55
551.18	374.49
551.34	325.33
551.51	334.70
551.68	297.25
551.84	341.72
552.01	393.21
552.18	276.18
552.34	341.72
552.51	273.84
552.68	306.61
552.84	304.27
553.01	334.70
553.18	337.04
553.34	362.78
553.51	210.65
553.67	297.25
553.84	297.25
554.01	299.59
554.17	287.89
554.34	292.57
554.51	330.02
554.67	337.04
554.84	276.18
555.00	297.25
555.17	280.86
555.33	294.91
555.50	341.72
555.67	290.23
555.83	241.08
556.00	276.18
556.16	332.36
556.33	308.95
556.50	257.46
556.66	222.35
556.83	273.84
556.99	290.23
557.16	283.20
557.32	252.78
557.49	266.82
557.65	212.99
557.82	238.73
557.98	362.78
558.15	322.99
558.32	280.86
558.48	227.03
558.65	210.65
558.81	234.05
558.98	184.90
559.14	241.08
559.31	339.38
559.47	308.95
559.64	276.18
559.80	332.36
559.97	259.80
560.13	224.69
560.30	278.52
560.46	290.23
560.63	292.57
560.79	276.18
560.96	313.63
561.12	234.05
561.29	337.04
561.45	294.91
561.61	175.54
561.78	290.23
561.94	222.35
562.11	205.97
562.27	311.29
562.44	334.70
562.60	313.63
562.77	269.16
562.93	299.59
563.10	241.08
563.26	198.95
563.42	365.12
563.59	259.80
563.75	257.46
563.92	250.44
564.08	182.56
564.24	236.39
564.41	278.52
564.57	292.57
564.74	266.82
564.90	252.78
565.07	280.86
565.23	287.89
565.39	276.18
565.56	358.10
565.72	205.97
565.88	269.16
566.05	234.05
566.21	212.99
566.38	276.18
566.54	205.97
566.70	250.44
566.87	250.44
567.03	224.69
567.19	320.65
567.36	280.86
567.52	252.78
567.68	262.14
567.85	318.31
568.01	212.99
568.17	196.60
568.34	292.57
568.50	283.20
568.66	250.44
568.83	348.74
568.99	264.48
569.15	341.72
569.32	252.78
569.48	187.24
569.64	243.42
569.81	306.61
569.97	255.12
570.13	273.84
570.30	262.14
570.46	257.46
570.62	327.68
570.78	245.76
570.95	210.65
571.11	315.97
571.27	285.55
571.43	304.27
571.60	259.80
571.76	353.42
571.92	229.37
572.09	290.23
572.25	255.12
572.41	182.56
572.57	220.01
572.74	292.57
572.90	318.31
573.06	269.16
573.22	304.27
573.38	234.05
573.55	280.86
573.71	259.80
573.87	257.46
574.03	220.01
574.20	238.73
574.36	318.31
574.52	308.95
574.68	306.61
574.84	334.70
575.01	205.97
575.17	259.80
575.33	252.78
575.49	287.89
575.65	269.16
575.82	278.52
575.98	465.77
576.14	440.02
576.30	510.24
576.46	503.22
576.62	475.13
576.79	465.77
576.95	407.25
577.11	292.57
577.27	325.33
577.43	362.78
577.59	315.97
577.75	297.25
577.92	294.91
578.08	299.59
578.24	217.67
578.40	362.78
578.56	416.62
578.72	447.04
578.88	339.38
579.04	346.40
579.21	404.91
579.37	327.68
579.53	241.08
579.69	376.83
579.85	369.80
580.01	362.78
580.17	351.08
580.33	355.76
580.49	407.25
580.65	325.33
580.82	386.19
580.98	252.78
581.14	273.84
581.30	334.70
581.46	374.49
581.62	486.83
581.78	479.81
581.94	601.52
582.10	416.62
582.26	440.02
582.42	397.89
582.58	393.21
582.74	393.21
582.90	388.53
583.06	414.27
583.22	390.87
583.38	470.45
583.54	433.00
583.70	543.00
583.86	552.37
584.02	629.60
584.18	627.26
584.34	842.59
584.50	2094.78
584.66	14026.83
584.82	35842.96
584.98	47255.42
585.14	41518.76
585.30	26019.74
585.46	15786.91
585.62	9760.03
585.78	4784.06
585.94	2050.31
586.10	1048.56
586.26	709.18
586.42	709.18
586.58	589.82
586.74	521.94
586.90	545.34
587.06	599.18
587.22	479.81
587.38	470.45
587.54	880.04
587.70	2176.70
587.86	3276.75
588.02	3433.57
588.18	2635.44
588.34	1673.48
588.49	1158.57
588.65	734.93
588.81	500.87
588.97	334.70
589.13	386.19
589.29	411.93
589.45	290.23
589.61	266.82
589.77	330.02
589.93	400.23
590.08	404.91
590.24	386.19
590.40	353.42
590.56	440.02
590.72	381.51
590.88	346.40
591.04	390.87
591.20	341.72
591.35	325.33
591.51	320.65
591.67	351.08
591.83	355.76
591.99	337.04
592.15	395.55
592.31	358.10
592.46	320.65
592.62	330.02
592.78	292.57
592.94	334.70
593.10	325.33
593.26	355.76
593.41	381.51
593.57	374.49
593.73	477.47
593.89	1863.07
594.05	4402.55
594.20	6090.07
594.36	5547.07
594.52	3728.47
594.68	2441.18
594.84	1603.27
594.99	992.39
595.15	526.62
595.31	411.93
595.47	358.10
595.62	351.08
595.78	294.91
595.94	315.97
596.10	308.95
596.25	362.78
596.41	365.12
596.57	346.40
596.73	224.69
596.88	461.09
597.04	938.55
597.20	1385.60
597.36	1659.44
597.51	1252.19
597.67	917.49
597.83	753.65
597.99	566.41
598.14	332.36
598.30	341.72
598.46	442.36
598.61	402.57
598.77	374.49
598.93	285.55
599.09	341.72
599.24	341.72
599.40	327.68
599.56	255.12
599.71	320.65
599.87	372.15
600.03	379.17
600.18	299.59
600.34	346.40
600.50	255.12
600.65	285.55
600.81	318.31
600.97	280.86
601.12	215.33
601.28	308.95
601.44	215.33
601.59	210.65
601.75	248.10
601.91	292.57
602.06	304.27
602.22	365.12
602.37	587.47
602.53	1090.69
602.69	1671.14
602.84	1582.20
603.00	1158.57
603.16	973.66
603.31	697.48
603.47	587.47
603.62	409.59
603.78	264.48
603.94	355.76
604.09	292.57
604.25	301.93
604.40	243.42
604.56	372.15
604.71	346.40
604.87	220.01
605.03	231.71
605.18	257.46
605.34	355.76
605.49	332.36
605.65	280.86
605.80	320.65
605.96	287.89
606.12	339.38
606.27	407.25
606.43	358.10
606.58	407.25
606.74	648.33
606.89	2228.19
607.05	4128.70
607.20	5041.51
607.36	4229.35
607.51	2803.96
607.67	1944.99
607.82	1359.85
607.98	908.13
608.13	512.58
608.29	465.77
608.44	423.64
608.60	383.85
608.75	449.38
608.91	837.91
609.06	3358.67
609.22	6871.81
609.37	8718.50
609.53	7648.87
609.68	5170.24
609.84	3492.08
609.99	2471.61
610.15	1430.07
610.30	924.51
610.46	746.63
610.61	877.70
610.76	922.17
610.92	1076.65
611.07	1064.94
611.23	1032.18
611.38	994.73
611.54	915.15
611.69	770.04
611.84	603.86
612.00	615.56
612.15	580.45
612.31	657.69
612.46	704.50
612.62	669.39
612.77	664.71
612.92	683.44
613.08	655.35
613.23	601.52
613.39	554.71
613.54	758.33
613.69	3148.02
613.85	8411.89
614.00	12807.41
614.15	13303.60
614.31	9554.07
614.46	6548.82
614.62	4409.57
614.77	2832.05
614.92	1432.41
615.08	835.57
615.23	554.71
615.38	517.26
615.54	421.30
615.69	671.73
615.84	1893.49
616.00	3084.83
616.15	3768.26
616.30	2944.39
616.46	2218.83
616.61	1500.28
616.76	1043.88
616.92	641.31
617.07	435.34
617.22	344.06
617.37	355.76
617.53	339.38
617.68	334.70
617.83	304.27
617.99	390.87
618.14	383.85
618.29	379.17
618.45	306.61
618.60	372.15
618.75	266.82
618.90	351.08
619.06	325.33
619.21	301.93
619.36	287.89
619.51	294.91
619.67	299.59
619.82	269.16
619.97	280.86
620.12	334.70
620.28	320.65
620.43	301.93
620.58	304.27
620.73	308.95
620.89	362.78
621.04	449.38
621.19	1043.88
621.34	1797.53
621.49	2225.85
621.65	1994.14
621.80	1568.16
621.95	1071.97
622.10	765.36
622.25	550.03
622.41	360.44
622.56	330.02
622.71	332.36
622.86	383.85
623.01	353.42
623.16	313.63
623.32	271.50
623.47	278.52
623.62	205.97
623.77	280.86
623.92	287.89
624.07	238.73
624.23	283.20
624.38	287.89
624.53	278.52
624.68	337.04
624.83	294.91
624.98	248.10
625.13	259.80
625.29	257.46
625.44	315.97
625.59	351.08
625.74	332.36
625.89	561.73
626.04	1593.90
626.19	4086.58
626.34	6436.47
626.49	6951.39
626.65	5039.17
626.80	3634.85
626.95	2417.77
627.10	1565.82
627.25	884.72
627.40	472.79
627.55	409.59
627.70	381.51
627.85	306.61
628.00	276.18
628.15	297.25
628.30	283.20
628.45	229.37
628.60	255.12
628.76	287.89
628.91	266.82
629.06	325.33
629.21	273.84
629.36	259.80
629.51	271.50
629.66	362.78
629.81	444.70
629.96	936.21
630.11	1598.59
630.26	1973.07
630.41	1746.04
630.56	1273.25
630.71	1018.13
630.86	753.65
631.01	552.37
631.16	425.98
631.31	395.55
631.46	348.74
631.61	224.69
631.76	358.10
631.91	311.29
632.06	241.08
632.21	222.35
632.36	311.29
632.51	372.15
632.66	386.19
632.81	819.19
632.96	2462.24
633.10	4088.92
633.25	4868.31
633.40	3964.87
633.55	2794.60
633.70	2031.58
633.85	1437.09
634.00	809.83
634.15	461.09
634.30	320.65
634.45	271.50
634.60	273.84
634.75	280.86
634.90	210.65
635.05	229.37
635.19	266.82
635.34	269.16
635.49	243.42
635.64	269.16
635.79	264.48
635.94	231.71
636.09	276.18
636.24	304.27
636.39	294.91
636.53	299.59
636.68	257.46
636.83	292.57
636.98	325.33
637.13	318.31
637.28	346.40
637.43	395.55
637.57	521.94
637.72	2026.90
637.87	5156.20
638.02	8135.70
638.17	8573.38
638.32	6602.65
638.46	4217.65
638.61	3063.76
638.76	1975.41
638.91	1032.18
639.06	589.82
639.20	543.00
639.35	472.79
639.50	692.80
639.65	3026.31
639.80	7946.12
639.94	12219.94
640.09	13289.56
640.24	10094.73
640.39	7002.88
640.54	4702.14
640.68	2939.71
640.83	1462.83
640.98	774.72
641.13	498.53
641.27	334.70
641.42	334.70
641.57	262.14
641.72	308.95
641.86	278.52
642.01	245.76
642.16	327.68
642.31	271.50
642.45	285.55
642.60	238.73
642.75	287.89
642.90	280.86
643.04	236.39
643.19	220.01
643.34	259.80
643.48	231.71
643.63	255.12
643.78	360.44
643.93	294.91
644.07	280.86
644.22	229.37
644.37	234.05
644.51	278.52
644.66	210.65
644.81	156.82
644.95	264.48
645.10	257.46
645.25	210.65
645.39	280.86
645.54	184.90
645.69	297.25
645.83	191.92
645.98	252.78
646.13	161.50
646.27	210.65
646.42	236.39
646.57	231.71
646.71	180.22
646.86	280.86
647.00	278.52
647.15	180.22
647.30	248.10
647.44	234.05
647.59	231.71
647.74	229.37
647.88	280.86
648.03	201.29
648.17	252.78
648.32	149.79
648.47	163.84
648.61	266.82
648.76	315.97
648.90	273.84
649.05	280.86
649.20	280.86
649.34	189.58
649.49	191.92
649.63	257.46
649.78	229.37
649.92	374.49
650.07	1238.14
650.21	3548.25
650.36	5860.70
650.51	6743.08
650.65	5722.61
650.80	4105.30
650.94	2733.75
651.09	1776.47
651.23	938.55
651.38	587.47
651.52	334.70
651.67	332.36
651.81	248.10
651.96	332.36
652.10	198.95
652.25	250.44
652.39	280.86
652.54	313.63
652.68	545.34
652.83	1249.85
652.97	2036.27
653.12	2476.29
653.26	2242.23
653.41	1640.72
653.55	1153.88
653.70	772.38
653.84	580.45
653.99	376.83
654.13	292.57
654.27	257.46
654.42	252.78
654.56	217.67
654.71	208.31
654.85	245.76
655.00	215.33
655.14	262.14
655.29	196.60
655.43	212.99
655.57	220.01
655.72	152.13
655.86	241.08
656.01	285.55
656.15	222.35
656.30	250.44
656.44	227.03
656.58	222.35
656.73	231.71
656.87	161.50
657.01	215.33
657.16	224.69
657.30	259.80
657.45	229.37
657.59	292.57
657.73	168.52
657.88	245.76
658.02	236.39
658.16	156.82
658.31	234.05
658.45	241.08
658.60	217.67
658.74	163.84
658.88	142.77
659.03	243.42
659.17	306.61
659.31	606.20
659.46	1643.06
659.60	3005.25
659.74	3569.32
659.89	3059.08
660.03	2342.88
660.17	1729.66
660.32	1034.52
660.46	622.58
660.60	425.98
660.74	372.15
660.89	283.20
661.03	255.12
661.17	238.73
661.32	280.86
661.46	245.76
661.60	135.75
661.74	217.67
661.89	262.14
662.03	259.80
662.17	215.33
662.31	212.99
662.46	273.84
662.60	273.84
662.74	210.65
662.88	194.26
663.03	166.18
663.17	180.22
663.31	205.97
663.45	255.12
663.60	196.60
663.74	215.33
663.88	180.22
664.02	194.26
664.17	177.88
664.31	175.54
664.45	234.05
664.59	203.63
664.73	325.33
664.88	234.05
665.02	241.08
665.16	234.05
665.30	243.42
665.44	189.58
665.59	215.33
665.73	177.88
665.87	227.03
666.01	177.88
666.15	161.50
666.29	215.33
666.44	292.57
666.58	210.65
666.72	147.45
666.86	285.55
667.00	285.55
667.14	369.80
667.28	1142.18
667.43	3124.62
667.57	4954.91
667.71	5984.75
667.85	5268.55
667.99	3978.91
668.13	2443.52
668.27	1537.73
668.41	985.37
668.56	594.50
668.70	468.11
668.84	278.52
668.98	311.29
669.12	231.71
669.26	262.14
669.40	243.42
669.54	259.80
669.68	215.33
669.82	236.39
669.96	208.31
670.10	229.37
670.25	238.73
670.39	266.82
670.53	250.44
670.67	390.87
670.81	168.52
670.95	250.44
671.09	358.10
671.23	1282.61
671.37	2516.08
671.51	3522.51
671.65	3833.80
671.79	3009.93
671.93	2150.95
672.07	1444.11
672.21	840.25
672.35	407.25
672.49	278.52
672.63	376.83
672.77	278.52
672.91	252.78
673.05	280.86
673.19	227.03
673.33	191.92
673.47	227.03
673.61	255.12
673.75	234.05
673.89	245.76
674.03	278.52
674.17	156.82
674.31	163.84
674.45	266.82
674.59	217.67
674.73	117.03
674.87	241.08
675.01	224.69
675.15	220.01
675.29	255.12
675.43	198.95
675.56	257.46
675.70	208.31
675.84	173.20
675.98	201.29
676.12	205.97
676.26	191.92
676.40	198.95
676.54	241.08
676.68	194.26
676.82	180.22
676.96	227.03
677.10	224.69
677.23	173.20
677.37	189.58
677.51	166.18
677.65	262.14
677.79	149.79
677.93	168.52
678.07	191.92
678.21	210.65
678.34	196.60
678.48	243.42
678.62	147.45
678.76	194.26
678.90	126.39
679.04	191.92
679.18	161.50
679.31	215.33
679.45	182.56
679.59	138.09
679.73	194.26
679.87	166.18
680.00	152.13
680.14	147.45
680.28	227.03
680.42	72.56
680.56	205.97
680.70	152.13
680.83	184.90
680.97	166.18
681.11	191.92
681.25	173.20
681.39	163.84
681.52	205.97
681.66	217.67
681.80	203.63
681.94	180.22
682.07	173.20
682.21	142.77
682.35	138.09
682.49	248.10
682.62	212.99
682.76	227.03
682.90	177.88
683.04	173.20
683.17	159.16
683.31	224.69
683.45	105.32
683.59	224.69
683.72	182.56
683.86	102.98
684.00	198.95
684.13	224.69
684.27	203.63
684.41	189.58
684.55	222.35
684.68	191.92
684.82	236.39
684.96	147.45
685.09	126.39
685.23	145.11
685.37	177.88
685.50	257.46
685.64	154.48
685.78	131.07
685.91	180.22
686.05	290.23
686.19	212.99
686.32	163.84
686.46	163.84
686.60	215.33
686.73	205.97
686.87	243.42
687.01	180.22
687.14	203.63
687.28	215.33
687.42	227.03
687.55	159.16
687.69	187.24
687.82	142.77
687.96	166.18
688.10	177.88
688.23	194.26
688.37	257.46
688.50	145.11
688.64	252.78
688.78	135.75
688.91	110.01
689.05	191.92
689.18	170.86
689.32	184.90
689.46	117.03
689.59	170.86
689.73	126.39
689.86	159.16
690.00	147.45
690.13	182.56
690.27	37.45
690.41	222.35
690.54	194.26
690.68	142.77
690.81	238.73
690.95	210.65
691.08	156.82
691.22	224.69
691.35	227.03
691.49	234.05
691.62	187.24
691.76	156.82
691.89	191.92
692.03	170.86
692.16	217.67
692.30	330.02
692.43	414.27
692.57	1350.49
692.70	2225.85
692.84	2558.21
692.97	2469.27
693.11	1781.15
693.24	1366.87
693.38	954.94
693.51	657.69
693.65	447.04
693.78	362.78
693.92	365.12
694.05	299.59
694.19	138.09
694.32	203.63
694.45	180.22
694.59	264.48
694.72	229.37
694.86	170.86
694.99	145.11
695.13	159.16
695.26	203.63
695.39	142.77
695.53	351.08
695.66	149.79
695.80	203.63
695.93	201.29
696.07	168.52
696.20	222.35
696.33	320.65
696.47	337.04
696.60	358.10
696.73	292.57
696.87	259.80
697.00	248.10
697.14	154.48
697.27	170.86
697.40	245.76
697.54	182.56
697.67	205.97
697.80	227.03
697.94	177.88
698.07	196.60
698.21	126.39
698.34	142.77
698.47	156.82
698.61	149.79
698.74	154.48
698.87	205.97
699.01	154.48
699.14	114.69
699.27	142.77
699.40	262.14
699.54	140.43
699.67	217.67
699.80	91.28
699.94	201.29
700.07	81.92
700.20	114.69
700.34	271.50
700.47	170.86
700.60	152.13
700.73	138.09
700.87	248.10
701.00	166.18
701.13	159.16
701.26	152.13
701.40	168.52
701.53	201.29
701.66	135.75
701.79	163.84
701.93	203.63
702.06	227.03
702.19	222.35
702.32	294.91
702.46	301.93
702.59	344.06
702.72	568.75
702.85	1614.97
702.99	3426.54
703.12	4573.41
703.25	5046.20
703.38	4362.76
703.51	3489.74
703.65	2715.02
703.78	1858.39
703.91	1254.53
704.04	870.68
704.17	596.84
704.31	449.38
704.44	273.84
704.57	236.39
704.70	201.29
704.83	266.82
704.96	227.03
705.10	210.65
705.23	212.99
>>>>>End Processed Spectral Data<<<<<
