SpectraSuite Data File
++++++++++++++++++++++++++++++++++++
Date: Fri Oct 04 11:34:01 GMT-05:00 2013
User: price-jones
Dark Spectrum Present: No
Reference Spectrum Present: No
Number of Sampled Component Spectra: 1
Spectrometers: USB2+H05261
Integration Time (usec): 100000 (USB2+H05261)
Spectra Averaged: 1 (USB2+H05261)
Boxcar Smoothing: 0 (USB2+H05261)
Correct for Electrical Dark: No (USB2+H05261)
Strobe/Lamp Enabled: No (USB2+H05261)
Correct for Detector Non-linearity: No (USB2+H05261)
Correct for Stray Light: No (USB2+H05261)
Number of Pixels in Processed Spectrum: 2048
>>>>>Begin Processed Spectral Data<<<<<
365.73	98.30
365.92	98.30
366.12	98.30
366.32	0.00
366.52	0.00
366.72	65.54
366.91	0.00
367.11	0.00
367.31	0.00
367.51	4.68
367.70	0.00
367.90	35.11
368.10	0.00
368.30	0.00
368.49	0.00
368.69	0.00
368.89	0.00
369.09	0.00
369.28	0.00
369.48	0.00
369.68	53.83
369.87	58.51
370.07	0.00
370.27	67.88
370.47	58.51
370.66	46.81
370.86	114.69
371.06	23.41
371.25	147.45
371.45	112.35
371.65	86.60
371.84	149.79
372.04	53.83
372.24	107.66
372.44	100.64
372.63	114.69
372.83	161.50
373.03	140.43
373.22	86.60
373.42	163.84
373.62	135.75
373.81	159.16
374.01	196.60
374.21	220.01
374.40	131.07
374.60	201.29
374.79	159.16
374.99	210.65
375.19	159.16
375.38	177.88
375.58	105.32
375.78	201.29
375.97	138.09
376.17	189.58
376.37	198.95
376.56	107.66
376.76	105.32
376.95	163.84
377.15	166.18
377.35	135.75
377.54	163.84
377.74	159.16
377.93	128.73
378.13	182.56
378.33	149.79
378.52	173.20
378.72	149.79
378.91	177.88
379.11	138.09
379.31	37.45
379.50	117.03
379.70	173.20
379.89	112.35
380.09	95.96
380.28	98.30
380.48	229.37
380.68	110.01
380.87	88.94
381.07	77.24
381.26	222.35
381.46	156.82
381.65	217.67
381.85	107.66
382.04	131.07
382.24	177.88
382.43	140.43
382.63	53.83
382.83	119.37
383.02	191.92
383.22	224.69
383.41	119.37
383.61	161.50
383.80	138.09
384.00	124.05
384.19	102.98
384.39	138.09
384.58	84.26
384.78	180.22
384.97	124.05
385.17	173.20
385.36	145.11
385.56	161.50
385.75	102.98
385.95	37.45
386.14	135.75
386.34	173.20
386.53	145.11
386.72	147.45
386.92	149.79
387.11	142.77
387.31	222.35
387.50	112.35
387.70	117.03
387.89	145.11
388.09	140.43
388.28	191.92
388.48	135.75
388.67	187.24
388.86	30.43
389.06	128.73
389.25	182.56
389.45	205.97
389.64	168.52
389.84	182.56
390.03	128.73
390.22	86.60
390.42	170.86
390.61	84.26
390.81	114.69
391.00	124.05
391.19	182.56
391.39	114.69
391.58	138.09
391.78	131.07
391.97	189.58
392.16	149.79
392.36	201.29
392.55	166.18
392.75	205.97
392.94	124.05
393.13	128.73
393.33	147.45
393.52	53.83
393.71	133.41
393.91	93.62
394.10	39.79
394.29	135.75
394.49	145.11
394.68	205.97
394.88	187.24
395.07	212.99
395.26	170.86
395.46	114.69
395.65	173.20
395.84	159.16
396.04	177.88
396.23	215.33
396.42	112.35
396.62	135.75
396.81	196.60
397.00	161.50
397.19	163.84
397.39	84.26
397.58	133.41
397.77	110.01
397.97	149.79
398.16	102.98
398.35	208.31
398.55	173.20
398.74	152.13
398.93	121.71
399.12	205.97
399.32	177.88
399.51	131.07
399.70	224.69
399.90	142.77
400.09	163.84
400.28	224.69
400.47	184.90
400.67	196.60
400.86	154.48
401.05	177.88
401.24	156.82
401.44	128.73
401.63	166.18
401.82	203.63
402.01	156.82
402.21	135.75
402.40	184.90
402.59	177.88
402.78	119.37
402.97	147.45
403.17	114.69
403.36	128.73
403.55	198.95
403.74	121.71
403.93	170.86
404.13	301.93
404.32	252.78
404.51	245.76
404.70	175.54
404.89	107.66
405.09	201.29
405.28	229.37
405.47	205.97
405.66	170.86
405.85	154.48
406.05	182.56
406.24	142.77
406.43	245.76
406.62	208.31
406.81	203.63
407.00	154.48
407.20	145.11
407.39	159.16
407.58	173.20
407.77	119.37
407.96	252.78
408.15	208.31
408.34	149.79
408.54	205.97
408.73	102.98
408.92	170.86
409.11	212.99
409.30	189.58
409.49	119.37
409.68	147.45
409.87	191.92
410.07	145.11
410.26	98.30
410.45	126.39
410.64	142.77
410.83	215.33
411.02	126.39
411.21	205.97
411.40	194.26
411.59	205.97
411.78	145.11
411.98	149.79
412.17	180.22
412.36	128.73
412.55	105.32
412.74	128.73
412.93	220.01
413.12	189.58
413.31	243.42
413.50	191.92
413.69	175.54
413.88	159.16
414.07	142.77
414.26	119.37
414.45	154.48
414.64	135.75
414.83	161.50
415.02	210.65
415.22	166.18
415.41	234.05
415.60	231.71
415.79	180.22
415.98	217.67
416.17	201.29
416.36	205.97
416.55	119.37
416.74	184.90
416.93	149.79
417.12	135.75
417.31	159.16
417.50	222.35
417.69	231.71
417.88	175.54
418.07	149.79
418.26	187.24
418.45	187.24
418.64	224.69
418.83	273.84
419.02	248.10
419.21	201.29
419.39	229.37
419.58	168.52
419.77	152.13
419.96	210.65
420.15	224.69
420.34	149.79
420.53	175.54
420.72	203.63
420.91	208.31
421.10	198.95
421.29	184.90
421.48	138.09
421.67	159.16
421.86	145.11
422.05	182.56
422.24	117.03
422.43	154.48
422.61	121.71
422.80	126.39
422.99	189.58
423.18	154.48
423.37	173.20
423.56	159.16
423.75	187.24
423.94	170.86
424.13	210.65
424.32	203.63
424.50	154.48
424.69	201.29
424.88	194.26
425.07	112.35
425.26	156.82
425.45	301.93
425.64	224.69
425.83	252.78
426.01	308.95
426.20	189.58
426.39	145.11
426.58	114.69
426.77	194.26
426.96	238.73
427.15	234.05
427.33	173.20
427.52	131.07
427.71	182.56
427.90	168.52
428.09	212.99
428.28	149.79
428.46	140.43
428.65	191.92
428.84	84.26
429.03	208.31
429.22	177.88
429.40	166.18
429.59	145.11
429.78	322.99
429.97	184.90
430.16	124.05
430.34	173.20
430.53	212.99
430.72	175.54
430.91	173.20
431.10	126.39
431.28	229.37
431.47	203.63
431.66	145.11
431.85	198.95
432.03	191.92
432.22	243.42
432.41	133.41
432.60	201.29
432.79	187.24
432.97	358.10
433.16	283.20
433.35	212.99
433.54	224.69
433.72	259.80
433.91	170.86
434.10	180.22
434.28	224.69
434.47	149.79
434.66	187.24
434.85	182.56
435.03	215.33
435.22	292.57
435.41	421.30
435.59	395.55
435.78	402.57
435.97	322.99
436.16	266.82
436.34	194.26
436.53	177.88
436.72	205.97
436.90	229.37
437.09	196.60
437.28	184.90
437.46	187.24
437.65	210.65
437.84	194.26
438.02	170.86
438.21	252.78
438.40	133.41
438.58	138.09
438.77	145.11
438.96	198.95
439.14	168.52
439.33	156.82
439.52	168.52
439.70	154.48
439.89	203.63
440.08	220.01
440.26	198.95
440.45	217.67
440.63	196.60
440.82	212.99
441.01	231.71
441.19	166.18
441.38	203.63
441.57	154.48
441.75	212.99
441.94	245.76
442.12	147.45
442.31	234.05
442.50	217.67
442.68	203.63
442.87	117.03
443.05	128.73
443.24	142.77
443.43	271.50
443.61	205.97
443.80	182.56
443.98	145.11
444.17	234.05
444.35	215.33
444.54	201.29
444.73	236.39
444.91	234.05
445.10	180.22
445.28	212.99
445.47	168.52
445.65	142.77
445.84	135.75
446.02	177.88
446.21	173.20
446.39	248.10
446.58	234.05
446.77	175.54
446.95	156.82
447.14	170.86
447.32	196.60
447.51	217.67
447.69	156.82
447.88	236.39
448.06	208.31
448.25	266.82
448.43	224.69
448.62	140.43
448.80	210.65
448.99	198.95
449.17	191.92
449.36	138.09
449.54	194.26
449.73	166.18
449.91	234.05
450.10	175.54
450.28	203.63
450.46	220.01
450.65	220.01
450.83	175.54
451.02	177.88
451.20	201.29
451.39	205.97
451.57	147.45
451.76	135.75
451.94	138.09
452.13	245.76
452.31	205.97
452.49	191.92
452.68	140.43
452.86	135.75
453.05	166.18
453.23	175.54
453.42	147.45
453.60	271.50
453.78	180.22
453.97	187.24
454.15	224.69
454.34	196.60
454.52	114.69
454.70	210.65
454.89	196.60
455.07	140.43
455.26	170.86
455.44	217.67
455.62	196.60
455.81	168.52
455.99	236.39
456.17	196.60
456.36	205.97
456.54	170.86
456.73	191.92
456.91	191.92
457.09	264.48
457.28	182.56
457.46	168.52
457.64	210.65
457.83	191.92
458.01	145.11
458.19	238.73
458.38	175.54
458.56	168.52
458.74	187.24
458.93	152.13
459.11	187.24
459.29	133.41
459.48	220.01
459.66	177.88
459.84	191.92
460.03	320.65
460.21	201.29
460.39	198.95
460.57	173.20
460.76	149.79
460.94	187.24
461.12	205.97
461.31	220.01
461.49	208.31
461.67	140.43
461.85	224.69
462.04	201.29
462.22	622.58
462.40	182.56
462.59	290.23
462.77	128.73
462.95	210.65
463.13	145.11
463.32	220.01
463.50	217.67
463.68	187.24
463.86	227.03
464.05	117.03
464.23	180.22
464.41	234.05
464.59	177.88
464.78	257.46
464.96	110.01
465.14	138.09
465.32	201.29
465.50	196.60
465.69	187.24
465.87	205.97
466.05	187.24
466.23	173.20
466.41	161.50
466.60	170.86
466.78	217.67
466.96	229.37
467.14	215.33
467.32	304.27
467.51	177.88
467.69	173.20
467.87	227.03
468.05	201.29
468.23	217.67
468.41	194.26
468.60	182.56
468.78	175.54
468.96	250.44
469.14	175.54
469.32	208.31
469.50	161.50
469.69	212.99
469.87	128.73
470.05	166.18
470.23	187.24
470.41	161.50
470.59	203.63
470.77	177.88
470.95	180.22
471.14	147.45
471.32	91.28
471.50	205.97
471.68	205.97
471.86	173.20
472.04	159.16
472.22	294.91
472.40	205.97
472.58	170.86
472.77	154.48
472.95	175.54
473.13	210.65
473.31	243.42
473.49	189.58
473.67	191.92
473.85	196.60
474.03	210.65
474.21	222.35
474.39	215.33
474.57	292.57
474.75	264.48
474.93	184.90
475.12	100.64
475.30	212.99
475.48	177.88
475.66	205.97
475.84	215.33
476.02	194.26
476.20	250.44
476.38	227.03
476.56	257.46
476.74	203.63
476.92	205.97
477.10	278.52
477.28	191.92
477.46	152.13
477.64	250.44
477.82	203.63
478.00	210.65
478.18	110.01
478.36	227.03
478.54	161.50
478.72	266.82
478.90	173.20
479.08	245.76
479.26	238.73
479.44	145.11
479.62	149.79
479.80	145.11
479.98	194.26
480.16	234.05
480.34	259.80
480.52	205.97
480.70	147.45
480.88	229.37
481.06	175.54
481.24	138.09
481.41	203.63
481.59	128.73
481.77	222.35
481.95	250.44
482.13	196.60
482.31	215.33
482.49	168.52
482.67	262.14
482.85	229.37
483.03	238.73
483.21	227.03
483.39	252.78
483.57	215.33
483.74	252.78
483.92	152.13
484.10	266.82
484.28	229.37
484.46	311.29
484.64	196.60
484.82	280.86
485.00	203.63
485.18	220.01
485.35	210.65
485.53	203.63
485.71	297.25
485.89	128.73
486.07	191.92
486.25	285.55
486.43	231.71
486.61	294.91
486.78	227.03
486.96	238.73
487.14	212.99
487.32	255.12
487.50	208.31
487.68	320.65
487.85	241.08
488.03	220.01
488.21	308.95
488.39	294.91
488.57	252.78
488.75	276.18
488.92	521.94
489.10	276.18
489.28	245.76
489.46	353.42
489.64	208.31
489.81	224.69
489.99	332.36
490.17	264.48
490.35	327.68
490.53	224.69
490.70	294.91
490.88	269.16
491.06	262.14
491.24	229.37
491.41	290.23
491.59	276.18
491.77	175.54
491.95	241.08
492.13	294.91
492.30	290.23
492.48	198.95
492.66	257.46
492.84	259.80
493.01	269.16
493.19	276.18
493.37	301.93
493.54	245.76
493.72	259.80
493.90	215.33
494.08	198.95
494.25	362.78
494.43	285.55
494.61	210.65
494.79	184.90
494.96	238.73
495.14	313.63
495.32	236.39
495.49	243.42
495.67	194.26
495.85	248.10
496.02	248.10
496.20	299.59
496.38	311.29
496.55	229.37
496.73	252.78
496.91	250.44
497.09	346.40
497.26	262.14
497.44	222.35
497.62	276.18
497.79	196.60
497.97	294.91
498.14	266.82
498.32	201.29
498.50	250.44
498.67	252.78
498.85	220.01
499.03	299.59
499.20	280.86
499.38	283.20
499.56	210.65
499.73	262.14
499.91	273.84
500.08	243.42
500.26	189.58
500.44	182.56
500.61	273.84
500.79	287.89
500.97	311.29
501.14	290.23
501.32	196.60
501.49	311.29
501.67	278.52
501.84	215.33
502.02	283.20
502.20	358.10
502.37	194.26
502.55	229.37
502.72	280.86
502.90	259.80
503.07	205.97
503.25	269.16
503.43	248.10
503.60	252.78
503.78	290.23
503.95	231.71
504.13	201.29
504.30	332.36
504.48	294.91
504.65	276.18
504.83	245.76
505.01	262.14
505.18	201.29
505.36	283.20
505.53	227.03
505.71	229.37
505.88	299.59
506.06	259.80
506.23	215.33
506.41	243.42
506.58	236.39
506.76	283.20
506.93	229.37
507.11	241.08
507.28	203.63
507.46	203.63
507.63	278.52
507.81	283.20
507.98	283.20
508.16	224.69
508.33	241.08
508.50	255.12
508.68	255.12
508.85	262.14
509.03	217.67
509.20	250.44
509.38	212.99
509.55	259.80
509.73	248.10
509.90	287.89
510.08	266.82
510.25	217.67
510.42	273.84
510.60	273.84
510.77	243.42
510.95	222.35
511.12	315.97
511.30	259.80
511.47	280.86
511.64	287.89
511.82	290.23
511.99	306.61
512.17	203.63
512.34	212.99
512.51	264.48
512.69	278.52
512.86	271.50
513.04	245.76
513.21	236.39
513.38	308.95
513.56	301.93
513.73	262.14
513.90	245.76
514.08	292.57
514.25	308.95
514.43	308.95
514.60	250.44
514.77	292.57
514.95	271.50
515.12	252.78
515.29	241.08
515.47	238.73
515.64	299.59
515.81	306.61
515.99	287.89
516.16	231.71
516.33	290.23
516.51	222.35
516.68	145.11
516.85	194.26
517.03	243.42
517.20	196.60
517.37	330.02
517.54	229.37
517.72	201.29
517.89	234.05
518.06	191.92
518.24	273.84
518.41	325.33
518.58	278.52
518.75	259.80
518.93	264.48
519.10	292.57
519.27	273.84
519.45	283.20
519.62	325.33
519.79	241.08
519.96	203.63
520.14	222.35
520.31	259.80
520.48	320.65
520.65	227.03
520.83	318.31
521.00	292.57
521.17	245.76
521.34	215.33
521.52	308.95
521.69	292.57
521.86	304.27
522.03	283.20
522.20	330.02
522.38	287.89
522.55	262.14
522.72	243.42
522.89	259.80
523.07	353.42
523.24	241.08
523.41	255.12
523.58	285.55
523.75	241.08
523.92	325.33
524.10	290.23
524.27	220.01
524.44	255.12
524.61	208.31
524.78	236.39
524.96	280.86
525.13	304.27
525.30	273.84
525.47	287.89
525.64	252.78
525.81	196.60
525.98	264.48
526.16	198.95
526.33	276.18
526.50	327.68
526.67	208.31
526.84	227.03
527.01	196.60
527.18	220.01
527.36	306.61
527.53	248.10
527.70	339.38
527.87	262.14
528.04	217.67
528.21	271.50
528.38	320.65
528.55	315.97
528.72	355.76
528.89	313.63
529.07	290.23
529.24	276.18
529.41	337.04
529.58	203.63
529.75	250.44
529.92	322.99
530.09	220.01
530.26	322.99
530.43	332.36
530.60	280.86
530.77	283.20
530.94	292.57
531.11	334.70
531.28	245.76
531.46	255.12
531.63	210.65
531.80	348.74
531.97	287.89
532.14	203.63
532.31	313.63
532.48	292.57
532.65	318.31
532.82	418.96
532.99	374.49
533.16	327.68
533.33	337.04
533.50	327.68
533.67	365.12
533.84	416.62
534.01	465.77
534.18	409.59
534.35	351.08
534.52	250.44
534.69	351.08
534.86	285.55
535.03	348.74
535.20	285.55
535.37	224.69
535.54	227.03
535.71	332.36
535.88	304.27
536.05	318.31
536.22	313.63
536.38	339.38
536.55	315.97
536.72	280.86
536.89	290.23
537.06	301.93
537.23	304.27
537.40	283.20
537.57	264.48
537.74	311.29
537.91	306.61
538.08	306.61
538.25	313.63
538.42	337.04
538.59	409.59
538.75	334.70
538.92	341.72
539.09	388.53
539.26	339.38
539.43	575.77
539.60	1132.82
539.77	1703.91
539.94	1703.91
540.11	1245.16
540.28	840.25
540.44	660.03
540.61	498.53
540.78	465.77
540.95	472.79
541.12	538.32
541.29	521.94
541.46	615.56
541.62	547.69
541.79	585.13
541.96	507.90
542.13	533.64
542.30	458.74
542.47	484.49
542.63	538.32
542.80	451.72
542.97	561.73
543.14	519.60
543.31	519.60
543.48	535.98
543.64	430.66
543.81	470.45
543.98	484.49
544.15	437.68
544.32	517.26
544.48	395.55
544.65	545.34
544.82	465.77
544.99	461.09
545.16	554.71
545.32	528.96
545.49	702.16
545.66	917.49
545.83	1111.75
546.00	901.11
546.16	765.36
546.33	552.37
546.50	545.34
546.67	477.47
546.83	365.12
547.00	414.27
547.17	484.49
547.34	421.30
547.50	411.93
547.67	374.49
547.84	383.85
548.00	433.00
548.17	425.98
548.34	332.36
548.51	433.00
548.67	374.49
548.84	414.27
549.01	376.83
549.18	353.42
549.34	360.44
549.51	369.80
549.68	395.55
549.84	376.83
550.01	325.33
550.18	465.77
550.34	393.21
550.51	304.27
550.68	327.68
550.84	374.49
551.01	348.74
551.18	315.97
551.34	320.65
551.51	271.50
551.68	374.49
551.84	320.65
552.01	252.78
552.18	259.80
552.34	351.08
552.51	330.02
552.68	362.78
552.84	353.42
553.01	285.55
553.18	292.57
553.34	269.16
553.51	341.72
553.67	287.89
553.84	294.91
554.01	313.63
554.17	372.15
554.34	318.31
554.51	252.78
554.67	294.91
554.84	285.55
555.00	238.73
555.17	348.74
555.33	334.70
555.50	266.82
555.67	299.59
555.83	285.55
556.00	337.04
556.16	449.38
556.33	264.48
556.50	262.14
556.66	348.74
556.83	276.18
556.99	299.59
557.16	278.52
557.32	383.85
557.49	285.55
557.65	299.59
557.82	252.78
557.98	248.10
558.15	304.27
558.32	259.80
558.48	248.10
558.65	327.68
558.81	285.55
558.98	276.18
559.14	220.01
559.31	315.97
559.47	280.86
559.64	257.46
559.80	360.44
559.97	290.23
560.13	278.52
560.30	257.46
560.46	301.93
560.63	241.08
560.79	313.63
560.96	227.03
561.12	304.27
561.29	285.55
561.45	243.42
561.61	234.05
561.78	339.38
561.94	271.50
562.11	201.29
562.27	301.93
562.44	285.55
562.60	238.73
562.77	250.44
562.93	285.55
563.10	346.40
563.26	285.55
563.42	262.14
563.59	273.84
563.75	259.80
563.92	283.20
564.08	259.80
564.24	236.39
564.41	276.18
564.57	234.05
564.74	315.97
564.90	243.42
565.07	269.16
565.23	301.93
565.39	320.65
565.56	365.12
565.72	301.93
565.88	330.02
566.05	308.95
566.21	259.80
566.38	229.37
566.54	278.52
566.70	280.86
566.87	259.80
567.03	177.88
567.19	224.69
567.36	341.72
567.52	252.78
567.68	320.65
567.85	294.91
568.01	248.10
568.17	196.60
568.34	236.39
568.50	259.80
568.66	299.59
568.83	306.61
568.99	273.84
569.15	280.86
569.32	210.65
569.48	222.35
569.64	273.84
569.81	360.44
569.97	220.01
570.13	285.55
570.30	255.12
570.46	273.84
570.62	287.89
570.78	241.08
570.95	259.80
571.11	255.12
571.27	290.23
571.43	236.39
571.60	285.55
571.76	332.36
571.92	313.63
572.09	301.93
572.25	294.91
572.41	264.48
572.57	229.37
572.74	278.52
572.90	280.86
573.06	238.73
573.22	205.97
573.38	276.18
573.55	220.01
573.71	264.48
573.87	255.12
574.03	234.05
574.20	358.10
574.36	299.59
574.52	358.10
574.68	337.04
574.84	327.68
575.01	402.57
575.17	311.29
575.33	315.97
575.49	276.18
575.65	280.86
575.82	353.42
575.98	624.92
576.14	755.99
576.30	814.51
576.46	683.44
576.62	557.05
576.79	545.34
576.95	521.94
577.11	383.85
577.27	330.02
577.43	383.85
577.59	346.40
577.75	304.27
577.92	271.50
578.08	337.04
578.24	358.10
578.40	390.87
578.56	463.43
578.72	421.30
578.88	475.13
579.04	418.96
579.21	362.78
579.37	250.44
579.53	337.04
579.69	390.87
579.85	425.98
580.01	491.51
580.17	447.04
580.33	463.43
580.49	388.53
580.65	330.02
580.82	362.78
580.98	435.34
581.14	402.57
581.30	449.38
581.46	540.66
581.62	690.46
581.78	653.01
581.94	676.41
582.10	634.29
582.26	622.58
582.42	475.13
582.58	477.47
582.74	528.96
582.90	531.30
583.06	554.71
583.22	477.47
583.38	580.45
583.54	571.09
583.70	650.67
583.86	767.70
584.02	903.45
584.18	1001.75
584.34	1256.87
584.50	3052.06
584.66	21638.25
584.82	55875.61
584.98	65535.00
585.14	63353.62
585.30	49654.47
585.46	30618.89
585.62	19000.47
585.78	8713.81
585.94	3424.20
586.10	1741.36
586.26	1074.31
586.42	985.37
586.58	777.06
586.74	676.41
586.90	667.05
587.06	631.94
587.22	622.58
587.38	620.24
587.54	1149.20
587.70	3557.61
587.86	5942.62
588.02	6607.33
588.18	4765.33
588.34	3056.74
588.49	1942.64
588.65	1256.87
588.81	678.76
588.97	425.98
589.13	393.21
589.29	360.44
589.45	381.51
589.61	430.66
589.77	402.57
589.93	458.74
590.08	517.26
590.24	524.28
590.40	430.66
590.56	477.47
590.72	393.21
590.88	383.85
591.04	454.06
591.20	409.59
591.35	472.79
591.51	351.08
591.67	362.78
591.83	344.06
591.99	411.93
592.15	381.51
592.31	386.19
592.46	444.70
592.62	451.72
592.78	362.78
592.94	430.66
593.10	367.46
593.26	381.51
593.41	561.73
593.57	505.56
593.73	613.22
593.89	2825.03
594.05	7403.11
594.20	11335.21
594.36	10808.59
594.52	7087.14
594.68	4442.34
594.84	2995.89
594.99	1666.46
595.15	889.40
595.31	514.92
595.47	397.89
595.62	388.53
595.78	318.31
595.94	388.53
596.10	493.85
596.25	433.00
596.41	383.85
596.57	353.42
596.73	337.04
596.88	543.00
597.04	1558.80
597.20	2363.94
597.36	2771.19
597.51	2230.53
597.67	1460.49
597.83	1149.20
597.99	779.40
598.14	585.13
598.30	409.59
598.46	325.33
598.61	510.24
598.77	358.10
598.93	421.30
599.09	315.97
599.24	353.42
599.40	318.31
599.56	355.76
599.71	346.40
599.87	355.76
600.03	278.52
600.18	320.65
600.34	306.61
600.50	318.31
600.65	301.93
600.81	271.50
600.97	348.74
601.12	266.82
601.28	341.72
601.44	290.23
601.59	285.55
601.75	229.37
601.91	271.50
602.06	339.38
602.22	402.57
602.37	718.54
602.53	1696.89
602.69	2766.51
602.84	3000.57
603.00	2183.72
603.16	1507.30
603.31	1111.75
603.47	716.20
603.62	451.72
603.78	351.08
603.94	332.36
604.09	292.57
604.25	423.64
604.40	330.02
604.56	346.40
604.71	318.31
604.87	332.36
605.03	355.76
605.18	341.72
605.34	365.12
605.49	351.08
605.65	400.23
605.80	334.70
605.96	353.42
606.12	379.17
606.27	430.66
606.43	374.49
606.58	458.74
606.74	947.92
606.89	3269.73
607.05	6967.77
607.20	9565.77
607.36	7992.93
607.51	5383.23
607.67	3576.34
607.82	2401.39
607.98	1352.83
608.13	791.10
608.29	578.11
608.44	547.69
608.60	578.11
608.75	580.45
608.91	1299.00
609.06	5207.69
609.22	11932.05
609.37	16872.92
609.53	14621.33
609.68	10031.54
609.84	6469.24
609.99	4432.97
610.15	2504.37
610.30	1416.02
610.46	1011.11
610.61	1008.77
610.76	992.39
610.92	1055.58
611.07	1188.99
611.23	1238.14
611.38	1121.12
611.54	1027.50
611.69	919.83
611.84	873.02
612.00	786.42
612.15	763.01
612.31	781.74
612.46	896.43
612.62	990.05
612.77	980.68
612.92	807.48
613.08	793.44
613.23	746.63
613.39	723.23
613.54	1095.37
613.69	4573.41
613.85	14312.38
614.00	24212.84
614.15	26403.58
614.31	18609.60
614.46	12276.11
614.62	8372.10
614.77	5104.71
614.92	2368.62
615.08	1212.40
615.23	847.27
615.38	622.58
615.54	526.62
615.69	983.02
615.84	2867.16
616.00	5425.36
616.15	6949.05
616.30	5636.01
616.46	4042.11
616.61	2705.66
616.76	1830.30
616.92	1025.15
617.07	657.69
617.22	526.62
617.37	472.79
617.53	395.55
617.68	339.38
617.83	437.68
617.99	468.11
618.14	435.34
618.29	299.59
618.45	454.06
618.60	341.72
618.75	344.06
618.90	311.29
619.06	358.10
619.21	339.38
619.36	400.23
619.51	292.57
619.67	278.52
619.82	269.16
619.97	376.83
620.12	351.08
620.28	327.68
620.43	374.49
620.58	322.99
620.73	367.46
620.89	351.08
621.04	550.03
621.19	1507.30
621.34	3028.65
621.49	4063.17
621.65	3817.41
621.80	2621.40
621.95	1783.49
622.10	1322.40
622.25	781.74
622.41	573.43
622.56	372.15
622.71	374.49
622.86	301.93
623.01	372.15
623.16	339.38
623.32	266.82
623.47	369.80
623.62	299.59
623.77	362.78
623.92	376.83
624.07	320.65
624.23	353.42
624.38	369.80
624.53	367.46
624.68	358.10
624.83	404.91
624.98	365.12
625.13	372.15
625.29	287.89
625.44	388.53
625.59	393.21
625.74	484.49
625.89	503.22
626.04	2373.30
626.19	7131.61
626.34	11679.27
626.49	13338.71
626.65	9874.72
626.80	6736.06
626.95	4669.37
627.10	2930.35
627.25	1401.98
627.40	758.33
627.55	465.77
627.70	397.89
627.85	383.85
628.00	358.10
628.15	273.84
628.30	334.70
628.45	304.27
628.60	304.27
628.76	315.97
628.91	348.74
629.06	388.53
629.21	407.25
629.36	393.21
629.51	318.31
629.66	337.04
629.81	430.66
629.96	1273.25
630.11	2539.48
630.26	3475.70
630.41	3258.03
630.56	2406.07
630.71	1640.72
630.86	1245.16
631.01	795.78
631.16	498.53
631.31	491.51
631.46	447.04
631.61	320.65
631.76	313.63
631.91	355.76
632.06	306.61
632.21	351.08
632.36	376.83
632.51	367.46
632.66	433.00
632.81	1191.33
632.96	4002.32
633.10	7447.58
633.25	9195.96
633.40	7545.89
633.55	5301.31
633.70	3456.97
633.85	2420.11
634.00	1334.11
634.15	720.88
634.30	472.79
634.45	454.06
634.60	337.04
634.75	365.12
634.90	327.68
635.05	306.61
635.19	297.25
635.34	266.82
635.49	290.23
635.64	287.89
635.79	264.48
635.94	320.65
636.09	339.38
636.24	308.95
636.39	322.99
636.53	313.63
636.68	259.80
636.83	292.57
636.98	255.12
637.13	379.17
637.28	437.68
637.43	521.94
637.57	671.73
637.72	3164.40
637.87	8975.95
638.02	15248.59
638.17	17139.74
638.32	12767.62
638.46	8655.30
638.61	5746.02
638.76	3658.26
638.91	1921.58
639.06	912.81
639.20	695.14
639.35	732.59
639.50	971.32
639.65	4505.53
639.80	14047.90
639.94	23690.90
640.09	26246.77
640.24	19587.94
640.39	13195.94
640.54	8788.71
640.68	5308.34
640.83	2576.93
640.98	1193.67
641.13	681.10
641.27	517.26
641.42	423.64
641.57	395.55
641.72	365.12
641.86	418.96
642.01	287.89
642.16	266.82
642.31	276.18
642.45	301.93
642.60	304.27
642.75	264.48
642.90	255.12
643.04	259.80
643.19	297.25
643.34	306.61
643.48	287.89
643.63	276.18
643.78	301.93
643.93	297.25
644.07	252.78
644.22	339.38
644.37	290.23
644.51	276.18
644.66	266.82
644.81	259.80
644.95	234.05
645.10	234.05
645.25	280.86
645.39	297.25
645.54	236.39
645.69	297.25
645.83	231.71
645.98	301.93
646.13	257.46
646.27	271.50
646.42	271.50
646.57	271.50
646.71	325.33
646.86	210.65
647.00	231.71
647.15	255.12
647.30	273.84
647.44	224.69
647.59	234.05
647.74	215.33
647.88	191.92
648.03	250.44
648.17	231.71
648.32	227.03
648.47	306.61
648.61	194.26
648.76	266.82
648.90	257.46
649.05	250.44
649.20	271.50
649.34	318.31
649.49	236.39
649.63	294.91
649.78	308.95
649.92	491.51
650.07	1781.15
650.21	6024.54
650.36	10874.13
650.51	13301.26
650.65	11122.23
650.80	7840.79
650.94	5195.99
651.09	3346.97
651.23	1823.28
651.38	915.15
651.52	535.98
651.67	369.80
651.81	322.99
651.96	409.59
652.10	301.93
652.25	292.57
652.39	304.27
652.54	264.48
652.68	657.69
652.83	1977.75
652.97	3751.88
653.12	4959.60
653.26	4442.34
653.41	3208.87
653.55	2249.25
653.70	1444.11
653.84	849.61
653.99	470.45
654.13	365.12
654.27	278.52
654.42	208.31
654.56	182.56
654.71	325.33
654.85	243.42
655.00	241.08
655.14	311.29
655.29	142.77
655.43	255.12
655.57	217.67
655.72	210.65
655.86	227.03
656.01	236.39
656.15	257.46
656.30	313.63
656.44	229.37
656.58	257.46
656.73	243.42
656.87	234.05
657.01	257.46
657.16	163.84
657.30	257.46
657.45	255.12
657.59	210.65
657.73	255.12
657.88	348.74
658.02	245.76
658.16	212.99
658.31	224.69
658.45	184.90
658.60	210.65
658.74	276.18
658.88	245.76
659.03	264.48
659.17	346.40
659.31	908.13
659.46	2644.81
659.60	5233.44
659.74	6684.57
659.89	6097.10
660.03	4559.36
660.17	3131.64
660.32	1975.41
660.46	1029.84
660.60	718.54
660.74	472.79
660.89	353.42
661.03	278.52
661.17	304.27
661.32	236.39
661.46	280.86
661.60	194.26
661.74	217.67
661.89	259.80
662.03	243.42
662.17	248.10
662.31	250.44
662.46	266.82
662.60	241.08
662.74	231.71
662.88	236.39
663.03	187.24
663.17	231.71
663.31	166.18
663.45	198.95
663.60	224.69
663.74	170.86
663.88	304.27
664.02	243.42
664.17	269.16
664.31	248.10
664.45	241.08
664.59	299.59
664.73	222.35
664.88	212.99
665.02	255.12
665.16	236.39
665.30	313.63
665.44	259.80
665.59	264.48
665.73	203.63
665.87	271.50
666.01	234.05
666.15	196.60
666.29	196.60
666.44	283.20
666.58	257.46
666.72	187.24
666.86	250.44
667.00	334.70
667.14	435.34
667.28	1666.46
667.43	5144.50
667.57	9188.94
667.71	12039.72
667.85	9975.36
667.99	7389.07
668.13	4748.95
668.27	2820.35
668.41	1629.01
668.56	1032.18
668.70	608.54
668.84	458.74
668.98	341.72
669.12	271.50
669.26	280.86
669.40	287.89
669.54	255.12
669.68	238.73
669.82	222.35
669.96	241.08
670.10	241.08
670.25	264.48
670.39	227.03
670.53	255.12
670.67	245.76
670.81	241.08
670.95	311.29
671.09	500.87
671.23	1942.64
671.37	4355.74
671.51	6787.55
671.65	7236.94
671.79	5839.64
671.93	4095.94
672.07	2422.45
672.21	1451.13
672.35	938.55
672.49	606.20
672.63	381.51
672.77	330.02
672.91	283.20
673.05	259.80
673.19	205.97
673.33	196.60
673.47	241.08
673.61	201.29
673.75	222.35
673.89	217.67
674.03	271.50
674.17	236.39
674.31	189.58
674.45	177.88
674.59	163.84
674.73	264.48
674.87	264.48
675.01	271.50
675.15	287.89
675.29	308.95
675.43	276.18
675.56	208.31
675.70	224.69
675.84	208.31
675.98	224.69
676.12	231.71
676.26	175.54
676.40	156.82
676.54	245.76
676.68	205.97
676.82	250.44
676.96	168.52
677.10	257.46
677.23	182.56
677.37	182.56
677.51	191.92
677.65	292.57
677.79	182.56
677.93	110.01
678.07	145.11
678.21	154.48
678.34	187.24
678.48	212.99
678.62	95.96
678.76	215.33
678.90	243.42
679.04	250.44
679.18	229.37
679.31	234.05
679.45	147.45
679.59	196.60
679.73	170.86
679.87	159.16
680.00	124.05
680.14	234.05
680.28	201.29
680.42	156.82
680.56	283.20
680.70	229.37
680.83	222.35
680.97	128.73
681.11	163.84
681.25	189.58
681.39	208.31
681.52	159.16
681.66	166.18
681.80	205.97
681.94	161.50
682.07	201.29
682.21	84.26
682.35	173.20
682.49	88.94
682.62	196.60
682.76	156.82
682.90	145.11
683.04	243.42
683.17	212.99
683.31	201.29
683.45	252.78
683.59	241.08
683.72	217.67
683.86	201.29
684.00	212.99
684.13	252.78
684.27	205.97
684.41	170.86
684.55	203.63
684.68	238.73
684.82	102.98
684.96	95.96
685.09	191.92
685.23	147.45
685.37	140.43
685.50	161.50
685.64	276.18
685.78	196.60
685.91	212.99
686.05	234.05
686.19	212.99
686.32	198.95
686.46	177.88
686.60	182.56
686.73	234.05
686.87	227.03
687.01	304.27
687.14	182.56
687.28	203.63
687.42	241.08
687.55	196.60
687.69	201.29
687.82	163.84
687.96	227.03
688.10	177.88
688.23	203.63
688.37	210.65
688.50	182.56
688.64	222.35
688.78	114.69
688.91	152.13
689.05	154.48
689.18	210.65
689.32	177.88
689.46	156.82
689.59	161.50
689.73	210.65
689.86	182.56
690.00	177.88
690.13	257.46
690.27	91.28
690.41	154.48
690.54	220.01
690.68	210.65
690.81	184.90
690.95	161.50
691.08	196.60
691.22	126.39
691.35	173.20
691.49	152.13
691.62	201.29
691.76	194.26
691.89	220.01
692.03	229.37
692.16	166.18
692.30	318.31
692.43	634.29
692.57	2076.06
692.70	3847.84
692.84	5156.20
692.97	4650.64
693.11	3597.40
693.24	2555.86
693.38	1858.39
693.51	1210.06
693.65	863.66
693.78	538.32
693.92	372.15
694.05	330.02
694.19	248.10
694.32	229.37
694.45	173.20
694.59	227.03
694.72	234.05
694.86	198.95
694.99	259.80
695.13	152.13
695.26	210.65
695.39	182.56
695.53	238.73
695.66	177.88
695.80	175.54
695.93	135.75
696.07	238.73
696.20	315.97
696.33	430.66
696.47	447.04
696.60	477.47
696.73	430.66
696.87	367.46
697.00	266.82
697.14	198.95
697.27	133.41
697.40	238.73
697.54	187.24
697.67	234.05
697.80	212.99
697.94	142.77
698.07	112.35
698.21	163.84
698.34	212.99
698.47	205.97
698.61	145.11
698.74	236.39
698.87	191.92
699.01	184.90
699.14	194.26
699.27	168.52
699.40	278.52
699.54	269.16
699.67	126.39
699.80	152.13
699.94	191.92
700.07	140.43
700.20	140.43
700.34	198.95
700.47	191.92
700.60	173.20
700.73	241.08
700.87	280.86
701.00	121.71
701.13	217.67
701.26	294.91
701.40	84.26
701.53	145.11
701.66	175.54
701.79	215.33
701.93	145.11
702.06	301.93
702.19	315.97
702.32	477.47
702.46	461.09
702.59	379.17
702.72	835.57
702.85	2635.44
702.99	5916.87
703.12	8877.65
703.25	10017.49
703.38	8545.30
703.51	6792.23
703.65	5291.95
703.78	3765.92
703.91	2408.41
704.04	1682.85
704.17	1018.13
704.31	589.82
704.44	500.87
704.57	322.99
704.70	287.89
704.83	283.20
704.96	222.35
705.10	212.99
705.23	259.80
>>>>>End Processed Spectral Data<<<<<
