SpectraSuite Data File
++++++++++++++++++++++++++++++++++++
Date: Fri Oct 04 11:33:58 GMT-05:00 2013
User: price-jones
Dark Spectrum Present: No
Reference Spectrum Present: No
Number of Sampled Component Spectra: 1
Spectrometers: USB2+H05261
Integration Time (usec): 100000 (USB2+H05261)
Spectra Averaged: 1 (USB2+H05261)
Boxcar Smoothing: 0 (USB2+H05261)
Correct for Electrical Dark: No (USB2+H05261)
Strobe/Lamp Enabled: No (USB2+H05261)
Correct for Detector Non-linearity: No (USB2+H05261)
Correct for Stray Light: No (USB2+H05261)
Number of Pixels in Processed Spectrum: 2048
>>>>>Begin Processed Spectral Data<<<<<
365.73	60.85
365.92	60.85
366.12	60.85
366.32	14.04
366.52	0.00
366.72	0.00
366.91	2.34
367.11	0.00
367.31	0.00
367.51	0.00
367.70	28.09
367.90	39.79
368.10	0.00
368.30	0.00
368.49	0.00
368.69	0.00
368.89	0.00
369.09	0.00
369.28	11.70
369.48	46.81
369.68	0.00
369.87	37.45
370.07	0.00
370.27	79.58
370.47	0.00
370.66	58.51
370.86	74.90
371.06	81.92
371.25	112.35
371.45	74.90
371.65	117.03
371.84	79.58
372.04	44.47
372.24	147.45
372.44	117.03
372.63	95.96
372.83	117.03
373.03	142.77
373.22	133.41
373.42	88.94
373.62	119.37
373.81	203.63
374.01	189.58
374.21	205.97
374.40	156.82
374.60	180.22
374.79	159.16
374.99	166.18
375.19	170.86
375.38	187.24
375.58	105.32
375.78	156.82
375.97	243.42
376.17	245.76
376.37	79.58
376.56	198.95
376.76	173.20
376.95	154.48
377.15	236.39
377.35	131.07
377.54	105.32
377.74	95.96
377.93	63.19
378.13	133.41
378.33	182.56
378.52	100.64
378.72	177.88
378.91	194.26
379.11	170.86
379.31	156.82
379.50	95.96
379.70	159.16
379.89	124.05
380.09	142.77
380.28	173.20
380.48	154.48
380.68	126.39
380.87	184.90
381.07	159.16
381.26	140.43
381.46	196.60
381.65	140.43
381.85	140.43
382.04	126.39
382.24	121.71
382.43	203.63
382.63	100.64
382.83	140.43
383.02	177.88
383.22	138.09
383.41	81.92
383.61	140.43
383.80	100.64
384.00	100.64
384.19	154.48
384.39	51.49
384.58	126.39
384.78	138.09
384.97	154.48
385.17	180.22
385.36	124.05
385.56	163.84
385.75	53.83
385.95	126.39
386.14	133.41
386.34	67.88
386.53	138.09
386.72	98.30
386.92	198.95
387.11	112.35
387.31	156.82
387.50	142.77
387.70	117.03
387.89	119.37
388.09	114.69
388.28	112.35
388.48	147.45
388.67	177.88
388.86	177.88
389.06	77.24
389.25	168.52
389.45	166.18
389.64	166.18
389.84	163.84
390.03	147.45
390.22	147.45
390.42	53.83
390.61	135.75
390.81	180.22
391.00	201.29
391.19	138.09
391.39	140.43
391.58	56.17
391.78	166.18
391.97	100.64
392.16	124.05
392.36	166.18
392.55	222.35
392.75	124.05
392.94	91.28
393.13	154.48
393.33	60.85
393.52	184.90
393.71	182.56
393.91	212.99
394.10	152.13
394.29	168.52
394.49	140.43
394.68	189.58
394.88	170.86
395.07	140.43
395.26	138.09
395.46	180.22
395.65	117.03
395.84	156.82
396.04	212.99
396.23	187.24
396.42	88.94
396.62	168.52
396.81	166.18
397.00	152.13
397.19	119.37
397.39	147.45
397.58	147.45
397.77	128.73
397.97	145.11
398.16	156.82
398.35	182.56
398.55	128.73
398.74	198.95
398.93	191.92
399.12	79.58
399.32	140.43
399.51	88.94
399.70	112.35
399.90	189.58
400.09	131.07
400.28	170.86
400.47	142.77
400.67	156.82
400.86	210.65
401.05	173.20
401.24	147.45
401.44	128.73
401.63	168.52
401.82	145.11
402.01	98.30
402.21	163.84
402.40	170.86
402.59	133.41
402.78	163.84
402.97	177.88
403.17	147.45
403.36	161.50
403.55	166.18
403.74	182.56
403.93	182.56
404.13	205.97
404.32	224.69
404.51	173.20
404.70	131.07
404.89	131.07
405.09	152.13
405.28	217.67
405.47	126.39
405.66	142.77
405.85	182.56
406.05	166.18
406.24	159.16
406.43	74.90
406.62	269.16
406.81	175.54
407.00	180.22
407.20	168.52
407.39	142.77
407.58	133.41
407.77	177.88
407.96	187.24
408.15	212.99
408.34	184.90
408.54	163.84
408.73	152.13
408.92	149.79
409.11	210.65
409.30	250.44
409.49	173.20
409.68	121.71
409.87	177.88
410.07	147.45
410.26	182.56
410.45	182.56
410.64	117.03
410.83	159.16
411.02	175.54
411.21	210.65
411.40	140.43
411.59	131.07
411.78	161.50
411.98	112.35
412.17	142.77
412.36	187.24
412.55	170.86
412.74	86.60
412.93	131.07
413.12	121.71
413.31	138.09
413.50	93.62
413.69	166.18
413.88	250.44
414.07	201.29
414.26	163.84
414.45	166.18
414.64	140.43
414.83	140.43
415.02	198.95
415.22	133.41
415.41	175.54
415.60	189.58
415.79	145.11
415.98	231.71
416.17	184.90
416.36	126.39
416.55	205.97
416.74	177.88
416.93	180.22
417.12	147.45
417.31	201.29
417.50	149.79
417.69	269.16
417.88	241.08
418.07	149.79
418.26	175.54
418.45	201.29
418.64	203.63
418.83	173.20
419.02	210.65
419.21	212.99
419.39	159.16
419.58	210.65
419.77	238.73
419.96	217.67
420.15	205.97
420.34	297.25
420.53	168.52
420.72	231.71
420.91	154.48
421.10	245.76
421.29	170.86
421.48	133.41
421.67	166.18
421.86	222.35
422.05	227.03
422.24	138.09
422.43	154.48
422.61	231.71
422.80	156.82
422.99	170.86
423.18	241.08
423.37	187.24
423.56	154.48
423.75	234.05
423.94	102.98
424.13	229.37
424.32	241.08
424.50	168.52
424.69	156.82
424.88	184.90
425.07	177.88
425.26	191.92
425.45	264.48
425.64	236.39
425.83	189.58
426.01	269.16
426.20	175.54
426.39	161.50
426.58	191.92
426.77	201.29
426.96	189.58
427.15	201.29
427.33	140.43
427.52	184.90
427.71	140.43
427.90	135.75
428.09	182.56
428.28	161.50
428.46	170.86
428.65	224.69
428.84	234.05
429.03	236.39
429.22	215.33
429.40	180.22
429.59	133.41
429.78	210.65
429.97	203.63
430.16	145.11
430.34	149.79
430.53	257.46
430.72	212.99
430.91	161.50
431.10	191.92
431.28	145.11
431.47	224.69
431.66	255.12
431.85	140.43
432.03	243.42
432.22	205.97
432.41	229.37
432.60	201.29
432.79	245.76
432.97	271.50
433.16	224.69
433.35	220.01
433.54	212.99
433.72	184.90
433.91	121.71
434.10	208.31
434.28	212.99
434.47	212.99
434.66	262.14
434.85	210.65
435.03	182.56
435.22	344.06
435.41	514.92
435.59	395.55
435.78	341.72
435.97	259.80
436.16	217.67
436.34	217.67
436.53	154.48
436.72	180.22
436.90	201.29
437.09	205.97
437.28	161.50
437.46	220.01
437.65	124.05
437.84	138.09
438.02	215.33
438.21	175.54
438.40	140.43
438.58	173.20
438.77	180.22
438.96	163.84
439.14	187.24
439.33	269.16
439.52	187.24
439.70	149.79
439.89	147.45
440.08	175.54
440.26	170.86
440.45	224.69
440.63	142.77
440.82	177.88
441.01	201.29
441.19	187.24
441.38	208.31
441.57	217.67
441.75	198.95
441.94	168.52
442.12	215.33
442.31	201.29
442.50	159.16
442.68	187.24
442.87	140.43
443.05	184.90
443.24	250.44
443.43	231.71
443.61	147.45
443.80	173.20
443.98	180.22
444.17	140.43
444.35	212.99
444.54	198.95
444.73	156.82
444.91	194.26
445.10	128.73
445.28	175.54
445.47	131.07
445.65	156.82
445.84	224.69
446.02	170.86
446.21	191.92
446.39	133.41
446.58	182.56
446.77	177.88
446.95	196.60
447.14	194.26
447.32	266.82
447.51	259.80
447.69	91.28
447.88	180.22
448.06	124.05
448.25	154.48
448.43	215.33
448.62	119.37
448.80	248.10
448.99	241.08
449.17	156.82
449.36	131.07
449.54	245.76
449.73	217.67
449.91	196.60
450.10	180.22
450.28	243.42
450.46	259.80
450.65	306.61
450.83	229.37
451.02	210.65
451.20	210.65
451.39	168.52
451.57	175.54
451.76	222.35
451.94	133.41
452.13	184.90
452.31	269.16
452.49	135.75
452.68	152.13
452.86	227.03
453.05	243.42
453.23	175.54
453.42	210.65
453.60	95.96
453.78	145.11
453.97	126.39
454.15	140.43
454.34	201.29
454.52	191.92
454.70	241.08
454.89	203.63
455.07	189.58
455.26	217.67
455.44	236.39
455.62	161.50
455.81	241.08
455.99	224.69
456.17	168.52
456.36	159.16
456.54	168.52
456.73	201.29
456.91	133.41
457.09	163.84
457.28	203.63
457.46	224.69
457.64	205.97
457.83	210.65
458.01	170.86
458.19	156.82
458.38	152.13
458.56	212.99
458.74	187.24
458.93	212.99
459.11	177.88
459.29	222.35
459.48	180.22
459.66	210.65
459.84	210.65
460.03	217.67
460.21	255.12
460.39	241.08
460.57	163.84
460.76	208.31
460.94	229.37
461.12	238.73
461.31	208.31
461.49	259.80
461.67	210.65
461.85	278.52
462.04	184.90
462.22	627.26
462.40	245.76
462.59	205.97
462.77	135.75
462.95	145.11
463.13	170.86
463.32	205.97
463.50	100.64
463.68	222.35
463.86	198.95
464.05	189.58
464.23	212.99
464.41	210.65
464.59	173.20
464.78	210.65
464.96	166.18
465.14	191.92
465.32	196.60
465.50	205.97
465.69	194.26
465.87	203.63
466.05	212.99
466.23	196.60
466.41	220.01
466.60	154.48
466.78	198.95
466.96	217.67
467.14	222.35
467.32	229.37
467.51	208.31
467.69	238.73
467.87	280.86
468.05	212.99
468.23	224.69
468.41	238.73
468.60	252.78
468.78	217.67
468.96	201.29
469.14	292.57
469.32	184.90
469.50	205.97
469.69	201.29
469.87	241.08
470.05	245.76
470.23	198.95
470.41	149.79
470.59	168.52
470.77	210.65
470.95	156.82
471.14	278.52
471.32	124.05
471.50	220.01
471.68	194.26
471.86	145.11
472.04	147.45
472.22	212.99
472.40	262.14
472.58	184.90
472.77	224.69
472.95	177.88
473.13	264.48
473.31	292.57
473.49	140.43
473.67	271.50
473.85	210.65
474.03	205.97
474.21	184.90
474.39	283.20
474.57	198.95
474.75	220.01
474.93	224.69
475.12	184.90
475.30	271.50
475.48	273.84
475.66	189.58
475.84	224.69
476.02	241.08
476.20	135.75
476.38	173.20
476.56	231.71
476.74	234.05
476.92	175.54
477.10	210.65
477.28	243.42
477.46	161.50
477.64	250.44
477.82	210.65
478.00	208.31
478.18	182.56
478.36	196.60
478.54	182.56
478.72	234.05
478.90	168.52
479.08	203.63
479.26	156.82
479.44	205.97
479.62	175.54
479.80	194.26
479.98	173.20
480.16	217.67
480.34	245.76
480.52	154.48
480.70	180.22
480.88	156.82
481.06	220.01
481.24	243.42
481.41	224.69
481.59	278.52
481.77	220.01
481.95	205.97
482.13	255.12
482.31	264.48
482.49	133.41
482.67	234.05
482.85	212.99
483.03	273.84
483.21	238.73
483.39	198.95
483.57	283.20
483.74	276.18
483.92	243.42
484.10	299.59
484.28	224.69
484.46	297.25
484.64	149.79
484.82	245.76
485.00	238.73
485.18	271.50
485.35	255.12
485.53	234.05
485.71	222.35
485.89	208.31
486.07	224.69
486.25	315.97
486.43	280.86
486.61	241.08
486.78	262.14
486.96	278.52
487.14	191.92
487.32	278.52
487.50	290.23
487.68	294.91
487.85	257.46
488.03	262.14
488.21	325.33
488.39	241.08
488.57	220.01
488.75	243.42
488.92	461.09
489.10	259.80
489.28	243.42
489.46	250.44
489.64	264.48
489.81	276.18
489.99	266.82
490.17	262.14
490.35	320.65
490.53	308.95
490.70	238.73
490.88	299.59
491.06	224.69
491.24	320.65
491.41	362.78
491.59	180.22
491.77	255.12
491.95	217.67
492.13	208.31
492.30	238.73
492.48	220.01
492.66	248.10
492.84	278.52
493.01	266.82
493.19	273.84
493.37	330.02
493.54	273.84
493.72	306.61
493.90	259.80
494.08	257.46
494.25	210.65
494.43	367.46
494.61	332.36
494.79	180.22
494.96	194.26
495.14	273.84
495.32	238.73
495.49	264.48
495.67	248.10
495.85	224.69
496.02	189.58
496.20	215.33
496.38	285.55
496.55	227.03
496.73	266.82
496.91	322.99
497.09	280.86
497.26	212.99
497.44	266.82
497.62	278.52
497.79	264.48
497.97	273.84
498.14	290.23
498.32	278.52
498.50	266.82
498.67	280.86
498.85	318.31
499.03	280.86
499.20	198.95
499.38	191.92
499.56	236.39
499.73	273.84
499.91	290.23
500.08	285.55
500.26	248.10
500.44	236.39
500.61	257.46
500.79	187.24
500.97	250.44
501.14	264.48
501.32	318.31
501.49	241.08
501.67	238.73
501.84	234.05
502.02	184.90
502.20	290.23
502.37	271.50
502.55	224.69
502.72	252.78
502.90	224.69
503.07	259.80
503.25	269.16
503.43	271.50
503.60	250.44
503.78	243.42
503.95	175.54
504.13	201.29
504.30	198.95
504.48	259.80
504.65	283.20
504.83	264.48
505.01	252.78
505.18	271.50
505.36	271.50
505.53	196.60
505.71	243.42
505.88	292.57
506.06	220.01
506.23	243.42
506.41	224.69
506.58	182.56
506.76	255.12
506.93	278.52
507.11	215.33
507.28	283.20
507.46	259.80
507.63	201.29
507.81	259.80
507.98	276.18
508.16	250.44
508.33	215.33
508.50	306.61
508.68	304.27
508.85	294.91
509.03	306.61
509.20	259.80
509.38	269.16
509.55	243.42
509.73	341.72
509.90	299.59
510.08	222.35
510.25	255.12
510.42	264.48
510.60	238.73
510.77	273.84
510.95	304.27
511.12	257.46
511.30	355.76
511.47	245.76
511.64	346.40
511.82	245.76
511.99	264.48
512.17	184.90
512.34	217.67
512.51	339.38
512.69	304.27
512.86	318.31
513.04	271.50
513.21	334.70
513.38	269.16
513.56	271.50
513.73	252.78
513.90	210.65
514.08	229.37
514.25	271.50
514.43	273.84
514.60	222.35
514.77	210.65
514.95	255.12
515.12	259.80
515.29	229.37
515.47	301.93
515.64	290.23
515.81	229.37
515.99	285.55
516.16	287.89
516.33	299.59
516.51	217.67
516.68	196.60
516.85	222.35
517.03	280.86
517.20	278.52
517.37	229.37
517.54	304.27
517.72	205.97
517.89	241.08
518.06	250.44
518.24	315.97
518.41	308.95
518.58	292.57
518.75	283.20
518.93	245.76
519.10	287.89
519.27	278.52
519.45	266.82
519.62	304.27
519.79	315.97
519.96	191.92
520.14	362.78
520.31	231.71
520.48	238.73
520.65	266.82
520.83	311.29
521.00	285.55
521.17	283.20
521.34	266.82
521.52	217.67
521.69	220.01
521.86	276.18
522.03	280.86
522.20	287.89
522.38	231.71
522.55	276.18
522.72	224.69
522.89	252.78
523.07	358.10
523.24	283.20
523.41	264.48
523.58	241.08
523.75	269.16
523.92	278.52
524.10	264.48
524.27	283.20
524.44	273.84
524.61	252.78
524.78	210.65
524.96	290.23
525.13	196.60
525.30	252.78
525.47	287.89
525.64	224.69
525.81	264.48
525.98	217.67
526.16	304.27
526.33	224.69
526.50	208.31
526.67	217.67
526.84	238.73
527.01	285.55
527.18	276.18
527.36	187.24
527.53	234.05
527.70	304.27
527.87	332.36
528.04	280.86
528.21	280.86
528.38	292.57
528.55	330.02
528.72	320.65
528.89	276.18
529.07	287.89
529.24	269.16
529.41	262.14
529.58	220.01
529.75	248.10
529.92	201.29
530.09	273.84
530.26	280.86
530.43	304.27
530.60	341.72
530.77	283.20
530.94	374.49
531.11	308.95
531.28	220.01
531.46	266.82
531.63	203.63
531.80	294.91
531.97	191.92
532.14	257.46
532.31	243.42
532.48	290.23
532.65	407.25
532.82	280.86
532.99	386.19
533.16	311.29
533.33	358.10
533.50	353.42
533.67	306.61
533.84	297.25
534.01	393.21
534.18	341.72
534.35	262.14
534.52	362.78
534.69	318.31
534.86	297.25
535.03	255.12
535.20	241.08
535.37	292.57
535.54	290.23
535.71	273.84
535.88	266.82
536.05	283.20
536.22	353.42
536.38	257.46
536.55	311.29
536.72	409.59
536.89	264.48
537.06	201.29
537.23	271.50
537.40	311.29
537.57	266.82
537.74	379.17
537.91	369.80
538.08	337.04
538.25	372.15
538.42	301.93
538.59	353.42
538.75	334.70
538.92	304.27
539.09	327.68
539.26	344.06
539.43	507.90
539.60	912.81
539.77	1053.24
539.94	1055.58
540.11	751.31
540.28	606.20
540.44	528.96
540.61	395.55
540.78	451.72
540.95	491.51
541.12	524.28
541.29	510.24
541.46	496.19
541.62	425.98
541.79	496.19
541.96	517.26
542.13	500.87
542.30	484.49
542.47	449.38
542.63	496.19
542.80	404.91
542.97	491.51
543.14	475.13
543.31	484.49
543.48	451.72
543.64	526.62
543.81	500.87
543.98	468.11
544.15	458.74
544.32	444.70
544.48	451.72
544.65	493.85
544.82	507.90
544.99	458.74
545.16	496.19
545.32	477.47
545.49	772.38
545.66	884.72
545.83	947.92
546.00	784.08
546.16	643.65
546.33	629.60
546.50	489.17
546.67	482.15
546.83	449.38
547.00	461.09
547.17	435.34
547.34	433.00
547.50	390.87
547.67	367.46
547.84	416.62
548.00	390.87
548.17	447.04
548.34	339.38
548.51	416.62
548.67	411.93
548.84	428.32
549.01	344.06
549.18	320.65
549.34	433.00
549.51	306.61
549.68	308.95
549.84	376.83
550.01	280.86
550.18	418.96
550.34	402.57
550.51	313.63
550.68	318.31
550.84	292.57
551.01	372.15
551.18	264.48
551.34	285.55
551.51	269.16
551.68	388.53
551.84	355.76
552.01	318.31
552.18	224.69
552.34	337.04
552.51	308.95
552.68	308.95
552.84	297.25
553.01	308.95
553.18	362.78
553.34	318.31
553.51	220.01
553.67	297.25
553.84	339.38
554.01	313.63
554.17	285.55
554.34	332.36
554.51	372.15
554.67	248.10
554.84	297.25
555.00	273.84
555.17	241.08
555.33	243.42
555.50	259.80
555.67	332.36
555.83	269.16
556.00	304.27
556.16	496.19
556.33	266.82
556.50	341.72
556.66	287.89
556.83	273.84
556.99	266.82
557.16	313.63
557.32	259.80
557.49	217.67
557.65	271.50
557.82	245.76
557.98	348.74
558.15	231.71
558.32	234.05
558.48	280.86
558.65	264.48
558.81	238.73
558.98	269.16
559.14	304.27
559.31	248.10
559.47	245.76
559.64	257.46
559.80	257.46
559.97	262.14
560.13	220.01
560.30	243.42
560.46	241.08
560.63	292.57
560.79	245.76
560.96	245.76
561.12	271.50
561.29	292.57
561.45	306.61
561.61	257.46
561.78	308.95
561.94	217.67
562.11	245.76
562.27	252.78
562.44	248.10
562.60	196.60
562.77	241.08
562.93	318.31
563.10	278.52
563.26	290.23
563.42	269.16
563.59	304.27
563.75	299.59
563.92	318.31
564.08	280.86
564.24	362.78
564.41	299.59
564.57	252.78
564.74	322.99
564.90	287.89
565.07	259.80
565.23	276.18
565.39	231.71
565.56	278.52
565.72	182.56
565.88	238.73
566.05	276.18
566.21	276.18
566.38	266.82
566.54	245.76
566.70	215.33
566.87	238.73
567.03	255.12
567.19	294.91
567.36	330.02
567.52	245.76
567.68	264.48
567.85	243.42
568.01	264.48
568.17	215.33
568.34	278.52
568.50	255.12
568.66	285.55
568.83	337.04
568.99	283.20
569.15	308.95
569.32	222.35
569.48	222.35
569.64	271.50
569.81	287.89
569.97	301.93
570.13	276.18
570.30	222.35
570.46	198.95
570.62	243.42
570.78	198.95
570.95	255.12
571.11	285.55
571.27	257.46
571.43	198.95
571.60	229.37
571.76	245.76
571.92	248.10
572.09	273.84
572.25	255.12
572.41	217.67
572.57	294.91
572.74	278.52
572.90	222.35
573.06	273.84
573.22	264.48
573.38	327.68
573.55	250.44
573.71	341.72
573.87	255.12
574.03	264.48
574.20	250.44
574.36	311.29
574.52	292.57
574.68	327.68
574.84	325.33
575.01	266.82
575.17	245.76
575.33	250.44
575.49	304.27
575.65	313.63
575.82	365.12
575.98	491.51
576.14	578.11
576.30	568.75
576.46	524.28
576.62	486.83
576.79	477.47
576.95	437.68
577.11	259.80
577.27	334.70
577.43	304.27
577.59	315.97
577.75	299.59
577.92	264.48
578.08	285.55
578.24	273.84
578.40	332.36
578.56	386.19
578.72	496.19
578.88	468.11
579.04	360.44
579.21	397.89
579.37	348.74
579.53	341.72
579.69	313.63
579.85	322.99
580.01	395.55
580.17	369.80
580.33	353.42
580.49	393.21
580.65	444.70
580.82	327.68
580.98	355.76
581.14	297.25
581.30	367.46
581.46	414.27
581.62	437.68
581.78	524.28
581.94	521.94
582.10	407.25
582.26	440.02
582.42	451.72
582.58	447.04
582.74	425.98
582.90	486.83
583.06	430.66
583.22	381.51
583.38	414.27
583.54	514.92
583.70	524.28
583.86	505.56
584.02	613.22
584.18	727.91
584.34	847.27
584.50	2139.25
584.66	14618.99
584.82	36659.81
584.98	48240.78
585.14	42691.37
585.30	26565.08
585.46	16285.45
585.62	10246.87
585.78	4741.93
585.94	2127.55
586.10	1114.10
586.26	763.01
586.42	741.95
586.58	566.41
586.74	517.26
586.90	566.41
587.06	517.26
587.22	517.26
587.38	496.19
587.54	929.19
587.70	2312.45
587.86	3466.33
588.02	3562.30
588.18	2705.66
588.34	1874.77
588.49	1231.12
588.65	692.80
588.81	528.96
588.97	449.38
589.13	348.74
589.29	346.40
589.45	325.33
589.61	327.68
589.77	395.55
589.93	374.49
590.08	456.40
590.24	390.87
590.40	425.98
590.56	423.64
590.72	388.53
590.88	351.08
591.04	339.38
591.20	332.36
591.35	402.57
591.51	395.55
591.67	271.50
591.83	337.04
591.99	372.15
592.15	322.99
592.31	351.08
592.46	255.12
592.62	351.08
592.78	388.53
592.94	386.19
593.10	250.44
593.26	311.29
593.41	365.12
593.57	322.99
593.73	454.06
593.89	1970.73
594.05	4564.04
594.20	6270.30
594.36	5795.17
594.52	3789.33
594.68	2335.85
594.84	1696.89
594.99	1039.20
595.15	585.13
595.31	395.55
595.47	379.17
595.62	248.10
595.78	346.40
595.94	229.37
596.10	400.23
596.25	369.80
596.41	414.27
596.57	311.29
596.73	353.42
596.88	442.36
597.04	994.73
597.20	1444.11
597.36	1629.01
597.51	1256.87
597.67	800.46
597.83	695.14
597.99	624.92
598.14	355.76
598.30	369.80
598.46	362.78
598.61	383.85
598.77	365.12
598.93	360.44
599.09	348.74
599.24	344.06
599.40	311.29
599.56	308.95
599.71	287.89
599.87	346.40
600.03	330.02
600.18	280.86
600.34	358.10
600.50	266.82
600.65	215.33
600.81	292.57
600.97	292.57
601.12	269.16
601.28	278.52
601.44	278.52
601.59	257.46
601.75	299.59
601.91	252.78
602.06	241.08
602.22	411.93
602.37	608.54
602.53	1146.86
602.69	1593.90
602.84	1717.95
603.00	1320.06
603.16	933.87
603.31	767.70
603.47	475.13
603.62	311.29
603.78	390.87
603.94	287.89
604.09	327.68
604.25	264.48
604.40	367.46
604.56	278.52
604.71	397.89
604.87	341.72
605.03	252.78
605.18	322.99
605.34	337.04
605.49	322.99
605.65	416.62
605.80	285.55
605.96	395.55
606.12	306.61
606.27	355.76
606.43	341.72
606.58	416.62
606.74	615.56
606.89	2200.10
607.05	4138.07
607.20	5137.48
607.36	4322.97
607.51	2970.14
607.67	1998.82
607.82	1453.47
607.98	866.00
608.13	521.94
608.29	421.30
608.44	477.47
608.60	416.62
608.75	514.92
608.91	978.34
609.06	3489.74
609.22	6979.48
609.37	8919.78
609.53	7721.43
609.68	5280.25
609.84	3459.31
609.99	2459.90
610.15	1626.67
610.30	985.37
610.46	739.61
610.61	788.76
610.76	908.13
610.92	1036.86
611.07	1043.88
611.23	1142.18
611.38	1093.03
611.54	931.53
611.69	765.36
611.84	706.84
612.00	657.69
612.15	608.54
612.31	678.76
612.46	653.01
612.62	723.23
612.77	746.63
612.92	664.71
613.08	610.88
613.23	592.16
613.39	517.26
613.54	706.84
613.69	3297.81
613.85	8884.67
614.00	13406.59
614.15	13825.54
614.31	9792.80
614.46	6623.72
614.62	4681.07
614.77	2829.71
614.92	1430.07
615.08	777.06
615.23	533.64
615.38	493.85
615.54	479.81
615.69	748.97
615.84	1834.98
616.00	3215.90
616.15	3733.15
616.30	3148.02
616.46	2209.47
616.61	1469.86
616.76	1048.56
616.92	746.63
617.07	442.36
617.22	355.76
617.37	348.74
617.53	332.36
617.68	386.19
617.83	365.12
617.99	472.79
618.14	449.38
618.29	376.83
618.45	315.97
618.60	257.46
618.75	264.48
618.90	330.02
619.06	259.80
619.21	306.61
619.36	332.36
619.51	308.95
619.67	306.61
619.82	299.59
619.97	322.99
620.12	327.68
620.28	315.97
620.43	369.80
620.58	332.36
620.73	334.70
620.89	404.91
621.04	456.40
621.19	1118.78
621.34	1872.43
621.49	2204.78
621.65	2008.18
621.80	1472.20
621.95	1165.59
622.10	758.33
622.25	585.13
622.41	341.72
622.56	344.06
622.71	397.89
622.86	334.70
623.01	238.73
623.16	332.36
623.32	264.48
623.47	320.65
623.62	351.08
623.77	250.44
623.92	278.52
624.07	269.16
624.23	313.63
624.38	297.25
624.53	332.36
624.68	287.89
624.83	332.36
624.98	325.33
625.13	325.33
625.29	404.91
625.44	276.18
625.59	360.44
625.74	332.36
625.89	402.57
626.04	1523.69
626.19	4285.52
626.34	6588.61
626.49	6977.14
626.65	5146.84
626.80	3705.07
626.95	2593.31
627.10	1624.33
627.25	898.77
627.40	493.85
627.55	388.53
627.70	264.48
627.85	306.61
628.00	259.80
628.15	318.31
628.30	278.52
628.45	271.50
628.60	241.08
628.76	259.80
628.91	278.52
629.06	341.72
629.21	238.73
629.36	346.40
629.51	250.44
629.66	362.78
629.81	351.08
629.96	968.98
630.11	1640.72
630.26	1996.48
630.41	1935.62
630.56	1472.20
630.71	985.37
630.86	779.40
631.01	578.11
631.16	444.70
631.31	428.32
631.46	299.59
631.61	346.40
631.76	283.20
631.91	245.76
632.06	334.70
632.21	245.76
632.36	318.31
632.51	339.38
632.66	402.57
632.81	788.76
632.96	2469.27
633.10	4231.69
633.25	4954.91
633.40	3920.40
633.55	2850.77
633.70	1912.22
633.85	1432.41
634.00	781.74
634.15	498.53
634.30	304.27
634.45	297.25
634.60	229.37
634.75	234.05
634.90	292.57
635.05	273.84
635.19	154.48
635.34	304.27
635.49	273.84
635.64	306.61
635.79	222.35
635.94	285.55
636.09	320.65
636.24	229.37
636.39	278.52
636.53	330.02
636.68	308.95
636.83	304.27
636.98	381.51
637.13	332.36
637.28	269.16
637.43	344.06
637.57	465.77
637.72	2073.71
637.87	5591.54
638.02	8203.58
638.17	8947.87
638.32	6773.51
638.46	4542.98
638.61	3218.24
638.76	1975.41
638.91	1034.52
639.06	610.88
639.20	519.60
639.35	484.49
639.50	739.61
639.65	3096.53
639.80	8379.12
639.94	12533.57
640.09	13687.45
640.24	10525.39
640.39	7007.56
640.54	4842.57
640.68	2958.44
640.83	1540.07
640.98	858.98
641.13	468.11
641.27	358.10
641.42	341.72
641.57	376.83
641.72	390.87
641.86	372.15
642.01	344.06
642.16	320.65
642.31	315.97
642.45	283.20
642.60	358.10
642.75	294.91
642.90	156.82
643.04	175.54
643.19	191.92
643.34	257.46
643.48	196.60
643.63	248.10
643.78	236.39
643.93	238.73
644.07	264.48
644.22	168.52
644.37	203.63
644.51	217.67
644.66	334.70
644.81	313.63
644.95	278.52
645.10	224.69
645.25	229.37
645.39	308.95
645.54	210.65
645.69	315.97
645.83	231.71
645.98	238.73
646.13	210.65
646.27	292.57
646.42	255.12
646.57	231.71
646.71	189.58
646.86	259.80
647.00	177.88
647.15	306.61
647.30	222.35
647.44	280.86
647.59	191.92
647.74	166.18
647.88	243.42
648.03	229.37
648.17	220.01
648.32	241.08
648.47	280.86
648.61	245.76
648.76	248.10
648.90	217.67
649.05	285.55
649.20	276.18
649.34	224.69
649.49	208.31
649.63	236.39
649.78	273.84
649.92	402.57
650.07	1247.51
650.21	3592.72
650.36	5884.11
650.51	6965.43
650.65	5888.79
650.80	4369.78
650.94	2846.09
651.09	1802.21
651.23	971.32
651.38	533.64
651.52	458.74
651.67	238.73
651.81	369.80
651.96	299.59
652.10	205.97
652.25	173.20
652.39	283.20
652.54	266.82
652.68	425.98
652.83	1205.38
652.97	2064.35
653.12	2644.81
653.26	2298.41
653.41	1755.40
653.55	1313.04
653.70	828.55
653.84	557.05
653.99	367.46
654.13	222.35
654.27	203.63
654.42	306.61
654.56	299.59
654.71	250.44
654.85	224.69
655.00	241.08
655.14	198.95
655.29	243.42
655.43	196.60
655.57	166.18
655.72	156.82
655.86	173.20
656.01	248.10
656.15	163.84
656.30	187.24
656.44	114.69
656.58	215.33
656.73	215.33
656.87	234.05
657.01	222.35
657.16	182.56
657.30	231.71
657.45	320.65
657.59	241.08
657.73	262.14
657.88	248.10
658.02	337.04
658.16	259.80
658.31	173.20
658.45	180.22
658.60	203.63
658.74	262.14
658.88	243.42
659.03	266.82
659.17	259.80
659.31	631.94
659.46	1795.19
659.60	2925.67
659.74	3492.08
659.89	3171.43
660.03	2495.01
660.17	1720.29
660.32	1142.18
660.46	702.16
660.60	475.13
660.74	320.65
660.89	285.55
661.03	250.44
661.17	320.65
661.32	271.50
661.46	231.71
661.60	229.37
661.74	184.90
661.89	252.78
662.03	236.39
662.17	283.20
662.31	266.82
662.46	271.50
662.60	234.05
662.74	271.50
662.88	177.88
663.03	234.05
663.17	245.76
663.31	194.26
663.45	222.35
663.60	210.65
663.74	248.10
663.88	180.22
664.02	166.18
664.17	231.71
664.31	208.31
664.45	198.95
664.59	177.88
664.73	271.50
664.88	255.12
665.02	224.69
665.16	255.12
665.30	191.92
665.44	208.31
665.59	243.42
665.73	243.42
665.87	184.90
666.01	224.69
666.15	259.80
666.29	250.44
666.44	269.16
666.58	273.84
666.72	259.80
666.86	238.73
667.00	351.08
667.14	341.72
667.28	1186.65
667.43	3098.87
667.57	5062.58
667.71	6200.08
667.85	5228.76
667.99	3969.55
668.13	2450.54
668.27	1547.09
668.41	821.53
668.56	498.53
668.70	510.24
668.84	388.53
668.98	332.36
669.12	236.39
669.26	241.08
669.40	187.24
669.54	271.50
669.68	315.97
669.82	224.69
669.96	229.37
670.10	189.58
670.25	234.05
670.39	252.78
670.53	222.35
670.67	250.44
670.81	198.95
670.95	273.84
671.09	381.51
671.23	1226.44
671.37	2644.81
671.51	3672.30
671.65	3918.06
671.79	3138.66
671.93	2101.80
672.07	1371.55
672.21	814.51
672.35	531.30
672.49	433.00
672.63	332.36
672.77	290.23
672.91	273.84
673.05	205.97
673.19	241.08
673.33	271.50
673.47	269.16
673.61	203.63
673.75	163.84
673.89	147.45
674.03	241.08
674.17	234.05
674.31	196.60
674.45	201.29
674.59	269.16
674.73	159.16
674.87	205.97
675.01	278.52
675.15	238.73
675.29	273.84
675.43	255.12
675.56	187.24
675.70	344.06
675.84	238.73
675.98	238.73
676.12	149.79
676.26	201.29
676.40	133.41
676.54	215.33
676.68	175.54
676.82	166.18
676.96	191.92
677.10	198.95
677.23	140.43
677.37	201.29
677.51	173.20
677.65	294.91
677.79	138.09
677.93	175.54
678.07	222.35
678.21	182.56
678.34	245.76
678.48	124.05
678.62	152.13
678.76	138.09
678.90	205.97
679.04	145.11
679.18	259.80
679.31	229.37
679.45	170.86
679.59	201.29
679.73	170.86
679.87	252.78
680.00	168.52
680.14	124.05
680.28	147.45
680.42	114.69
680.56	196.60
680.70	177.88
680.83	210.65
680.97	126.39
681.11	220.01
681.25	205.97
681.39	220.01
681.52	222.35
681.66	184.90
681.80	194.26
681.94	112.35
682.07	131.07
682.21	189.58
682.35	191.92
682.49	191.92
682.62	159.16
682.76	189.58
682.90	227.03
683.04	184.90
683.17	187.24
683.31	196.60
683.45	201.29
683.59	255.12
683.72	212.99
683.86	191.92
684.00	238.73
684.13	224.69
684.27	180.22
684.41	210.65
684.55	152.13
684.68	156.82
684.82	215.33
684.96	205.97
685.09	220.01
685.23	145.11
685.37	205.97
685.50	154.48
685.64	170.86
685.78	147.45
685.91	245.76
686.05	180.22
686.19	152.13
686.32	145.11
686.46	154.48
686.60	194.26
686.73	222.35
686.87	252.78
687.01	191.92
687.14	234.05
687.28	184.90
687.42	135.75
687.55	250.44
687.69	191.92
687.82	156.82
687.96	175.54
688.10	224.69
688.23	215.33
688.37	236.39
688.50	222.35
688.64	215.33
688.78	182.56
688.91	147.45
689.05	105.32
689.18	110.01
689.32	161.50
689.46	217.67
689.59	138.09
689.73	201.29
689.86	173.20
690.00	138.09
690.13	140.43
690.27	255.12
690.41	182.56
690.54	189.58
690.68	180.22
690.81	161.50
690.95	184.90
691.08	177.88
691.22	159.16
691.35	224.69
691.49	208.31
691.62	248.10
691.76	229.37
691.89	227.03
692.03	203.63
692.16	208.31
692.30	212.99
692.43	465.77
692.57	1380.92
692.70	2132.23
692.84	2693.96
692.97	2305.43
693.11	1797.53
693.24	1451.13
693.38	929.19
693.51	688.12
693.65	528.96
693.78	337.04
693.92	283.20
694.05	280.86
694.19	208.31
694.32	215.33
694.45	184.90
694.59	107.66
694.72	248.10
694.86	147.45
694.99	152.13
695.13	175.54
695.26	198.95
695.39	98.30
695.53	241.08
695.66	196.60
695.80	170.86
695.93	159.16
696.07	124.05
696.20	210.65
696.33	330.02
696.47	400.23
696.60	376.83
696.73	266.82
696.87	201.29
697.00	259.80
697.14	177.88
697.27	173.20
697.40	283.20
697.54	182.56
697.67	222.35
697.80	177.88
697.94	149.79
698.07	187.24
698.21	117.03
698.34	107.66
698.47	149.79
698.61	145.11
698.74	114.69
698.87	135.75
699.01	140.43
699.14	140.43
699.27	149.79
699.40	212.99
699.54	210.65
699.67	224.69
699.80	259.80
699.94	196.60
700.07	128.73
700.20	126.39
700.34	163.84
700.47	133.41
700.60	95.96
700.73	255.12
700.87	208.31
701.00	138.09
701.13	159.16
701.26	154.48
701.40	215.33
701.53	152.13
701.66	173.20
701.79	182.56
701.93	177.88
702.06	248.10
702.19	341.72
702.32	381.51
702.46	318.31
702.59	287.89
702.72	634.29
702.85	1593.90
702.99	3358.67
703.12	4662.35
703.25	5039.17
703.38	4599.15
703.51	3515.48
703.65	2801.62
703.78	1870.09
703.91	1254.53
704.04	919.83
704.17	533.64
704.31	337.04
704.44	320.65
704.57	212.99
704.70	212.99
704.83	201.29
704.96	152.13
705.10	201.29
705.23	163.84
>>>>>End Processed Spectral Data<<<<<
