SpectraSuite Data File
++++++++++++++++++++++++++++++++++++
Date: Fri Oct 04 11:33:57 GMT-05:00 2013
User: price-jones
Dark Spectrum Present: No
Reference Spectrum Present: No
Number of Sampled Component Spectra: 1
Spectrometers: USB2+H05261
Integration Time (usec): 100000 (USB2+H05261)
Spectra Averaged: 1 (USB2+H05261)
Boxcar Smoothing: 0 (USB2+H05261)
Correct for Electrical Dark: No (USB2+H05261)
Strobe/Lamp Enabled: No (USB2+H05261)
Correct for Detector Non-linearity: No (USB2+H05261)
Correct for Stray Light: No (USB2+H05261)
Number of Pixels in Processed Spectrum: 2048
>>>>>Begin Processed Spectral Data<<<<<
365.73	58.51
365.92	58.51
366.12	58.51
366.32	0.00
366.52	0.00
366.72	28.09
366.91	0.00
367.11	0.00
367.31	0.00
367.51	0.00
367.70	0.00
367.90	0.00
368.10	0.00
368.30	0.00
368.49	0.00
368.69	0.00
368.89	4.68
369.09	0.00
369.28	0.00
369.48	63.19
369.68	0.00
369.87	0.00
370.07	7.02
370.27	79.58
370.47	4.68
370.66	39.79
370.86	32.77
371.06	100.64
371.25	271.50
371.45	145.11
371.65	67.88
371.84	88.94
372.04	194.26
372.24	152.13
372.44	154.48
372.63	86.60
372.83	191.92
373.03	140.43
373.22	189.58
373.42	112.35
373.62	128.73
373.81	196.60
374.01	128.73
374.21	201.29
374.40	142.77
374.60	107.66
374.79	117.03
374.99	81.92
375.19	147.45
375.38	119.37
375.58	88.94
375.78	88.94
375.97	147.45
376.17	252.78
376.37	198.95
376.56	152.13
376.76	105.32
376.95	110.01
377.15	124.05
377.35	112.35
377.54	121.71
377.74	124.05
377.93	198.95
378.13	152.13
378.33	187.24
378.52	215.33
378.72	152.13
378.91	189.58
379.11	212.99
379.31	112.35
379.50	166.18
379.70	166.18
379.89	205.97
380.09	128.73
380.28	98.30
380.48	154.48
380.68	149.79
380.87	166.18
381.07	131.07
381.26	161.50
381.46	170.86
381.65	177.88
381.85	168.52
382.04	161.50
382.24	149.79
382.43	140.43
382.63	67.88
382.83	152.13
383.02	93.62
383.22	147.45
383.41	152.13
383.61	154.48
383.80	173.20
384.00	159.16
384.19	112.35
384.39	81.92
384.58	152.13
384.78	117.03
384.97	142.77
385.17	121.71
385.36	198.95
385.56	187.24
385.75	184.90
385.95	131.07
386.14	133.41
386.34	131.07
386.53	145.11
386.72	126.39
386.92	166.18
387.11	184.90
387.31	212.99
387.50	142.77
387.70	98.30
387.89	161.50
388.09	154.48
388.28	67.88
388.48	39.79
388.67	180.22
388.86	168.52
389.06	187.24
389.25	194.26
389.45	149.79
389.64	133.41
389.84	187.24
390.03	42.13
390.22	117.03
390.42	159.16
390.61	187.24
390.81	114.69
391.00	126.39
391.19	177.88
391.39	124.05
391.58	156.82
391.78	163.84
391.97	93.62
392.16	152.13
392.36	126.39
392.55	166.18
392.75	138.09
392.94	142.77
393.13	180.22
393.33	152.13
393.52	119.37
393.71	175.54
393.91	210.65
394.10	145.11
394.29	184.90
394.49	215.33
394.68	229.37
394.88	177.88
395.07	156.82
395.26	131.07
395.46	63.19
395.65	159.16
395.84	140.43
396.04	231.71
396.23	215.33
396.42	173.20
396.62	191.92
396.81	163.84
397.00	168.52
397.19	102.98
397.39	191.92
397.58	180.22
397.77	166.18
397.97	81.92
398.16	163.84
398.35	140.43
398.55	133.41
398.74	187.24
398.93	201.29
399.12	187.24
399.32	177.88
399.51	173.20
399.70	177.88
399.90	189.58
400.09	175.54
400.28	234.05
400.47	187.24
400.67	238.73
400.86	154.48
401.05	191.92
401.24	187.24
401.44	224.69
401.63	145.11
401.82	205.97
402.01	154.48
402.21	147.45
402.40	105.32
402.59	222.35
402.78	173.20
402.97	159.16
403.17	175.54
403.36	110.01
403.55	142.77
403.74	196.60
403.93	224.69
404.13	243.42
404.32	184.90
404.51	196.60
404.70	210.65
404.89	173.20
405.09	138.09
405.28	159.16
405.47	91.28
405.66	114.69
405.85	231.71
406.05	196.60
406.24	201.29
406.43	180.22
406.62	147.45
406.81	159.16
407.00	168.52
407.20	152.13
407.39	203.63
407.58	173.20
407.77	110.01
407.96	229.37
408.15	196.60
408.34	168.52
408.54	224.69
408.73	74.90
408.92	191.92
409.11	173.20
409.30	201.29
409.49	161.50
409.68	133.41
409.87	168.52
410.07	196.60
410.26	147.45
410.45	222.35
410.64	159.16
410.83	198.95
411.02	147.45
411.21	135.75
411.40	166.18
411.59	159.16
411.78	131.07
411.98	145.11
412.17	168.52
412.36	208.31
412.55	145.11
412.74	159.16
412.93	212.99
413.12	149.79
413.31	217.67
413.50	175.54
413.69	182.56
413.88	212.99
414.07	152.13
414.26	156.82
414.45	145.11
414.64	227.03
414.83	156.82
415.02	88.94
415.22	163.84
415.41	271.50
415.60	170.86
415.79	142.77
415.98	166.18
416.17	182.56
416.36	149.79
416.55	236.39
416.74	187.24
416.93	215.33
417.12	201.29
417.31	147.45
417.50	177.88
417.69	173.20
417.88	262.14
418.07	168.52
418.26	208.31
418.45	220.01
418.64	271.50
418.83	208.31
419.02	166.18
419.21	259.80
419.39	191.92
419.58	191.92
419.77	262.14
419.96	241.08
420.15	152.13
420.34	142.77
420.53	77.24
420.72	128.73
420.91	105.32
421.10	128.73
421.29	159.16
421.48	124.05
421.67	187.24
421.86	117.03
422.05	149.79
422.24	177.88
422.43	173.20
422.61	205.97
422.80	215.33
422.99	196.60
423.18	138.09
423.37	175.54
423.56	180.22
423.75	196.60
423.94	217.67
424.13	163.84
424.32	98.30
424.50	154.48
424.69	149.79
424.88	168.52
425.07	168.52
425.26	201.29
425.45	248.10
425.64	299.59
425.83	271.50
426.01	212.99
426.20	147.45
426.39	198.95
426.58	180.22
426.77	243.42
426.96	245.76
427.15	191.92
427.33	180.22
427.52	166.18
427.71	159.16
427.90	208.31
428.09	159.16
428.28	182.56
428.46	201.29
428.65	220.01
428.84	154.48
429.03	128.73
429.22	163.84
429.40	177.88
429.59	145.11
429.78	271.50
429.97	159.16
430.16	182.56
430.34	184.90
430.53	175.54
430.72	138.09
430.91	201.29
431.10	212.99
431.28	220.01
431.47	210.65
431.66	156.82
431.85	180.22
432.03	175.54
432.22	210.65
432.41	159.16
432.60	227.03
432.79	220.01
432.97	273.84
433.16	243.42
433.35	229.37
433.54	278.52
433.72	229.37
433.91	173.20
434.10	182.56
434.28	238.73
434.47	224.69
434.66	222.35
434.85	224.69
435.03	201.29
435.22	376.83
435.41	554.71
435.59	379.17
435.78	341.72
435.97	196.60
436.16	217.67
436.34	170.86
436.53	166.18
436.72	198.95
436.90	241.08
437.09	138.09
437.28	191.92
437.46	166.18
437.65	285.55
437.84	215.33
438.02	194.26
438.21	248.10
438.40	159.16
438.58	168.52
438.77	142.77
438.96	128.73
439.14	210.65
439.33	266.82
439.52	196.60
439.70	191.92
439.89	259.80
440.08	187.24
440.26	166.18
440.45	205.97
440.63	182.56
440.82	173.20
441.01	203.63
441.19	93.62
441.38	145.11
441.57	140.43
441.75	229.37
441.94	203.63
442.12	203.63
442.31	212.99
442.50	121.71
442.68	147.45
442.87	126.39
443.05	138.09
443.24	198.95
443.43	161.50
443.61	222.35
443.80	231.71
443.98	201.29
444.17	175.54
444.35	276.18
444.54	119.37
444.73	208.31
444.91	196.60
445.10	269.16
445.28	182.56
445.47	184.90
445.65	212.99
445.84	161.50
446.02	131.07
446.21	175.54
446.39	264.48
446.58	278.52
446.77	205.97
446.95	203.63
447.14	180.22
447.32	194.26
447.51	224.69
447.69	182.56
447.88	215.33
448.06	220.01
448.25	175.54
448.43	145.11
448.62	208.31
448.80	191.92
448.99	170.86
449.17	187.24
449.36	173.20
449.54	124.05
449.73	138.09
449.91	156.82
450.10	163.84
450.28	255.12
450.46	259.80
450.65	173.20
450.83	189.58
451.02	208.31
451.20	196.60
451.39	184.90
451.57	234.05
451.76	175.54
451.94	133.41
452.13	205.97
452.31	238.73
452.49	205.97
452.68	142.77
452.86	187.24
453.05	215.33
453.23	177.88
453.42	140.43
453.60	173.20
453.78	194.26
453.97	189.58
454.15	203.63
454.34	189.58
454.52	189.58
454.70	220.01
454.89	210.65
455.07	205.97
455.26	234.05
455.44	212.99
455.62	180.22
455.81	189.58
455.99	152.13
456.17	234.05
456.36	152.13
456.54	215.33
456.73	208.31
456.91	170.86
457.09	210.65
457.28	191.92
457.46	245.76
457.64	156.82
457.83	149.79
458.01	203.63
458.19	212.99
458.38	201.29
458.56	220.01
458.74	231.71
458.93	187.24
459.11	161.50
459.29	234.05
459.48	180.22
459.66	250.44
459.84	145.11
460.03	273.84
460.21	215.33
460.39	198.95
460.57	189.58
460.76	147.45
460.94	159.16
461.12	189.58
461.31	262.14
461.49	140.43
461.67	98.30
461.85	222.35
462.04	208.31
462.22	571.09
462.40	189.58
462.59	248.10
462.77	138.09
462.95	203.63
463.13	173.20
463.32	170.86
463.50	161.50
463.68	257.46
463.86	203.63
464.05	187.24
464.23	196.60
464.41	177.88
464.59	142.77
464.78	238.73
464.96	198.95
465.14	224.69
465.32	159.16
465.50	152.13
465.69	212.99
465.87	147.45
466.05	210.65
466.23	107.66
466.41	187.24
466.60	177.88
466.78	231.71
466.96	271.50
467.14	187.24
467.32	114.69
467.51	224.69
467.69	205.97
467.87	229.37
468.05	187.24
468.23	203.63
468.41	205.97
468.60	234.05
468.78	177.88
468.96	212.99
469.14	173.20
469.32	149.79
469.50	163.84
469.69	198.95
469.87	212.99
470.05	245.76
470.23	208.31
470.41	145.11
470.59	224.69
470.77	196.60
470.95	189.58
471.14	313.63
471.32	255.12
471.50	227.03
471.68	236.39
471.86	220.01
472.04	234.05
472.22	234.05
472.40	184.90
472.58	184.90
472.77	234.05
472.95	301.93
473.13	187.24
473.31	196.60
473.49	227.03
473.67	161.50
473.85	224.69
474.03	222.35
474.21	236.39
474.39	227.03
474.57	198.95
474.75	203.63
474.93	208.31
475.12	212.99
475.30	156.82
475.48	203.63
475.66	243.42
475.84	191.92
476.02	180.22
476.20	198.95
476.38	252.78
476.56	287.89
476.74	224.69
476.92	245.76
477.10	308.95
477.28	224.69
477.46	259.80
477.64	198.95
477.82	170.86
478.00	166.18
478.18	187.24
478.36	215.33
478.54	255.12
478.72	159.16
478.90	229.37
479.08	250.44
479.26	229.37
479.44	259.80
479.62	175.54
479.80	168.52
479.98	194.26
480.16	187.24
480.34	234.05
480.52	205.97
480.70	290.23
480.88	224.69
481.06	229.37
481.24	187.24
481.41	215.33
481.59	168.52
481.77	220.01
481.95	205.97
482.13	292.57
482.31	234.05
482.49	224.69
482.67	236.39
482.85	278.52
483.03	241.08
483.21	180.22
483.39	227.03
483.57	250.44
483.74	285.55
483.92	196.60
484.10	304.27
484.28	271.50
484.46	297.25
484.64	205.97
484.82	252.78
485.00	208.31
485.18	227.03
485.35	280.86
485.53	241.08
485.71	285.55
485.89	227.03
486.07	189.58
486.25	262.14
486.43	234.05
486.61	215.33
486.78	292.57
486.96	191.92
487.14	217.67
487.32	224.69
487.50	278.52
487.68	276.18
487.85	273.84
488.03	322.99
488.21	248.10
488.39	241.08
488.57	269.16
488.75	208.31
488.92	484.49
489.10	257.46
489.28	276.18
489.46	215.33
489.64	184.90
489.81	224.69
489.99	224.69
490.17	245.76
490.35	208.31
490.53	243.42
490.70	220.01
490.88	285.55
491.06	259.80
491.24	264.48
491.41	257.46
491.59	266.82
491.77	313.63
491.95	266.82
492.13	266.82
492.30	243.42
492.48	196.60
492.66	224.69
492.84	245.76
493.01	224.69
493.19	227.03
493.37	308.95
493.54	318.31
493.72	327.68
493.90	243.42
494.08	306.61
494.25	161.50
494.43	173.20
494.61	243.42
494.79	220.01
494.96	154.48
495.14	252.78
495.32	238.73
495.49	227.03
495.67	168.52
495.85	287.89
496.02	278.52
496.20	262.14
496.38	283.20
496.55	191.92
496.73	264.48
496.91	259.80
497.09	243.42
497.26	234.05
497.44	243.42
497.62	264.48
497.79	280.86
497.97	283.20
498.14	220.01
498.32	315.97
498.50	229.37
498.67	252.78
498.85	236.39
499.03	297.25
499.20	294.91
499.38	252.78
499.56	217.67
499.73	322.99
499.91	266.82
500.08	283.20
500.26	229.37
500.44	224.69
500.61	208.31
500.79	203.63
500.97	220.01
501.14	259.80
501.32	236.39
501.49	264.48
501.67	168.52
501.84	297.25
502.02	299.59
502.20	292.57
502.37	252.78
502.55	208.31
502.72	271.50
502.90	320.65
503.07	285.55
503.25	367.46
503.43	262.14
503.60	294.91
503.78	257.46
503.95	273.84
504.13	229.37
504.30	205.97
504.48	290.23
504.65	315.97
504.83	212.99
505.01	212.99
505.18	250.44
505.36	238.73
505.53	287.89
505.71	278.52
505.88	294.91
506.06	215.33
506.23	177.88
506.41	294.91
506.58	262.14
506.76	248.10
506.93	215.33
507.11	231.71
507.28	236.39
507.46	227.03
507.63	341.72
507.81	234.05
507.98	299.59
508.16	257.46
508.33	182.56
508.50	264.48
508.68	264.48
508.85	222.35
509.03	290.23
509.20	297.25
509.38	201.29
509.55	315.97
509.73	308.95
509.90	243.42
510.08	220.01
510.25	304.27
510.42	245.76
510.60	266.82
510.77	266.82
510.95	257.46
511.12	320.65
511.30	330.02
511.47	285.55
511.64	332.36
511.82	276.18
511.99	311.29
512.17	236.39
512.34	283.20
512.51	259.80
512.69	280.86
512.86	299.59
513.04	245.76
513.21	297.25
513.38	238.73
513.56	168.52
513.73	180.22
513.90	248.10
514.08	252.78
514.25	337.04
514.43	283.20
514.60	292.57
514.77	208.31
514.95	220.01
515.12	266.82
515.29	262.14
515.47	227.03
515.64	273.84
515.81	360.44
515.99	280.86
516.16	222.35
516.33	297.25
516.51	238.73
516.68	227.03
516.85	259.80
517.03	304.27
517.20	203.63
517.37	297.25
517.54	285.55
517.72	224.69
517.89	208.31
518.06	201.29
518.24	315.97
518.41	294.91
518.58	285.55
518.75	290.23
518.93	245.76
519.10	294.91
519.27	273.84
519.45	299.59
519.62	198.95
519.79	191.92
519.96	255.12
520.14	283.20
520.31	269.16
520.48	283.20
520.65	311.29
520.83	304.27
521.00	318.31
521.17	210.65
521.34	217.67
521.52	198.95
521.69	243.42
521.86	257.46
522.03	255.12
522.20	266.82
522.38	217.67
522.55	308.95
522.72	243.42
522.89	325.33
523.07	297.25
523.24	283.20
523.41	250.44
523.58	243.42
523.75	334.70
523.92	264.48
524.10	215.33
524.27	236.39
524.44	304.27
524.61	315.97
524.78	327.68
524.96	327.68
525.13	308.95
525.30	294.91
525.47	315.97
525.64	264.48
525.81	332.36
525.98	250.44
526.16	262.14
526.33	241.08
526.50	287.89
526.67	236.39
526.84	198.95
527.01	245.76
527.18	222.35
527.36	269.16
527.53	273.84
527.70	266.82
527.87	236.39
528.04	308.95
528.21	229.37
528.38	311.29
528.55	283.20
528.72	372.15
528.89	245.76
529.07	224.69
529.24	334.70
529.41	308.95
529.58	276.18
529.75	245.76
529.92	287.89
530.09	255.12
530.26	334.70
530.43	264.48
530.60	262.14
530.77	248.10
530.94	320.65
531.11	334.70
531.28	215.33
531.46	255.12
531.63	294.91
531.80	271.50
531.97	301.93
532.14	301.93
532.31	320.65
532.48	325.33
532.65	386.19
532.82	360.44
532.99	409.59
533.16	330.02
533.33	283.20
533.50	369.80
533.67	322.99
533.84	482.15
534.01	421.30
534.18	400.23
534.35	341.72
534.52	257.46
534.69	367.46
534.86	297.25
535.03	255.12
535.20	308.95
535.37	315.97
535.54	285.55
535.71	255.12
535.88	339.38
536.05	255.12
536.22	318.31
536.38	294.91
536.55	301.93
536.72	339.38
536.89	269.16
537.06	292.57
537.23	299.59
537.40	327.68
537.57	257.46
537.74	290.23
537.91	283.20
538.08	264.48
538.25	353.42
538.42	311.29
538.59	351.08
538.75	332.36
538.92	292.57
539.09	332.36
539.26	337.04
539.43	538.32
539.60	1064.94
539.77	1490.92
539.94	1472.20
540.11	961.96
540.28	793.44
540.44	575.77
540.61	479.81
540.78	362.78
540.95	531.30
541.12	606.20
541.29	587.47
541.46	592.16
541.62	615.56
541.79	493.85
541.96	550.03
542.13	491.51
542.30	409.59
542.47	486.83
542.63	475.13
542.80	440.02
542.97	456.40
543.14	535.98
543.31	493.85
543.48	472.79
543.64	528.96
543.81	533.64
543.98	454.06
544.15	381.51
544.32	444.70
544.48	531.30
544.65	475.13
544.82	498.53
544.99	486.83
545.16	496.19
545.32	500.87
545.49	737.27
545.66	868.34
545.83	978.34
546.00	908.13
546.16	730.25
546.33	573.43
546.50	526.62
546.67	535.98
546.83	400.23
547.00	346.40
547.17	425.98
547.34	400.23
547.50	435.34
547.67	386.19
547.84	367.46
548.00	379.17
548.17	332.36
548.34	341.72
548.51	456.40
548.67	454.06
548.84	444.70
549.01	411.93
549.18	393.21
549.34	360.44
549.51	411.93
549.68	327.68
549.84	339.38
550.01	383.85
550.18	554.71
550.34	402.57
550.51	294.91
550.68	365.12
550.84	367.46
551.01	360.44
551.18	315.97
551.34	351.08
551.51	330.02
551.68	273.84
551.84	290.23
552.01	271.50
552.18	358.10
552.34	327.68
552.51	344.06
552.68	264.48
552.84	339.38
553.01	339.38
553.18	348.74
553.34	287.89
553.51	245.76
553.67	318.31
553.84	337.04
554.01	297.25
554.17	346.40
554.34	315.97
554.51	280.86
554.67	358.10
554.84	280.86
555.00	241.08
555.17	285.55
555.33	266.82
555.50	315.97
555.67	355.76
555.83	311.29
556.00	313.63
556.16	383.85
556.33	287.89
556.50	287.89
556.66	243.42
556.83	306.61
556.99	224.69
557.16	308.95
557.32	208.31
557.49	290.23
557.65	355.76
557.82	269.16
557.98	344.06
558.15	262.14
558.32	262.14
558.48	273.84
558.65	306.61
558.81	285.55
558.98	224.69
559.14	306.61
559.31	252.78
559.47	332.36
559.64	222.35
559.80	292.57
559.97	273.84
560.13	271.50
560.30	287.89
560.46	283.20
560.63	241.08
560.79	241.08
560.96	266.82
561.12	294.91
561.29	278.52
561.45	191.92
561.61	238.73
561.78	374.49
561.94	264.48
562.11	264.48
562.27	257.46
562.44	212.99
562.60	285.55
562.77	372.15
562.93	325.33
563.10	191.92
563.26	273.84
563.42	278.52
563.59	301.93
563.75	241.08
563.92	245.76
564.08	287.89
564.24	341.72
564.41	301.93
564.57	236.39
564.74	255.12
564.90	276.18
565.07	311.29
565.23	318.31
565.39	355.76
565.56	313.63
565.72	351.08
565.88	332.36
566.05	250.44
566.21	285.55
566.38	304.27
566.54	248.10
566.70	285.55
566.87	327.68
567.03	264.48
567.19	285.55
567.36	152.13
567.52	255.12
567.68	306.61
567.85	198.95
568.01	264.48
568.17	245.76
568.34	227.03
568.50	273.84
568.66	236.39
568.83	346.40
568.99	212.99
569.15	297.25
569.32	313.63
569.48	287.89
569.64	243.42
569.81	229.37
569.97	252.78
570.13	351.08
570.30	250.44
570.46	198.95
570.62	208.31
570.78	255.12
570.95	299.59
571.11	266.82
571.27	320.65
571.43	271.50
571.60	264.48
571.76	259.80
571.92	252.78
572.09	271.50
572.25	315.97
572.41	299.59
572.57	301.93
572.74	322.99
572.90	210.65
573.06	269.16
573.22	327.68
573.38	318.31
573.55	215.33
573.71	315.97
573.87	301.93
574.03	290.23
574.20	278.52
574.36	304.27
574.52	315.97
574.68	341.72
574.84	348.74
575.01	273.84
575.17	238.73
575.33	348.74
575.49	299.59
575.65	299.59
575.82	383.85
575.98	545.34
576.14	678.76
576.30	737.27
576.46	561.73
576.62	634.29
576.79	500.87
576.95	454.06
577.11	383.85
577.27	252.78
577.43	372.15
577.59	306.61
577.75	278.52
577.92	287.89
578.08	262.14
578.24	327.68
578.40	322.99
578.56	421.30
578.72	442.36
578.88	372.15
579.04	400.23
579.21	320.65
579.37	334.70
579.53	344.06
579.69	402.57
579.85	411.93
580.01	470.45
580.17	440.02
580.33	475.13
580.49	407.25
580.65	475.13
580.82	346.40
580.98	407.25
581.14	365.12
581.30	430.66
581.46	407.25
581.62	634.29
581.78	603.86
581.94	601.52
582.10	510.24
582.26	512.58
582.42	435.34
582.58	554.71
582.74	503.22
582.90	470.45
583.06	521.94
583.22	454.06
583.38	601.52
583.54	589.82
583.70	624.92
583.86	737.27
584.02	826.21
584.18	901.11
584.34	1172.61
584.50	2853.11
584.66	21930.82
584.82	52648.01
584.98	61455.45
585.14	58522.76
585.30	42298.16
585.46	24816.70
585.62	15468.60
585.78	7410.14
585.94	3019.29
586.10	1488.58
586.26	1057.92
586.42	812.17
586.58	713.86
586.74	697.48
586.90	706.84
587.06	620.24
587.22	608.54
587.38	571.09
587.54	1203.04
587.70	3276.75
587.86	5109.39
588.02	5547.07
588.18	3971.89
588.34	2546.50
588.49	1699.23
588.65	1107.07
588.81	716.20
588.97	486.83
589.13	418.96
589.29	393.21
589.45	353.42
589.61	318.31
589.77	425.98
589.93	491.51
590.08	433.00
590.24	524.28
590.40	461.09
590.56	458.74
590.72	355.76
590.88	358.10
591.04	416.62
591.20	414.27
591.35	376.83
591.51	404.91
591.67	374.49
591.83	320.65
591.99	325.33
592.15	369.80
592.31	376.83
592.46	322.99
592.62	423.64
592.78	454.06
592.94	348.74
593.10	414.27
593.26	334.70
593.41	423.64
593.57	503.22
593.73	566.41
593.89	2642.46
594.05	6612.01
594.20	9317.67
594.36	8931.48
594.52	5874.74
594.68	3758.90
594.84	2541.82
594.99	1479.22
595.15	704.50
595.31	489.17
595.47	428.32
595.62	330.02
595.78	393.21
595.94	379.17
596.10	393.21
596.25	449.38
596.41	376.83
596.57	353.42
596.73	374.49
596.88	568.75
597.04	1343.47
597.20	2146.27
597.36	2448.20
597.51	1895.83
597.67	1303.68
597.83	931.53
597.99	681.10
598.14	521.94
598.30	369.80
598.46	372.15
598.61	337.04
598.77	456.40
598.93	297.25
599.09	355.76
599.24	393.21
599.40	348.74
599.56	318.31
599.71	374.49
599.87	283.20
600.03	346.40
600.18	306.61
600.34	341.72
600.50	280.86
600.65	337.04
600.81	353.42
600.97	297.25
601.12	245.76
601.28	353.42
601.44	332.36
601.59	266.82
601.75	320.65
601.91	294.91
602.06	362.78
602.22	369.80
602.37	720.88
602.53	1582.20
602.69	2354.58
602.84	2403.73
603.00	1804.55
603.16	1338.79
603.31	940.90
603.47	699.82
603.62	390.87
603.78	358.10
603.94	332.36
604.09	334.70
604.25	248.10
604.40	325.33
604.56	212.99
604.71	332.36
604.87	285.55
605.03	306.61
605.18	304.27
605.34	339.38
605.49	320.65
605.65	311.29
605.80	222.35
605.96	304.27
606.12	374.49
606.27	379.17
606.43	327.68
606.58	393.21
606.74	915.15
606.89	3162.06
607.05	6305.40
607.20	7903.99
607.36	6581.59
607.51	4582.77
607.67	2979.50
607.82	2038.61
607.98	1156.22
608.13	720.88
608.29	554.71
608.44	435.34
608.60	505.56
608.75	613.22
608.91	1207.72
609.06	4922.15
609.22	10705.61
609.37	13799.80
609.53	12053.76
609.68	8201.24
609.84	5685.16
609.99	3698.05
610.15	2148.61
610.30	1254.53
610.46	950.26
610.61	901.11
610.76	1001.75
610.92	1146.86
611.07	1104.73
611.23	1111.75
611.38	1064.94
611.54	945.58
611.69	884.72
611.84	774.72
612.00	748.97
612.15	617.90
612.31	685.78
612.46	716.20
612.62	959.62
612.77	844.93
612.92	788.76
613.08	699.82
613.23	606.20
613.39	692.80
613.54	910.47
613.69	4718.52
613.85	13163.17
614.00	20659.91
614.15	21748.26
614.31	15529.45
614.46	10251.55
614.62	6925.65
614.77	4245.73
614.92	1963.71
615.08	1102.39
615.23	676.41
615.38	596.84
615.54	627.26
615.69	954.94
615.84	2679.91
616.00	4678.73
616.15	5678.14
616.30	4770.01
616.46	3368.03
616.61	2373.30
616.76	1551.78
616.92	919.83
617.07	610.88
617.22	400.23
617.37	379.17
617.53	402.57
617.68	393.21
617.83	428.32
617.99	423.64
618.14	442.36
618.29	461.09
618.45	334.70
618.60	355.76
618.75	355.76
618.90	285.55
619.06	330.02
619.21	386.19
619.36	330.02
619.51	348.74
619.67	339.38
619.82	308.95
619.97	327.68
620.12	414.27
620.28	313.63
620.43	318.31
620.58	355.76
620.73	292.57
620.89	353.42
621.04	568.75
621.19	1406.66
621.34	2663.53
621.49	3365.69
621.65	3061.42
621.80	2174.36
621.95	1544.75
622.10	1130.48
622.25	781.74
622.41	440.02
622.56	369.80
622.71	339.38
622.86	414.27
623.01	269.16
623.16	397.89
623.32	318.31
623.47	330.02
623.62	292.57
623.77	276.18
623.92	252.78
624.07	379.17
624.23	252.78
624.38	252.78
624.53	304.27
624.68	379.17
624.83	297.25
624.98	341.72
625.13	341.72
625.29	339.38
625.44	365.12
625.59	372.15
625.74	386.19
625.89	554.71
626.04	2097.12
626.19	6368.60
626.34	10010.47
626.49	11049.67
626.65	8229.32
626.80	5685.16
626.95	3934.44
627.10	2375.64
627.25	1266.23
627.40	725.57
627.55	435.34
627.70	337.04
627.85	411.93
628.00	330.02
628.15	299.59
628.30	320.65
628.45	262.14
628.60	353.42
628.76	231.71
628.91	297.25
629.06	271.50
629.21	313.63
629.36	315.97
629.51	325.33
629.66	304.27
629.81	514.92
629.96	1362.19
630.11	2370.96
630.26	2897.58
630.41	2745.45
630.56	1991.80
630.71	1315.38
630.86	1004.09
631.01	763.01
631.16	463.43
631.31	418.96
631.46	367.46
631.61	351.08
631.76	325.33
631.91	367.46
632.06	292.57
632.21	318.31
632.36	306.61
632.51	409.59
632.66	402.57
632.81	1221.76
632.96	3658.26
633.10	6223.48
633.25	7576.31
633.40	6179.01
633.55	4461.06
633.70	2993.55
633.85	1947.33
634.00	1050.90
634.15	655.35
634.30	447.04
634.45	449.38
634.60	304.27
634.75	315.97
634.90	325.33
635.05	287.89
635.19	285.55
635.34	358.10
635.49	379.17
635.64	243.42
635.79	308.95
635.94	367.46
636.09	278.52
636.24	358.10
636.39	285.55
636.53	318.31
636.68	278.52
636.83	278.52
636.98	325.33
637.13	344.06
637.28	472.79
637.43	442.36
637.57	615.56
637.72	2923.33
637.87	8077.19
638.02	12833.16
638.17	14267.91
638.32	10391.98
638.46	7101.19
638.61	4851.93
638.76	2958.44
638.91	1579.86
639.06	758.33
639.20	711.52
639.35	655.35
639.50	908.13
639.65	4491.49
639.80	12905.71
639.94	19836.04
640.09	21607.83
640.24	16318.22
640.39	11030.94
640.54	7548.23
640.68	4552.34
640.83	2195.42
640.98	1055.58
641.13	606.20
641.27	395.55
641.42	381.51
641.57	402.57
641.72	318.31
641.86	266.82
642.01	348.74
642.16	318.31
642.31	292.57
642.45	341.72
642.60	339.38
642.75	243.42
642.90	304.27
643.04	259.80
643.19	290.23
643.34	276.18
643.48	266.82
643.63	280.86
643.78	297.25
643.93	283.20
644.07	250.44
644.22	241.08
644.37	271.50
644.51	313.63
644.66	276.18
644.81	280.86
644.95	276.18
645.10	175.54
645.25	208.31
645.39	301.93
645.54	227.03
645.69	266.82
645.83	201.29
645.98	287.89
646.13	257.46
646.27	257.46
646.42	250.44
646.57	220.01
646.71	365.12
646.86	290.23
647.00	203.63
647.15	234.05
647.30	217.67
647.44	264.48
647.59	224.69
647.74	241.08
647.88	243.42
648.03	201.29
648.17	222.35
648.32	269.16
648.47	376.83
648.61	273.84
648.76	248.10
648.90	264.48
649.05	229.37
649.20	229.37
649.34	283.20
649.49	283.20
649.63	311.29
649.78	337.04
649.92	435.34
650.07	1753.06
650.21	5563.45
650.36	9287.25
650.51	11108.18
650.65	9018.08
650.80	6384.98
650.94	4414.25
651.09	2649.49
651.23	1584.54
651.38	734.93
651.52	475.13
651.67	325.33
651.81	224.69
651.96	379.17
652.10	341.72
652.25	313.63
652.39	313.63
652.54	299.59
652.68	617.90
652.83	1842.00
652.97	3192.49
653.12	4093.60
653.26	3480.38
653.41	2546.50
653.55	1933.28
653.70	1270.91
653.84	748.97
653.99	447.04
654.13	341.72
654.27	294.91
654.42	252.78
654.56	269.16
654.71	325.33
654.85	241.08
655.00	280.86
655.14	264.48
655.29	187.24
655.43	313.63
655.57	301.93
655.72	224.69
655.86	205.97
656.01	168.52
656.15	152.13
656.30	212.99
656.44	234.05
656.58	135.75
656.73	238.73
656.87	205.97
657.01	262.14
657.16	212.99
657.30	189.58
657.45	330.02
657.59	250.44
657.73	212.99
657.88	180.22
658.02	269.16
658.16	212.99
658.31	264.48
658.45	245.76
658.60	180.22
658.74	238.73
658.88	238.73
659.03	227.03
659.17	264.48
659.31	805.14
659.46	2605.02
659.60	4409.57
659.74	5626.65
659.89	4975.98
660.03	3730.81
660.17	2658.85
660.32	1626.67
660.46	940.90
660.60	533.64
660.74	451.72
660.89	266.82
661.03	301.93
661.17	210.65
661.32	234.05
661.46	208.31
661.60	241.08
661.74	184.90
661.89	266.82
662.03	318.31
662.17	245.76
662.31	231.71
662.46	276.18
662.60	220.01
662.74	182.56
662.88	264.48
663.03	245.76
663.17	238.73
663.31	269.16
663.45	222.35
663.60	194.26
663.74	212.99
663.88	215.33
664.02	168.52
664.17	222.35
664.31	168.52
664.45	187.24
664.59	248.10
664.73	238.73
664.88	301.93
665.02	229.37
665.16	255.12
665.30	297.25
665.44	294.91
665.59	248.10
665.73	194.26
665.87	234.05
666.01	311.29
666.15	175.54
666.29	154.48
666.44	262.14
666.58	259.80
666.72	262.14
666.86	236.39
667.00	318.31
667.14	428.32
667.28	1565.82
667.43	4688.09
667.57	7845.48
667.71	9951.96
667.85	8454.02
667.99	6085.39
668.13	3913.38
668.27	2420.11
668.41	1376.24
668.56	889.40
668.70	559.39
668.84	400.23
668.98	266.82
669.12	290.23
669.26	248.10
669.40	297.25
669.54	248.10
669.68	194.26
669.82	217.67
669.96	264.48
670.10	318.31
670.25	278.52
670.39	217.67
670.53	292.57
670.67	163.84
670.81	194.26
670.95	290.23
671.09	477.47
671.23	1823.28
671.37	3908.69
671.51	5614.95
671.65	6143.91
671.79	4812.14
671.93	3349.31
672.07	2043.29
672.21	1217.08
672.35	732.59
672.49	447.04
672.63	374.49
672.77	273.84
672.91	229.37
673.05	205.97
673.19	287.89
673.33	173.20
673.47	243.42
673.61	205.97
673.75	234.05
673.89	224.69
674.03	212.99
674.17	255.12
674.31	259.80
674.45	292.57
674.59	259.80
674.73	175.54
674.87	278.52
675.01	269.16
675.15	285.55
675.29	294.91
675.43	322.99
675.56	301.93
675.70	283.20
675.84	227.03
675.98	156.82
676.12	191.92
676.26	224.69
676.40	229.37
676.54	236.39
676.68	189.58
676.82	196.60
676.96	224.69
677.10	203.63
677.23	245.76
677.37	229.37
677.51	220.01
677.65	173.20
677.79	201.29
677.93	187.24
678.07	220.01
678.21	231.71
678.34	184.90
678.48	161.50
678.62	182.56
678.76	161.50
678.90	229.37
679.04	198.95
679.18	189.58
679.31	217.67
679.45	154.48
679.59	184.90
679.73	203.63
679.87	191.92
680.00	191.92
680.14	205.97
680.28	163.84
680.42	201.29
680.56	156.82
680.70	159.16
680.83	175.54
680.97	205.97
681.11	224.69
681.25	156.82
681.39	224.69
681.52	220.01
681.66	208.31
681.80	203.63
681.94	133.41
682.07	140.43
682.21	255.12
682.35	194.26
682.49	243.42
682.62	184.90
682.76	140.43
682.90	215.33
683.04	180.22
683.17	156.82
683.31	259.80
683.45	299.59
683.59	180.22
683.72	255.12
683.86	189.58
684.00	142.77
684.13	175.54
684.27	154.48
684.41	198.95
684.55	189.58
684.68	131.07
684.82	205.97
684.96	243.42
685.09	196.60
685.23	168.52
685.37	194.26
685.50	168.52
685.64	177.88
685.78	124.05
685.91	257.46
686.05	189.58
686.19	243.42
686.32	241.08
686.46	131.07
686.60	117.03
686.73	252.78
686.87	278.52
687.01	248.10
687.14	222.35
687.28	215.33
687.42	196.60
687.55	152.13
687.69	292.57
687.82	210.65
687.96	208.31
688.10	292.57
688.23	145.11
688.37	245.76
688.50	227.03
688.64	283.20
688.78	138.09
688.91	189.58
689.05	191.92
689.18	168.52
689.32	215.33
689.46	231.71
689.59	145.11
689.73	184.90
689.86	121.71
690.00	126.39
690.13	119.37
690.27	152.13
690.41	102.98
690.54	194.26
690.68	177.88
690.81	84.26
690.95	177.88
691.08	269.16
691.22	245.76
691.35	205.97
691.49	180.22
691.62	203.63
691.76	238.73
691.89	163.84
692.03	105.32
692.16	142.77
692.30	308.95
692.43	594.50
692.57	1844.34
692.70	3239.30
692.84	4234.03
692.97	3918.06
693.11	2822.69
693.24	2204.78
693.38	1526.03
693.51	917.49
693.65	699.82
693.78	564.07
693.92	341.72
694.05	245.76
694.19	210.65
694.32	175.54
694.45	220.01
694.59	210.65
694.72	245.76
694.86	170.86
694.99	163.84
695.13	142.77
695.26	255.12
695.39	124.05
695.53	276.18
695.66	168.52
695.80	145.11
695.93	220.01
696.07	250.44
696.20	325.33
696.33	374.49
696.47	500.87
696.60	409.59
696.73	404.91
696.87	271.50
697.00	304.27
697.14	229.37
697.27	297.25
697.40	259.80
697.54	156.82
697.67	168.52
697.80	259.80
697.94	107.66
698.07	161.50
698.21	194.26
698.34	187.24
698.47	241.08
698.61	203.63
698.74	145.11
698.87	224.69
699.01	210.65
699.14	154.48
699.27	156.82
699.40	294.91
699.54	234.05
699.67	217.67
699.80	140.43
699.94	110.01
700.07	203.63
700.20	156.82
700.34	173.20
700.47	156.82
700.60	166.18
700.73	205.97
700.87	205.97
701.00	194.26
701.13	170.86
701.26	198.95
701.40	152.13
701.53	222.35
701.66	147.45
701.79	161.50
701.93	215.33
702.06	238.73
702.19	299.59
702.32	435.34
702.46	400.23
702.59	449.38
702.72	746.63
702.85	2408.41
702.99	5233.44
703.12	7229.91
703.25	8093.57
703.38	6960.75
703.51	5680.48
703.65	4367.44
703.78	3159.72
703.91	2057.33
704.04	1238.14
704.17	786.42
704.31	517.26
704.44	320.65
704.57	322.99
704.70	301.93
704.83	236.39
704.96	222.35
705.10	154.48
705.23	222.35
>>>>>End Processed Spectral Data<<<<<
