SpectraSuite Data File
++++++++++++++++++++++++++++++++++++
Date: Fri Oct 04 11:33:48 GMT-05:00 2013
User: price-jones
Dark Spectrum Present: No
Reference Spectrum Present: No
Number of Sampled Component Spectra: 1
Spectrometers: USB2+H05261
Integration Time (usec): 100000 (USB2+H05261)
Spectra Averaged: 1 (USB2+H05261)
Boxcar Smoothing: 0 (USB2+H05261)
Correct for Electrical Dark: No (USB2+H05261)
Strobe/Lamp Enabled: No (USB2+H05261)
Correct for Detector Non-linearity: No (USB2+H05261)
Correct for Stray Light: No (USB2+H05261)
Number of Pixels in Processed Spectrum: 2048
>>>>>Begin Processed Spectral Data<<<<<
365.73	79.58
365.92	79.58
366.12	79.58
366.32	0.00
366.52	23.41
366.72	30.43
366.91	0.00
367.11	0.00
367.31	0.00
367.51	0.00
367.70	0.00
367.90	0.00
368.10	0.00
368.30	0.00
368.49	0.00
368.69	0.00
368.89	18.72
369.09	0.00
369.28	18.72
369.48	0.00
369.68	16.38
369.87	2.34
370.07	0.00
370.27	49.15
370.47	32.77
370.66	112.35
370.86	72.56
371.06	67.88
371.25	142.77
371.45	142.77
371.65	126.39
371.84	133.41
372.04	91.28
372.24	138.09
372.44	149.79
372.63	142.77
372.83	126.39
373.03	140.43
373.22	91.28
373.42	145.11
373.62	147.45
373.81	140.43
374.01	154.48
374.21	264.48
374.40	173.20
374.60	135.75
374.79	161.50
374.99	86.60
375.19	166.18
375.38	182.56
375.58	175.54
375.78	152.13
375.97	177.88
376.17	161.50
376.37	114.69
376.56	133.41
376.76	110.01
376.95	198.95
377.15	138.09
377.35	173.20
377.54	248.10
377.74	84.26
377.93	14.04
378.13	126.39
378.33	173.20
378.52	74.90
378.72	159.16
378.91	189.58
379.11	168.52
379.31	70.22
379.50	152.13
379.70	210.65
379.89	177.88
380.09	107.66
380.28	107.66
380.48	135.75
380.68	98.30
380.87	152.13
381.07	177.88
381.26	273.84
381.46	133.41
381.65	163.84
381.85	91.28
382.04	58.51
382.24	161.50
382.43	77.24
382.63	168.52
382.83	145.11
383.02	198.95
383.22	168.52
383.41	152.13
383.61	163.84
383.80	117.03
384.00	117.03
384.19	191.92
384.39	133.41
384.58	126.39
384.78	182.56
384.97	138.09
385.17	121.71
385.36	121.71
385.56	189.58
385.75	74.90
385.95	117.03
386.14	135.75
386.34	163.84
386.53	121.71
386.72	138.09
386.92	112.35
387.11	166.18
387.31	114.69
387.50	107.66
387.70	180.22
387.89	149.79
388.09	102.98
388.28	159.16
388.48	175.54
388.67	138.09
388.86	119.37
389.06	91.28
389.25	147.45
389.45	222.35
389.64	126.39
389.84	205.97
390.03	128.73
390.22	189.58
390.42	114.69
390.61	135.75
390.81	95.96
391.00	117.03
391.19	180.22
391.39	86.60
391.58	140.43
391.78	100.64
391.97	145.11
392.16	152.13
392.36	210.65
392.55	163.84
392.75	140.43
392.94	119.37
393.13	159.16
393.33	77.24
393.52	77.24
393.71	175.54
393.91	131.07
394.10	100.64
394.29	159.16
394.49	161.50
394.68	166.18
394.88	248.10
395.07	163.84
395.26	128.73
395.46	140.43
395.65	163.84
395.84	166.18
396.04	229.37
396.23	152.13
396.42	112.35
396.62	138.09
396.81	177.88
397.00	161.50
397.19	135.75
397.39	142.77
397.58	182.56
397.77	131.07
397.97	159.16
398.16	124.05
398.35	210.65
398.55	149.79
398.74	53.83
398.93	114.69
399.12	149.79
399.32	95.96
399.51	196.60
399.70	201.29
399.90	166.18
400.09	196.60
400.28	173.20
400.47	173.20
400.67	119.37
400.86	128.73
401.05	191.92
401.24	222.35
401.44	121.71
401.63	203.63
401.82	154.48
402.01	126.39
402.21	196.60
402.40	180.22
402.59	142.77
402.78	60.85
402.97	138.09
403.17	208.31
403.36	105.32
403.55	227.03
403.74	128.73
403.93	184.90
404.13	182.56
404.32	210.65
404.51	180.22
404.70	177.88
404.89	154.48
405.09	175.54
405.28	159.16
405.47	126.39
405.66	166.18
405.85	142.77
406.05	149.79
406.24	147.45
406.43	86.60
406.62	187.24
406.81	231.71
407.00	191.92
407.20	154.48
407.39	145.11
407.58	166.18
407.77	124.05
407.96	189.58
408.15	161.50
408.34	142.77
408.54	105.32
408.73	152.13
408.92	177.88
409.11	180.22
409.30	159.16
409.49	70.22
409.68	149.79
409.87	77.24
410.07	175.54
410.26	168.52
410.45	79.58
410.64	210.65
410.83	182.56
411.02	126.39
411.21	156.82
411.40	100.64
411.59	112.35
411.78	189.58
411.98	184.90
412.17	84.26
412.36	124.05
412.55	175.54
412.74	126.39
412.93	264.48
413.12	72.56
413.31	241.08
413.50	135.75
413.69	135.75
413.88	177.88
414.07	210.65
414.26	177.88
414.45	180.22
414.64	131.07
414.83	262.14
415.02	105.32
415.22	173.20
415.41	154.48
415.60	205.97
415.79	145.11
415.98	159.16
416.17	187.24
416.36	180.22
416.55	107.66
416.74	196.60
416.93	187.24
417.12	147.45
417.31	189.58
417.50	100.64
417.69	138.09
417.88	210.65
418.07	166.18
418.26	189.58
418.45	163.84
418.64	290.23
418.83	243.42
419.02	191.92
419.21	222.35
419.39	201.29
419.58	147.45
419.77	145.11
419.96	145.11
420.15	229.37
420.34	205.97
420.53	180.22
420.72	156.82
420.91	156.82
421.10	161.50
421.29	166.18
421.48	149.79
421.67	114.69
421.86	187.24
422.05	198.95
422.24	175.54
422.43	175.54
422.61	184.90
422.80	170.86
422.99	184.90
423.18	161.50
423.37	128.73
423.56	140.43
423.75	124.05
423.94	105.32
424.13	156.82
424.32	119.37
424.50	133.41
424.69	147.45
424.88	191.92
425.07	105.32
425.26	217.67
425.45	248.10
425.64	166.18
425.83	198.95
426.01	215.33
426.20	170.86
426.39	145.11
426.58	191.92
426.77	173.20
426.96	191.92
427.15	205.97
427.33	128.73
427.52	184.90
427.71	156.82
427.90	140.43
428.09	184.90
428.28	220.01
428.46	217.67
428.65	170.86
428.84	170.86
429.03	177.88
429.22	182.56
429.40	152.13
429.59	133.41
429.78	168.52
429.97	163.84
430.16	119.37
430.34	180.22
430.53	257.46
430.72	152.13
430.91	201.29
431.10	154.48
431.28	182.56
431.47	149.79
431.66	149.79
431.85	140.43
432.03	156.82
432.22	166.18
432.41	147.45
432.60	177.88
432.79	220.01
432.97	276.18
433.16	252.78
433.35	156.82
433.54	145.11
433.72	238.73
433.91	196.60
434.10	198.95
434.28	163.84
434.47	180.22
434.66	222.35
434.85	149.79
435.03	161.50
435.22	362.78
435.41	390.87
435.59	301.93
435.78	315.97
435.97	227.03
436.16	159.16
436.34	154.48
436.53	173.20
436.72	156.82
436.90	208.31
437.09	177.88
437.28	173.20
437.46	156.82
437.65	264.48
437.84	128.73
438.02	182.56
438.21	278.52
438.40	229.37
438.58	210.65
438.77	189.58
438.96	191.92
439.14	198.95
439.33	161.50
439.52	95.96
439.70	142.77
439.89	245.76
440.08	220.01
440.26	173.20
440.45	175.54
440.63	234.05
440.82	194.26
441.01	194.26
441.19	220.01
441.38	107.66
441.57	156.82
441.75	208.31
441.94	187.24
442.12	128.73
442.31	184.90
442.50	175.54
442.68	222.35
442.87	212.99
443.05	187.24
443.24	217.67
443.43	191.92
443.61	220.01
443.80	205.97
443.98	194.26
444.17	140.43
444.35	147.45
444.54	217.67
444.73	194.26
444.91	154.48
445.10	145.11
445.28	159.16
445.47	182.56
445.65	234.05
445.84	161.50
446.02	191.92
446.21	184.90
446.39	161.50
446.58	119.37
446.77	168.52
446.95	142.77
447.14	180.22
447.32	196.60
447.51	180.22
447.69	138.09
447.88	133.41
448.06	140.43
448.25	168.52
448.43	196.60
448.62	163.84
448.80	224.69
448.99	177.88
449.17	117.03
449.36	140.43
449.54	142.77
449.73	149.79
449.91	168.52
450.10	152.13
450.28	220.01
450.46	269.16
450.65	170.86
450.83	241.08
451.02	189.58
451.20	229.37
451.39	245.76
451.57	168.52
451.76	170.86
451.94	238.73
452.13	229.37
452.31	220.01
452.49	210.65
452.68	102.98
452.86	156.82
453.05	217.67
453.23	245.76
453.42	208.31
453.60	159.16
453.78	290.23
453.97	161.50
454.15	208.31
454.34	135.75
454.52	189.58
454.70	210.65
454.89	238.73
455.07	133.41
455.26	212.99
455.44	208.31
455.62	210.65
455.81	147.45
455.99	168.52
456.17	198.95
456.36	191.92
456.54	187.24
456.73	238.73
456.91	217.67
457.09	212.99
457.28	243.42
457.46	74.90
457.64	264.48
457.83	201.29
458.01	156.82
458.19	194.26
458.38	182.56
458.56	140.43
458.74	189.58
458.93	112.35
459.11	189.58
459.29	121.71
459.48	248.10
459.66	196.60
459.84	201.29
460.03	259.80
460.21	215.33
460.39	161.50
460.57	208.31
460.76	285.55
460.94	271.50
461.12	229.37
461.31	297.25
461.49	175.54
461.67	147.45
461.85	182.56
462.04	191.92
462.22	645.99
462.40	276.18
462.59	245.76
462.77	189.58
462.95	248.10
463.13	208.31
463.32	135.75
463.50	236.39
463.68	208.31
463.86	140.43
464.05	166.18
464.23	222.35
464.41	315.97
464.59	189.58
464.78	175.54
464.96	196.60
465.14	198.95
465.32	133.41
465.50	194.26
465.69	173.20
465.87	215.33
466.05	210.65
466.23	173.20
466.41	203.63
466.60	168.52
466.78	208.31
466.96	222.35
467.14	212.99
467.32	217.67
467.51	210.65
467.69	229.37
467.87	180.22
468.05	189.58
468.23	175.54
468.41	212.99
468.60	117.03
468.78	224.69
468.96	198.95
469.14	138.09
469.32	145.11
469.50	166.18
469.69	217.67
469.87	170.86
470.05	234.05
470.23	203.63
470.41	224.69
470.59	152.13
470.77	173.20
470.95	236.39
471.14	222.35
471.32	170.86
471.50	222.35
471.68	222.35
471.86	243.42
472.04	220.01
472.22	117.03
472.40	140.43
472.58	250.44
472.77	175.54
472.95	224.69
473.13	217.67
473.31	173.20
473.49	131.07
473.67	231.71
473.85	210.65
474.03	161.50
474.21	229.37
474.39	231.71
474.57	264.48
474.75	227.03
474.93	182.56
475.12	222.35
475.30	135.75
475.48	208.31
475.66	245.76
475.84	227.03
476.02	187.24
476.20	238.73
476.38	198.95
476.56	231.71
476.74	191.92
476.92	187.24
477.10	227.03
477.28	161.50
477.46	201.29
477.64	255.12
477.82	168.52
478.00	196.60
478.18	196.60
478.36	222.35
478.54	212.99
478.72	161.50
478.90	220.01
479.08	187.24
479.26	255.12
479.44	198.95
479.62	175.54
479.80	128.73
479.98	191.92
480.16	238.73
480.34	220.01
480.52	168.52
480.70	152.13
480.88	215.33
481.06	168.52
481.24	154.48
481.41	220.01
481.59	234.05
481.77	205.97
481.95	231.71
482.13	229.37
482.31	212.99
482.49	177.88
482.67	198.95
482.85	271.50
483.03	196.60
483.21	217.67
483.39	184.90
483.57	196.60
483.74	273.84
483.92	271.50
484.10	212.99
484.28	222.35
484.46	285.55
484.64	215.33
484.82	196.60
485.00	238.73
485.18	182.56
485.35	250.44
485.53	210.65
485.71	241.08
485.89	231.71
486.07	177.88
486.25	278.52
486.43	194.26
486.61	276.18
486.78	264.48
486.96	227.03
487.14	285.55
487.32	222.35
487.50	266.82
487.68	252.78
487.85	266.82
488.03	334.70
488.21	215.33
488.39	189.58
488.57	231.71
488.75	229.37
488.92	519.60
489.10	292.57
489.28	238.73
489.46	311.29
489.64	262.14
489.81	205.97
489.99	269.16
490.17	194.26
490.35	337.04
490.53	248.10
490.70	201.29
490.88	227.03
491.06	198.95
491.24	292.57
491.41	210.65
491.59	217.67
491.77	145.11
491.95	154.48
492.13	273.84
492.30	210.65
492.48	222.35
492.66	273.84
492.84	238.73
493.01	203.63
493.19	255.12
493.37	299.59
493.54	217.67
493.72	236.39
493.90	234.05
494.08	241.08
494.25	215.33
494.43	212.99
494.61	290.23
494.79	255.12
494.96	259.80
495.14	236.39
495.32	264.48
495.49	229.37
495.67	243.42
495.85	210.65
496.02	152.13
496.20	262.14
496.38	264.48
496.55	212.99
496.73	283.20
496.91	201.29
497.09	276.18
497.26	257.46
497.44	285.55
497.62	227.03
497.79	231.71
497.97	287.89
498.14	290.23
498.32	255.12
498.50	252.78
498.67	290.23
498.85	280.86
499.03	313.63
499.20	255.12
499.38	269.16
499.56	276.18
499.73	255.12
499.91	292.57
500.08	308.95
500.26	217.67
500.44	220.01
500.61	248.10
500.79	271.50
500.97	224.69
501.14	243.42
501.32	229.37
501.49	325.33
501.67	250.44
501.84	159.16
502.02	220.01
502.20	229.37
502.37	245.76
502.55	159.16
502.72	259.80
502.90	348.74
503.07	266.82
503.25	227.03
503.43	252.78
503.60	290.23
503.78	241.08
503.95	234.05
504.13	271.50
504.30	266.82
504.48	306.61
504.65	271.50
504.83	203.63
505.01	287.89
505.18	252.78
505.36	252.78
505.53	264.48
505.71	252.78
505.88	313.63
506.06	252.78
506.23	266.82
506.41	224.69
506.58	322.99
506.76	259.80
506.93	210.65
507.11	250.44
507.28	283.20
507.46	262.14
507.63	322.99
507.81	243.42
507.98	280.86
508.16	259.80
508.33	163.84
508.50	250.44
508.68	220.01
508.85	229.37
509.03	292.57
509.20	325.33
509.38	234.05
509.55	234.05
509.73	269.16
509.90	210.65
510.08	280.86
510.25	236.39
510.42	276.18
510.60	205.97
510.77	241.08
510.95	311.29
511.12	243.42
511.30	278.52
511.47	330.02
511.64	318.31
511.82	245.76
511.99	238.73
512.17	177.88
512.34	292.57
512.51	234.05
512.69	271.50
512.86	322.99
513.04	180.22
513.21	243.42
513.38	278.52
513.56	238.73
513.73	257.46
513.90	236.39
514.08	236.39
514.25	269.16
514.43	306.61
514.60	231.71
514.77	283.20
514.95	238.73
515.12	238.73
515.29	290.23
515.47	250.44
515.64	278.52
515.81	301.93
515.99	194.26
516.16	259.80
516.33	290.23
516.51	224.69
516.68	210.65
516.85	210.65
517.03	257.46
517.20	262.14
517.37	217.67
517.54	236.39
517.72	306.61
517.89	201.29
518.06	231.71
518.24	262.14
518.41	311.29
518.58	290.23
518.75	271.50
518.93	234.05
519.10	229.37
519.27	231.71
519.45	271.50
519.62	283.20
519.79	222.35
519.96	166.18
520.14	278.52
520.31	229.37
520.48	301.93
520.65	264.48
520.83	241.08
521.00	304.27
521.17	332.36
521.34	241.08
521.52	259.80
521.69	269.16
521.86	264.48
522.03	266.82
522.20	257.46
522.38	196.60
522.55	273.84
522.72	248.10
522.89	374.49
523.07	280.86
523.24	276.18
523.41	292.57
523.58	224.69
523.75	297.25
523.92	299.59
524.10	243.42
524.27	294.91
524.44	311.29
524.61	198.95
524.78	262.14
524.96	285.55
525.13	248.10
525.30	259.80
525.47	346.40
525.64	259.80
525.81	280.86
525.98	287.89
526.16	269.16
526.33	236.39
526.50	243.42
526.67	294.91
526.84	248.10
527.01	236.39
527.18	191.92
527.36	217.67
527.53	283.20
527.70	315.97
527.87	250.44
528.04	313.63
528.21	283.20
528.38	322.99
528.55	294.91
528.72	311.29
528.89	311.29
529.07	243.42
529.24	238.73
529.41	290.23
529.58	320.65
529.75	262.14
529.92	220.01
530.09	320.65
530.26	360.44
530.43	292.57
530.60	280.86
530.77	203.63
530.94	308.95
531.11	287.89
531.28	315.97
531.46	196.60
531.63	238.73
531.80	262.14
531.97	299.59
532.14	236.39
532.31	280.86
532.48	292.57
532.65	376.83
532.82	299.59
532.99	367.46
533.16	283.20
533.33	362.78
533.50	308.95
533.67	308.95
533.84	411.93
534.01	346.40
534.18	330.02
534.35	257.46
534.52	344.06
534.69	341.72
534.86	292.57
535.03	280.86
535.20	262.14
535.37	229.37
535.54	250.44
535.71	196.60
535.88	229.37
536.05	278.52
536.22	327.68
536.38	262.14
536.55	283.20
536.72	308.95
536.89	241.08
537.06	332.36
537.23	313.63
537.40	224.69
537.57	259.80
537.74	297.25
537.91	252.78
538.08	308.95
538.25	327.68
538.42	250.44
538.59	290.23
538.75	238.73
538.92	301.93
539.09	430.66
539.26	400.23
539.43	491.51
539.60	688.12
539.77	936.21
539.94	971.32
540.11	718.54
540.28	585.13
540.44	524.28
540.61	482.15
540.78	428.32
540.95	348.74
541.12	505.56
541.29	496.19
541.46	449.38
541.62	421.30
541.79	510.24
541.96	430.66
542.13	390.87
542.30	400.23
542.47	381.51
542.63	346.40
542.80	442.36
542.97	428.32
543.14	463.43
543.31	454.06
543.48	433.00
543.64	433.00
543.81	468.11
543.98	411.93
544.15	428.32
544.32	414.27
544.48	383.85
544.65	393.21
544.82	402.57
544.99	433.00
545.16	463.43
545.32	477.47
545.49	688.12
545.66	823.87
545.83	788.76
546.00	758.33
546.16	557.05
546.33	498.53
546.50	470.45
546.67	400.23
546.83	414.27
547.00	400.23
547.17	442.36
547.34	418.96
547.50	435.34
547.67	334.70
547.84	381.51
548.00	332.36
548.17	290.23
548.34	362.78
548.51	337.04
548.67	325.33
548.84	330.02
549.01	341.72
549.18	337.04
549.34	315.97
549.51	276.18
549.68	358.10
549.84	325.33
550.01	297.25
550.18	400.23
550.34	348.74
550.51	402.57
550.68	269.16
550.84	259.80
551.01	283.20
551.18	262.14
551.34	297.25
551.51	306.61
551.68	208.31
551.84	315.97
552.01	318.31
552.18	320.65
552.34	262.14
552.51	294.91
552.68	344.06
552.84	283.20
553.01	308.95
553.18	372.15
553.34	248.10
553.51	358.10
553.67	320.65
553.84	285.55
554.01	299.59
554.17	304.27
554.34	271.50
554.51	264.48
554.67	381.51
554.84	346.40
555.00	320.65
555.17	241.08
555.33	301.93
555.50	313.63
555.67	238.73
555.83	372.15
556.00	304.27
556.16	454.06
556.33	379.17
556.50	276.18
556.66	220.01
556.83	299.59
556.99	278.52
557.16	313.63
557.32	238.73
557.49	229.37
557.65	320.65
557.82	231.71
557.98	269.16
558.15	215.33
558.32	196.60
558.48	241.08
558.65	234.05
558.81	311.29
558.98	245.76
559.14	269.16
559.31	287.89
559.47	341.72
559.64	212.99
559.80	283.20
559.97	173.20
560.13	255.12
560.30	337.04
560.46	222.35
560.63	280.86
560.79	285.55
560.96	234.05
561.12	203.63
561.29	262.14
561.45	238.73
561.61	285.55
561.78	339.38
561.94	227.03
562.11	313.63
562.27	285.55
562.44	252.78
562.60	283.20
562.77	257.46
562.93	341.72
563.10	259.80
563.26	301.93
563.42	217.67
563.59	273.84
563.75	290.23
563.92	304.27
564.08	315.97
564.24	355.76
564.41	259.80
564.57	180.22
564.74	227.03
564.90	287.89
565.07	255.12
565.23	276.18
565.39	255.12
565.56	308.95
565.72	334.70
565.88	297.25
566.05	222.35
566.21	285.55
566.38	252.78
566.54	234.05
566.70	276.18
566.87	301.93
567.03	180.22
567.19	262.14
567.36	229.37
567.52	250.44
567.68	276.18
567.85	301.93
568.01	252.78
568.17	222.35
568.34	259.80
568.50	271.50
568.66	156.82
568.83	381.51
568.99	283.20
569.15	255.12
569.32	259.80
569.48	259.80
569.64	166.18
569.81	259.80
569.97	212.99
570.13	245.76
570.30	208.31
570.46	271.50
570.62	299.59
570.78	212.99
570.95	217.67
571.11	241.08
571.27	285.55
571.43	234.05
571.60	264.48
571.76	259.80
571.92	264.48
572.09	278.52
572.25	238.73
572.41	259.80
572.57	264.48
572.74	224.69
572.90	304.27
573.06	252.78
573.22	252.78
573.38	285.55
573.55	311.29
573.71	330.02
573.87	196.60
574.03	266.82
574.20	231.71
574.36	348.74
574.52	299.59
574.68	334.70
574.84	262.14
575.01	266.82
575.17	376.83
575.33	238.73
575.49	308.95
575.65	297.25
575.82	339.38
575.98	423.64
576.14	454.06
576.30	442.36
576.46	528.96
576.62	458.74
576.79	477.47
576.95	430.66
577.11	318.31
577.27	276.18
577.43	351.08
577.59	313.63
577.75	308.95
577.92	266.82
578.08	269.16
578.24	229.37
578.40	365.12
578.56	362.78
578.72	360.44
578.88	409.59
579.04	414.27
579.21	383.85
579.37	283.20
579.53	280.86
579.69	344.06
579.85	294.91
580.01	414.27
580.17	393.21
580.33	400.23
580.49	287.89
580.65	334.70
580.82	318.31
580.98	353.42
581.14	262.14
581.30	367.46
581.46	369.80
581.62	400.23
581.78	517.26
581.94	468.11
582.10	442.36
582.26	411.93
582.42	404.91
582.58	358.10
582.74	425.98
582.90	447.04
583.06	463.43
583.22	341.72
583.38	407.25
583.54	430.66
583.70	470.45
583.86	505.56
584.02	575.77
584.18	699.82
584.34	819.19
584.50	1713.27
584.66	11173.72
584.82	30314.62
584.98	44315.70
585.14	38911.41
585.30	24505.41
585.46	14932.62
585.62	9097.66
585.78	4409.57
585.94	1860.73
586.10	973.66
586.26	739.61
586.42	587.47
586.58	505.56
586.74	517.26
586.90	519.60
587.06	512.58
587.22	400.23
587.38	386.19
587.54	671.73
587.70	1944.99
587.86	3063.76
588.02	3178.45
588.18	2319.47
588.34	1561.14
588.49	1102.39
588.65	774.72
588.81	465.77
588.97	355.76
589.13	318.31
589.29	318.31
589.45	304.27
589.61	318.31
589.77	311.29
589.93	411.93
590.08	374.49
590.24	360.44
590.40	416.62
590.56	353.42
590.72	402.57
590.88	266.82
591.04	290.23
591.20	301.93
591.35	311.29
591.51	332.36
591.67	299.59
591.83	287.89
591.99	390.87
592.15	320.65
592.31	257.46
592.46	297.25
592.62	304.27
592.78	348.74
592.94	360.44
593.10	252.78
593.26	294.91
593.41	273.84
593.57	372.15
593.73	465.77
593.89	1558.80
594.05	3655.92
594.20	5390.25
594.36	5198.33
594.52	3489.74
594.68	2237.55
594.84	1647.74
594.99	964.30
595.15	599.18
595.31	407.25
595.47	402.57
595.62	360.44
595.78	327.68
595.94	241.08
596.10	304.27
596.25	358.10
596.41	315.97
596.57	252.78
596.73	290.23
596.88	341.72
597.04	779.40
597.20	1310.70
597.36	1523.69
597.51	1095.37
597.67	861.32
597.83	631.94
597.99	491.51
598.14	306.61
598.30	416.62
598.46	339.38
598.61	320.65
598.77	210.65
598.93	337.04
599.09	348.74
599.24	259.80
599.40	273.84
599.56	351.08
599.71	262.14
599.87	252.78
600.03	191.92
600.18	315.97
600.34	287.89
600.50	269.16
600.65	241.08
600.81	301.93
600.97	269.16
601.12	351.08
601.28	210.65
601.44	327.68
601.59	201.29
601.75	266.82
601.91	210.65
602.06	276.18
602.22	339.38
602.37	557.05
602.53	1015.79
602.69	1549.43
602.84	1474.54
603.00	1228.78
603.16	858.98
603.31	655.35
603.47	461.09
603.62	332.36
603.78	290.23
603.94	292.57
604.09	283.20
604.25	337.04
604.40	344.06
604.56	255.12
604.71	191.92
604.87	308.95
605.03	285.55
605.18	266.82
605.34	292.57
605.49	301.93
605.65	362.78
605.80	266.82
605.96	280.86
606.12	325.33
606.27	344.06
606.43	351.08
606.58	383.85
606.74	533.64
606.89	1865.41
607.05	3555.27
607.20	4674.05
607.36	3728.47
607.51	2574.59
607.67	1816.26
607.82	1336.45
607.98	891.74
608.13	503.22
608.29	376.83
608.44	423.64
608.60	397.89
608.75	397.89
608.91	788.76
609.06	2738.43
609.22	6026.88
609.37	7655.89
609.53	6825.00
609.68	4971.30
609.84	3056.74
609.99	2284.36
610.15	1310.70
610.30	896.43
610.46	711.52
610.61	681.10
610.76	858.98
610.92	823.87
611.07	826.21
611.23	926.85
611.38	809.83
611.54	718.54
611.69	575.77
611.84	613.22
612.00	601.52
612.15	500.87
612.31	510.24
612.46	624.92
612.62	631.94
612.77	669.39
612.92	636.63
613.08	589.82
613.23	510.24
613.39	503.22
613.54	718.54
613.69	2436.50
613.85	7250.98
614.00	11400.75
614.15	12615.49
614.31	8837.86
614.46	6045.60
614.62	4140.41
614.77	2576.93
614.92	1254.53
615.08	653.01
615.23	575.77
615.38	400.23
615.54	402.57
615.69	608.54
615.84	1495.60
616.00	2778.22
616.15	3485.06
616.30	2764.17
616.46	2071.37
616.61	1336.45
616.76	1036.86
616.92	585.13
617.07	414.27
617.22	411.93
617.37	322.99
617.53	304.27
617.68	311.29
617.83	262.14
617.99	372.15
618.14	437.68
618.29	393.21
618.45	229.37
618.60	276.18
618.75	276.18
618.90	264.48
619.06	245.76
619.21	365.12
619.36	252.78
619.51	201.29
619.67	301.93
619.82	241.08
619.97	278.52
620.12	362.78
620.28	287.89
620.43	283.20
620.58	269.16
620.73	330.02
620.89	297.25
621.04	477.47
621.19	987.71
621.34	1624.33
621.49	2012.86
621.65	1886.47
621.80	1371.55
621.95	1004.09
622.10	723.23
622.25	433.00
622.41	358.10
622.56	287.89
622.71	269.16
622.86	374.49
623.01	208.31
623.16	381.51
623.32	273.84
623.47	283.20
623.62	266.82
623.77	224.69
623.92	292.57
624.07	306.61
624.23	306.61
624.38	290.23
624.53	269.16
624.68	252.78
624.83	369.80
624.98	332.36
625.13	369.80
625.29	283.20
625.44	327.68
625.59	248.10
625.74	337.04
625.89	465.77
626.04	1418.36
626.19	3700.39
626.34	5921.56
626.49	6478.60
626.65	4842.57
626.80	3206.53
626.95	2368.62
627.10	1542.41
627.25	854.30
627.40	503.22
627.55	397.89
627.70	325.33
627.85	259.80
628.00	285.55
628.15	304.27
628.30	243.42
628.45	287.89
628.60	250.44
628.76	269.16
628.91	180.22
629.06	292.57
629.21	241.08
629.36	353.42
629.51	241.08
629.66	266.82
629.81	393.21
629.96	819.19
630.11	1488.58
630.26	1739.02
630.41	1795.19
630.56	1282.61
630.71	898.77
630.86	711.52
631.01	456.40
631.16	327.68
631.31	315.97
631.46	374.49
631.61	217.67
631.76	269.16
631.91	292.57
632.06	238.73
632.21	376.83
632.36	264.48
632.51	313.63
632.66	390.87
632.81	624.92
632.96	2052.65
633.10	3672.30
633.25	4592.13
633.40	3929.76
633.55	2710.34
633.70	1942.64
633.85	1343.47
634.00	807.48
634.15	477.47
634.30	339.38
634.45	304.27
634.60	325.33
634.75	259.80
634.90	236.39
635.05	212.99
635.19	255.12
635.34	287.89
635.49	252.78
635.64	250.44
635.79	252.78
635.94	215.33
636.09	252.78
636.24	266.82
636.39	259.80
636.53	290.23
636.68	283.20
636.83	330.02
636.98	285.55
637.13	269.16
637.28	353.42
637.43	360.44
637.57	449.38
637.72	1757.74
637.87	4669.37
638.02	7585.68
638.17	8252.73
638.32	5963.68
638.46	4252.75
638.61	2874.18
638.76	1792.85
638.91	1032.18
639.06	627.26
639.20	514.92
639.35	430.66
639.50	596.84
639.65	2590.97
639.80	7152.68
639.94	11400.75
640.09	12781.67
640.24	9371.50
640.39	6345.19
640.54	4648.30
640.68	2759.49
640.83	1448.79
640.98	629.60
641.13	472.79
641.27	416.62
641.42	411.93
641.57	292.57
641.72	250.44
641.86	327.68
642.01	276.18
642.16	297.25
642.31	208.31
642.45	311.29
642.60	276.18
642.75	210.65
642.90	285.55
643.04	304.27
643.19	222.35
643.34	198.95
643.48	227.03
643.63	159.16
643.78	264.48
643.93	201.29
644.07	212.99
644.22	201.29
644.37	189.58
644.51	327.68
644.66	224.69
644.81	266.82
644.95	222.35
645.10	294.91
645.25	210.65
645.39	292.57
645.54	231.71
645.69	243.42
645.83	224.69
645.98	215.33
646.13	271.50
646.27	217.67
646.42	266.82
646.57	184.90
646.71	210.65
646.86	222.35
647.00	266.82
647.15	257.46
647.30	184.90
647.44	243.42
647.59	236.39
647.74	194.26
647.88	177.88
648.03	222.35
648.17	308.95
648.32	238.73
648.47	269.16
648.61	187.24
648.76	203.63
648.90	156.82
649.05	257.46
649.20	212.99
649.34	236.39
649.49	241.08
649.63	248.10
649.78	278.52
649.92	365.12
650.07	964.30
650.21	3253.34
650.36	5753.04
650.51	6719.68
650.65	5558.77
650.80	3990.61
650.94	2715.02
651.09	1753.06
651.23	912.81
651.38	521.94
651.52	322.99
651.67	255.12
651.81	259.80
651.96	304.27
652.10	292.57
652.25	259.80
652.39	315.97
652.54	341.72
652.68	493.85
652.83	1142.18
652.97	2057.33
653.12	2546.50
653.26	2160.31
653.41	1685.19
653.55	1214.74
653.70	823.87
653.84	528.96
653.99	372.15
654.13	194.26
654.27	257.46
654.42	121.71
654.56	248.10
654.71	224.69
654.85	212.99
655.00	152.13
655.14	205.97
655.29	154.48
655.43	224.69
655.57	205.97
655.72	217.67
655.86	201.29
656.01	191.92
656.15	238.73
656.30	229.37
656.44	184.90
656.58	191.92
656.73	189.58
656.87	175.54
657.01	203.63
657.16	257.46
657.30	203.63
657.45	231.71
657.59	224.69
657.73	222.35
657.88	194.26
658.02	269.16
658.16	238.73
658.31	210.65
658.45	205.97
658.60	191.92
658.74	212.99
658.88	191.92
659.03	285.55
659.17	255.12
659.31	528.96
659.46	1409.00
659.60	2822.69
659.74	3368.03
659.89	2869.50
660.03	2333.51
660.17	1593.90
660.32	971.32
660.46	587.47
660.60	454.06
660.74	287.89
660.89	346.40
661.03	269.16
661.17	187.24
661.32	248.10
661.46	234.05
661.60	196.60
661.74	175.54
661.89	201.29
662.03	210.65
662.17	224.69
662.31	262.14
662.46	149.79
662.60	220.01
662.74	194.26
662.88	299.59
663.03	198.95
663.17	191.92
663.31	191.92
663.45	212.99
663.60	210.65
663.74	177.88
663.88	198.95
664.02	262.14
664.17	180.22
664.31	189.58
664.45	205.97
664.59	191.92
664.73	180.22
664.88	222.35
665.02	196.60
665.16	245.76
665.30	294.91
665.44	227.03
665.59	205.97
665.73	222.35
665.87	250.44
666.01	173.20
666.15	227.03
666.29	210.65
666.44	278.52
666.58	330.02
666.72	198.95
666.86	191.92
667.00	266.82
667.14	306.61
667.28	1004.09
667.43	2970.14
667.57	4788.74
667.71	5893.47
667.85	5146.84
667.99	3695.71
668.13	2394.37
668.27	1617.31
668.41	952.60
668.56	653.01
668.70	428.32
668.84	330.02
668.98	259.80
669.12	241.08
669.26	220.01
669.40	308.95
669.54	276.18
669.68	292.57
669.82	231.71
669.96	276.18
670.10	196.60
670.25	196.60
670.39	227.03
670.53	227.03
670.67	191.92
670.81	271.50
670.95	222.35
671.09	456.40
671.23	1104.73
671.37	2443.52
671.51	3325.90
671.65	3590.38
671.79	2909.29
671.93	2174.36
672.07	1313.04
672.21	816.85
672.35	500.87
672.49	365.12
672.63	334.70
672.77	220.01
672.91	301.93
673.05	262.14
673.19	266.82
673.33	212.99
673.47	290.23
673.61	189.58
673.75	184.90
673.89	290.23
674.03	257.46
674.17	187.24
674.31	222.35
674.45	156.82
674.59	173.20
674.73	243.42
674.87	238.73
675.01	229.37
675.15	285.55
675.29	205.97
675.43	222.35
675.56	280.86
675.70	231.71
675.84	224.69
675.98	285.55
676.12	189.58
676.26	229.37
676.40	180.22
676.54	234.05
676.68	198.95
676.82	234.05
676.96	173.20
677.10	147.45
677.23	149.79
677.37	201.29
677.51	198.95
677.65	227.03
677.79	212.99
677.93	138.09
678.07	182.56
678.21	210.65
678.34	168.52
678.48	177.88
678.62	189.58
678.76	149.79
678.90	152.13
679.04	212.99
679.18	189.58
679.31	236.39
679.45	149.79
679.59	245.76
679.73	224.69
679.87	117.03
680.00	191.92
680.14	138.09
680.28	224.69
680.42	180.22
680.56	184.90
680.70	191.92
680.83	196.60
680.97	147.45
681.11	142.77
681.25	102.98
681.39	184.90
681.52	264.48
681.66	163.84
681.80	149.79
681.94	93.62
682.07	182.56
682.21	220.01
682.35	152.13
682.49	159.16
682.62	154.48
682.76	205.97
682.90	196.60
683.04	208.31
683.17	205.97
683.31	238.73
683.45	212.99
683.59	163.84
683.72	248.10
683.86	135.75
684.00	159.16
684.13	278.52
684.27	107.66
684.41	217.67
684.55	107.66
684.68	175.54
684.82	173.20
684.96	128.73
685.09	189.58
685.23	147.45
685.37	117.03
685.50	234.05
685.64	276.18
685.78	201.29
685.91	266.82
686.05	224.69
686.19	166.18
686.32	196.60
686.46	166.18
686.60	248.10
686.73	238.73
686.87	149.79
687.01	175.54
687.14	208.31
687.28	119.37
687.42	208.31
687.55	182.56
687.69	210.65
687.82	168.52
687.96	238.73
688.10	212.99
688.23	215.33
688.37	212.99
688.50	224.69
688.64	194.26
688.78	177.88
688.91	187.24
689.05	154.48
689.18	138.09
689.32	128.73
689.46	170.86
689.59	212.99
689.73	187.24
689.86	142.77
690.00	252.78
690.13	257.46
690.27	74.90
690.41	210.65
690.54	236.39
690.68	121.71
690.81	187.24
690.95	208.31
691.08	168.52
691.22	215.33
691.35	217.67
691.49	154.48
691.62	117.03
691.76	205.97
691.89	238.73
692.03	201.29
692.16	243.42
692.30	154.48
692.43	496.19
692.57	1296.66
692.70	2040.95
692.84	2722.04
692.97	2518.42
693.11	1820.94
693.24	1324.74
693.38	971.32
693.51	667.05
693.65	475.13
693.78	341.72
693.92	264.48
694.05	229.37
694.19	156.82
694.32	166.18
694.45	163.84
694.59	152.13
694.72	215.33
694.86	229.37
694.99	229.37
695.13	156.82
695.26	163.84
695.39	135.75
695.53	196.60
695.66	156.82
695.80	191.92
695.93	234.05
696.07	203.63
696.20	257.46
696.33	236.39
696.47	285.55
696.60	299.59
696.73	327.68
696.87	201.29
697.00	276.18
697.14	210.65
697.27	236.39
697.40	222.35
697.54	184.90
697.67	217.67
697.80	173.20
697.94	191.92
698.07	170.86
698.21	140.43
698.34	142.77
698.47	166.18
698.61	152.13
698.74	84.26
698.87	231.71
699.01	138.09
699.14	170.86
699.27	161.50
699.40	264.48
699.54	159.16
699.67	95.96
699.80	163.84
699.94	145.11
700.07	159.16
700.20	128.73
700.34	175.54
700.47	175.54
700.60	189.58
700.73	128.73
700.87	201.29
701.00	182.56
701.13	196.60
701.26	175.54
701.40	196.60
701.53	135.75
701.66	145.11
701.79	149.79
701.93	220.01
702.06	315.97
702.19	248.10
702.32	358.10
702.46	315.97
702.59	320.65
702.72	552.37
702.85	1345.81
702.99	3229.94
703.12	4442.34
703.25	4802.78
703.38	4032.74
703.51	3316.54
703.65	2686.94
703.78	1816.26
703.91	1268.57
704.04	868.34
704.17	594.50
704.31	425.98
704.44	301.93
704.57	196.60
704.70	196.60
704.83	170.86
704.96	182.56
705.10	184.90
705.23	168.52
>>>>>End Processed Spectral Data<<<<<
