SpectraSuite Data File
++++++++++++++++++++++++++++++++++++
Date: Fri Oct 04 11:33:57 GMT-05:00 2013
User: price-jones
Dark Spectrum Present: No
Reference Spectrum Present: No
Number of Sampled Component Spectra: 1
Spectrometers: USB2+H05261
Integration Time (usec): 100000 (USB2+H05261)
Spectra Averaged: 1 (USB2+H05261)
Boxcar Smoothing: 0 (USB2+H05261)
Correct for Electrical Dark: No (USB2+H05261)
Strobe/Lamp Enabled: No (USB2+H05261)
Correct for Detector Non-linearity: No (USB2+H05261)
Correct for Stray Light: No (USB2+H05261)
Number of Pixels in Processed Spectrum: 2048
>>>>>Begin Processed Spectral Data<<<<<
365.73	21.06
365.92	21.06
366.12	21.06
366.32	4.68
366.52	0.00
366.72	9.36
366.91	0.00
367.11	0.00
367.31	0.00
367.51	0.00
367.70	0.00
367.90	0.00
368.10	0.00
368.30	0.00
368.49	0.00
368.69	9.36
368.89	0.00
369.09	0.00
369.28	0.00
369.48	32.77
369.68	0.00
369.87	0.00
370.07	0.00
370.27	21.06
370.47	93.62
370.66	65.54
370.86	70.22
371.06	145.11
371.25	93.62
371.45	114.69
371.65	100.64
371.84	102.98
372.04	84.26
372.24	60.85
372.44	110.01
372.63	81.92
372.83	149.79
373.03	79.58
373.22	107.66
373.42	126.39
373.62	184.90
373.81	149.79
374.01	184.90
374.21	166.18
374.40	196.60
374.60	234.05
374.79	177.88
374.99	152.13
375.19	156.82
375.38	191.92
375.58	110.01
375.78	220.01
375.97	168.52
376.17	194.26
376.37	135.75
376.56	189.58
376.76	135.75
376.95	145.11
377.15	222.35
377.35	191.92
377.54	114.69
377.74	114.69
377.93	126.39
378.13	128.73
378.33	147.45
378.52	84.26
378.72	189.58
378.91	133.41
379.11	133.41
379.31	187.24
379.50	124.05
379.70	194.26
379.89	117.03
380.09	126.39
380.28	168.52
380.48	168.52
380.68	110.01
380.87	131.07
381.07	159.16
381.26	93.62
381.46	173.20
381.65	234.05
381.85	70.22
382.04	112.35
382.24	110.01
382.43	84.26
382.63	142.77
382.83	117.03
383.02	114.69
383.22	173.20
383.41	100.64
383.61	124.05
383.80	147.45
384.00	145.11
384.19	56.17
384.39	93.62
384.58	121.71
384.78	77.24
384.97	170.86
385.17	154.48
385.36	152.13
385.56	154.48
385.75	147.45
385.95	135.75
386.14	152.13
386.34	112.35
386.53	112.35
386.72	166.18
386.92	156.82
387.11	149.79
387.31	124.05
387.50	124.05
387.70	81.92
387.89	131.07
388.09	161.50
388.28	159.16
388.48	205.97
388.67	187.24
388.86	102.98
389.06	114.69
389.25	140.43
389.45	79.58
389.64	147.45
389.84	187.24
390.03	210.65
390.22	159.16
390.42	147.45
390.61	128.73
390.81	147.45
391.00	86.60
391.19	177.88
391.39	180.22
391.58	128.73
391.78	180.22
391.97	159.16
392.16	95.96
392.36	156.82
392.55	170.86
392.75	156.82
392.94	105.32
393.13	161.50
393.33	93.62
393.52	159.16
393.71	203.63
393.91	133.41
394.10	133.41
394.29	201.29
394.49	107.66
394.68	152.13
394.88	173.20
395.07	194.26
395.26	149.79
395.46	168.52
395.65	173.20
395.84	187.24
396.04	201.29
396.23	91.28
396.42	177.88
396.62	147.45
396.81	196.60
397.00	170.86
397.19	159.16
397.39	142.77
397.58	205.97
397.77	102.98
397.97	163.84
398.16	112.35
398.35	187.24
398.55	121.71
398.74	133.41
398.93	133.41
399.12	110.01
399.32	142.77
399.51	119.37
399.70	215.33
399.90	124.05
400.09	234.05
400.28	163.84
400.47	133.41
400.67	241.08
400.86	166.18
401.05	112.35
401.24	142.77
401.44	177.88
401.63	159.16
401.82	161.50
402.01	142.77
402.21	142.77
402.40	149.79
402.59	128.73
402.78	121.71
402.97	147.45
403.17	203.63
403.36	152.13
403.55	142.77
403.74	215.33
403.93	220.01
404.13	255.12
404.32	201.29
404.51	215.33
404.70	191.92
404.89	215.33
405.09	220.01
405.28	135.75
405.47	177.88
405.66	133.41
405.85	156.82
406.05	135.75
406.24	217.67
406.43	131.07
406.62	121.71
406.81	220.01
407.00	175.54
407.20	168.52
407.39	177.88
407.58	182.56
407.77	177.88
407.96	154.48
408.15	229.37
408.34	163.84
408.54	133.41
408.73	163.84
408.92	147.45
409.11	124.05
409.30	229.37
409.49	145.11
409.68	142.77
409.87	114.69
410.07	156.82
410.26	138.09
410.45	147.45
410.64	117.03
410.83	126.39
411.02	152.13
411.21	248.10
411.40	196.60
411.59	189.58
411.78	131.07
411.98	117.03
412.17	100.64
412.36	117.03
412.55	124.05
412.74	154.48
412.93	159.16
413.12	105.32
413.31	170.86
413.50	131.07
413.69	124.05
413.88	128.73
414.07	140.43
414.26	252.78
414.45	163.84
414.64	114.69
414.83	243.42
415.02	140.43
415.22	173.20
415.41	198.95
415.60	124.05
415.79	180.22
415.98	234.05
416.17	173.20
416.36	86.60
416.55	145.11
416.74	138.09
416.93	177.88
417.12	149.79
417.31	100.64
417.50	201.29
417.69	231.71
417.88	231.71
418.07	201.29
418.26	168.52
418.45	229.37
418.64	196.60
418.83	311.29
419.02	166.18
419.21	196.60
419.39	198.95
419.58	229.37
419.77	217.67
419.96	203.63
420.15	184.90
420.34	203.63
420.53	161.50
420.72	234.05
420.91	107.66
421.10	180.22
421.29	149.79
421.48	170.86
421.67	191.92
421.86	173.20
422.05	135.75
422.24	154.48
422.43	170.86
422.61	138.09
422.80	168.52
422.99	203.63
423.18	180.22
423.37	166.18
423.56	215.33
423.75	163.84
423.94	170.86
424.13	177.88
424.32	264.48
424.50	161.50
424.69	170.86
424.88	201.29
425.07	191.92
425.26	184.90
425.45	248.10
425.64	283.20
425.83	224.69
426.01	187.24
426.20	161.50
426.39	177.88
426.58	175.54
426.77	135.75
426.96	175.54
427.15	187.24
427.33	201.29
427.52	182.56
427.71	241.08
427.90	182.56
428.09	163.84
428.28	194.26
428.46	88.94
428.65	201.29
428.84	170.86
429.03	229.37
429.22	147.45
429.40	163.84
429.59	133.41
429.78	112.35
429.97	205.97
430.16	187.24
430.34	154.48
430.53	208.31
430.72	133.41
430.91	168.52
431.10	145.11
431.28	131.07
431.47	100.64
431.66	252.78
431.85	161.50
432.03	189.58
432.22	308.95
432.41	210.65
432.60	177.88
432.79	198.95
432.97	245.76
433.16	276.18
433.35	238.73
433.54	250.44
433.72	224.69
433.91	222.35
434.10	187.24
434.28	194.26
434.47	266.82
434.66	264.48
434.85	241.08
435.03	278.52
435.22	390.87
435.41	477.47
435.59	468.11
435.78	353.42
435.97	215.33
436.16	210.65
436.34	201.29
436.53	182.56
436.72	170.86
436.90	117.03
437.09	194.26
437.28	243.42
437.46	145.11
437.65	152.13
437.84	177.88
438.02	156.82
438.21	156.82
438.40	203.63
438.58	140.43
438.77	173.20
438.96	152.13
439.14	236.39
439.33	224.69
439.52	203.63
439.70	203.63
439.89	149.79
440.08	124.05
440.26	191.92
440.45	215.33
440.63	231.71
440.82	220.01
441.01	163.84
441.19	175.54
441.38	166.18
441.57	182.56
441.75	189.58
441.94	215.33
442.12	189.58
442.31	128.73
442.50	173.20
442.68	149.79
442.87	145.11
443.05	102.98
443.24	187.24
443.43	175.54
443.61	205.97
443.80	154.48
443.98	124.05
444.17	175.54
444.35	229.37
444.54	222.35
444.73	255.12
444.91	259.80
445.10	121.71
445.28	88.94
445.47	154.48
445.65	238.73
445.84	168.52
446.02	217.67
446.21	250.44
446.39	133.41
446.58	212.99
446.77	159.16
446.95	161.50
447.14	208.31
447.32	187.24
447.51	180.22
447.69	208.31
447.88	262.14
448.06	166.18
448.25	112.35
448.43	191.92
448.62	170.86
448.80	161.50
448.99	163.84
449.17	259.80
449.36	170.86
449.54	236.39
449.73	159.16
449.91	210.65
450.10	187.24
450.28	227.03
450.46	196.60
450.65	229.37
450.83	227.03
451.02	131.07
451.20	198.95
451.39	100.64
451.57	173.20
451.76	196.60
451.94	187.24
452.13	154.48
452.31	128.73
452.49	238.73
452.68	140.43
452.86	168.52
453.05	255.12
453.23	170.86
453.42	168.52
453.60	100.64
453.78	201.29
453.97	149.79
454.15	131.07
454.34	163.84
454.52	145.11
454.70	280.86
454.89	205.97
455.07	208.31
455.26	198.95
455.44	205.97
455.62	187.24
455.81	112.35
455.99	205.97
456.17	255.12
456.36	161.50
456.54	145.11
456.73	161.50
456.91	156.82
457.09	182.56
457.28	173.20
457.46	147.45
457.64	196.60
457.83	166.18
458.01	102.98
458.19	229.37
458.38	264.48
458.56	205.97
458.74	194.26
458.93	220.01
459.11	149.79
459.29	105.32
459.48	290.23
459.66	201.29
459.84	234.05
460.03	283.20
460.21	175.54
460.39	201.29
460.57	294.91
460.76	208.31
460.94	194.26
461.12	210.65
461.31	231.71
461.49	166.18
461.67	142.77
461.85	217.67
462.04	205.97
462.22	587.47
462.40	208.31
462.59	231.71
462.77	182.56
462.95	156.82
463.13	191.92
463.32	264.48
463.50	269.16
463.68	135.75
463.86	201.29
464.05	191.92
464.23	280.86
464.41	280.86
464.59	287.89
464.78	177.88
464.96	187.24
465.14	201.29
465.32	102.98
465.50	299.59
465.69	184.90
465.87	220.01
466.05	280.86
466.23	126.39
466.41	278.52
466.60	184.90
466.78	154.48
466.96	124.05
467.14	189.58
467.32	182.56
467.51	208.31
467.69	196.60
467.87	224.69
468.05	161.50
468.23	189.58
468.41	234.05
468.60	201.29
468.78	191.92
468.96	273.84
469.14	231.71
469.32	98.30
469.50	196.60
469.69	196.60
469.87	180.22
470.05	217.67
470.23	159.16
470.41	198.95
470.59	159.16
470.77	224.69
470.95	196.60
471.14	215.33
471.32	205.97
471.50	208.31
471.68	250.44
471.86	220.01
472.04	163.84
472.22	194.26
472.40	259.80
472.58	210.65
472.77	159.16
472.95	217.67
473.13	318.31
473.31	259.80
473.49	168.52
473.67	177.88
473.85	152.13
474.03	191.92
474.21	166.18
474.39	255.12
474.57	234.05
474.75	191.92
474.93	245.76
475.12	203.63
475.30	250.44
475.48	168.52
475.66	191.92
475.84	217.67
476.02	229.37
476.20	257.46
476.38	152.13
476.56	238.73
476.74	271.50
476.92	107.66
477.10	229.37
477.28	201.29
477.46	88.94
477.64	220.01
477.82	152.13
478.00	170.86
478.18	128.73
478.36	152.13
478.54	210.65
478.72	170.86
478.90	173.20
479.08	229.37
479.26	168.52
479.44	191.92
479.62	198.95
479.80	175.54
479.98	222.35
480.16	234.05
480.34	175.54
480.52	294.91
480.70	210.65
480.88	231.71
481.06	234.05
481.24	175.54
481.41	147.45
481.59	159.16
481.77	210.65
481.95	217.67
482.13	198.95
482.31	201.29
482.49	257.46
482.67	210.65
482.85	220.01
483.03	187.24
483.21	250.44
483.39	252.78
483.57	191.92
483.74	250.44
483.92	205.97
484.10	266.82
484.28	248.10
484.46	276.18
484.64	187.24
484.82	278.52
485.00	243.42
485.18	262.14
485.35	276.18
485.53	262.14
485.71	224.69
485.89	215.33
486.07	215.33
486.25	306.61
486.43	217.67
486.61	231.71
486.78	299.59
486.96	191.92
487.14	180.22
487.32	220.01
487.50	243.42
487.68	238.73
487.85	215.33
488.03	248.10
488.21	266.82
488.39	231.71
488.57	285.55
488.75	252.78
488.92	543.00
489.10	276.18
489.28	332.36
489.46	292.57
489.64	266.82
489.81	241.08
489.99	292.57
490.17	189.58
490.35	304.27
490.53	217.67
490.70	264.48
490.88	257.46
491.06	243.42
491.24	236.39
491.41	292.57
491.59	283.20
491.77	266.82
491.95	156.82
492.13	236.39
492.30	255.12
492.48	210.65
492.66	252.78
492.84	245.76
493.01	250.44
493.19	318.31
493.37	318.31
493.54	280.86
493.72	198.95
493.90	320.65
494.08	262.14
494.25	337.04
494.43	245.76
494.61	227.03
494.79	161.50
494.96	196.60
495.14	348.74
495.32	161.50
495.49	250.44
495.67	297.25
495.85	259.80
496.02	210.65
496.20	241.08
496.38	280.86
496.55	212.99
496.73	313.63
496.91	156.82
497.09	271.50
497.26	262.14
497.44	280.86
497.62	280.86
497.79	262.14
497.97	248.10
498.14	259.80
498.32	290.23
498.50	252.78
498.67	234.05
498.85	238.73
499.03	290.23
499.20	276.18
499.38	236.39
499.56	290.23
499.73	273.84
499.91	266.82
500.08	257.46
500.26	259.80
500.44	280.86
500.61	220.01
500.79	220.01
500.97	266.82
501.14	290.23
501.32	255.12
501.49	264.48
501.67	271.50
501.84	222.35
502.02	205.97
502.20	271.50
502.37	257.46
502.55	313.63
502.72	285.55
502.90	294.91
503.07	220.01
503.25	243.42
503.43	229.37
503.60	241.08
503.78	184.90
503.95	224.69
504.13	198.95
504.30	245.76
504.48	220.01
504.65	245.76
504.83	262.14
505.01	198.95
505.18	308.95
505.36	322.99
505.53	220.01
505.71	224.69
505.88	308.95
506.06	262.14
506.23	196.60
506.41	234.05
506.58	294.91
506.76	205.97
506.93	203.63
507.11	327.68
507.28	252.78
507.46	229.37
507.63	227.03
507.81	180.22
507.98	273.84
508.16	269.16
508.33	341.72
508.50	318.31
508.68	189.58
508.85	255.12
509.03	257.46
509.20	285.55
509.38	313.63
509.55	344.06
509.73	234.05
509.90	243.42
510.08	287.89
510.25	301.93
510.42	346.40
510.60	224.69
510.77	229.37
510.95	297.25
511.12	327.68
511.30	264.48
511.47	360.44
511.64	365.12
511.82	238.73
511.99	280.86
512.17	262.14
512.34	276.18
512.51	287.89
512.69	271.50
512.86	259.80
513.04	177.88
513.21	255.12
513.38	266.82
513.56	264.48
513.73	262.14
513.90	234.05
514.08	287.89
514.25	287.89
514.43	222.35
514.60	234.05
514.77	264.48
514.95	299.59
515.12	220.01
515.29	294.91
515.47	304.27
515.64	315.97
515.81	341.72
515.99	311.29
516.16	278.52
516.33	245.76
516.51	210.65
516.68	278.52
516.85	222.35
517.03	320.65
517.20	287.89
517.37	311.29
517.54	229.37
517.72	220.01
517.89	182.56
518.06	231.71
518.24	294.91
518.41	276.18
518.58	252.78
518.75	236.39
518.93	224.69
519.10	264.48
519.27	262.14
519.45	255.12
519.62	318.31
519.79	299.59
519.96	250.44
520.14	271.50
520.31	290.23
520.48	236.39
520.65	360.44
520.83	245.76
521.00	264.48
521.17	304.27
521.34	294.91
521.52	231.71
521.69	264.48
521.86	210.65
522.03	297.25
522.20	245.76
522.38	315.97
522.55	227.03
522.72	173.20
522.89	266.82
523.07	308.95
523.24	294.91
523.41	278.52
523.58	248.10
523.75	248.10
523.92	212.99
524.10	280.86
524.27	262.14
524.44	238.73
524.61	280.86
524.78	241.08
524.96	269.16
525.13	285.55
525.30	299.59
525.47	327.68
525.64	318.31
525.81	234.05
525.98	248.10
526.16	311.29
526.33	262.14
526.50	257.46
526.67	243.42
526.84	245.76
527.01	187.24
527.18	266.82
527.36	278.52
527.53	313.63
527.70	280.86
527.87	196.60
528.04	266.82
528.21	238.73
528.38	297.25
528.55	255.12
528.72	264.48
528.89	301.93
529.07	250.44
529.24	266.82
529.41	306.61
529.58	290.23
529.75	220.01
529.92	297.25
530.09	264.48
530.26	332.36
530.43	318.31
530.60	252.78
530.77	290.23
530.94	320.65
531.11	271.50
531.28	231.71
531.46	222.35
531.63	203.63
531.80	308.95
531.97	325.33
532.14	311.29
532.31	264.48
532.48	271.50
532.65	379.17
532.82	348.74
532.99	322.99
533.16	341.72
533.33	376.83
533.50	341.72
533.67	287.89
533.84	346.40
534.01	440.02
534.18	283.20
534.35	360.44
534.52	264.48
534.69	332.36
534.86	313.63
535.03	285.55
535.20	224.69
535.37	255.12
535.54	220.01
535.71	287.89
535.88	273.84
536.05	334.70
536.22	311.29
536.38	224.69
536.55	341.72
536.72	285.55
536.89	271.50
537.06	301.93
537.23	327.68
537.40	351.08
537.57	306.61
537.74	409.59
537.91	365.12
538.08	365.12
538.25	308.95
538.42	287.89
538.59	318.31
538.75	276.18
538.92	393.21
539.09	327.68
539.26	243.42
539.43	456.40
539.60	858.98
539.77	1055.58
539.94	1130.48
540.11	828.55
540.28	697.48
540.44	559.39
540.61	477.47
540.78	479.81
540.95	411.93
541.12	433.00
541.29	510.24
541.46	493.85
541.62	589.82
541.79	582.79
541.96	587.47
542.13	493.85
542.30	489.17
542.47	435.34
542.63	545.34
542.80	486.83
542.97	484.49
543.14	437.68
543.31	561.73
543.48	493.85
543.64	479.81
543.81	468.11
543.98	472.79
544.15	486.83
544.32	500.87
544.48	440.02
544.65	493.85
544.82	449.38
544.99	496.19
545.16	498.53
545.32	472.79
545.49	741.95
545.66	966.64
545.83	968.98
546.00	809.83
546.16	704.50
546.33	524.28
546.50	491.51
546.67	519.60
546.83	440.02
547.00	437.68
547.17	407.25
547.34	400.23
547.50	360.44
547.67	423.64
547.84	374.49
548.00	411.93
548.17	330.02
548.34	299.59
548.51	472.79
548.67	397.89
548.84	362.78
549.01	348.74
549.18	379.17
549.34	372.15
549.51	365.12
549.68	351.08
549.84	365.12
550.01	330.02
550.18	425.98
550.34	362.78
550.51	301.93
550.68	348.74
550.84	337.04
551.01	301.93
551.18	318.31
551.34	334.70
551.51	325.33
551.68	337.04
551.84	241.08
552.01	318.31
552.18	234.05
552.34	306.61
552.51	365.12
552.68	313.63
552.84	320.65
553.01	271.50
553.18	318.31
553.34	269.16
553.51	292.57
553.67	318.31
553.84	315.97
554.01	306.61
554.17	262.14
554.34	332.36
554.51	355.76
554.67	271.50
554.84	353.42
555.00	308.95
555.17	313.63
555.33	280.86
555.50	259.80
555.67	243.42
555.83	341.72
556.00	346.40
556.16	496.19
556.33	383.85
556.50	273.84
556.66	248.10
556.83	269.16
556.99	273.84
557.16	365.12
557.32	299.59
557.49	236.39
557.65	304.27
557.82	294.91
557.98	285.55
558.15	229.37
558.32	318.31
558.48	257.46
558.65	224.69
558.81	304.27
558.98	276.18
559.14	271.50
559.31	229.37
559.47	198.95
559.64	205.97
559.80	273.84
559.97	238.73
560.13	252.78
560.30	292.57
560.46	229.37
560.63	201.29
560.79	306.61
560.96	222.35
561.12	311.29
561.29	250.44
561.45	262.14
561.61	297.25
561.78	402.57
561.94	215.33
562.11	294.91
562.27	257.46
562.44	301.93
562.60	215.33
562.77	322.99
562.93	355.76
563.10	320.65
563.26	304.27
563.42	236.39
563.59	386.19
563.75	266.82
563.92	290.23
564.08	308.95
564.24	318.31
564.41	257.46
564.57	198.95
564.74	250.44
564.90	325.33
565.07	255.12
565.23	334.70
565.39	301.93
565.56	334.70
565.72	283.20
565.88	229.37
566.05	278.52
566.21	308.95
566.38	259.80
566.54	231.71
566.70	252.78
566.87	250.44
567.03	292.57
567.19	245.76
567.36	259.80
567.52	311.29
567.68	313.63
567.85	229.37
568.01	262.14
568.17	311.29
568.34	299.59
568.50	339.38
568.66	327.68
568.83	325.33
568.99	220.01
569.15	264.48
569.32	227.03
569.48	266.82
569.64	257.46
569.81	290.23
569.97	259.80
570.13	294.91
570.30	245.76
570.46	271.50
570.62	320.65
570.78	205.97
570.95	191.92
571.11	229.37
571.27	227.03
571.43	227.03
571.60	306.61
571.76	262.14
571.92	259.80
572.09	194.26
572.25	248.10
572.41	257.46
572.57	259.80
572.74	280.86
572.90	344.06
573.06	266.82
573.22	273.84
573.38	273.84
573.55	245.76
573.71	264.48
573.87	292.57
574.03	262.14
574.20	234.05
574.36	346.40
574.52	297.25
574.68	337.04
574.84	346.40
575.01	217.67
575.17	276.18
575.33	259.80
575.49	264.48
575.65	301.93
575.82	346.40
575.98	580.45
576.14	510.24
576.30	550.03
576.46	561.73
576.62	468.11
576.79	421.30
576.95	383.85
577.11	369.80
577.27	346.40
577.43	294.91
577.59	418.96
577.75	325.33
577.92	259.80
578.08	248.10
578.24	346.40
578.40	365.12
578.56	376.83
578.72	458.74
578.88	367.46
579.04	365.12
579.21	362.78
579.37	330.02
579.53	327.68
579.69	341.72
579.85	351.08
580.01	423.64
580.17	383.85
580.33	369.80
580.49	322.99
580.65	325.33
580.82	339.38
580.98	334.70
581.14	330.02
581.30	372.15
581.46	332.36
581.62	484.49
581.78	491.51
581.94	503.22
582.10	444.70
582.26	470.45
582.42	388.53
582.58	390.87
582.74	456.40
582.90	425.98
583.06	428.32
583.22	393.21
583.38	461.09
583.54	430.66
583.70	566.41
583.86	552.37
584.02	585.13
584.18	739.61
584.34	880.04
584.50	2190.74
584.66	15412.43
584.82	39285.89
584.98	50967.51
585.14	45900.25
585.30	29095.20
585.46	17507.21
585.62	10766.46
585.78	5165.56
585.94	2146.27
586.10	1109.41
586.26	800.46
586.42	648.33
586.58	552.37
586.74	571.09
586.90	547.69
587.06	585.13
587.22	585.13
587.38	491.51
587.54	968.98
587.70	2441.18
587.86	3705.07
588.02	3896.99
588.18	2801.62
588.34	1919.24
588.49	1329.42
588.65	833.23
588.81	521.94
588.97	388.53
589.13	381.51
589.29	367.46
589.45	351.08
589.61	346.40
589.77	386.19
589.93	369.80
590.08	362.78
590.24	372.15
590.40	397.89
590.56	372.15
590.72	374.49
590.88	355.76
591.04	334.70
591.20	355.76
591.35	355.76
591.51	243.42
591.67	212.99
591.83	393.21
591.99	358.10
592.15	369.80
592.31	322.99
592.46	409.59
592.62	308.95
592.78	299.59
592.94	379.17
593.10	220.01
593.26	379.17
593.41	418.96
593.57	358.10
593.73	496.19
593.89	2071.37
594.05	4753.63
594.20	6574.56
594.36	6272.64
594.52	3976.57
594.68	2729.06
594.84	1760.08
594.99	1116.44
595.15	655.35
595.31	440.02
595.47	383.85
595.62	346.40
595.78	301.93
595.94	334.70
596.10	360.44
596.25	287.89
596.41	318.31
596.57	397.89
596.73	271.50
596.88	491.51
597.04	1102.39
597.20	1572.84
597.36	1734.34
597.51	1392.62
597.67	933.87
597.83	685.78
597.99	521.94
598.14	418.96
598.30	383.85
598.46	379.17
598.61	393.21
598.77	367.46
598.93	372.15
599.09	330.02
599.24	341.72
599.40	299.59
599.56	341.72
599.71	320.65
599.87	322.99
600.03	341.72
600.18	360.44
600.34	318.31
600.50	290.23
600.65	315.97
600.81	271.50
600.97	290.23
601.12	283.20
601.28	339.38
601.44	334.70
601.59	276.18
601.75	299.59
601.91	315.97
602.06	346.40
602.22	322.99
602.37	589.82
602.53	1247.51
602.69	1724.97
602.84	1734.34
603.00	1331.76
603.16	915.15
603.31	704.50
603.47	543.00
603.62	358.10
603.78	294.91
603.94	304.27
604.09	280.86
604.25	304.27
604.40	271.50
604.56	276.18
604.71	332.36
604.87	262.14
605.03	252.78
605.18	250.44
605.34	266.82
605.49	318.31
605.65	353.42
605.80	301.93
605.96	362.78
606.12	276.18
606.27	369.80
606.43	332.36
606.58	337.04
606.74	695.14
606.89	2366.28
607.05	4587.45
607.20	5582.18
607.36	4512.55
607.51	3049.72
607.67	2120.53
607.82	1570.50
607.98	1046.22
608.13	573.43
608.29	440.02
608.44	458.74
608.60	491.51
608.75	472.79
608.91	919.83
609.06	3754.22
609.22	7508.44
609.37	9596.20
609.53	8449.33
609.68	5767.08
609.84	3899.33
609.99	2614.38
610.15	1558.80
610.30	976.00
610.46	894.08
610.61	858.98
610.76	945.58
610.92	992.39
611.07	994.73
611.23	1071.97
611.38	980.68
611.54	912.81
611.69	805.14
611.84	737.27
612.00	655.35
612.15	592.16
612.31	655.35
612.46	695.14
612.62	795.78
612.77	690.46
612.92	603.86
613.08	660.03
613.23	662.37
613.39	564.07
613.54	947.92
613.69	3576.34
613.85	9200.65
614.00	14464.51
614.15	15136.24
614.31	10520.71
614.46	7185.44
614.62	4858.95
614.77	2991.20
614.92	1418.36
615.08	812.17
615.23	613.22
615.38	578.11
615.54	503.22
615.69	802.80
615.84	2001.16
616.00	3295.47
616.15	4107.64
616.30	3227.60
616.46	2375.64
616.61	1750.72
616.76	1203.04
616.92	842.59
617.07	449.38
617.22	397.89
617.37	386.19
617.53	372.15
617.68	344.06
617.83	360.44
617.99	332.36
618.14	369.80
618.29	271.50
618.45	327.68
618.60	273.84
618.75	292.57
618.90	276.18
619.06	365.12
619.21	351.08
619.36	353.42
619.51	294.91
619.67	325.33
619.82	264.48
619.97	271.50
620.12	285.55
620.28	290.23
620.43	337.04
620.58	353.42
620.73	386.19
620.89	423.64
621.04	451.72
621.19	1123.46
621.34	1982.43
621.49	2487.99
621.65	2111.16
621.80	1673.48
621.95	1146.86
622.10	870.68
622.25	519.60
622.41	416.62
622.56	283.20
622.71	315.97
622.86	358.10
623.01	353.42
623.16	273.84
623.32	278.52
623.47	297.25
623.62	299.59
623.77	264.48
623.92	301.93
624.07	285.55
624.23	271.50
624.38	234.05
624.53	273.84
624.68	308.95
624.83	290.23
624.98	367.46
625.13	238.73
625.29	311.29
625.44	278.52
625.59	311.29
625.74	376.83
625.89	430.66
626.04	1788.17
626.19	4517.23
626.34	7173.74
626.49	7777.60
626.65	5685.16
626.80	3964.87
626.95	2832.05
627.10	1680.50
627.25	945.58
627.40	496.19
627.55	358.10
627.70	248.10
627.85	198.95
628.00	322.99
628.15	299.59
628.30	278.52
628.45	297.25
628.60	365.12
628.76	322.99
628.91	280.86
629.06	283.20
629.21	358.10
629.36	320.65
629.51	322.99
629.66	339.38
629.81	397.89
629.96	1067.28
630.11	1720.29
630.26	2153.29
630.41	1926.26
630.56	1497.94
630.71	1015.79
630.86	755.99
631.01	615.56
631.16	447.04
631.31	430.66
631.46	376.83
631.61	360.44
631.76	367.46
631.91	222.35
632.06	330.02
632.21	318.31
632.36	308.95
632.51	301.93
632.66	355.76
632.81	887.06
632.96	2569.91
633.10	4500.85
633.25	5210.03
633.40	4339.35
633.55	3148.02
633.70	2230.53
633.85	1500.28
634.00	858.98
634.15	526.62
634.30	397.89
634.45	367.46
634.60	322.99
634.75	362.78
634.90	287.89
635.05	313.63
635.19	341.72
635.34	236.39
635.49	189.58
635.64	266.82
635.79	273.84
635.94	248.10
636.09	283.20
636.24	327.68
636.39	315.97
636.53	264.48
636.68	229.37
636.83	257.46
636.98	341.72
637.13	322.99
637.28	367.46
637.43	353.42
637.57	531.30
637.72	2193.08
637.87	5966.03
638.02	8816.80
638.17	9638.33
638.32	7311.83
638.46	4957.25
638.61	3536.55
638.76	2085.42
638.91	1107.07
639.06	685.78
639.20	568.75
639.35	442.36
639.50	692.80
639.65	3176.11
639.80	9029.79
639.94	13549.36
640.09	14782.82
640.24	11056.69
640.39	7730.79
640.54	5172.58
640.68	3246.32
640.83	1680.50
640.98	802.80
641.13	479.81
641.27	341.72
641.42	411.93
641.57	376.83
641.72	266.82
641.86	241.08
642.01	301.93
642.16	264.48
642.31	276.18
642.45	297.25
642.60	294.91
642.75	337.04
642.90	341.72
643.04	262.14
643.19	259.80
643.34	257.46
643.48	285.55
643.63	208.31
643.78	248.10
643.93	294.91
644.07	311.29
644.22	173.20
644.37	231.71
644.51	290.23
644.66	215.33
644.81	212.99
644.95	278.52
645.10	266.82
645.25	156.82
645.39	280.86
645.54	191.92
645.69	280.86
645.83	210.65
645.98	320.65
646.13	269.16
646.27	234.05
646.42	278.52
646.57	290.23
646.71	196.60
646.86	259.80
647.00	234.05
647.15	248.10
647.30	198.95
647.44	262.14
647.59	220.01
647.74	252.78
647.88	224.69
648.03	231.71
648.17	264.48
648.32	196.60
648.47	257.46
648.61	255.12
648.76	276.18
648.90	294.91
649.05	269.16
649.20	220.01
649.34	203.63
649.49	271.50
649.63	196.60
649.78	273.84
649.92	365.12
650.07	1409.00
650.21	3882.95
650.36	6494.99
650.51	7639.51
650.65	6263.27
650.80	4423.61
650.94	3035.67
651.09	1891.15
651.23	1107.07
651.38	552.37
651.52	383.85
651.67	315.97
651.81	259.80
651.96	344.06
652.10	287.89
652.25	259.80
652.39	266.82
652.54	362.78
652.68	491.51
652.83	1331.76
652.97	2235.21
653.12	2813.32
653.26	2434.16
653.41	1916.90
653.55	1301.34
653.70	873.02
653.84	505.56
653.99	444.70
654.13	212.99
654.27	276.18
654.42	203.63
654.56	236.39
654.71	290.23
654.85	212.99
655.00	173.20
655.14	234.05
655.29	189.58
655.43	241.08
655.57	241.08
655.72	278.52
655.86	224.69
656.01	170.86
656.15	189.58
656.30	259.80
656.44	196.60
656.58	198.95
656.73	189.58
656.87	201.29
657.01	292.57
657.16	299.59
657.30	217.67
657.45	250.44
657.59	234.05
657.73	262.14
657.88	273.84
658.02	313.63
658.16	238.73
658.31	236.39
658.45	208.31
658.60	196.60
658.74	238.73
658.88	205.97
659.03	234.05
659.17	297.25
659.31	648.33
659.46	1799.87
659.60	3103.55
659.74	3981.25
659.89	3543.57
660.03	2476.29
660.17	1898.17
660.32	1228.78
660.46	746.63
660.60	465.77
660.74	297.25
660.89	255.12
661.03	273.84
661.17	227.03
661.32	170.86
661.46	170.86
661.60	180.22
661.74	252.78
661.89	266.82
662.03	238.73
662.17	278.52
662.31	283.20
662.46	215.33
662.60	262.14
662.74	224.69
662.88	252.78
663.03	257.46
663.17	245.76
663.31	264.48
663.45	201.29
663.60	217.67
663.74	182.56
663.88	182.56
664.02	231.71
664.17	220.01
664.31	245.76
664.45	180.22
664.59	208.31
664.73	234.05
664.88	273.84
665.02	259.80
665.16	278.52
665.30	262.14
665.44	299.59
665.59	224.69
665.73	280.86
665.87	138.09
666.01	276.18
666.15	231.71
666.29	154.48
666.44	231.71
666.58	264.48
666.72	325.33
666.86	205.97
667.00	292.57
667.14	390.87
667.28	1160.91
667.43	3456.97
667.57	5411.32
667.71	6810.96
667.85	5825.59
667.99	4245.73
668.13	2743.11
668.27	1654.76
668.41	1034.52
668.56	638.97
668.70	505.56
668.84	287.89
668.98	308.95
669.12	243.42
669.26	224.69
669.40	269.16
669.54	259.80
669.68	248.10
669.82	243.42
669.96	255.12
670.10	210.65
670.25	264.48
670.39	229.37
670.53	273.84
670.67	208.31
670.81	170.86
670.95	327.68
671.09	468.11
671.23	1306.02
671.37	2820.35
671.51	4072.53
671.65	4271.48
671.79	3304.84
671.93	2436.50
672.07	1467.52
672.21	819.19
672.35	580.45
672.49	514.92
672.63	297.25
672.77	299.59
672.91	212.99
673.05	201.29
673.19	245.76
673.33	117.03
673.47	224.69
673.61	175.54
673.75	245.76
673.89	255.12
674.03	255.12
674.17	133.41
674.31	238.73
674.45	234.05
674.59	236.39
674.73	208.31
674.87	191.92
675.01	248.10
675.15	241.08
675.29	262.14
675.43	229.37
675.56	301.93
675.70	229.37
675.84	250.44
675.98	250.44
676.12	278.52
676.26	184.90
676.40	180.22
676.54	184.90
676.68	234.05
676.82	205.97
676.96	259.80
677.10	227.03
677.23	124.05
677.37	170.86
677.51	163.84
677.65	224.69
677.79	203.63
677.93	184.90
678.07	198.95
678.21	182.56
678.34	177.88
678.48	222.35
678.62	184.90
678.76	117.03
678.90	135.75
679.04	173.20
679.18	227.03
679.31	259.80
679.45	205.97
679.59	170.86
679.73	154.48
679.87	210.65
680.00	224.69
680.14	194.26
680.28	138.09
680.42	126.39
680.56	156.82
680.70	163.84
680.83	222.35
680.97	266.82
681.11	203.63
681.25	156.82
681.39	159.16
681.52	180.22
681.66	117.03
681.80	184.90
681.94	187.24
682.07	110.01
682.21	243.42
682.35	212.99
682.49	191.92
682.62	215.33
682.76	159.16
682.90	152.13
683.04	234.05
683.17	222.35
683.31	147.45
683.45	222.35
683.59	217.67
683.72	220.01
683.86	217.67
684.00	220.01
684.13	208.31
684.27	154.48
684.41	212.99
684.55	140.43
684.68	227.03
684.82	121.71
684.96	184.90
685.09	154.48
685.23	173.20
685.37	175.54
685.50	117.03
685.64	203.63
685.78	135.75
685.91	210.65
686.05	273.84
686.19	234.05
686.32	184.90
686.46	210.65
686.60	154.48
686.73	182.56
686.87	198.95
687.01	224.69
687.14	191.92
687.28	142.77
687.42	163.84
687.55	182.56
687.69	189.58
687.82	170.86
687.96	215.33
688.10	175.54
688.23	243.42
688.37	180.22
688.50	201.29
688.64	184.90
688.78	170.86
688.91	128.73
689.05	194.26
689.18	161.50
689.32	205.97
689.46	170.86
689.59	182.56
689.73	177.88
689.86	194.26
690.00	224.69
690.13	100.64
690.27	131.07
690.41	166.18
690.54	161.50
690.68	149.79
690.81	147.45
690.95	215.33
691.08	182.56
691.22	198.95
691.35	215.33
691.49	110.01
691.62	166.18
691.76	149.79
691.89	236.39
692.03	126.39
692.16	173.20
692.30	255.12
692.43	575.77
692.57	1409.00
692.70	2410.75
692.84	2972.48
692.97	2703.32
693.11	1994.14
693.24	1526.03
693.38	1036.86
693.51	784.08
693.65	535.98
693.78	341.72
693.92	299.59
694.05	255.12
694.19	217.67
694.32	259.80
694.45	156.82
694.59	196.60
694.72	203.63
694.86	210.65
694.99	93.62
695.13	131.07
695.26	266.82
695.39	229.37
695.53	201.29
695.66	196.60
695.80	175.54
695.93	74.90
696.07	184.90
696.20	140.43
696.33	292.57
696.47	327.68
696.60	322.99
696.73	355.76
696.87	252.78
697.00	248.10
697.14	212.99
697.27	161.50
697.40	257.46
697.54	196.60
697.67	210.65
697.80	142.77
697.94	131.07
698.07	152.13
698.21	177.88
698.34	210.65
698.47	114.69
698.61	149.79
698.74	198.95
698.87	159.16
699.01	217.67
699.14	149.79
699.27	170.86
699.40	257.46
699.54	180.22
699.67	166.18
699.80	114.69
699.94	91.28
700.07	163.84
700.20	201.29
700.34	175.54
700.47	175.54
700.60	140.43
700.73	149.79
700.87	227.03
701.00	154.48
701.13	248.10
701.26	152.13
701.40	180.22
701.53	194.26
701.66	177.88
701.79	255.12
701.93	184.90
702.06	287.89
702.19	276.18
702.32	369.80
702.46	348.74
702.59	348.74
702.72	629.60
702.85	1797.53
702.99	3730.81
703.12	4905.76
703.25	5582.18
703.38	4887.04
703.51	3861.88
703.65	2920.99
703.78	2108.82
703.91	1451.13
704.04	1025.15
704.17	669.39
704.31	411.93
704.44	367.46
704.57	201.29
704.70	262.14
704.83	205.97
704.96	255.12
705.10	229.37
705.23	280.86
>>>>>End Processed Spectral Data<<<<<
