SpectraSuite Data File
++++++++++++++++++++++++++++++++++++
Date: Fri Oct 04 12:13:33 GMT-05:00 2013
User: price-jones
Dark Spectrum Present: No
Reference Spectrum Present: No
Number of Sampled Component Spectra: 1
Spectrometers: USB2+H05261
Integration Time (usec): 10000 (USB2+H05261)
Spectra Averaged: 1 (USB2+H05261)
Boxcar Smoothing: 0 (USB2+H05261)
Correct for Electrical Dark: No (USB2+H05261)
Strobe/Lamp Enabled: No (USB2+H05261)
Correct for Detector Non-linearity: No (USB2+H05261)
Correct for Stray Light: No (USB2+H05261)
Number of Pixels in Processed Spectrum: 2048
>>>>>Begin Processed Spectral Data<<<<<
365.73	0.00
365.92	0.00
366.12	0.00
366.32	0.00
366.52	0.00
366.72	0.00
366.91	0.00
367.11	0.00
367.31	0.00
367.51	0.00
367.70	0.00
367.90	0.00
368.10	0.00
368.30	0.00
368.49	0.00
368.69	0.00
368.89	0.00
369.09	0.00
369.28	0.00
369.48	0.00
369.68	0.00
369.87	0.00
370.07	0.00
370.27	0.00
370.47	0.00
370.66	0.00
370.86	4.68
371.06	37.45
371.25	7.02
371.45	0.00
371.65	39.79
371.84	7.02
372.04	21.06
372.24	37.45
372.44	53.83
372.63	18.72
372.83	23.41
373.03	0.00
373.22	56.17
373.42	70.22
373.62	63.19
373.81	70.22
374.01	23.41
374.21	44.47
374.40	0.00
374.60	53.83
374.79	105.32
374.99	81.92
375.19	70.22
375.38	91.28
375.58	30.43
375.78	23.41
375.97	95.96
376.17	58.51
376.37	35.11
376.56	53.83
376.76	49.15
376.95	16.38
377.15	88.94
377.35	44.47
377.54	77.24
377.74	44.47
377.93	84.26
378.13	135.75
378.33	86.60
378.52	74.90
378.72	84.26
378.91	18.72
379.11	91.28
379.31	0.00
379.50	37.45
379.70	63.19
379.89	124.05
380.09	107.66
380.28	49.15
380.48	98.30
380.68	149.79
380.87	65.54
381.07	98.30
381.26	105.32
381.46	42.13
381.65	42.13
381.85	7.02
382.04	0.00
382.24	67.88
382.43	14.04
382.63	0.00
382.83	46.81
383.02	63.19
383.22	35.11
383.41	0.00
383.61	79.58
383.80	23.41
384.00	65.54
384.19	133.41
384.39	74.90
384.58	98.30
384.78	18.72
384.97	0.00
385.17	77.24
385.36	14.04
385.56	95.96
385.75	51.49
385.95	23.41
386.14	70.22
386.34	88.94
386.53	25.75
386.72	65.54
386.92	175.54
387.11	128.73
387.31	86.60
387.50	28.09
387.70	86.60
387.89	46.81
388.09	117.03
388.28	161.50
388.48	74.90
388.67	65.54
388.86	49.15
389.06	74.90
389.25	110.01
389.45	119.37
389.64	81.92
389.84	81.92
390.03	28.09
390.22	81.92
390.42	88.94
390.61	14.04
390.81	93.62
391.00	79.58
391.19	149.79
391.39	91.28
391.58	117.03
391.78	114.69
391.97	65.54
392.16	110.01
392.36	70.22
392.55	60.85
392.75	98.30
392.94	91.28
393.13	79.58
393.33	91.28
393.52	98.30
393.71	70.22
393.91	81.92
394.10	121.71
394.29	121.71
394.49	84.26
394.68	98.30
394.88	128.73
395.07	128.73
395.26	121.71
395.46	105.32
395.65	86.60
395.84	107.66
396.04	88.94
396.23	23.41
396.42	23.41
396.62	51.49
396.81	25.75
397.00	72.56
397.19	159.16
397.39	105.32
397.58	65.54
397.77	72.56
397.97	175.54
398.16	142.77
398.35	126.39
398.55	93.62
398.74	98.30
398.93	180.22
399.12	196.60
399.32	215.33
399.51	117.03
399.70	170.86
399.90	133.41
400.09	205.97
400.28	91.28
400.47	117.03
400.67	175.54
400.86	163.84
401.05	238.73
401.24	124.05
401.44	154.48
401.63	191.92
401.82	163.84
402.01	152.13
402.21	112.35
402.40	128.73
402.59	149.79
402.78	91.28
402.97	184.90
403.17	161.50
403.36	159.16
403.55	117.03
403.74	203.63
403.93	142.77
404.13	135.75
404.32	236.39
404.51	168.52
404.70	91.28
404.89	182.56
405.09	196.60
405.28	248.10
405.47	133.41
405.66	166.18
405.85	177.88
406.05	100.64
406.24	74.90
406.43	182.56
406.62	177.88
406.81	187.24
407.00	196.60
407.20	168.52
407.39	107.66
407.58	142.77
407.77	252.78
407.96	187.24
408.15	180.22
408.34	156.82
408.54	215.33
408.73	203.63
408.92	131.07
409.11	140.43
409.30	119.37
409.49	126.39
409.68	126.39
409.87	163.84
410.07	170.86
410.26	187.24
410.45	208.31
410.64	201.29
410.83	187.24
411.02	170.86
411.21	196.60
411.40	156.82
411.59	262.14
411.78	215.33
411.98	222.35
412.17	224.69
412.36	187.24
412.55	173.20
412.74	201.29
412.93	182.56
413.12	154.48
413.31	170.86
413.50	210.65
413.69	159.16
413.88	166.18
414.07	201.29
414.26	189.58
414.45	168.52
414.64	163.84
414.83	177.88
415.02	168.52
415.22	217.67
415.41	196.60
415.60	248.10
415.79	138.09
415.98	187.24
416.17	210.65
416.36	243.42
416.55	194.26
416.74	173.20
416.93	159.16
417.12	182.56
417.31	250.44
417.50	264.48
417.69	208.31
417.88	173.20
418.07	191.92
418.26	107.66
418.45	224.69
418.64	166.18
418.83	229.37
419.02	173.20
419.21	234.05
419.39	159.16
419.58	220.01
419.77	250.44
419.96	161.50
420.15	168.52
420.34	201.29
420.53	231.71
420.72	198.95
420.91	208.31
421.10	208.31
421.29	177.88
421.48	166.18
421.67	280.86
421.86	220.01
422.05	154.48
422.24	173.20
422.43	149.79
422.61	215.33
422.80	252.78
422.99	224.69
423.18	189.58
423.37	168.52
423.56	201.29
423.75	173.20
423.94	229.37
424.13	217.67
424.32	182.56
424.50	229.37
424.69	229.37
424.88	194.26
425.07	159.16
425.26	203.63
425.45	229.37
425.64	189.58
425.83	208.31
426.01	210.65
426.20	231.71
426.39	203.63
426.58	262.14
426.77	161.50
426.96	191.92
427.15	180.22
427.33	245.76
427.52	215.33
427.71	173.20
427.90	215.33
428.09	236.39
428.28	241.08
428.46	173.20
428.65	131.07
428.84	236.39
429.03	210.65
429.22	154.48
429.40	114.69
429.59	131.07
429.78	145.11
429.97	102.98
430.16	147.45
430.34	119.37
430.53	133.41
430.72	114.69
430.91	133.41
431.10	198.95
431.28	198.95
431.47	252.78
431.66	196.60
431.85	194.26
432.03	250.44
432.22	210.65
432.41	208.31
432.60	227.03
432.79	339.38
432.97	238.73
433.16	189.58
433.35	215.33
433.54	205.97
433.72	152.13
433.91	191.92
434.10	175.54
434.28	140.43
434.47	201.29
434.66	250.44
434.85	217.67
435.03	252.78
435.22	292.57
435.41	241.08
435.59	224.69
435.78	259.80
435.97	257.46
436.16	322.99
436.34	250.44
436.53	294.91
436.72	147.45
436.90	208.31
437.09	217.67
437.28	196.60
437.46	245.76
437.65	229.37
437.84	250.44
438.02	201.29
438.21	180.22
438.40	201.29
438.58	337.04
438.77	222.35
438.96	255.12
439.14	294.91
439.33	334.70
439.52	292.57
439.70	248.10
439.89	187.24
440.08	177.88
440.26	255.12
440.45	248.10
440.63	241.08
440.82	220.01
441.01	259.80
441.19	257.46
441.38	262.14
441.57	236.39
441.75	196.60
441.94	322.99
442.12	224.69
442.31	266.82
442.50	280.86
442.68	252.78
442.87	184.90
443.05	236.39
443.24	273.84
443.43	238.73
443.61	248.10
443.80	238.73
443.98	266.82
444.17	229.37
444.35	283.20
444.54	294.91
444.73	344.06
444.91	222.35
445.10	273.84
445.28	308.95
445.47	168.52
445.65	191.92
445.84	156.82
446.02	262.14
446.21	259.80
446.39	201.29
446.58	266.82
446.77	273.84
446.95	285.55
447.14	271.50
447.32	285.55
447.51	245.76
447.69	191.92
447.88	245.76
448.06	215.33
448.25	198.95
448.43	311.29
448.62	271.50
448.80	208.31
448.99	238.73
449.17	332.36
449.36	271.50
449.54	205.97
449.73	292.57
449.91	301.93
450.10	266.82
450.28	294.91
450.46	241.08
450.65	383.85
450.83	322.99
451.02	241.08
451.20	255.12
451.39	271.50
451.57	241.08
451.76	264.48
451.94	339.38
452.13	238.73
452.31	313.63
452.49	278.52
452.68	250.44
452.86	297.25
453.05	285.55
453.23	245.76
453.42	255.12
453.60	189.58
453.78	266.82
453.97	241.08
454.15	290.23
454.34	315.97
454.52	287.89
454.70	318.31
454.89	283.20
455.07	292.57
455.26	259.80
455.44	320.65
455.62	308.95
455.81	280.86
455.99	299.59
456.17	322.99
456.36	252.78
456.54	325.33
456.73	280.86
456.91	285.55
457.09	252.78
457.28	278.52
457.46	287.89
457.64	255.12
457.83	205.97
458.01	236.39
458.19	259.80
458.38	301.93
458.56	266.82
458.74	313.63
458.93	238.73
459.11	334.70
459.29	315.97
459.48	257.46
459.66	311.29
459.84	306.61
460.03	217.67
460.21	292.57
460.39	273.84
460.57	271.50
460.76	243.42
460.94	311.29
461.12	322.99
461.31	262.14
461.49	271.50
461.67	273.84
461.85	273.84
462.04	231.71
462.22	327.68
462.40	311.29
462.59	369.80
462.77	318.31
462.95	355.76
463.13	311.29
463.32	278.52
463.50	280.86
463.68	287.89
463.86	353.42
464.05	304.27
464.23	283.20
464.41	283.20
464.59	236.39
464.78	283.20
464.96	306.61
465.14	259.80
465.32	360.44
465.50	308.95
465.69	320.65
465.87	294.91
466.05	325.33
466.23	301.93
466.41	255.12
466.60	278.52
466.78	346.40
466.96	187.24
467.14	332.36
467.32	285.55
467.51	315.97
467.69	339.38
467.87	191.92
468.05	245.76
468.23	339.38
468.41	243.42
468.60	224.69
468.78	304.27
468.96	365.12
469.14	313.63
469.32	266.82
469.50	248.10
469.69	301.93
469.87	280.86
470.05	322.99
470.23	292.57
470.41	269.16
470.59	212.99
470.77	353.42
470.95	294.91
471.14	187.24
471.32	334.70
471.50	365.12
471.68	306.61
471.86	337.04
472.04	301.93
472.22	313.63
472.40	411.93
472.58	290.23
472.77	367.46
472.95	360.44
473.13	308.95
473.31	301.93
473.49	327.68
473.67	304.27
473.85	369.80
474.03	285.55
474.21	330.02
474.39	325.33
474.57	294.91
474.75	313.63
474.93	325.33
475.12	374.49
475.30	264.48
475.48	381.51
475.66	414.27
475.84	315.97
476.02	313.63
476.20	276.18
476.38	306.61
476.56	241.08
476.74	220.01
476.92	334.70
477.10	290.23
477.28	395.55
477.46	393.21
477.64	423.64
477.82	285.55
478.00	383.85
478.18	327.68
478.36	365.12
478.54	304.27
478.72	337.04
478.90	372.15
479.08	311.29
479.26	355.76
479.44	358.10
479.62	404.91
479.80	341.72
479.98	383.85
480.16	395.55
480.34	351.08
480.52	351.08
480.70	308.95
480.88	358.10
481.06	383.85
481.24	383.85
481.41	369.80
481.59	411.93
481.77	374.49
481.95	294.91
482.13	379.17
482.31	341.72
482.49	362.78
482.67	407.25
482.85	425.98
483.03	339.38
483.21	402.57
483.39	425.98
483.57	355.76
483.74	365.12
483.92	409.59
484.10	418.96
484.28	418.96
484.46	344.06
484.64	383.85
484.82	416.62
485.00	379.17
485.18	393.21
485.35	428.32
485.53	388.53
485.71	294.91
485.89	339.38
486.07	287.89
486.25	273.84
486.43	388.53
486.61	365.12
486.78	355.76
486.96	435.34
487.14	440.02
487.32	414.27
487.50	433.00
487.68	458.74
487.85	365.12
488.03	367.46
488.21	458.74
488.39	435.34
488.57	444.70
488.75	376.83
488.92	386.19
489.10	428.32
489.28	418.96
489.46	440.02
489.64	402.57
489.81	486.83
489.99	463.43
490.17	423.64
490.35	535.98
490.53	500.87
490.70	428.32
490.88	505.56
491.06	449.38
491.24	409.59
491.41	416.62
491.59	358.10
491.77	397.89
491.95	416.62
492.13	477.47
492.30	472.79
492.48	482.15
492.66	477.47
492.84	524.28
493.01	475.13
493.19	461.09
493.37	561.73
493.54	505.56
493.72	498.53
493.90	475.13
494.08	397.89
494.25	486.83
494.43	528.96
494.61	491.51
494.79	571.09
494.96	554.71
495.14	463.43
495.32	362.78
495.49	545.34
495.67	489.17
495.85	547.69
496.02	540.66
496.20	510.24
496.38	484.49
496.55	545.34
496.73	571.09
496.91	528.96
497.09	503.22
497.26	484.49
497.44	491.51
497.62	447.04
497.79	528.96
497.97	479.81
498.14	444.70
498.32	505.56
498.50	512.58
498.67	547.69
498.85	573.43
499.03	561.73
499.20	500.87
499.38	524.28
499.56	505.56
499.73	559.39
499.91	552.37
500.08	533.64
500.26	561.73
500.44	491.51
500.61	538.32
500.79	613.22
500.97	451.72
501.14	517.26
501.32	500.87
501.49	472.79
501.67	496.19
501.84	454.06
502.02	528.96
502.20	482.15
502.37	472.79
502.55	571.09
502.72	428.32
502.90	465.77
503.07	531.30
503.25	554.71
503.43	507.90
503.60	491.51
503.78	503.22
503.95	550.03
504.13	491.51
504.30	517.26
504.48	465.77
504.65	475.13
504.83	507.90
505.01	610.88
505.18	444.70
505.36	531.30
505.53	571.09
505.71	491.51
505.88	561.73
506.06	493.85
506.23	517.26
506.41	531.30
506.58	503.22
506.76	608.54
506.93	514.92
507.11	493.85
507.28	573.43
507.46	512.58
507.63	435.34
507.81	500.87
507.98	512.58
508.16	482.15
508.33	451.72
508.50	540.66
508.68	573.43
508.85	524.28
509.03	496.19
509.20	535.98
509.38	526.62
509.55	521.94
509.73	496.19
509.90	524.28
510.08	550.03
510.25	545.34
510.42	507.90
510.60	557.05
510.77	540.66
510.95	554.71
511.12	585.13
511.30	547.69
511.47	566.41
511.64	578.11
511.82	507.90
511.99	580.45
512.17	512.58
512.34	552.37
512.51	447.04
512.69	519.60
512.86	510.24
513.04	557.05
513.21	528.96
513.38	496.19
513.56	489.17
513.73	510.24
513.90	571.09
514.08	547.69
514.25	543.00
514.43	496.19
514.60	571.09
514.77	517.26
514.95	463.43
515.12	554.71
515.29	587.47
515.47	559.39
515.64	566.41
515.81	505.56
515.99	606.20
516.16	550.03
516.33	540.66
516.51	465.77
516.68	482.15
516.85	435.34
517.03	416.62
517.20	517.26
517.37	491.51
517.54	507.90
517.72	514.92
517.89	533.64
518.06	388.53
518.24	507.90
518.41	489.17
518.58	486.83
518.75	418.96
518.93	564.07
519.10	538.32
519.27	575.77
519.45	521.94
519.62	564.07
519.79	493.85
519.96	603.86
520.14	592.16
520.31	491.51
520.48	573.43
520.65	561.73
520.83	521.94
521.00	564.07
521.17	552.37
521.34	500.87
521.52	573.43
521.69	531.30
521.86	615.56
522.03	561.73
522.20	554.71
522.38	491.51
522.55	571.09
522.72	486.83
522.89	472.79
523.07	526.62
523.24	528.96
523.41	568.75
523.58	648.33
523.75	547.69
523.92	564.07
524.10	533.64
524.27	634.29
524.44	543.00
524.61	517.26
524.78	599.18
524.96	638.97
525.13	552.37
525.30	585.13
525.47	573.43
525.64	582.79
525.81	580.45
525.98	507.90
526.16	540.66
526.33	545.34
526.50	507.90
526.67	454.06
526.84	528.96
527.01	484.49
527.18	566.41
527.36	561.73
527.53	622.58
527.70	475.13
527.87	454.06
528.04	550.03
528.21	650.67
528.38	463.43
528.55	557.05
528.72	622.58
528.89	526.62
529.07	538.32
529.24	585.13
529.41	479.81
529.58	585.13
529.75	573.43
529.92	575.77
530.09	559.39
530.26	559.39
530.43	568.75
530.60	566.41
530.77	617.90
530.94	540.66
531.11	561.73
531.28	587.47
531.46	596.84
531.63	547.69
531.80	538.32
531.97	528.96
532.14	526.62
532.31	599.18
532.48	533.64
532.65	484.49
532.82	545.34
532.99	507.90
533.16	566.41
533.33	564.07
533.50	538.32
533.67	543.00
533.84	603.86
534.01	468.11
534.18	606.20
534.35	486.83
534.52	517.26
534.69	596.84
534.86	589.82
535.03	543.00
535.20	540.66
535.37	559.39
535.54	550.03
535.71	578.11
535.88	528.96
536.05	578.11
536.22	589.82
536.38	517.26
536.55	636.63
536.72	486.83
536.89	493.85
537.06	528.96
537.23	528.96
537.40	566.41
537.57	507.90
537.74	587.47
537.91	547.69
538.08	521.94
538.25	510.24
538.42	575.77
538.59	538.32
538.75	533.64
538.92	559.39
539.09	547.69
539.26	514.92
539.43	468.11
539.60	503.22
539.77	561.73
539.94	561.73
540.11	510.24
540.28	449.38
540.44	461.09
540.61	512.58
540.78	484.49
540.95	615.56
541.12	547.69
541.29	479.81
541.46	491.51
541.62	557.05
541.79	557.05
541.96	484.49
542.13	554.71
542.30	521.94
542.47	578.11
542.63	498.53
542.80	477.47
542.97	580.45
543.14	451.72
543.31	531.30
543.48	559.39
543.64	559.39
543.81	442.36
543.98	571.09
544.15	564.07
544.32	482.15
544.48	507.90
544.65	479.81
544.82	596.84
544.99	528.96
545.16	484.49
545.32	561.73
545.49	592.16
545.66	557.05
545.83	519.60
546.00	528.96
546.16	484.49
546.33	566.41
546.50	526.62
546.67	514.92
546.83	557.05
547.00	512.58
547.17	528.96
547.34	477.47
547.50	540.66
547.67	423.64
547.84	519.60
548.00	538.32
548.17	535.98
548.34	538.32
548.51	507.90
548.67	428.32
548.84	514.92
549.01	589.82
549.18	477.47
549.34	510.24
549.51	599.18
549.68	528.96
549.84	528.96
550.01	547.69
550.18	498.53
550.34	531.30
550.51	531.30
550.68	554.71
550.84	463.43
551.01	468.11
551.18	533.64
551.34	475.13
551.51	470.45
551.68	540.66
551.84	472.79
552.01	566.41
552.18	552.37
552.34	514.92
552.51	535.98
552.68	561.73
552.84	507.90
553.01	500.87
553.18	521.94
553.34	507.90
553.51	512.58
553.67	456.40
553.84	503.22
554.01	507.90
554.17	407.25
554.34	566.41
554.51	421.30
554.67	552.37
554.84	557.05
555.00	491.51
555.17	535.98
555.33	524.28
555.50	531.30
555.67	528.96
555.83	547.69
556.00	517.26
556.16	557.05
556.33	540.66
556.50	566.41
556.66	461.09
556.83	477.47
556.99	472.79
557.16	543.00
557.32	479.81
557.49	500.87
557.65	550.03
557.82	580.45
557.98	493.85
558.15	470.45
558.32	512.58
558.48	472.79
558.65	550.03
558.81	500.87
558.98	444.70
559.14	430.66
559.31	482.15
559.47	535.98
559.64	451.72
559.80	500.87
559.97	416.62
560.13	397.89
560.30	479.81
560.46	512.58
560.63	512.58
560.79	496.19
560.96	557.05
561.12	594.50
561.29	414.27
561.45	435.34
561.61	507.90
561.78	535.98
561.94	451.72
562.11	554.71
562.27	526.62
562.44	540.66
562.60	477.47
562.77	535.98
562.93	486.83
563.10	482.15
563.26	458.74
563.42	489.17
563.59	486.83
563.75	557.05
563.92	484.49
564.08	435.34
564.24	475.13
564.41	449.38
564.57	461.09
564.74	554.71
564.90	475.13
565.07	461.09
565.23	465.77
565.39	491.51
565.56	433.00
565.72	472.79
565.88	383.85
566.05	360.44
566.21	500.87
566.38	456.40
566.54	479.81
566.70	479.81
566.87	437.68
567.03	456.40
567.19	440.02
567.36	545.34
567.52	472.79
567.68	493.85
567.85	430.66
568.01	390.87
568.17	468.11
568.34	491.51
568.50	531.30
568.66	376.83
568.83	493.85
568.99	468.11
569.15	402.57
569.32	402.57
569.48	381.51
569.64	411.93
569.81	390.87
569.97	482.15
570.13	418.96
570.30	442.36
570.46	440.02
570.62	423.64
570.78	390.87
570.95	362.78
571.11	496.19
571.27	442.36
571.43	447.04
571.60	400.23
571.76	447.04
571.92	404.91
572.09	433.00
572.25	496.19
572.41	430.66
572.57	425.98
572.74	472.79
572.90	421.30
573.06	386.19
573.22	430.66
573.38	519.60
573.55	369.80
573.71	472.79
573.87	425.98
574.03	430.66
574.20	423.64
574.36	437.68
574.52	397.89
574.68	477.47
574.84	327.68
575.01	447.04
575.17	404.91
575.33	486.83
575.49	479.81
575.65	496.19
575.82	454.06
575.98	409.59
576.14	442.36
576.30	503.22
576.46	454.06
576.62	482.15
576.79	365.12
576.95	418.96
577.11	433.00
577.27	435.34
577.43	409.59
577.59	362.78
577.75	327.68
577.92	397.89
578.08	388.53
578.24	388.53
578.40	458.74
578.56	355.76
578.72	365.12
578.88	411.93
579.04	463.43
579.21	451.72
579.37	524.28
579.53	489.17
579.69	372.15
579.85	463.43
580.01	433.00
580.17	386.19
580.33	470.45
580.49	465.77
580.65	442.36
580.82	451.72
580.98	435.34
581.14	418.96
581.30	458.74
581.46	416.62
581.62	463.43
581.78	482.15
581.94	369.80
582.10	435.34
582.26	386.19
582.42	409.59
582.58	524.28
582.74	435.34
582.90	440.02
583.06	423.64
583.22	440.02
583.38	433.00
583.54	435.34
583.70	362.78
583.86	411.93
584.02	437.68
584.18	376.83
584.34	472.79
584.50	421.30
584.66	374.49
584.82	367.46
584.98	505.56
585.14	409.59
585.30	379.17
585.46	433.00
585.62	407.25
585.78	397.89
585.94	454.06
586.10	411.93
586.26	444.70
586.42	425.98
586.58	367.46
586.74	358.10
586.90	393.21
587.06	395.55
587.22	367.46
587.38	418.96
587.54	290.23
587.70	411.93
587.86	386.19
588.02	402.57
588.18	301.93
588.34	355.76
588.49	285.55
588.65	285.55
588.81	227.03
588.97	276.18
589.13	273.84
589.29	269.16
589.45	287.89
589.61	243.42
589.77	360.44
589.93	332.36
590.08	294.91
590.24	341.72
590.40	304.27
590.56	360.44
590.72	360.44
590.88	416.62
591.04	372.15
591.20	404.91
591.35	334.70
591.51	346.40
591.67	308.95
591.83	360.44
591.99	404.91
592.15	404.91
592.31	409.59
592.46	365.12
592.62	414.27
592.78	365.12
592.94	360.44
593.10	327.68
593.26	351.08
593.41	409.59
593.57	374.49
593.73	318.31
593.89	344.06
594.05	313.63
594.20	367.46
594.36	334.70
594.52	369.80
594.68	372.15
594.84	369.80
594.99	379.17
595.15	348.74
595.31	423.64
595.47	351.08
595.62	383.85
595.78	423.64
595.94	379.17
596.10	440.02
596.25	358.10
596.41	383.85
596.57	322.99
596.73	372.15
596.88	397.89
597.04	358.10
597.20	414.27
597.36	325.33
597.51	334.70
597.67	318.31
597.83	353.42
597.99	365.12
598.14	313.63
598.30	348.74
598.46	315.97
598.61	315.97
598.77	386.19
598.93	318.31
599.09	393.21
599.24	353.42
599.40	379.17
599.56	360.44
599.71	395.55
599.87	339.38
600.03	374.49
600.18	337.04
600.34	358.10
600.50	313.63
600.65	294.91
600.81	334.70
600.97	372.15
601.12	334.70
601.28	379.17
601.44	299.59
601.59	367.46
601.75	273.84
601.91	341.72
602.06	397.89
602.22	414.27
602.37	411.93
602.53	355.76
602.69	360.44
602.84	407.25
603.00	327.68
603.16	388.53
603.31	346.40
603.47	367.46
603.62	421.30
603.78	311.29
603.94	404.91
604.09	320.65
604.25	322.99
604.40	348.74
604.56	409.59
604.71	388.53
604.87	337.04
605.03	285.55
605.18	395.55
605.34	304.27
605.49	390.87
605.65	395.55
605.80	360.44
605.96	332.36
606.12	365.12
606.27	390.87
606.43	397.89
606.58	276.18
606.74	341.72
606.89	304.27
607.05	351.08
607.20	376.83
607.36	416.62
607.51	414.27
607.67	355.76
607.82	325.33
607.98	374.49
608.13	362.78
608.29	327.68
608.44	383.85
608.60	337.04
608.75	325.33
608.91	276.18
609.06	322.99
609.22	376.83
609.37	390.87
609.53	369.80
609.68	376.83
609.84	334.70
609.99	327.68
610.15	372.15
610.30	388.53
610.46	337.04
610.61	365.12
610.76	379.17
610.92	393.21
611.07	290.23
611.23	285.55
611.38	390.87
611.54	301.93
611.69	395.55
611.84	353.42
612.00	325.33
612.15	358.10
612.31	257.46
612.46	346.40
612.62	362.78
612.77	283.20
612.92	313.63
613.08	280.86
613.23	430.66
613.39	365.12
613.54	322.99
613.69	290.23
613.85	379.17
614.00	379.17
614.15	365.12
614.31	353.42
614.46	334.70
614.62	278.52
614.77	423.64
614.92	353.42
615.08	374.49
615.23	381.51
615.38	294.91
615.54	348.74
615.69	337.04
615.84	290.23
616.00	276.18
616.15	278.52
616.30	313.63
616.46	351.08
616.61	320.65
616.76	315.97
616.92	320.65
617.07	397.89
617.22	306.61
617.37	285.55
617.53	292.57
617.68	311.29
617.83	355.76
617.99	346.40
618.14	376.83
618.29	346.40
618.45	250.44
618.60	360.44
618.75	308.95
618.90	355.76
619.06	294.91
619.21	353.42
619.36	339.38
619.51	292.57
619.67	358.10
619.82	287.89
619.97	301.93
620.12	322.99
620.28	346.40
620.43	322.99
620.58	362.78
620.73	351.08
620.89	234.05
621.04	369.80
621.19	280.86
621.34	264.48
621.49	250.44
621.65	299.59
621.80	292.57
621.95	341.72
622.10	276.18
622.25	297.25
622.41	337.04
622.56	306.61
622.71	313.63
622.86	259.80
623.01	266.82
623.16	311.29
623.32	259.80
623.47	360.44
623.62	330.02
623.77	327.68
623.92	269.16
624.07	360.44
624.23	217.67
624.38	330.02
624.53	262.14
624.68	292.57
624.83	292.57
624.98	241.08
625.13	269.16
625.29	224.69
625.44	231.71
625.59	315.97
625.74	262.14
625.89	278.52
626.04	266.82
626.19	344.06
626.34	224.69
626.49	362.78
626.65	229.37
626.80	290.23
626.95	304.27
627.10	245.76
627.25	224.69
627.40	252.78
627.55	292.57
627.70	245.76
627.85	311.29
628.00	210.65
628.15	180.22
628.30	241.08
628.45	299.59
628.60	283.20
628.76	322.99
628.91	285.55
629.06	205.97
629.21	280.86
629.36	264.48
629.51	198.95
629.66	227.03
629.81	287.89
629.96	252.78
630.11	269.16
630.26	212.99
630.41	262.14
630.56	285.55
630.71	285.55
630.86	273.84
631.01	297.25
631.16	278.52
631.31	341.72
631.46	264.48
631.61	290.23
631.76	255.12
631.91	201.29
632.06	299.59
632.21	215.33
632.36	287.89
632.51	220.01
632.66	194.26
632.81	266.82
632.96	241.08
633.10	252.78
633.25	315.97
633.40	252.78
633.55	299.59
633.70	248.10
633.85	227.03
634.00	299.59
634.15	311.29
634.30	234.05
634.45	287.89
634.60	266.82
634.75	332.36
634.90	280.86
635.05	224.69
635.19	229.37
635.34	248.10
635.49	166.18
635.64	227.03
635.79	234.05
635.94	285.55
636.09	217.67
636.24	273.84
636.39	301.93
636.53	280.86
636.68	224.69
636.83	280.86
636.98	259.80
637.13	320.65
637.28	301.93
637.43	262.14
637.57	208.31
637.72	255.12
637.87	241.08
638.02	304.27
638.17	320.65
638.32	278.52
638.46	269.16
638.61	351.08
638.76	358.10
638.91	290.23
639.06	241.08
639.20	304.27
639.35	355.76
639.50	191.92
639.65	248.10
639.80	306.61
639.94	266.82
640.09	248.10
640.24	180.22
640.39	236.39
640.54	285.55
640.68	252.78
640.83	170.86
640.98	191.92
641.13	269.16
641.27	264.48
641.42	280.86
641.57	205.97
641.72	297.25
641.86	264.48
642.01	177.88
642.16	311.29
642.31	262.14
642.45	278.52
642.60	208.31
642.75	149.79
642.90	308.95
643.04	234.05
643.19	245.76
643.34	177.88
643.48	215.33
643.63	280.86
643.78	334.70
643.93	241.08
644.07	231.71
644.22	259.80
644.37	290.23
644.51	271.50
644.66	224.69
644.81	290.23
644.95	243.42
645.10	208.31
645.25	229.37
645.39	189.58
645.54	236.39
645.69	252.78
645.83	196.60
645.98	182.56
646.13	189.58
646.27	236.39
646.42	177.88
646.57	205.97
646.71	220.01
646.86	191.92
647.00	205.97
647.15	224.69
647.30	252.78
647.44	191.92
647.59	166.18
647.74	234.05
647.88	236.39
648.03	166.18
648.17	248.10
648.32	203.63
648.47	177.88
648.61	205.97
648.76	271.50
648.90	262.14
649.05	257.46
649.20	208.31
649.34	227.03
649.49	149.79
649.63	224.69
649.78	220.01
649.92	264.48
650.07	285.55
650.21	191.92
650.36	191.92
650.51	208.31
650.65	248.10
650.80	198.95
650.94	234.05
651.09	243.42
651.23	180.22
651.38	266.82
651.52	191.92
651.67	152.13
651.81	210.65
651.96	198.95
652.10	266.82
652.25	187.24
652.39	189.58
652.54	138.09
652.68	229.37
652.83	105.32
652.97	205.97
653.12	203.63
653.26	238.73
653.41	191.92
653.55	205.97
653.70	208.31
653.84	285.55
653.99	227.03
654.13	257.46
654.27	248.10
654.42	124.05
654.56	187.24
654.71	184.90
654.85	290.23
655.00	191.92
655.14	133.41
655.29	273.84
655.43	215.33
655.57	191.92
655.72	217.67
655.86	187.24
656.01	215.33
656.15	147.45
656.30	110.01
656.44	229.37
656.58	227.03
656.73	231.71
656.87	161.50
657.01	180.22
657.16	154.48
657.30	173.20
657.45	159.16
657.59	154.48
657.73	231.71
657.88	227.03
658.02	140.43
658.16	224.69
658.31	170.86
658.45	170.86
658.60	227.03
658.74	259.80
658.88	252.78
659.03	217.67
659.17	215.33
659.31	184.90
659.46	255.12
659.60	243.42
659.74	145.11
659.89	203.63
660.03	222.35
660.17	301.93
660.32	210.65
660.46	234.05
660.60	140.43
660.74	177.88
660.89	224.69
661.03	311.29
661.17	138.09
661.32	241.08
661.46	189.58
661.60	201.29
661.74	287.89
661.89	248.10
662.03	182.56
662.17	177.88
662.31	215.33
662.46	238.73
662.60	210.65
662.74	294.91
662.88	234.05
663.03	220.01
663.17	212.99
663.31	135.75
663.45	180.22
663.60	241.08
663.74	182.56
663.88	189.58
664.02	128.73
664.17	191.92
664.31	184.90
664.45	184.90
664.59	203.63
664.73	147.45
664.88	259.80
665.02	184.90
665.16	131.07
665.30	210.65
665.44	182.56
665.59	205.97
665.73	159.16
665.87	170.86
666.01	203.63
666.15	250.44
666.29	215.33
666.44	145.11
666.58	215.33
666.72	208.31
666.86	142.77
667.00	154.48
667.14	222.35
667.28	177.88
667.43	220.01
667.57	203.63
667.71	140.43
667.85	189.58
667.99	224.69
668.13	175.54
668.27	208.31
668.41	243.42
668.56	196.60
668.70	222.35
668.84	189.58
668.98	208.31
669.12	182.56
669.26	212.99
669.40	222.35
669.54	177.88
669.68	255.12
669.82	145.11
669.96	166.18
670.10	222.35
670.25	231.71
670.39	191.92
670.53	196.60
670.67	175.54
670.81	117.03
670.95	259.80
671.09	217.67
671.23	191.92
671.37	241.08
671.51	173.20
671.65	217.67
671.79	154.48
671.93	241.08
672.07	229.37
672.21	196.60
672.35	86.60
672.49	271.50
672.63	154.48
672.77	180.22
672.91	208.31
673.05	241.08
673.19	142.77
673.33	196.60
673.47	126.39
673.61	107.66
673.75	212.99
673.89	245.76
674.03	217.67
674.17	234.05
674.31	229.37
674.45	156.82
674.59	145.11
674.73	84.26
674.87	140.43
675.01	121.71
675.15	166.18
675.29	194.26
675.43	175.54
675.56	135.75
675.70	145.11
675.84	210.65
675.98	194.26
676.12	180.22
676.26	166.18
676.40	166.18
676.54	170.86
676.68	161.50
676.82	215.33
676.96	217.67
677.10	191.92
677.23	46.81
677.37	166.18
677.51	198.95
677.65	212.99
677.79	180.22
677.93	124.05
678.07	177.88
678.21	173.20
678.34	154.48
678.48	98.30
678.62	180.22
678.76	119.37
678.90	149.79
679.04	107.66
679.18	173.20
679.31	152.13
679.45	170.86
679.59	154.48
679.73	131.07
679.87	131.07
680.00	163.84
680.14	142.77
680.28	156.82
680.42	175.54
680.56	105.32
680.70	205.97
680.83	229.37
680.97	119.37
681.11	88.94
681.25	128.73
681.39	145.11
681.52	166.18
681.66	74.90
681.80	100.64
681.94	58.51
682.07	133.41
682.21	133.41
682.35	138.09
682.49	140.43
682.62	131.07
682.76	91.28
682.90	152.13
683.04	147.45
683.17	168.52
683.31	149.79
683.45	107.66
683.59	114.69
683.72	203.63
683.86	107.66
684.00	224.69
684.13	112.35
684.27	79.58
684.41	119.37
684.55	166.18
684.68	198.95
684.82	107.66
684.96	149.79
685.09	175.54
685.23	149.79
685.37	152.13
685.50	128.73
685.64	227.03
685.78	163.84
685.91	79.58
686.05	131.07
686.19	163.84
686.32	182.56
686.46	84.26
686.60	145.11
686.73	65.54
686.87	53.83
687.01	74.90
687.14	117.03
687.28	77.24
687.42	100.64
687.55	124.05
687.69	156.82
687.82	35.11
687.96	128.73
688.10	72.56
688.23	110.01
688.37	65.54
688.50	100.64
688.64	196.60
688.78	65.54
688.91	142.77
689.05	126.39
689.18	180.22
689.32	81.92
689.46	102.98
689.59	124.05
689.73	74.90
689.86	18.72
690.00	131.07
690.13	177.88
690.27	114.69
690.41	121.71
690.54	135.75
690.68	131.07
690.81	86.60
690.95	63.19
691.08	100.64
691.22	145.11
691.35	51.49
691.49	107.66
691.62	138.09
691.76	58.51
691.89	156.82
692.03	110.01
692.16	77.24
692.30	60.85
692.43	98.30
692.57	131.07
692.70	56.17
692.84	131.07
692.97	91.28
693.11	72.56
693.24	93.62
693.38	72.56
693.51	149.79
693.65	67.88
693.78	60.85
693.92	84.26
694.05	63.19
694.19	95.96
694.32	32.77
694.45	170.86
694.59	100.64
694.72	124.05
694.86	102.98
694.99	102.98
695.13	117.03
695.26	63.19
695.39	70.22
695.53	100.64
695.66	77.24
695.80	138.09
695.93	86.60
696.07	84.26
696.20	74.90
696.33	161.50
696.47	138.09
696.60	147.45
696.73	114.69
696.87	142.77
697.00	161.50
697.14	152.13
697.27	110.01
697.40	95.96
697.54	117.03
697.67	86.60
697.80	72.56
697.94	107.66
698.07	32.77
698.21	72.56
698.34	100.64
698.47	58.51
698.61	114.69
698.74	67.88
698.87	95.96
699.01	91.28
699.14	44.47
699.27	124.05
699.40	95.96
699.54	124.05
699.67	133.41
699.80	93.62
699.94	30.43
700.07	35.11
700.20	53.83
700.34	58.51
700.47	86.60
700.60	102.98
700.73	58.51
700.87	95.96
701.00	95.96
701.13	131.07
701.26	145.11
701.40	91.28
701.53	98.30
701.66	196.60
701.79	51.49
701.93	154.48
702.06	100.64
702.19	60.85
702.32	39.79
702.46	110.01
702.59	51.49
702.72	121.71
702.85	65.54
702.99	60.85
703.12	77.24
703.25	128.73
703.38	100.64
703.51	91.28
703.65	95.96
703.78	35.11
703.91	67.88
704.04	117.03
704.17	39.79
704.31	74.90
704.44	105.32
704.57	53.83
704.70	102.98
704.83	74.90
704.96	60.85
705.10	81.92
705.23	79.58
>>>>>End Processed Spectral Data<<<<<
