SpectraSuite Data File
++++++++++++++++++++++++++++++++++++
Date: Fri Oct 04 11:33:58 GMT-05:00 2013
User: price-jones
Dark Spectrum Present: No
Reference Spectrum Present: No
Number of Sampled Component Spectra: 1
Spectrometers: USB2+H05261
Integration Time (usec): 100000 (USB2+H05261)
Spectra Averaged: 1 (USB2+H05261)
Boxcar Smoothing: 0 (USB2+H05261)
Correct for Electrical Dark: No (USB2+H05261)
Strobe/Lamp Enabled: No (USB2+H05261)
Correct for Detector Non-linearity: No (USB2+H05261)
Correct for Stray Light: No (USB2+H05261)
Number of Pixels in Processed Spectrum: 2048
>>>>>Begin Processed Spectral Data<<<<<
365.73	37.45
365.92	37.45
366.12	37.45
366.32	0.00
366.52	14.04
366.72	58.51
366.91	0.00
367.11	25.75
367.31	0.00
367.51	0.00
367.70	0.00
367.90	25.75
368.10	0.00
368.30	0.00
368.49	2.34
368.69	0.00
368.89	0.00
369.09	0.00
369.28	0.00
369.48	0.00
369.68	0.00
369.87	93.62
370.07	32.77
370.27	39.79
370.47	4.68
370.66	81.92
370.86	93.62
371.06	105.32
371.25	126.39
371.45	105.32
371.65	184.90
371.84	114.69
372.04	180.22
372.24	145.11
372.44	131.07
372.63	135.75
372.83	159.16
373.03	79.58
373.22	163.84
373.42	114.69
373.62	126.39
373.81	187.24
374.01	196.60
374.21	177.88
374.40	170.86
374.60	168.52
374.79	91.28
374.99	152.13
375.19	166.18
375.38	142.77
375.58	117.03
375.78	159.16
375.97	170.86
376.17	208.31
376.37	117.03
376.56	189.58
376.76	182.56
376.95	114.69
377.15	224.69
377.35	173.20
377.54	86.60
377.74	135.75
377.93	182.56
378.13	124.05
378.33	149.79
378.52	124.05
378.72	145.11
378.91	194.26
379.11	100.64
379.31	133.41
379.50	119.37
379.70	149.79
379.89	187.24
380.09	81.92
380.28	156.82
380.48	98.30
380.68	56.17
380.87	149.79
381.07	173.20
381.26	212.99
381.46	147.45
381.65	159.16
381.85	105.32
382.04	198.95
382.24	147.45
382.43	53.83
382.63	138.09
382.83	161.50
383.02	191.92
383.22	177.88
383.41	170.86
383.61	145.11
383.80	196.60
384.00	88.94
384.19	110.01
384.39	107.66
384.58	152.13
384.78	81.92
384.97	112.35
385.17	154.48
385.36	161.50
385.56	112.35
385.75	110.01
385.95	173.20
386.14	159.16
386.34	128.73
386.53	81.92
386.72	98.30
386.92	170.86
387.11	173.20
387.31	198.95
387.50	121.71
387.70	166.18
387.89	128.73
388.09	124.05
388.28	133.41
388.48	126.39
388.67	142.77
388.86	112.35
389.06	198.95
389.25	208.31
389.45	166.18
389.64	149.79
389.84	149.79
390.03	152.13
390.22	170.86
390.42	131.07
390.61	102.98
390.81	49.15
391.00	112.35
391.19	222.35
391.39	124.05
391.58	168.52
391.78	77.24
391.97	138.09
392.16	140.43
392.36	152.13
392.55	184.90
392.75	121.71
392.94	72.56
393.13	140.43
393.33	133.41
393.52	231.71
393.71	191.92
393.91	166.18
394.10	117.03
394.29	163.84
394.49	161.50
394.68	182.56
394.88	252.78
395.07	201.29
395.26	154.48
395.46	180.22
395.65	124.05
395.84	95.96
396.04	180.22
396.23	152.13
396.42	95.96
396.62	149.79
396.81	145.11
397.00	110.01
397.19	175.54
397.39	234.05
397.58	187.24
397.77	58.51
397.97	131.07
398.16	107.66
398.35	212.99
398.55	168.52
398.74	77.24
398.93	194.26
399.12	91.28
399.32	133.41
399.51	220.01
399.70	180.22
399.90	156.82
400.09	133.41
400.28	102.98
400.47	124.05
400.67	152.13
400.86	128.73
401.05	154.48
401.24	210.65
401.44	201.29
401.63	156.82
401.82	187.24
402.01	159.16
402.21	142.77
402.40	187.24
402.59	196.60
402.78	149.79
402.97	93.62
403.17	194.26
403.36	187.24
403.55	133.41
403.74	173.20
403.93	227.03
404.13	304.27
404.32	189.58
404.51	189.58
404.70	210.65
404.89	156.82
405.09	163.84
405.28	173.20
405.47	128.73
405.66	152.13
405.85	198.95
406.05	205.97
406.24	98.30
406.43	70.22
406.62	210.65
406.81	243.42
407.00	210.65
407.20	208.31
407.39	140.43
407.58	231.71
407.77	145.11
407.96	156.82
408.15	269.16
408.34	154.48
408.54	189.58
408.73	161.50
408.92	166.18
409.11	138.09
409.30	196.60
409.49	149.79
409.68	138.09
409.87	203.63
410.07	210.65
410.26	187.24
410.45	156.82
410.64	222.35
410.83	177.88
411.02	175.54
411.21	145.11
411.40	159.16
411.59	138.09
411.78	102.98
411.98	95.96
412.17	107.66
412.36	131.07
412.55	131.07
412.74	152.13
412.93	187.24
413.12	110.01
413.31	184.90
413.50	161.50
413.69	170.86
413.88	147.45
414.07	187.24
414.26	149.79
414.45	159.16
414.64	203.63
414.83	149.79
415.02	124.05
415.22	234.05
415.41	196.60
415.60	138.09
415.79	196.60
415.98	198.95
416.17	205.97
416.36	227.03
416.55	105.32
416.74	145.11
416.93	102.98
417.12	107.66
417.31	154.48
417.50	196.60
417.69	212.99
417.88	205.97
418.07	212.99
418.26	257.46
418.45	252.78
418.64	210.65
418.83	313.63
419.02	234.05
419.21	201.29
419.39	208.31
419.58	156.82
419.77	156.82
419.96	175.54
420.15	208.31
420.34	168.52
420.53	187.24
420.72	81.92
420.91	182.56
421.10	149.79
421.29	138.09
421.48	152.13
421.67	227.03
421.86	196.60
422.05	128.73
422.24	229.37
422.43	212.99
422.61	159.16
422.80	259.80
422.99	187.24
423.18	184.90
423.37	175.54
423.56	131.07
423.75	241.08
423.94	142.77
424.13	156.82
424.32	124.05
424.50	95.96
424.69	198.95
424.88	210.65
425.07	173.20
425.26	248.10
425.45	273.84
425.64	203.63
425.83	196.60
426.01	227.03
426.20	201.29
426.39	86.60
426.58	105.32
426.77	156.82
426.96	217.67
427.15	220.01
427.33	126.39
427.52	182.56
427.71	112.35
427.90	152.13
428.09	194.26
428.28	227.03
428.46	177.88
428.65	142.77
428.84	135.75
429.03	245.76
429.22	175.54
429.40	243.42
429.59	168.52
429.78	259.80
429.97	147.45
430.16	145.11
430.34	220.01
430.53	163.84
430.72	131.07
430.91	203.63
431.10	191.92
431.28	290.23
431.47	241.08
431.66	212.99
431.85	280.86
432.03	156.82
432.22	283.20
432.41	131.07
432.60	236.39
432.79	252.78
432.97	255.12
433.16	252.78
433.35	283.20
433.54	126.39
433.72	145.11
433.91	180.22
434.10	161.50
434.28	163.84
434.47	149.79
434.66	250.44
434.85	102.98
435.03	266.82
435.22	379.17
435.41	550.03
435.59	489.17
435.78	330.02
435.97	259.80
436.16	184.90
436.34	187.24
436.53	168.52
436.72	156.82
436.90	220.01
437.09	191.92
437.28	180.22
437.46	215.33
437.65	189.58
437.84	138.09
438.02	203.63
438.21	154.48
438.40	142.77
438.58	138.09
438.77	248.10
438.96	217.67
439.14	149.79
439.33	194.26
439.52	152.13
439.70	152.13
439.89	152.13
440.08	168.52
440.26	194.26
440.45	184.90
440.63	142.77
440.82	182.56
441.01	182.56
441.19	229.37
441.38	205.97
441.57	140.43
441.75	231.71
441.94	224.69
442.12	163.84
442.31	98.30
442.50	170.86
442.68	154.48
442.87	191.92
443.05	189.58
443.24	145.11
443.43	149.79
443.61	184.90
443.80	154.48
443.98	173.20
444.17	212.99
444.35	299.59
444.54	140.43
444.73	142.77
444.91	208.31
445.10	159.16
445.28	210.65
445.47	177.88
445.65	215.33
445.84	220.01
446.02	198.95
446.21	117.03
446.39	126.39
446.58	210.65
446.77	208.31
446.95	173.20
447.14	194.26
447.32	285.55
447.51	152.13
447.69	208.31
447.88	100.64
448.06	112.35
448.25	196.60
448.43	198.95
448.62	166.18
448.80	187.24
448.99	234.05
449.17	166.18
449.36	135.75
449.54	234.05
449.73	168.52
449.91	241.08
450.10	105.32
450.28	215.33
450.46	252.78
450.65	227.03
450.83	208.31
451.02	166.18
451.20	201.29
451.39	161.50
451.57	168.52
451.76	154.48
451.94	212.99
452.13	177.88
452.31	140.43
452.49	234.05
452.68	128.73
452.86	262.14
453.05	224.69
453.23	131.07
453.42	210.65
453.60	220.01
453.78	208.31
453.97	131.07
454.15	175.54
454.34	147.45
454.52	154.48
454.70	250.44
454.89	196.60
455.07	215.33
455.26	147.45
455.44	224.69
455.62	205.97
455.81	215.33
455.99	152.13
456.17	201.29
456.36	152.13
456.54	191.92
456.73	147.45
456.91	170.86
457.09	203.63
457.28	205.97
457.46	201.29
457.64	201.29
457.83	266.82
458.01	100.64
458.19	182.56
458.38	252.78
458.56	227.03
458.74	224.69
458.93	215.33
459.11	191.92
459.29	231.71
459.48	217.67
459.66	177.88
459.84	231.71
460.03	285.55
460.21	283.20
460.39	236.39
460.57	250.44
460.76	145.11
460.94	173.20
461.12	252.78
461.31	189.58
461.49	248.10
461.67	187.24
461.85	250.44
462.04	187.24
462.22	622.58
462.40	177.88
462.59	224.69
462.77	168.52
462.95	201.29
463.13	212.99
463.32	203.63
463.50	262.14
463.68	220.01
463.86	243.42
464.05	205.97
464.23	208.31
464.41	170.86
464.59	175.54
464.78	128.73
464.96	124.05
465.14	168.52
465.32	124.05
465.50	177.88
465.69	215.33
465.87	145.11
466.05	163.84
466.23	201.29
466.41	208.31
466.60	203.63
466.78	238.73
466.96	184.90
467.14	168.52
467.32	201.29
467.51	220.01
467.69	269.16
467.87	217.67
468.05	238.73
468.23	250.44
468.41	212.99
468.60	203.63
468.78	217.67
468.96	243.42
469.14	224.69
469.32	191.92
469.50	161.50
469.69	173.20
469.87	287.89
470.05	145.11
470.23	271.50
470.41	161.50
470.59	168.52
470.77	220.01
470.95	187.24
471.14	248.10
471.32	182.56
471.50	231.71
471.68	208.31
471.86	215.33
472.04	168.52
472.22	248.10
472.40	173.20
472.58	210.65
472.77	166.18
472.95	149.79
473.13	201.29
473.31	198.95
473.49	135.75
473.67	173.20
473.85	138.09
474.03	222.35
474.21	222.35
474.39	245.76
474.57	273.84
474.75	210.65
474.93	152.13
475.12	205.97
475.30	203.63
475.48	273.84
475.66	168.52
475.84	194.26
476.02	236.39
476.20	234.05
476.38	222.35
476.56	294.91
476.74	234.05
476.92	135.75
477.10	212.99
477.28	189.58
477.46	245.76
477.64	238.73
477.82	217.67
478.00	266.82
478.18	264.48
478.36	215.33
478.54	266.82
478.72	243.42
478.90	215.33
479.08	236.39
479.26	182.56
479.44	231.71
479.62	161.50
479.80	182.56
479.98	182.56
480.16	222.35
480.34	170.86
480.52	201.29
480.70	248.10
480.88	156.82
481.06	222.35
481.24	238.73
481.41	243.42
481.59	208.31
481.77	154.48
481.95	229.37
482.13	262.14
482.31	170.86
482.49	203.63
482.67	297.25
482.85	299.59
483.03	170.86
483.21	194.26
483.39	234.05
483.57	217.67
483.74	278.52
483.92	217.67
484.10	245.76
484.28	238.73
484.46	308.95
484.64	287.89
484.82	222.35
485.00	198.95
485.18	229.37
485.35	217.67
485.53	210.65
485.71	224.69
485.89	154.48
486.07	184.90
486.25	330.02
486.43	203.63
486.61	252.78
486.78	290.23
486.96	238.73
487.14	313.63
487.32	255.12
487.50	196.60
487.68	304.27
487.85	208.31
488.03	248.10
488.21	278.52
488.39	231.71
488.57	222.35
488.75	236.39
488.92	458.74
489.10	201.29
489.28	280.86
489.46	196.60
489.64	201.29
489.81	234.05
489.99	306.61
490.17	276.18
490.35	280.86
490.53	252.78
490.70	266.82
490.88	203.63
491.06	248.10
491.24	262.14
491.41	299.59
491.59	332.36
491.77	212.99
491.95	252.78
492.13	191.92
492.30	304.27
492.48	238.73
492.66	273.84
492.84	304.27
493.01	299.59
493.19	205.97
493.37	231.71
493.54	245.76
493.72	283.20
493.90	266.82
494.08	234.05
494.25	287.89
494.43	243.42
494.61	287.89
494.79	252.78
494.96	259.80
495.14	236.39
495.32	191.92
495.49	194.26
495.67	283.20
495.85	222.35
496.02	224.69
496.20	255.12
496.38	280.86
496.55	297.25
496.73	248.10
496.91	191.92
497.09	273.84
497.26	241.08
497.44	255.12
497.62	227.03
497.79	250.44
497.97	227.03
498.14	224.69
498.32	234.05
498.50	264.48
498.67	229.37
498.85	248.10
499.03	257.46
499.20	269.16
499.38	257.46
499.56	234.05
499.73	306.61
499.91	224.69
500.08	210.65
500.26	315.97
500.44	212.99
500.61	266.82
500.79	241.08
500.97	241.08
501.14	264.48
501.32	315.97
501.49	278.52
501.67	238.73
501.84	245.76
502.02	222.35
502.20	250.44
502.37	292.57
502.55	234.05
502.72	290.23
502.90	252.78
503.07	297.25
503.25	273.84
503.43	311.29
503.60	280.86
503.78	304.27
503.95	269.16
504.13	177.88
504.30	276.18
504.48	248.10
504.65	297.25
504.83	290.23
505.01	252.78
505.18	248.10
505.36	184.90
505.53	276.18
505.71	210.65
505.88	360.44
506.06	234.05
506.23	227.03
506.41	304.27
506.58	290.23
506.76	210.65
506.93	259.80
507.11	241.08
507.28	259.80
507.46	318.31
507.63	269.16
507.81	243.42
507.98	231.71
508.16	243.42
508.33	264.48
508.50	290.23
508.68	236.39
508.85	241.08
509.03	259.80
509.20	212.99
509.38	313.63
509.55	262.14
509.73	276.18
509.90	248.10
510.08	236.39
510.25	264.48
510.42	227.03
510.60	191.92
510.77	245.76
510.95	245.76
511.12	259.80
511.30	332.36
511.47	266.82
511.64	285.55
511.82	231.71
511.99	231.71
512.17	234.05
512.34	241.08
512.51	276.18
512.69	208.31
512.86	285.55
513.04	236.39
513.21	266.82
513.38	234.05
513.56	220.01
513.73	210.65
513.90	278.52
514.08	177.88
514.25	327.68
514.43	259.80
514.60	299.59
514.77	259.80
514.95	245.76
515.12	266.82
515.29	290.23
515.47	269.16
515.64	290.23
515.81	285.55
515.99	276.18
516.16	236.39
516.33	245.76
516.51	262.14
516.68	166.18
516.85	227.03
517.03	222.35
517.20	220.01
517.37	243.42
517.54	304.27
517.72	273.84
517.89	215.33
518.06	231.71
518.24	257.46
518.41	285.55
518.58	262.14
518.75	299.59
518.93	287.89
519.10	306.61
519.27	189.58
519.45	318.31
519.62	191.92
519.79	229.37
519.96	283.20
520.14	301.93
520.31	301.93
520.48	290.23
520.65	262.14
520.83	320.65
521.00	252.78
521.17	266.82
521.34	322.99
521.52	243.42
521.69	285.55
521.86	212.99
522.03	304.27
522.20	346.40
522.38	243.42
522.55	262.14
522.72	238.73
522.89	320.65
523.07	346.40
523.24	292.57
523.41	292.57
523.58	266.82
523.75	203.63
523.92	294.91
524.10	327.68
524.27	229.37
524.44	201.29
524.61	266.82
524.78	236.39
524.96	280.86
525.13	273.84
525.30	280.86
525.47	306.61
525.64	236.39
525.81	346.40
525.98	208.31
526.16	264.48
526.33	285.55
526.50	337.04
526.67	208.31
526.84	266.82
527.01	301.93
527.18	243.42
527.36	231.71
527.53	243.42
527.70	308.95
527.87	248.10
528.04	292.57
528.21	311.29
528.38	283.20
528.55	224.69
528.72	306.61
528.89	276.18
529.07	285.55
529.24	287.89
529.41	297.25
529.58	266.82
529.75	236.39
529.92	257.46
530.09	313.63
530.26	313.63
530.43	273.84
530.60	238.73
530.77	327.68
530.94	276.18
531.11	236.39
531.28	248.10
531.46	266.82
531.63	299.59
531.80	196.60
531.97	351.08
532.14	271.50
532.31	276.18
532.48	255.12
532.65	294.91
532.82	313.63
532.99	365.12
533.16	318.31
533.33	304.27
533.50	287.89
533.67	339.38
533.84	404.91
534.01	379.17
534.18	351.08
534.35	273.84
534.52	299.59
534.69	355.76
534.86	269.16
535.03	287.89
535.20	297.25
535.37	299.59
535.54	287.89
535.71	283.20
535.88	358.10
536.05	234.05
536.22	236.39
536.38	271.50
536.55	259.80
536.72	308.95
536.89	196.60
537.06	381.51
537.23	369.80
537.40	210.65
537.57	273.84
537.74	234.05
537.91	276.18
538.08	278.52
538.25	348.74
538.42	337.04
538.59	322.99
538.75	287.89
538.92	327.68
539.09	332.36
539.26	358.10
539.43	496.19
539.60	840.25
539.77	1107.07
539.94	1090.69
540.11	816.85
540.28	573.43
540.44	627.26
540.61	505.56
540.78	491.51
540.95	547.69
541.12	519.60
541.29	496.19
541.46	566.41
541.62	507.90
541.79	472.79
541.96	500.87
542.13	507.90
542.30	458.74
542.47	512.58
542.63	435.34
542.80	498.53
542.97	561.73
543.14	395.55
543.31	557.05
543.48	461.09
543.64	510.24
543.81	425.98
543.98	486.83
544.15	440.02
544.32	475.13
544.48	472.79
544.65	496.19
544.82	475.13
544.99	395.55
545.16	545.34
545.32	475.13
545.49	685.78
545.66	877.70
545.83	1041.54
546.00	793.44
546.16	566.41
546.33	610.88
546.50	575.77
546.67	470.45
546.83	461.09
547.00	470.45
547.17	383.85
547.34	400.23
547.50	479.81
547.67	407.25
547.84	376.83
548.00	425.98
548.17	346.40
548.34	365.12
548.51	395.55
548.67	379.17
548.84	346.40
549.01	409.59
549.18	409.59
549.34	372.15
549.51	271.50
549.68	400.23
549.84	330.02
550.01	299.59
550.18	435.34
550.34	414.27
550.51	306.61
550.68	285.55
550.84	315.97
551.01	346.40
551.18	308.95
551.34	327.68
551.51	297.25
551.68	334.70
551.84	339.38
552.01	287.89
552.18	292.57
552.34	344.06
552.51	304.27
552.68	327.68
552.84	337.04
553.01	318.31
553.18	304.27
553.34	269.16
553.51	320.65
553.67	252.78
553.84	372.15
554.01	273.84
554.17	252.78
554.34	330.02
554.51	304.27
554.67	290.23
554.84	252.78
555.00	325.33
555.17	257.46
555.33	212.99
555.50	297.25
555.67	301.93
555.83	297.25
556.00	332.36
556.16	418.96
556.33	264.48
556.50	315.97
556.66	234.05
556.83	224.69
556.99	285.55
557.16	297.25
557.32	252.78
557.49	322.99
557.65	292.57
557.82	273.84
557.98	283.20
558.15	217.67
558.32	224.69
558.48	236.39
558.65	264.48
558.81	313.63
558.98	227.03
559.14	337.04
559.31	255.12
559.47	339.38
559.64	262.14
559.80	325.33
559.97	257.46
560.13	271.50
560.30	262.14
560.46	257.46
560.63	234.05
560.79	266.82
560.96	271.50
561.12	255.12
561.29	205.97
561.45	222.35
561.61	269.16
561.78	351.08
561.94	276.18
562.11	175.54
562.27	257.46
562.44	330.02
562.60	220.01
562.77	290.23
562.93	362.78
563.10	238.73
563.26	290.23
563.42	250.44
563.59	212.99
563.75	224.69
563.92	278.52
564.08	294.91
564.24	259.80
564.41	269.16
564.57	257.46
564.74	191.92
564.90	217.67
565.07	285.55
565.23	259.80
565.39	238.73
565.56	292.57
565.72	266.82
565.88	292.57
566.05	353.42
566.21	203.63
566.38	259.80
566.54	194.26
566.70	212.99
566.87	229.37
567.03	245.76
567.19	131.07
567.36	271.50
567.52	234.05
567.68	334.70
567.85	358.10
568.01	212.99
568.17	255.12
568.34	283.20
568.50	322.99
568.66	269.16
568.83	337.04
568.99	215.33
569.15	238.73
569.32	245.76
569.48	290.23
569.64	203.63
569.81	262.14
569.97	196.60
570.13	339.38
570.30	220.01
570.46	297.25
570.62	229.37
570.78	325.33
570.95	224.69
571.11	264.48
571.27	320.65
571.43	294.91
571.60	255.12
571.76	236.39
571.92	248.10
572.09	245.76
572.25	217.67
572.41	245.76
572.57	292.57
572.74	332.36
572.90	203.63
573.06	301.93
573.22	285.55
573.38	341.72
573.55	290.23
573.71	290.23
573.87	327.68
574.03	334.70
574.20	322.99
574.36	315.97
574.52	243.42
574.68	245.76
574.84	379.17
575.01	308.95
575.17	297.25
575.33	278.52
575.49	257.46
575.65	266.82
575.82	332.36
575.98	531.30
576.14	547.69
576.30	566.41
576.46	440.02
576.62	496.19
576.79	451.72
576.95	327.68
577.11	276.18
577.27	264.48
577.43	353.42
577.59	308.95
577.75	234.05
577.92	306.61
578.08	252.78
578.24	313.63
578.40	344.06
578.56	404.91
578.72	407.25
578.88	442.36
579.04	285.55
579.21	360.44
579.37	325.33
579.53	372.15
579.69	330.02
579.85	351.08
580.01	379.17
580.17	386.19
580.33	344.06
580.49	344.06
580.65	351.08
580.82	315.97
580.98	381.51
581.14	390.87
581.30	386.19
581.46	414.27
581.62	554.71
581.78	475.13
581.94	505.56
582.10	451.72
582.26	397.89
582.42	414.27
582.58	430.66
582.74	381.51
582.90	540.66
583.06	545.34
583.22	489.17
583.38	411.93
583.54	421.30
583.70	528.96
583.86	578.11
584.02	580.45
584.18	662.37
584.34	915.15
584.50	2113.50
584.66	15262.63
584.82	37989.24
584.98	49453.18
585.14	44315.70
585.30	27789.18
585.46	16908.03
585.62	10523.05
585.78	5060.24
585.94	2200.10
586.10	1076.65
586.26	779.40
586.42	755.99
586.58	606.20
586.74	589.82
586.90	585.13
587.06	547.69
587.22	514.92
587.38	528.96
587.54	908.13
587.70	2401.39
587.86	3583.36
588.02	3857.20
588.18	2766.51
588.34	1921.58
588.49	1146.86
588.65	713.86
588.81	533.64
588.97	365.12
589.13	304.27
589.29	327.68
589.45	318.31
589.61	285.55
589.77	400.23
589.93	416.62
590.08	348.74
590.24	365.12
590.40	411.93
590.56	479.81
590.72	327.68
590.88	353.42
591.04	367.46
591.20	341.72
591.35	348.74
591.51	360.44
591.67	362.78
591.83	276.18
591.99	313.63
592.15	339.38
592.31	348.74
592.46	374.49
592.62	308.95
592.78	313.63
592.94	285.55
593.10	351.08
593.26	278.52
593.41	386.19
593.57	369.80
593.73	535.98
593.89	2031.58
594.05	4676.39
594.20	6298.38
594.36	5867.72
594.52	4091.26
594.68	2616.72
594.84	1764.76
594.99	1109.41
595.15	624.92
595.31	416.62
595.47	287.89
595.62	383.85
595.78	367.46
595.94	315.97
596.10	414.27
596.25	351.08
596.41	351.08
596.57	294.91
596.73	292.57
596.88	454.06
597.04	1088.35
597.20	1596.25
597.36	1652.42
597.51	1352.83
597.67	945.58
597.83	805.14
597.99	578.11
598.14	372.15
598.30	423.64
598.46	327.68
598.61	332.36
598.77	334.70
598.93	318.31
599.09	327.68
599.24	299.59
599.40	402.57
599.56	315.97
599.71	276.18
599.87	290.23
600.03	337.04
600.18	285.55
600.34	341.72
600.50	320.65
600.65	308.95
600.81	257.46
600.97	313.63
601.12	273.84
601.28	266.82
601.44	344.06
601.59	273.84
601.75	322.99
601.91	344.06
602.06	315.97
602.22	423.64
602.37	627.26
602.53	1219.42
602.69	1743.70
602.84	1781.15
603.00	1336.45
603.16	952.60
603.31	716.20
603.47	535.98
603.62	393.21
603.78	400.23
603.94	318.31
604.09	313.63
604.25	337.04
604.40	344.06
604.56	264.48
604.71	276.18
604.87	294.91
605.03	198.95
605.18	327.68
605.34	374.49
605.49	297.25
605.65	355.76
605.80	306.61
605.96	266.82
606.12	299.59
606.27	374.49
606.43	360.44
606.58	433.00
606.74	692.80
606.89	2174.36
607.05	4313.61
607.20	5533.03
607.36	4327.65
607.51	3133.98
607.67	2169.68
607.82	1511.99
607.98	957.28
608.13	552.37
608.29	383.85
608.44	416.62
608.60	489.17
608.75	482.15
608.91	847.27
609.06	3665.28
609.22	7143.32
609.37	9219.37
609.53	8046.76
609.68	5476.85
609.84	3754.22
609.99	2700.98
610.15	1607.95
610.30	978.34
610.46	875.36
610.61	877.70
610.76	880.04
610.92	915.15
611.07	1062.60
611.23	1090.69
611.38	959.62
611.54	903.45
611.69	788.76
611.84	636.63
612.00	578.11
612.15	533.64
612.31	617.90
612.46	723.23
612.62	706.84
612.77	608.54
612.92	608.54
613.08	671.73
613.23	566.41
613.39	594.50
613.54	863.66
613.69	3286.11
613.85	9053.19
614.00	13884.06
614.15	14363.87
614.31	10178.99
614.46	6808.62
614.62	4557.02
614.77	3009.93
614.92	1432.41
615.08	763.01
615.23	648.33
615.38	587.47
615.54	425.98
615.69	809.83
615.84	2017.54
616.00	3297.81
616.15	3861.88
616.30	3295.47
616.46	2246.91
616.61	1568.16
616.76	1217.08
616.92	802.80
617.07	433.00
617.22	402.57
617.37	330.02
617.53	337.04
617.68	297.25
617.83	341.72
617.99	341.72
618.14	320.65
618.29	278.52
618.45	325.33
618.60	301.93
618.75	229.37
618.90	257.46
619.06	262.14
619.21	334.70
619.36	376.83
619.51	318.31
619.67	271.50
619.82	315.97
619.97	308.95
620.12	304.27
620.28	241.08
620.43	367.46
620.58	322.99
620.73	262.14
620.89	327.68
621.04	433.00
621.19	1069.62
621.34	1975.41
621.49	2249.25
621.65	2118.18
621.80	1486.24
621.95	1165.59
622.10	887.06
622.25	543.00
622.41	409.59
622.56	304.27
622.71	330.02
622.86	369.80
623.01	285.55
623.16	285.55
623.32	241.08
623.47	238.73
623.62	327.68
623.77	269.16
623.92	238.73
624.07	266.82
624.23	273.84
624.38	252.78
624.53	348.74
624.68	325.33
624.83	383.85
624.98	304.27
625.13	280.86
625.29	290.23
625.44	311.29
625.59	409.59
625.74	400.23
625.89	407.25
626.04	1689.87
626.19	4411.91
626.34	6834.36
626.49	7356.30
626.65	5636.01
626.80	3981.25
626.95	2612.04
627.10	1600.93
627.25	964.30
627.40	603.86
627.55	367.46
627.70	376.83
627.85	325.33
628.00	313.63
628.15	280.86
628.30	285.55
628.45	255.12
628.60	369.80
628.76	315.97
628.91	276.18
629.06	264.48
629.21	264.48
629.36	304.27
629.51	266.82
629.66	311.29
629.81	407.25
629.96	933.87
630.11	1729.66
630.26	2064.35
630.41	1739.02
630.56	1371.55
630.71	1081.33
630.86	800.46
631.01	493.85
631.16	360.44
631.31	306.61
631.46	351.08
631.61	299.59
631.76	271.50
631.91	271.50
632.06	320.65
632.21	332.36
632.36	351.08
632.51	360.44
632.66	365.12
632.81	866.00
632.96	2574.59
633.10	4400.21
633.25	5144.50
633.40	4236.37
633.55	3042.70
633.70	2019.88
633.85	1397.30
634.00	779.40
634.15	550.03
634.30	346.40
634.45	332.36
634.60	227.03
634.75	262.14
634.90	280.86
635.05	278.52
635.19	283.20
635.34	325.33
635.49	257.46
635.64	264.48
635.79	262.14
635.94	292.57
636.09	271.50
636.24	278.52
636.39	217.67
636.53	262.14
636.68	248.10
636.83	248.10
636.98	400.23
637.13	236.39
637.28	276.18
637.43	327.68
637.57	535.98
637.72	2073.71
637.87	5811.55
638.02	8596.79
638.17	9156.18
638.32	6902.24
638.46	4784.06
638.61	3403.14
638.76	2008.18
638.91	1095.37
639.06	587.47
639.20	521.94
639.35	533.64
639.50	732.59
639.65	3164.40
639.80	8894.04
639.94	13078.91
640.09	14153.22
640.24	10698.59
640.39	7431.20
640.54	4912.78
640.68	3183.13
640.83	1589.22
640.98	847.27
641.13	428.32
641.27	428.32
641.42	280.86
641.57	395.55
641.72	355.76
641.86	266.82
642.01	313.63
642.16	224.69
642.31	294.91
642.45	334.70
642.60	334.70
642.75	294.91
642.90	264.48
643.04	203.63
643.19	248.10
643.34	283.20
643.48	252.78
643.63	255.12
643.78	388.53
643.93	278.52
644.07	299.59
644.22	287.89
644.37	203.63
644.51	238.73
644.66	215.33
644.81	278.52
644.95	264.48
645.10	220.01
645.25	196.60
645.39	205.97
645.54	236.39
645.69	287.89
645.83	191.92
645.98	304.27
646.13	234.05
646.27	222.35
646.42	203.63
646.57	227.03
646.71	166.18
646.86	194.26
647.00	248.10
647.15	220.01
647.30	220.01
647.44	227.03
647.59	259.80
647.74	257.46
647.88	271.50
648.03	180.22
648.17	238.73
648.32	222.35
648.47	271.50
648.61	215.33
648.76	208.31
648.90	245.76
649.05	215.33
649.20	212.99
649.34	198.95
649.49	212.99
649.63	287.89
649.78	285.55
649.92	330.02
650.07	1261.55
650.21	3843.16
650.36	6232.85
650.51	7353.96
650.65	6244.55
650.80	4353.40
650.94	2949.08
651.09	1961.37
651.23	1032.18
651.38	545.34
651.52	320.65
651.67	241.08
651.81	222.35
651.96	278.52
652.10	243.42
652.25	248.10
652.39	351.08
652.54	266.82
652.68	561.73
652.83	1324.74
652.97	2122.87
653.12	2647.15
653.26	2385.01
653.41	1746.04
653.55	1336.45
653.70	819.19
653.84	578.11
653.99	463.43
654.13	304.27
654.27	294.91
654.42	280.86
654.56	201.29
654.71	241.08
654.85	182.56
655.00	250.44
655.14	278.52
655.29	163.84
655.43	201.29
655.57	205.97
655.72	241.08
655.86	243.42
656.01	224.69
656.15	163.84
656.30	229.37
656.44	241.08
656.58	259.80
656.73	266.82
656.87	182.56
657.01	194.26
657.16	248.10
657.30	266.82
657.45	259.80
657.59	175.54
657.73	198.95
657.88	191.92
658.02	311.29
658.16	175.54
658.31	285.55
658.45	196.60
658.60	203.63
658.74	217.67
658.88	241.08
659.03	208.31
659.17	306.61
659.31	636.63
659.46	1774.13
659.60	3033.33
659.74	3700.39
659.89	3290.79
660.03	2553.52
660.17	1715.61
660.32	1146.86
660.46	725.57
660.60	414.27
660.74	252.78
660.89	203.63
661.03	210.65
661.17	231.71
661.32	238.73
661.46	245.76
661.60	271.50
661.74	173.20
661.89	231.71
662.03	203.63
662.17	189.58
662.31	159.16
662.46	266.82
662.60	210.65
662.74	231.71
662.88	224.69
663.03	210.65
663.17	208.31
663.31	220.01
663.45	215.33
663.60	236.39
663.74	189.58
663.88	156.82
664.02	245.76
664.17	177.88
664.31	184.90
664.45	301.93
664.59	210.65
664.73	217.67
664.88	227.03
665.02	238.73
665.16	269.16
665.30	255.12
665.44	229.37
665.59	255.12
665.73	220.01
665.87	201.29
666.01	189.58
666.15	198.95
666.29	238.73
666.44	217.67
666.58	224.69
666.72	177.88
666.86	299.59
667.00	292.57
667.14	264.48
667.28	1203.04
667.43	3276.75
667.57	5378.55
667.71	6420.09
667.85	5387.91
667.99	4102.96
668.13	2668.21
668.27	1640.72
668.41	887.06
668.56	601.52
668.70	397.89
668.84	327.68
668.98	271.50
669.12	198.95
669.26	203.63
669.40	273.84
669.54	278.52
669.68	250.44
669.82	234.05
669.96	264.48
670.10	196.60
670.25	264.48
670.39	184.90
670.53	227.03
670.67	243.42
670.81	187.24
670.95	259.80
671.09	479.81
671.23	1306.02
671.37	2731.41
671.51	3824.44
671.65	4081.89
671.79	3164.40
671.93	2174.36
672.07	1497.94
672.21	805.14
672.35	500.87
672.49	449.38
672.63	320.65
672.77	262.14
672.91	269.16
673.05	201.29
673.19	276.18
673.33	198.95
673.47	287.89
673.61	210.65
673.75	159.16
673.89	124.05
674.03	311.29
674.17	220.01
674.31	222.35
674.45	248.10
674.59	131.07
674.73	231.71
674.87	217.67
675.01	212.99
675.15	266.82
675.29	273.84
675.43	203.63
675.56	227.03
675.70	243.42
675.84	220.01
675.98	135.75
676.12	238.73
676.26	208.31
676.40	177.88
676.54	184.90
676.68	112.35
676.82	229.37
676.96	168.52
677.10	152.13
677.23	215.33
677.37	163.84
677.51	142.77
677.65	227.03
677.79	170.86
677.93	112.35
678.07	121.71
678.21	210.65
678.34	236.39
678.48	201.29
678.62	203.63
678.76	182.56
678.90	159.16
679.04	208.31
679.18	222.35
679.31	208.31
679.45	159.16
679.59	201.29
679.73	114.69
679.87	145.11
680.00	201.29
680.14	234.05
680.28	184.90
680.42	177.88
680.56	205.97
680.70	147.45
680.83	212.99
680.97	177.88
681.11	133.41
681.25	201.29
681.39	191.92
681.52	236.39
681.66	241.08
681.80	308.95
681.94	168.52
682.07	201.29
682.21	173.20
682.35	131.07
682.49	128.73
682.62	168.52
682.76	93.62
682.90	229.37
683.04	203.63
683.17	245.76
683.31	177.88
683.45	245.76
683.59	203.63
683.72	245.76
683.86	142.77
684.00	154.48
684.13	203.63
684.27	248.10
684.41	175.54
684.55	194.26
684.68	168.52
684.82	262.14
684.96	241.08
685.09	170.86
685.23	194.26
685.37	107.66
685.50	182.56
685.64	215.33
685.78	149.79
685.91	180.22
686.05	191.92
686.19	201.29
686.32	222.35
686.46	168.52
686.60	245.76
686.73	215.33
686.87	236.39
687.01	269.16
687.14	285.55
687.28	187.24
687.42	259.80
687.55	196.60
687.69	205.97
687.82	198.95
687.96	126.39
688.10	210.65
688.23	198.95
688.37	224.69
688.50	184.90
688.64	198.95
688.78	222.35
688.91	147.45
689.05	208.31
689.18	119.37
689.32	124.05
689.46	175.54
689.59	191.92
689.73	222.35
689.86	133.41
690.00	182.56
690.13	210.65
690.27	166.18
690.41	180.22
690.54	180.22
690.68	252.78
690.81	215.33
690.95	149.79
691.08	180.22
691.22	149.79
691.35	161.50
691.49	147.45
691.62	194.26
691.76	121.71
691.89	212.99
692.03	126.39
692.16	154.48
692.30	201.29
692.43	500.87
692.57	1299.00
692.70	2165.00
692.84	2913.97
692.97	2630.76
693.11	1870.09
693.24	1465.18
693.38	1050.90
693.51	676.41
693.65	456.40
693.78	414.27
693.92	304.27
694.05	227.03
694.19	287.89
694.32	203.63
694.45	189.58
694.59	168.52
694.72	205.97
694.86	189.58
694.99	215.33
695.13	177.88
695.26	229.37
695.39	124.05
695.53	236.39
695.66	205.97
695.80	177.88
695.93	227.03
696.07	201.29
696.20	290.23
696.33	330.02
696.47	386.19
696.60	339.38
696.73	306.61
696.87	255.12
697.00	215.33
697.14	177.88
697.27	194.26
697.40	229.37
697.54	196.60
697.67	184.90
697.80	201.29
697.94	58.51
698.07	114.69
698.21	194.26
698.34	117.03
698.47	205.97
698.61	154.48
698.74	189.58
698.87	191.92
699.01	241.08
699.14	159.16
699.27	173.20
699.40	299.59
699.54	95.96
699.67	145.11
699.80	117.03
699.94	212.99
700.07	170.86
700.20	154.48
700.34	163.84
700.47	166.18
700.60	170.86
700.73	142.77
700.87	194.26
701.00	112.35
701.13	135.75
701.26	126.39
701.40	198.95
701.53	149.79
701.66	205.97
701.79	107.66
701.93	220.01
702.06	315.97
702.19	339.38
702.32	374.49
702.46	287.89
702.59	294.91
702.72	538.32
702.85	1696.89
702.99	3522.51
703.12	4812.14
703.25	5296.63
703.38	4550.00
703.51	3700.39
703.65	2972.48
703.78	2001.16
703.91	1380.92
704.04	968.98
704.17	645.99
704.31	418.96
704.44	236.39
704.57	262.14
704.70	234.05
704.83	175.54
704.96	227.03
705.10	145.11
705.23	180.22
>>>>>End Processed Spectral Data<<<<<
