SpectraSuite Data File
++++++++++++++++++++++++++++++++++++
Date: Fri Oct 04 11:33:55 GMT-05:00 2013
User: price-jones
Dark Spectrum Present: No
Reference Spectrum Present: No
Number of Sampled Component Spectra: 1
Spectrometers: USB2+H05261
Integration Time (usec): 100000 (USB2+H05261)
Spectra Averaged: 1 (USB2+H05261)
Boxcar Smoothing: 0 (USB2+H05261)
Correct for Electrical Dark: No (USB2+H05261)
Strobe/Lamp Enabled: No (USB2+H05261)
Correct for Detector Non-linearity: No (USB2+H05261)
Correct for Stray Light: No (USB2+H05261)
Number of Pixels in Processed Spectrum: 2048
>>>>>Begin Processed Spectral Data<<<<<
365.73	37.45
365.92	37.45
366.12	37.45
366.32	23.41
366.52	0.00
366.72	49.15
366.91	0.00
367.11	0.00
367.31	16.38
367.51	0.00
367.70	0.00
367.90	0.00
368.10	0.00
368.30	0.00
368.49	0.00
368.69	0.00
368.89	0.00
369.09	0.00
369.28	46.81
369.48	16.38
369.68	0.00
369.87	0.00
370.07	35.11
370.27	37.45
370.47	56.17
370.66	53.83
370.86	93.62
371.06	67.88
371.25	79.58
371.45	65.54
371.65	81.92
371.84	112.35
372.04	21.06
372.24	93.62
372.44	114.69
372.63	159.16
372.83	234.05
373.03	107.66
373.22	147.45
373.42	77.24
373.62	102.98
373.81	63.19
374.01	140.43
374.21	203.63
374.40	145.11
374.60	175.54
374.79	194.26
374.99	163.84
375.19	74.90
375.38	203.63
375.58	170.86
375.78	121.71
375.97	166.18
376.17	191.92
376.37	159.16
376.56	159.16
376.76	161.50
376.95	222.35
377.15	152.13
377.35	149.79
377.54	166.18
377.74	84.26
377.93	229.37
378.13	119.37
378.33	135.75
378.52	84.26
378.72	215.33
378.91	198.95
379.11	173.20
379.31	117.03
379.50	126.39
379.70	208.31
379.89	203.63
380.09	135.75
380.28	84.26
380.48	156.82
380.68	189.58
380.87	133.41
381.07	182.56
381.26	154.48
381.46	121.71
381.65	58.51
381.85	149.79
382.04	107.66
382.24	152.13
382.43	114.69
382.63	102.98
382.83	145.11
383.02	121.71
383.22	133.41
383.41	117.03
383.61	112.35
383.80	170.86
384.00	142.77
384.19	126.39
384.39	121.71
384.58	140.43
384.78	126.39
384.97	156.82
385.17	112.35
385.36	128.73
385.56	163.84
385.75	180.22
385.95	173.20
386.14	191.92
386.34	182.56
386.53	189.58
386.72	100.64
386.92	142.77
387.11	145.11
387.31	152.13
387.50	184.90
387.70	140.43
387.89	124.05
388.09	163.84
388.28	100.64
388.48	39.79
388.67	175.54
388.86	126.39
389.06	81.92
389.25	93.62
389.45	166.18
389.64	121.71
389.84	198.95
390.03	131.07
390.22	227.03
390.42	159.16
390.61	119.37
390.81	156.82
391.00	149.79
391.19	107.66
391.39	145.11
391.58	91.28
391.78	163.84
391.97	140.43
392.16	95.96
392.36	168.52
392.55	149.79
392.75	135.75
392.94	98.30
393.13	177.88
393.33	133.41
393.52	147.45
393.71	196.60
393.91	159.16
394.10	119.37
394.29	93.62
394.49	212.99
394.68	210.65
394.88	241.08
395.07	168.52
395.26	105.32
395.46	196.60
395.65	138.09
395.84	203.63
396.04	245.76
396.23	166.18
396.42	114.69
396.62	121.71
396.81	131.07
397.00	189.58
397.19	215.33
397.39	159.16
397.58	194.26
397.77	175.54
397.97	142.77
398.16	128.73
398.35	161.50
398.55	173.20
398.74	124.05
398.93	79.58
399.12	170.86
399.32	154.48
399.51	191.92
399.70	201.29
399.90	126.39
400.09	243.42
400.28	114.69
400.47	142.77
400.67	138.09
400.86	117.03
401.05	227.03
401.24	187.24
401.44	217.67
401.63	180.22
401.82	177.88
402.01	86.60
402.21	170.86
402.40	250.44
402.59	194.26
402.78	210.65
402.97	140.43
403.17	147.45
403.36	175.54
403.55	159.16
403.74	170.86
403.93	163.84
404.13	248.10
404.32	259.80
404.51	159.16
404.70	234.05
404.89	128.73
405.09	255.12
405.28	168.52
405.47	177.88
405.66	163.84
405.85	220.01
406.05	95.96
406.24	154.48
406.43	234.05
406.62	234.05
406.81	159.16
407.00	166.18
407.20	147.45
407.39	170.86
407.58	65.54
407.77	149.79
407.96	241.08
408.15	201.29
408.34	170.86
408.54	105.32
408.73	107.66
408.92	159.16
409.11	154.48
409.30	198.95
409.49	156.82
409.68	168.52
409.87	161.50
410.07	121.71
410.26	170.86
410.45	110.01
410.64	128.73
410.83	205.97
411.02	145.11
411.21	149.79
411.40	182.56
411.59	177.88
411.78	86.60
411.98	175.54
412.17	149.79
412.36	63.19
412.55	189.58
412.74	194.26
412.93	133.41
413.12	93.62
413.31	154.48
413.50	182.56
413.69	152.13
413.88	166.18
414.07	121.71
414.26	159.16
414.45	126.39
414.64	173.20
414.83	133.41
415.02	147.45
415.22	163.84
415.41	91.28
415.60	102.98
415.79	100.64
415.98	180.22
416.17	126.39
416.36	112.35
416.55	131.07
416.74	194.26
416.93	229.37
417.12	182.56
417.31	135.75
417.50	196.60
417.69	250.44
417.88	215.33
418.07	234.05
418.26	189.58
418.45	196.60
418.64	283.20
418.83	276.18
419.02	234.05
419.21	238.73
419.39	212.99
419.58	257.46
419.77	227.03
419.96	222.35
420.15	231.71
420.34	266.82
420.53	222.35
420.72	229.37
420.91	154.48
421.10	198.95
421.29	124.05
421.48	170.86
421.67	117.03
421.86	147.45
422.05	152.13
422.24	163.84
422.43	229.37
422.61	131.07
422.80	107.66
422.99	182.56
423.18	198.95
423.37	170.86
423.56	168.52
423.75	168.52
423.94	100.64
424.13	163.84
424.32	142.77
424.50	124.05
424.69	217.67
424.88	147.45
425.07	182.56
425.26	250.44
425.45	259.80
425.64	215.33
425.83	217.67
426.01	194.26
426.20	224.69
426.39	205.97
426.58	203.63
426.77	180.22
426.96	133.41
427.15	271.50
427.33	180.22
427.52	182.56
427.71	248.10
427.90	229.37
428.09	243.42
428.28	203.63
428.46	149.79
428.65	238.73
428.84	231.71
429.03	145.11
429.22	107.66
429.40	140.43
429.59	163.84
429.78	304.27
429.97	241.08
430.16	161.50
430.34	168.52
430.53	145.11
430.72	72.56
430.91	161.50
431.10	142.77
431.28	124.05
431.47	227.03
431.66	184.90
431.85	203.63
432.03	201.29
432.22	227.03
432.41	131.07
432.60	203.63
432.79	236.39
432.97	311.29
433.16	304.27
433.35	220.01
433.54	224.69
433.72	227.03
433.91	245.76
434.10	194.26
434.28	196.60
434.47	156.82
434.66	173.20
434.85	196.60
435.03	264.48
435.22	276.18
435.41	437.68
435.59	379.17
435.78	337.04
435.97	308.95
436.16	215.33
436.34	231.71
436.53	191.92
436.72	264.48
436.90	175.54
437.09	170.86
437.28	168.52
437.46	189.58
437.65	234.05
437.84	168.52
438.02	175.54
438.21	187.24
438.40	177.88
438.58	95.96
438.77	166.18
438.96	161.50
439.14	154.48
439.33	252.78
439.52	187.24
439.70	166.18
439.89	210.65
440.08	128.73
440.26	194.26
440.45	252.78
440.63	238.73
440.82	255.12
441.01	145.11
441.19	191.92
441.38	170.86
441.57	189.58
441.75	231.71
441.94	208.31
442.12	215.33
442.31	250.44
442.50	196.60
442.68	196.60
442.87	191.92
443.05	114.69
443.24	180.22
443.43	220.01
443.61	231.71
443.80	231.71
443.98	131.07
444.17	145.11
444.35	220.01
444.54	110.01
444.73	135.75
444.91	231.71
445.10	147.45
445.28	196.60
445.47	107.66
445.65	119.37
445.84	210.65
446.02	168.52
446.21	212.99
446.39	203.63
446.58	173.20
446.77	201.29
446.95	110.01
447.14	210.65
447.32	241.08
447.51	142.77
447.69	262.14
447.88	196.60
448.06	220.01
448.25	180.22
448.43	154.48
448.62	152.13
448.80	210.65
448.99	147.45
449.17	198.95
449.36	224.69
449.54	299.59
449.73	117.03
449.91	205.97
450.10	189.58
450.28	224.69
450.46	205.97
450.65	238.73
450.83	205.97
451.02	224.69
451.20	259.80
451.39	145.11
451.57	201.29
451.76	217.67
451.94	184.90
452.13	161.50
452.31	220.01
452.49	203.63
452.68	105.32
452.86	152.13
453.05	229.37
453.23	184.90
453.42	102.98
453.60	201.29
453.78	210.65
453.97	126.39
454.15	201.29
454.34	205.97
454.52	201.29
454.70	220.01
454.89	170.86
455.07	175.54
455.26	131.07
455.44	238.73
455.62	184.90
455.81	248.10
455.99	259.80
456.17	210.65
456.36	203.63
456.54	231.71
456.73	205.97
456.91	182.56
457.09	212.99
457.28	194.26
457.46	191.92
457.64	198.95
457.83	205.97
458.01	241.08
458.19	285.55
458.38	210.65
458.56	201.29
458.74	173.20
458.93	128.73
459.11	201.29
459.29	210.65
459.48	278.52
459.66	222.35
459.84	196.60
460.03	372.15
460.21	266.82
460.39	177.88
460.57	161.50
460.76	194.26
460.94	142.77
461.12	250.44
461.31	238.73
461.49	220.01
461.67	203.63
461.85	184.90
462.04	187.24
462.22	634.29
462.40	250.44
462.59	194.26
462.77	149.79
462.95	203.63
463.13	117.03
463.32	245.76
463.50	278.52
463.68	245.76
463.86	222.35
464.05	159.16
464.23	182.56
464.41	173.20
464.59	133.41
464.78	114.69
464.96	161.50
465.14	166.18
465.32	142.77
465.50	184.90
465.69	224.69
465.87	142.77
466.05	187.24
466.23	201.29
466.41	248.10
466.60	201.29
466.78	198.95
466.96	243.42
467.14	234.05
467.32	177.88
467.51	203.63
467.69	173.20
467.87	212.99
468.05	203.63
468.23	248.10
468.41	276.18
468.60	220.01
468.78	220.01
468.96	205.97
469.14	194.26
469.32	257.46
469.50	198.95
469.69	205.97
469.87	147.45
470.05	255.12
470.23	173.20
470.41	182.56
470.59	135.75
470.77	257.46
470.95	262.14
471.14	224.69
471.32	252.78
471.50	201.29
471.68	156.82
471.86	191.92
472.04	217.67
472.22	269.16
472.40	117.03
472.58	215.33
472.77	142.77
472.95	210.65
473.13	262.14
473.31	236.39
473.49	203.63
473.67	243.42
473.85	198.95
474.03	222.35
474.21	212.99
474.39	194.26
474.57	152.13
474.75	234.05
474.93	250.44
475.12	175.54
475.30	114.69
475.48	212.99
475.66	175.54
475.84	278.52
476.02	196.60
476.20	257.46
476.38	285.55
476.56	283.20
476.74	252.78
476.92	234.05
477.10	159.16
477.28	217.67
477.46	191.92
477.64	203.63
477.82	180.22
478.00	255.12
478.18	182.56
478.36	166.18
478.54	173.20
478.72	187.24
478.90	191.92
479.08	245.76
479.26	229.37
479.44	156.82
479.62	220.01
479.80	163.84
479.98	93.62
480.16	217.67
480.34	297.25
480.52	145.11
480.70	248.10
480.88	191.92
481.06	142.77
481.24	187.24
481.41	168.52
481.59	175.54
481.77	208.31
481.95	212.99
482.13	212.99
482.31	257.46
482.49	229.37
482.67	278.52
482.85	229.37
483.03	266.82
483.21	227.03
483.39	264.48
483.57	264.48
483.74	280.86
483.92	234.05
484.10	224.69
484.28	238.73
484.46	266.82
484.64	238.73
484.82	297.25
485.00	220.01
485.18	217.67
485.35	315.97
485.53	227.03
485.71	285.55
485.89	234.05
486.07	180.22
486.25	245.76
486.43	245.76
486.61	327.68
486.78	297.25
486.96	217.67
487.14	201.29
487.32	156.82
487.50	255.12
487.68	245.76
487.85	217.67
488.03	229.37
488.21	283.20
488.39	224.69
488.57	306.61
488.75	182.56
488.92	491.51
489.10	222.35
489.28	259.80
489.46	255.12
489.64	224.69
489.81	210.65
489.99	327.68
490.17	236.39
490.35	292.57
490.53	238.73
490.70	210.65
490.88	257.46
491.06	252.78
491.24	264.48
491.41	294.91
491.59	250.44
491.77	250.44
491.95	217.67
492.13	224.69
492.30	210.65
492.48	198.95
492.66	252.78
492.84	287.89
493.01	330.02
493.19	245.76
493.37	365.12
493.54	266.82
493.72	276.18
493.90	318.31
494.08	222.35
494.25	271.50
494.43	269.16
494.61	276.18
494.79	252.78
494.96	205.97
495.14	224.69
495.32	308.95
495.49	238.73
495.67	220.01
495.85	208.31
496.02	241.08
496.20	308.95
496.38	299.59
496.55	224.69
496.73	234.05
496.91	290.23
497.09	269.16
497.26	243.42
497.44	175.54
497.62	119.37
497.79	194.26
497.97	255.12
498.14	252.78
498.32	297.25
498.50	280.86
498.67	248.10
498.85	250.44
499.03	196.60
499.20	252.78
499.38	243.42
499.56	262.14
499.73	208.31
499.91	299.59
500.08	205.97
500.26	273.84
500.44	217.67
500.61	210.65
500.79	259.80
500.97	283.20
501.14	290.23
501.32	243.42
501.49	264.48
501.67	196.60
501.84	234.05
502.02	187.24
502.20	257.46
502.37	231.71
502.55	166.18
502.72	212.99
502.90	259.80
503.07	231.71
503.25	238.73
503.43	177.88
503.60	241.08
503.78	311.29
503.95	271.50
504.13	236.39
504.30	212.99
504.48	276.18
504.65	269.16
504.83	238.73
505.01	344.06
505.18	297.25
505.36	278.52
505.53	231.71
505.71	241.08
505.88	299.59
506.06	236.39
506.23	234.05
506.41	222.35
506.58	236.39
506.76	290.23
506.93	243.42
507.11	250.44
507.28	283.20
507.46	273.84
507.63	273.84
507.81	327.68
507.98	166.18
508.16	287.89
508.33	191.92
508.50	187.24
508.68	196.60
508.85	287.89
509.03	257.46
509.20	250.44
509.38	212.99
509.55	271.50
509.73	299.59
509.90	297.25
510.08	163.84
510.25	304.27
510.42	142.77
510.60	332.36
510.77	362.78
510.95	250.44
511.12	229.37
511.30	332.36
511.47	344.06
511.64	334.70
511.82	224.69
511.99	320.65
512.17	334.70
512.34	208.31
512.51	196.60
512.69	257.46
512.86	227.03
513.04	208.31
513.21	287.89
513.38	290.23
513.56	248.10
513.73	196.60
513.90	217.67
514.08	299.59
514.25	250.44
514.43	273.84
514.60	259.80
514.77	248.10
514.95	222.35
515.12	241.08
515.29	271.50
515.47	276.18
515.64	318.31
515.81	283.20
515.99	318.31
516.16	320.65
516.33	248.10
516.51	248.10
516.68	243.42
516.85	124.05
517.03	243.42
517.20	224.69
517.37	287.89
517.54	327.68
517.72	238.73
517.89	290.23
518.06	231.71
518.24	241.08
518.41	297.25
518.58	322.99
518.75	245.76
518.93	294.91
519.10	243.42
519.27	306.61
519.45	292.57
519.62	269.16
519.79	285.55
519.96	297.25
520.14	278.52
520.31	299.59
520.48	313.63
520.65	276.18
520.83	292.57
521.00	311.29
521.17	283.20
521.34	245.76
521.52	250.44
521.69	287.89
521.86	308.95
522.03	262.14
522.20	273.84
522.38	341.72
522.55	266.82
522.72	231.71
522.89	238.73
523.07	306.61
523.24	187.24
523.41	208.31
523.58	318.31
523.75	252.78
523.92	241.08
524.10	273.84
524.27	259.80
524.44	250.44
524.61	311.29
524.78	236.39
524.96	266.82
525.13	297.25
525.30	362.78
525.47	248.10
525.64	320.65
525.81	252.78
525.98	236.39
526.16	212.99
526.33	290.23
526.50	220.01
526.67	220.01
526.84	248.10
527.01	273.84
527.18	252.78
527.36	306.61
527.53	229.37
527.70	318.31
527.87	229.37
528.04	313.63
528.21	271.50
528.38	248.10
528.55	285.55
528.72	376.83
528.89	360.44
529.07	292.57
529.24	290.23
529.41	292.57
529.58	198.95
529.75	294.91
529.92	304.27
530.09	337.04
530.26	339.38
530.43	362.78
530.60	351.08
530.77	297.25
530.94	205.97
531.11	299.59
531.28	280.86
531.46	287.89
531.63	229.37
531.80	299.59
531.97	308.95
532.14	257.46
532.31	301.93
532.48	353.42
532.65	407.25
532.82	451.72
532.99	514.92
533.16	416.62
533.33	367.46
533.50	325.33
533.67	390.87
533.84	442.36
534.01	559.39
534.18	493.85
534.35	404.91
534.52	269.16
534.69	355.76
534.86	259.80
535.03	217.67
535.20	250.44
535.37	301.93
535.54	301.93
535.71	262.14
535.88	304.27
536.05	231.71
536.22	234.05
536.38	227.03
536.55	290.23
536.72	339.38
536.89	304.27
537.06	248.10
537.23	334.70
537.40	297.25
537.57	355.76
537.74	311.29
537.91	346.40
538.08	241.08
538.25	290.23
538.42	299.59
538.59	285.55
538.75	311.29
538.92	362.78
539.09	330.02
539.26	290.23
539.43	716.20
539.60	1362.19
539.77	2045.63
539.94	2101.80
540.11	1430.07
540.28	1055.58
540.44	746.63
540.61	543.00
540.78	449.38
540.95	423.64
541.12	435.34
541.29	440.02
541.46	538.32
541.62	540.66
541.79	547.69
541.96	477.47
542.13	498.53
542.30	416.62
542.47	500.87
542.63	482.15
542.80	552.37
542.97	468.11
543.14	505.56
543.31	554.71
543.48	528.96
543.64	500.87
543.81	454.06
543.98	477.47
544.15	456.40
544.32	475.13
544.48	428.32
544.65	390.87
544.82	550.03
544.99	447.04
545.16	533.64
545.32	517.26
545.49	615.56
545.66	866.00
545.83	912.81
546.00	830.89
546.16	615.56
546.33	493.85
546.50	479.81
546.67	449.38
546.83	444.70
547.00	355.76
547.17	390.87
547.34	437.68
547.50	325.33
547.67	376.83
547.84	376.83
548.00	346.40
548.17	337.04
548.34	325.33
548.51	369.80
548.67	299.59
548.84	367.46
549.01	372.15
549.18	376.83
549.34	402.57
549.51	393.21
549.68	344.06
549.84	339.38
550.01	278.52
550.18	414.27
550.34	397.89
550.51	327.68
550.68	365.12
550.84	351.08
551.01	383.85
551.18	369.80
551.34	344.06
551.51	402.57
551.68	236.39
551.84	306.61
552.01	266.82
552.18	290.23
552.34	285.55
552.51	276.18
552.68	297.25
552.84	353.42
553.01	301.93
553.18	372.15
553.34	292.57
553.51	292.57
553.67	287.89
553.84	376.83
554.01	341.72
554.17	252.78
554.34	297.25
554.51	325.33
554.67	320.65
554.84	325.33
555.00	358.10
555.17	259.80
555.33	285.55
555.50	264.48
555.67	327.68
555.83	327.68
556.00	337.04
556.16	428.32
556.33	259.80
556.50	273.84
556.66	276.18
556.83	322.99
556.99	257.46
557.16	299.59
557.32	276.18
557.49	266.82
557.65	210.65
557.82	189.58
557.98	308.95
558.15	264.48
558.32	252.78
558.48	248.10
558.65	322.99
558.81	236.39
558.98	201.29
559.14	290.23
559.31	248.10
559.47	250.44
559.64	276.18
559.80	308.95
559.97	299.59
560.13	245.76
560.30	229.37
560.46	220.01
560.63	243.42
560.79	255.12
560.96	257.46
561.12	252.78
561.29	257.46
561.45	283.20
561.61	339.38
561.78	306.61
561.94	234.05
562.11	278.52
562.27	278.52
562.44	327.68
562.60	248.10
562.77	276.18
562.93	306.61
563.10	259.80
563.26	372.15
563.42	264.48
563.59	231.71
563.75	138.09
563.92	283.20
564.08	285.55
564.24	234.05
564.41	423.64
564.57	227.03
564.74	311.29
564.90	252.78
565.07	318.31
565.23	348.74
565.39	292.57
565.56	259.80
565.72	287.89
565.88	299.59
566.05	294.91
566.21	334.70
566.38	252.78
566.54	320.65
566.70	262.14
566.87	170.86
567.03	234.05
567.19	318.31
567.36	297.25
567.52	250.44
567.68	259.80
567.85	217.67
568.01	250.44
568.17	234.05
568.34	215.33
568.50	215.33
568.66	297.25
568.83	362.78
568.99	236.39
569.15	306.61
569.32	262.14
569.48	198.95
569.64	311.29
569.81	280.86
569.97	250.44
570.13	264.48
570.30	304.27
570.46	308.95
570.62	271.50
570.78	266.82
570.95	227.03
571.11	297.25
571.27	262.14
571.43	210.65
571.60	255.12
571.76	332.36
571.92	297.25
572.09	285.55
572.25	285.55
572.41	264.48
572.57	208.31
572.74	299.59
572.90	334.70
573.06	266.82
573.22	257.46
573.38	318.31
573.55	269.16
573.71	320.65
573.87	294.91
574.03	257.46
574.20	306.61
574.36	320.65
574.52	416.62
574.68	461.09
574.84	353.42
575.01	360.44
575.17	315.97
575.33	299.59
575.49	292.57
575.65	269.16
575.82	365.12
575.98	709.18
576.14	875.36
576.30	985.37
576.46	741.95
576.62	662.37
576.79	599.18
576.95	437.68
577.11	339.38
577.27	395.55
577.43	365.12
577.59	348.74
577.75	397.89
577.92	313.63
578.08	315.97
578.24	330.02
578.40	308.95
578.56	430.66
578.72	500.87
578.88	475.13
579.04	407.25
579.21	393.21
579.37	416.62
579.53	395.55
579.69	285.55
579.85	421.30
580.01	543.00
580.17	538.32
580.33	491.51
580.49	411.93
580.65	440.02
580.82	444.70
580.98	423.64
581.14	369.80
581.30	402.57
581.46	594.50
581.62	746.63
581.78	823.87
581.94	758.33
582.10	573.43
582.26	594.50
582.42	514.92
582.58	601.52
582.74	573.43
582.90	521.94
583.06	636.63
583.22	624.92
583.38	631.94
583.54	685.78
583.70	774.72
583.86	983.02
584.02	1055.58
584.18	1217.08
584.34	1476.88
584.50	3922.74
584.66	28439.85
584.82	62150.59
584.98	65535.00
585.14	65535.00
585.30	62705.29
585.46	39618.25
585.62	25022.67
585.78	11564.59
585.94	4458.72
586.10	2101.80
586.26	1404.32
586.42	1144.52
586.58	912.81
586.74	873.02
586.90	802.80
587.06	809.83
587.22	786.42
587.38	770.04
587.54	1444.11
587.70	4447.02
587.86	7506.10
588.02	8910.42
588.18	6361.58
588.34	3719.11
588.49	2499.69
588.65	1511.99
588.81	950.26
588.97	636.63
589.13	393.21
589.29	440.02
589.45	376.83
589.61	402.57
589.77	500.87
589.93	528.96
590.08	592.16
590.24	526.62
590.40	575.77
590.56	540.66
590.72	543.00
590.88	498.53
591.04	491.51
591.20	425.98
591.35	533.64
591.51	461.09
591.67	411.93
591.83	402.57
591.99	367.46
592.15	386.19
592.31	397.89
592.46	386.19
592.62	465.77
592.78	425.98
592.94	381.51
593.10	465.77
593.26	411.93
593.41	545.34
593.57	451.72
593.73	681.10
593.89	3515.48
594.05	9357.46
594.20	14743.03
594.36	14319.40
594.52	9366.82
594.68	5715.59
594.84	3770.60
594.99	2165.00
595.15	952.60
595.31	533.64
595.47	484.49
595.62	383.85
595.78	348.74
595.94	360.44
596.10	433.00
596.25	414.27
596.41	477.47
596.57	388.53
596.73	395.55
596.88	638.97
597.04	1687.53
597.20	3002.91
597.36	3667.62
597.51	2733.75
597.67	1813.92
597.83	1259.21
597.99	880.04
598.14	559.39
598.30	486.83
598.46	360.44
598.61	514.92
598.77	451.72
598.93	379.17
599.09	315.97
599.24	376.83
599.40	362.78
599.56	346.40
599.71	344.06
599.87	290.23
600.03	322.99
600.18	341.72
600.34	407.25
600.50	330.02
600.65	334.70
600.81	341.72
600.97	311.29
601.12	264.48
601.28	318.31
601.44	299.59
601.59	234.05
601.75	311.29
601.91	327.68
602.06	374.49
602.22	491.51
602.37	816.85
602.53	2064.35
602.69	3634.85
602.84	3880.61
603.00	2885.88
603.16	2001.16
603.31	1308.36
603.47	854.30
603.62	505.56
603.78	433.00
603.94	386.19
604.09	287.89
604.25	372.15
604.40	355.76
604.56	381.51
604.71	320.65
604.87	365.12
605.03	262.14
605.18	430.66
605.34	381.51
605.49	369.80
605.65	388.53
605.80	400.23
605.96	351.08
606.12	337.04
606.27	444.70
606.43	444.70
606.58	484.49
606.74	1025.15
606.89	4056.15
607.05	9041.49
607.20	12781.67
607.36	10745.40
607.51	7143.32
607.67	4524.26
607.82	3201.85
607.98	1732.00
608.13	854.30
608.29	608.54
608.44	554.71
608.60	617.90
608.75	664.71
608.91	1474.54
609.06	6272.64
609.22	15477.96
609.37	22513.61
609.53	19695.61
609.68	12961.89
609.84	8269.11
609.99	5521.32
610.15	3023.97
610.30	1579.86
610.46	1032.18
610.61	973.66
610.76	1025.15
610.92	1062.60
611.07	1107.07
611.23	1025.15
611.38	1055.58
611.54	945.58
611.69	898.77
611.84	699.82
612.00	711.52
612.15	695.14
612.31	821.53
612.46	933.87
612.62	1146.86
612.77	1034.52
612.92	947.92
613.08	910.47
613.23	751.31
613.39	814.51
613.54	1184.31
613.69	5884.11
613.85	18518.32
614.00	31466.16
614.15	35028.46
614.31	24706.70
614.46	15644.14
614.62	10581.56
614.77	6457.54
614.92	2942.05
615.08	1462.83
615.23	870.68
615.38	734.93
615.54	657.69
615.69	1132.82
615.84	3513.14
616.00	6913.94
616.15	9177.24
616.30	7548.23
616.46	5193.65
616.61	3431.23
616.76	2275.00
616.92	1228.78
617.07	727.91
617.22	566.41
617.37	470.45
617.53	433.00
617.68	355.76
617.83	407.25
617.99	496.19
618.14	475.13
618.29	369.80
618.45	395.55
618.60	379.17
618.75	287.89
618.90	315.97
619.06	306.61
619.21	360.44
619.36	322.99
619.51	330.02
619.67	306.61
619.82	346.40
619.97	346.40
620.12	330.02
620.28	348.74
620.43	381.51
620.58	346.40
620.73	351.08
620.89	367.46
621.04	636.63
621.19	1844.34
621.34	3838.48
621.49	5235.78
621.65	4901.08
621.80	3309.52
621.95	2321.81
622.10	1621.99
622.25	952.60
622.41	538.32
622.56	409.59
622.71	358.10
622.86	386.19
623.01	440.02
623.16	341.72
623.32	311.29
623.47	360.44
623.62	308.95
623.77	290.23
623.92	330.02
624.07	358.10
624.23	299.59
624.38	362.78
624.53	297.25
624.68	362.78
624.83	381.51
624.98	280.86
625.13	376.83
625.29	325.33
625.44	372.15
625.59	400.23
625.74	500.87
625.89	690.46
626.04	2813.32
626.19	8954.89
626.34	15318.81
626.49	18073.62
626.65	13219.35
626.80	8774.67
626.95	5991.77
627.10	3576.34
627.25	1834.98
627.40	997.07
627.55	603.86
627.70	468.11
627.85	477.47
628.00	472.79
628.15	402.57
628.30	346.40
628.45	266.82
628.60	327.68
628.76	304.27
628.91	283.20
629.06	271.50
629.21	395.55
629.36	362.78
629.51	390.87
629.66	395.55
629.81	500.87
629.96	1650.08
630.11	3241.64
630.26	4479.79
630.41	4222.33
630.56	2913.97
630.71	2118.18
630.86	1530.71
631.01	922.17
631.16	610.88
631.31	449.38
631.46	416.62
631.61	318.31
631.76	355.76
631.91	355.76
632.06	290.23
632.21	421.30
632.36	418.96
632.51	402.57
632.66	638.97
632.81	1390.28
632.96	4896.40
633.10	9193.62
633.25	12112.27
633.40	9790.46
633.55	6911.60
633.70	4564.04
633.85	3110.57
634.00	1654.76
634.15	952.60
634.30	601.52
634.45	402.57
634.60	423.64
634.75	376.83
634.90	271.50
635.05	346.40
635.19	393.21
635.34	376.83
635.49	308.95
635.64	294.91
635.79	294.91
635.94	381.51
636.09	393.21
636.24	351.08
636.39	339.38
636.53	390.87
636.68	306.61
636.83	348.74
636.98	430.66
637.13	344.06
637.28	465.77
637.43	531.30
637.57	798.12
637.72	3857.20
637.87	11768.21
638.02	20018.60
638.17	23562.17
638.32	16460.99
638.46	11295.43
638.61	7508.44
638.76	4505.53
638.91	2387.35
639.06	1310.70
639.20	863.66
639.35	758.33
639.50	1111.75
639.65	5640.69
639.80	17984.68
639.94	30438.67
640.09	35145.48
640.24	25734.19
640.39	17067.19
640.54	11276.70
640.68	6785.21
640.83	3405.48
640.98	1572.84
641.13	816.85
641.27	620.24
641.42	468.11
641.57	418.96
641.72	365.12
641.86	311.29
642.01	418.96
642.16	358.10
642.31	320.65
642.45	308.95
642.60	365.12
642.75	308.95
642.90	297.25
643.04	257.46
643.19	280.86
643.34	287.89
643.48	292.57
643.63	283.20
643.78	308.95
643.93	301.93
644.07	341.72
644.22	245.76
644.37	271.50
644.51	234.05
644.66	257.46
644.81	269.16
644.95	222.35
645.10	191.92
645.25	304.27
645.39	341.72
645.54	292.57
645.69	334.70
645.83	278.52
645.98	355.76
646.13	255.12
646.27	332.36
646.42	229.37
646.57	308.95
646.71	220.01
646.86	252.78
647.00	259.80
647.15	269.16
647.30	285.55
647.44	238.73
647.59	262.14
647.74	227.03
647.88	322.99
648.03	273.84
648.17	313.63
648.32	283.20
648.47	245.76
648.61	212.99
648.76	257.46
648.90	250.44
649.05	318.31
649.20	220.01
649.34	334.70
649.49	271.50
649.63	367.46
649.78	304.27
649.92	477.47
650.07	2352.24
650.21	7648.87
650.36	13834.91
650.51	18370.86
650.65	15037.94
650.80	10462.19
650.94	6796.92
651.09	4170.83
651.23	2242.23
651.38	1121.12
651.52	594.50
651.67	421.30
651.81	402.57
651.96	369.80
652.10	376.83
652.25	341.72
652.39	325.33
652.54	383.85
652.68	791.10
652.83	2420.11
652.97	4615.54
653.12	6410.73
653.26	5738.99
653.41	4184.88
653.55	2775.88
653.70	1839.66
653.84	1125.80
653.99	641.31
654.13	400.23
654.27	337.04
654.42	299.59
654.56	308.95
654.71	322.99
654.85	236.39
655.00	245.76
655.14	325.33
655.29	290.23
655.43	262.14
655.57	238.73
655.72	252.78
655.86	198.95
656.01	285.55
656.15	269.16
656.30	212.99
656.44	318.31
656.58	217.67
656.73	248.10
656.87	210.65
657.01	271.50
657.16	252.78
657.30	222.35
657.45	250.44
657.59	351.08
657.73	276.18
657.88	269.16
658.02	304.27
658.16	229.37
658.31	234.05
658.45	245.76
658.60	234.05
658.74	266.82
658.88	194.26
659.03	266.82
659.17	306.61
659.31	1062.60
659.46	3501.44
659.60	6855.43
659.74	8931.48
659.89	8238.69
660.03	5834.96
660.17	4077.21
660.32	2520.76
660.46	1413.68
660.60	734.93
660.74	543.00
660.89	388.53
661.03	238.73
661.17	280.86
661.32	215.33
661.46	257.46
661.60	266.82
661.74	222.35
661.89	243.42
662.03	322.99
662.17	259.80
662.31	271.50
662.46	273.84
662.60	278.52
662.74	264.48
662.88	315.97
663.03	290.23
663.17	227.03
663.31	241.08
663.45	231.71
663.60	273.84
663.74	301.93
663.88	224.69
664.02	210.65
664.17	250.44
664.31	248.10
664.45	304.27
664.59	243.42
664.73	220.01
664.88	297.25
665.02	269.16
665.16	278.52
665.30	348.74
665.44	271.50
665.59	264.48
665.73	245.76
665.87	222.35
666.01	271.50
666.15	259.80
666.29	255.12
666.44	320.65
666.58	322.99
666.72	318.31
666.86	409.59
667.00	348.74
667.14	578.11
667.28	2099.46
667.43	6305.40
667.57	11716.72
667.71	16004.58
667.85	13638.30
667.99	9863.02
668.13	6377.96
668.27	3749.54
668.41	2172.02
668.56	1212.40
668.70	730.25
668.84	510.24
668.98	381.51
669.12	306.61
669.26	245.76
669.40	273.84
669.54	276.18
669.68	278.52
669.82	322.99
669.96	259.80
670.10	271.50
670.25	297.25
670.39	308.95
670.53	290.23
670.67	252.78
670.81	313.63
670.95	320.65
671.09	575.77
671.23	2375.64
671.37	5626.65
671.51	8755.94
671.65	9743.65
671.79	7765.90
671.93	5357.49
672.07	3145.68
672.21	1863.07
672.35	1071.97
672.49	648.33
672.63	482.15
672.77	332.36
672.91	248.10
673.05	266.82
673.19	198.95
673.33	208.31
673.47	315.97
673.61	280.86
673.75	201.29
673.89	285.55
674.03	241.08
674.17	224.69
674.31	297.25
674.45	210.65
674.59	266.82
674.73	222.35
674.87	205.97
675.01	285.55
675.15	325.33
675.29	334.70
675.43	365.12
675.56	259.80
675.70	269.16
675.84	266.82
675.98	203.63
676.12	184.90
676.26	243.42
676.40	201.29
676.54	229.37
676.68	264.48
676.82	252.78
676.96	191.92
677.10	182.56
677.23	173.20
677.37	147.45
677.51	259.80
677.65	315.97
677.79	196.60
677.93	210.65
678.07	245.76
678.21	182.56
678.34	212.99
678.48	257.46
678.62	217.67
678.76	149.79
678.90	210.65
679.04	269.16
679.18	196.60
679.31	166.18
679.45	241.08
679.59	187.24
679.73	184.90
679.87	191.92
680.00	173.20
680.14	210.65
680.28	217.67
680.42	215.33
680.56	222.35
680.70	210.65
680.83	210.65
680.97	187.24
681.11	250.44
681.25	203.63
681.39	191.92
681.52	170.86
681.66	203.63
681.80	241.08
681.94	182.56
682.07	229.37
682.21	198.95
682.35	177.88
682.49	177.88
682.62	212.99
682.76	212.99
682.90	156.82
683.04	220.01
683.17	236.39
683.31	241.08
683.45	236.39
683.59	227.03
683.72	198.95
683.86	238.73
684.00	257.46
684.13	177.88
684.27	250.44
684.41	152.13
684.55	227.03
684.68	175.54
684.82	170.86
684.96	203.63
685.09	145.11
685.23	166.18
685.37	201.29
685.50	210.65
685.64	196.60
685.78	257.46
685.91	217.67
686.05	236.39
686.19	227.03
686.32	180.22
686.46	238.73
686.60	205.97
686.73	285.55
686.87	280.86
687.01	292.57
687.14	184.90
687.28	210.65
687.42	201.29
687.55	252.78
687.69	255.12
687.82	107.66
687.96	170.86
688.10	189.58
688.23	191.92
688.37	250.44
688.50	229.37
688.64	278.52
688.78	112.35
688.91	149.79
689.05	238.73
689.18	114.69
689.32	203.63
689.46	173.20
689.59	194.26
689.73	191.92
689.86	138.09
690.00	161.50
690.13	231.71
690.27	154.48
690.41	114.69
690.54	147.45
690.68	252.78
690.81	250.44
690.95	215.33
691.08	208.31
691.22	161.50
691.35	166.18
691.49	166.18
691.62	128.73
691.76	119.37
691.89	173.20
692.03	262.14
692.16	262.14
692.30	285.55
692.43	800.46
692.57	2560.55
692.70	4997.04
692.84	6530.09
692.97	6347.53
693.11	4645.96
693.24	3480.38
693.38	2385.01
693.51	1600.93
693.65	1036.86
693.78	629.60
693.92	428.32
694.05	365.12
694.19	280.86
694.32	248.10
694.45	234.05
694.59	299.59
694.72	236.39
694.86	210.65
694.99	205.97
695.13	215.33
695.26	128.73
695.39	124.05
695.53	332.36
695.66	280.86
695.80	259.80
695.93	156.82
696.07	245.76
696.20	418.96
696.33	430.66
696.47	545.34
696.60	526.62
696.73	416.62
696.87	320.65
697.00	414.27
697.14	273.84
697.27	245.76
697.40	283.20
697.54	142.77
697.67	234.05
697.80	196.60
697.94	149.79
698.07	159.16
698.21	205.97
698.34	168.52
698.47	154.48
698.61	191.92
698.74	149.79
698.87	210.65
699.01	180.22
699.14	215.33
699.27	212.99
699.40	273.84
699.54	175.54
699.67	243.42
699.80	142.77
699.94	217.67
700.07	149.79
700.20	220.01
700.34	189.58
700.47	203.63
700.60	154.48
700.73	152.13
700.87	205.97
701.00	203.63
701.13	212.99
701.26	241.08
701.40	238.73
701.53	212.99
701.66	163.84
701.79	220.01
701.93	292.57
702.06	332.36
702.19	521.94
702.32	573.43
702.46	629.60
702.59	573.43
702.72	1093.03
702.85	3471.01
702.99	7695.68
703.12	11620.76
703.25	13537.66
703.38	11566.93
703.51	9135.11
703.65	7227.57
703.78	5015.77
703.91	3283.77
704.04	2125.21
704.17	1261.55
704.31	805.14
704.44	535.98
704.57	430.66
704.70	339.38
704.83	278.52
704.96	243.42
705.10	287.89
705.23	248.10
>>>>>End Processed Spectral Data<<<<<
