SpectraSuite Data File
++++++++++++++++++++++++++++++++++++
Date: Fri Oct 04 12:14:04 GMT-05:00 2013
User: price-jones
Dark Spectrum Present: No
Reference Spectrum Present: No
Number of Sampled Component Spectra: 1
Spectrometers: USB2+H05261
Integration Time (usec): 1000000 (USB2+H05261)
Spectra Averaged: 1 (USB2+H05261)
Boxcar Smoothing: 0 (USB2+H05261)
Correct for Electrical Dark: No (USB2+H05261)
Strobe/Lamp Enabled: No (USB2+H05261)
Correct for Detector Non-linearity: No (USB2+H05261)
Correct for Stray Light: No (USB2+H05261)
Number of Pixels in Processed Spectrum: 2048
>>>>>Begin Processed Spectral Data<<<<<
365.73	7.02
365.92	7.02
366.12	7.02
366.32	0.00
366.52	0.00
366.72	360.44
366.91	124.05
367.11	299.59
367.31	234.05
367.51	238.73
367.70	351.08
367.90	505.56
368.10	353.42
368.30	280.86
368.49	107.66
368.69	484.49
368.89	271.50
369.09	196.60
369.28	248.10
369.48	126.39
369.68	236.39
369.87	330.02
370.07	184.90
370.27	596.84
370.47	339.38
370.66	271.50
370.86	531.30
371.06	744.29
371.25	933.87
371.45	425.98
371.65	641.31
371.84	379.17
372.04	290.23
372.24	407.25
372.44	421.30
372.63	662.37
372.83	905.79
373.03	489.17
373.22	402.57
373.42	390.87
373.62	425.98
373.81	533.64
374.01	634.29
374.21	772.38
374.40	472.79
374.60	723.23
374.79	451.72
374.99	383.85
375.19	564.07
375.38	557.05
375.58	510.24
375.78	765.36
375.97	638.97
376.17	1043.88
376.37	423.64
376.56	575.77
376.76	362.78
376.95	411.93
377.15	603.86
377.35	547.69
377.54	535.98
377.74	428.32
377.93	430.66
378.13	564.07
378.33	739.61
378.52	444.70
378.72	770.04
378.91	692.80
379.11	376.83
379.31	423.64
379.50	344.06
379.70	667.05
379.89	704.50
380.09	404.91
380.28	395.55
380.48	550.03
380.68	404.91
380.87	308.95
381.07	533.64
381.26	777.06
381.46	592.16
381.65	552.37
381.85	400.23
382.04	355.76
382.24	575.77
382.43	484.49
382.63	383.85
382.83	402.57
383.02	617.90
383.22	730.25
383.41	355.76
383.61	447.04
383.80	414.27
384.00	528.96
384.19	400.23
384.39	526.62
384.58	449.38
384.78	561.73
384.97	592.16
385.17	454.06
385.36	465.77
385.56	653.01
385.75	269.16
385.95	447.04
386.14	671.73
386.34	402.57
386.53	540.66
386.72	421.30
386.92	737.27
387.11	559.39
387.31	674.07
387.50	379.17
387.70	358.10
387.89	552.37
388.09	414.27
388.28	397.89
388.48	379.17
388.67	636.63
388.86	521.94
389.06	505.56
389.25	608.54
389.45	500.87
389.64	479.81
389.84	763.01
390.03	538.32
390.22	554.71
390.42	486.83
390.61	421.30
390.81	353.42
391.00	430.66
391.19	690.46
391.39	491.51
391.58	641.31
391.78	528.96
391.97	589.82
392.16	283.20
392.36	763.01
392.55	732.59
392.75	503.22
392.94	437.68
393.13	662.37
393.33	322.99
393.52	390.87
393.71	793.44
393.91	505.56
394.10	402.57
394.29	512.58
394.49	451.72
394.68	566.41
394.88	812.17
395.07	807.48
395.26	477.47
395.46	468.11
395.65	678.76
395.84	643.65
396.04	1226.44
396.23	500.87
396.42	435.34
396.62	547.69
396.81	627.26
397.00	535.98
397.19	491.51
397.39	545.34
397.58	823.87
397.77	517.26
397.97	533.64
398.16	486.83
398.35	596.84
398.55	425.98
398.74	535.98
398.93	688.12
399.12	440.02
399.32	697.48
399.51	599.18
399.70	681.10
399.90	519.60
400.09	699.82
400.28	779.40
400.47	442.36
400.67	779.40
400.86	503.22
401.05	751.31
401.24	772.38
401.44	805.14
401.63	746.63
401.82	718.54
402.01	477.47
402.21	613.22
402.40	547.69
402.59	514.92
402.78	491.51
402.97	482.15
403.17	545.34
403.36	664.71
403.55	627.26
403.74	578.11
403.93	650.67
404.13	922.17
404.32	638.97
404.51	603.86
404.70	753.65
404.89	566.41
405.09	980.68
405.28	620.24
405.47	440.02
405.66	671.73
405.85	826.21
406.05	601.52
406.24	552.37
406.43	575.77
406.62	650.67
406.81	1100.05
407.00	739.61
407.20	669.39
407.39	571.09
407.58	610.88
407.77	706.84
407.96	812.17
408.15	800.46
408.34	741.95
408.54	718.54
408.73	660.03
408.92	601.52
409.11	725.57
409.30	854.30
409.49	519.60
409.68	641.31
409.87	603.86
410.07	491.51
410.26	610.88
410.45	554.71
410.64	430.66
410.83	664.71
411.02	587.47
411.21	786.42
411.40	725.57
411.59	648.33
411.78	550.03
411.98	599.18
412.17	533.64
412.36	669.39
412.55	526.62
412.74	798.12
412.93	1018.13
413.12	575.77
413.31	849.61
413.50	688.12
413.69	641.31
413.88	938.55
414.07	688.12
414.26	624.92
414.45	608.54
414.64	765.36
414.83	739.61
415.02	744.29
415.22	795.78
415.41	917.49
415.60	620.24
415.79	629.60
415.98	894.08
416.17	723.23
416.36	634.29
416.55	582.79
416.74	809.83
416.93	840.25
417.12	622.58
417.31	650.67
417.50	697.48
417.69	1060.26
417.88	772.38
418.07	622.58
418.26	620.24
418.45	671.73
418.64	1086.01
418.83	809.83
419.02	854.30
419.21	755.99
419.39	746.63
419.58	695.14
419.77	615.56
419.96	952.60
420.15	1076.65
420.34	634.29
420.53	767.70
420.72	926.85
420.91	744.29
421.10	704.50
421.29	678.76
421.48	763.01
421.67	940.90
421.86	671.73
422.05	755.99
422.24	662.37
422.43	748.97
422.61	564.07
422.80	702.16
422.99	697.48
423.18	671.73
423.37	924.51
423.56	772.38
423.75	854.30
423.94	512.58
424.13	741.95
424.32	631.94
424.50	746.63
424.69	720.88
424.88	1107.07
425.07	667.05
425.26	887.06
425.45	908.13
425.64	711.52
425.83	842.59
426.01	1034.52
426.20	739.61
426.39	737.27
426.58	697.48
426.77	751.31
426.96	908.13
427.15	840.25
427.33	734.93
427.52	685.78
427.71	648.33
427.90	746.63
428.09	711.52
428.28	580.45
428.46	678.76
428.65	842.59
428.84	952.60
429.03	1074.31
429.22	627.26
429.40	552.37
429.59	554.71
429.78	1060.26
429.97	641.31
430.16	613.22
430.34	669.39
430.53	538.32
430.72	725.57
430.91	833.23
431.10	643.65
431.28	627.26
431.47	849.61
431.66	828.55
431.85	587.47
432.03	755.99
432.22	1233.46
432.41	744.29
432.60	1041.54
432.79	702.16
432.97	835.57
433.16	873.02
433.35	678.76
433.54	807.48
433.72	844.93
433.91	873.02
434.10	674.07
434.28	786.42
434.47	634.29
434.66	912.81
434.85	662.37
435.03	725.57
435.22	1156.22
435.41	1165.59
435.59	924.51
435.78	903.45
435.97	645.99
436.16	896.43
436.34	681.10
436.53	837.91
436.72	973.66
436.90	987.71
437.09	809.83
437.28	746.63
437.46	671.73
437.65	880.04
437.84	837.91
438.02	873.02
438.21	922.17
438.40	774.72
438.58	624.92
438.77	851.96
438.96	739.61
439.14	755.99
439.33	908.13
439.52	730.25
439.70	830.89
439.89	971.32
440.08	894.08
440.26	807.48
440.45	1177.29
440.63	912.81
440.82	882.38
441.01	823.87
441.19	699.82
441.38	788.76
441.57	828.55
441.75	1121.12
441.94	1076.65
442.12	781.74
442.31	786.42
442.50	858.98
442.68	758.33
442.87	784.08
443.05	716.20
443.24	964.30
443.43	1069.62
443.61	1165.59
443.80	877.70
443.98	730.25
444.17	786.42
444.35	980.68
444.54	816.85
444.73	816.85
444.91	1086.01
445.10	716.20
445.28	765.36
445.47	795.78
445.65	800.46
445.84	765.36
446.02	863.66
446.21	723.23
446.39	788.76
446.58	847.27
446.77	793.44
446.95	821.53
447.14	910.47
447.32	1214.74
447.51	816.85
447.69	947.92
447.88	877.70
448.06	1172.61
448.25	978.34
448.43	723.23
448.62	589.82
448.80	1011.11
448.99	1032.18
449.17	781.74
449.36	720.88
449.54	1078.99
449.73	788.76
449.91	1008.77
450.10	823.87
450.28	1446.45
450.46	1406.66
450.65	1090.69
450.83	997.07
451.02	908.13
451.20	926.85
451.39	936.21
451.57	830.89
451.76	847.27
451.94	854.30
452.13	1027.50
452.31	1123.46
452.49	987.71
452.68	767.70
452.86	931.53
453.05	1247.51
453.23	903.45
453.42	765.36
453.60	830.89
453.78	1020.47
453.97	807.48
454.15	727.91
454.34	802.80
454.52	753.65
454.70	1107.07
454.89	1050.90
455.07	791.10
455.26	926.85
455.44	1020.47
455.62	877.70
455.81	1039.20
455.99	1071.97
456.17	1022.81
456.36	889.40
456.54	943.24
456.73	875.36
456.91	880.04
457.09	1013.45
457.28	1177.29
457.46	985.37
457.64	1076.65
457.83	903.45
458.01	793.44
458.19	1015.79
458.38	821.53
458.56	992.39
458.74	772.38
458.93	1029.84
459.11	999.41
459.29	786.42
459.48	1144.52
459.66	1296.66
459.84	1074.31
460.03	1640.72
460.21	1167.93
460.39	863.66
460.57	1240.48
460.76	959.62
460.94	983.02
461.12	1228.78
461.31	1308.36
461.49	894.08
461.67	861.32
461.85	1020.47
462.04	929.19
462.22	5867.72
462.40	1200.69
462.59	1198.35
462.77	903.45
462.95	985.37
463.13	807.48
463.32	1109.41
463.50	978.34
463.68	1107.07
463.86	985.37
464.05	849.61
464.23	1153.88
464.41	1081.33
464.59	936.21
464.78	851.96
464.96	844.93
465.14	997.07
465.32	823.87
465.50	952.60
465.69	1062.60
465.87	819.19
466.05	1006.43
466.23	755.99
466.41	858.98
466.60	903.45
466.78	968.98
466.96	1179.63
467.14	997.07
467.32	1224.10
467.51	1078.99
467.69	1086.01
467.87	1320.06
468.05	1013.45
468.23	1315.38
468.41	1097.71
468.60	926.85
468.78	985.37
468.96	1205.38
469.14	1118.78
469.32	807.48
469.50	877.70
469.69	1125.80
469.87	994.73
470.05	1025.15
470.23	997.07
470.41	819.19
470.59	866.00
470.77	978.34
470.95	997.07
471.14	1177.29
471.32	938.55
471.50	1270.91
471.68	1081.33
471.86	1029.84
472.04	922.17
472.22	1041.54
472.40	758.33
472.58	795.78
472.77	793.44
472.95	938.55
473.13	1380.92
473.31	1247.51
473.49	763.01
473.67	730.25
473.85	1102.39
474.03	1116.44
474.21	1046.22
474.39	1277.93
474.57	1273.25
474.75	1071.97
474.93	1011.11
475.12	798.12
475.30	983.02
475.48	1025.15
475.66	1011.11
475.84	1034.52
476.02	947.92
476.20	1186.65
476.38	987.71
476.56	1589.22
476.74	1069.62
476.92	985.37
477.10	961.96
477.28	1158.57
477.46	1090.69
477.64	1207.72
477.82	1093.03
478.00	959.62
478.18	1135.16
478.36	1057.92
478.54	983.02
478.72	987.71
478.90	1053.24
479.08	1188.99
479.26	1114.10
479.44	994.73
479.62	1043.88
479.80	994.73
479.98	973.66
480.16	1053.24
480.34	1207.72
480.52	999.41
480.70	1186.65
480.88	983.02
481.06	985.37
481.24	959.62
481.41	1057.92
481.59	1149.20
481.77	1196.01
481.95	1027.50
482.13	1451.13
482.31	1107.07
482.49	1039.20
482.67	1207.72
482.85	1308.36
483.03	1249.85
483.21	1104.73
483.39	1088.35
483.57	1203.04
483.74	1453.47
483.92	999.41
484.10	997.07
484.28	1359.85
484.46	1621.99
484.64	1088.35
484.82	1181.97
485.00	1102.39
485.18	1254.53
485.35	1186.65
485.53	884.72
485.71	1329.42
485.89	880.04
486.07	1025.15
486.25	1624.33
486.43	1280.27
486.61	1284.95
486.78	1205.38
486.96	1053.24
487.14	1149.20
487.32	1086.01
487.50	1186.65
487.68	1434.75
487.85	1060.26
488.03	1261.55
488.21	1483.90
488.39	1280.27
488.57	1418.36
488.75	1151.54
488.92	4032.74
489.10	1404.32
489.28	1650.08
489.46	1284.95
489.64	1364.53
489.81	1299.00
489.99	1355.17
490.17	1240.48
490.35	1886.47
490.53	1245.16
490.70	1149.20
490.88	1504.96
491.06	1224.10
491.24	1383.26
491.41	1575.18
491.59	1411.34
491.77	1214.74
491.95	1146.86
492.13	1242.82
492.30	1313.04
492.48	1327.08
492.66	1327.08
492.84	1177.29
493.01	1401.98
493.19	1191.33
493.37	1727.32
493.54	1401.98
493.72	1554.12
493.90	1289.64
494.08	1357.51
494.25	1572.84
494.43	1451.13
494.61	1385.60
494.79	1301.34
494.96	1301.34
495.14	1500.28
495.32	1509.65
495.49	1481.56
495.67	1383.26
495.85	1289.64
496.02	1359.85
496.20	1514.33
496.38	1519.01
496.55	1486.24
496.73	1554.12
496.91	1380.92
497.09	1678.16
497.26	1547.09
497.44	1458.15
497.62	1423.05
497.79	1409.00
497.97	1516.67
498.14	1575.18
498.32	1626.67
498.50	1514.33
498.67	1378.58
498.85	1551.78
499.03	1364.53
499.20	1474.54
499.38	1465.18
499.56	1488.58
499.73	1902.86
499.91	1673.48
500.08	1589.22
500.26	1509.65
500.44	1383.26
500.61	1507.30
500.79	1362.19
500.97	1547.09
501.14	1774.13
501.32	1521.35
501.49	1732.00
501.67	1441.77
501.84	1495.60
502.02	1289.64
502.20	1809.23
502.37	1593.90
502.55	1434.75
502.72	1500.28
502.90	1586.88
503.07	1509.65
503.25	1563.48
503.43	1324.74
503.60	1380.92
503.78	1565.82
503.95	1390.28
504.13	1390.28
504.30	1682.85
504.48	1645.40
504.65	1823.28
504.83	1753.06
505.01	1474.54
505.18	1596.25
505.36	1462.83
505.53	1467.52
505.71	1507.30
505.88	1750.72
506.06	1514.33
506.23	1451.13
506.41	1434.75
506.58	1589.22
506.76	1544.75
506.93	1530.71
507.11	1647.74
507.28	1341.13
507.46	1507.30
507.63	1577.52
507.81	1387.94
507.98	1455.81
508.16	1549.43
508.33	1668.80
508.50	1643.06
508.68	1614.97
508.85	1680.50
509.03	1486.24
509.20	1502.62
509.38	1654.76
509.55	1785.83
509.73	1687.53
509.90	1792.85
510.08	1364.53
510.25	1624.33
510.42	1479.22
510.60	1497.94
510.77	1657.10
510.95	1813.92
511.12	1584.54
511.30	1685.19
511.47	1778.81
511.64	2005.84
511.82	1533.05
511.99	1586.88
512.17	1493.26
512.34	1460.49
512.51	1486.24
512.69	1481.56
512.86	1844.34
513.04	1462.83
513.21	1645.40
513.38	1458.15
513.56	1465.18
513.73	1530.71
513.90	1364.53
514.08	1488.58
514.25	1671.14
514.43	1739.02
514.60	1439.43
514.77	1530.71
514.95	1603.27
515.12	1547.09
515.29	1621.99
515.47	1610.29
515.64	1687.53
515.81	1598.59
515.99	1984.77
516.16	1685.19
516.33	1706.25
516.51	1320.06
516.68	1259.21
516.85	1406.66
517.03	1355.17
517.20	1652.42
517.37	1617.31
517.54	1666.46
517.72	1540.07
517.89	1341.13
518.06	1336.45
518.24	1905.20
518.41	2057.33
518.58	1729.66
518.75	1561.14
518.93	1591.56
519.10	1631.35
519.27	1600.93
519.45	1687.53
519.62	1619.65
519.79	1598.59
519.96	1385.60
520.14	1643.06
520.31	1895.83
520.48	1502.62
520.65	1734.34
520.83	1818.60
521.00	1722.63
521.17	1647.74
521.34	1521.35
521.52	1732.00
521.69	1675.82
521.86	1643.06
522.03	1790.51
522.20	1947.33
522.38	1519.01
522.55	1631.35
522.72	1441.77
522.89	1746.04
523.07	2045.63
523.24	1666.46
523.41	1533.05
523.58	1535.39
523.75	1643.06
523.92	1563.48
524.10	1614.97
524.27	1629.01
524.44	1493.26
524.61	1891.15
524.78	1591.56
524.96	1781.15
525.13	1687.53
525.30	1982.43
525.47	1895.83
525.64	1617.31
525.81	1643.06
525.98	1614.97
526.16	1526.03
526.33	1373.89
526.50	1385.60
526.67	1411.34
526.84	1338.79
527.01	1451.13
527.18	1631.35
527.36	1673.48
527.53	1423.05
527.70	1895.83
527.87	1666.46
528.04	2045.63
528.21	1507.30
528.38	1928.60
528.55	2003.50
528.72	2043.29
528.89	2038.61
529.07	1727.32
529.24	1647.74
529.41	2045.63
529.58	1755.40
529.75	1638.38
529.92	1860.73
530.09	1774.13
530.26	1834.98
530.43	1853.70
530.60	1631.35
530.77	1729.66
530.94	1877.11
531.11	1760.08
531.28	1619.65
531.46	1659.44
531.63	1689.87
531.80	1732.00
531.97	1757.74
532.14	1724.97
532.31	1652.42
532.48	1825.62
532.65	1851.36
532.82	1696.89
532.99	1865.41
533.16	1778.81
533.33	1769.44
533.50	1790.51
533.67	1652.42
533.84	2033.93
534.01	2017.54
534.18	1839.66
534.35	1755.40
534.52	1783.49
534.69	2195.42
534.86	1706.25
535.03	1619.65
535.20	1680.50
535.37	1940.30
535.54	1856.04
535.71	1689.87
535.88	1991.80
536.05	1661.78
536.22	1844.34
536.38	1703.91
536.55	1668.80
536.72	1776.47
536.89	1519.01
537.06	1610.29
537.23	1575.18
537.40	1629.01
537.57	1626.67
537.74	1825.62
537.91	1774.13
538.08	1600.93
538.25	1799.87
538.42	1598.59
538.59	1563.48
538.75	1612.63
538.92	1710.93
539.09	1863.07
539.26	1678.16
539.43	2214.15
539.60	2942.05
539.77	3749.54
539.94	3438.25
540.11	2764.17
540.28	2590.97
540.44	2136.91
540.61	1699.23
540.78	1619.65
540.95	1530.71
541.12	1937.96
541.29	1577.52
541.46	2024.56
541.62	1694.55
541.79	1650.08
541.96	1493.26
542.13	1626.67
542.30	1547.09
542.47	1795.19
542.63	1631.35
542.80	1797.53
542.97	1970.73
543.14	1621.99
543.31	1757.74
543.48	1624.33
543.64	1720.29
543.81	1643.06
543.98	1481.56
544.15	1467.52
544.32	1551.78
544.48	1598.59
544.65	1572.84
544.82	1507.30
544.99	1678.16
545.16	1867.75
545.32	1504.96
545.49	1717.95
545.66	1706.25
545.83	1493.26
546.00	1493.26
546.16	1500.28
546.33	1521.35
546.50	1549.43
546.67	1900.52
546.83	1923.92
547.00	1689.87
547.17	1476.88
547.34	1528.37
547.50	1603.27
547.67	1687.53
547.84	1549.43
548.00	1778.81
548.17	1570.50
548.34	1563.48
548.51	1851.36
548.67	1914.56
548.84	1607.95
549.01	1612.63
549.18	1724.97
549.34	1781.15
549.51	1636.03
549.68	1713.27
549.84	1724.97
550.01	1509.65
550.18	2495.01
550.34	2305.43
550.51	1699.23
550.68	2076.06
550.84	1565.82
551.01	1612.63
551.18	1790.51
551.34	1661.78
551.51	1565.82
551.68	1610.29
551.84	1820.94
552.01	1605.61
552.18	1558.80
552.34	1575.18
552.51	1631.35
552.68	1724.97
552.84	1565.82
553.01	1689.87
553.18	1846.68
553.34	1430.07
553.51	1446.45
553.67	1729.66
553.84	2012.86
554.01	1769.44
554.17	1769.44
554.34	1509.65
554.51	1769.44
554.67	1865.41
554.84	1736.68
555.00	1603.27
555.17	1657.10
555.33	1792.85
555.50	1603.27
555.67	1703.91
555.83	1495.60
556.00	1722.63
556.16	3166.74
556.33	1675.82
556.50	1629.01
556.66	1502.62
556.83	1605.61
556.99	1514.33
557.16	1610.29
557.32	1528.37
557.49	1528.37
557.65	1472.20
557.82	1526.03
557.98	1626.67
558.15	1451.13
558.32	1598.59
558.48	1404.32
558.65	1500.28
558.81	1706.25
558.98	1462.83
559.14	1645.40
559.31	1614.97
559.47	1650.08
559.64	1448.79
559.80	1809.23
559.97	1427.73
560.13	1685.19
560.30	1432.41
560.46	1565.82
560.63	1584.54
560.79	1593.90
560.96	1643.06
561.12	1593.90
561.29	1591.56
561.45	1568.16
561.61	1596.25
561.78	2326.49
561.94	1540.07
562.11	1582.20
562.27	1591.56
562.44	1439.43
562.60	1664.12
562.77	1530.71
562.93	2125.21
563.10	1668.80
563.26	1535.39
563.42	1820.94
563.59	1675.82
563.75	1427.73
563.92	1872.43
564.08	1561.14
564.24	1799.87
564.41	2043.29
564.57	1385.60
564.74	1469.86
564.90	1832.64
565.07	1685.19
565.23	1708.59
565.39	1486.24
565.56	1596.25
565.72	1514.33
565.88	1488.58
566.05	1413.68
566.21	1432.41
566.38	1652.42
566.54	1607.95
566.70	1530.71
566.87	1519.01
567.03	1324.74
567.19	1469.86
567.36	1706.25
567.52	1561.14
567.68	1610.29
567.85	1614.97
568.01	1397.30
568.17	1380.92
568.34	1542.41
568.50	1715.61
568.66	1294.32
568.83	2111.16
568.99	1434.75
569.15	1785.83
569.32	1490.92
569.48	1390.28
569.64	1345.81
569.81	1472.20
569.97	1315.38
570.13	1717.95
570.30	1462.83
570.46	1455.81
570.62	1425.39
570.78	1481.56
570.95	1282.61
571.11	1776.47
571.27	1851.36
571.43	1376.24
571.60	1682.85
571.76	1467.52
571.92	1558.80
572.09	1458.15
572.25	1500.28
572.41	1497.94
572.57	1535.39
572.74	1874.77
572.90	1643.06
573.06	1575.18
573.22	1689.87
573.38	1827.96
573.55	1739.02
573.71	1743.70
573.87	1551.78
574.03	1308.36
574.20	1481.56
574.36	1792.85
574.52	1509.65
574.68	1598.59
574.84	1701.57
575.01	1486.24
575.17	1645.40
575.33	1423.05
575.49	1703.91
575.65	1802.21
575.82	1767.10
575.98	2413.09
576.14	2289.04
576.30	2083.08
576.46	1949.67
576.62	1706.25
576.79	1746.04
576.95	1886.47
577.11	1514.33
577.27	1303.68
577.43	1743.70
577.59	1856.04
577.75	1593.90
577.92	1528.37
578.08	1425.39
578.24	1299.00
578.40	1771.79
578.56	1788.17
578.72	1818.60
578.88	1788.17
579.04	1458.15
579.21	1570.50
579.37	1614.97
579.53	1561.14
579.69	1746.04
579.85	1551.78
580.01	1755.40
580.17	1633.69
580.33	1629.01
580.49	1673.48
580.65	1736.68
580.82	1551.78
580.98	1474.54
581.14	1572.84
581.30	1944.99
581.46	1816.26
581.62	2097.12
581.78	2022.22
581.94	2111.16
582.10	1727.32
582.26	1762.42
582.42	1727.32
582.58	1923.92
582.74	1671.14
582.90	1818.60
583.06	1879.45
583.22	1790.51
583.38	1760.08
583.54	1825.62
583.70	2289.04
583.86	2165.00
584.02	2298.41
584.18	2808.64
584.34	2946.73
584.50	6473.92
584.66	41244.92
584.82	65535.00
584.98	65535.00
585.14	65535.00
585.30	63786.62
585.46	42857.55
585.62	27002.76
585.78	12851.88
585.94	5928.58
586.10	3332.92
586.26	2757.15
586.42	2722.04
586.58	2242.23
586.74	2033.93
586.90	2010.52
587.06	2047.97
587.22	1966.05
587.38	1724.97
587.54	2991.20
587.70	7033.31
587.86	10277.29
588.02	10263.25
588.18	7765.90
588.34	5416.00
588.49	3588.04
588.65	2490.33
588.81	1846.68
588.97	1341.13
589.13	1380.92
589.29	1472.20
589.45	1645.40
589.61	1434.75
589.77	1802.21
589.93	1638.38
590.08	1624.33
590.24	1598.59
590.40	1706.25
590.56	1692.21
590.72	1502.62
590.88	1362.19
591.04	1554.12
591.20	1409.00
591.35	1746.04
591.51	1385.60
591.67	1336.45
591.83	1277.93
591.99	1540.07
592.15	1537.73
592.31	1575.18
592.46	1472.20
592.62	1586.88
592.78	1324.74
592.94	1376.24
593.10	1387.94
593.26	1352.83
593.41	1575.18
593.57	1643.06
593.73	1860.73
593.89	6104.12
594.05	13439.36
594.20	18305.33
594.36	16358.00
594.52	10801.57
594.68	7248.64
594.84	5423.02
594.99	3641.87
595.15	2132.23
595.31	1774.13
595.47	1853.70
595.62	1397.30
595.78	1437.09
595.94	1523.69
596.10	1830.30
596.25	1577.52
596.41	1706.25
596.57	1437.09
596.73	1380.92
596.88	1853.70
597.04	3389.10
597.20	4503.19
597.36	5015.77
597.51	3918.06
597.67	2988.86
597.83	2338.20
597.99	2237.55
598.14	1722.63
598.30	1823.28
598.46	1483.90
598.61	1708.59
598.77	1502.62
598.93	1397.30
599.09	1299.00
599.24	1537.73
599.40	1645.40
599.56	1401.98
599.71	1434.75
599.87	1364.53
600.03	1439.43
600.18	1409.00
600.34	1413.68
600.50	1289.64
600.65	1254.53
600.81	1624.33
600.97	1350.49
601.12	1306.02
601.28	1643.06
601.44	1437.09
601.59	1207.72
601.75	1465.18
601.91	1343.47
602.06	1565.82
602.22	2221.17
602.37	2321.81
602.53	3974.23
602.69	5399.62
602.84	5025.13
603.00	4201.26
603.16	3183.13
603.31	2745.45
603.47	2172.02
603.62	1469.86
603.78	1502.62
603.94	1563.48
604.09	1481.56
604.25	1621.99
604.40	1619.65
604.56	1413.68
604.71	1554.12
604.87	1371.55
605.03	1448.79
605.18	1511.99
605.34	1774.13
605.49	1479.22
605.65	1397.30
605.80	1336.45
605.96	1486.24
606.12	1659.44
606.27	1584.54
606.43	1479.22
606.58	1767.10
606.74	2492.67
606.89	6806.28
607.05	12556.97
607.20	14759.42
607.36	12166.10
607.51	8538.27
607.67	6012.84
607.82	4613.20
607.98	3288.45
608.13	2134.57
608.29	1750.72
608.44	1809.23
608.60	1671.14
608.75	1933.28
608.91	3096.53
609.06	10492.62
609.22	21167.80
609.37	26092.29
609.53	21570.38
609.68	14792.19
609.84	9785.78
609.99	6740.74
610.15	4250.41
610.30	2649.49
610.46	2125.21
610.61	1685.19
610.76	1575.18
610.92	1713.27
611.07	1369.21
611.23	2069.03
611.38	1636.03
611.54	1345.81
611.69	1329.42
611.84	1291.98
612.00	1380.92
612.15	1336.45
612.31	1589.22
612.46	1867.75
612.62	1844.34
612.77	2165.00
612.92	2024.56
613.08	2052.65
613.23	1865.41
613.39	1767.10
613.54	2195.42
613.69	9612.58
613.85	25755.26
614.00	38684.37
614.15	40023.16
614.31	27779.82
614.46	18876.42
614.62	13195.94
614.77	8624.87
614.92	4128.70
615.08	2532.46
615.23	1877.11
615.38	1722.63
615.54	1610.29
615.69	2394.37
615.84	5423.02
616.00	9528.32
616.15	10944.34
616.30	9123.41
616.46	6438.81
616.61	4423.61
616.76	3538.89
616.92	2424.80
617.07	1685.19
617.22	1537.73
617.37	1376.24
617.53	1565.82
617.68	1231.12
617.83	1352.83
617.99	1713.27
618.14	1863.07
618.29	1633.69
618.45	1313.04
618.60	1296.66
618.75	1172.61
618.90	1217.08
619.06	1327.08
619.21	1666.46
619.36	1516.67
619.51	1252.19
619.67	1226.44
619.82	1217.08
619.97	1308.36
620.12	1369.21
620.28	1390.28
620.43	1327.08
620.58	1416.02
620.73	1467.52
620.89	1324.74
621.04	1778.81
621.19	3857.20
621.34	5647.71
621.49	6970.12
621.65	6179.01
621.80	4428.29
621.95	3325.90
622.10	2771.19
622.25	1746.04
622.41	1371.55
622.56	1362.19
622.71	1294.32
622.86	1497.94
623.01	1177.29
623.16	1647.74
623.32	1160.91
623.47	1397.30
623.62	1163.25
623.77	1130.48
623.92	1247.51
624.07	1188.99
624.23	1153.88
624.38	1097.71
624.53	1142.18
624.68	1406.66
624.83	1516.67
624.98	1263.89
625.13	1240.48
625.29	1069.62
625.44	1303.68
625.59	1291.98
625.74	1519.01
625.89	1870.09
626.04	5095.35
626.19	13099.98
626.34	19854.76
626.49	21064.82
626.65	14927.94
626.80	10649.44
626.95	7709.72
627.10	4777.03
627.25	2909.29
627.40	1722.63
627.55	1547.09
627.70	1231.12
627.85	1364.53
628.00	1203.04
628.15	1057.92
628.30	1184.31
628.45	1074.31
628.60	1158.57
628.76	1231.12
628.91	1043.88
629.06	1207.72
629.21	1167.93
629.36	1437.09
629.51	1093.03
629.66	1385.60
629.81	1514.33
629.96	3204.19
630.11	5296.63
630.26	6022.20
630.41	5282.59
630.56	4063.17
630.71	2935.03
630.86	2380.32
631.01	1802.21
631.16	1458.15
631.31	1694.55
631.46	1544.75
631.61	1270.91
631.76	1256.87
631.91	1163.25
632.06	1387.94
632.21	1315.38
632.36	1331.76
632.51	1139.84
632.66	1446.45
632.81	2754.81
632.96	7812.71
633.10	12603.78
633.25	15005.17
633.40	11702.68
633.55	8524.23
633.70	5956.66
633.85	4217.65
634.00	2413.09
634.15	1589.22
634.30	1502.62
634.45	1275.59
634.60	1217.08
634.75	1160.91
634.90	1090.69
635.05	1196.01
635.19	1261.55
635.34	1238.14
635.49	1322.40
635.64	1116.44
635.79	1160.91
635.94	1320.06
636.09	1336.45
636.24	1249.85
636.39	1282.61
636.53	1387.94
636.68	1172.61
636.83	1280.27
636.98	1530.71
637.13	1160.91
637.28	1437.09
637.43	1753.06
637.57	2064.35
637.72	7002.88
637.87	17472.10
638.02	25039.05
638.17	26696.15
638.32	19672.20
638.46	13310.63
638.61	9933.23
638.76	5951.98
638.91	3377.39
639.06	2104.14
639.20	2113.50
639.35	1879.45
639.50	2338.20
639.65	9989.41
639.80	27318.73
639.94	40254.87
640.09	42637.54
640.24	30995.71
640.39	21261.43
640.54	14101.73
640.68	8603.81
640.83	4702.14
640.98	2438.84
641.13	1699.23
641.27	1373.89
641.42	1357.51
641.57	1533.05
641.72	1172.61
641.86	1266.23
642.01	1163.25
642.16	1289.64
642.31	1196.01
642.45	1631.35
642.60	1488.58
642.75	1060.26
642.90	1322.40
643.04	987.71
643.19	1004.09
643.34	1118.78
643.48	1193.67
643.63	1069.62
643.78	1423.05
643.93	1446.45
644.07	1158.57
644.22	1104.73
644.37	919.83
644.51	1287.29
644.66	1172.61
644.81	1029.84
644.95	1439.43
645.10	978.34
645.25	987.71
645.39	1291.98
645.54	1034.52
645.69	1469.86
645.83	898.77
645.98	1519.01
646.13	945.58
646.27	1156.22
646.42	842.59
646.57	938.55
646.71	985.37
646.86	945.58
647.00	1050.90
647.15	1247.51
647.30	889.40
647.44	999.41
647.59	940.90
647.74	823.87
647.88	1027.50
648.03	784.08
648.17	1212.40
648.32	835.57
648.47	1095.37
648.61	964.30
648.76	868.34
648.90	983.02
649.05	957.28
649.20	863.66
649.34	854.30
649.49	908.13
649.63	1064.94
649.78	1062.60
649.92	1287.29
650.07	4102.96
650.21	11616.08
650.36	19442.83
650.51	21537.61
650.65	17757.64
650.80	12659.96
650.94	8606.15
651.09	5603.24
651.23	3129.30
651.38	1818.60
651.52	1301.34
651.67	1196.01
651.81	1231.12
651.96	1430.07
652.10	1247.51
652.25	1226.44
652.39	1235.80
652.54	1144.52
652.68	1755.40
652.83	4325.31
652.97	6888.20
653.12	8091.23
653.26	6895.22
653.41	5394.93
653.55	4077.21
653.70	2677.57
653.84	1888.81
653.99	1338.79
654.13	1029.84
654.27	1004.09
654.42	873.02
654.56	952.60
654.71	1224.10
654.85	844.93
655.00	854.30
655.14	910.47
655.29	777.06
655.43	1050.90
655.57	999.41
655.72	774.72
655.86	997.07
656.01	866.00
656.15	826.21
656.30	1240.48
656.44	751.31
656.58	781.74
656.73	884.72
656.87	753.65
657.01	823.87
657.16	1313.04
657.30	1046.22
657.45	1313.04
657.59	1004.09
657.73	833.23
657.88	992.39
658.02	1647.74
658.16	950.26
658.31	947.92
658.45	894.08
658.60	784.08
658.74	1025.15
658.88	947.92
659.03	1013.45
659.17	957.28
659.31	2129.89
659.46	5757.72
659.60	9310.65
659.74	11054.35
659.89	9465.13
660.03	7089.48
660.17	5427.70
660.32	3508.46
660.46	2277.34
660.60	1624.33
660.74	1378.58
660.89	1184.31
661.03	961.96
661.17	877.70
661.32	990.05
661.46	954.94
661.60	784.08
661.74	1034.52
661.89	1153.88
662.03	1095.37
662.17	901.11
662.31	997.07
662.46	1076.65
662.60	938.55
662.74	919.83
662.88	1095.37
663.03	961.96
663.17	725.57
663.31	950.26
663.45	968.98
663.60	877.70
663.74	807.48
663.88	741.95
664.02	985.37
664.17	877.70
664.31	812.17
664.45	1034.52
664.59	915.15
664.73	947.92
664.88	1144.52
665.02	854.30
665.16	896.43
665.30	1301.34
665.44	1013.45
665.59	1177.29
665.73	1074.31
665.87	980.68
666.01	971.32
666.15	901.11
666.29	814.51
666.44	1280.27
666.58	1479.22
666.72	887.06
666.86	971.32
667.00	1329.42
667.14	1324.74
667.28	3735.50
667.43	9977.70
667.57	16123.95
667.71	18703.22
667.85	15878.19
667.99	11943.75
668.13	7695.68
668.27	4809.80
668.41	3150.36
668.56	1935.62
668.70	1750.72
668.84	1226.44
668.98	1247.51
669.12	877.70
669.26	1093.03
669.40	1570.50
669.54	1069.62
669.68	1245.16
669.82	826.21
669.96	1032.18
670.10	945.58
670.25	1153.88
670.39	1013.45
670.53	868.34
670.67	1146.86
670.81	837.91
670.95	1013.45
671.09	1423.05
671.23	4365.10
671.37	8549.98
671.51	11459.26
671.65	11913.33
671.79	9050.85
671.93	6558.18
672.07	4603.83
672.21	2773.53
672.35	1748.38
672.49	1277.93
672.63	1371.55
672.77	1109.41
672.91	997.07
673.05	945.58
673.19	917.49
673.33	760.67
673.47	1350.49
673.61	947.92
673.75	809.83
673.89	702.16
674.03	978.34
674.17	919.83
674.31	968.98
674.45	1015.79
674.59	922.17
674.73	912.81
674.87	994.73
675.01	1167.93
675.15	950.26
675.29	1287.29
675.43	1165.59
675.56	1299.00
675.70	1245.16
675.84	861.32
675.98	978.34
676.12	627.26
676.26	802.80
676.40	664.71
676.54	753.65
676.68	767.70
676.82	1020.47
676.96	706.84
677.10	842.59
677.23	744.29
677.37	636.63
677.51	770.04
677.65	1423.05
677.79	777.06
677.93	751.31
678.07	753.65
678.21	617.90
678.34	784.08
678.48	692.80
678.62	954.94
678.76	613.22
678.90	800.46
679.04	798.12
679.18	690.46
679.31	641.31
679.45	655.35
679.59	870.68
679.73	779.40
679.87	521.94
680.00	901.11
680.14	884.72
680.28	898.77
680.42	767.70
680.56	863.66
680.70	741.95
680.83	873.02
680.97	629.60
681.11	613.22
681.25	915.15
681.39	650.67
681.52	800.46
681.66	868.34
681.80	954.94
681.94	643.65
682.07	732.59
682.21	947.92
682.35	664.71
682.49	648.33
682.62	980.68
682.76	601.52
682.90	676.41
683.04	931.53
683.17	912.81
683.31	681.10
683.45	882.38
683.59	1011.11
683.72	1015.79
683.86	844.93
684.00	674.07
684.13	938.55
684.27	866.00
684.41	788.76
684.55	777.06
684.68	688.12
684.82	706.84
684.96	669.39
685.09	786.42
685.23	638.97
685.37	660.03
685.50	929.19
685.64	1008.77
685.78	636.63
685.91	884.72
686.05	1046.22
686.19	894.08
686.32	718.54
686.46	800.46
686.60	498.53
686.73	1282.61
686.87	943.24
687.01	557.05
687.14	601.52
687.28	648.33
687.42	667.05
687.55	634.29
687.69	931.53
687.82	585.13
687.96	660.03
688.10	858.98
688.23	662.37
688.37	1027.50
688.50	805.14
688.64	816.85
688.78	533.64
688.91	636.63
689.05	575.77
689.18	505.56
689.32	685.78
689.46	554.71
689.59	788.76
689.73	805.14
689.86	456.40
690.00	573.43
690.13	664.71
690.27	568.75
690.41	774.72
690.54	863.66
690.68	772.38
690.81	521.94
690.95	704.50
691.08	748.97
691.22	638.97
691.35	592.16
691.49	510.24
691.62	573.43
691.76	578.11
691.89	772.38
692.03	587.47
692.16	575.77
692.30	882.38
692.43	1607.95
692.57	4372.12
692.70	7171.40
692.84	8833.18
692.97	7648.87
693.11	5614.95
693.24	4084.23
693.38	2841.41
693.51	2015.20
693.65	1760.08
693.78	1057.92
693.92	873.02
694.05	889.40
694.19	580.45
694.32	683.44
694.45	545.34
694.59	622.58
694.72	552.37
694.86	528.96
694.99	786.42
695.13	521.94
695.26	692.80
695.39	667.05
695.53	1203.04
695.66	702.16
695.80	861.32
695.93	566.41
696.07	713.86
696.20	945.58
696.33	828.55
696.47	1081.33
696.60	1046.22
696.73	1001.75
696.87	765.36
697.00	1196.01
697.14	739.61
697.27	702.16
697.40	1315.38
697.54	599.18
697.67	699.82
697.80	711.52
697.94	531.30
698.07	674.07
698.21	550.03
698.34	760.67
698.47	411.93
698.61	463.43
698.74	568.75
698.87	807.48
699.01	601.52
699.14	528.96
699.27	812.17
699.40	1570.50
699.54	564.07
699.67	557.05
699.80	458.74
699.94	519.60
700.07	521.94
700.20	451.72
700.34	678.76
700.47	461.09
700.60	449.38
700.73	615.56
700.87	938.55
701.00	442.36
701.13	517.26
701.26	599.18
701.40	606.20
701.53	538.32
701.66	465.77
701.79	702.16
701.93	603.86
702.06	1186.65
702.19	894.08
702.32	1240.48
702.46	1013.45
702.59	880.04
702.72	1717.95
702.85	5809.21
702.99	11852.47
703.12	15480.30
703.25	15372.64
703.38	13561.06
703.51	11138.61
703.65	7997.61
703.78	5734.31
703.91	3974.23
704.04	2738.43
704.17	1694.55
704.31	1043.88
704.44	844.93
704.57	809.83
704.70	753.65
704.83	695.14
704.96	685.78
705.10	636.63
705.23	589.82
>>>>>End Processed Spectral Data<<<<<
