SpectraSuite Data File
++++++++++++++++++++++++++++++++++++
Date: Fri Oct 04 12:13:48 GMT-05:00 2013
User: price-jones
Dark Spectrum Present: No
Reference Spectrum Present: No
Number of Sampled Component Spectra: 1
Spectrometers: USB2+H05261
Integration Time (usec): 1000000 (USB2+H05261)
Spectra Averaged: 1 (USB2+H05261)
Boxcar Smoothing: 0 (USB2+H05261)
Correct for Electrical Dark: No (USB2+H05261)
Strobe/Lamp Enabled: No (USB2+H05261)
Correct for Detector Non-linearity: No (USB2+H05261)
Correct for Stray Light: No (USB2+H05261)
Number of Pixels in Processed Spectrum: 2048
>>>>>Begin Processed Spectral Data<<<<<
365.73	0.00
365.92	0.00
366.12	0.00
366.32	0.00
366.52	0.00
366.72	266.82
366.91	117.03
367.11	369.80
367.31	318.31
367.51	320.65
367.70	294.91
367.90	571.09
368.10	374.49
368.30	325.33
368.49	110.01
368.69	435.34
368.89	306.61
369.09	112.35
369.28	262.14
369.48	145.11
369.68	227.03
369.87	351.08
370.07	234.05
370.27	545.34
370.47	376.83
370.66	334.70
370.86	461.09
371.06	793.44
371.25	847.27
371.45	409.59
371.65	631.94
371.84	381.51
372.04	283.20
372.24	493.85
372.44	428.32
372.63	519.60
372.83	851.96
373.03	479.81
373.22	388.53
373.42	313.63
373.62	468.11
373.81	634.29
374.01	720.88
374.21	664.71
374.40	423.64
374.60	746.63
374.79	479.81
374.99	374.49
375.19	629.60
375.38	592.16
375.58	603.86
375.78	674.07
375.97	662.37
376.17	1015.79
376.37	510.24
376.56	608.54
376.76	416.62
376.95	400.23
377.15	688.12
377.35	655.35
377.54	592.16
377.74	437.68
377.93	437.68
378.13	627.26
378.33	645.99
378.52	444.70
378.72	667.05
378.91	631.94
379.11	451.72
379.31	411.93
379.50	318.31
379.70	641.31
379.89	732.59
380.09	461.09
380.28	327.68
380.48	447.04
380.68	414.27
380.87	313.63
381.07	449.38
381.26	683.44
381.46	706.84
381.65	711.52
381.85	395.55
382.04	465.77
382.24	617.90
382.43	465.77
382.63	397.89
382.83	468.11
383.02	716.20
383.22	891.74
383.41	341.72
383.61	435.34
383.80	477.47
384.00	463.43
384.19	484.49
384.39	554.71
384.58	397.89
384.78	550.03
384.97	575.77
385.17	535.98
385.36	444.70
385.56	655.35
385.75	337.04
385.95	498.53
386.14	631.94
386.34	559.39
386.53	568.75
386.72	414.27
386.92	837.91
387.11	622.58
387.31	585.13
387.50	351.08
387.70	318.31
387.89	575.77
388.09	402.57
388.28	330.02
388.48	365.12
388.67	608.54
388.86	505.56
389.06	496.19
389.25	641.31
389.45	528.96
389.64	444.70
389.84	655.35
390.03	636.63
390.22	571.09
390.42	531.30
390.61	365.12
390.81	292.57
391.00	512.58
391.19	716.20
391.39	500.87
391.58	655.35
391.78	568.75
391.97	547.69
392.16	470.45
392.36	779.40
392.55	671.73
392.75	566.41
392.94	409.59
393.13	664.71
393.33	362.78
393.52	454.06
393.71	720.88
393.91	568.75
394.10	411.93
394.29	402.57
394.49	437.68
394.68	617.90
394.88	720.88
395.07	774.72
395.26	636.63
395.46	575.77
395.65	753.65
395.84	622.58
396.04	1174.95
396.23	507.90
396.42	433.00
396.62	596.84
396.81	662.37
397.00	489.17
397.19	622.58
397.39	538.32
397.58	873.02
397.77	552.37
397.97	566.41
398.16	585.13
398.35	578.11
398.55	425.98
398.74	571.09
398.93	828.55
399.12	493.85
399.32	627.26
399.51	627.26
399.70	671.73
399.90	599.18
400.09	650.67
400.28	753.65
400.47	582.79
400.67	713.86
400.86	517.26
401.05	631.94
401.24	760.67
401.44	760.67
401.63	788.76
401.82	784.08
402.01	493.85
402.21	638.97
402.40	711.52
402.59	554.71
402.78	475.13
402.97	564.07
403.17	599.18
403.36	718.54
403.55	486.83
403.74	447.04
403.93	510.24
404.13	842.59
404.32	514.92
404.51	514.92
404.70	741.95
404.89	552.37
405.09	1078.99
405.28	643.65
405.47	454.06
405.66	615.56
405.85	734.93
406.05	589.82
406.24	545.34
406.43	638.97
406.62	641.31
406.81	990.05
407.00	763.01
407.20	608.54
407.39	580.45
407.58	575.77
407.77	692.80
407.96	849.61
408.15	765.36
408.34	667.05
408.54	837.91
408.73	627.26
408.92	653.01
409.11	716.20
409.30	919.83
409.49	411.93
409.68	634.29
409.87	620.24
410.07	444.70
410.26	695.14
410.45	620.24
410.64	521.94
410.83	713.86
411.02	571.09
411.21	765.36
411.40	800.46
411.59	699.82
411.78	557.05
411.98	702.16
412.17	514.92
412.36	582.79
412.55	524.28
412.74	746.63
412.93	1050.90
413.12	568.75
413.31	755.99
413.50	648.33
413.69	620.24
413.88	985.37
414.07	716.20
414.26	685.78
414.45	503.22
414.64	788.76
414.83	798.12
415.02	681.10
415.22	753.65
415.41	884.72
415.60	578.11
415.79	662.37
415.98	957.28
416.17	678.76
416.36	702.16
416.55	603.86
416.74	854.30
416.93	922.17
417.12	709.18
417.31	657.69
417.50	653.01
417.69	1088.35
417.88	709.18
418.07	557.05
418.26	709.18
418.45	648.33
418.64	1041.54
418.83	847.27
419.02	760.67
419.21	760.67
419.39	667.05
419.58	596.84
419.77	559.39
419.96	830.89
420.15	1013.45
420.34	690.46
420.53	657.69
420.72	912.81
420.91	709.18
421.10	777.06
421.29	840.25
421.48	781.74
421.67	854.30
421.86	645.99
422.05	685.78
422.24	643.65
422.43	751.31
422.61	580.45
422.80	629.60
422.99	720.88
423.18	676.41
423.37	887.06
423.56	863.66
423.75	851.96
423.94	599.18
424.13	748.97
424.32	545.34
424.50	765.36
424.69	746.63
424.88	1008.77
425.07	660.03
425.26	767.70
425.45	732.59
425.64	622.58
425.83	620.24
426.01	968.98
426.20	809.83
426.39	713.86
426.58	671.73
426.77	763.01
426.96	924.51
427.15	763.01
427.33	653.01
427.52	833.23
427.71	727.91
427.90	894.08
428.09	674.07
428.28	615.56
428.46	620.24
428.65	844.93
428.84	870.68
429.03	1032.18
429.22	664.71
429.40	627.26
429.59	475.13
429.78	1039.20
429.97	641.31
430.16	615.56
430.34	610.88
430.53	610.88
430.72	667.05
430.91	863.66
431.10	608.54
431.28	681.10
431.47	868.34
431.66	821.53
431.85	636.63
432.03	748.97
432.22	1235.80
432.41	772.38
432.60	966.64
432.79	645.99
432.97	713.86
433.16	681.10
433.35	638.97
433.54	683.44
433.72	840.25
433.91	858.98
434.10	660.03
434.28	784.08
434.47	713.86
434.66	898.77
434.85	685.78
435.03	821.53
435.22	1067.28
435.41	1179.63
435.59	971.32
435.78	854.30
435.97	723.23
436.16	1020.47
436.34	744.29
436.53	786.42
436.72	945.58
436.90	924.51
437.09	844.93
437.28	798.12
437.46	681.10
437.65	807.48
437.84	854.30
438.02	807.48
438.21	912.81
438.40	760.67
438.58	674.07
438.77	770.04
438.96	947.92
439.14	765.36
439.33	954.94
439.52	746.63
439.70	819.19
439.89	1036.86
440.08	873.02
440.26	809.83
440.45	1144.52
440.63	873.02
440.82	861.32
441.01	828.55
441.19	765.36
441.38	896.43
441.57	812.17
441.75	1116.44
441.94	1151.54
442.12	835.57
442.31	795.78
442.50	814.51
442.68	844.93
442.87	898.77
443.05	877.70
443.24	873.02
443.43	1163.25
443.61	1172.61
443.80	929.19
443.98	751.31
444.17	833.23
444.35	1076.65
444.54	840.25
444.73	807.48
444.91	1086.01
445.10	751.31
445.28	844.93
445.47	805.14
445.65	800.46
445.84	753.65
446.02	922.17
446.21	798.12
446.39	910.47
446.58	894.08
446.77	833.23
446.95	866.00
447.14	1041.54
447.32	1132.82
447.51	858.98
447.69	877.70
447.88	971.32
448.06	1109.41
448.25	1006.43
448.43	795.78
448.62	709.18
448.80	905.79
448.99	1067.28
449.17	828.55
449.36	835.57
449.54	994.73
449.73	760.67
449.91	938.55
450.10	812.17
450.28	1390.28
450.46	1392.62
450.65	1111.75
450.83	929.19
451.02	896.43
451.20	880.04
451.39	877.70
451.57	854.30
451.76	882.38
451.94	903.45
452.13	1053.24
452.31	1210.06
452.49	999.41
452.68	739.61
452.86	936.21
453.05	1352.83
453.23	912.81
453.42	763.01
453.60	861.32
453.78	1004.09
453.97	641.31
454.15	739.61
454.34	842.59
454.52	779.40
454.70	1142.18
454.89	1088.35
455.07	868.34
455.26	1069.62
455.44	1219.42
455.62	922.17
455.81	924.51
455.99	1095.37
456.17	966.64
456.36	959.62
456.54	943.24
456.73	884.72
456.91	779.40
457.09	936.21
457.28	1144.52
457.46	992.39
457.64	1210.06
457.83	924.51
458.01	807.48
458.19	954.94
458.38	856.64
458.56	968.98
458.74	805.14
458.93	1015.79
459.11	1067.28
459.29	847.27
459.48	1186.65
459.66	1287.29
459.84	1090.69
460.03	1790.51
460.21	1102.39
460.39	884.72
460.57	1167.93
460.76	1013.45
460.94	997.07
461.12	1245.16
461.31	1322.40
461.49	1013.45
461.67	875.36
461.85	1086.01
462.04	950.26
462.22	5792.83
462.40	1282.61
462.59	1177.29
462.77	938.55
462.95	1071.97
463.13	805.14
463.32	1139.84
463.50	1006.43
463.68	1001.75
463.86	976.00
464.05	873.02
464.23	1270.91
464.41	1174.95
464.59	884.72
464.78	922.17
464.96	777.06
465.14	997.07
465.32	910.47
465.50	1081.33
465.69	1090.69
465.87	791.10
466.05	1055.58
466.23	807.48
466.41	896.43
466.60	926.85
466.78	999.41
466.96	1149.20
467.14	1046.22
467.32	1242.82
467.51	1034.52
467.69	1013.45
467.87	1284.95
468.05	954.94
468.23	1401.98
468.41	1200.69
468.60	943.24
468.78	1004.09
468.96	1174.95
469.14	1137.50
469.32	788.76
469.50	931.53
469.69	1074.31
469.87	1013.45
470.05	987.71
470.23	950.26
470.41	880.04
470.59	917.49
470.77	1071.97
470.95	1057.92
471.14	1174.95
471.32	1015.79
471.50	1385.60
471.68	1001.75
471.86	1123.46
472.04	919.83
472.22	1067.28
472.40	851.96
472.58	882.38
472.77	814.51
472.95	1020.47
473.13	1493.26
473.31	1371.55
473.49	887.06
473.67	931.53
473.85	1135.16
474.03	1137.50
474.21	1088.35
474.39	1385.60
474.57	1411.34
474.75	1137.50
474.93	908.13
475.12	863.66
475.30	1043.88
475.48	964.30
475.66	983.02
475.84	1013.45
476.02	912.81
476.20	1214.74
476.38	1048.56
476.56	1664.12
476.74	1041.54
476.92	1004.09
477.10	1015.79
477.28	1242.82
477.46	990.05
477.64	1245.16
477.82	1022.81
478.00	1100.05
478.18	1193.67
478.36	1097.71
478.54	983.02
478.72	978.34
478.90	1053.24
479.08	1196.01
479.26	1170.27
479.44	1090.69
479.62	997.07
479.80	1008.77
479.98	1050.90
480.16	1069.62
480.34	1294.32
480.52	1034.52
480.70	1196.01
480.88	1095.37
481.06	954.94
481.24	952.60
481.41	1144.52
481.59	1200.69
481.77	1095.37
481.95	1025.15
482.13	1483.90
482.31	1102.39
482.49	1071.97
482.67	1336.45
482.85	1390.28
483.03	1355.17
483.21	1235.80
483.39	1118.78
483.57	1114.10
483.74	1547.09
483.92	1254.53
484.10	1118.78
484.28	1418.36
484.46	1703.91
484.64	1158.57
484.82	1249.85
485.00	1132.82
485.18	1221.76
485.35	1221.76
485.53	1004.09
485.71	1352.83
485.89	866.00
486.07	1081.33
486.25	1652.42
486.43	1317.72
486.61	1397.30
486.78	1315.38
486.96	1008.77
487.14	1111.75
487.32	1287.29
487.50	1153.88
487.68	1446.45
487.85	1123.46
488.03	1378.58
488.21	1575.18
488.39	1137.50
488.57	1378.58
488.75	1172.61
488.92	3932.10
489.10	1364.53
489.28	1806.89
489.46	1263.89
489.64	1270.91
489.81	1448.79
489.99	1460.49
490.17	1277.93
490.35	1989.46
490.53	1348.15
490.70	1165.59
490.88	1533.05
491.06	1306.02
491.24	1458.15
491.41	1654.76
491.59	1474.54
491.77	1181.97
491.95	1196.01
492.13	1266.23
492.30	1416.02
492.48	1301.34
492.66	1474.54
492.84	1289.64
493.01	1523.69
493.19	1378.58
493.37	1652.42
493.54	1472.20
493.72	1579.86
493.90	1348.15
494.08	1352.83
494.25	1493.26
494.43	1528.37
494.61	1401.98
494.79	1273.25
494.96	1277.93
495.14	1561.14
495.32	1441.77
495.49	1521.35
495.67	1544.75
495.85	1439.43
496.02	1359.85
496.20	1680.50
496.38	1624.33
496.55	1423.05
496.73	1554.12
496.91	1437.09
497.09	1596.25
497.26	1514.33
497.44	1565.82
497.62	1507.30
497.79	1406.66
497.97	1554.12
498.14	1621.99
498.32	1572.84
498.50	1441.77
498.67	1432.41
498.85	1504.96
499.03	1533.05
499.20	1472.20
499.38	1507.30
499.56	1584.54
499.73	2033.93
499.91	1689.87
500.08	1696.89
500.26	1497.94
500.44	1401.98
500.61	1561.14
500.79	1341.13
500.97	1593.90
501.14	1790.51
501.32	1561.14
501.49	1732.00
501.67	1537.73
501.84	1579.86
502.02	1310.70
502.20	1877.11
502.37	1621.99
502.55	1511.99
502.72	1577.52
502.90	1776.47
503.07	1509.65
503.25	1540.07
503.43	1373.89
503.60	1341.13
503.78	1511.99
503.95	1497.94
504.13	1434.75
504.30	1657.10
504.48	1736.68
504.65	1998.82
504.83	1753.06
505.01	1521.35
505.18	1694.55
505.36	1565.82
505.53	1556.46
505.71	1514.33
505.88	1935.62
506.06	1488.58
506.23	1610.29
506.41	1638.38
506.58	1675.82
506.76	1664.12
506.93	1570.50
507.11	1640.72
507.28	1411.34
507.46	1420.71
507.63	1542.41
507.81	1392.62
507.98	1535.39
508.16	1528.37
508.33	1621.99
508.50	1762.42
508.68	1607.95
508.85	1549.43
509.03	1511.99
509.20	1621.99
509.38	1682.85
509.55	1767.10
509.73	1797.53
509.90	1907.54
510.08	1519.01
510.25	1706.25
510.42	1425.39
510.60	1600.93
510.77	1816.26
510.95	1853.70
511.12	1507.30
511.30	1680.50
511.47	1762.42
511.64	2169.68
511.82	1603.27
511.99	1629.01
512.17	1605.61
512.34	1409.00
512.51	1551.78
512.69	1547.09
512.86	1963.71
513.04	1544.75
513.21	1785.83
513.38	1490.92
513.56	1617.31
513.73	1497.94
513.90	1533.05
514.08	1460.49
514.25	1624.33
514.43	1739.02
514.60	1575.18
514.77	1530.71
514.95	1619.65
515.12	1549.43
515.29	1666.46
515.47	1717.95
515.64	1638.38
515.81	1673.48
515.99	1834.98
516.16	1746.04
516.33	1720.29
516.51	1359.85
516.68	1301.34
516.85	1364.53
517.03	1460.49
517.20	1570.50
517.37	1732.00
517.54	1720.29
517.72	1446.45
517.89	1355.17
518.06	1385.60
518.24	1935.62
518.41	1996.48
518.58	1818.60
518.75	1514.33
518.93	1659.44
519.10	1699.23
519.27	1561.14
519.45	1692.21
519.62	1629.01
519.79	1762.42
519.96	1521.35
520.14	1629.01
520.31	1785.83
520.48	1699.23
520.65	1715.61
520.83	1884.13
521.00	1724.97
521.17	1710.93
521.34	1586.88
521.52	1598.59
521.69	1741.36
521.86	1614.97
522.03	1919.24
522.20	2115.84
522.38	1535.39
522.55	1671.14
522.72	1507.30
522.89	1863.07
523.07	2127.55
523.24	1685.19
523.41	1638.38
523.58	1664.12
523.75	1638.38
523.92	1547.09
524.10	1727.32
524.27	1666.46
524.44	1696.89
524.61	1926.26
524.78	1586.88
524.96	1905.20
525.13	1823.28
525.30	1966.05
525.47	1842.00
525.64	1729.66
525.81	1720.29
525.98	1657.10
526.16	1591.56
526.33	1533.05
526.50	1493.26
526.67	1371.55
526.84	1418.36
527.01	1458.15
527.18	1753.06
527.36	1633.69
527.53	1554.12
527.70	1886.47
527.87	1820.94
528.04	2165.00
528.21	1643.06
528.38	2012.86
528.55	1926.26
528.72	2111.16
528.89	2279.68
529.07	1675.82
529.24	1799.87
529.41	2064.35
529.58	1771.79
529.75	1607.95
529.92	1891.15
530.09	1722.63
530.26	1895.83
530.43	1804.55
530.60	1771.79
530.77	1778.81
530.94	1966.05
531.11	1809.23
531.28	1769.44
531.46	1540.07
531.63	1844.34
531.80	1870.09
531.97	1795.19
532.14	1776.47
532.31	1785.83
532.48	1811.57
532.65	1621.99
532.82	1582.20
532.99	1678.16
533.16	1706.25
533.33	1802.21
533.50	1664.12
533.67	1575.18
533.84	1827.96
534.01	1753.06
534.18	1680.50
534.35	1727.32
534.52	1778.81
534.69	2197.76
534.86	1811.57
535.03	1659.44
535.20	1724.97
535.37	1942.64
535.54	1757.74
535.71	1863.07
535.88	2019.88
536.05	1703.91
536.22	1771.79
536.38	1720.29
536.55	1900.52
536.72	1982.43
536.89	1619.65
537.06	1619.65
537.23	1680.50
537.40	1652.42
537.57	1710.93
537.74	2045.63
537.91	1860.73
538.08	1753.06
538.25	1823.28
538.42	1680.50
538.59	1776.47
538.75	1657.10
538.92	1703.91
539.09	1753.06
539.26	1610.29
539.43	1902.86
539.60	1732.00
539.77	1792.85
539.94	1694.55
540.11	1739.02
540.28	1991.80
540.44	1989.46
540.61	1575.18
540.78	1570.50
540.95	1605.61
541.12	1961.37
541.29	1565.82
541.46	2017.54
541.62	1834.98
541.79	1586.88
541.96	1586.88
542.13	1614.97
542.30	1497.94
542.47	1816.26
542.63	1631.35
542.80	1858.39
542.97	2043.29
543.14	1614.97
543.31	1797.53
543.48	1699.23
543.64	1802.21
543.81	1746.04
543.98	1584.54
544.15	1462.83
544.32	1621.99
544.48	1652.42
544.65	1558.80
544.82	1593.90
544.99	1776.47
545.16	1914.56
545.32	1603.27
545.49	1776.47
545.66	1614.97
545.83	1582.20
546.00	1476.88
546.16	1568.16
546.33	1645.40
546.50	1741.36
546.67	1930.94
546.83	1937.96
547.00	1626.67
547.17	1570.50
547.34	1469.86
547.50	1732.00
547.67	1689.87
547.84	1575.18
548.00	1806.89
548.17	1621.99
548.34	1629.01
548.51	2118.18
548.67	1963.71
548.84	1743.70
549.01	1713.27
549.18	1687.53
549.34	1746.04
549.51	1776.47
549.68	1717.95
549.84	1753.06
550.01	1551.78
550.18	2663.53
550.34	2317.13
550.51	1713.27
550.68	2113.50
550.84	1617.31
551.01	1643.06
551.18	1727.32
551.34	1675.82
551.51	1729.66
551.68	1760.08
551.84	1926.26
552.01	1619.65
552.18	1600.93
552.34	1703.91
552.51	1689.87
552.68	1813.92
552.84	1600.93
553.01	1692.21
553.18	1900.52
553.34	1671.14
553.51	1586.88
553.67	1818.60
553.84	2073.71
554.01	1874.77
554.17	1863.07
554.34	1558.80
554.51	1741.36
554.67	1973.07
554.84	1893.49
555.00	1717.95
555.17	1689.87
555.33	1853.70
555.50	1699.23
555.67	1802.21
555.83	1575.18
556.00	1650.08
556.16	3236.96
556.33	1837.32
556.50	1734.34
556.66	1626.67
556.83	1626.67
556.99	1577.52
557.16	1720.29
557.32	1544.75
557.49	1572.84
557.65	1551.78
557.82	1629.01
557.98	1643.06
558.15	1486.24
558.32	1720.29
558.48	1554.12
558.65	1633.69
558.81	1722.63
558.98	1526.03
559.14	1811.57
559.31	1671.14
559.47	1788.17
559.64	1500.28
559.80	1710.93
559.97	1479.22
560.13	1509.65
560.30	1535.39
560.46	1530.71
560.63	1565.82
560.79	1652.42
560.96	1664.12
561.12	1497.94
561.29	1701.57
561.45	1598.59
561.61	1640.72
561.78	2450.54
561.94	1561.14
562.11	1605.61
562.27	1706.25
562.44	1448.79
562.60	1528.37
562.77	1582.20
562.93	2097.12
563.10	1769.44
563.26	1687.53
563.42	1919.24
563.59	1652.42
563.75	1565.82
563.92	1933.28
564.08	1636.03
564.24	1774.13
564.41	2022.22
564.57	1497.94
564.74	1577.52
564.90	1596.25
565.07	1799.87
565.23	1703.91
565.39	1451.13
565.56	1619.65
565.72	1458.15
565.88	1624.33
566.05	1490.92
566.21	1411.34
566.38	1612.63
566.54	1626.67
566.70	1577.52
566.87	1425.39
567.03	1294.32
567.19	1610.29
567.36	1636.03
567.52	1621.99
567.68	1645.40
567.85	1664.12
568.01	1476.88
568.17	1348.15
568.34	1465.18
568.50	1757.74
568.66	1348.15
568.83	2275.00
568.99	1469.86
569.15	1823.28
569.32	1467.52
569.48	1479.22
569.64	1401.98
569.81	1589.22
569.97	1394.96
570.13	1736.68
570.30	1404.32
570.46	1460.49
570.62	1455.81
570.78	1404.32
570.95	1348.15
571.11	1842.00
571.27	1959.03
571.43	1404.32
571.60	1743.70
571.76	1472.20
571.92	1549.43
572.09	1563.48
572.25	1530.71
572.41	1507.30
572.57	1432.41
572.74	1954.35
572.90	1727.32
573.06	1699.23
573.22	1603.27
573.38	1750.72
573.55	1746.04
573.71	1659.44
573.87	1732.00
574.03	1453.47
574.20	1537.73
574.36	1809.23
574.52	1446.45
574.68	1514.33
574.84	1565.82
575.01	1495.60
575.17	1598.59
575.33	1392.62
575.49	1657.10
575.65	1739.02
575.82	1682.85
575.98	1926.26
576.14	1488.58
576.30	1409.00
576.46	1600.93
576.62	1542.41
576.79	1647.74
576.95	1774.13
577.11	1476.88
577.27	1268.57
577.43	1701.57
577.59	1825.62
577.75	1685.19
577.92	1479.22
578.08	1455.81
578.24	1254.53
578.40	1619.65
578.56	1708.59
578.72	1870.09
578.88	1633.69
579.04	1500.28
579.21	1600.93
579.37	1495.60
579.53	1455.81
579.69	1696.89
579.85	1345.81
580.01	1643.06
580.17	1439.43
580.33	1437.09
580.49	1481.56
580.65	1582.20
580.82	1547.09
580.98	1561.14
581.14	1430.07
581.30	1771.79
581.46	1542.41
581.62	1673.48
581.78	1397.30
581.94	1617.31
582.10	1289.64
582.26	1490.92
582.42	1362.19
582.58	1619.65
582.74	1411.34
582.90	1502.62
583.06	1605.61
583.22	1444.11
583.38	1341.13
583.54	1299.00
583.70	1734.34
583.86	1568.16
584.02	1458.15
584.18	1837.32
584.34	1420.71
584.50	1397.30
584.66	1490.92
584.82	1376.24
584.98	1544.75
585.14	1324.74
585.30	1741.36
585.46	1486.24
585.62	1284.95
585.78	1441.77
585.94	1614.97
586.10	1488.58
586.26	1432.41
586.42	1802.21
586.58	1680.50
586.74	1371.55
586.90	1514.33
587.06	1528.37
587.22	1584.54
587.38	1247.51
587.54	1348.15
587.70	1556.46
587.86	1598.59
588.02	1366.87
588.18	1378.58
588.34	1488.58
588.49	1095.37
588.65	1149.20
588.81	1188.99
588.97	1055.58
589.13	1238.14
589.29	1327.08
589.45	1448.79
589.61	1399.64
589.77	1460.49
589.93	1266.23
590.08	1219.42
590.24	1322.40
590.40	1345.81
590.56	1458.15
590.72	1268.57
590.88	1111.75
591.04	1364.53
591.20	1296.66
591.35	1710.93
591.51	1348.15
591.67	1207.72
591.83	1167.93
591.99	1420.71
592.15	1533.05
592.31	1406.66
592.46	1385.60
592.62	1551.78
592.78	1256.87
592.94	1203.04
593.10	1256.87
593.26	1226.44
593.41	1523.69
593.57	1336.45
593.73	1273.25
593.89	1465.18
594.05	1299.00
594.20	1273.25
594.36	1481.56
594.52	1301.34
594.68	1284.95
594.84	1540.07
594.99	1727.32
595.15	1542.41
595.31	1575.18
595.47	1710.93
595.62	1324.74
595.78	1383.26
595.94	1446.45
596.10	1652.42
596.25	1397.30
596.41	1540.07
596.57	1210.06
596.73	1315.38
596.88	1242.82
597.04	1481.56
597.20	1291.98
597.36	1432.41
597.51	1266.23
597.67	1306.02
597.83	1266.23
597.99	1558.80
598.14	1287.29
598.30	1701.57
598.46	1324.74
598.61	1631.35
598.77	1507.30
598.93	1254.53
599.09	1371.55
599.24	1425.39
599.40	1659.44
599.56	1352.83
599.71	1453.47
599.87	1294.32
600.03	1401.98
600.18	1390.28
600.34	1465.18
600.50	1263.89
600.65	1228.78
600.81	1451.13
600.97	1329.42
601.12	1296.66
601.28	1598.59
601.44	1401.98
601.59	1254.53
601.75	1507.30
601.91	1306.02
602.06	1514.33
602.22	2167.34
602.37	1584.54
602.53	1409.00
602.69	1488.58
602.84	1387.94
603.00	1376.24
603.16	1577.52
603.31	1476.88
603.47	1469.86
603.62	1263.89
603.78	1483.90
603.94	1516.67
604.09	1378.58
604.25	1432.41
604.40	1593.90
604.56	1334.11
604.71	1352.83
604.87	1270.91
605.03	1462.83
605.18	1493.26
605.34	1624.33
605.49	1401.98
605.65	1247.51
605.80	1060.26
605.96	1392.62
606.12	1458.15
606.27	1537.73
606.43	1448.79
606.58	1551.78
606.74	1401.98
606.89	1352.83
607.05	1453.47
607.20	1404.32
607.36	1460.49
607.51	1280.27
607.67	1465.18
607.82	1465.18
607.98	1750.72
608.13	1472.20
608.29	1350.49
608.44	1591.56
608.60	1401.98
608.75	1612.63
608.91	1504.96
609.06	1502.62
609.22	1495.60
609.37	1217.08
609.53	1324.74
609.68	1280.27
609.84	1240.48
609.99	1256.87
610.15	1366.87
610.30	1523.69
610.46	1666.46
610.61	1425.39
610.76	1261.55
610.92	1378.58
611.07	1214.74
611.23	2062.01
611.38	1460.49
611.54	1193.67
611.69	1263.89
611.84	1256.87
612.00	1130.48
612.15	1219.42
612.31	1196.01
612.46	1287.29
612.62	1163.25
612.77	1600.93
612.92	1554.12
613.08	1680.50
613.23	1420.71
613.39	1301.34
613.54	1198.35
613.69	1174.95
613.85	1221.76
614.00	1291.98
614.15	1273.25
614.31	1254.53
614.46	1467.52
614.62	1174.95
614.77	1565.82
614.92	1226.44
615.08	1462.83
615.23	1373.89
615.38	1331.76
615.54	1207.72
615.69	1280.27
615.84	1121.12
616.00	1132.82
616.15	1088.35
616.30	1205.38
616.46	1256.87
616.61	1050.90
616.76	1380.92
616.92	1306.02
617.07	1188.99
617.22	1125.80
617.37	1268.57
617.53	1315.38
617.68	1303.68
617.83	1301.34
617.99	1502.62
618.14	1647.74
618.29	1446.45
618.45	1329.42
618.60	1252.19
618.75	1130.48
618.90	1060.26
619.06	1270.91
619.21	1762.42
619.36	1633.69
619.51	1153.88
619.67	1231.12
619.82	1196.01
619.97	1313.04
620.12	1420.71
620.28	1469.86
620.43	1315.38
620.58	1397.30
620.73	1345.81
620.89	1268.57
621.04	1306.02
621.19	1743.70
621.34	1263.89
621.49	1114.10
621.65	1296.66
621.80	1100.05
621.95	1111.75
622.10	1287.29
622.25	1036.86
622.41	1114.10
622.56	1254.53
622.71	1240.48
622.86	1490.92
623.01	1238.14
623.16	1542.41
623.32	1146.86
623.47	1331.76
623.62	1188.99
623.77	1156.22
623.92	1163.25
624.07	1177.29
624.23	1254.53
624.38	1100.05
624.53	1256.87
624.68	1385.60
624.83	1448.79
624.98	1324.74
625.13	1193.67
625.29	1114.10
625.44	1188.99
625.59	1196.01
625.74	1401.98
625.89	1266.23
626.04	1032.18
626.19	1107.07
626.34	1167.93
626.49	1380.92
626.65	1001.75
626.80	1069.62
626.95	1259.21
627.10	1100.05
627.25	1172.61
627.40	992.39
627.55	1322.40
627.70	971.32
627.85	1359.85
628.00	1086.01
628.15	1004.09
628.30	1121.12
628.45	950.26
628.60	1062.60
628.76	1153.88
628.91	983.02
629.06	1125.80
629.21	1064.94
629.36	1434.75
629.51	938.55
629.66	1158.57
629.81	999.41
629.96	1242.82
630.11	1357.51
630.26	1200.69
630.41	1046.22
630.56	1205.38
630.71	894.08
630.86	1055.58
631.01	954.94
631.16	1125.80
631.31	1455.81
631.46	1336.45
631.61	1118.78
631.76	1158.57
631.91	1114.10
632.06	1193.67
632.21	1289.64
632.36	1289.64
632.51	994.73
632.66	1057.92
632.81	1069.62
632.96	1181.97
633.10	1263.89
633.25	1523.69
633.40	1100.05
633.55	1137.50
633.70	1001.75
633.85	1210.06
634.00	978.34
634.15	978.34
634.30	1149.20
634.45	1125.80
634.60	1160.91
634.75	943.24
634.90	1029.84
635.05	1181.97
635.19	1076.65
635.34	1060.26
635.49	1270.91
635.64	1067.28
635.79	1004.09
635.94	1212.40
636.09	1252.19
636.24	1156.22
636.39	1186.65
636.53	1259.21
636.68	1011.11
636.83	1123.46
636.98	1357.51
637.13	1114.10
637.28	1163.25
637.43	1488.58
637.57	1352.83
637.72	1528.37
637.87	1196.01
638.02	957.28
638.17	1088.35
638.32	1259.21
638.46	1203.04
638.61	1507.30
638.76	1135.16
638.91	1104.73
639.06	1004.09
639.20	1472.20
639.35	1205.38
639.50	990.05
639.65	1420.71
639.80	1048.56
639.94	1313.04
640.09	1460.49
640.24	1366.87
640.39	1193.67
640.54	1181.97
640.68	1069.62
640.83	1317.72
640.98	1013.45
641.13	1004.09
641.27	1011.11
641.42	1039.20
641.57	1320.06
641.72	1203.04
641.86	1111.75
642.01	980.68
642.16	1350.49
642.31	954.94
642.45	1345.81
642.60	1261.55
642.75	947.92
642.90	1315.38
643.04	1034.52
643.19	1001.75
643.34	1083.67
643.48	1125.80
643.63	1015.79
643.78	1383.26
643.93	1432.41
644.07	1067.28
644.22	1109.41
644.37	985.37
644.51	1261.55
644.66	1121.12
644.81	1135.16
644.95	1376.24
645.10	950.26
645.25	1020.47
645.39	1301.34
645.54	990.05
645.69	1409.00
645.83	814.51
645.98	1430.07
646.13	983.02
646.27	1200.69
646.42	823.87
646.57	863.66
646.71	938.55
646.86	903.45
647.00	1013.45
647.15	1114.10
647.30	837.91
647.44	884.72
647.59	744.29
647.74	861.32
647.88	997.07
648.03	711.52
648.17	1233.46
648.32	791.10
648.47	1095.37
648.61	940.90
648.76	863.66
648.90	936.21
649.05	957.28
649.20	844.93
649.34	835.57
649.49	828.55
649.63	1022.81
649.78	880.04
649.92	952.60
650.07	1083.67
650.21	887.06
650.36	1224.10
650.51	905.79
650.65	1345.81
650.80	980.68
650.94	851.96
651.09	905.79
651.23	837.91
651.38	910.47
651.52	837.91
651.67	980.68
651.81	983.02
651.96	1331.76
652.10	1203.04
652.25	980.68
652.39	1083.67
652.54	1029.84
652.68	1074.31
652.83	1135.16
652.97	961.96
653.12	1111.75
653.26	973.66
653.41	1123.46
653.55	1137.50
653.70	807.48
653.84	898.77
653.99	936.21
654.13	847.27
654.27	1015.79
654.42	966.64
654.56	990.05
654.71	1203.04
654.85	798.12
655.00	777.06
655.14	877.70
655.29	833.23
655.43	1048.56
655.57	933.87
655.72	784.08
655.86	947.92
656.01	854.30
656.15	795.78
656.30	1320.06
656.44	840.25
656.58	716.20
656.73	868.34
656.87	763.01
657.01	889.40
657.16	1343.47
657.30	1123.46
657.45	1313.04
657.59	1055.58
657.73	819.19
657.88	1013.45
658.02	1678.16
658.16	968.98
658.31	933.87
658.45	926.85
658.60	786.42
658.74	1015.79
658.88	887.06
659.03	901.11
659.17	741.95
659.31	842.59
659.46	777.06
659.60	1081.33
659.74	826.21
659.89	821.53
660.03	903.45
660.17	1355.17
660.32	1036.86
660.46	1074.31
660.60	877.70
660.74	1156.22
660.89	1086.01
661.03	779.40
661.17	863.66
661.32	875.36
661.46	959.62
661.60	814.51
661.74	1032.18
661.89	1221.76
662.03	999.41
662.17	877.70
662.31	1013.45
662.46	1158.57
662.60	976.00
662.74	924.51
662.88	1013.45
663.03	833.23
663.17	840.25
663.31	1018.13
663.45	990.05
663.60	847.27
663.74	786.42
663.88	720.88
664.02	898.77
664.17	763.01
664.31	821.53
664.45	968.98
664.59	924.51
664.73	903.45
664.88	1160.91
665.02	798.12
665.16	910.47
665.30	1291.98
665.44	1001.75
665.59	1219.42
665.73	1069.62
665.87	940.90
666.01	924.51
666.15	835.57
666.29	798.12
666.44	1158.57
666.58	1341.13
666.72	891.74
666.86	840.25
667.00	947.92
667.14	950.26
667.28	1060.26
667.43	919.83
667.57	968.98
667.71	1078.99
667.85	985.37
667.99	1043.88
668.13	947.92
668.27	1062.60
668.41	1022.81
668.56	863.66
668.70	1151.54
668.84	938.55
668.98	976.00
669.12	645.99
669.26	945.58
669.40	1413.68
669.54	990.05
669.68	1186.65
669.82	779.40
669.96	992.39
670.10	861.32
670.25	1078.99
670.39	1025.15
670.53	826.21
670.67	1132.82
670.81	730.25
670.95	919.83
671.09	856.64
671.23	1282.61
671.37	1055.58
671.51	898.77
671.65	1050.90
671.79	819.19
671.93	954.94
672.07	1469.86
672.21	1046.22
672.35	791.10
672.49	868.34
672.63	1090.69
672.77	1004.09
672.91	997.07
673.05	863.66
673.19	997.07
673.33	711.52
673.47	1371.55
673.61	858.98
673.75	746.63
673.89	755.99
674.03	1048.56
674.17	903.45
674.31	903.45
674.45	997.07
674.59	1006.43
674.73	851.96
674.87	943.24
675.01	1104.73
675.15	758.33
675.29	1146.86
675.43	1104.73
675.56	1212.40
675.70	1109.41
675.84	795.78
675.98	952.60
676.12	767.70
676.26	809.83
676.40	648.33
676.54	767.70
676.68	744.29
676.82	1104.73
676.96	720.88
677.10	835.57
677.23	744.29
677.37	650.67
677.51	891.74
677.65	1493.26
677.79	770.04
677.93	765.36
678.07	802.80
678.21	674.07
678.34	765.36
678.48	699.82
678.62	840.25
678.76	657.69
678.90	842.59
679.04	819.19
679.18	737.27
679.31	720.88
679.45	617.90
679.59	821.53
679.73	819.19
679.87	638.97
680.00	814.51
680.14	952.60
680.28	994.73
680.42	746.63
680.56	931.53
680.70	657.69
680.83	816.85
680.97	732.59
681.11	711.52
681.25	924.51
681.39	734.93
681.52	835.57
681.66	844.93
681.80	905.79
681.94	648.33
682.07	744.29
682.21	854.30
682.35	634.29
682.49	667.05
682.62	1015.79
682.76	660.03
682.90	788.76
683.04	945.58
683.17	891.74
683.31	730.25
683.45	976.00
683.59	1083.67
683.72	987.71
683.86	821.53
684.00	660.03
684.13	1027.50
684.27	856.64
684.41	833.23
684.55	784.08
684.68	702.16
684.82	615.56
684.96	727.91
685.09	896.43
685.23	610.88
685.37	631.94
685.50	1001.75
685.64	1008.77
685.78	582.79
685.91	828.55
686.05	990.05
686.19	702.16
686.32	741.95
686.46	812.17
686.60	493.85
686.73	1137.50
686.87	884.72
687.01	535.98
687.14	437.68
687.28	552.37
687.42	589.82
687.55	662.37
687.69	954.94
687.82	592.16
687.96	664.71
688.10	884.72
688.23	634.29
688.37	1011.11
688.50	755.99
688.64	798.12
688.78	533.64
688.91	601.52
689.05	615.56
689.18	552.37
689.32	571.09
689.46	507.90
689.59	699.82
689.73	746.63
689.86	564.07
690.00	566.41
690.13	608.54
690.27	580.45
690.41	730.25
690.54	816.85
690.68	760.67
690.81	645.99
690.95	697.48
691.08	741.95
691.22	526.62
691.35	596.84
691.49	475.13
691.62	685.78
691.76	475.13
691.89	664.71
692.03	451.72
692.16	557.05
692.30	793.44
692.43	599.18
692.57	486.83
692.70	526.62
692.84	798.12
692.97	484.49
693.11	615.56
693.24	610.88
693.38	526.62
693.51	554.71
693.65	751.31
693.78	613.22
693.92	571.09
694.05	706.84
694.19	566.41
694.32	655.35
694.45	479.81
694.59	512.58
694.72	631.94
694.86	505.56
694.99	667.05
695.13	512.58
695.26	706.84
695.39	627.26
695.53	1139.84
695.66	603.86
695.80	842.59
695.93	498.53
696.07	535.98
696.20	641.31
696.33	496.19
696.47	517.26
696.60	613.22
696.73	660.03
696.87	524.28
697.00	1053.24
697.14	594.50
697.27	603.86
697.40	1170.27
697.54	592.16
697.67	772.38
697.80	713.86
697.94	606.20
698.07	622.58
698.21	587.47
698.34	788.76
698.47	519.60
698.61	517.26
698.74	503.22
698.87	835.57
699.01	624.92
699.14	440.02
699.27	678.76
699.40	1521.35
699.54	641.31
699.67	465.77
699.80	449.38
699.94	421.30
700.07	433.00
700.20	468.11
700.34	678.76
700.47	447.04
700.60	472.79
700.73	498.53
700.87	847.27
701.00	514.92
701.13	482.15
701.26	592.16
701.40	531.30
701.53	458.74
701.66	425.98
701.79	475.13
701.93	638.97
702.06	954.94
702.19	489.17
702.32	828.55
702.46	535.98
702.59	524.28
702.72	351.08
702.85	496.19
702.99	489.17
703.12	837.91
703.25	505.56
703.38	566.41
703.51	760.67
703.65	463.43
703.78	496.19
703.91	641.31
704.04	758.33
704.17	613.22
704.31	325.33
704.44	425.98
704.57	535.98
704.70	587.47
704.83	521.94
704.96	615.56
705.10	589.82
705.23	526.62
>>>>>End Processed Spectral Data<<<<<
