SpectraSuite Data File
++++++++++++++++++++++++++++++++++++
Date: Fri Oct 04 12:13:45 GMT-05:00 2013
User: price-jones
Dark Spectrum Present: No
Reference Spectrum Present: No
Number of Sampled Component Spectra: 1
Spectrometers: USB2+H05261
Integration Time (usec): 10000 (USB2+H05261)
Spectra Averaged: 1 (USB2+H05261)
Boxcar Smoothing: 0 (USB2+H05261)
Correct for Electrical Dark: No (USB2+H05261)
Strobe/Lamp Enabled: No (USB2+H05261)
Correct for Detector Non-linearity: No (USB2+H05261)
Correct for Stray Light: No (USB2+H05261)
Number of Pixels in Processed Spectrum: 2048
>>>>>Begin Processed Spectral Data<<<<<
365.73	30.43
365.92	30.43
366.12	30.43
366.32	0.00
366.52	0.00
366.72	0.00
366.91	0.00
367.11	0.00
367.31	0.00
367.51	0.00
367.70	0.00
367.90	0.00
368.10	0.00
368.30	0.00
368.49	0.00
368.69	0.00
368.89	0.00
369.09	0.00
369.28	0.00
369.48	0.00
369.68	0.00
369.87	0.00
370.07	0.00
370.27	0.00
370.47	0.00
370.66	0.00
370.86	0.00
371.06	0.00
371.25	0.00
371.45	0.00
371.65	0.00
371.84	23.41
372.04	39.79
372.24	16.38
372.44	53.83
372.63	77.24
372.83	70.22
373.03	44.47
373.22	105.32
373.42	21.06
373.62	81.92
373.81	65.54
374.01	93.62
374.21	42.13
374.40	9.36
374.60	53.83
374.79	77.24
374.99	79.58
375.19	107.66
375.38	93.62
375.58	37.45
375.78	74.90
375.97	58.51
376.17	18.72
376.37	28.09
376.56	23.41
376.76	53.83
376.95	93.62
377.15	28.09
377.35	25.75
377.54	79.58
377.74	79.58
377.93	65.54
378.13	91.28
378.33	35.11
378.52	86.60
378.72	39.79
378.91	81.92
379.11	21.06
379.31	42.13
379.50	70.22
379.70	91.28
379.89	65.54
380.09	9.36
380.28	63.19
380.48	67.88
380.68	114.69
380.87	84.26
381.07	81.92
381.26	72.56
381.46	114.69
381.65	86.60
381.85	18.72
382.04	37.45
382.24	58.51
382.43	81.92
382.63	21.06
382.83	32.77
383.02	60.85
383.22	63.19
383.41	67.88
383.61	84.26
383.80	84.26
384.00	16.38
384.19	105.32
384.39	67.88
384.58	156.82
384.78	124.05
384.97	117.03
385.17	93.62
385.36	72.56
385.56	65.54
385.75	49.15
385.95	18.72
386.14	95.96
386.34	72.56
386.53	98.30
386.72	86.60
386.92	44.47
387.11	86.60
387.31	84.26
387.50	133.41
387.70	95.96
387.89	81.92
388.09	65.54
388.28	100.64
388.48	18.72
388.67	74.90
388.86	105.32
389.06	72.56
389.25	86.60
389.45	182.56
389.64	91.28
389.84	32.77
390.03	117.03
390.22	63.19
390.42	114.69
390.61	58.51
390.81	74.90
391.00	60.85
391.19	128.73
391.39	107.66
391.58	56.17
391.78	105.32
391.97	121.71
392.16	49.15
392.36	67.88
392.55	39.79
392.75	110.01
392.94	28.09
393.13	98.30
393.33	0.00
393.52	65.54
393.71	39.79
393.91	23.41
394.10	67.88
394.29	149.79
394.49	60.85
394.68	105.32
394.88	124.05
395.07	128.73
395.26	133.41
395.46	110.01
395.65	168.52
395.84	86.60
396.04	79.58
396.23	56.17
396.42	88.94
396.62	35.11
396.81	77.24
397.00	84.26
397.19	70.22
397.39	107.66
397.58	145.11
397.77	131.07
397.97	184.90
398.16	114.69
398.35	119.37
398.55	126.39
398.74	124.05
398.93	166.18
399.12	81.92
399.32	194.26
399.51	198.95
399.70	149.79
399.90	124.05
400.09	100.64
400.28	142.77
400.47	175.54
400.67	124.05
400.86	117.03
401.05	121.71
401.24	138.09
401.44	117.03
401.63	149.79
401.82	70.22
402.01	180.22
402.21	212.99
402.40	126.39
402.59	142.77
402.78	126.39
402.97	196.60
403.17	105.32
403.36	241.08
403.55	166.18
403.74	198.95
403.93	102.98
404.13	156.82
404.32	93.62
404.51	163.84
404.70	147.45
404.89	208.31
405.09	182.56
405.28	102.98
405.47	163.84
405.66	163.84
405.85	187.24
406.05	93.62
406.24	114.69
406.43	126.39
406.62	210.65
406.81	133.41
407.00	70.22
407.20	145.11
407.39	100.64
407.58	191.92
407.77	142.77
407.96	100.64
408.15	177.88
408.34	184.90
408.54	121.71
408.73	161.50
408.92	117.03
409.11	138.09
409.30	161.50
409.49	184.90
409.68	0.00
409.87	126.39
410.07	161.50
410.26	152.13
410.45	220.01
410.64	191.92
410.83	149.79
411.02	201.29
411.21	131.07
411.40	227.03
411.59	168.52
411.78	170.86
411.98	210.65
412.17	180.22
412.36	170.86
412.55	196.60
412.74	119.37
412.93	201.29
413.12	79.58
413.31	119.37
413.50	241.08
413.69	119.37
413.88	184.90
414.07	231.71
414.26	191.92
414.45	161.50
414.64	245.76
414.83	152.13
415.02	133.41
415.22	215.33
415.41	177.88
415.60	210.65
415.79	238.73
415.98	173.20
416.17	210.65
416.36	217.67
416.55	105.32
416.74	184.90
416.93	234.05
417.12	191.92
417.31	163.84
417.50	196.60
417.69	212.99
417.88	180.22
418.07	166.18
418.26	215.33
418.45	154.48
418.64	194.26
418.83	205.97
419.02	198.95
419.21	238.73
419.39	135.75
419.58	238.73
419.77	248.10
419.96	119.37
420.15	208.31
420.34	173.20
420.53	177.88
420.72	250.44
420.91	227.03
421.10	227.03
421.29	241.08
421.48	149.79
421.67	161.50
421.86	220.01
422.05	243.42
422.24	142.77
422.43	177.88
422.61	231.71
422.80	131.07
422.99	182.56
423.18	152.13
423.37	220.01
423.56	180.22
423.75	262.14
423.94	257.46
424.13	154.48
424.32	212.99
424.50	238.73
424.69	287.89
424.88	128.73
425.07	175.54
425.26	194.26
425.45	168.52
425.64	194.26
425.83	203.63
426.01	138.09
426.20	283.20
426.39	205.97
426.58	140.43
426.77	112.35
426.96	227.03
427.15	166.18
427.33	224.69
427.52	152.13
427.71	220.01
427.90	215.33
428.09	166.18
428.28	191.92
428.46	161.50
428.65	154.48
428.84	161.50
429.03	229.37
429.22	224.69
429.40	147.45
429.59	156.82
429.78	128.73
429.97	147.45
430.16	95.96
430.34	210.65
430.53	145.11
430.72	177.88
430.91	135.75
431.10	117.03
431.28	187.24
431.47	189.58
431.66	266.82
431.85	205.97
432.03	198.95
432.22	156.82
432.41	147.45
432.60	208.31
432.79	252.78
432.97	198.95
433.16	222.35
433.35	196.60
433.54	177.88
433.72	220.01
433.91	173.20
434.10	112.35
434.28	168.52
434.47	220.01
434.66	271.50
434.85	182.56
435.03	191.92
435.22	208.31
435.41	168.52
435.59	273.84
435.78	241.08
435.97	173.20
436.16	264.48
436.34	271.50
436.53	224.69
436.72	224.69
436.90	257.46
437.09	168.52
437.28	252.78
437.46	201.29
437.65	222.35
437.84	217.67
438.02	182.56
438.21	140.43
438.40	236.39
438.58	166.18
438.77	191.92
438.96	227.03
439.14	224.69
439.33	231.71
439.52	259.80
439.70	283.20
439.89	236.39
440.08	180.22
440.26	145.11
440.45	205.97
440.63	91.28
440.82	287.89
441.01	320.65
441.19	217.67
441.38	252.78
441.57	266.82
441.75	231.71
441.94	283.20
442.12	257.46
442.31	271.50
442.50	278.52
442.68	208.31
442.87	294.91
443.05	241.08
443.24	245.76
443.43	271.50
443.61	271.50
443.80	248.10
443.98	299.59
444.17	220.01
444.35	290.23
444.54	182.56
444.73	212.99
444.91	248.10
445.10	287.89
445.28	229.37
445.47	189.58
445.65	208.31
445.84	276.18
446.02	210.65
446.21	182.56
446.39	217.67
446.58	283.20
446.77	325.33
446.95	348.74
447.14	231.71
447.32	250.44
447.51	299.59
447.69	276.18
447.88	243.42
448.06	294.91
448.25	280.86
448.43	301.93
448.62	301.93
448.80	212.99
448.99	301.93
449.17	290.23
449.36	276.18
449.54	203.63
449.73	255.12
449.91	273.84
450.10	294.91
450.28	266.82
450.46	175.54
450.65	245.76
450.83	280.86
451.02	241.08
451.20	269.16
451.39	208.31
451.57	271.50
451.76	339.38
451.94	241.08
452.13	229.37
452.31	222.35
452.49	292.57
452.68	198.95
452.86	189.58
453.05	201.29
453.23	238.73
453.42	257.46
453.60	341.72
453.78	229.37
453.97	334.70
454.15	238.73
454.34	306.61
454.52	292.57
454.70	313.63
454.89	290.23
455.07	292.57
455.26	287.89
455.44	355.76
455.62	285.55
455.81	348.74
455.99	283.20
456.17	334.70
456.36	215.33
456.54	227.03
456.73	269.16
456.91	306.61
457.09	297.25
457.28	290.23
457.46	299.59
457.64	271.50
457.83	351.08
458.01	280.86
458.19	306.61
458.38	245.76
458.56	194.26
458.74	257.46
458.93	241.08
459.11	290.23
459.29	255.12
459.48	318.31
459.66	355.76
459.84	318.31
460.03	255.12
460.21	330.02
460.39	278.52
460.57	283.20
460.76	273.84
460.94	280.86
461.12	390.87
461.31	238.73
461.49	252.78
461.67	301.93
461.85	269.16
462.04	299.59
462.22	433.00
462.40	306.61
462.59	322.99
462.77	290.23
462.95	322.99
463.13	198.95
463.32	325.33
463.50	313.63
463.68	306.61
463.86	262.14
464.05	262.14
464.23	276.18
464.41	339.38
464.59	301.93
464.78	292.57
464.96	285.55
465.14	255.12
465.32	330.02
465.50	315.97
465.69	308.95
465.87	318.31
466.05	322.99
466.23	346.40
466.41	259.80
466.60	271.50
466.78	264.48
466.96	243.42
467.14	255.12
467.32	299.59
467.51	358.10
467.69	285.55
467.87	325.33
468.05	217.67
468.23	250.44
468.41	217.67
468.60	306.61
468.78	229.37
468.96	311.29
469.14	299.59
469.32	362.78
469.50	318.31
469.69	250.44
469.87	262.14
470.05	266.82
470.23	252.78
470.41	269.16
470.59	257.46
470.77	257.46
470.95	255.12
471.14	353.42
471.32	318.31
471.50	276.18
471.68	351.08
471.86	271.50
472.04	292.57
472.22	294.91
472.40	248.10
472.58	313.63
472.77	248.10
472.95	217.67
473.13	294.91
473.31	297.25
473.49	262.14
473.67	320.65
473.85	397.89
474.03	322.99
474.21	287.89
474.39	292.57
474.57	266.82
474.75	325.33
474.93	201.29
475.12	255.12
475.30	264.48
475.48	325.33
475.66	266.82
475.84	264.48
476.02	334.70
476.20	358.10
476.38	299.59
476.56	339.38
476.74	383.85
476.92	264.48
477.10	280.86
477.28	390.87
477.46	393.21
477.64	407.25
477.82	362.78
478.00	351.08
478.18	414.27
478.36	327.68
478.54	379.17
478.72	332.36
478.90	341.72
479.08	259.80
479.26	308.95
479.44	379.17
479.62	341.72
479.80	402.57
479.98	308.95
480.16	397.89
480.34	325.33
480.52	315.97
480.70	337.04
480.88	372.15
481.06	376.83
481.24	393.21
481.41	358.10
481.59	383.85
481.77	402.57
481.95	360.44
482.13	421.30
482.31	280.86
482.49	355.76
482.67	308.95
482.85	355.76
483.03	425.98
483.21	421.30
483.39	510.24
483.57	393.21
483.74	337.04
483.92	367.46
484.10	397.89
484.28	416.62
484.46	418.96
484.64	437.68
484.82	383.85
485.00	414.27
485.18	388.53
485.35	395.55
485.53	367.46
485.71	346.40
485.89	339.38
486.07	299.59
486.25	374.49
486.43	320.65
486.61	362.78
486.78	486.83
486.96	433.00
487.14	400.23
487.32	327.68
487.50	470.45
487.68	393.21
487.85	463.43
488.03	411.93
488.21	388.53
488.39	383.85
488.57	433.00
488.75	374.49
488.92	496.19
489.10	451.72
489.28	482.15
489.46	477.47
489.64	514.92
489.81	472.79
489.99	435.34
490.17	545.34
490.35	554.71
490.53	423.64
490.70	395.55
490.88	444.70
491.06	451.72
491.24	479.81
491.41	454.06
491.59	463.43
491.77	395.55
491.95	393.21
492.13	409.59
492.30	451.72
492.48	442.36
492.66	517.26
492.84	428.32
493.01	442.36
493.19	510.24
493.37	461.09
493.54	517.26
493.72	400.23
493.90	397.89
494.08	484.49
494.25	498.53
494.43	491.51
494.61	510.24
494.79	482.15
494.96	514.92
495.14	454.06
495.32	482.15
495.49	528.96
495.67	580.45
495.85	477.47
496.02	535.98
496.20	440.02
496.38	568.75
496.55	510.24
496.73	585.13
496.91	428.32
497.09	631.94
497.26	535.98
497.44	491.51
497.62	521.94
497.79	500.87
497.97	461.09
498.14	416.62
498.32	423.64
498.50	482.15
498.67	521.94
498.85	545.34
499.03	507.90
499.20	561.73
499.38	545.34
499.56	540.66
499.73	458.74
499.91	458.74
500.08	482.15
500.26	425.98
500.44	533.64
500.61	554.71
500.79	559.39
500.97	510.24
501.14	430.66
501.32	503.22
501.49	484.49
501.67	447.04
501.84	456.40
502.02	456.40
502.20	505.56
502.37	510.24
502.55	475.13
502.72	561.73
502.90	463.43
503.07	465.77
503.25	418.96
503.43	498.53
503.60	491.51
503.78	421.30
503.95	482.15
504.13	484.49
504.30	524.28
504.48	561.73
504.65	540.66
504.83	580.45
505.01	554.71
505.18	521.94
505.36	510.24
505.53	554.71
505.71	486.83
505.88	535.98
506.06	559.39
506.23	521.94
506.41	484.49
506.58	475.13
506.76	599.18
506.93	543.00
507.11	568.75
507.28	573.43
507.46	550.03
507.63	540.66
507.81	519.60
507.98	442.36
508.16	484.49
508.33	582.79
508.50	545.34
508.68	500.87
508.85	543.00
509.03	533.64
509.20	468.11
509.38	559.39
509.55	477.47
509.73	503.22
509.90	484.49
510.08	575.77
510.25	514.92
510.42	552.37
510.60	547.69
510.77	482.15
510.95	557.05
511.12	580.45
511.30	543.00
511.47	578.11
511.64	472.79
511.82	587.47
511.99	512.58
512.17	535.98
512.34	521.94
512.51	552.37
512.69	535.98
512.86	587.47
513.04	482.15
513.21	564.07
513.38	472.79
513.56	526.62
513.73	505.56
513.90	524.28
514.08	554.71
514.25	493.85
514.43	503.22
514.60	578.11
514.77	528.96
514.95	613.22
515.12	533.64
515.29	561.73
515.47	472.79
515.64	465.77
515.81	526.62
515.99	608.54
516.16	540.66
516.33	514.92
516.51	454.06
516.68	451.72
516.85	372.15
517.03	486.83
517.20	557.05
517.37	528.96
517.54	578.11
517.72	606.20
517.89	430.66
518.06	482.15
518.24	416.62
518.41	582.79
518.58	540.66
518.75	528.96
518.93	538.32
519.10	512.58
519.27	447.04
519.45	507.90
519.62	594.50
519.79	554.71
519.96	521.94
520.14	575.77
520.31	585.13
520.48	559.39
520.65	585.13
520.83	561.73
521.00	496.19
521.17	564.07
521.34	566.41
521.52	479.81
521.69	559.39
521.86	552.37
522.03	543.00
522.20	580.45
522.38	554.71
522.55	510.24
522.72	433.00
522.89	568.75
523.07	568.75
523.24	610.88
523.41	561.73
523.58	557.05
523.75	561.73
523.92	524.28
524.10	627.26
524.27	599.18
524.44	561.73
524.61	599.18
524.78	564.07
524.96	538.32
525.13	538.32
525.30	653.01
525.47	603.86
525.64	566.41
525.81	550.03
525.98	608.54
526.16	475.13
526.33	479.81
526.50	477.47
526.67	540.66
526.84	521.94
527.01	514.92
527.18	589.82
527.36	479.81
527.53	547.69
527.70	531.30
527.87	514.92
528.04	493.85
528.21	484.49
528.38	493.85
528.55	620.24
528.72	585.13
528.89	582.79
529.07	578.11
529.24	592.16
529.41	622.58
529.58	512.58
529.75	524.28
529.92	610.88
530.09	603.86
530.26	578.11
530.43	512.58
530.60	547.69
530.77	524.28
530.94	517.26
531.11	587.47
531.28	517.26
531.46	528.96
531.63	566.41
531.80	575.77
531.97	580.45
532.14	543.00
532.31	503.22
532.48	514.92
532.65	458.74
532.82	517.26
532.99	519.60
533.16	596.84
533.33	510.24
533.50	568.75
533.67	622.58
533.84	575.77
534.01	510.24
534.18	535.98
534.35	517.26
534.52	559.39
534.69	594.50
534.86	615.56
535.03	512.58
535.20	580.45
535.37	568.75
535.54	582.79
535.71	528.96
535.88	610.88
536.05	550.03
536.22	503.22
536.38	547.69
536.55	592.16
536.72	479.81
536.89	519.60
537.06	475.13
537.23	505.56
537.40	592.16
537.57	606.20
537.74	545.34
537.91	543.00
538.08	580.45
538.25	596.84
538.42	519.60
538.59	573.43
538.75	585.13
538.92	615.56
539.09	512.58
539.26	543.00
539.43	592.16
539.60	543.00
539.77	540.66
539.94	449.38
540.11	610.88
540.28	557.05
540.44	535.98
540.61	521.94
540.78	552.37
540.95	526.62
541.12	554.71
541.29	531.30
541.46	589.82
541.62	500.87
541.79	519.60
541.96	566.41
542.13	493.85
542.30	538.32
542.47	615.56
542.63	514.92
542.80	461.09
542.97	524.28
543.14	444.70
543.31	491.51
543.48	589.82
543.64	603.86
543.81	535.98
543.98	589.82
544.15	491.51
544.32	528.96
544.48	624.92
544.65	547.69
544.82	514.92
544.99	603.86
545.16	550.03
545.32	470.45
545.49	510.24
545.66	538.32
545.83	482.15
546.00	524.28
546.16	620.24
546.33	535.98
546.50	468.11
546.67	519.60
546.83	575.77
547.00	592.16
547.17	620.24
547.34	430.66
547.50	491.51
547.67	491.51
547.84	496.19
548.00	538.32
548.17	505.56
548.34	486.83
548.51	517.26
548.67	566.41
548.84	517.26
549.01	535.98
549.18	510.24
549.34	479.81
549.51	528.96
549.68	561.73
549.84	535.98
550.01	514.92
550.18	601.52
550.34	561.73
550.51	510.24
550.68	447.04
550.84	475.13
551.01	547.69
551.18	535.98
551.34	493.85
551.51	578.11
551.68	479.81
551.84	517.26
552.01	491.51
552.18	510.24
552.34	517.26
552.51	531.30
552.68	557.05
552.84	526.62
553.01	526.62
553.18	456.40
553.34	557.05
553.51	528.96
553.67	512.58
553.84	477.47
554.01	582.79
554.17	519.60
554.34	507.90
554.51	545.34
554.67	573.43
554.84	526.62
555.00	475.13
555.17	458.74
555.33	500.87
555.50	465.77
555.67	528.96
555.83	510.24
556.00	580.45
556.16	493.85
556.33	503.22
556.50	524.28
556.66	449.38
556.83	500.87
556.99	535.98
557.16	519.60
557.32	470.45
557.49	451.72
557.65	500.87
557.82	514.92
557.98	491.51
558.15	512.58
558.32	475.13
558.48	430.66
558.65	491.51
558.81	456.40
558.98	425.98
559.14	503.22
559.31	512.58
559.47	496.19
559.64	517.26
559.80	517.26
559.97	442.36
560.13	433.00
560.30	477.47
560.46	500.87
560.63	568.75
560.79	514.92
560.96	440.02
561.12	472.79
561.29	496.19
561.45	479.81
561.61	535.98
561.78	627.26
561.94	543.00
562.11	458.74
562.27	510.24
562.44	512.58
562.60	489.17
562.77	535.98
562.93	533.64
563.10	414.27
563.26	409.59
563.42	444.70
563.59	456.40
563.75	414.27
563.92	472.79
564.08	510.24
564.24	458.74
564.41	566.41
564.57	491.51
564.74	447.04
564.90	528.96
565.07	465.77
565.23	608.54
565.39	500.87
565.56	440.02
565.72	491.51
565.88	482.15
566.05	512.58
566.21	521.94
566.38	444.70
566.54	433.00
566.70	402.57
566.87	510.24
567.03	489.17
567.19	493.85
567.36	566.41
567.52	435.34
567.68	500.87
567.85	526.62
568.01	423.64
568.17	500.87
568.34	433.00
568.50	519.60
568.66	442.36
568.83	498.53
568.99	484.49
569.15	491.51
569.32	400.23
569.48	493.85
569.64	479.81
569.81	465.77
569.97	458.74
570.13	468.11
570.30	566.41
570.46	360.44
570.62	454.06
570.78	428.32
570.95	449.38
571.11	500.87
571.27	496.19
571.43	463.43
571.60	468.11
571.76	505.56
571.92	479.81
572.09	421.30
572.25	421.30
572.41	475.13
572.57	540.66
572.74	437.68
572.90	465.77
573.06	475.13
573.22	465.77
573.38	425.98
573.55	449.38
573.71	526.62
573.87	449.38
574.03	437.68
574.20	437.68
574.36	526.62
574.52	519.60
574.68	402.57
574.84	390.87
575.01	456.40
575.17	456.40
575.33	437.68
575.49	484.49
575.65	449.38
575.82	477.47
575.98	486.83
576.14	463.43
576.30	454.06
576.46	400.23
576.62	388.53
576.79	465.77
576.95	470.45
577.11	458.74
577.27	484.49
577.43	507.90
577.59	454.06
577.75	381.51
577.92	486.83
578.08	433.00
578.24	425.98
578.40	484.49
578.56	514.92
578.72	393.21
578.88	442.36
579.04	470.45
579.21	482.15
579.37	400.23
579.53	418.96
579.69	510.24
579.85	461.09
580.01	433.00
580.17	507.90
580.33	465.77
580.49	491.51
580.65	404.91
580.82	479.81
580.98	372.15
581.14	409.59
581.30	517.26
581.46	430.66
581.62	379.17
581.78	418.96
581.94	451.72
582.10	351.08
582.26	428.32
582.42	449.38
582.58	479.81
582.74	491.51
582.90	418.96
583.06	372.15
583.22	400.23
583.38	411.93
583.54	397.89
583.70	458.74
583.86	454.06
584.02	470.45
584.18	489.17
584.34	411.93
584.50	402.57
584.66	409.59
584.82	397.89
584.98	477.47
585.14	470.45
585.30	418.96
585.46	365.12
585.62	400.23
585.78	472.79
585.94	458.74
586.10	479.81
586.26	369.80
586.42	437.68
586.58	374.49
586.74	358.10
586.90	393.21
587.06	463.43
587.22	416.62
587.38	470.45
587.54	423.64
587.70	486.83
587.86	397.89
588.02	397.89
588.18	421.30
588.34	325.33
588.49	262.14
588.65	376.83
588.81	341.72
588.97	358.10
589.13	339.38
589.29	264.48
589.45	285.55
589.61	285.55
589.77	355.76
589.93	369.80
590.08	292.57
590.24	327.68
590.40	330.02
590.56	360.44
590.72	355.76
590.88	372.15
591.04	442.36
591.20	411.93
591.35	313.63
591.51	320.65
591.67	355.76
591.83	341.72
591.99	351.08
592.15	421.30
592.31	407.25
592.46	379.17
592.62	311.29
592.78	355.76
592.94	353.42
593.10	376.83
593.26	395.55
593.41	369.80
593.57	358.10
593.73	348.74
593.89	362.78
594.05	322.99
594.20	372.15
594.36	383.85
594.52	292.57
594.68	348.74
594.84	423.64
594.99	379.17
595.15	348.74
595.31	358.10
595.47	337.04
595.62	386.19
595.78	372.15
595.94	271.50
596.10	411.93
596.25	374.49
596.41	358.10
596.57	383.85
596.73	461.09
596.88	425.98
597.04	493.85
597.20	334.70
597.36	346.40
597.51	341.72
597.67	327.68
597.83	290.23
597.99	339.38
598.14	369.80
598.30	367.46
598.46	351.08
598.61	393.21
598.77	322.99
598.93	393.21
599.09	386.19
599.24	367.46
599.40	339.38
599.56	402.57
599.71	365.12
599.87	407.25
600.03	372.15
600.18	433.00
600.34	365.12
600.50	376.83
600.65	379.17
600.81	383.85
600.97	367.46
601.12	407.25
601.28	395.55
601.44	416.62
601.59	440.02
601.75	386.19
601.91	402.57
602.06	320.65
602.22	332.36
602.37	341.72
602.53	322.99
602.69	360.44
602.84	451.72
603.00	374.49
603.16	414.27
603.31	411.93
603.47	390.87
603.62	423.64
603.78	292.57
603.94	390.87
604.09	416.62
604.25	411.93
604.40	425.98
604.56	400.23
604.71	425.98
604.87	461.09
605.03	402.57
605.18	458.74
605.34	386.19
605.49	320.65
605.65	400.23
605.80	285.55
605.96	421.30
606.12	325.33
606.27	433.00
606.43	271.50
606.58	383.85
606.74	369.80
606.89	320.65
607.05	388.53
607.20	348.74
607.36	437.68
607.51	374.49
607.67	397.89
607.82	444.70
607.98	416.62
608.13	341.72
608.29	402.57
608.44	337.04
608.60	365.12
608.75	402.57
608.91	376.83
609.06	376.83
609.22	369.80
609.37	313.63
609.53	362.78
609.68	327.68
609.84	369.80
609.99	313.63
610.15	332.36
610.30	355.76
610.46	320.65
610.61	287.89
610.76	325.33
610.92	339.38
611.07	372.15
611.23	341.72
611.38	351.08
611.54	360.44
611.69	383.85
611.84	348.74
612.00	327.68
612.15	341.72
612.31	365.12
612.46	362.78
612.62	308.95
612.77	369.80
612.92	311.29
613.08	353.42
613.23	362.78
613.39	351.08
613.54	299.59
613.69	379.17
613.85	390.87
614.00	332.36
614.15	269.16
614.31	320.65
614.46	304.27
614.62	337.04
614.77	362.78
614.92	381.51
615.08	318.31
615.23	297.25
615.38	283.20
615.54	386.19
615.69	325.33
615.84	365.12
616.00	308.95
616.15	264.48
616.30	374.49
616.46	325.33
616.61	334.70
616.76	339.38
616.92	334.70
617.07	376.83
617.22	299.59
617.37	292.57
617.53	348.74
617.68	306.61
617.83	339.38
617.99	327.68
618.14	372.15
618.29	330.02
618.45	355.76
618.60	301.93
618.75	330.02
618.90	339.38
619.06	330.02
619.21	365.12
619.36	269.16
619.51	341.72
619.67	362.78
619.82	348.74
619.97	332.36
620.12	346.40
620.28	318.31
620.43	315.97
620.58	344.06
620.73	341.72
620.89	365.12
621.04	308.95
621.19	322.99
621.34	276.18
621.49	294.91
621.65	320.65
621.80	339.38
621.95	297.25
622.10	301.93
622.25	367.46
622.41	311.29
622.56	341.72
622.71	344.06
622.86	287.89
623.01	301.93
623.16	369.80
623.32	341.72
623.47	346.40
623.62	306.61
623.77	248.10
623.92	280.86
624.07	294.91
624.23	273.84
624.38	320.65
624.53	299.59
624.68	285.55
624.83	299.59
624.98	266.82
625.13	262.14
625.29	334.70
625.44	273.84
625.59	269.16
625.74	353.42
625.89	248.10
626.04	306.61
626.19	376.83
626.34	334.70
626.49	322.99
626.65	262.14
626.80	238.73
626.95	353.42
627.10	315.97
627.25	280.86
627.40	248.10
627.55	353.42
627.70	245.76
627.85	248.10
628.00	334.70
628.15	304.27
628.30	266.82
628.45	299.59
628.60	217.67
628.76	346.40
628.91	301.93
629.06	220.01
629.21	290.23
629.36	299.59
629.51	222.35
629.66	339.38
629.81	266.82
629.96	283.20
630.11	276.18
630.26	212.99
630.41	252.78
630.56	299.59
630.71	325.33
630.86	262.14
631.01	313.63
631.16	273.84
631.31	259.80
631.46	285.55
631.61	262.14
631.76	285.55
631.91	353.42
632.06	351.08
632.21	327.68
632.36	259.80
632.51	234.05
632.66	360.44
632.81	353.42
632.96	308.95
633.10	222.35
633.25	355.76
633.40	290.23
633.55	257.46
633.70	264.48
633.85	311.29
634.00	243.42
634.15	273.84
634.30	294.91
634.45	224.69
634.60	322.99
634.75	264.48
634.90	280.86
635.05	257.46
635.19	294.91
635.34	322.99
635.49	189.58
635.64	285.55
635.79	266.82
635.94	201.29
636.09	250.44
636.24	245.76
636.39	227.03
636.53	358.10
636.68	353.42
636.83	238.73
636.98	318.31
637.13	243.42
637.28	372.15
637.43	301.93
637.57	332.36
637.72	306.61
637.87	266.82
638.02	287.89
638.17	292.57
638.32	287.89
638.46	330.02
638.61	278.52
638.76	299.59
638.91	217.67
639.06	287.89
639.20	257.46
639.35	266.82
639.50	215.33
639.65	229.37
639.80	227.03
639.94	259.80
640.09	205.97
640.24	238.73
640.39	287.89
640.54	245.76
640.68	311.29
640.83	269.16
640.98	257.46
641.13	245.76
641.27	287.89
641.42	271.50
641.57	266.82
641.72	248.10
641.86	257.46
642.01	313.63
642.16	341.72
642.31	271.50
642.45	236.39
642.60	257.46
642.75	231.71
642.90	287.89
643.04	224.69
643.19	208.31
643.34	283.20
643.48	227.03
643.63	278.52
643.78	236.39
643.93	315.97
644.07	264.48
644.22	266.82
644.37	231.71
644.51	250.44
644.66	245.76
644.81	177.88
644.95	210.65
645.10	184.90
645.25	236.39
645.39	306.61
645.54	229.37
645.69	243.42
645.83	269.16
645.98	201.29
646.13	297.25
646.27	236.39
646.42	161.50
646.57	311.29
646.71	238.73
646.86	189.58
647.00	238.73
647.15	220.01
647.30	227.03
647.44	252.78
647.59	231.71
647.74	121.71
647.88	168.52
648.03	149.79
648.17	215.33
648.32	269.16
648.47	163.84
648.61	224.69
648.76	252.78
648.90	269.16
649.05	266.82
649.20	201.29
649.34	177.88
649.49	210.65
649.63	222.35
649.78	187.24
649.92	234.05
650.07	215.33
650.21	231.71
650.36	250.44
650.51	191.92
650.65	287.89
650.80	271.50
650.94	149.79
651.09	224.69
651.23	191.92
651.38	222.35
651.52	203.63
651.67	175.54
651.81	180.22
651.96	238.73
652.10	220.01
652.25	140.43
652.39	205.97
652.54	198.95
652.68	231.71
652.83	198.95
652.97	147.45
653.12	201.29
653.26	159.16
653.41	205.97
653.55	271.50
653.70	212.99
653.84	208.31
653.99	294.91
654.13	243.42
654.27	285.55
654.42	257.46
654.56	283.20
654.71	245.76
654.85	191.92
655.00	191.92
655.14	189.58
655.29	187.24
655.43	175.54
655.57	227.03
655.72	142.77
655.86	173.20
656.01	163.84
656.15	203.63
656.30	175.54
656.44	222.35
656.58	182.56
656.73	212.99
656.87	229.37
657.01	212.99
657.16	234.05
657.30	159.16
657.45	236.39
657.59	177.88
657.73	191.92
657.88	290.23
658.02	243.42
658.16	215.33
658.31	173.20
658.45	210.65
658.60	159.16
658.74	156.82
658.88	238.73
659.03	266.82
659.17	241.08
659.31	163.84
659.46	238.73
659.60	163.84
659.74	208.31
659.89	264.48
660.03	203.63
660.17	283.20
660.32	208.31
660.46	243.42
660.60	182.56
660.74	220.01
660.89	208.31
661.03	212.99
661.17	191.92
661.32	262.14
661.46	243.42
661.60	252.78
661.74	203.63
661.89	278.52
662.03	222.35
662.17	238.73
662.31	215.33
662.46	191.92
662.60	210.65
662.74	212.99
662.88	299.59
663.03	156.82
663.17	327.68
663.31	210.65
663.45	205.97
663.60	196.60
663.74	161.50
663.88	222.35
664.02	205.97
664.17	252.78
664.31	173.20
664.45	191.92
664.59	243.42
664.73	273.84
664.88	184.90
665.02	215.33
665.16	269.16
665.30	234.05
665.44	163.84
665.59	210.65
665.73	189.58
665.87	238.73
666.01	259.80
666.15	154.48
666.29	229.37
666.44	154.48
666.58	208.31
666.72	304.27
666.86	252.78
667.00	222.35
667.14	177.88
667.28	191.92
667.43	189.58
667.57	145.11
667.71	294.91
667.85	271.50
667.99	170.86
668.13	238.73
668.27	196.60
668.41	222.35
668.56	212.99
668.70	170.86
668.84	173.20
668.98	189.58
669.12	243.42
669.26	177.88
669.40	201.29
669.54	175.54
669.68	234.05
669.82	145.11
669.96	234.05
670.10	191.92
670.25	156.82
670.39	149.79
670.53	166.18
670.67	205.97
670.81	231.71
670.95	203.63
671.09	205.97
671.23	250.44
671.37	154.48
671.51	236.39
671.65	210.65
671.79	236.39
671.93	189.58
672.07	159.16
672.21	255.12
672.35	166.18
672.49	138.09
672.63	161.50
672.77	163.84
672.91	170.86
673.05	194.26
673.19	238.73
673.33	168.52
673.47	187.24
673.61	159.16
673.75	187.24
673.89	124.05
674.03	208.31
674.17	173.20
674.31	252.78
674.45	224.69
674.59	145.11
674.73	182.56
674.87	191.92
675.01	208.31
675.15	173.20
675.29	131.07
675.43	119.37
675.56	194.26
675.70	147.45
675.84	276.18
675.98	163.84
676.12	152.13
676.26	231.71
676.40	212.99
676.54	196.60
676.68	159.16
676.82	168.52
676.96	177.88
677.10	205.97
677.23	154.48
677.37	126.39
677.51	194.26
677.65	163.84
677.79	154.48
677.93	156.82
678.07	173.20
678.21	135.75
678.34	86.60
678.48	224.69
678.62	208.31
678.76	140.43
678.90	203.63
679.04	131.07
679.18	208.31
679.31	133.41
679.45	168.52
679.59	231.71
679.73	163.84
679.87	191.92
680.00	191.92
680.14	191.92
680.28	128.73
680.42	196.60
680.56	191.92
680.70	203.63
680.83	182.56
680.97	119.37
681.11	107.66
681.25	215.33
681.39	168.52
681.52	201.29
681.66	224.69
681.80	163.84
681.94	140.43
682.07	175.54
682.21	189.58
682.35	128.73
682.49	161.50
682.62	133.41
682.76	168.52
682.90	135.75
683.04	65.54
683.17	133.41
683.31	187.24
683.45	236.39
683.59	154.48
683.72	152.13
683.86	198.95
684.00	65.54
684.13	191.92
684.27	93.62
684.41	149.79
684.55	147.45
684.68	210.65
684.82	81.92
684.96	175.54
685.09	154.48
685.23	159.16
685.37	117.03
685.50	128.73
685.64	100.64
685.78	149.79
685.91	168.52
686.05	194.26
686.19	156.82
686.32	72.56
686.46	175.54
686.60	93.62
686.73	74.90
686.87	46.81
687.01	124.05
687.14	51.49
687.28	100.64
687.42	126.39
687.55	159.16
687.69	156.82
687.82	70.22
687.96	112.35
688.10	98.30
688.23	112.35
688.37	170.86
688.50	100.64
688.64	133.41
688.78	102.98
688.91	79.58
689.05	117.03
689.18	105.32
689.32	100.64
689.46	128.73
689.59	138.09
689.73	117.03
689.86	124.05
690.00	74.90
690.13	72.56
690.27	102.98
690.41	84.26
690.54	84.26
690.68	100.64
690.81	131.07
690.95	135.75
691.08	114.69
691.22	100.64
691.35	107.66
691.49	128.73
691.62	105.32
691.76	86.60
691.89	77.24
692.03	124.05
692.16	112.35
692.30	112.35
692.43	93.62
692.57	105.32
692.70	114.69
692.84	51.49
692.97	140.43
693.11	110.01
693.24	93.62
693.38	74.90
693.51	93.62
693.65	93.62
693.78	81.92
693.92	79.58
694.05	39.79
694.19	119.37
694.32	98.30
694.45	119.37
694.59	72.56
694.72	105.32
694.86	124.05
694.99	98.30
695.13	70.22
695.26	95.96
695.39	147.45
695.53	72.56
695.66	140.43
695.80	119.37
695.93	49.15
696.07	98.30
696.20	98.30
696.33	154.48
696.47	149.79
696.60	95.96
696.73	138.09
696.87	102.98
697.00	30.43
697.14	21.06
697.27	70.22
697.40	117.03
697.54	168.52
697.67	77.24
697.80	65.54
697.94	81.92
698.07	112.35
698.21	163.84
698.34	63.19
698.47	154.48
698.61	72.56
698.74	88.94
698.87	88.94
699.01	105.32
699.14	44.47
699.27	93.62
699.40	86.60
699.54	133.41
699.67	119.37
699.80	147.45
699.94	88.94
700.07	91.28
700.20	65.54
700.34	170.86
700.47	149.79
700.60	105.32
700.73	84.26
700.87	91.28
701.00	102.98
701.13	95.96
701.26	100.64
701.40	135.75
701.53	56.17
701.66	86.60
701.79	28.09
701.93	49.15
702.06	79.58
702.19	173.20
702.32	194.26
702.46	53.83
702.59	133.41
702.72	95.96
702.85	114.69
702.99	133.41
703.12	60.85
703.25	117.03
703.38	58.51
703.51	95.96
703.65	46.81
703.78	121.71
703.91	126.39
704.04	46.81
704.17	39.79
704.31	98.30
704.44	49.15
704.57	60.85
704.70	70.22
704.83	51.49
704.96	30.43
705.10	60.85
705.23	93.62
>>>>>End Processed Spectral Data<<<<<
