SpectraSuite Data File
++++++++++++++++++++++++++++++++++++
Date: Fri Oct 04 11:33:53 GMT-05:00 2013
User: price-jones
Dark Spectrum Present: No
Reference Spectrum Present: No
Number of Sampled Component Spectra: 1
Spectrometers: USB2+H05261
Integration Time (usec): 100000 (USB2+H05261)
Spectra Averaged: 1 (USB2+H05261)
Boxcar Smoothing: 0 (USB2+H05261)
Correct for Electrical Dark: No (USB2+H05261)
Strobe/Lamp Enabled: No (USB2+H05261)
Correct for Detector Non-linearity: No (USB2+H05261)
Correct for Stray Light: No (USB2+H05261)
Number of Pixels in Processed Spectrum: 2048
>>>>>Begin Processed Spectral Data<<<<<
365.73	102.98
365.92	102.98
366.12	102.98
366.32	11.70
366.52	7.02
366.72	0.00
366.91	0.00
367.11	18.72
367.31	0.00
367.51	0.00
367.70	0.00
367.90	0.00
368.10	0.00
368.30	0.00
368.49	0.00
368.69	0.00
368.89	0.00
369.09	42.13
369.28	21.06
369.48	0.00
369.68	35.11
369.87	0.00
370.07	84.26
370.27	60.85
370.47	72.56
370.66	7.02
370.86	84.26
371.06	110.01
371.25	93.62
371.45	56.17
371.65	67.88
371.84	46.81
372.04	128.73
372.24	212.99
372.44	112.35
372.63	142.77
372.83	126.39
373.03	126.39
373.22	81.92
373.42	156.82
373.62	117.03
373.81	119.37
374.01	126.39
374.21	110.01
374.40	65.54
374.60	142.77
374.79	175.54
374.99	140.43
375.19	98.30
375.38	234.05
375.58	168.52
375.78	156.82
375.97	196.60
376.17	175.54
376.37	159.16
376.56	177.88
376.76	149.79
376.95	154.48
377.15	112.35
377.35	135.75
377.54	140.43
377.74	135.75
377.93	60.85
378.13	215.33
378.33	138.09
378.52	88.94
378.72	117.03
378.91	131.07
379.11	58.51
379.31	100.64
379.50	81.92
379.70	107.66
379.89	154.48
380.09	154.48
380.28	149.79
380.48	135.75
380.68	119.37
380.87	93.62
381.07	166.18
381.26	170.86
381.46	220.01
381.65	184.90
381.85	152.13
382.04	95.96
382.24	117.03
382.43	138.09
382.63	142.77
382.83	112.35
383.02	187.24
383.22	147.45
383.41	107.66
383.61	119.37
383.80	177.88
384.00	163.84
384.19	86.60
384.39	175.54
384.58	105.32
384.78	175.54
384.97	140.43
385.17	145.11
385.36	159.16
385.56	177.88
385.75	58.51
385.95	133.41
386.14	175.54
386.34	119.37
386.53	145.11
386.72	110.01
386.92	182.56
387.11	133.41
387.31	67.88
387.50	203.63
387.70	166.18
387.89	119.37
388.09	203.63
388.28	187.24
388.48	117.03
388.67	191.92
388.86	105.32
389.06	138.09
389.25	133.41
389.45	215.33
389.64	187.24
389.84	227.03
390.03	138.09
390.22	159.16
390.42	126.39
390.61	131.07
390.81	119.37
391.00	131.07
391.19	121.71
391.39	152.13
391.58	210.65
391.78	191.92
391.97	128.73
392.16	93.62
392.36	140.43
392.55	121.71
392.75	117.03
392.94	175.54
393.13	131.07
393.33	170.86
393.52	128.73
393.71	180.22
393.91	117.03
394.10	154.48
394.29	191.92
394.49	203.63
394.68	163.84
394.88	154.48
395.07	191.92
395.26	119.37
395.46	194.26
395.65	177.88
395.84	161.50
396.04	217.67
396.23	208.31
396.42	175.54
396.62	152.13
396.81	145.11
397.00	159.16
397.19	196.60
397.39	138.09
397.58	156.82
397.77	114.69
397.97	147.45
398.16	161.50
398.35	74.90
398.55	74.90
398.74	93.62
398.93	224.69
399.12	149.79
399.32	156.82
399.51	152.13
399.70	156.82
399.90	128.73
400.09	145.11
400.28	170.86
400.47	126.39
400.67	173.20
400.86	145.11
401.05	149.79
401.24	222.35
401.44	149.79
401.63	138.09
401.82	114.69
402.01	72.56
402.21	161.50
402.40	180.22
402.59	140.43
402.78	138.09
402.97	102.98
403.17	128.73
403.36	159.16
403.55	222.35
403.74	154.48
403.93	175.54
404.13	248.10
404.32	238.73
404.51	180.22
404.70	229.37
404.89	149.79
405.09	201.29
405.28	138.09
405.47	79.58
405.66	166.18
405.85	124.05
406.05	147.45
406.24	128.73
406.43	149.79
406.62	112.35
406.81	203.63
407.00	255.12
407.20	126.39
407.39	191.92
407.58	166.18
407.77	191.92
407.96	166.18
408.15	231.71
408.34	170.86
408.54	166.18
408.73	203.63
408.92	159.16
409.11	215.33
409.30	168.52
409.49	173.20
409.68	245.76
409.87	203.63
410.07	168.52
410.26	180.22
410.45	191.92
410.64	170.86
410.83	147.45
411.02	124.05
411.21	149.79
411.40	161.50
411.59	180.22
411.78	98.30
411.98	156.82
412.17	198.95
412.36	124.05
412.55	222.35
412.74	168.52
412.93	220.01
413.12	110.01
413.31	105.32
413.50	149.79
413.69	159.16
413.88	191.92
414.07	135.75
414.26	63.19
414.45	110.01
414.64	203.63
414.83	168.52
415.02	170.86
415.22	147.45
415.41	210.65
415.60	194.26
415.79	163.84
415.98	243.42
416.17	196.60
416.36	201.29
416.55	102.98
416.74	203.63
416.93	173.20
417.12	145.11
417.31	142.77
417.50	159.16
417.69	241.08
417.88	231.71
418.07	241.08
418.26	177.88
418.45	168.52
418.64	229.37
418.83	222.35
419.02	201.29
419.21	222.35
419.39	255.12
419.58	208.31
419.77	177.88
419.96	292.57
420.15	278.52
420.34	177.88
420.53	177.88
420.72	229.37
420.91	166.18
421.10	203.63
421.29	86.60
421.48	224.69
421.67	250.44
421.86	121.71
422.05	208.31
422.24	175.54
422.43	191.92
422.61	177.88
422.80	98.30
422.99	135.75
423.18	93.62
423.37	257.46
423.56	203.63
423.75	189.58
423.94	117.03
424.13	128.73
424.32	191.92
424.50	191.92
424.69	161.50
424.88	229.37
425.07	126.39
425.26	159.16
425.45	234.05
425.64	175.54
425.83	189.58
426.01	170.86
426.20	236.39
426.39	234.05
426.58	126.39
426.77	194.26
426.96	201.29
427.15	100.64
427.33	102.98
427.52	86.60
427.71	227.03
427.90	184.90
428.09	166.18
428.28	177.88
428.46	180.22
428.65	238.73
428.84	224.69
429.03	184.90
429.22	180.22
429.40	145.11
429.59	81.92
429.78	163.84
429.97	187.24
430.16	208.31
430.34	208.31
430.53	140.43
430.72	198.95
430.91	205.97
431.10	191.92
431.28	175.54
431.47	142.77
431.66	184.90
431.85	191.92
432.03	175.54
432.22	273.84
432.41	138.09
432.60	138.09
432.79	217.67
432.97	332.36
433.16	278.52
433.35	191.92
433.54	189.58
433.72	283.20
433.91	212.99
434.10	121.71
434.28	224.69
434.47	205.97
434.66	215.33
434.85	184.90
435.03	201.29
435.22	337.04
435.41	383.85
435.59	367.46
435.78	362.78
435.97	189.58
436.16	187.24
436.34	105.32
436.53	194.26
436.72	215.33
436.90	159.16
437.09	163.84
437.28	147.45
437.46	198.95
437.65	154.48
437.84	227.03
438.02	201.29
438.21	126.39
438.40	163.84
438.58	145.11
438.77	208.31
438.96	145.11
439.14	107.66
439.33	152.13
439.52	203.63
439.70	166.18
439.89	201.29
440.08	191.92
440.26	283.20
440.45	255.12
440.63	145.11
440.82	149.79
441.01	168.52
441.19	154.48
441.38	182.56
441.57	191.92
441.75	163.84
441.94	257.46
442.12	152.13
442.31	149.79
442.50	124.05
442.68	210.65
442.87	149.79
443.05	191.92
443.24	156.82
443.43	152.13
443.61	215.33
443.80	147.45
443.98	145.11
444.17	133.41
444.35	273.84
444.54	203.63
444.73	152.13
444.91	245.76
445.10	215.33
445.28	196.60
445.47	215.33
445.65	210.65
445.84	184.90
446.02	184.90
446.21	170.86
446.39	180.22
446.58	208.31
446.77	152.13
446.95	187.24
447.14	196.60
447.32	212.99
447.51	177.88
447.69	142.77
447.88	182.56
448.06	194.26
448.25	159.16
448.43	177.88
448.62	245.76
448.80	163.84
448.99	231.71
449.17	147.45
449.36	180.22
449.54	264.48
449.73	177.88
449.91	170.86
450.10	264.48
450.28	170.86
450.46	217.67
450.65	173.20
450.83	184.90
451.02	187.24
451.20	205.97
451.39	203.63
451.57	191.92
451.76	126.39
451.94	212.99
452.13	191.92
452.31	173.20
452.49	201.29
452.68	177.88
452.86	105.32
453.05	184.90
453.23	196.60
453.42	142.77
453.60	187.24
453.78	170.86
453.97	205.97
454.15	100.64
454.34	168.52
454.52	196.60
454.70	215.33
454.89	229.37
455.07	161.50
455.26	220.01
455.44	255.12
455.62	175.54
455.81	180.22
455.99	252.78
456.17	252.78
456.36	128.73
456.54	217.67
456.73	229.37
456.91	119.37
457.09	201.29
457.28	212.99
457.46	182.56
457.64	238.73
457.83	180.22
458.01	201.29
458.19	124.05
458.38	131.07
458.56	248.10
458.74	163.84
458.93	173.20
459.11	210.65
459.29	154.48
459.48	259.80
459.66	245.76
459.84	191.92
460.03	227.03
460.21	184.90
460.39	175.54
460.57	217.67
460.76	161.50
460.94	135.75
461.12	278.52
461.31	290.23
461.49	224.69
461.67	189.58
461.85	220.01
462.04	231.71
462.22	620.24
462.40	222.35
462.59	264.48
462.77	205.97
462.95	189.58
463.13	191.92
463.32	180.22
463.50	229.37
463.68	203.63
463.86	245.76
464.05	182.56
464.23	203.63
464.41	217.67
464.59	184.90
464.78	152.13
464.96	224.69
465.14	138.09
465.32	142.77
465.50	142.77
465.69	250.44
465.87	227.03
466.05	245.76
466.23	222.35
466.41	189.58
466.60	238.73
466.78	222.35
466.96	285.55
467.14	138.09
467.32	182.56
467.51	234.05
467.69	236.39
467.87	243.42
468.05	196.60
468.23	196.60
468.41	182.56
468.60	201.29
468.78	175.54
468.96	191.92
469.14	234.05
469.32	175.54
469.50	177.88
469.69	245.76
469.87	283.20
470.05	215.33
470.23	210.65
470.41	163.84
470.59	126.39
470.77	203.63
470.95	271.50
471.14	208.31
471.32	182.56
471.50	217.67
471.68	128.73
471.86	222.35
472.04	196.60
472.22	191.92
472.40	210.65
472.58	114.69
472.77	175.54
472.95	175.54
473.13	163.84
473.31	301.93
473.49	208.31
473.67	173.20
473.85	222.35
474.03	212.99
474.21	257.46
474.39	248.10
474.57	255.12
474.75	196.60
474.93	175.54
475.12	154.48
475.30	203.63
475.48	229.37
475.66	168.52
475.84	161.50
476.02	170.86
476.20	203.63
476.38	177.88
476.56	250.44
476.74	205.97
476.92	173.20
477.10	117.03
477.28	229.37
477.46	234.05
477.64	238.73
477.82	208.31
478.00	194.26
478.18	217.67
478.36	152.13
478.54	287.89
478.72	159.16
478.90	248.10
479.08	184.90
479.26	224.69
479.44	191.92
479.62	245.76
479.80	252.78
479.98	271.50
480.16	224.69
480.34	234.05
480.52	220.01
480.70	180.22
480.88	142.77
481.06	205.97
481.24	248.10
481.41	227.03
481.59	269.16
481.77	208.31
481.95	205.97
482.13	189.58
482.31	156.82
482.49	241.08
482.67	234.05
482.85	234.05
483.03	166.18
483.21	229.37
483.39	220.01
483.57	320.65
483.74	283.20
483.92	290.23
484.10	241.08
484.28	224.69
484.46	222.35
484.64	280.86
484.82	255.12
485.00	231.71
485.18	264.48
485.35	205.97
485.53	215.33
485.71	266.82
485.89	203.63
486.07	140.43
486.25	278.52
486.43	285.55
486.61	210.65
486.78	280.86
486.96	201.29
487.14	245.76
487.32	278.52
487.50	208.31
487.68	266.82
487.85	259.80
488.03	241.08
488.21	245.76
488.39	255.12
488.57	259.80
488.75	285.55
488.92	519.60
489.10	154.48
489.28	304.27
489.46	243.42
489.64	231.71
489.81	212.99
489.99	276.18
490.17	203.63
490.35	334.70
490.53	266.82
490.70	222.35
490.88	348.74
491.06	222.35
491.24	257.46
491.41	337.04
491.59	322.99
491.77	208.31
491.95	311.29
492.13	250.44
492.30	280.86
492.48	215.33
492.66	332.36
492.84	322.99
493.01	248.10
493.19	224.69
493.37	224.69
493.54	227.03
493.72	250.44
493.90	203.63
494.08	236.39
494.25	259.80
494.43	269.16
494.61	287.89
494.79	269.16
494.96	196.60
495.14	304.27
495.32	250.44
495.49	259.80
495.67	299.59
495.85	220.01
496.02	222.35
496.20	287.89
496.38	182.56
496.55	205.97
496.73	212.99
496.91	220.01
497.09	229.37
497.26	210.65
497.44	278.52
497.62	290.23
497.79	341.72
497.97	250.44
498.14	231.71
498.32	220.01
498.50	341.72
498.67	257.46
498.85	238.73
499.03	248.10
499.20	271.50
499.38	241.08
499.56	262.14
499.73	248.10
499.91	287.89
500.08	154.48
500.26	168.52
500.44	245.76
500.61	280.86
500.79	306.61
500.97	175.54
501.14	222.35
501.32	227.03
501.49	311.29
501.67	182.56
501.84	266.82
502.02	229.37
502.20	287.89
502.37	294.91
502.55	248.10
502.72	292.57
502.90	271.50
503.07	304.27
503.25	241.08
503.43	212.99
503.60	266.82
503.78	290.23
503.95	243.42
504.13	257.46
504.30	257.46
504.48	283.20
504.65	287.89
504.83	227.03
505.01	250.44
505.18	255.12
505.36	283.20
505.53	184.90
505.71	252.78
505.88	252.78
506.06	285.55
506.23	252.78
506.41	227.03
506.58	266.82
506.76	264.48
506.93	280.86
507.11	210.65
507.28	224.69
507.46	304.27
507.63	285.55
507.81	194.26
507.98	341.72
508.16	208.31
508.33	318.31
508.50	241.08
508.68	264.48
508.85	280.86
509.03	301.93
509.20	280.86
509.38	278.52
509.55	301.93
509.73	294.91
509.90	285.55
510.08	238.73
510.25	294.91
510.42	182.56
510.60	259.80
510.77	245.76
510.95	337.04
511.12	283.20
511.30	245.76
511.47	332.36
511.64	315.97
511.82	245.76
511.99	287.89
512.17	217.67
512.34	252.78
512.51	278.52
512.69	236.39
512.86	255.12
513.04	196.60
513.21	355.76
513.38	170.86
513.56	271.50
513.73	285.55
513.90	294.91
514.08	283.20
514.25	273.84
514.43	306.61
514.60	278.52
514.77	311.29
514.95	299.59
515.12	224.69
515.29	283.20
515.47	271.50
515.64	283.20
515.81	273.84
515.99	276.18
516.16	294.91
516.33	322.99
516.51	234.05
516.68	119.37
516.85	205.97
517.03	308.95
517.20	276.18
517.37	269.16
517.54	278.52
517.72	292.57
517.89	201.29
518.06	224.69
518.24	341.72
518.41	351.08
518.58	283.20
518.75	243.42
518.93	280.86
519.10	299.59
519.27	271.50
519.45	266.82
519.62	306.61
519.79	255.12
519.96	299.59
520.14	236.39
520.31	306.61
520.48	276.18
520.65	308.95
520.83	325.33
521.00	290.23
521.17	243.42
521.34	301.93
521.52	318.31
521.69	257.46
521.86	255.12
522.03	315.97
522.20	252.78
522.38	262.14
522.55	280.86
522.72	191.92
522.89	360.44
523.07	301.93
523.24	248.10
523.41	322.99
523.58	346.40
523.75	220.01
523.92	266.82
524.10	210.65
524.27	308.95
524.44	269.16
524.61	283.20
524.78	290.23
524.96	360.44
525.13	320.65
525.30	273.84
525.47	294.91
525.64	287.89
525.81	220.01
525.98	290.23
526.16	278.52
526.33	222.35
526.50	245.76
526.67	259.80
526.84	205.97
527.01	220.01
527.18	308.95
527.36	250.44
527.53	220.01
527.70	217.67
527.87	374.49
528.04	334.70
528.21	248.10
528.38	278.52
528.55	325.33
528.72	306.61
528.89	330.02
529.07	304.27
529.24	287.89
529.41	339.38
529.58	248.10
529.75	252.78
529.92	273.84
530.09	308.95
530.26	215.33
530.43	315.97
530.60	262.14
530.77	184.90
530.94	255.12
531.11	299.59
531.28	203.63
531.46	283.20
531.63	248.10
531.80	271.50
531.97	271.50
532.14	245.76
532.31	301.93
532.48	308.95
532.65	341.72
532.82	416.62
532.99	454.06
533.16	334.70
533.33	339.38
533.50	301.93
533.67	327.68
533.84	353.42
534.01	472.79
534.18	365.12
534.35	386.19
534.52	297.25
534.69	369.80
534.86	325.33
535.03	280.86
535.20	283.20
535.37	313.63
535.54	344.06
535.71	250.44
535.88	358.10
536.05	306.61
536.22	369.80
536.38	339.38
536.55	271.50
536.72	266.82
536.89	238.73
537.06	360.44
537.23	330.02
537.40	306.61
537.57	348.74
537.74	381.51
537.91	299.59
538.08	397.89
538.25	301.93
538.42	257.46
538.59	360.44
538.75	262.14
538.92	411.93
539.09	379.17
539.26	414.27
539.43	550.03
539.60	919.83
539.77	1495.60
539.94	1692.21
540.11	1167.93
540.28	723.23
540.44	648.33
540.61	526.62
540.78	374.49
540.95	449.38
541.12	503.22
541.29	437.68
541.46	594.50
541.62	472.79
541.79	472.79
541.96	486.83
542.13	416.62
542.30	425.98
542.47	421.30
542.63	465.77
542.80	470.45
542.97	489.17
543.14	442.36
543.31	472.79
543.48	507.90
543.64	510.24
543.81	386.19
543.98	414.27
544.15	404.91
544.32	526.62
544.48	479.81
544.65	339.38
544.82	510.24
544.99	463.43
545.16	397.89
545.32	477.47
545.49	662.37
545.66	798.12
545.83	912.81
546.00	837.91
546.16	568.75
546.33	496.19
546.50	454.06
546.67	482.15
546.83	372.15
547.00	423.64
547.17	414.27
547.34	304.27
547.50	390.87
547.67	463.43
547.84	346.40
548.00	393.21
548.17	393.21
548.34	344.06
548.51	404.91
548.67	379.17
548.84	355.76
549.01	365.12
549.18	351.08
549.34	301.93
549.51	313.63
549.68	367.46
549.84	332.36
550.01	379.17
550.18	472.79
550.34	381.51
550.51	322.99
550.68	444.70
550.84	353.42
551.01	325.33
551.18	332.36
551.34	318.31
551.51	383.85
551.68	313.63
551.84	306.61
552.01	294.91
552.18	304.27
552.34	276.18
552.51	318.31
552.68	301.93
552.84	304.27
553.01	250.44
553.18	297.25
553.34	287.89
553.51	308.95
553.67	299.59
553.84	306.61
554.01	248.10
554.17	220.01
554.34	278.52
554.51	299.59
554.67	344.06
554.84	273.84
555.00	325.33
555.17	252.78
555.33	322.99
555.50	304.27
555.67	278.52
555.83	271.50
556.00	330.02
556.16	456.40
556.33	273.84
556.50	285.55
556.66	318.31
556.83	290.23
556.99	231.71
557.16	311.29
557.32	257.46
557.49	290.23
557.65	271.50
557.82	266.82
557.98	238.73
558.15	276.18
558.32	217.67
558.48	292.57
558.65	177.88
558.81	365.12
558.98	224.69
559.14	358.10
559.31	243.42
559.47	308.95
559.64	299.59
559.80	262.14
559.97	257.46
560.13	276.18
560.30	238.73
560.46	304.27
560.63	203.63
560.79	290.23
560.96	264.48
561.12	283.20
561.29	360.44
561.45	220.01
561.61	210.65
561.78	344.06
561.94	212.99
562.11	278.52
562.27	229.37
562.44	301.93
562.60	287.89
562.77	259.80
562.93	322.99
563.10	252.78
563.26	299.59
563.42	308.95
563.59	278.52
563.75	184.90
563.92	264.48
564.08	294.91
564.24	318.31
564.41	313.63
564.57	255.12
564.74	189.58
564.90	283.20
565.07	276.18
565.23	332.36
565.39	297.25
565.56	273.84
565.72	287.89
565.88	325.33
566.05	229.37
566.21	229.37
566.38	234.05
566.54	318.31
566.70	304.27
566.87	208.31
567.03	280.86
567.19	257.46
567.36	294.91
567.52	290.23
567.68	264.48
567.85	238.73
568.01	339.38
568.17	327.68
568.34	311.29
568.50	271.50
568.66	297.25
568.83	379.17
568.99	304.27
569.15	320.65
569.32	250.44
569.48	278.52
569.64	194.26
569.81	285.55
569.97	255.12
570.13	238.73
570.30	224.69
570.46	248.10
570.62	264.48
570.78	339.38
570.95	248.10
571.11	297.25
571.27	196.60
571.43	236.39
571.60	255.12
571.76	234.05
571.92	322.99
572.09	304.27
572.25	278.52
572.41	299.59
572.57	278.52
572.74	243.42
572.90	250.44
573.06	269.16
573.22	337.04
573.38	301.93
573.55	313.63
573.71	346.40
573.87	191.92
574.03	273.84
574.20	252.78
574.36	315.97
574.52	351.08
574.68	381.51
574.84	287.89
575.01	414.27
575.17	285.55
575.33	273.84
575.49	339.38
575.65	318.31
575.82	372.15
575.98	479.81
576.14	592.16
576.30	755.99
576.46	596.84
576.62	484.49
576.79	404.91
576.95	449.38
577.11	327.68
577.27	308.95
577.43	332.36
577.59	341.72
577.75	306.61
577.92	287.89
578.08	325.33
578.24	327.68
578.40	418.96
578.56	421.30
578.72	489.17
578.88	451.72
579.04	369.80
579.21	374.49
579.37	330.02
579.53	402.57
579.69	416.62
579.85	299.59
580.01	383.85
580.17	407.25
580.33	393.21
580.49	411.93
580.65	393.21
580.82	449.38
580.98	360.44
581.14	306.61
581.30	425.98
581.46	496.19
581.62	587.47
581.78	599.18
581.94	648.33
582.10	550.03
582.26	519.60
582.42	528.96
582.58	524.28
582.74	489.17
582.90	472.79
583.06	578.11
583.22	454.06
583.38	531.30
583.54	580.45
583.70	643.65
583.86	727.91
584.02	781.74
584.18	873.02
584.34	1006.43
584.50	2373.30
584.66	15080.07
584.82	46195.15
584.98	62929.98
585.14	62606.99
585.30	46660.92
585.46	26745.30
585.62	16395.45
585.78	7639.51
585.94	2984.18
586.10	1544.75
586.26	1057.92
586.42	868.34
586.58	723.23
586.74	648.33
586.90	676.41
587.06	622.58
587.22	645.99
587.38	543.00
587.54	891.74
587.70	2719.70
587.86	4901.08
588.02	6373.28
588.18	4404.89
588.34	2803.96
588.49	1750.72
588.65	1165.59
588.81	648.33
588.97	433.00
589.13	325.33
589.29	423.64
589.45	362.78
589.61	337.04
589.77	421.30
589.93	400.23
590.08	486.83
590.24	498.53
590.40	472.79
590.56	402.57
590.72	404.91
590.88	423.64
591.04	369.80
591.20	449.38
591.35	458.74
591.51	355.76
591.67	315.97
591.83	402.57
591.99	376.83
592.15	393.21
592.31	362.78
592.46	402.57
592.62	416.62
592.78	297.25
592.94	355.76
593.10	390.87
593.26	425.98
593.41	400.23
593.57	428.32
593.73	596.84
593.89	1928.60
594.05	5439.40
594.20	9582.15
594.36	10235.16
594.52	6553.50
594.68	3857.20
594.84	2579.27
594.99	1533.05
595.15	748.97
595.31	447.04
595.47	451.72
595.62	367.46
595.78	395.55
595.94	400.23
596.10	346.40
596.25	358.10
596.41	482.15
596.57	360.44
596.73	365.12
596.88	500.87
597.04	1107.07
597.20	1984.77
597.36	2796.94
597.51	2120.53
597.67	1369.21
597.83	966.64
597.99	727.91
598.14	440.02
598.30	456.40
598.46	369.80
598.61	360.44
598.77	411.93
598.93	353.42
599.09	360.44
599.24	311.29
599.40	393.21
599.56	367.46
599.71	292.57
599.87	285.55
600.03	315.97
600.18	322.99
600.34	264.48
600.50	322.99
600.65	318.31
600.81	294.91
600.97	299.59
601.12	278.52
601.28	337.04
601.44	325.33
601.59	236.39
601.75	320.65
601.91	250.44
602.06	236.39
602.22	397.89
602.37	641.31
602.53	1313.04
602.69	2326.49
602.84	2733.75
603.00	2108.82
603.16	1303.68
603.31	1011.11
603.47	648.33
603.62	428.32
603.78	365.12
603.94	283.20
604.09	330.02
604.25	344.06
604.40	322.99
604.56	334.70
604.71	311.29
604.87	299.59
605.03	374.49
605.18	416.62
605.34	400.23
605.49	283.20
605.65	358.10
605.80	315.97
605.96	306.61
606.12	315.97
606.27	404.91
606.43	304.27
606.58	428.32
606.74	741.95
606.89	2633.10
607.05	5509.62
607.20	8608.49
607.36	7515.46
607.51	5008.75
607.67	3220.58
607.82	2101.80
607.98	1275.59
608.13	706.84
608.29	533.64
608.44	437.68
608.60	510.24
608.75	582.79
608.91	917.49
609.06	3829.12
609.22	9053.19
609.37	15154.97
609.53	13720.22
609.68	9067.24
609.84	5416.00
609.99	3798.69
610.15	2207.13
610.30	1214.74
610.46	947.92
610.61	795.78
610.76	905.79
610.92	966.64
611.07	990.05
611.23	1076.65
611.38	966.64
611.54	849.61
611.69	767.70
611.84	699.82
612.00	648.33
612.15	622.58
612.31	636.63
612.46	798.12
612.62	844.93
612.77	940.90
612.92	758.33
613.08	737.27
613.23	697.48
613.39	601.52
613.54	847.27
613.69	3358.67
613.85	10562.84
614.00	20369.68
614.15	24463.28
614.31	17057.82
614.46	10642.42
614.62	6937.35
614.77	4400.21
614.92	2066.69
615.08	1132.82
615.23	655.35
615.38	585.13
615.54	592.16
615.69	716.20
615.84	2097.12
616.00	4386.16
616.15	6473.92
616.30	5401.96
616.46	3569.32
616.61	2495.01
616.76	1598.59
616.92	863.66
617.07	592.16
617.22	442.36
617.37	400.23
617.53	423.64
617.68	379.17
617.83	386.19
617.99	404.91
618.14	461.09
618.29	360.44
618.45	304.27
618.60	320.65
618.75	257.46
618.90	269.16
619.06	264.48
619.21	341.72
619.36	341.72
619.51	367.46
619.67	311.29
619.82	283.20
619.97	369.80
620.12	313.63
620.28	362.78
620.43	311.29
620.58	322.99
620.73	353.42
620.89	341.72
621.04	463.43
621.19	1135.16
621.34	2377.98
621.49	3684.00
621.65	3592.72
621.80	2478.63
621.95	1617.31
622.10	1146.86
622.25	751.31
622.41	479.81
622.56	386.19
622.71	341.72
622.86	301.93
623.01	313.63
623.16	400.23
623.32	259.80
623.47	327.68
623.62	297.25
623.77	313.63
623.92	248.10
624.07	355.76
624.23	297.25
624.38	266.82
624.53	276.18
624.68	287.89
624.83	327.68
624.98	292.57
625.13	283.20
625.29	299.59
625.44	301.93
625.59	306.61
625.74	379.17
625.89	514.92
626.04	1689.87
626.19	5404.30
626.34	9989.41
626.49	12732.51
626.65	9401.93
626.80	6195.40
626.95	4126.36
627.10	2633.10
627.25	1348.15
627.40	671.73
627.55	493.85
627.70	388.53
627.85	479.81
628.00	269.16
628.15	315.97
628.30	367.46
628.45	243.42
628.60	278.52
628.76	301.93
628.91	313.63
629.06	304.27
629.21	266.82
629.36	283.20
629.51	287.89
629.66	255.12
629.81	421.30
629.96	1057.92
630.11	2186.06
630.26	3232.28
630.41	2953.76
630.56	2207.13
630.71	1427.73
630.86	1027.50
631.01	702.16
631.16	444.70
631.31	409.59
631.46	337.04
631.61	344.06
631.76	318.31
631.91	346.40
632.06	400.23
632.21	337.04
632.36	297.25
632.51	353.42
632.66	402.57
632.81	933.87
632.96	2881.20
633.10	5797.51
633.25	8636.58
633.40	7358.64
633.55	4943.21
633.70	3206.53
633.85	2125.21
634.00	1188.99
634.15	603.86
634.30	510.24
634.45	409.59
634.60	304.27
634.75	318.31
634.90	220.01
635.05	297.25
635.19	227.03
635.34	337.04
635.49	276.18
635.64	280.86
635.79	344.06
635.94	301.93
636.09	280.86
636.24	334.70
636.39	308.95
636.53	348.74
636.68	271.50
636.83	318.31
636.98	353.42
637.13	287.89
637.28	367.46
637.43	407.25
637.57	589.82
637.72	2237.55
637.87	6918.62
638.02	12681.02
638.17	16641.21
638.32	11967.16
638.46	7953.14
638.61	5317.70
638.76	3194.83
638.91	1696.89
639.06	830.89
639.20	617.90
639.35	636.63
639.50	791.10
639.65	3293.13
639.80	10029.20
639.94	19517.73
640.09	24971.18
640.24	17954.25
640.39	11438.20
640.54	7573.97
640.68	4641.28
640.83	2338.20
640.98	1177.29
641.13	610.88
641.27	538.32
641.42	411.93
641.57	416.62
641.72	353.42
641.86	411.93
642.01	285.55
642.16	297.25
642.31	264.48
642.45	311.29
642.60	358.10
642.75	262.14
642.90	276.18
643.04	224.69
643.19	205.97
643.34	234.05
643.48	374.49
643.63	189.58
643.78	252.78
643.93	306.61
644.07	241.08
644.22	327.68
644.37	273.84
644.51	299.59
644.66	264.48
644.81	264.48
644.95	187.24
645.10	196.60
645.25	290.23
645.39	245.76
645.54	280.86
645.69	285.55
645.83	234.05
645.98	290.23
646.13	234.05
646.27	231.71
646.42	201.29
646.57	210.65
646.71	262.14
646.86	205.97
647.00	285.55
647.15	266.82
647.30	262.14
647.44	222.35
647.59	236.39
647.74	163.84
647.88	205.97
648.03	187.24
648.17	252.78
648.32	184.90
648.47	257.46
648.61	234.05
648.76	273.84
648.90	290.23
649.05	189.58
649.20	252.78
649.34	257.46
649.49	311.29
649.63	330.02
649.78	299.59
649.92	500.87
650.07	1322.40
650.21	4479.79
650.36	9071.92
650.51	12898.69
650.65	10736.04
650.80	7478.01
650.94	4802.78
651.09	3098.87
651.23	1739.02
651.38	851.96
651.52	484.49
651.67	435.34
651.81	346.40
651.96	320.65
652.10	325.33
652.25	290.23
652.39	287.89
652.54	320.65
652.68	493.85
652.83	1526.03
652.97	2909.29
653.12	4674.05
653.26	4243.39
653.41	3073.12
653.55	2097.12
653.70	1409.00
653.84	856.64
653.99	475.13
654.13	362.78
654.27	224.69
654.42	238.73
654.56	250.44
654.71	227.03
654.85	222.35
655.00	156.82
655.14	203.63
655.29	187.24
655.43	327.68
655.57	259.80
655.72	257.46
655.86	170.86
656.01	222.35
656.15	231.71
656.30	231.71
656.44	234.05
656.58	229.37
656.73	203.63
656.87	248.10
657.01	259.80
657.16	294.91
657.30	198.95
657.45	283.20
657.59	222.35
657.73	278.52
657.88	220.01
658.02	376.83
658.16	250.44
658.31	257.46
658.45	241.08
658.60	264.48
658.74	276.18
658.88	203.63
659.03	273.84
659.17	210.65
659.31	683.44
659.46	2148.61
659.60	4215.30
659.74	6345.19
659.89	5647.71
660.03	4159.13
660.17	2878.86
660.32	1778.81
660.46	1060.26
660.60	636.63
660.74	372.15
660.89	255.12
661.03	292.57
661.17	259.80
661.32	292.57
661.46	210.65
661.60	215.33
661.74	271.50
661.89	262.14
662.03	264.48
662.17	217.67
662.31	189.58
662.46	201.29
662.60	264.48
662.74	271.50
662.88	273.84
663.03	266.82
663.17	187.24
663.31	191.92
663.45	243.42
663.60	203.63
663.74	297.25
663.88	168.52
664.02	241.08
664.17	203.63
664.31	201.29
664.45	250.44
664.59	210.65
664.73	241.08
664.88	203.63
665.02	208.31
665.16	255.12
665.30	243.42
665.44	262.14
665.59	173.20
665.73	250.44
665.87	294.91
666.01	280.86
666.15	294.91
666.29	250.44
666.44	299.59
666.58	304.27
666.72	264.48
666.86	318.31
667.00	330.02
667.14	376.83
667.28	1263.89
667.43	3728.47
667.57	7581.00
667.71	10820.30
667.85	9673.43
667.99	7201.83
668.13	4435.32
668.27	2682.25
668.41	1465.18
668.56	880.04
668.70	545.34
668.84	411.93
668.98	360.44
669.12	217.67
669.26	311.29
669.40	280.86
669.54	189.58
669.68	283.20
669.82	231.71
669.96	262.14
670.10	252.78
670.25	205.97
670.39	236.39
670.53	234.05
670.67	285.55
670.81	238.73
670.95	287.89
671.09	407.25
671.23	1511.99
671.37	3669.96
671.51	6045.60
671.65	7222.89
671.79	5605.58
671.93	3892.31
672.07	2352.24
672.21	1380.92
672.35	840.25
672.49	538.32
672.63	388.53
672.77	269.16
672.91	264.48
673.05	238.73
673.19	259.80
673.33	241.08
673.47	327.68
673.61	241.08
673.75	306.61
673.89	208.31
674.03	271.50
674.17	196.60
674.31	180.22
674.45	276.18
674.59	152.13
674.73	201.29
674.87	191.92
675.01	264.48
675.15	269.16
675.29	287.89
675.43	374.49
675.56	294.91
675.70	327.68
675.84	231.71
675.98	173.20
676.12	201.29
676.26	201.29
676.40	182.56
676.54	140.43
676.68	156.82
676.82	184.90
676.96	168.52
677.10	208.31
677.23	159.16
677.37	234.05
677.51	177.88
677.65	255.12
677.79	205.97
677.93	173.20
678.07	168.52
678.21	194.26
678.34	187.24
678.48	187.24
678.62	140.43
678.76	205.97
678.90	234.05
679.04	203.63
679.18	175.54
679.31	208.31
679.45	187.24
679.59	175.54
679.73	189.58
679.87	119.37
680.00	166.18
680.14	224.69
680.28	217.67
680.42	238.73
680.56	135.75
680.70	177.88
680.83	227.03
680.97	184.90
681.11	248.10
681.25	224.69
681.39	201.29
681.52	236.39
681.66	201.29
681.80	208.31
681.94	154.48
682.07	175.54
682.21	215.33
682.35	198.95
682.49	203.63
682.62	276.18
682.76	173.20
682.90	189.58
683.04	180.22
683.17	180.22
683.31	175.54
683.45	189.58
683.59	201.29
683.72	166.18
683.86	177.88
684.00	194.26
684.13	152.13
684.27	210.65
684.41	238.73
684.55	215.33
684.68	161.50
684.82	140.43
684.96	159.16
685.09	224.69
685.23	147.45
685.37	212.99
685.50	259.80
685.64	215.33
685.78	159.16
685.91	194.26
686.05	198.95
686.19	194.26
686.32	187.24
686.46	187.24
686.60	154.48
686.73	208.31
686.87	243.42
687.01	220.01
687.14	194.26
687.28	238.73
687.42	168.52
687.55	140.43
687.69	248.10
687.82	229.37
687.96	227.03
688.10	273.84
688.23	184.90
688.37	273.84
688.50	198.95
688.64	215.33
688.78	217.67
688.91	91.28
689.05	135.75
689.18	124.05
689.32	205.97
689.46	205.97
689.59	173.20
689.73	224.69
689.86	152.13
690.00	159.16
690.13	152.13
690.27	184.90
690.41	184.90
690.54	210.65
690.68	173.20
690.81	234.05
690.95	145.11
691.08	189.58
691.22	182.56
691.35	245.76
691.49	212.99
691.62	154.48
691.76	145.11
691.89	205.97
692.03	149.79
692.16	241.08
692.30	250.44
692.43	503.22
692.57	1638.38
692.70	3171.43
692.84	4952.57
692.97	4760.65
693.11	3506.12
693.24	2583.95
693.38	1771.79
693.51	1275.59
693.65	821.53
693.78	575.77
693.92	355.76
694.05	313.63
694.19	243.42
694.32	248.10
694.45	128.73
694.59	255.12
694.72	222.35
694.86	220.01
694.99	238.73
695.13	182.56
695.26	140.43
695.39	147.45
695.53	217.67
695.66	180.22
695.80	229.37
695.93	163.84
696.07	250.44
696.20	315.97
696.33	528.96
696.47	505.56
696.60	503.22
696.73	376.83
696.87	337.04
697.00	304.27
697.14	224.69
697.27	182.56
697.40	259.80
697.54	198.95
697.67	198.95
697.80	182.56
697.94	159.16
698.07	208.31
698.21	140.43
698.34	191.92
698.47	133.41
698.61	135.75
698.74	154.48
698.87	198.95
699.01	227.03
699.14	166.18
699.27	196.60
699.40	341.72
699.54	191.92
699.67	220.01
699.80	126.39
699.94	126.39
700.07	194.26
700.20	117.03
700.34	173.20
700.47	212.99
700.60	203.63
700.73	212.99
700.87	276.18
701.00	187.24
701.13	156.82
701.26	161.50
701.40	191.92
701.53	163.84
701.66	220.01
701.79	191.92
701.93	177.88
702.06	355.76
702.19	388.53
702.32	510.24
702.46	472.79
702.59	493.85
702.72	692.80
702.85	2052.65
702.99	4631.92
703.12	8159.11
703.25	10195.37
703.38	8627.21
703.51	6855.43
703.65	5467.49
703.78	3861.88
703.91	2572.25
704.04	1624.33
704.17	1043.88
704.31	667.05
704.44	369.80
704.57	362.78
704.70	348.74
704.83	205.97
704.96	215.33
705.10	234.05
705.23	222.35
>>>>>End Processed Spectral Data<<<<<
