SpectraSuite Data File
++++++++++++++++++++++++++++++++++++
Date: Fri Oct 04 11:34:02 GMT-05:00 2013
User: price-jones
Dark Spectrum Present: No
Reference Spectrum Present: No
Number of Sampled Component Spectra: 1
Spectrometers: USB2+H05261
Integration Time (usec): 100000 (USB2+H05261)
Spectra Averaged: 1 (USB2+H05261)
Boxcar Smoothing: 0 (USB2+H05261)
Correct for Electrical Dark: No (USB2+H05261)
Strobe/Lamp Enabled: No (USB2+H05261)
Correct for Detector Non-linearity: No (USB2+H05261)
Correct for Stray Light: No (USB2+H05261)
Number of Pixels in Processed Spectrum: 2048
>>>>>Begin Processed Spectral Data<<<<<
365.73	100.64
365.92	100.64
366.12	100.64
366.32	98.30
366.52	9.36
366.72	32.77
366.91	4.68
367.11	0.00
367.31	0.00
367.51	0.00
367.70	35.11
367.90	60.85
368.10	0.00
368.30	0.00
368.49	0.00
368.69	35.11
368.89	0.00
369.09	2.34
369.28	0.00
369.48	53.83
369.68	46.81
369.87	0.00
370.07	23.41
370.27	16.38
370.47	56.17
370.66	105.32
370.86	44.47
371.06	93.62
371.25	95.96
371.45	11.70
371.65	138.09
371.84	67.88
372.04	105.32
372.24	102.98
372.44	107.66
372.63	149.79
372.83	215.33
373.03	208.31
373.22	173.20
373.42	126.39
373.62	173.20
373.81	119.37
374.01	231.71
374.21	117.03
374.40	140.43
374.60	152.13
374.79	128.73
374.99	98.30
375.19	142.77
375.38	184.90
375.58	138.09
375.78	154.48
375.97	210.65
376.17	203.63
376.37	173.20
376.56	196.60
376.76	149.79
376.95	39.79
377.15	107.66
377.35	128.73
377.54	173.20
377.74	133.41
377.93	168.52
378.13	180.22
378.33	182.56
378.52	147.45
378.72	220.01
378.91	187.24
379.11	145.11
379.31	98.30
379.50	119.37
379.70	177.88
379.89	100.64
380.09	140.43
380.28	147.45
380.48	107.66
380.68	126.39
380.87	65.54
381.07	159.16
381.26	126.39
381.46	138.09
381.65	208.31
381.85	119.37
382.04	159.16
382.24	107.66
382.43	128.73
382.63	135.75
382.83	234.05
383.02	196.60
383.22	166.18
383.41	173.20
383.61	121.71
383.80	147.45
384.00	161.50
384.19	177.88
384.39	166.18
384.58	142.77
384.78	95.96
384.97	142.77
385.17	124.05
385.36	65.54
385.56	180.22
385.75	131.07
385.95	156.82
386.14	196.60
386.34	138.09
386.53	159.16
386.72	105.32
386.92	177.88
387.11	229.37
387.31	145.11
387.50	128.73
387.70	112.35
387.89	149.79
388.09	81.92
388.28	138.09
388.48	149.79
388.67	191.92
388.86	177.88
389.06	154.48
389.25	191.92
389.45	229.37
389.64	147.45
389.84	257.46
390.03	117.03
390.22	98.30
390.42	124.05
390.61	112.35
390.81	177.88
391.00	140.43
391.19	159.16
391.39	149.79
391.58	163.84
391.78	84.26
391.97	163.84
392.16	173.20
392.36	182.56
392.55	196.60
392.75	152.13
392.94	117.03
393.13	117.03
393.33	133.41
393.52	93.62
393.71	117.03
393.91	191.92
394.10	72.56
394.29	93.62
394.49	210.65
394.68	201.29
394.88	222.35
395.07	138.09
395.26	166.18
395.46	88.94
395.65	102.98
395.84	112.35
396.04	241.08
396.23	110.01
396.42	177.88
396.62	119.37
396.81	124.05
397.00	166.18
397.19	138.09
397.39	119.37
397.58	191.92
397.77	84.26
397.97	163.84
398.16	145.11
398.35	222.35
398.55	156.82
398.74	152.13
398.93	124.05
399.12	138.09
399.32	201.29
399.51	117.03
399.70	145.11
399.90	124.05
400.09	145.11
400.28	170.86
400.47	124.05
400.67	194.26
400.86	145.11
401.05	145.11
401.24	102.98
401.44	177.88
401.63	145.11
401.82	184.90
402.01	133.41
402.21	124.05
402.40	196.60
402.59	119.37
402.78	161.50
402.97	67.88
403.17	182.56
403.36	110.01
403.55	124.05
403.74	154.48
403.93	262.14
404.13	220.01
404.32	243.42
404.51	231.71
404.70	166.18
404.89	224.69
405.09	86.60
405.28	135.75
405.47	140.43
405.66	152.13
405.85	180.22
406.05	156.82
406.24	191.92
406.43	119.37
406.62	231.71
406.81	201.29
407.00	191.92
407.20	205.97
407.39	133.41
407.58	229.37
407.77	182.56
407.96	238.73
408.15	170.86
408.34	119.37
408.54	161.50
408.73	201.29
408.92	32.77
409.11	149.79
409.30	119.37
409.49	184.90
409.68	170.86
409.87	156.82
410.07	131.07
410.26	161.50
410.45	184.90
410.64	170.86
410.83	173.20
411.02	121.71
411.21	126.39
411.40	140.43
411.59	133.41
411.78	121.71
411.98	140.43
412.17	184.90
412.36	170.86
412.55	95.96
412.74	238.73
412.93	196.60
413.12	154.48
413.31	250.44
413.50	203.63
413.69	133.41
413.88	210.65
414.07	110.01
414.26	173.20
414.45	184.90
414.64	182.56
414.83	154.48
415.02	147.45
415.22	177.88
415.41	196.60
415.60	170.86
415.79	201.29
415.98	222.35
416.17	142.77
416.36	224.69
416.55	152.13
416.74	187.24
416.93	227.03
417.12	128.73
417.31	110.01
417.50	159.16
417.69	285.55
417.88	271.50
418.07	156.82
418.26	184.90
418.45	243.42
418.64	320.65
418.83	201.29
419.02	222.35
419.21	255.12
419.39	238.73
419.58	187.24
419.77	236.39
419.96	231.71
420.15	198.95
420.34	227.03
420.53	175.54
420.72	187.24
420.91	170.86
421.10	248.10
421.29	166.18
421.48	126.39
421.67	201.29
421.86	187.24
422.05	184.90
422.24	156.82
422.43	142.77
422.61	175.54
422.80	147.45
422.99	133.41
423.18	135.75
423.37	212.99
423.56	175.54
423.75	131.07
423.94	163.84
424.13	189.58
424.32	163.84
424.50	177.88
424.69	182.56
424.88	177.88
425.07	142.77
425.26	227.03
425.45	259.80
425.64	283.20
425.83	217.67
426.01	283.20
426.20	222.35
426.39	166.18
426.58	173.20
426.77	191.92
426.96	196.60
427.15	170.86
427.33	149.79
427.52	128.73
427.71	152.13
427.90	49.15
428.09	131.07
428.28	212.99
428.46	142.77
428.65	198.95
428.84	161.50
429.03	224.69
429.22	210.65
429.40	161.50
429.59	152.13
429.78	243.42
429.97	231.71
430.16	154.48
430.34	98.30
430.53	149.79
430.72	91.28
430.91	189.58
431.10	124.05
431.28	126.39
431.47	227.03
431.66	217.67
431.85	156.82
432.03	133.41
432.22	196.60
432.41	152.13
432.60	290.23
432.79	117.03
432.97	313.63
433.16	367.46
433.35	252.78
433.54	287.89
433.72	205.97
433.91	163.84
434.10	145.11
434.28	180.22
434.47	187.24
434.66	184.90
434.85	152.13
435.03	194.26
435.22	376.83
435.41	461.09
435.59	421.30
435.78	386.19
435.97	276.18
436.16	322.99
436.34	145.11
436.53	145.11
436.72	250.44
436.90	140.43
437.09	191.92
437.28	147.45
437.46	128.73
437.65	159.16
437.84	117.03
438.02	191.92
438.21	145.11
438.40	187.24
438.58	168.52
438.77	135.75
438.96	168.52
439.14	163.84
439.33	280.86
439.52	114.69
439.70	182.56
439.89	224.69
440.08	168.52
440.26	212.99
440.45	180.22
440.63	191.92
440.82	138.09
441.01	278.52
441.19	222.35
441.38	203.63
441.57	220.01
441.75	255.12
441.94	264.48
442.12	196.60
442.31	119.37
442.50	142.77
442.68	196.60
442.87	210.65
443.05	177.88
443.24	147.45
443.43	205.97
443.61	250.44
443.80	163.84
443.98	161.50
444.17	163.84
444.35	119.37
444.54	205.97
444.73	238.73
444.91	215.33
445.10	201.29
445.28	140.43
445.47	231.71
445.65	166.18
445.84	159.16
446.02	166.18
446.21	182.56
446.39	238.73
446.58	264.48
446.77	131.07
446.95	184.90
447.14	259.80
447.32	227.03
447.51	210.65
447.69	180.22
447.88	259.80
448.06	285.55
448.25	222.35
448.43	170.86
448.62	168.52
448.80	191.92
448.99	100.64
449.17	149.79
449.36	194.26
449.54	205.97
449.73	147.45
449.91	212.99
450.10	208.31
450.28	250.44
450.46	283.20
450.65	257.46
450.83	238.73
451.02	205.97
451.20	182.56
451.39	184.90
451.57	245.76
451.76	79.58
451.94	161.50
452.13	220.01
452.31	177.88
452.49	283.20
452.68	180.22
452.86	180.22
453.05	236.39
453.23	194.26
453.42	140.43
453.60	142.77
453.78	173.20
453.97	217.67
454.15	152.13
454.34	238.73
454.52	161.50
454.70	224.69
454.89	166.18
455.07	117.03
455.26	208.31
455.44	236.39
455.62	163.84
455.81	205.97
455.99	184.90
456.17	210.65
456.36	205.97
456.54	131.07
456.73	210.65
456.91	124.05
457.09	166.18
457.28	159.16
457.46	149.79
457.64	210.65
457.83	245.76
458.01	212.99
458.19	191.92
458.38	196.60
458.56	210.65
458.74	215.33
458.93	257.46
459.11	140.43
459.29	182.56
459.48	189.58
459.66	217.67
459.84	81.92
460.03	276.18
460.21	292.57
460.39	187.24
460.57	140.43
460.76	140.43
460.94	217.67
461.12	269.16
461.31	229.37
461.49	191.92
461.67	191.92
461.85	152.13
462.04	152.13
462.22	629.60
462.40	241.08
462.59	217.67
462.77	222.35
462.95	145.11
463.13	212.99
463.32	252.78
463.50	140.43
463.68	238.73
463.86	173.20
464.05	241.08
464.23	241.08
464.41	259.80
464.59	208.31
464.78	238.73
464.96	142.77
465.14	231.71
465.32	133.41
465.50	217.67
465.69	215.33
465.87	163.84
466.05	222.35
466.23	177.88
466.41	173.20
466.60	222.35
466.78	133.41
466.96	191.92
467.14	175.54
467.32	191.92
467.51	117.03
467.69	222.35
467.87	250.44
468.05	212.99
468.23	215.33
468.41	227.03
468.60	149.79
468.78	243.42
468.96	173.20
469.14	231.71
469.32	145.11
469.50	208.31
469.69	138.09
469.87	220.01
470.05	234.05
470.23	241.08
470.41	220.01
470.59	149.79
470.77	175.54
470.95	212.99
471.14	243.42
471.32	238.73
471.50	276.18
471.68	234.05
471.86	243.42
472.04	180.22
472.22	266.82
472.40	210.65
472.58	241.08
472.77	212.99
472.95	173.20
473.13	276.18
473.31	252.78
473.49	205.97
473.67	196.60
473.85	248.10
474.03	252.78
474.21	177.88
474.39	184.90
474.57	205.97
474.75	196.60
474.93	177.88
475.12	135.75
475.30	152.13
475.48	184.90
475.66	168.52
475.84	203.63
476.02	205.97
476.20	241.08
476.38	210.65
476.56	212.99
476.74	173.20
476.92	187.24
477.10	238.73
477.28	215.33
477.46	227.03
477.64	187.24
477.82	140.43
478.00	140.43
478.18	191.92
478.36	173.20
478.54	175.54
478.72	173.20
478.90	238.73
479.08	170.86
479.26	222.35
479.44	163.84
479.62	227.03
479.80	166.18
479.98	184.90
480.16	231.71
480.34	182.56
480.52	220.01
480.70	262.14
480.88	241.08
481.06	175.54
481.24	163.84
481.41	236.39
481.59	304.27
481.77	220.01
481.95	229.37
482.13	238.73
482.31	161.50
482.49	205.97
482.67	276.18
482.85	285.55
483.03	243.42
483.21	301.93
483.39	238.73
483.57	252.78
483.74	297.25
483.92	208.31
484.10	262.14
484.28	266.82
484.46	297.25
484.64	196.60
484.82	121.71
485.00	191.92
485.18	255.12
485.35	285.55
485.53	236.39
485.71	269.16
485.89	149.79
486.07	222.35
486.25	278.52
486.43	285.55
486.61	220.01
486.78	234.05
486.96	189.58
487.14	238.73
487.32	255.12
487.50	308.95
487.68	264.48
487.85	348.74
488.03	229.37
488.21	283.20
488.39	346.40
488.57	217.67
488.75	231.71
488.92	507.90
489.10	276.18
489.28	322.99
489.46	271.50
489.64	315.97
489.81	287.89
489.99	208.31
490.17	308.95
490.35	276.18
490.53	145.11
490.70	315.97
490.88	266.82
491.06	177.88
491.24	294.91
491.41	259.80
491.59	229.37
491.77	203.63
491.95	198.95
492.13	273.84
492.30	290.23
492.48	280.86
492.66	245.76
492.84	269.16
493.01	264.48
493.19	238.73
493.37	299.59
493.54	229.37
493.72	220.01
493.90	278.52
494.08	203.63
494.25	257.46
494.43	299.59
494.61	191.92
494.79	208.31
494.96	318.31
495.14	315.97
495.32	210.65
495.49	264.48
495.67	250.44
495.85	252.78
496.02	142.77
496.20	278.52
496.38	278.52
496.55	287.89
496.73	330.02
496.91	304.27
497.09	220.01
497.26	224.69
497.44	259.80
497.62	252.78
497.79	266.82
497.97	280.86
498.14	250.44
498.32	215.33
498.50	177.88
498.67	266.82
498.85	243.42
499.03	315.97
499.20	245.76
499.38	201.29
499.56	290.23
499.73	339.38
499.91	280.86
500.08	205.97
500.26	283.20
500.44	166.18
500.61	285.55
500.79	194.26
500.97	175.54
501.14	301.93
501.32	220.01
501.49	271.50
501.67	250.44
501.84	252.78
502.02	220.01
502.20	266.82
502.37	276.18
502.55	266.82
502.72	292.57
502.90	210.65
503.07	252.78
503.25	229.37
503.43	266.82
503.60	271.50
503.78	243.42
503.95	273.84
504.13	229.37
504.30	229.37
504.48	229.37
504.65	262.14
504.83	222.35
505.01	255.12
505.18	187.24
505.36	273.84
505.53	257.46
505.71	287.89
505.88	269.16
506.06	259.80
506.23	170.86
506.41	203.63
506.58	215.33
506.76	341.72
506.93	255.12
507.11	311.29
507.28	196.60
507.46	184.90
507.63	257.46
507.81	234.05
507.98	269.16
508.16	203.63
508.33	315.97
508.50	229.37
508.68	255.12
508.85	304.27
509.03	278.52
509.20	234.05
509.38	276.18
509.55	297.25
509.73	308.95
509.90	287.89
510.08	278.52
510.25	297.25
510.42	283.20
510.60	245.76
510.77	278.52
510.95	292.57
511.12	203.63
511.30	304.27
511.47	299.59
511.64	304.27
511.82	315.97
511.99	269.16
512.17	255.12
512.34	339.38
512.51	245.76
512.69	269.16
512.86	255.12
513.04	325.33
513.21	257.46
513.38	224.69
513.56	196.60
513.73	315.97
513.90	266.82
514.08	196.60
514.25	252.78
514.43	266.82
514.60	311.29
514.77	299.59
514.95	294.91
515.12	231.71
515.29	325.33
515.47	273.84
515.64	252.78
515.81	227.03
515.99	353.42
516.16	255.12
516.33	280.86
516.51	250.44
516.68	273.84
516.85	220.01
517.03	248.10
517.20	243.42
517.37	215.33
517.54	231.71
517.72	152.13
517.89	205.97
518.06	271.50
518.24	365.12
518.41	290.23
518.58	327.68
518.75	248.10
518.93	299.59
519.10	308.95
519.27	304.27
519.45	238.73
519.62	252.78
519.79	259.80
519.96	177.88
520.14	358.10
520.31	313.63
520.48	327.68
520.65	308.95
520.83	290.23
521.00	290.23
521.17	264.48
521.34	241.08
521.52	229.37
521.69	285.55
521.86	292.57
522.03	337.04
522.20	355.76
522.38	292.57
522.55	337.04
522.72	198.95
522.89	248.10
523.07	322.99
523.24	269.16
523.41	210.65
523.58	250.44
523.75	330.02
523.92	313.63
524.10	241.08
524.27	269.16
524.44	271.50
524.61	315.97
524.78	220.01
524.96	201.29
525.13	294.91
525.30	203.63
525.47	339.38
525.64	339.38
525.81	297.25
525.98	322.99
526.16	238.73
526.33	175.54
526.50	278.52
526.67	264.48
526.84	301.93
527.01	234.05
527.18	173.20
527.36	262.14
527.53	245.76
527.70	285.55
527.87	252.78
528.04	346.40
528.21	292.57
528.38	306.61
528.55	327.68
528.72	276.18
528.89	341.72
529.07	318.31
529.24	262.14
529.41	348.74
529.58	287.89
529.75	273.84
529.92	290.23
530.09	311.29
530.26	252.78
530.43	311.29
530.60	248.10
530.77	308.95
530.94	208.31
531.11	337.04
531.28	322.99
531.46	236.39
531.63	285.55
531.80	278.52
531.97	283.20
532.14	315.97
532.31	409.59
532.48	301.93
532.65	386.19
532.82	430.66
532.99	355.76
533.16	456.40
533.33	367.46
533.50	367.46
533.67	322.99
533.84	404.91
534.01	402.57
534.18	360.44
534.35	376.83
534.52	271.50
534.69	360.44
534.86	273.84
535.03	304.27
535.20	311.29
535.37	353.42
535.54	404.91
535.71	322.99
535.88	315.97
536.05	266.82
536.22	341.72
536.38	315.97
536.55	224.69
536.72	381.51
536.89	238.73
537.06	315.97
537.23	367.46
537.40	311.29
537.57	304.27
537.74	311.29
537.91	308.95
538.08	252.78
538.25	332.36
538.42	266.82
538.59	386.19
538.75	266.82
538.92	332.36
539.09	440.02
539.26	344.06
539.43	533.64
539.60	1139.84
539.77	1720.29
539.94	1703.91
540.11	1217.08
540.28	877.70
540.44	648.33
540.61	507.90
540.78	498.53
540.95	557.05
541.12	599.18
541.29	636.63
541.46	631.94
541.62	587.47
541.79	521.94
541.96	594.50
542.13	554.71
542.30	547.69
542.47	545.34
542.63	514.92
542.80	451.72
542.97	505.56
543.14	503.22
543.31	500.87
543.48	528.96
543.64	535.98
543.81	510.24
543.98	458.74
544.15	437.68
544.32	447.04
544.48	507.90
544.65	477.47
544.82	503.22
544.99	531.30
545.16	582.79
545.32	615.56
545.49	748.97
545.66	983.02
545.83	1057.92
546.00	1109.41
546.16	786.42
546.33	578.11
546.50	575.77
546.67	528.96
546.83	444.70
547.00	524.28
547.17	418.96
547.34	402.57
547.50	458.74
547.67	407.25
547.84	449.38
548.00	475.13
548.17	397.89
548.34	367.46
548.51	484.49
548.67	447.04
548.84	355.76
549.01	428.32
549.18	346.40
549.34	351.08
549.51	393.21
549.68	344.06
549.84	369.80
550.01	276.18
550.18	418.96
550.34	407.25
550.51	390.87
550.68	376.83
550.84	372.15
551.01	280.86
551.18	280.86
551.34	325.33
551.51	334.70
551.68	337.04
551.84	344.06
552.01	365.12
552.18	414.27
552.34	322.99
552.51	400.23
552.68	334.70
552.84	325.33
553.01	390.87
553.18	355.76
553.34	395.55
553.51	290.23
553.67	397.89
553.84	332.36
554.01	304.27
554.17	250.44
554.34	337.04
554.51	308.95
554.67	243.42
554.84	294.91
555.00	266.82
555.17	252.78
555.33	379.17
555.50	278.52
555.67	306.61
555.83	290.23
556.00	322.99
556.16	423.64
556.33	299.59
556.50	198.95
556.66	283.20
556.83	262.14
556.99	245.76
557.16	322.99
557.32	334.70
557.49	255.12
557.65	255.12
557.82	248.10
557.98	320.65
558.15	266.82
558.32	278.52
558.48	266.82
558.65	294.91
558.81	297.25
558.98	297.25
559.14	248.10
559.31	271.50
559.47	285.55
559.64	381.51
559.80	259.80
559.97	315.97
560.13	283.20
560.30	308.95
560.46	287.89
560.63	252.78
560.79	236.39
560.96	322.99
561.12	301.93
561.29	299.59
561.45	337.04
561.61	273.84
561.78	283.20
561.94	257.46
562.11	248.10
562.27	276.18
562.44	269.16
562.60	224.69
562.77	285.55
562.93	315.97
563.10	220.01
563.26	287.89
563.42	285.55
563.59	217.67
563.75	229.37
563.92	313.63
564.08	311.29
564.24	234.05
564.41	238.73
564.57	297.25
564.74	236.39
564.90	229.37
565.07	264.48
565.23	313.63
565.39	292.57
565.56	276.18
565.72	315.97
565.88	212.99
566.05	229.37
566.21	252.78
566.38	287.89
566.54	252.78
566.70	271.50
566.87	266.82
567.03	208.31
567.19	234.05
567.36	264.48
567.52	259.80
567.68	271.50
567.85	325.33
568.01	205.97
568.17	170.86
568.34	264.48
568.50	292.57
568.66	222.35
568.83	308.95
568.99	341.72
569.15	308.95
569.32	276.18
569.48	238.73
569.64	245.76
569.81	210.65
569.97	334.70
570.13	259.80
570.30	234.05
570.46	210.65
570.62	320.65
570.78	255.12
570.95	229.37
571.11	306.61
571.27	360.44
571.43	271.50
571.60	280.86
571.76	248.10
571.92	290.23
572.09	264.48
572.25	252.78
572.41	294.91
572.57	287.89
572.74	355.76
572.90	271.50
573.06	250.44
573.22	276.18
573.38	217.67
573.55	311.29
573.71	231.71
573.87	269.16
574.03	262.14
574.20	290.23
574.36	358.10
574.52	341.72
574.68	346.40
574.84	259.80
575.01	236.39
575.17	313.63
575.33	306.61
575.49	255.12
575.65	327.68
575.82	423.64
575.98	547.69
576.14	744.29
576.30	842.59
576.46	662.37
576.62	657.69
576.79	535.98
576.95	540.66
577.11	344.06
577.27	318.31
577.43	280.86
577.59	320.65
577.75	322.99
577.92	234.05
578.08	210.65
578.24	262.14
578.40	386.19
578.56	433.00
578.72	423.64
578.88	409.59
579.04	461.09
579.21	372.15
579.37	388.53
579.53	435.34
579.69	386.19
579.85	365.12
580.01	489.17
580.17	409.59
580.33	444.70
580.49	470.45
580.65	435.34
580.82	346.40
580.98	451.72
581.14	437.68
581.30	507.90
581.46	465.77
581.62	643.65
581.78	702.16
581.94	664.71
582.10	425.98
582.26	500.87
582.42	444.70
582.58	421.30
582.74	463.43
582.90	447.04
583.06	540.66
583.22	484.49
583.38	538.32
583.54	601.52
583.70	660.03
583.86	727.91
584.02	905.79
584.18	1018.13
584.34	1259.21
584.50	3005.25
584.66	21886.35
584.82	55681.34
584.98	65120.73
585.14	62447.83
585.30	48343.77
585.46	29708.42
585.62	18148.51
585.78	8439.97
585.94	3323.56
586.10	1666.46
586.26	1128.14
586.42	884.72
586.58	763.01
586.74	758.33
586.90	739.61
587.06	739.61
587.22	730.25
587.38	620.24
587.54	1252.19
587.70	3510.80
587.86	5743.67
588.02	6448.18
588.18	4608.51
588.34	2895.24
588.49	1914.56
588.65	1238.14
588.81	737.27
588.97	477.47
589.13	381.51
589.29	386.19
589.45	442.36
589.61	395.55
589.77	477.47
589.93	535.98
590.08	461.09
590.24	559.39
590.40	458.74
590.56	519.60
590.72	461.09
590.88	322.99
591.04	418.96
591.20	416.62
591.35	437.68
591.51	358.10
591.67	383.85
591.83	383.85
591.99	397.89
592.15	344.06
592.31	311.29
592.46	440.02
592.62	430.66
592.78	411.93
592.94	456.40
593.10	425.98
593.26	372.15
593.41	496.19
593.57	479.81
593.73	683.44
593.89	2813.32
594.05	7557.59
594.20	11171.38
594.36	10679.86
594.52	6984.16
594.68	4416.59
594.84	2998.23
594.99	1830.30
595.15	889.40
595.31	519.60
595.47	456.40
595.62	388.53
595.78	339.38
595.94	376.83
596.10	355.76
596.25	440.02
596.41	334.70
596.57	348.74
596.73	367.46
596.88	599.18
597.04	1380.92
597.20	2275.00
597.36	2780.56
597.51	2097.12
597.67	1467.52
597.83	1095.37
597.99	791.10
598.14	475.13
598.30	376.83
598.46	386.19
598.61	423.64
598.77	458.74
598.93	327.68
599.09	400.23
599.24	376.83
599.40	358.10
599.56	308.95
599.71	297.25
599.87	386.19
600.03	388.53
600.18	255.12
600.34	308.95
600.50	203.63
600.65	252.78
600.81	348.74
600.97	236.39
601.12	290.23
601.28	280.86
601.44	292.57
601.59	292.57
601.75	292.57
601.91	257.46
602.06	306.61
602.22	425.98
602.37	805.14
602.53	1832.64
602.69	2719.70
602.84	2939.71
603.00	2111.16
603.16	1523.69
603.31	980.68
603.47	706.84
603.62	465.77
603.78	393.21
603.94	330.02
604.09	348.74
604.25	325.33
604.40	325.33
604.56	353.42
604.71	311.29
604.87	292.57
605.03	299.59
605.18	348.74
605.34	383.85
605.49	334.70
605.65	369.80
605.80	348.74
605.96	388.53
606.12	383.85
606.27	465.77
606.43	397.89
606.58	407.25
606.74	912.81
606.89	3241.64
607.05	6897.56
607.20	9210.01
607.36	7941.44
607.51	5277.91
607.67	3620.81
607.82	2345.22
607.98	1336.45
608.13	814.51
608.29	580.45
608.44	535.98
608.60	519.60
608.75	657.69
608.91	1219.42
609.06	5287.27
609.22	11995.25
609.37	16322.90
609.53	14277.27
609.68	9563.43
609.84	6335.83
609.99	4369.78
610.15	2605.02
610.30	1380.92
610.46	1088.35
610.61	1048.56
610.76	1053.24
610.92	1048.56
611.07	1310.70
611.23	1317.72
611.38	1207.72
611.54	1060.26
611.69	945.58
611.84	828.55
612.00	753.65
612.15	709.18
612.31	767.70
612.46	840.25
612.62	994.73
612.77	1008.77
612.92	877.70
613.08	774.72
613.23	847.27
613.39	795.78
613.54	1020.47
613.69	4746.61
613.85	14560.47
614.00	23995.17
614.15	25888.67
614.31	18546.40
614.46	12006.95
614.62	8201.24
614.77	5053.22
614.92	2296.07
615.08	1217.08
615.23	802.80
615.38	777.06
615.54	592.16
615.69	959.62
615.84	2780.56
616.00	5423.02
616.15	6789.89
616.30	5568.13
616.46	3981.25
616.61	2661.19
616.76	1891.15
616.92	1064.94
617.07	606.20
617.22	470.45
617.37	454.06
617.53	381.51
617.68	400.23
617.83	369.80
617.99	416.62
618.14	437.68
618.29	484.49
618.45	379.17
618.60	376.83
618.75	311.29
618.90	285.55
619.06	367.46
619.21	395.55
619.36	315.97
619.51	292.57
619.67	304.27
619.82	273.84
619.97	339.38
620.12	315.97
620.28	358.10
620.43	327.68
620.58	346.40
620.73	348.74
620.89	442.36
621.04	648.33
621.19	1593.90
621.34	2874.18
621.49	4035.08
621.65	3585.70
621.80	2661.19
621.95	1717.95
622.10	1210.06
622.25	763.01
622.41	578.11
622.56	388.53
622.71	369.80
622.86	383.85
623.01	325.33
623.16	334.70
623.32	278.52
623.47	365.12
623.62	402.57
623.77	294.91
623.92	386.19
624.07	322.99
624.23	304.27
624.38	334.70
624.53	320.65
624.68	346.40
624.83	299.59
624.98	322.99
625.13	383.85
625.29	318.31
625.44	404.91
625.59	358.10
625.74	386.19
625.89	648.33
626.04	2263.30
626.19	6986.50
626.34	11770.55
626.49	13137.43
626.65	9851.31
626.80	6551.16
626.95	4484.47
627.10	2832.05
627.25	1540.07
627.40	739.61
627.55	496.19
627.70	315.97
627.85	386.19
628.00	444.70
628.15	341.72
628.30	437.68
628.45	287.89
628.60	320.65
628.76	276.18
628.91	252.78
629.06	383.85
629.21	315.97
629.36	358.10
629.51	292.57
629.66	348.74
629.81	496.19
629.96	1289.64
630.11	2518.42
630.26	3398.46
630.41	3204.19
630.56	2349.90
630.71	1624.33
630.86	1203.04
631.01	821.53
631.16	528.96
631.31	440.02
631.46	428.32
631.61	348.74
631.76	322.99
631.91	301.93
632.06	308.95
632.21	334.70
632.36	311.29
632.51	395.55
632.66	369.80
632.81	1097.71
632.96	3716.77
633.10	6991.18
633.25	9032.13
633.40	7129.27
633.55	5156.20
633.70	3471.01
633.85	2347.56
634.00	1261.55
634.15	744.29
634.30	425.98
634.45	400.23
634.60	332.36
634.75	322.99
634.90	294.91
635.05	304.27
635.19	285.55
635.34	297.25
635.49	306.61
635.64	341.72
635.79	313.63
635.94	248.10
636.09	367.46
636.24	276.18
636.39	358.10
636.53	374.49
636.68	285.55
636.83	362.78
636.98	411.93
637.13	386.19
637.28	362.78
637.43	449.38
637.57	681.10
637.72	2970.14
637.87	8943.19
638.02	15016.88
638.17	16615.46
638.32	12402.50
638.46	8329.97
638.61	5727.29
638.76	3527.19
638.91	1909.88
639.06	999.41
639.20	723.23
639.35	713.86
639.50	952.60
639.65	4599.15
639.80	14150.88
639.94	23634.73
640.09	25846.54
640.24	19103.45
640.39	12959.55
640.54	8645.94
640.68	5266.21
640.83	2553.52
640.98	1219.42
641.13	683.44
641.27	512.58
641.42	409.59
641.57	442.36
641.72	322.99
641.86	404.91
642.01	397.89
642.16	318.31
642.31	259.80
642.45	304.27
642.60	245.76
642.75	271.50
642.90	379.17
643.04	308.95
643.19	318.31
643.34	224.69
643.48	271.50
643.63	292.57
643.78	257.46
643.93	301.93
644.07	297.25
644.22	322.99
644.37	201.29
644.51	294.91
644.66	184.90
644.81	264.48
644.95	332.36
645.10	297.25
645.25	238.73
645.39	271.50
645.54	264.48
645.69	264.48
645.83	189.58
645.98	318.31
646.13	201.29
646.27	301.93
646.42	236.39
646.57	252.78
646.71	208.31
646.86	264.48
647.00	220.01
647.15	236.39
647.30	222.35
647.44	210.65
647.59	184.90
647.74	287.89
647.88	243.42
648.03	292.57
648.17	245.76
648.32	241.08
648.47	203.63
648.61	203.63
648.76	276.18
648.90	299.59
649.05	264.48
649.20	269.16
649.34	248.10
649.49	299.59
649.63	301.93
649.78	388.53
649.92	540.66
650.07	1888.81
650.21	5853.68
650.36	10691.57
650.51	13238.07
650.65	10829.66
650.80	7723.77
650.94	5165.56
651.09	3192.49
651.23	1689.87
651.38	903.45
651.52	521.94
651.67	344.06
651.81	383.85
651.96	348.74
652.10	262.14
652.25	315.97
652.39	266.82
652.54	367.46
652.68	699.82
652.83	1830.30
652.97	3529.53
653.12	4709.16
653.26	4152.11
653.41	3213.56
653.55	2160.31
653.70	1490.92
653.84	847.27
653.99	505.56
654.13	320.65
654.27	315.97
654.42	280.86
654.56	231.71
654.71	315.97
654.85	205.97
655.00	243.42
655.14	255.12
655.29	271.50
655.43	257.46
655.57	210.65
655.72	217.67
655.86	234.05
656.01	229.37
656.15	203.63
656.30	250.44
656.44	208.31
656.58	168.52
656.73	180.22
656.87	245.76
657.01	250.44
657.16	252.78
657.30	257.46
657.45	252.78
657.59	203.63
657.73	257.46
657.88	170.86
658.02	344.06
658.16	184.90
658.31	212.99
658.45	264.48
658.60	163.84
658.74	278.52
658.88	227.03
659.03	257.46
659.17	259.80
659.31	842.59
659.46	2822.69
659.60	5074.28
659.74	6670.53
659.89	5776.44
660.03	4542.98
660.17	3002.91
660.32	1886.47
660.46	1076.65
660.60	662.37
660.74	390.87
660.89	311.29
661.03	224.69
661.17	243.42
661.32	245.76
661.46	180.22
661.60	238.73
661.74	245.76
661.89	243.42
662.03	262.14
662.17	238.73
662.31	212.99
662.46	210.65
662.60	215.33
662.74	229.37
662.88	243.42
663.03	205.97
663.17	255.12
663.31	191.92
663.45	292.57
663.60	208.31
663.74	203.63
663.88	161.50
664.02	222.35
664.17	245.76
664.31	203.63
664.45	252.78
664.59	212.99
664.73	238.73
664.88	276.18
665.02	220.01
665.16	294.91
665.30	287.89
665.44	163.84
665.59	252.78
665.73	294.91
665.87	205.97
666.01	224.69
666.15	252.78
666.29	208.31
666.44	299.59
666.58	369.80
666.72	273.84
666.86	301.93
667.00	360.44
667.14	416.62
667.28	1720.29
667.43	5245.14
667.57	8908.08
667.71	11433.52
667.85	9825.57
667.99	7332.90
668.13	4760.65
668.27	2757.15
668.41	1596.25
668.56	954.94
668.70	638.97
668.84	461.09
668.98	330.02
669.12	262.14
669.26	262.14
669.40	339.38
669.54	250.44
669.68	269.16
669.82	227.03
669.96	238.73
670.10	273.84
670.25	210.65
670.39	266.82
670.53	198.95
670.67	304.27
670.81	271.50
670.95	332.36
671.09	564.07
671.23	1856.04
671.37	4322.97
671.51	6476.26
671.65	7197.15
671.79	5668.78
671.93	3908.69
672.07	2483.31
672.21	1469.86
672.35	828.55
672.49	571.09
672.63	411.93
672.77	290.23
672.91	339.38
673.05	257.46
673.19	220.01
673.33	170.86
673.47	264.48
673.61	224.69
673.75	248.10
673.89	184.90
674.03	201.29
674.17	173.20
674.31	187.24
674.45	182.56
674.59	189.58
674.73	248.10
674.87	236.39
675.01	369.80
675.15	262.14
675.29	304.27
675.43	311.29
675.56	327.68
675.70	276.18
675.84	182.56
675.98	180.22
676.12	131.07
676.26	259.80
676.40	266.82
676.54	257.46
676.68	187.24
676.82	182.56
676.96	222.35
677.10	201.29
677.23	161.50
677.37	112.35
677.51	234.05
677.65	294.91
677.79	220.01
677.93	140.43
678.07	163.84
678.21	112.35
678.34	224.69
678.48	156.82
678.62	184.90
678.76	91.28
678.90	177.88
679.04	210.65
679.18	184.90
679.31	180.22
679.45	175.54
679.59	227.03
679.73	168.52
679.87	138.09
680.00	210.65
680.14	191.92
680.28	175.54
680.42	173.20
680.56	149.79
680.70	196.60
680.83	187.24
680.97	187.24
681.11	191.92
681.25	229.37
681.39	177.88
681.52	154.48
681.66	245.76
681.80	119.37
681.94	184.90
682.07	184.90
682.21	248.10
682.35	131.07
682.49	215.33
682.62	196.60
682.76	142.77
682.90	177.88
683.04	201.29
683.17	161.50
683.31	175.54
683.45	220.01
683.59	168.52
683.72	224.69
683.86	271.50
684.00	194.26
684.13	210.65
684.27	140.43
684.41	110.01
684.55	234.05
684.68	210.65
684.82	191.92
684.96	180.22
685.09	159.16
685.23	168.52
685.37	175.54
685.50	250.44
685.64	161.50
685.78	140.43
685.91	227.03
686.05	212.99
686.19	220.01
686.32	154.48
686.46	210.65
686.60	198.95
686.73	276.18
686.87	266.82
687.01	285.55
687.14	285.55
687.28	145.11
687.42	163.84
687.55	140.43
687.69	231.71
687.82	133.41
687.96	203.63
688.10	236.39
688.23	189.58
688.37	227.03
688.50	208.31
688.64	241.08
688.78	182.56
688.91	194.26
689.05	238.73
689.18	131.07
689.32	152.13
689.46	124.05
689.59	205.97
689.73	163.84
689.86	147.45
690.00	177.88
690.13	124.05
690.27	194.26
690.41	205.97
690.54	124.05
690.68	208.31
690.81	196.60
690.95	145.11
691.08	210.65
691.22	161.50
691.35	159.16
691.49	203.63
691.62	173.20
691.76	264.48
691.89	266.82
692.03	46.81
692.16	208.31
692.30	327.68
692.43	664.71
692.57	1996.48
692.70	3948.48
692.84	5046.20
692.97	4601.49
693.11	3325.90
693.24	2450.54
693.38	1774.13
693.51	1193.67
693.65	873.02
693.78	578.11
693.92	430.66
694.05	327.68
694.19	222.35
694.32	231.71
694.45	205.97
694.59	128.73
694.72	175.54
694.86	138.09
694.99	285.55
695.13	170.86
695.26	212.99
695.39	145.11
695.53	234.05
695.66	156.82
695.80	180.22
695.93	168.52
696.07	243.42
696.20	327.68
696.33	442.36
696.47	493.85
696.60	470.45
696.73	374.49
696.87	311.29
697.00	397.89
697.14	308.95
697.27	173.20
697.40	196.60
697.54	168.52
697.67	182.56
697.80	238.73
697.94	198.95
698.07	191.92
698.21	114.69
698.34	156.82
698.47	238.73
698.61	168.52
698.74	208.31
698.87	248.10
699.01	203.63
699.14	163.84
699.27	238.73
699.40	299.59
699.54	194.26
699.67	152.13
699.80	166.18
699.94	217.67
700.07	177.88
700.20	180.22
700.34	124.05
700.47	131.07
700.60	196.60
700.73	212.99
700.87	203.63
701.00	135.75
701.13	121.71
701.26	156.82
701.40	191.92
701.53	107.66
701.66	168.52
701.79	243.42
701.93	196.60
702.06	332.36
702.19	372.15
702.32	498.53
702.46	505.56
702.59	505.56
702.72	816.85
702.85	2523.10
702.99	5790.49
703.12	8692.75
703.25	9331.72
703.38	8376.78
703.51	6658.82
703.65	5121.09
703.78	3541.23
703.91	2396.71
704.04	1533.05
704.17	964.30
704.31	610.88
704.44	444.70
704.57	358.10
704.70	304.27
704.83	266.82
704.96	198.95
705.10	262.14
705.23	203.63
>>>>>End Processed Spectral Data<<<<<
