SpectraSuite Data File
++++++++++++++++++++++++++++++++++++
Date: Fri Oct 04 12:15:21 GMT-05:00 2013
User: price-jones
Dark Spectrum Present: No
Reference Spectrum Present: No
Number of Sampled Component Spectra: 1
Spectrometers: USB2+H05261
Integration Time (usec): 10000000 (USB2+H05261)
Spectra Averaged: 1 (USB2+H05261)
Boxcar Smoothing: 0 (USB2+H05261)
Correct for Electrical Dark: No (USB2+H05261)
Strobe/Lamp Enabled: No (USB2+H05261)
Correct for Detector Non-linearity: No (USB2+H05261)
Correct for Stray Light: No (USB2+H05261)
Number of Pixels in Processed Spectrum: 2048
>>>>>Begin Processed Spectral Data<<<<<
365.73	42.13
365.92	42.13
366.12	42.13
366.32	0.00
366.52	0.00
366.72	4404.89
366.91	2291.38
367.11	4264.46
367.31	3583.36
367.51	4224.67
367.70	4887.04
367.90	6389.66
368.10	4652.98
368.30	4943.21
368.49	2583.95
368.69	6118.16
368.89	4264.46
369.09	2759.49
369.28	3929.76
369.48	2427.14
369.68	3442.93
369.87	4400.21
370.07	2920.99
370.27	6593.29
370.47	4667.03
370.66	3758.90
370.86	5514.30
371.06	7978.89
371.25	9694.50
371.45	4372.12
371.65	7077.78
371.84	3662.94
372.04	3021.63
372.24	4973.64
372.44	4079.55
372.63	5444.09
372.83	8697.43
373.03	4617.88
373.22	3545.91
373.42	3775.28
373.62	4559.36
373.81	5490.90
374.01	6822.66
374.21	6682.23
374.40	4276.16
374.60	7304.81
374.79	4594.47
374.99	4440.00
375.19	5343.44
375.38	5905.17
375.58	5163.22
375.78	6927.99
375.97	6228.17
376.17	9827.91
376.37	4650.64
376.56	5830.27
376.76	3836.14
376.95	3513.14
377.15	6333.49
377.35	5687.50
377.54	5935.60
377.74	3857.20
377.93	4121.68
378.13	5364.51
378.33	6813.30
378.52	4755.97
378.72	7260.34
378.91	6361.58
379.11	4177.86
379.31	4287.86
379.50	3133.98
379.70	7014.59
379.89	6726.70
380.09	4248.07
380.28	3260.37
380.48	4835.55
380.68	3850.18
380.87	3166.74
381.07	5425.36
381.26	7569.29
381.46	4098.28
381.65	6092.41
381.85	4184.88
382.04	4660.01
382.24	5668.78
382.43	4528.94
382.63	3662.94
382.83	4367.44
383.02	6867.13
383.22	7770.58
383.41	3623.15
383.61	5034.49
383.80	4514.89
384.00	4762.99
384.19	4201.26
384.39	5254.50
384.58	4374.46
384.78	5832.62
384.97	5446.43
385.17	4950.23
385.36	4088.92
385.56	6665.85
385.75	3225.26
385.95	4887.04
386.14	6712.66
386.34	4219.99
386.53	5439.40
386.72	4046.79
386.92	7873.56
387.11	5909.85
387.31	6076.03
387.50	3843.16
387.70	3421.86
387.89	5088.32
388.09	3810.39
388.28	3641.87
388.48	3763.58
388.67	6817.98
388.86	4671.71
389.06	4589.79
389.25	5724.95
389.45	5423.02
389.64	4795.76
389.84	7440.56
390.03	6043.26
390.22	5336.42
390.42	4592.13
390.61	3641.87
390.81	3229.94
391.00	5020.45
391.19	7330.56
391.39	4774.69
391.58	6228.17
391.78	4994.70
391.97	5413.66
392.16	3508.46
392.36	7669.94
392.55	7353.96
392.75	4889.38
392.94	3983.59
393.13	6373.28
393.33	3389.10
393.52	4315.95
393.71	7887.61
393.91	5088.32
394.10	3651.24
394.29	4194.24
394.49	4280.84
394.68	6108.80
394.88	7494.40
395.07	7052.03
395.26	5331.74
395.46	5219.39
395.65	7269.70
395.84	6078.37
396.04	12016.31
396.23	4933.85
396.42	4425.95
396.62	5738.99
396.81	5830.27
397.00	5373.87
397.19	5549.41
397.39	4627.24
397.58	8084.21
397.77	4760.65
397.97	5303.65
398.16	5186.63
398.35	6647.12
398.55	4280.84
398.74	5427.70
398.93	7372.69
399.12	4702.14
399.32	6384.98
399.51	5205.35
399.70	6764.15
399.90	6260.93
400.09	6293.70
400.28	7562.27
400.47	4849.59
400.67	7005.22
400.86	5509.62
401.05	6843.73
401.24	7606.74
401.44	6916.28
401.63	7162.04
401.82	7948.46
402.01	4533.62
402.21	6420.09
402.40	6286.68
402.59	5142.16
402.78	5095.35
402.97	5425.36
403.17	5909.85
403.36	6429.45
403.55	5493.24
403.74	5217.05
403.93	5542.39
404.13	8257.41
404.32	4910.44
404.51	5036.83
404.70	7559.93
404.89	5268.55
405.09	9930.89
405.28	5797.51
405.47	4278.50
405.66	6913.94
405.85	7681.64
406.05	5731.97
406.24	5469.83
406.43	6300.72
406.62	6890.54
406.81	10733.70
407.00	7922.71
407.20	6125.18
407.39	5605.58
407.58	5376.21
407.77	6923.30
407.96	8594.45
408.15	7700.36
408.34	7026.29
408.54	6745.42
408.73	6457.54
408.92	6218.80
409.11	7358.64
409.30	8421.25
409.49	4767.67
409.68	5579.84
409.87	6349.87
410.07	4837.89
410.26	6328.81
410.45	5750.70
410.64	4985.34
410.83	6293.70
411.02	5327.06
411.21	7272.04
411.40	7805.69
411.59	5998.79
411.78	5444.09
411.98	6232.85
412.17	4950.23
412.36	5661.76
412.55	5680.48
412.74	7716.75
412.93	10153.24
413.12	5268.55
413.31	8355.71
413.50	6956.07
413.69	6169.65
413.88	9247.46
414.07	6729.04
414.26	6527.75
414.45	5547.07
414.64	7737.81
414.83	7431.20
415.02	6995.86
415.22	8006.97
415.41	9310.65
415.60	5825.59
415.79	6574.56
415.98	9511.94
416.17	6558.18
416.36	6686.91
416.55	5645.37
416.74	7801.01
416.93	8800.41
417.12	6434.13
417.31	6375.62
417.50	6394.34
417.69	10909.24
417.88	7232.26
418.07	5589.20
418.26	6642.44
418.45	6476.26
418.64	10640.08
418.83	8128.68
419.02	7927.39
419.21	7162.04
419.39	7279.07
419.58	6024.54
419.77	5982.41
419.96	9114.05
420.15	10317.08
420.34	6843.73
420.53	7513.12
420.72	8774.67
420.91	7543.55
421.10	7105.87
421.29	7400.77
421.48	8168.47
421.67	8723.18
421.86	6225.82
422.05	6485.62
422.24	6338.17
422.43	7295.45
422.61	5195.99
422.80	6590.95
422.99	7070.76
423.18	6239.87
423.37	9806.84
423.56	8009.31
423.75	8135.70
423.94	5490.90
424.13	6649.46
424.32	6104.12
424.50	6984.16
424.69	6803.94
424.88	9870.04
425.07	6375.62
425.26	7957.82
425.45	8732.54
425.64	6619.04
425.83	7040.33
426.01	9893.44
426.20	7852.50
426.39	6612.01
426.58	6389.66
426.77	7279.07
426.96	9055.53
427.15	7602.06
427.33	6169.65
427.52	7197.15
427.71	7098.84
427.90	7323.54
428.09	6321.79
428.28	5521.32
428.46	6497.33
428.65	7911.01
428.84	8561.68
429.03	10305.38
429.22	6122.84
429.40	5408.98
429.59	5177.26
429.78	11042.65
429.97	6431.79
430.16	5495.58
430.34	6230.51
430.53	5811.55
430.72	6270.30
430.91	8882.33
431.10	5453.45
431.28	7133.95
431.47	8777.01
431.66	8205.92
431.85	6272.64
432.03	7026.29
432.22	12369.73
432.41	7033.31
432.60	10090.05
432.79	6399.02
432.97	8124.00
433.16	7808.03
433.35	6551.16
433.54	6689.25
433.72	8531.25
433.91	8945.53
434.10	6457.54
434.28	8140.38
434.47	7180.76
434.66	9408.95
434.85	6869.47
435.03	7569.29
435.22	11063.71
435.41	11501.39
435.59	8844.88
435.78	8077.19
435.97	6703.29
436.16	9469.81
436.34	7641.85
436.53	8243.37
436.72	10118.14
436.90	9144.47
437.09	8524.23
437.28	7576.31
437.46	7012.24
437.65	9111.71
437.84	8812.12
438.02	8149.75
438.21	8622.53
438.40	6686.91
438.58	5956.66
438.77	8013.99
438.96	7868.88
439.14	6956.07
439.33	9048.51
439.52	7494.40
439.70	7967.18
439.89	9460.45
440.08	8383.80
440.26	8149.75
440.45	11431.18
440.63	8554.66
440.82	8297.20
441.01	8545.30
441.19	7559.93
441.38	7822.07
441.57	7929.74
441.75	10988.82
441.94	10918.60
442.12	8355.71
442.31	7665.25
442.50	7840.79
442.68	7754.19
442.87	8730.20
443.05	7960.16
443.24	8912.76
443.43	11075.42
443.61	11227.55
443.80	8318.26
443.98	7475.67
444.17	7768.24
444.35	10363.89
444.54	7845.48
444.73	8030.38
444.91	11112.86
445.10	6787.55
445.28	7222.89
445.47	8617.85
445.65	8358.05
445.84	7494.40
446.02	8603.81
446.21	7918.03
446.39	7836.11
446.58	9170.22
446.77	7875.90
446.95	8461.04
447.14	9420.66
447.32	11918.01
447.51	8744.24
447.69	8987.66
447.88	9116.39
448.06	11784.60
448.25	9287.25
448.43	7360.98
448.62	7023.95
448.80	9720.24
448.99	10218.78
449.17	7398.43
449.36	7885.26
449.54	10232.82
449.73	7578.65
449.91	9832.59
450.10	8154.43
450.28	14483.24
450.46	13540.00
450.65	11014.56
450.83	9657.05
451.02	8575.72
451.20	8786.37
451.39	8765.31
451.57	8344.01
451.76	8088.89
451.94	8870.63
452.13	9989.41
452.31	11138.61
452.49	9584.49
452.68	7045.01
452.86	9444.06
453.05	12414.20
453.23	8643.60
453.42	7021.61
453.60	8601.47
453.78	9434.70
453.97	7337.58
454.15	7410.14
454.34	7838.45
454.52	7583.34
454.70	11662.89
454.89	10303.04
455.07	8210.60
455.26	10078.35
455.44	10635.39
455.62	8339.33
455.81	9631.30
455.99	10143.88
456.17	10389.64
456.36	8875.31
456.54	8477.42
456.73	8365.07
456.91	8407.20
457.09	10052.60
457.28	11438.20
457.46	9135.11
457.64	11445.22
457.83	8638.92
458.01	8131.02
458.19	9593.86
458.38	8465.72
458.56	9776.42
458.74	7779.94
458.93	9921.53
459.11	9308.31
459.29	8049.10
459.48	10548.79
459.66	12659.96
459.84	10766.46
460.03	18134.47
460.21	11007.54
460.39	8908.08
460.57	11901.62
460.76	9743.65
460.94	9483.85
461.12	13167.85
461.31	12313.56
461.49	9081.28
461.67	8690.41
461.85	9977.70
462.04	9156.18
462.22	53303.36
462.40	10509.01
462.59	11995.25
462.77	8617.85
462.95	9940.26
463.13	7925.05
463.32	11272.02
463.50	9778.76
463.68	10541.77
463.86	9598.54
464.05	8760.63
464.23	11768.21
464.41	10403.68
464.59	8231.66
464.78	8744.24
464.96	7819.73
465.14	9748.33
465.32	8655.30
465.50	10544.11
465.69	10850.72
465.87	7899.31
466.05	10314.74
466.23	7559.93
466.41	8861.27
466.60	8980.64
466.78	9383.21
466.96	11618.42
467.14	9877.06
467.32	11463.94
467.51	10471.56
467.69	10501.98
467.87	12898.69
468.05	9359.80
468.23	13568.09
468.41	11176.06
468.60	9247.46
468.78	10125.16
468.96	11918.01
469.14	10473.90
469.32	7545.89
469.50	8231.66
469.69	10693.91
469.87	9867.70
470.05	9760.03
470.23	9240.44
470.41	8060.80
470.59	8367.42
470.77	9895.78
470.95	9294.27
471.14	11939.07
471.32	9338.74
471.50	13235.73
471.68	9729.61
471.86	10565.18
472.04	8575.72
472.22	9858.34
472.40	7922.71
472.58	8784.03
472.77	8205.92
472.95	9486.19
473.13	13987.04
473.31	12374.41
473.49	7962.50
473.67	8720.84
473.85	11311.81
474.03	11356.28
474.21	9877.06
474.39	12671.66
474.57	13570.43
474.75	10644.76
474.93	9060.21
475.12	8098.25
475.30	9198.31
475.48	9694.50
475.66	10305.38
475.84	9830.25
476.02	9645.35
476.20	11714.38
476.38	10160.27
476.56	16027.99
476.74	9762.37
476.92	9713.22
477.10	10076.01
477.28	11693.32
477.46	9998.77
477.64	11412.45
477.82	10450.49
478.00	9980.04
478.18	10778.17
478.36	10272.61
478.54	9366.82
478.72	9619.60
478.90	10469.22
479.08	11384.37
479.26	10719.65
479.44	9951.96
479.62	9240.44
479.80	9853.66
479.98	9214.69
480.16	9848.97
480.34	12561.66
480.52	9748.33
480.70	11943.75
480.88	9804.50
481.06	9596.20
481.24	10239.84
481.41	10588.58
481.59	12215.26
481.77	11272.02
481.95	10771.15
482.13	14279.61
482.31	11255.64
482.49	9928.55
482.67	12617.83
482.85	13011.04
483.03	12339.30
483.21	11653.53
483.39	10616.67
483.57	10916.26
483.74	14574.52
483.92	11197.12
484.10	9916.85
484.28	13582.13
484.46	17188.89
484.64	10934.98
484.82	11566.93
485.00	10759.44
485.18	11431.18
485.35	11810.34
485.53	8695.09
485.71	13114.02
485.89	8596.79
486.07	10024.51
486.25	16510.14
486.43	12542.93
486.61	12912.74
486.78	12760.60
486.96	9877.06
487.14	11489.69
487.32	11405.43
487.50	11089.46
487.68	13596.17
487.85	10953.71
488.03	13289.56
488.21	15445.20
488.39	11999.93
488.57	13561.06
488.75	11243.93
488.92	38522.88
489.10	13181.90
489.28	17467.42
489.46	11609.06
489.64	12727.83
489.81	13013.38
489.99	14312.38
490.17	12842.52
490.35	19686.25
490.53	12505.48
490.70	11391.39
490.88	14871.76
491.06	12341.64
491.24	14146.20
491.41	16318.22
491.59	13837.25
491.77	11318.83
491.95	11384.37
492.13	11695.66
492.30	13397.23
492.48	12865.92
492.66	13530.64
492.84	12404.84
493.01	14129.81
493.19	12428.24
493.37	17568.06
493.54	14913.89
493.72	14635.37
493.90	13081.25
494.08	13064.87
494.25	15068.37
494.43	14775.80
494.61	13163.17
494.79	12491.44
494.96	12634.21
495.14	15215.82
495.32	13635.96
495.49	14321.74
495.67	14574.52
495.85	13462.76
496.02	12971.25
496.20	16381.41
496.38	15206.46
496.55	14597.92
496.73	15248.59
496.91	13366.80
497.09	16210.55
497.26	14256.20
497.44	14246.84
497.62	14106.41
497.79	13998.74
497.97	14890.49
498.14	15201.78
498.32	14841.34
498.50	14958.36
498.67	13769.37
498.85	15059.01
499.03	14092.37
499.20	14888.15
499.38	14321.74
499.56	14768.78
499.73	18773.44
499.91	16350.98
500.08	16152.04
500.26	13895.76
500.44	13575.11
500.61	15133.90
500.79	13378.50
500.97	15761.17
501.14	17516.57
501.32	14682.18
501.49	17221.66
501.67	14249.18
501.84	15435.83
502.02	13039.12
502.20	18494.91
502.37	15674.57
502.55	14321.74
502.72	14389.61
502.90	16362.69
503.07	15229.87
503.25	15222.84
503.43	13055.51
503.60	13862.99
503.78	14944.32
503.95	14253.86
504.13	13965.98
504.30	16475.03
504.48	17160.81
504.65	17834.88
504.83	16594.40
505.01	14253.86
505.18	15279.02
505.36	15117.52
505.53	15016.88
505.71	14410.68
505.88	17944.89
506.06	15161.99
506.23	15042.62
506.41	14230.46
506.58	16196.51
506.76	15571.58
506.93	14312.38
507.11	16542.91
507.28	13413.61
507.46	13912.14
507.63	15470.94
507.81	13750.65
507.98	14918.57
508.16	15101.14
508.33	16039.69
508.50	16861.22
508.68	15492.01
508.85	15688.61
509.03	14497.28
509.20	14780.48
509.38	16652.91
509.55	17778.71
509.73	17563.38
509.90	18420.02
510.08	14466.85
510.25	17455.72
510.42	14389.61
510.60	15531.80
510.77	17418.27
510.95	17877.01
511.12	15487.32
511.30	17699.13
511.47	18178.94
511.64	20182.44
511.82	15445.20
511.99	15747.12
512.17	15426.47
512.34	14181.31
512.51	14829.63
512.69	15157.31
512.86	18370.86
513.04	14546.43
513.21	16259.70
513.38	14609.62
513.56	14717.29
513.73	14707.93
513.90	14043.21
514.08	13771.71
514.25	16145.02
514.43	16573.33
514.60	14207.05
514.77	14820.27
514.95	16526.52
515.12	14614.30
515.29	16568.65
515.47	16421.20
515.64	16210.55
515.81	15880.53
515.99	19030.90
516.16	16528.86
516.33	17184.21
516.51	13465.10
516.68	12657.62
516.85	13788.10
517.03	14207.05
517.20	16521.84
517.37	16430.56
517.54	16870.58
517.72	14913.89
517.89	12842.52
518.06	13247.43
518.24	19517.73
518.41	19843.06
518.58	17085.91
518.75	14345.14
518.93	16060.76
519.10	16156.72
519.27	15169.01
519.45	16416.52
519.62	16470.35
519.79	17383.16
519.96	14623.67
520.14	16524.18
520.31	18841.31
520.48	15962.45
520.65	16725.47
520.83	17699.13
521.00	17497.84
521.17	17043.78
521.34	15613.71
521.52	16741.85
521.69	16411.84
521.86	16418.86
522.03	17862.97
522.20	20247.97
522.38	15054.33
522.55	16638.87
522.72	14218.75
522.89	18008.08
523.07	21151.42
523.24	16372.05
523.41	15716.70
523.58	15765.85
523.75	16383.75
523.92	15236.89
524.10	17338.69
524.27	16655.25
524.44	15618.39
524.61	19491.98
524.78	15793.94
524.96	17696.79
525.13	16915.05
525.30	19260.27
525.47	18590.88
525.64	16931.44
525.81	17003.99
525.98	16500.78
526.16	15379.66
526.33	14113.43
526.50	13631.28
526.67	13731.92
526.84	13914.48
527.01	14436.42
527.18	17212.30
527.36	16196.51
527.53	15410.09
527.70	18885.78
527.87	16498.44
528.04	20489.05
528.21	15623.08
528.38	19606.67
528.55	19391.34
528.72	20226.91
528.89	22113.38
529.07	17020.38
529.24	16947.82
529.41	20673.95
529.58	16830.79
529.75	15967.13
529.92	18178.94
530.09	16996.97
530.26	18806.20
530.43	18143.83
530.60	17266.13
530.77	17317.62
530.94	19012.17
531.11	18298.31
531.28	16690.36
531.46	15894.58
531.63	17364.43
531.80	17680.41
531.97	17813.82
532.14	16489.07
532.31	16837.81
532.48	16922.07
532.65	17614.87
532.82	16046.71
532.99	17376.14
533.16	17287.20
533.33	17315.28
533.50	16711.42
533.67	15803.30
533.84	19077.71
534.01	18047.87
534.18	17418.27
534.35	17462.74
534.52	17743.60
534.69	22342.75
534.86	16760.58
535.03	16496.10
535.20	16542.91
535.37	19421.77
535.54	18160.22
535.71	17060.16
535.88	20236.27
536.05	16601.42
536.22	18134.47
536.38	16315.87
536.55	17411.25
536.72	18963.02
536.89	15234.55
537.06	15754.15
537.23	15623.08
537.40	16077.14
537.57	15779.89
537.74	18728.97
537.91	18375.55
538.08	16582.70
538.25	17689.77
538.42	16018.63
538.59	17123.36
538.75	16367.37
538.92	17046.12
539.09	19077.71
539.26	16154.38
539.43	21090.57
539.60	22527.66
539.77	28013.87
539.94	27601.94
540.11	24173.05
540.28	23012.15
540.44	21355.05
540.61	16697.38
540.78	15800.96
540.95	14829.63
541.12	20346.28
541.29	15948.41
541.46	20308.83
541.62	17432.31
541.79	15318.81
541.96	15363.28
542.13	16196.51
542.30	15477.96
542.47	18457.46
542.63	16135.65
542.80	17294.22
542.97	19246.23
543.14	16058.42
543.31	17610.19
543.48	16430.56
543.64	17659.34
543.81	16929.09
543.98	15559.88
544.15	14974.75
544.32	16252.68
544.48	16318.22
544.65	16177.78
544.82	15712.02
544.99	16306.51
545.16	19101.11
545.32	15730.74
545.49	17509.55
545.66	16606.10
545.83	15119.86
546.00	14848.36
546.16	15660.52
546.33	15864.15
546.50	16250.34
546.67	19414.74
546.83	18274.90
547.00	16952.50
547.17	15126.88
547.34	14773.46
547.50	16154.38
547.67	16243.32
547.84	15194.76
548.00	18188.30
548.17	15536.48
548.34	16011.60
548.51	20650.55
548.67	18822.59
548.84	16402.47
549.01	17135.06
549.18	17376.14
549.34	17268.47
549.51	16940.80
549.68	17376.14
549.84	16538.23
550.01	14984.11
550.18	26953.61
550.34	22986.40
550.51	16819.09
550.68	21383.13
550.84	15494.35
551.01	16891.65
551.18	18216.39
551.34	16224.59
551.51	16137.99
551.68	16585.04
551.84	18251.50
552.01	15243.91
552.18	16077.14
552.34	16732.49
552.51	16786.32
552.68	17661.68
552.84	15634.78
553.01	17020.38
553.18	18541.72
553.34	15936.71
553.51	14623.67
553.67	17771.69
553.84	21001.63
554.01	18092.34
554.17	18057.23
554.34	15105.82
554.51	17731.90
554.67	19066.00
554.84	18211.71
555.00	17366.78
555.17	16884.62
555.33	18625.98
555.50	17231.02
555.67	17509.55
555.83	14902.19
556.00	16835.47
556.16	34160.12
556.33	17018.04
556.50	15962.45
556.66	16149.70
556.83	15262.63
556.99	15297.74
557.16	16823.77
557.32	15243.91
557.49	15410.09
557.65	15325.83
557.82	15009.86
557.98	16280.77
558.15	14766.44
558.32	15585.63
558.48	14789.85
558.65	15129.22
558.81	16987.61
558.98	14918.57
559.14	17097.61
559.31	16250.34
559.47	17200.60
559.64	14925.60
559.80	17748.28
559.97	14298.33
560.13	15744.78
560.30	14125.13
560.46	15358.60
560.63	15765.85
560.79	16152.04
560.96	16187.14
561.12	14714.95
561.29	16468.01
561.45	14754.74
561.61	15545.84
561.78	24734.78
561.94	15697.97
562.11	14881.13
562.27	16203.53
562.44	14181.31
562.60	15559.88
562.77	15625.42
562.93	22459.78
563.10	16542.91
563.26	15868.83
563.42	18026.81
563.59	16224.59
563.75	14672.82
563.92	18728.97
564.08	16725.47
564.24	17699.13
564.41	20432.88
564.57	13951.93
564.74	14771.12
564.90	16273.74
565.07	17170.17
565.23	17228.68
565.39	14871.76
565.56	16755.90
565.72	14375.57
565.88	15098.80
566.05	14396.64
566.21	14621.33
566.38	16868.24
566.54	15742.44
566.70	15119.86
566.87	14871.76
567.03	13362.12
567.19	15456.90
567.36	16617.80
567.52	14761.76
567.68	16566.31
567.85	16624.83
568.01	14420.04
568.17	13287.22
568.34	14398.98
568.50	17589.13
568.66	13245.09
568.83	22141.47
568.99	13703.84
569.15	18448.10
569.32	14546.43
569.48	14319.40
569.64	13647.66
569.81	15049.64
569.97	13919.17
570.13	16259.70
570.30	14314.72
570.46	14382.59
570.62	14059.60
570.78	14293.65
570.95	12400.16
571.11	18504.28
571.27	18820.25
571.43	12964.23
571.60	16676.32
571.76	14207.05
571.92	14902.19
572.09	14567.49
572.25	14757.08
572.41	14857.72
572.57	14618.99
572.74	19449.85
572.90	16802.71
573.06	17050.80
573.22	16205.87
573.38	17547.00
573.55	16809.73
573.71	17535.29
573.87	16498.44
574.03	13530.64
574.20	14569.83
574.36	17628.92
574.52	14878.79
574.68	14934.96
574.84	16411.84
575.01	14530.05
575.17	16004.58
575.33	13907.46
575.49	17001.65
575.65	16606.10
575.82	17296.56
575.98	22207.00
576.14	18363.84
576.30	18785.14
576.46	17216.98
576.62	16872.92
576.79	16835.47
576.95	18375.55
577.11	14047.90
577.27	13500.21
577.43	17891.06
577.59	18078.30
577.75	15878.19
577.92	14246.84
578.08	13942.57
578.24	13266.16
578.40	17242.73
578.56	17539.97
578.72	18148.51
578.88	16678.66
579.04	14492.60
579.21	15604.35
579.37	14649.41
579.53	14497.28
579.69	17324.65
579.85	13479.15
580.01	16365.03
580.17	14675.16
580.33	14841.34
580.49	15779.89
580.65	16386.09
580.82	15517.75
580.98	14396.64
581.14	14441.11
581.30	18534.70
581.46	16217.57
581.62	19484.96
581.78	16929.09
581.94	18911.53
582.10	14801.55
582.26	16159.06
582.42	15339.87
582.58	17181.87
582.74	15389.02
582.90	16552.27
583.06	17294.22
583.22	15131.56
583.38	15517.75
583.54	15461.58
583.70	20751.19
583.86	18717.26
584.02	18609.60
584.18	23686.22
584.34	21497.82
584.50	36577.89
584.66	65535.00
584.82	65535.00
584.98	65535.00
585.14	65535.00
585.30	65535.00
585.46	65535.00
585.62	65535.00
585.78	61612.26
585.94	36994.51
586.10	24388.38
586.26	20931.41
586.42	22967.68
586.58	18761.73
586.74	17053.14
586.90	17322.30
587.06	17738.92
587.22	16952.50
587.38	14824.95
587.54	19756.46
587.70	39056.52
587.86	53233.14
588.02	55739.86
588.18	48816.55
588.34	35103.35
588.49	24004.53
588.65	19833.70
588.81	15346.89
588.97	11393.73
589.13	12528.89
589.29	13411.27
589.45	15704.99
589.61	13142.11
589.77	16629.51
589.93	13898.10
590.08	13989.38
590.24	13334.03
590.40	14387.27
590.56	16032.67
590.72	13783.41
590.88	12250.36
591.04	14406.00
591.20	12945.50
591.35	17617.21
591.51	13518.93
591.67	11777.58
591.83	12606.13
591.99	15082.41
592.15	15321.15
592.31	14413.02
592.46	12957.21
592.62	15293.06
592.78	12793.37
592.94	12723.15
593.10	12746.56
593.26	12360.37
593.41	15138.58
593.57	14295.99
593.73	14431.74
593.89	32889.21
594.05	55128.98
594.20	62485.28
594.36	62066.33
594.52	56554.36
594.68	41191.09
594.84	35519.97
594.99	27283.62
595.15	18363.84
595.31	16486.73
595.47	17818.50
595.62	13324.67
595.78	13713.20
595.94	13582.13
596.10	16720.79
596.25	14686.86
596.41	15557.54
596.57	12776.98
596.73	12746.56
596.88	15765.85
597.04	22525.32
597.20	28968.81
597.36	35112.72
597.51	27384.27
597.67	21584.42
597.83	18567.47
597.99	19028.56
598.14	15241.57
598.30	16732.49
598.46	13193.60
598.61	16404.81
598.77	14544.09
598.93	12737.20
599.09	13525.96
599.24	14532.39
599.40	16156.72
599.56	13444.04
599.71	13607.87
599.87	13228.71
600.03	13781.07
600.18	13308.29
600.34	14562.81
600.50	12582.72
600.65	11983.54
600.81	15569.24
600.97	12453.99
601.12	13191.26
601.28	16435.24
601.44	13645.32
601.59	12006.95
601.75	13923.85
601.91	12861.24
602.06	14427.06
602.22	21804.43
602.37	18160.22
602.53	24322.85
602.69	34902.07
602.84	33792.65
603.00	29090.52
603.16	24868.19
603.31	21891.03
603.47	18143.83
603.62	12980.61
603.78	14635.37
603.94	14761.76
604.09	13785.76
604.25	15412.43
604.40	15124.54
604.56	12943.16
604.71	13900.44
604.87	12248.02
605.03	13544.68
605.18	14155.56
605.34	16561.63
605.49	13692.13
605.65	13130.41
605.80	11803.32
605.96	13701.50
606.12	15323.49
606.27	16016.29
606.43	14068.96
606.58	16266.72
606.74	17837.22
606.89	36184.68
607.05	56491.17
607.20	64179.83
607.36	60612.85
607.51	50866.86
607.67	38815.44
607.82	30635.27
607.98	24907.98
608.13	17378.48
608.29	14925.60
608.44	17671.04
608.60	14885.81
608.75	18047.87
608.91	21603.14
609.06	49474.24
609.22	63398.09
609.37	65535.00
609.53	65535.00
609.68	64423.25
609.84	52081.60
609.99	42014.96
610.15	30338.02
610.30	20269.04
610.46	18127.45
610.61	15276.68
610.76	14050.24
610.92	15241.57
611.07	12545.27
611.23	20067.75
611.38	15712.02
611.54	12109.93
611.69	12442.29
611.84	12788.69
612.00	12613.15
612.15	12842.52
612.31	13727.24
612.46	14963.04
612.62	14906.87
612.77	19351.55
612.92	17177.19
613.08	18410.65
613.23	16350.98
613.39	15150.29
613.54	16374.39
613.69	44371.88
613.85	65535.00
614.00	65535.00
614.15	65535.00
614.31	65535.00
614.46	65535.00
614.62	61006.06
614.77	49900.22
614.92	27234.47
615.08	19857.10
615.23	16751.21
615.38	14906.87
615.54	13568.09
615.69	17401.88
615.84	30654.00
616.00	50497.06
616.15	56961.62
616.30	53240.17
616.46	41895.59
616.61	29373.72
616.76	25675.68
616.92	18593.22
617.07	14001.08
617.22	12681.02
617.37	12779.32
617.53	13633.62
617.68	12718.47
617.83	13015.72
617.99	15683.93
618.14	16791.00
618.29	15283.70
618.45	13139.77
618.60	12093.55
618.75	11419.47
618.90	10724.33
619.06	12954.87
619.21	17046.12
619.36	15283.70
619.51	11449.90
619.67	11541.18
619.82	11419.47
619.97	13102.32
620.12	13783.41
620.28	13411.27
620.43	12315.90
620.58	13898.10
620.73	13366.80
620.89	13249.77
621.04	15136.24
621.19	26274.85
621.34	32568.55
621.49	42632.86
621.65	41581.96
621.80	30101.63
621.95	23290.67
622.10	21858.26
622.25	14359.19
622.41	12020.99
622.56	12910.40
622.71	13172.54
622.86	14420.04
623.01	11957.80
623.16	15550.52
623.32	10616.67
623.47	13191.26
623.62	11564.59
623.77	11676.93
623.92	11571.61
624.07	11117.54
624.23	11707.36
624.38	10810.93
624.53	12477.40
624.68	13605.53
624.83	15332.85
624.98	12723.15
625.13	11276.70
625.29	10644.76
625.44	11763.53
625.59	12702.09
625.74	13792.78
625.89	16114.59
626.04	26113.36
626.19	54873.86
626.34	62834.02
626.49	65535.00
626.65	63540.86
626.80	55728.16
626.95	44259.53
627.10	30733.57
627.25	21296.53
627.40	13816.18
627.55	13996.40
627.70	10944.34
627.85	13277.86
628.00	11140.95
628.15	10399.00
628.30	11775.24
628.45	9886.42
628.60	10981.79
628.76	11424.15
628.91	10593.26
629.06	11796.30
629.21	10853.06
629.36	13575.11
629.51	9383.21
629.66	12170.79
629.81	11880.56
629.96	20231.59
630.11	30916.14
630.26	38689.06
630.41	36048.93
630.56	29099.88
630.71	19826.68
630.86	17446.35
631.01	13151.47
631.16	12173.13
631.31	15321.15
631.46	14155.56
631.61	11124.57
631.76	12105.25
631.91	11026.26
632.06	12919.76
632.21	12580.38
632.36	12720.81
632.51	11129.25
632.66	12189.51
632.81	17570.40
632.96	38733.53
633.10	55917.74
633.25	62216.12
633.40	58749.79
633.55	50073.42
633.70	37574.96
633.85	28374.31
634.00	17404.22
634.15	13444.04
634.30	13167.85
634.45	12140.36
634.60	11215.85
634.75	9802.16
634.90	10312.40
635.05	11449.90
635.19	11602.04
635.34	10799.23
635.49	12140.36
635.64	10307.72
635.79	10452.83
635.94	12456.33
636.09	13032.10
636.24	11906.31
636.39	10988.82
636.53	13095.30
636.68	10289.00
636.83	11508.41
636.98	14387.27
637.13	10523.05
637.28	12599.10
637.43	15988.20
637.57	15740.10
637.72	36088.72
637.87	60985.00
638.02	65535.00
638.17	65535.00
638.32	65535.00
638.46	60727.54
638.61	55337.29
638.76	37876.89
638.91	22553.40
639.06	15288.38
639.20	17572.74
639.35	15800.96
639.50	16327.58
639.65	48612.93
639.80	65535.00
639.94	65535.00
640.09	65535.00
640.24	65535.00
640.39	65535.00
640.54	63131.27
640.68	50277.05
640.83	32849.42
640.98	18174.26
641.13	14061.94
641.27	11602.04
641.42	11520.12
641.57	14246.84
641.72	11768.21
641.86	11398.41
642.01	10607.31
642.16	13373.82
642.31	10523.05
642.45	14963.04
642.60	13439.36
642.75	9776.42
642.90	12844.86
643.04	9664.07
643.19	9909.83
643.34	10583.90
643.48	10991.16
643.63	10036.22
643.78	13617.24
643.93	14569.83
644.07	10389.64
644.22	9982.38
644.37	8451.67
644.51	12154.40
644.66	11576.29
644.81	9872.38
644.95	13001.68
645.10	9095.32
645.25	8847.22
645.39	12856.56
645.54	9284.91
645.69	14176.62
645.83	8437.63
645.98	15726.06
646.13	9015.74
646.27	11871.20
646.42	8039.74
646.57	8875.31
646.71	9074.26
646.86	8861.27
647.00	10019.83
647.15	11496.71
647.30	8074.85
647.44	8952.55
647.59	8056.12
647.74	7529.50
647.88	10380.28
648.03	7536.52
648.17	11641.82
648.32	7889.95
648.47	10635.39
648.61	9205.33
648.76	8617.85
648.90	9022.77
649.05	9563.43
649.20	8402.52
649.34	8727.86
649.49	8271.45
649.63	10176.65
649.78	9617.26
649.92	11115.20
650.07	23922.62
650.21	49815.96
650.36	62471.24
650.51	65535.00
650.65	65535.00
650.80	59526.84
650.94	48978.05
651.09	34590.78
651.23	21027.37
651.38	13940.23
651.52	11009.88
651.67	10068.98
651.81	10761.78
651.96	13268.50
652.10	12140.36
652.25	10033.88
652.39	11426.50
652.54	11164.36
652.68	13425.31
652.83	24411.79
652.97	37790.29
653.12	48907.83
653.26	42808.40
653.41	35765.73
653.55	26782.75
653.70	18403.63
653.84	14207.05
653.99	11447.56
654.13	9202.99
654.27	9870.04
654.42	8716.16
654.56	9296.61
654.71	11595.01
654.85	7939.10
655.00	7868.88
655.14	8727.86
655.29	7302.47
655.43	10743.06
655.57	9205.33
655.72	7400.77
655.86	9598.54
656.01	9298.95
656.15	8126.34
656.30	12376.75
656.44	8016.33
656.58	7515.46
656.73	8557.00
656.87	7613.76
657.01	8830.84
657.16	12835.50
657.30	10600.29
657.45	12894.01
657.59	10068.98
657.73	8086.55
657.88	9399.59
658.02	16648.23
658.16	8805.10
658.31	9217.03
658.45	8938.51
658.60	7426.52
658.74	9404.27
658.88	8177.83
659.03	8418.91
659.17	8877.65
659.31	12470.37
659.46	27812.59
659.60	47428.62
659.74	56528.62
659.89	53497.62
660.03	44753.38
660.17	37572.62
660.32	24671.59
660.46	17860.63
660.60	12442.29
660.74	12463.35
660.89	10476.24
661.03	8346.35
661.17	8526.57
661.32	8496.14
661.46	9212.35
661.60	8685.73
661.74	10274.95
661.89	11810.34
662.03	10300.70
662.17	8582.74
662.31	9806.84
662.46	10277.29
662.60	9516.62
662.74	8568.70
662.88	10682.20
663.03	8655.30
663.17	7676.96
663.31	9404.27
663.45	9699.18
663.60	8585.08
663.74	7438.22
663.88	7000.54
664.02	9460.45
664.17	7981.23
664.31	7871.22
664.45	9598.54
664.59	8945.53
664.73	9039.15
664.88	11190.10
665.02	7810.37
665.16	8870.63
665.30	12620.17
665.44	9668.75
665.59	11735.45
665.73	9891.10
665.87	9198.31
666.01	9121.07
666.15	8250.39
666.29	7463.97
666.44	12556.97
666.58	14303.01
666.72	8177.83
666.86	8645.94
667.00	11538.84
667.14	10862.43
667.28	21415.90
667.43	46527.51
667.57	62007.81
667.71	65535.00
667.85	61113.73
667.99	59763.24
668.13	45879.18
668.27	31325.73
668.41	21759.96
668.56	14693.88
668.70	15363.28
668.84	10235.16
668.98	10663.48
669.12	7410.14
669.26	9767.06
669.40	14913.89
669.54	9764.72
669.68	11480.33
669.82	7721.43
669.96	9256.82
670.10	8938.51
670.25	10616.67
670.39	10602.63
670.53	8461.04
670.67	10303.04
670.81	7459.29
670.95	10232.82
671.09	10803.91
671.23	24697.33
671.37	42534.56
671.51	55648.58
671.65	59131.29
671.79	52772.06
671.93	42447.96
672.07	33230.93
672.21	20706.72
672.35	13769.37
672.49	10803.91
672.63	12072.48
672.77	10204.74
672.91	10005.79
673.05	9062.55
673.19	9224.05
673.33	7311.83
673.47	13394.89
673.61	8828.50
673.75	7489.71
673.89	7103.53
674.03	10106.43
674.17	8229.32
674.31	9053.19
674.45	9827.91
674.59	9181.92
674.73	8540.61
674.87	9750.67
675.01	10616.67
675.15	8622.53
675.29	11803.32
675.43	10944.34
675.56	12725.49
675.70	11735.45
675.84	8329.97
675.98	9305.97
676.12	6443.49
676.26	8135.70
676.40	6525.41
676.54	8156.77
676.68	7590.36
676.82	10532.41
676.96	6738.40
677.10	9088.30
677.23	7227.57
677.37	6506.69
677.51	8138.04
677.65	14125.13
677.79	7117.57
677.93	6832.02
678.07	7433.54
678.21	6534.78
678.34	6963.09
678.48	6532.44
678.62	8507.85
678.76	5825.59
678.90	7651.21
679.04	8067.83
679.18	6857.77
679.31	6452.86
679.45	6384.98
679.59	8374.44
679.73	8102.93
679.87	6045.60
680.00	8456.36
680.14	8269.11
680.28	8854.25
680.42	7094.16
680.56	9163.20
680.70	6483.28
680.83	8439.97
680.97	6406.05
681.11	6829.68
681.25	9291.93
681.39	7403.11
681.52	8285.50
681.66	7857.18
681.80	8802.75
681.94	6279.66
682.07	7197.15
682.21	8362.73
682.35	6211.78
682.49	6162.63
682.62	9673.43
682.76	6071.35
682.90	7091.82
683.04	8484.44
683.17	8674.03
683.31	6864.79
683.45	9179.58
683.59	10567.52
683.72	9472.15
683.86	8344.01
684.00	6314.77
684.13	9820.89
684.27	8711.47
684.41	8486.78
684.55	7236.94
684.68	7059.06
684.82	6141.57
684.96	6839.05
685.09	7428.86
685.23	5879.43
685.37	6125.18
685.50	9268.52
685.64	9671.09
685.78	5598.56
685.91	8659.98
686.05	9891.10
686.19	7658.23
686.32	7293.11
686.46	7494.40
686.60	4484.47
686.73	11960.14
686.87	9018.08
687.01	5460.47
687.14	4767.67
687.28	5933.26
687.42	6239.87
687.55	6094.76
687.69	9928.55
687.82	5352.81
687.96	6265.61
688.10	9221.71
688.23	6181.35
688.37	10038.56
688.50	7602.06
688.64	7712.07
688.78	5329.40
688.91	5598.56
689.05	5977.73
689.18	4748.95
689.32	5982.41
689.46	5537.71
689.59	7279.07
689.73	8313.58
689.86	4835.55
690.00	6003.47
690.13	5287.27
690.27	5022.79
690.41	7220.55
690.54	8355.71
690.68	7124.59
690.81	5949.64
690.95	6342.85
691.08	7028.63
691.22	5542.39
691.35	6099.44
691.49	4727.88
691.62	6136.88
691.76	5444.09
691.89	6874.15
692.03	5104.71
692.16	4940.87
692.30	7695.68
692.43	9825.57
692.57	19850.08
692.70	35196.98
692.84	49815.96
692.97	46504.10
693.11	35426.35
693.24	27887.48
693.38	19351.55
693.51	14628.35
693.65	13528.30
693.78	8765.31
693.92	6794.58
694.05	7941.44
694.19	4931.51
694.32	6794.58
694.45	5488.56
694.59	5247.48
694.72	5614.95
694.86	5781.12
694.99	7398.43
695.13	5121.09
695.26	6307.74
695.39	5970.71
695.53	11445.22
695.66	6424.77
695.80	8390.82
695.93	5142.16
696.07	5937.94
696.20	7625.47
696.33	6555.84
696.47	8423.59
696.60	8400.18
696.73	8526.57
696.87	6436.47
697.00	11227.55
697.14	6537.12
697.27	6560.52
697.40	12336.96
697.54	5561.11
697.67	6499.67
697.80	6881.18
697.94	5308.34
698.07	6232.85
698.21	5430.04
698.34	7674.62
698.47	4568.73
698.61	4479.79
698.74	4765.33
698.87	7882.92
699.01	5956.66
699.14	5095.35
699.27	7358.64
699.40	16585.04
699.54	5373.87
699.67	4840.23
699.80	4365.10
699.94	4657.67
700.07	4695.11
700.20	4315.95
700.34	5921.56
700.47	3894.65
700.60	4533.62
700.73	5554.09
700.87	9043.83
701.00	5144.50
701.13	5015.77
701.26	5973.05
701.40	5605.58
701.53	4950.23
701.66	4250.41
701.79	5661.76
701.93	5926.24
702.06	10494.96
702.19	6986.50
702.32	11061.37
702.46	7908.67
702.59	7080.12
702.72	9703.86
702.85	26340.39
702.99	50988.57
703.12	63208.51
703.25	64598.79
703.38	60807.12
703.51	59159.38
703.65	51987.98
703.78	39819.53
703.91	28304.10
704.04	21008.65
704.17	13130.41
704.31	7721.43
704.44	6796.92
704.57	6562.86
704.70	6354.55
704.83	5900.49
704.96	5977.73
705.10	6174.33
705.23	5476.85
>>>>>End Processed Spectral Data<<<<<
