SpectraSuite Data File
++++++++++++++++++++++++++++++++++++
Date: Fri Oct 04 11:33:54 GMT-05:00 2013
User: price-jones
Dark Spectrum Present: No
Reference Spectrum Present: No
Number of Sampled Component Spectra: 1
Spectrometers: USB2+H05261
Integration Time (usec): 100000 (USB2+H05261)
Spectra Averaged: 1 (USB2+H05261)
Boxcar Smoothing: 0 (USB2+H05261)
Correct for Electrical Dark: No (USB2+H05261)
Strobe/Lamp Enabled: No (USB2+H05261)
Correct for Detector Non-linearity: No (USB2+H05261)
Correct for Stray Light: No (USB2+H05261)
Number of Pixels in Processed Spectrum: 2048
>>>>>Begin Processed Spectral Data<<<<<
365.73	102.98
365.92	102.98
366.12	102.98
366.32	0.00
366.52	0.00
366.72	0.00
366.91	0.00
367.11	0.00
367.31	4.68
367.51	0.00
367.70	0.00
367.90	0.00
368.10	14.04
368.30	0.00
368.49	0.00
368.69	0.00
368.89	0.00
369.09	0.00
369.28	32.77
369.48	0.00
369.68	0.00
369.87	21.06
370.07	0.00
370.27	65.54
370.47	65.54
370.66	102.98
370.86	72.56
371.06	93.62
371.25	65.54
371.45	121.71
371.65	112.35
371.84	98.30
372.04	39.79
372.24	98.30
372.44	77.24
372.63	107.66
372.83	177.88
373.03	177.88
373.22	131.07
373.42	149.79
373.62	131.07
373.81	166.18
374.01	210.65
374.21	138.09
374.40	142.77
374.60	173.20
374.79	175.54
374.99	189.58
375.19	65.54
375.38	168.52
375.58	133.41
375.78	168.52
375.97	114.69
376.17	222.35
376.37	210.65
376.56	128.73
376.76	98.30
376.95	121.71
377.15	131.07
377.35	205.97
377.54	173.20
377.74	44.47
377.93	175.54
378.13	161.50
378.33	201.29
378.52	121.71
378.72	93.62
378.91	147.45
379.11	182.56
379.31	110.01
379.50	74.90
379.70	117.03
379.89	175.54
380.09	93.62
380.28	67.88
380.48	112.35
380.68	184.90
380.87	119.37
381.07	177.88
381.26	135.75
381.46	154.48
381.65	198.95
381.85	88.94
382.04	154.48
382.24	110.01
382.43	79.58
382.63	105.32
382.83	100.64
383.02	135.75
383.22	156.82
383.41	126.39
383.61	152.13
383.80	119.37
384.00	110.01
384.19	140.43
384.39	145.11
384.58	117.03
384.78	168.52
384.97	121.71
385.17	124.05
385.36	91.28
385.56	142.77
385.75	77.24
385.95	142.77
386.14	210.65
386.34	133.41
386.53	88.94
386.72	25.75
386.92	177.88
387.11	170.86
387.31	124.05
387.50	128.73
387.70	152.13
387.89	86.60
388.09	100.64
388.28	102.98
388.48	140.43
388.67	189.58
388.86	131.07
389.06	140.43
389.25	149.79
389.45	156.82
389.64	161.50
389.84	95.96
390.03	114.69
390.22	138.09
390.42	145.11
390.61	88.94
390.81	114.69
391.00	156.82
391.19	147.45
391.39	177.88
391.58	145.11
391.78	152.13
391.97	112.35
392.16	175.54
392.36	135.75
392.55	149.79
392.75	105.32
392.94	173.20
393.13	159.16
393.33	117.03
393.52	72.56
393.71	128.73
393.91	138.09
394.10	227.03
394.29	114.69
394.49	168.52
394.68	255.12
394.88	161.50
395.07	124.05
395.26	142.77
395.46	198.95
395.65	177.88
395.84	177.88
396.04	168.52
396.23	95.96
396.42	184.90
396.62	175.54
396.81	100.64
397.00	163.84
397.19	126.39
397.39	212.99
397.58	142.77
397.77	191.92
397.97	145.11
398.16	133.41
398.35	67.88
398.55	156.82
398.74	133.41
398.93	133.41
399.12	166.18
399.32	138.09
399.51	149.79
399.70	145.11
399.90	140.43
400.09	191.92
400.28	117.03
400.47	154.48
400.67	182.56
400.86	196.60
401.05	145.11
401.24	135.75
401.44	175.54
401.63	180.22
401.82	173.20
402.01	67.88
402.21	117.03
402.40	187.24
402.59	53.83
402.78	170.86
402.97	124.05
403.17	161.50
403.36	224.69
403.55	81.92
403.74	175.54
403.93	229.37
404.13	250.44
404.32	266.82
404.51	205.97
404.70	175.54
404.89	51.49
405.09	149.79
405.28	187.24
405.47	187.24
405.66	177.88
405.85	110.01
406.05	112.35
406.24	194.26
406.43	215.33
406.62	138.09
406.81	168.52
407.00	210.65
407.20	126.39
407.39	81.92
407.58	147.45
407.77	154.48
407.96	198.95
408.15	229.37
408.34	93.62
408.54	191.92
408.73	262.14
408.92	166.18
409.11	168.52
409.30	154.48
409.49	184.90
409.68	147.45
409.87	138.09
410.07	180.22
410.26	135.75
410.45	175.54
410.64	170.86
410.83	170.86
411.02	201.29
411.21	114.69
411.40	175.54
411.59	205.97
411.78	145.11
411.98	159.16
412.17	166.18
412.36	191.92
412.55	168.52
412.74	152.13
412.93	198.95
413.12	138.09
413.31	140.43
413.50	229.37
413.69	112.35
413.88	220.01
414.07	194.26
414.26	194.26
414.45	194.26
414.64	248.10
414.83	210.65
415.02	135.75
415.22	187.24
415.41	210.65
415.60	166.18
415.79	203.63
415.98	154.48
416.17	222.35
416.36	250.44
416.55	100.64
416.74	149.79
416.93	222.35
417.12	175.54
417.31	147.45
417.50	175.54
417.69	332.36
417.88	243.42
418.07	262.14
418.26	184.90
418.45	184.90
418.64	318.31
418.83	292.57
419.02	191.92
419.21	201.29
419.39	252.78
419.58	276.18
419.77	159.16
419.96	278.52
420.15	173.20
420.34	210.65
420.53	112.35
420.72	161.50
420.91	191.92
421.10	138.09
421.29	161.50
421.48	135.75
421.67	142.77
421.86	229.37
422.05	187.24
422.24	198.95
422.43	173.20
422.61	107.66
422.80	88.94
422.99	131.07
423.18	210.65
423.37	180.22
423.56	224.69
423.75	222.35
423.94	140.43
424.13	189.58
424.32	140.43
424.50	145.11
424.69	149.79
424.88	198.95
425.07	121.71
425.26	234.05
425.45	208.31
425.64	269.16
425.83	262.14
426.01	255.12
426.20	210.65
426.39	212.99
426.58	163.84
426.77	205.97
426.96	210.65
427.15	238.73
427.33	184.90
427.52	170.86
427.71	163.84
427.90	262.14
428.09	208.31
428.28	191.92
428.46	187.24
428.65	191.92
428.84	231.71
429.03	252.78
429.22	217.67
429.40	170.86
429.59	93.62
429.78	180.22
429.97	140.43
430.16	161.50
430.34	138.09
430.53	166.18
430.72	255.12
430.91	184.90
431.10	152.13
431.28	138.09
431.47	187.24
431.66	217.67
431.85	93.62
432.03	161.50
432.22	224.69
432.41	208.31
432.60	154.48
432.79	271.50
432.97	259.80
433.16	369.80
433.35	304.27
433.54	243.42
433.72	285.55
433.91	229.37
434.10	262.14
434.28	234.05
434.47	154.48
434.66	264.48
434.85	119.37
435.03	262.14
435.22	376.83
435.41	383.85
435.59	433.00
435.78	379.17
435.97	224.69
436.16	278.52
436.34	124.05
436.53	131.07
436.72	187.24
436.90	182.56
437.09	149.79
437.28	177.88
437.46	159.16
437.65	168.52
437.84	184.90
438.02	266.82
438.21	142.77
438.40	133.41
438.58	131.07
438.77	264.48
438.96	234.05
439.14	114.69
439.33	238.73
439.52	194.26
439.70	229.37
439.89	140.43
440.08	161.50
440.26	170.86
440.45	203.63
440.63	220.01
440.82	152.13
441.01	212.99
441.19	194.26
441.38	161.50
441.57	203.63
441.75	201.29
441.94	205.97
442.12	166.18
442.31	138.09
442.50	222.35
442.68	198.95
442.87	154.48
443.05	154.48
443.24	212.99
443.43	142.77
443.61	234.05
443.80	182.56
443.98	175.54
444.17	163.84
444.35	168.52
444.54	124.05
444.73	243.42
444.91	252.78
445.10	201.29
445.28	224.69
445.47	154.48
445.65	191.92
445.84	184.90
446.02	154.48
446.21	117.03
446.39	215.33
446.58	177.88
446.77	152.13
446.95	184.90
447.14	210.65
447.32	198.95
447.51	194.26
447.69	194.26
447.88	238.73
448.06	133.41
448.25	114.69
448.43	128.73
448.62	159.16
448.80	203.63
448.99	243.42
449.17	177.88
449.36	187.24
449.54	205.97
449.73	187.24
449.91	177.88
450.10	196.60
450.28	248.10
450.46	301.93
450.65	250.44
450.83	212.99
451.02	262.14
451.20	128.73
451.39	194.26
451.57	220.01
451.76	217.67
451.94	159.16
452.13	234.05
452.31	250.44
452.49	238.73
452.68	152.13
452.86	163.84
453.05	271.50
453.23	161.50
453.42	184.90
453.60	177.88
453.78	201.29
453.97	161.50
454.15	210.65
454.34	182.56
454.52	208.31
454.70	208.31
454.89	149.79
455.07	170.86
455.26	180.22
455.44	236.39
455.62	159.16
455.81	152.13
455.99	210.65
456.17	168.52
456.36	156.82
456.54	227.03
456.73	201.29
456.91	205.97
457.09	283.20
457.28	191.92
457.46	201.29
457.64	250.44
457.83	154.48
458.01	168.52
458.19	215.33
458.38	180.22
458.56	227.03
458.74	182.56
458.93	229.37
459.11	187.24
459.29	184.90
459.48	159.16
459.66	231.71
459.84	273.84
460.03	262.14
460.21	276.18
460.39	189.58
460.57	234.05
460.76	203.63
460.94	147.45
461.12	198.95
461.31	252.78
461.49	191.92
461.67	170.86
461.85	187.24
462.04	198.95
462.22	662.37
462.40	198.95
462.59	182.56
462.77	128.73
462.95	201.29
463.13	187.24
463.32	180.22
463.50	189.58
463.68	205.97
463.86	210.65
464.05	227.03
464.23	177.88
464.41	161.50
464.59	152.13
464.78	236.39
464.96	112.35
465.14	156.82
465.32	135.75
465.50	245.76
465.69	196.60
465.87	156.82
466.05	182.56
466.23	212.99
466.41	248.10
466.60	184.90
466.78	224.69
466.96	196.60
467.14	161.50
467.32	142.77
467.51	135.75
467.69	313.63
467.87	238.73
468.05	227.03
468.23	208.31
468.41	173.20
468.60	182.56
468.78	245.76
468.96	159.16
469.14	220.01
469.32	173.20
469.50	262.14
469.69	177.88
469.87	166.18
470.05	170.86
470.23	266.82
470.41	163.84
470.59	175.54
470.77	229.37
470.95	224.69
471.14	238.73
471.32	145.11
471.50	269.16
471.68	220.01
471.86	205.97
472.04	126.39
472.22	168.52
472.40	257.46
472.58	145.11
472.77	236.39
472.95	208.31
473.13	189.58
473.31	170.86
473.49	217.67
473.67	196.60
473.85	173.20
474.03	243.42
474.21	201.29
474.39	262.14
474.57	241.08
474.75	245.76
474.93	234.05
475.12	220.01
475.30	201.29
475.48	163.84
475.66	229.37
475.84	236.39
476.02	135.75
476.20	231.71
476.38	252.78
476.56	322.99
476.74	217.67
476.92	215.33
477.10	231.71
477.28	177.88
477.46	145.11
477.64	266.82
477.82	180.22
478.00	184.90
478.18	168.52
478.36	131.07
478.54	210.65
478.72	184.90
478.90	212.99
479.08	278.52
479.26	189.58
479.44	278.52
479.62	217.67
479.80	175.54
479.98	177.88
480.16	163.84
480.34	173.20
480.52	231.71
480.70	194.26
480.88	142.77
481.06	217.67
481.24	205.97
481.41	259.80
481.59	271.50
481.77	210.65
481.95	224.69
482.13	311.29
482.31	196.60
482.49	163.84
482.67	262.14
482.85	262.14
483.03	229.37
483.21	205.97
483.39	227.03
483.57	227.03
483.74	222.35
483.92	236.39
484.10	182.56
484.28	252.78
484.46	294.91
484.64	208.31
484.82	285.55
485.00	250.44
485.18	222.35
485.35	280.86
485.53	262.14
485.71	217.67
485.89	173.20
486.07	191.92
486.25	292.57
486.43	308.95
486.61	285.55
486.78	273.84
486.96	231.71
487.14	280.86
487.32	161.50
487.50	241.08
487.68	287.89
487.85	191.92
488.03	271.50
488.21	315.97
488.39	264.48
488.57	294.91
488.75	241.08
488.92	447.04
489.10	313.63
489.28	344.06
489.46	306.61
489.64	215.33
489.81	320.65
489.99	266.82
490.17	234.05
490.35	276.18
490.53	299.59
490.70	234.05
490.88	304.27
491.06	264.48
491.24	236.39
491.41	222.35
491.59	334.70
491.77	283.20
491.95	245.76
492.13	224.69
492.30	227.03
492.48	311.29
492.66	276.18
492.84	257.46
493.01	257.46
493.19	294.91
493.37	236.39
493.54	266.82
493.72	243.42
493.90	222.35
494.08	266.82
494.25	241.08
494.43	259.80
494.61	229.37
494.79	210.65
494.96	220.01
495.14	285.55
495.32	220.01
495.49	227.03
495.67	238.73
495.85	271.50
496.02	278.52
496.20	285.55
496.38	238.73
496.55	229.37
496.73	294.91
496.91	269.16
497.09	269.16
497.26	273.84
497.44	224.69
497.62	243.42
497.79	294.91
497.97	252.78
498.14	236.39
498.32	248.10
498.50	220.01
498.67	248.10
498.85	325.33
499.03	278.52
499.20	266.82
499.38	266.82
499.56	238.73
499.73	283.20
499.91	229.37
500.08	264.48
500.26	203.63
500.44	184.90
500.61	252.78
500.79	142.77
500.97	280.86
501.14	306.61
501.32	273.84
501.49	215.33
501.67	266.82
501.84	255.12
502.02	212.99
502.20	245.76
502.37	257.46
502.55	252.78
502.72	191.92
502.90	311.29
503.07	283.20
503.25	297.25
503.43	276.18
503.60	301.93
503.78	252.78
503.95	276.18
504.13	257.46
504.30	269.16
504.48	255.12
504.65	322.99
504.83	315.97
505.01	320.65
505.18	290.23
505.36	231.71
505.53	313.63
505.71	248.10
505.88	292.57
506.06	280.86
506.23	177.88
506.41	227.03
506.58	273.84
506.76	292.57
506.93	245.76
507.11	322.99
507.28	327.68
507.46	245.76
507.63	262.14
507.81	276.18
507.98	280.86
508.16	287.89
508.33	234.05
508.50	264.48
508.68	205.97
508.85	210.65
509.03	189.58
509.20	217.67
509.38	266.82
509.55	301.93
509.73	234.05
509.90	231.71
510.08	212.99
510.25	341.72
510.42	243.42
510.60	257.46
510.77	243.42
510.95	227.03
511.12	318.31
511.30	285.55
511.47	299.59
511.64	332.36
511.82	339.38
511.99	264.48
512.17	266.82
512.34	273.84
512.51	215.33
512.69	238.73
512.86	241.08
513.04	304.27
513.21	257.46
513.38	266.82
513.56	238.73
513.73	269.16
513.90	182.56
514.08	231.71
514.25	255.12
514.43	351.08
514.60	222.35
514.77	294.91
514.95	234.05
515.12	287.89
515.29	238.73
515.47	280.86
515.64	208.31
515.81	236.39
515.99	255.12
516.16	241.08
516.33	252.78
516.51	170.86
516.68	210.65
516.85	238.73
517.03	191.92
517.20	325.33
517.37	255.12
517.54	276.18
517.72	224.69
517.89	166.18
518.06	248.10
518.24	231.71
518.41	346.40
518.58	278.52
518.75	271.50
518.93	252.78
519.10	362.78
519.27	259.80
519.45	189.58
519.62	255.12
519.79	236.39
519.96	215.33
520.14	332.36
520.31	292.57
520.48	269.16
520.65	287.89
520.83	234.05
521.00	238.73
521.17	262.14
521.34	252.78
521.52	245.76
521.69	276.18
521.86	292.57
522.03	259.80
522.20	262.14
522.38	304.27
522.55	266.82
522.72	194.26
522.89	252.78
523.07	383.85
523.24	238.73
523.41	220.01
523.58	217.67
523.75	271.50
523.92	236.39
524.10	250.44
524.27	245.76
524.44	278.52
524.61	285.55
524.78	292.57
524.96	234.05
525.13	315.97
525.30	339.38
525.47	278.52
525.64	287.89
525.81	255.12
525.98	248.10
526.16	245.76
526.33	264.48
526.50	285.55
526.67	278.52
526.84	280.86
527.01	255.12
527.18	322.99
527.36	262.14
527.53	297.25
527.70	252.78
527.87	266.82
528.04	332.36
528.21	250.44
528.38	271.50
528.55	273.84
528.72	344.06
528.89	337.04
529.07	252.78
529.24	259.80
529.41	337.04
529.58	262.14
529.75	290.23
529.92	341.72
530.09	252.78
530.26	344.06
530.43	290.23
530.60	252.78
530.77	280.86
530.94	327.68
531.11	304.27
531.28	308.95
531.46	236.39
531.63	241.08
531.80	346.40
531.97	290.23
532.14	205.97
532.31	315.97
532.48	315.97
532.65	409.59
532.82	463.43
532.99	447.04
533.16	407.25
533.33	266.82
533.50	374.49
533.67	360.44
533.84	526.62
534.01	411.93
534.18	444.70
534.35	348.74
534.52	372.15
534.69	358.10
534.86	360.44
535.03	264.48
535.20	339.38
535.37	337.04
535.54	245.76
535.71	259.80
535.88	341.72
536.05	341.72
536.22	313.63
536.38	250.44
536.55	297.25
536.72	294.91
536.89	212.99
537.06	266.82
537.23	332.36
537.40	271.50
537.57	376.83
537.74	311.29
537.91	376.83
538.08	355.76
538.25	386.19
538.42	306.61
538.59	259.80
538.75	344.06
538.92	369.80
539.09	332.36
539.26	367.46
539.43	627.26
539.60	1219.42
539.77	1949.67
539.94	2043.29
540.11	1390.28
540.28	931.53
540.44	669.39
540.61	461.09
540.78	524.28
540.95	461.09
541.12	547.69
541.29	559.39
541.46	512.58
541.62	526.62
541.79	512.58
541.96	540.66
542.13	538.32
542.30	486.83
542.47	543.00
542.63	437.68
542.80	496.19
542.97	554.71
543.14	482.15
543.31	430.66
543.48	482.15
543.64	564.07
543.81	407.25
543.98	503.22
544.15	440.02
544.32	433.00
544.48	444.70
544.65	510.24
544.82	421.30
544.99	430.66
545.16	507.90
545.32	528.96
545.49	699.82
545.66	861.32
545.83	912.81
546.00	711.52
546.16	582.79
546.33	507.90
546.50	435.34
546.67	505.56
546.83	397.89
547.00	416.62
547.17	383.85
547.34	418.96
547.50	320.65
547.67	393.21
547.84	358.10
548.00	428.32
548.17	376.83
548.34	447.04
548.51	411.93
548.67	383.85
548.84	348.74
549.01	360.44
549.18	341.72
549.34	395.55
549.51	327.68
549.68	376.83
549.84	320.65
550.01	234.05
550.18	496.19
550.34	360.44
550.51	322.99
550.68	320.65
550.84	381.51
551.01	308.95
551.18	308.95
551.34	297.25
551.51	290.23
551.68	294.91
551.84	344.06
552.01	341.72
552.18	283.20
552.34	278.52
552.51	322.99
552.68	320.65
552.84	299.59
553.01	369.80
553.18	304.27
553.34	308.95
553.51	243.42
553.67	255.12
553.84	376.83
554.01	297.25
554.17	290.23
554.34	262.14
554.51	142.77
554.67	315.97
554.84	264.48
555.00	315.97
555.17	308.95
555.33	348.74
555.50	290.23
555.67	308.95
555.83	252.78
556.00	299.59
556.16	484.49
556.33	304.27
556.50	313.63
556.66	222.35
556.83	315.97
556.99	227.03
557.16	276.18
557.32	278.52
557.49	390.87
557.65	241.08
557.82	290.23
557.98	322.99
558.15	229.37
558.32	306.61
558.48	290.23
558.65	252.78
558.81	250.44
558.98	250.44
559.14	264.48
559.31	311.29
559.47	292.57
559.64	250.44
559.80	198.95
559.97	255.12
560.13	290.23
560.30	278.52
560.46	311.29
560.63	285.55
560.79	273.84
560.96	250.44
561.12	276.18
561.29	266.82
561.45	250.44
561.61	271.50
561.78	315.97
561.94	271.50
562.11	264.48
562.27	283.20
562.44	276.18
562.60	285.55
562.77	196.60
562.93	346.40
563.10	278.52
563.26	259.80
563.42	315.97
563.59	278.52
563.75	283.20
563.92	308.95
564.08	250.44
564.24	301.93
564.41	332.36
564.57	264.48
564.74	313.63
564.90	250.44
565.07	348.74
565.23	306.61
565.39	353.42
565.56	304.27
565.72	250.44
565.88	273.84
566.05	203.63
566.21	301.93
566.38	266.82
566.54	248.10
566.70	245.76
566.87	257.46
567.03	205.97
567.19	271.50
567.36	311.29
567.52	269.16
567.68	285.55
567.85	294.91
568.01	266.82
568.17	278.52
568.34	276.18
568.50	304.27
568.66	231.71
568.83	351.08
568.99	271.50
569.15	341.72
569.32	257.46
569.48	315.97
569.64	283.20
569.81	250.44
569.97	245.76
570.13	315.97
570.30	292.57
570.46	243.42
570.62	241.08
570.78	285.55
570.95	243.42
571.11	313.63
571.27	280.86
571.43	318.31
571.60	285.55
571.76	243.42
571.92	383.85
572.09	278.52
572.25	285.55
572.41	262.14
572.57	266.82
572.74	297.25
572.90	262.14
573.06	294.91
573.22	327.68
573.38	320.65
573.55	362.78
573.71	276.18
573.87	278.52
574.03	217.67
574.20	292.57
574.36	409.59
574.52	351.08
574.68	444.70
574.84	344.06
575.01	297.25
575.17	234.05
575.33	236.39
575.49	264.48
575.65	330.02
575.82	519.60
575.98	674.07
576.14	898.77
576.30	950.26
576.46	723.23
576.62	650.67
576.79	566.41
576.95	545.34
577.11	416.62
577.27	388.53
577.43	297.25
577.59	358.10
577.75	313.63
577.92	264.48
578.08	290.23
578.24	318.31
578.40	477.47
578.56	411.93
578.72	472.79
578.88	489.17
579.04	358.10
579.21	379.17
579.37	346.40
579.53	395.55
579.69	388.53
579.85	388.53
580.01	491.51
580.17	491.51
580.33	596.84
580.49	477.47
580.65	433.00
580.82	430.66
580.98	461.09
581.14	456.40
581.30	437.68
581.46	507.90
581.62	767.70
581.78	805.14
581.94	758.33
582.10	678.76
582.26	613.22
582.42	561.73
582.58	575.77
582.74	526.62
582.90	566.41
583.06	554.71
583.22	627.26
583.38	608.54
583.54	655.35
583.70	770.04
583.86	777.06
584.02	866.00
584.18	1071.97
584.34	1455.81
584.50	3534.21
584.66	24788.61
584.82	60168.15
584.98	65535.00
585.14	65535.00
585.30	62035.90
585.46	38092.22
585.62	23379.61
585.78	10569.86
585.94	4294.88
586.10	2005.84
586.26	1301.34
586.42	1076.65
586.58	931.53
586.74	830.89
586.90	774.72
587.06	807.48
587.22	781.74
587.38	739.61
587.54	1336.45
587.70	3875.93
587.86	7152.68
588.02	8622.53
588.18	6015.18
588.34	3822.09
588.49	2511.39
588.65	1504.96
588.81	873.02
588.97	540.66
589.13	393.21
589.29	451.72
589.45	472.79
589.61	409.59
589.77	468.11
589.93	543.00
590.08	519.60
590.24	594.50
590.40	603.86
590.56	568.75
590.72	465.77
590.88	468.11
591.04	500.87
591.20	411.93
591.35	458.74
591.51	435.34
591.67	454.06
591.83	409.59
591.99	461.09
592.15	484.49
592.31	325.33
592.46	407.25
592.62	311.29
592.78	376.83
592.94	351.08
593.10	379.17
593.26	468.11
593.41	423.64
593.57	463.43
593.73	692.80
593.89	3063.76
594.05	8341.67
594.20	14005.77
594.36	14050.24
594.52	9071.92
594.68	5687.50
594.84	3660.60
594.99	2083.08
595.15	933.87
595.31	550.03
595.47	496.19
595.62	376.83
595.78	390.87
595.94	411.93
596.10	409.59
596.25	390.87
596.41	418.96
596.57	411.93
596.73	367.46
596.88	566.41
597.04	1540.07
597.20	2925.67
597.36	3627.83
597.51	2855.45
597.67	1818.60
597.83	1320.06
597.99	908.13
598.14	526.62
598.30	475.13
598.46	449.38
598.61	390.87
598.77	386.19
598.93	362.78
599.09	407.25
599.24	374.49
599.40	402.57
599.56	374.49
599.71	322.99
599.87	306.61
600.03	327.68
600.18	280.86
600.34	315.97
600.50	308.95
600.65	287.89
600.81	304.27
600.97	278.52
601.12	304.27
601.28	257.46
601.44	374.49
601.59	292.57
601.75	243.42
601.91	301.93
602.06	278.52
602.22	425.98
602.37	851.96
602.53	2033.93
602.69	3246.32
602.84	3740.18
603.00	2684.59
603.16	1858.39
603.31	1362.19
603.47	828.55
603.62	531.30
603.78	353.42
603.94	346.40
604.09	311.29
604.25	276.18
604.40	348.74
604.56	351.08
604.71	344.06
604.87	339.38
605.03	362.78
605.18	397.89
605.34	409.59
605.49	306.61
605.65	337.04
605.80	376.83
605.96	395.55
606.12	372.15
606.27	451.72
606.43	491.51
606.58	423.64
606.74	875.36
606.89	3597.40
607.05	8217.62
607.20	12393.14
607.36	10494.96
607.51	6909.26
607.67	4278.50
607.82	2899.92
607.98	1668.80
608.13	938.55
608.29	552.37
608.44	690.46
608.60	627.26
608.75	653.01
608.91	1275.59
609.06	5717.93
609.22	14644.73
609.37	21432.29
609.53	19360.91
609.68	12692.73
609.84	7786.96
609.99	5205.35
610.15	2888.22
610.30	1565.82
610.46	1057.92
610.61	952.60
610.76	943.24
610.92	1071.97
611.07	1088.35
611.23	1118.78
611.38	1088.35
611.54	964.30
611.69	805.14
611.84	737.27
612.00	723.23
612.15	624.92
612.31	763.01
612.46	950.26
612.62	1062.60
612.77	983.02
612.92	917.49
613.08	837.91
613.23	798.12
613.39	763.01
613.54	1132.82
613.69	5097.69
613.85	16929.09
614.00	30221.00
614.15	34586.10
614.31	24063.05
614.46	15133.90
614.62	10005.79
614.77	6204.76
614.92	2897.58
615.08	1249.85
615.23	835.57
615.38	650.67
615.54	702.16
615.69	1095.37
615.84	3281.43
616.00	6284.34
616.15	8837.86
616.30	7304.81
616.46	4917.47
616.61	3288.45
616.76	2155.63
616.92	1289.64
617.07	765.36
617.22	461.09
617.37	440.02
617.53	449.38
617.68	484.49
617.83	414.27
617.99	437.68
618.14	400.23
618.29	425.98
618.45	278.52
618.60	348.74
618.75	297.25
618.90	353.42
619.06	379.17
619.21	322.99
619.36	353.42
619.51	367.46
619.67	290.23
619.82	315.97
619.97	400.23
620.12	358.10
620.28	409.59
620.43	383.85
620.58	402.57
620.73	341.72
620.89	428.32
621.04	603.86
621.19	1706.25
621.34	3515.48
621.49	5205.35
621.65	4652.98
621.80	3243.98
621.95	2101.80
622.10	1603.27
622.25	1034.52
622.41	606.20
622.56	400.23
622.71	257.46
622.86	334.70
623.01	400.23
623.16	407.25
623.32	344.06
623.47	308.95
623.62	271.50
623.77	372.15
623.92	308.95
624.07	358.10
624.23	395.55
624.38	330.02
624.53	358.10
624.68	297.25
624.83	334.70
624.98	365.12
625.13	339.38
625.29	306.61
625.44	404.91
625.59	472.79
625.74	470.45
625.89	629.60
626.04	2544.16
626.19	8032.72
626.34	14740.69
626.49	18017.44
626.65	12819.11
626.80	8585.08
626.95	5586.86
627.10	3494.42
627.25	1799.87
627.40	891.74
627.55	538.32
627.70	315.97
627.85	430.66
628.00	421.30
628.15	374.49
628.30	383.85
628.45	222.35
628.60	241.08
628.76	360.44
628.91	280.86
629.06	362.78
629.21	362.78
629.36	365.12
629.51	292.57
629.66	376.83
629.81	519.60
629.96	1596.25
630.11	3080.14
630.26	4301.90
630.41	4025.72
630.56	2876.52
630.71	1942.64
630.86	1504.96
631.01	889.40
631.16	580.45
631.31	435.34
631.46	456.40
631.61	386.19
631.76	313.63
631.91	278.52
632.06	393.21
632.21	386.19
632.36	416.62
632.51	383.85
632.66	514.92
632.81	1273.25
632.96	4379.14
633.10	8837.86
633.25	11730.76
633.40	9486.19
633.55	6628.40
633.70	4472.76
633.85	2974.82
634.00	1523.69
634.15	800.46
634.30	571.09
634.45	507.90
634.60	236.39
634.75	365.12
634.90	315.97
635.05	301.93
635.19	299.59
635.34	318.31
635.49	322.99
635.64	379.17
635.79	334.70
635.94	334.70
636.09	308.95
636.24	367.46
636.39	386.19
636.53	353.42
636.68	390.87
636.83	379.17
636.98	397.89
637.13	414.27
637.28	447.04
637.43	512.58
637.57	746.63
637.72	3513.14
637.87	10377.94
638.02	18944.30
638.17	22967.68
638.32	16355.66
638.46	10888.17
638.61	7281.41
638.76	4465.74
638.91	2179.04
639.06	1170.27
639.20	781.74
639.35	748.97
639.50	1104.73
639.65	5095.35
639.80	16009.26
639.94	28666.88
640.09	35208.68
640.24	25380.77
640.39	16793.34
640.54	11000.52
640.68	6502.01
640.83	3234.62
640.98	1547.09
641.13	786.42
641.27	575.77
641.42	484.49
641.57	465.77
641.72	358.10
641.86	425.98
642.01	306.61
642.16	365.12
642.31	351.08
642.45	388.53
642.60	379.17
642.75	259.80
642.90	367.46
643.04	234.05
643.19	245.76
643.34	264.48
643.48	257.46
643.63	337.04
643.78	308.95
643.93	341.72
644.07	320.65
644.22	248.10
644.37	187.24
644.51	257.46
644.66	313.63
644.81	269.16
644.95	276.18
645.10	243.42
645.25	241.08
645.39	285.55
645.54	278.52
645.69	365.12
645.83	210.65
645.98	346.40
646.13	266.82
646.27	304.27
646.42	257.46
646.57	229.37
646.71	304.27
646.86	351.08
647.00	255.12
647.15	283.20
647.30	229.37
647.44	266.82
647.59	294.91
647.74	243.42
647.88	255.12
648.03	234.05
648.17	297.25
648.32	262.14
648.47	205.97
648.61	227.03
648.76	266.82
648.90	229.37
649.05	353.42
649.20	243.42
649.34	348.74
649.49	322.99
649.63	304.27
649.78	355.76
649.92	526.62
650.07	2104.14
650.21	6899.90
650.36	13467.44
650.51	17734.24
650.65	14757.08
650.80	9947.28
650.94	6604.99
651.09	4152.11
651.23	2270.32
651.38	1111.75
651.52	667.05
651.67	444.70
651.81	402.57
651.96	376.83
652.10	322.99
652.25	304.27
652.39	313.63
652.54	358.10
652.68	770.04
652.83	2221.17
652.97	4388.50
653.12	6270.30
653.26	5568.13
653.41	4102.96
653.55	2848.43
653.70	1823.28
653.84	1067.28
653.99	561.73
654.13	388.53
654.27	339.38
654.42	234.05
654.56	236.39
654.71	290.23
654.85	205.97
655.00	196.60
655.14	194.26
655.29	241.08
655.43	278.52
655.57	238.73
655.72	114.69
655.86	255.12
656.01	229.37
656.15	330.02
656.30	262.14
656.44	255.12
656.58	262.14
656.73	229.37
656.87	231.71
657.01	222.35
657.16	264.48
657.30	241.08
657.45	285.55
657.59	208.31
657.73	276.18
657.88	196.60
658.02	308.95
658.16	227.03
658.31	248.10
658.45	217.67
658.60	236.39
658.74	278.52
658.88	255.12
659.03	294.91
659.17	264.48
659.31	959.62
659.46	3101.21
659.60	6286.68
659.74	8865.95
659.89	7852.50
660.03	5755.38
660.17	4023.38
660.32	2324.15
660.46	1270.91
660.60	758.33
660.74	451.72
660.89	348.74
661.03	273.84
661.17	290.23
661.32	212.99
661.46	196.60
661.60	231.71
661.74	283.20
661.89	210.65
662.03	238.73
662.17	208.31
662.31	257.46
662.46	248.10
662.60	229.37
662.74	217.67
662.88	257.46
663.03	196.60
663.17	231.71
663.31	222.35
663.45	212.99
663.60	224.69
663.74	215.33
663.88	187.24
664.02	245.76
664.17	194.26
664.31	238.73
664.45	241.08
664.59	175.54
664.73	241.08
664.88	280.86
665.02	248.10
665.16	236.39
665.30	290.23
665.44	285.55
665.59	292.57
665.73	194.26
665.87	264.48
666.01	259.80
666.15	280.86
666.29	271.50
666.44	287.89
666.58	311.29
666.72	308.95
666.86	304.27
667.00	374.49
667.14	409.59
667.28	1902.86
667.43	5949.64
667.57	11073.07
667.71	15499.03
667.85	13268.50
667.99	10097.07
668.13	6176.67
668.27	3510.80
668.41	2010.52
668.56	1151.54
668.70	770.04
668.84	477.47
668.98	411.93
669.12	285.55
669.26	264.48
669.40	353.42
669.54	320.65
669.68	320.65
669.82	271.50
669.96	220.01
670.10	205.97
670.25	217.67
670.39	372.15
670.53	180.22
670.67	187.24
670.81	182.56
670.95	360.44
671.09	601.52
671.23	2106.48
671.37	5301.31
671.51	8514.87
671.65	9797.48
671.79	7566.95
671.93	5322.38
672.07	3243.98
672.21	1872.43
672.35	1125.80
672.49	709.18
672.63	440.02
672.77	348.74
672.91	273.84
673.05	341.72
673.19	257.46
673.33	250.44
673.47	266.82
673.61	215.33
673.75	227.03
673.89	152.13
674.03	222.35
674.17	205.97
674.31	227.03
674.45	238.73
674.59	264.48
674.73	224.69
674.87	252.78
675.01	334.70
675.15	283.20
675.29	325.33
675.43	294.91
675.56	285.55
675.70	264.48
675.84	278.52
675.98	217.67
676.12	236.39
676.26	220.01
676.40	215.33
676.54	224.69
676.68	222.35
676.82	292.57
676.96	212.99
677.10	234.05
677.23	163.84
677.37	135.75
677.51	222.35
677.65	194.26
677.79	269.16
677.93	266.82
678.07	140.43
678.21	215.33
678.34	168.52
678.48	203.63
678.62	234.05
678.76	163.84
678.90	149.79
679.04	243.42
679.18	175.54
679.31	166.18
679.45	156.82
679.59	215.33
679.73	231.71
679.87	133.41
680.00	292.57
680.14	166.18
680.28	194.26
680.42	196.60
680.56	149.79
680.70	168.52
680.83	201.29
680.97	147.45
681.11	159.16
681.25	269.16
681.39	173.20
681.52	231.71
681.66	138.09
681.80	201.29
681.94	189.58
682.07	149.79
682.21	201.29
682.35	147.45
682.49	170.86
682.62	166.18
682.76	152.13
682.90	156.82
683.04	220.01
683.17	215.33
683.31	170.86
683.45	189.58
683.59	220.01
683.72	161.50
683.86	121.71
684.00	236.39
684.13	297.25
684.27	243.42
684.41	198.95
684.55	196.60
684.68	128.73
684.82	222.35
684.96	182.56
685.09	142.77
685.23	187.24
685.37	229.37
685.50	210.65
685.64	224.69
685.78	210.65
685.91	201.29
686.05	198.95
686.19	236.39
686.32	138.09
686.46	241.08
686.60	133.41
686.73	264.48
686.87	266.82
687.01	245.76
687.14	273.84
687.28	262.14
687.42	264.48
687.55	212.99
687.69	311.29
687.82	168.52
687.96	184.90
688.10	259.80
688.23	191.92
688.37	215.33
688.50	227.03
688.64	131.07
688.78	177.88
688.91	163.84
689.05	159.16
689.18	217.67
689.32	133.41
689.46	154.48
689.59	222.35
689.73	210.65
689.86	149.79
690.00	128.73
690.13	243.42
690.27	259.80
690.41	215.33
690.54	252.78
690.68	208.31
690.81	102.98
690.95	163.84
691.08	238.73
691.22	198.95
691.35	154.48
691.49	147.45
691.62	196.60
691.76	194.26
691.89	266.82
692.03	184.90
692.16	175.54
692.30	313.63
692.43	706.84
692.57	2424.80
692.70	4442.34
692.84	6647.12
692.97	6328.81
693.11	4533.62
693.24	3391.44
693.38	2263.30
693.51	1519.01
693.65	1018.13
693.78	685.78
693.92	437.68
694.05	381.51
694.19	194.26
694.32	290.23
694.45	224.69
694.59	215.33
694.72	191.92
694.86	154.48
694.99	184.90
695.13	252.78
695.26	271.50
695.39	196.60
695.53	276.18
695.66	140.43
695.80	236.39
695.93	187.24
696.07	248.10
696.20	360.44
696.33	465.77
696.47	552.37
696.60	526.62
696.73	454.06
696.87	334.70
697.00	407.25
697.14	243.42
697.27	243.42
697.40	325.33
697.54	205.97
697.67	231.71
697.80	248.10
697.94	215.33
698.07	243.42
698.21	208.31
698.34	170.86
698.47	145.11
698.61	149.79
698.74	145.11
698.87	248.10
699.01	182.56
699.14	177.88
699.27	163.84
699.40	269.16
699.54	222.35
699.67	196.60
699.80	236.39
699.94	205.97
700.07	203.63
700.20	142.77
700.34	217.67
700.47	149.79
700.60	184.90
700.73	173.20
700.87	241.08
701.00	156.82
701.13	166.18
701.26	159.16
701.40	145.11
701.53	201.29
701.66	231.71
701.79	217.67
701.93	208.31
702.06	369.80
702.19	482.15
702.32	500.87
702.46	507.90
702.59	613.22
702.72	1025.15
702.85	3164.40
702.99	7166.72
703.12	11140.95
703.25	13429.99
703.38	11637.14
703.51	9025.11
703.65	7140.97
703.78	5015.77
703.91	3290.79
704.04	2036.27
704.17	1327.08
704.31	706.84
704.44	596.84
704.57	397.89
704.70	346.40
704.83	299.59
704.96	355.76
705.10	222.35
705.23	231.71
>>>>>End Processed Spectral Data<<<<<
