SpectraSuite Data File
++++++++++++++++++++++++++++++++++++
Date: Fri Oct 04 11:34:10 GMT-05:00 2013
User: price-jones
Dark Spectrum Present: No
Reference Spectrum Present: No
Number of Sampled Component Spectra: 1
Spectrometers: USB2+H05261
Integration Time (usec): 100000 (USB2+H05261)
Spectra Averaged: 1 (USB2+H05261)
Boxcar Smoothing: 0 (USB2+H05261)
Correct for Electrical Dark: No (USB2+H05261)
Strobe/Lamp Enabled: No (USB2+H05261)
Correct for Detector Non-linearity: No (USB2+H05261)
Correct for Stray Light: No (USB2+H05261)
Number of Pixels in Processed Spectrum: 2048
>>>>>Begin Processed Spectral Data<<<<<
365.73	110.01
365.92	110.01
366.12	110.01
366.32	0.00
366.52	0.00
366.72	0.00
366.91	0.00
367.11	0.00
367.31	0.00
367.51	0.00
367.70	16.38
367.90	4.68
368.10	0.00
368.30	0.00
368.49	2.34
368.69	42.13
368.89	0.00
369.09	0.00
369.28	25.75
369.48	7.02
369.68	0.00
369.87	58.51
370.07	72.56
370.27	0.00
370.47	16.38
370.66	126.39
370.86	28.09
371.06	145.11
371.25	182.56
371.45	105.32
371.65	124.05
371.84	79.58
372.04	112.35
372.24	100.64
372.44	131.07
372.63	126.39
372.83	131.07
373.03	142.77
373.22	86.60
373.42	124.05
373.62	117.03
373.81	131.07
374.01	196.60
374.21	182.56
374.40	60.85
374.60	154.48
374.79	84.26
374.99	81.92
375.19	128.73
375.38	156.82
375.58	208.31
375.78	175.54
375.97	147.45
376.17	208.31
376.37	138.09
376.56	142.77
376.76	49.15
376.95	142.77
377.15	201.29
377.35	173.20
377.54	102.98
377.74	112.35
377.93	177.88
378.13	114.69
378.33	149.79
378.52	107.66
378.72	166.18
378.91	152.13
379.11	194.26
379.31	105.32
379.50	131.07
379.70	105.32
379.89	147.45
380.09	173.20
380.28	93.62
380.48	53.83
380.68	72.56
380.87	91.28
381.07	163.84
381.26	194.26
381.46	166.18
381.65	135.75
381.85	145.11
382.04	152.13
382.24	135.75
382.43	177.88
382.63	145.11
382.83	93.62
383.02	156.82
383.22	154.48
383.41	135.75
383.61	86.60
383.80	126.39
384.00	159.16
384.19	86.60
384.39	140.43
384.58	177.88
384.78	229.37
384.97	142.77
385.17	121.71
385.36	177.88
385.56	124.05
385.75	121.71
385.95	86.60
386.14	60.85
386.34	215.33
386.53	170.86
386.72	110.01
386.92	126.39
387.11	182.56
387.31	119.37
387.50	175.54
387.70	154.48
387.89	110.01
388.09	117.03
388.28	149.79
388.48	112.35
388.67	138.09
388.86	166.18
389.06	152.13
389.25	159.16
389.45	126.39
389.64	110.01
389.84	198.95
390.03	147.45
390.22	112.35
390.42	107.66
390.61	156.82
390.81	128.73
391.00	112.35
391.19	145.11
391.39	180.22
391.58	98.30
391.78	114.69
391.97	163.84
392.16	177.88
392.36	112.35
392.55	163.84
392.75	154.48
392.94	166.18
393.13	93.62
393.33	138.09
393.52	70.22
393.71	149.79
393.91	124.05
394.10	173.20
394.29	72.56
394.49	194.26
394.68	201.29
394.88	220.01
395.07	175.54
395.26	159.16
395.46	187.24
395.65	133.41
395.84	236.39
396.04	238.73
396.23	149.79
396.42	128.73
396.62	187.24
396.81	147.45
397.00	184.90
397.19	65.54
397.39	161.50
397.58	168.52
397.77	84.26
397.97	112.35
398.16	156.82
398.35	51.49
398.55	74.90
398.74	182.56
398.93	105.32
399.12	117.03
399.32	238.73
399.51	196.60
399.70	196.60
399.90	163.84
400.09	201.29
400.28	163.84
400.47	142.77
400.67	191.92
400.86	133.41
401.05	95.96
401.24	196.60
401.44	124.05
401.63	191.92
401.82	175.54
402.01	128.73
402.21	117.03
402.40	205.97
402.59	196.60
402.78	191.92
402.97	175.54
403.17	126.39
403.36	112.35
403.55	184.90
403.74	145.11
403.93	175.54
404.13	313.63
404.32	208.31
404.51	142.77
404.70	227.03
404.89	189.58
405.09	229.37
405.28	156.82
405.47	126.39
405.66	126.39
405.85	159.16
406.05	180.22
406.24	191.92
406.43	184.90
406.62	88.94
406.81	203.63
407.00	114.69
407.20	119.37
407.39	177.88
407.58	65.54
407.77	159.16
407.96	147.45
408.15	168.52
408.34	154.48
408.54	95.96
408.73	217.67
408.92	119.37
409.11	152.13
409.30	191.92
409.49	72.56
409.68	114.69
409.87	184.90
410.07	138.09
410.26	147.45
410.45	140.43
410.64	107.66
410.83	227.03
411.02	182.56
411.21	184.90
411.40	196.60
411.59	140.43
411.78	114.69
411.98	51.49
412.17	154.48
412.36	208.31
412.55	126.39
412.74	248.10
412.93	252.78
413.12	121.71
413.31	210.65
413.50	201.29
413.69	112.35
413.88	126.39
414.07	112.35
414.26	180.22
414.45	119.37
414.64	124.05
414.83	138.09
415.02	238.73
415.22	180.22
415.41	210.65
415.60	128.73
415.79	163.84
415.98	154.48
416.17	156.82
416.36	156.82
416.55	156.82
416.74	159.16
416.93	189.58
417.12	166.18
417.31	170.86
417.50	154.48
417.69	196.60
417.88	128.73
418.07	205.97
418.26	149.79
418.45	159.16
418.64	180.22
418.83	177.88
419.02	159.16
419.21	182.56
419.39	177.88
419.58	276.18
419.77	175.54
419.96	248.10
420.15	175.54
420.34	163.84
420.53	133.41
420.72	220.01
420.91	222.35
421.10	173.20
421.29	227.03
421.48	138.09
421.67	166.18
421.86	175.54
422.05	147.45
422.24	217.67
422.43	208.31
422.61	180.22
422.80	117.03
422.99	77.24
423.18	159.16
423.37	224.69
423.56	156.82
423.75	224.69
423.94	149.79
424.13	168.52
424.32	212.99
424.50	194.26
424.69	133.41
424.88	203.63
425.07	259.80
425.26	161.50
425.45	210.65
425.64	149.79
425.83	210.65
426.01	177.88
426.20	156.82
426.39	135.75
426.58	135.75
426.77	175.54
426.96	227.03
427.15	196.60
427.33	217.67
427.52	149.79
427.71	177.88
427.90	131.07
428.09	184.90
428.28	124.05
428.46	161.50
428.65	161.50
428.84	173.20
429.03	191.92
429.22	124.05
429.40	163.84
429.59	154.48
429.78	215.33
429.97	161.50
430.16	177.88
430.34	107.66
430.53	72.56
430.72	159.16
430.91	217.67
431.10	215.33
431.28	131.07
431.47	140.43
431.66	168.52
431.85	177.88
432.03	191.92
432.22	170.86
432.41	182.56
432.60	191.92
432.79	182.56
432.97	299.59
433.16	180.22
433.35	135.75
433.54	210.65
433.72	210.65
433.91	203.63
434.10	159.16
434.28	234.05
434.47	189.58
434.66	248.10
434.85	203.63
435.03	175.54
435.22	322.99
435.41	454.06
435.59	421.30
435.78	355.76
435.97	264.48
436.16	198.95
436.34	166.18
436.53	177.88
436.72	163.84
436.90	173.20
437.09	161.50
437.28	210.65
437.46	166.18
437.65	222.35
437.84	166.18
438.02	229.37
438.21	147.45
438.40	196.60
438.58	88.94
438.77	203.63
438.96	208.31
439.14	201.29
439.33	187.24
439.52	182.56
439.70	266.82
439.89	234.05
440.08	182.56
440.26	234.05
440.45	220.01
440.63	91.28
440.82	133.41
441.01	227.03
441.19	168.52
441.38	131.07
441.57	177.88
441.75	191.92
441.94	243.42
442.12	170.86
442.31	147.45
442.50	100.64
442.68	147.45
442.87	224.69
443.05	205.97
443.24	175.54
443.43	191.92
443.61	145.11
443.80	217.67
443.98	175.54
444.17	170.86
444.35	175.54
444.54	126.39
444.73	180.22
444.91	205.97
445.10	98.30
445.28	215.33
445.47	170.86
445.65	198.95
445.84	152.13
446.02	234.05
446.21	156.82
446.39	138.09
446.58	259.80
446.77	131.07
446.95	196.60
447.14	222.35
447.32	227.03
447.51	215.33
447.69	184.90
447.88	163.84
448.06	245.76
448.25	215.33
448.43	166.18
448.62	140.43
448.80	131.07
448.99	238.73
449.17	163.84
449.36	203.63
449.54	205.97
449.73	194.26
449.91	198.95
450.10	187.24
450.28	215.33
450.46	231.71
450.65	203.63
450.83	163.84
451.02	117.03
451.20	187.24
451.39	238.73
451.57	189.58
451.76	201.29
451.94	187.24
452.13	208.31
452.31	330.02
452.49	177.88
452.68	154.48
452.86	142.77
453.05	229.37
453.23	194.26
453.42	229.37
453.60	163.84
453.78	177.88
453.97	182.56
454.15	198.95
454.34	198.95
454.52	175.54
454.70	227.03
454.89	234.05
455.07	156.82
455.26	215.33
455.44	259.80
455.62	259.80
455.81	177.88
455.99	203.63
456.17	184.90
456.36	215.33
456.54	259.80
456.73	152.13
456.91	224.69
457.09	212.99
457.28	210.65
457.46	175.54
457.64	180.22
457.83	124.05
458.01	159.16
458.19	154.48
458.38	227.03
458.56	142.77
458.74	112.35
458.93	205.97
459.11	154.48
459.29	180.22
459.48	166.18
459.66	205.97
459.84	266.82
460.03	271.50
460.21	229.37
460.39	140.43
460.57	184.90
460.76	224.69
460.94	217.67
461.12	177.88
461.31	290.23
461.49	175.54
461.67	187.24
461.85	159.16
462.04	243.42
462.22	290.23
462.40	201.29
462.59	182.56
462.77	182.56
462.95	231.71
463.13	194.26
463.32	182.56
463.50	234.05
463.68	222.35
463.86	170.86
464.05	119.37
464.23	224.69
464.41	252.78
464.59	168.52
464.78	205.97
464.96	112.35
465.14	184.90
465.32	248.10
465.50	180.22
465.69	168.52
465.87	201.29
466.05	280.86
466.23	100.64
466.41	215.33
466.60	194.26
466.78	243.42
466.96	177.88
467.14	166.18
467.32	201.29
467.51	173.20
467.69	222.35
467.87	184.90
468.05	175.54
468.23	170.86
468.41	194.26
468.60	205.97
468.78	189.58
468.96	271.50
469.14	252.78
469.32	126.39
469.50	166.18
469.69	182.56
469.87	205.97
470.05	203.63
470.23	205.97
470.41	170.86
470.59	133.41
470.77	229.37
470.95	229.37
471.14	269.16
471.32	215.33
471.50	217.67
471.68	173.20
471.86	229.37
472.04	131.07
472.22	259.80
472.40	159.16
472.58	145.11
472.77	187.24
472.95	173.20
473.13	278.52
473.31	191.92
473.49	198.95
473.67	149.79
473.85	208.31
474.03	187.24
474.21	189.58
474.39	257.46
474.57	278.52
474.75	241.08
474.93	236.39
475.12	227.03
475.30	325.33
475.48	187.24
475.66	196.60
475.84	187.24
476.02	107.66
476.20	203.63
476.38	266.82
476.56	224.69
476.74	184.90
476.92	182.56
477.10	152.13
477.28	243.42
477.46	182.56
477.64	217.67
477.82	238.73
478.00	241.08
478.18	191.92
478.36	238.73
478.54	236.39
478.72	205.97
478.90	128.73
479.08	191.92
479.26	159.16
479.44	217.67
479.62	182.56
479.80	292.57
479.98	107.66
480.16	222.35
480.34	182.56
480.52	177.88
480.70	229.37
480.88	168.52
481.06	177.88
481.24	163.84
481.41	222.35
481.59	215.33
481.77	238.73
481.95	147.45
482.13	376.83
482.31	231.71
482.49	212.99
482.67	262.14
482.85	205.97
483.03	238.73
483.21	205.97
483.39	304.27
483.57	245.76
483.74	149.79
483.92	168.52
484.10	170.86
484.28	353.42
484.46	315.97
484.64	259.80
484.82	180.22
485.00	250.44
485.18	229.37
485.35	278.52
485.53	196.60
485.71	259.80
485.89	241.08
486.07	215.33
486.25	285.55
486.43	294.91
486.61	217.67
486.78	341.72
486.96	215.33
487.14	306.61
487.32	264.48
487.50	255.12
487.68	252.78
487.85	245.76
488.03	318.31
488.21	301.93
488.39	290.23
488.57	292.57
488.75	187.24
488.92	477.47
489.10	308.95
489.28	224.69
489.46	217.67
489.64	334.70
489.81	243.42
489.99	257.46
490.17	229.37
490.35	304.27
490.53	220.01
490.70	264.48
490.88	334.70
491.06	271.50
491.24	257.46
491.41	210.65
491.59	191.92
491.77	236.39
491.95	229.37
492.13	227.03
492.30	255.12
492.48	238.73
492.66	229.37
492.84	227.03
493.01	220.01
493.19	255.12
493.37	290.23
493.54	292.57
493.72	299.59
493.90	255.12
494.08	236.39
494.25	271.50
494.43	402.57
494.61	337.04
494.79	234.05
494.96	276.18
495.14	217.67
495.32	182.56
495.49	304.27
495.67	308.95
495.85	252.78
496.02	194.26
496.20	224.69
496.38	257.46
496.55	264.48
496.73	276.18
496.91	292.57
497.09	308.95
497.26	283.20
497.44	208.31
497.62	224.69
497.79	234.05
497.97	252.78
498.14	252.78
498.32	255.12
498.50	238.73
498.67	215.33
498.85	283.20
499.03	273.84
499.20	259.80
499.38	161.50
499.56	191.92
499.73	318.31
499.91	285.55
500.08	229.37
500.26	236.39
500.44	278.52
500.61	269.16
500.79	280.86
500.97	250.44
501.14	262.14
501.32	222.35
501.49	238.73
501.67	241.08
501.84	245.76
502.02	266.82
502.20	264.48
502.37	245.76
502.55	271.50
502.72	252.78
502.90	227.03
503.07	318.31
503.25	227.03
503.43	189.58
503.60	208.31
503.78	201.29
503.95	262.14
504.13	255.12
504.30	269.16
504.48	231.71
504.65	259.80
504.83	299.59
505.01	234.05
505.18	280.86
505.36	222.35
505.53	311.29
505.71	238.73
505.88	306.61
506.06	313.63
506.23	220.01
506.41	220.01
506.58	142.77
506.76	264.48
506.93	262.14
507.11	294.91
507.28	287.89
507.46	304.27
507.63	280.86
507.81	229.37
507.98	194.26
508.16	229.37
508.33	327.68
508.50	208.31
508.68	285.55
508.85	212.99
509.03	205.97
509.20	315.97
509.38	292.57
509.55	285.55
509.73	280.86
509.90	187.24
510.08	231.71
510.25	264.48
510.42	255.12
510.60	184.90
510.77	241.08
510.95	315.97
511.12	304.27
511.30	259.80
511.47	294.91
511.64	243.42
511.82	276.18
511.99	194.26
512.17	252.78
512.34	290.23
512.51	208.31
512.69	313.63
512.86	362.78
513.04	255.12
513.21	245.76
513.38	212.99
513.56	215.33
513.73	243.42
513.90	271.50
514.08	273.84
514.25	229.37
514.43	224.69
514.60	304.27
514.77	245.76
514.95	311.29
515.12	271.50
515.29	285.55
515.47	262.14
515.64	271.50
515.81	266.82
515.99	276.18
516.16	278.52
516.33	255.12
516.51	184.90
516.68	212.99
516.85	264.48
517.03	271.50
517.20	243.42
517.37	180.22
517.54	248.10
517.72	245.76
517.89	292.57
518.06	238.73
518.24	278.52
518.41	273.84
518.58	248.10
518.75	304.27
518.93	259.80
519.10	243.42
519.27	234.05
519.45	250.44
519.62	264.48
519.79	248.10
519.96	241.08
520.14	327.68
520.31	285.55
520.48	278.52
520.65	243.42
520.83	276.18
521.00	252.78
521.17	255.12
521.34	191.92
521.52	250.44
521.69	287.89
521.86	264.48
522.03	308.95
522.20	315.97
522.38	318.31
522.55	276.18
522.72	231.71
522.89	278.52
523.07	320.65
523.24	290.23
523.41	210.65
523.58	231.71
523.75	236.39
523.92	222.35
524.10	294.91
524.27	250.44
524.44	245.76
524.61	313.63
524.78	299.59
524.96	311.29
525.13	227.03
525.30	313.63
525.47	262.14
525.64	334.70
525.81	269.16
525.98	250.44
526.16	189.58
526.33	255.12
526.50	234.05
526.67	198.95
526.84	203.63
527.01	229.37
527.18	318.31
527.36	285.55
527.53	304.27
527.70	287.89
527.87	241.08
528.04	311.29
528.21	322.99
528.38	320.65
528.55	344.06
528.72	304.27
528.89	315.97
529.07	285.55
529.24	276.18
529.41	332.36
529.58	283.20
529.75	255.12
529.92	236.39
530.09	294.91
530.26	337.04
530.43	346.40
530.60	292.57
530.77	299.59
530.94	229.37
531.11	252.78
531.28	215.33
531.46	262.14
531.63	280.86
531.80	266.82
531.97	301.93
532.14	285.55
532.31	241.08
532.48	320.65
532.65	271.50
532.82	311.29
532.99	355.76
533.16	273.84
533.33	257.46
533.50	259.80
533.67	241.08
533.84	451.72
534.01	372.15
534.18	379.17
534.35	355.76
534.52	287.89
534.69	271.50
534.86	212.99
535.03	273.84
535.20	327.68
535.37	271.50
535.54	325.33
535.71	301.93
535.88	306.61
536.05	358.10
536.22	325.33
536.38	327.68
536.55	322.99
536.72	346.40
536.89	217.67
537.06	294.91
537.23	383.85
537.40	269.16
537.57	353.42
537.74	341.72
537.91	334.70
538.08	332.36
538.25	304.27
538.42	369.80
538.59	332.36
538.75	337.04
538.92	266.82
539.09	322.99
539.26	327.68
539.43	554.71
539.60	772.38
539.77	1039.20
539.94	1020.47
540.11	851.96
540.28	704.50
540.44	571.09
540.61	465.77
540.78	486.83
540.95	454.06
541.12	566.41
541.29	585.13
541.46	538.32
541.62	559.39
541.79	585.13
541.96	454.06
542.13	442.36
542.30	449.38
542.47	552.37
542.63	477.47
542.80	477.47
542.97	512.58
543.14	500.87
543.31	411.93
543.48	528.96
543.64	451.72
543.81	486.83
543.98	517.26
544.15	376.83
544.32	414.27
544.48	575.77
544.65	517.26
544.82	482.15
544.99	409.59
545.16	547.69
545.32	468.11
545.49	763.01
545.66	858.98
545.83	959.62
546.00	919.83
546.16	685.78
546.33	622.58
546.50	503.22
546.67	528.96
546.83	484.49
547.00	376.83
547.17	444.70
547.34	372.15
547.50	437.68
547.67	393.21
547.84	489.17
548.00	388.53
548.17	376.83
548.34	360.44
548.51	486.83
548.67	348.74
548.84	351.08
549.01	311.29
549.18	341.72
549.34	308.95
549.51	313.63
549.68	322.99
549.84	407.25
550.01	341.72
550.18	402.57
550.34	372.15
550.51	327.68
550.68	353.42
550.84	318.31
551.01	374.49
551.18	339.38
551.34	334.70
551.51	262.14
551.68	269.16
551.84	269.16
552.01	355.76
552.18	344.06
552.34	292.57
552.51	301.93
552.68	264.48
552.84	374.49
553.01	320.65
553.18	325.33
553.34	271.50
553.51	255.12
553.67	306.61
553.84	332.36
554.01	306.61
554.17	360.44
554.34	292.57
554.51	299.59
554.67	290.23
554.84	250.44
555.00	280.86
555.17	262.14
555.33	259.80
555.50	264.48
555.67	278.52
555.83	217.67
556.00	297.25
556.16	421.30
556.33	332.36
556.50	360.44
556.66	294.91
556.83	252.78
556.99	255.12
557.16	264.48
557.32	276.18
557.49	257.46
557.65	259.80
557.82	292.57
557.98	266.82
558.15	250.44
558.32	266.82
558.48	278.52
558.65	238.73
558.81	269.16
558.98	243.42
559.14	191.92
559.31	222.35
559.47	308.95
559.64	252.78
559.80	351.08
559.97	280.86
560.13	210.65
560.30	269.16
560.46	252.78
560.63	292.57
560.79	238.73
560.96	229.37
561.12	250.44
561.29	201.29
561.45	262.14
561.61	170.86
561.78	273.84
561.94	243.42
562.11	259.80
562.27	252.78
562.44	299.59
562.60	322.99
562.77	259.80
562.93	311.29
563.10	271.50
563.26	285.55
563.42	379.17
563.59	231.71
563.75	241.08
563.92	292.57
564.08	322.99
564.24	245.76
564.41	322.99
564.57	184.90
564.74	241.08
564.90	330.02
565.07	271.50
565.23	372.15
565.39	292.57
565.56	287.89
565.72	205.97
565.88	313.63
566.05	224.69
566.21	224.69
566.38	217.67
566.54	322.99
566.70	266.82
566.87	266.82
567.03	255.12
567.19	299.59
567.36	306.61
567.52	252.78
567.68	306.61
567.85	283.20
568.01	304.27
568.17	238.73
568.34	266.82
568.50	304.27
568.66	248.10
568.83	308.95
568.99	313.63
569.15	308.95
569.32	269.16
569.48	229.37
569.64	245.76
569.81	234.05
569.97	252.78
570.13	266.82
570.30	271.50
570.46	203.63
570.62	283.20
570.78	198.95
570.95	191.92
571.11	255.12
571.27	252.78
571.43	299.59
571.60	287.89
571.76	252.78
571.92	222.35
572.09	271.50
572.25	287.89
572.41	304.27
572.57	243.42
572.74	297.25
572.90	227.03
573.06	325.33
573.22	280.86
573.38	278.52
573.55	257.46
573.71	292.57
573.87	318.31
574.03	315.97
574.20	318.31
574.36	297.25
574.52	330.02
574.68	292.57
574.84	301.93
575.01	290.23
575.17	287.89
575.33	175.54
575.49	304.27
575.65	266.82
575.82	294.91
575.98	468.11
576.14	505.56
576.30	414.27
576.46	472.79
576.62	514.92
576.79	409.59
576.95	395.55
577.11	341.72
577.27	304.27
577.43	330.02
577.59	332.36
577.75	297.25
577.92	297.25
578.08	280.86
578.24	212.99
578.40	308.95
578.56	397.89
578.72	461.09
578.88	414.27
579.04	421.30
579.21	430.66
579.37	358.10
579.53	299.59
579.69	362.78
579.85	297.25
580.01	369.80
580.17	456.40
580.33	358.10
580.49	337.04
580.65	351.08
580.82	369.80
580.98	301.93
581.14	355.76
581.30	372.15
581.46	386.19
581.62	451.72
581.78	463.43
581.94	447.04
582.10	358.10
582.26	489.17
582.42	447.04
582.58	362.78
582.74	416.62
582.90	395.55
583.06	386.19
583.22	463.43
583.38	386.19
583.54	451.72
583.70	519.60
583.86	580.45
584.02	578.11
584.18	606.20
584.34	858.98
584.50	1926.26
584.66	12784.01
584.82	32561.53
584.98	43187.56
585.14	37338.57
585.30	23597.28
585.46	14349.82
585.62	9060.21
585.78	4383.82
585.94	1898.17
586.10	1060.26
586.26	690.46
586.42	636.63
586.58	538.32
586.74	491.51
586.90	592.16
587.06	559.39
587.22	505.56
587.38	444.70
587.54	917.49
587.70	2054.99
587.86	3150.36
588.02	3225.26
588.18	2408.41
588.34	1582.20
588.49	1076.65
588.65	758.33
588.81	421.30
588.97	360.44
589.13	339.38
589.29	285.55
589.45	341.72
589.61	353.42
589.77	344.06
589.93	433.00
590.08	379.17
590.24	358.10
590.40	388.53
590.56	458.74
590.72	346.40
590.88	388.53
591.04	376.83
591.20	248.10
591.35	388.53
591.51	280.86
591.67	297.25
591.83	280.86
591.99	372.15
592.15	306.61
592.31	376.83
592.46	334.70
592.62	402.57
592.78	351.08
592.94	301.93
593.10	301.93
593.26	311.29
593.41	304.27
593.57	358.10
593.73	440.02
593.89	1785.83
594.05	4030.40
594.20	5544.73
594.36	5137.48
594.52	3548.25
594.68	2373.30
594.84	1390.28
594.99	1018.13
595.15	524.28
595.31	418.96
595.47	344.06
595.62	358.10
595.78	379.17
595.94	304.27
596.10	383.85
596.25	315.97
596.41	372.15
596.57	234.05
596.73	315.97
596.88	524.28
597.04	957.28
597.20	1329.42
597.36	1420.71
597.51	1104.73
597.67	816.85
597.83	638.97
597.99	557.05
598.14	341.72
598.30	388.53
598.46	301.93
598.61	353.42
598.77	273.84
598.93	269.16
599.09	278.52
599.24	292.57
599.40	372.15
599.56	372.15
599.71	341.72
599.87	262.14
600.03	327.68
600.18	318.31
600.34	194.26
600.50	330.02
600.65	341.72
600.81	346.40
600.97	264.48
601.12	294.91
601.28	358.10
601.44	344.06
601.59	285.55
601.75	255.12
601.91	294.91
602.06	283.20
602.22	407.25
602.37	526.62
602.53	1062.60
602.69	1519.01
602.84	1458.15
603.00	1102.39
603.16	858.98
603.31	645.99
603.47	550.03
603.62	306.61
603.78	327.68
603.94	297.25
604.09	262.14
604.25	290.23
604.40	330.02
604.56	283.20
604.71	311.29
604.87	257.46
605.03	315.97
605.18	304.27
605.34	278.52
605.49	297.25
605.65	299.59
605.80	234.05
605.96	299.59
606.12	381.51
606.27	369.80
606.43	339.38
606.58	390.87
606.74	674.07
606.89	1980.09
607.05	3786.99
607.20	4697.46
607.36	3672.30
607.51	2729.06
607.67	1849.02
607.82	1306.02
607.98	805.14
608.13	498.53
608.29	414.27
608.44	404.91
608.60	393.21
608.75	496.19
608.91	842.59
609.06	3115.25
609.22	6366.26
609.37	7691.00
609.53	7045.01
609.68	4854.27
609.84	3260.37
609.99	2291.38
610.15	1451.13
610.30	959.62
610.46	882.38
610.61	791.10
610.76	978.34
610.92	1025.15
611.07	1137.50
611.23	1160.91
611.38	1050.90
611.54	903.45
611.69	772.38
611.84	744.29
612.00	683.44
612.15	624.92
612.31	613.22
612.46	664.71
612.62	622.58
612.77	667.05
612.92	685.78
613.08	634.29
613.23	603.86
613.39	575.77
613.54	741.95
613.69	3096.53
613.85	8072.51
614.00	12032.69
614.15	12287.81
614.31	8737.22
614.46	5849.00
614.62	4081.89
614.77	2537.14
614.92	1329.42
615.08	793.44
615.23	594.50
615.38	507.90
615.54	430.66
615.69	669.39
615.84	1762.42
616.00	2857.79
616.15	3206.53
616.30	2745.45
616.46	1923.92
616.61	1338.79
616.76	1036.86
616.92	603.86
617.07	449.38
617.22	337.04
617.37	325.33
617.53	355.76
617.68	353.42
617.83	346.40
617.99	358.10
618.14	320.65
618.29	318.31
618.45	315.97
618.60	248.10
618.75	266.82
618.90	215.33
619.06	255.12
619.21	318.31
619.36	308.95
619.51	259.80
619.67	238.73
619.82	320.65
619.97	266.82
620.12	294.91
620.28	334.70
620.43	283.20
620.58	301.93
620.73	315.97
620.89	285.55
621.04	351.08
621.19	1043.88
621.34	1799.87
621.49	1916.90
621.65	1790.51
621.80	1366.87
621.95	908.13
622.10	772.38
622.25	550.03
622.41	414.27
622.56	278.52
622.71	306.61
622.86	348.74
623.01	290.23
623.16	308.95
623.32	297.25
623.47	381.51
623.62	287.89
623.77	238.73
623.92	266.82
624.07	290.23
624.23	245.76
624.38	259.80
624.53	245.76
624.68	262.14
624.83	294.91
624.98	311.29
625.13	276.18
625.29	266.82
625.44	290.23
625.59	339.38
625.74	311.29
625.89	440.02
626.04	1500.28
626.19	4002.32
626.34	5994.11
626.49	6333.49
626.65	4634.26
626.80	3204.19
626.95	2228.19
627.10	1406.66
627.25	856.64
627.40	512.58
627.55	348.74
627.70	304.27
627.85	365.12
628.00	360.44
628.15	292.57
628.30	236.39
628.45	231.71
628.60	283.20
628.76	294.91
628.91	306.61
629.06	243.42
629.21	325.33
629.36	325.33
629.51	301.93
629.66	346.40
629.81	468.11
629.96	894.08
630.11	1533.05
630.26	1664.12
630.41	1530.71
630.56	1203.04
630.71	849.61
630.86	758.33
631.01	528.96
631.16	404.91
631.31	367.46
631.46	290.23
631.61	322.99
631.76	287.89
631.91	241.08
632.06	280.86
632.21	325.33
632.36	334.70
632.51	341.72
632.66	299.59
632.81	819.19
632.96	2324.15
633.10	3815.07
633.25	4318.29
633.40	3613.79
633.55	2502.03
633.70	1809.23
633.85	1245.16
634.00	706.84
634.15	433.00
634.30	311.29
634.45	273.84
634.60	250.44
634.75	313.63
634.90	224.69
635.05	231.71
635.19	283.20
635.34	248.10
635.49	217.67
635.64	273.84
635.79	212.99
635.94	301.93
636.09	306.61
636.24	245.76
636.39	327.68
636.53	325.33
636.68	248.10
636.83	276.18
636.98	301.93
637.13	346.40
637.28	224.69
637.43	430.66
637.57	568.75
637.72	2026.90
637.87	5004.07
638.02	7351.62
638.17	7754.19
638.32	6047.94
638.46	4060.83
638.61	2991.20
638.76	1802.21
638.91	1046.22
639.06	486.83
639.20	505.56
639.35	416.62
639.50	575.77
639.65	2832.05
639.80	7784.62
639.94	11452.24
640.09	11946.09
640.24	8856.59
640.39	6249.23
640.54	4201.26
640.68	2537.14
640.83	1373.89
640.98	720.88
641.13	514.92
641.27	372.15
641.42	313.63
641.57	327.68
641.72	353.42
641.86	299.59
642.01	149.79
642.16	313.63
642.31	248.10
642.45	306.61
642.60	313.63
642.75	276.18
642.90	306.61
643.04	283.20
643.19	187.24
643.34	259.80
643.48	205.97
643.63	238.73
643.78	285.55
643.93	215.33
644.07	194.26
644.22	217.67
644.37	191.92
644.51	227.03
644.66	182.56
644.81	238.73
644.95	264.48
645.10	215.33
645.25	234.05
645.39	266.82
645.54	273.84
645.69	245.76
645.83	217.67
645.98	315.97
646.13	210.65
646.27	236.39
646.42	266.82
646.57	229.37
646.71	224.69
646.86	191.92
647.00	248.10
647.15	257.46
647.30	128.73
647.44	262.14
647.59	217.67
647.74	196.60
647.88	248.10
648.03	245.76
648.17	212.99
648.32	205.97
648.47	201.29
648.61	198.95
648.76	194.26
648.90	238.73
649.05	269.16
649.20	234.05
649.34	196.60
649.49	266.82
649.63	341.72
649.78	311.29
649.92	334.70
650.07	1200.69
650.21	3391.44
650.36	5394.93
650.51	6106.46
650.65	5186.63
650.80	3716.77
650.94	2473.95
651.09	1598.59
651.23	933.87
651.38	496.19
651.52	409.59
651.67	311.29
651.81	283.20
651.96	271.50
652.10	369.80
652.25	245.76
652.39	264.48
652.54	243.42
652.68	440.02
652.83	1128.14
652.97	2017.54
653.12	2354.58
653.26	2054.99
653.41	1624.33
653.55	1158.57
653.70	805.14
653.84	540.66
653.99	318.31
654.13	227.03
654.27	205.97
654.42	191.92
654.56	250.44
654.71	276.18
654.85	252.78
655.00	203.63
655.14	224.69
655.29	222.35
655.43	222.35
655.57	245.76
655.72	257.46
655.86	187.24
656.01	184.90
656.15	180.22
656.30	308.95
656.44	217.67
656.58	161.50
656.73	168.52
656.87	133.41
657.01	208.31
657.16	227.03
657.30	243.42
657.45	276.18
657.59	196.60
657.73	201.29
657.88	222.35
658.02	341.72
658.16	271.50
658.31	238.73
658.45	231.71
658.60	241.08
658.74	306.61
658.88	224.69
659.03	245.76
659.17	280.86
659.31	550.03
659.46	1687.53
659.60	2640.12
659.74	3110.57
659.89	2829.71
660.03	2120.53
660.17	1528.37
660.32	997.07
660.46	674.07
660.60	407.25
660.74	308.95
660.89	238.73
661.03	227.03
661.17	180.22
661.32	201.29
661.46	231.71
661.60	257.46
661.74	227.03
661.89	234.05
662.03	248.10
662.17	182.56
662.31	191.92
662.46	238.73
662.60	147.45
662.74	182.56
662.88	283.20
663.03	184.90
663.17	128.73
663.31	166.18
663.45	208.31
663.60	227.03
663.74	187.24
663.88	196.60
664.02	215.33
664.17	184.90
664.31	189.58
664.45	243.42
664.59	215.33
664.73	229.37
664.88	227.03
665.02	227.03
665.16	257.46
665.30	248.10
665.44	182.56
665.59	196.60
665.73	210.65
665.87	276.18
666.01	215.33
666.15	149.79
666.29	182.56
666.44	311.29
666.58	278.52
666.72	222.35
666.86	252.78
667.00	259.80
667.14	325.33
667.28	1034.52
667.43	2979.50
667.57	4610.86
667.71	5460.47
667.85	4777.03
667.99	3541.23
668.13	2263.30
668.27	1343.47
668.41	816.85
668.56	470.45
668.70	341.72
668.84	259.80
668.98	255.12
669.12	236.39
669.26	236.39
669.40	306.61
669.54	271.50
669.68	245.76
669.82	252.78
669.96	269.16
670.10	250.44
670.25	234.05
670.39	276.18
670.53	241.08
670.67	236.39
670.81	224.69
670.95	212.99
671.09	423.64
671.23	1224.10
671.37	2382.67
671.51	3218.24
671.65	3398.46
671.79	2700.98
671.93	1891.15
672.07	1277.93
672.21	746.63
672.35	545.34
672.49	327.68
672.63	231.71
672.77	255.12
672.91	229.37
673.05	234.05
673.19	205.97
673.33	231.71
673.47	290.23
673.61	191.92
673.75	196.60
673.89	168.52
674.03	189.58
674.17	149.79
674.31	212.99
674.45	156.82
674.59	177.88
674.73	222.35
674.87	180.22
675.01	290.23
675.15	248.10
675.29	280.86
675.43	290.23
675.56	304.27
675.70	236.39
675.84	114.69
675.98	208.31
676.12	180.22
676.26	133.41
676.40	184.90
676.54	236.39
676.68	224.69
676.82	196.60
676.96	140.43
677.10	245.76
677.23	191.92
677.37	142.77
677.51	149.79
677.65	250.44
677.79	168.52
677.93	180.22
678.07	210.65
678.21	140.43
678.34	182.56
678.48	154.48
678.62	245.76
678.76	156.82
678.90	159.16
679.04	168.52
679.18	264.48
679.31	154.48
679.45	63.19
679.59	173.20
679.73	215.33
679.87	126.39
680.00	168.52
680.14	161.50
680.28	191.92
680.42	222.35
680.56	128.73
680.70	173.20
680.83	182.56
680.97	159.16
681.11	205.97
681.25	166.18
681.39	168.52
681.52	161.50
681.66	210.65
681.80	245.76
681.94	201.29
682.07	138.09
682.21	180.22
682.35	133.41
682.49	166.18
682.62	189.58
682.76	149.79
682.90	175.54
683.04	110.01
683.17	194.26
683.31	198.95
683.45	156.82
683.59	208.31
683.72	222.35
683.86	124.05
684.00	196.60
684.13	191.92
684.27	198.95
684.41	245.76
684.55	187.24
684.68	65.54
684.82	177.88
684.96	196.60
685.09	191.92
685.23	133.41
685.37	177.88
685.50	163.84
685.64	229.37
685.78	220.01
685.91	208.31
686.05	191.92
686.19	220.01
686.32	210.65
686.46	161.50
686.60	161.50
686.73	208.31
686.87	135.75
687.01	180.22
687.14	102.98
687.28	187.24
687.42	177.88
687.55	182.56
687.69	191.92
687.82	140.43
687.96	231.71
688.10	187.24
688.23	126.39
688.37	184.90
688.50	147.45
688.64	177.88
688.78	166.18
688.91	163.84
689.05	154.48
689.18	189.58
689.32	175.54
689.46	145.11
689.59	196.60
689.73	245.76
689.86	215.33
690.00	145.11
690.13	161.50
690.27	170.86
690.41	180.22
690.54	217.67
690.68	201.29
690.81	187.24
690.95	163.84
691.08	173.20
691.22	154.48
691.35	175.54
691.49	194.26
691.62	189.58
691.76	182.56
691.89	215.33
692.03	210.65
692.16	126.39
692.30	212.99
692.43	425.98
692.57	1240.48
692.70	2087.76
692.84	2595.65
692.97	2284.36
693.11	1645.40
693.24	1259.21
693.38	880.04
693.51	622.58
693.65	503.22
693.78	369.80
693.92	248.10
694.05	220.01
694.19	142.77
694.32	180.22
694.45	149.79
694.59	140.43
694.72	180.22
694.86	231.71
694.99	201.29
695.13	173.20
695.26	107.66
695.39	149.79
695.53	252.78
695.66	152.13
695.80	210.65
695.93	205.97
696.07	198.95
696.20	278.52
696.33	276.18
696.47	271.50
696.60	320.65
696.73	294.91
696.87	259.80
697.00	241.08
697.14	208.31
697.27	117.03
697.40	304.27
697.54	210.65
697.67	205.97
697.80	175.54
697.94	140.43
698.07	241.08
698.21	180.22
698.34	241.08
698.47	135.75
698.61	180.22
698.74	128.73
698.87	234.05
699.01	77.24
699.14	67.88
699.27	182.56
699.40	273.84
699.54	161.50
699.67	187.24
699.80	210.65
699.94	173.20
700.07	138.09
700.20	208.31
700.34	217.67
700.47	168.52
700.60	149.79
700.73	119.37
700.87	255.12
701.00	154.48
701.13	112.35
701.26	215.33
701.40	124.05
701.53	145.11
701.66	203.63
701.79	205.97
701.93	191.92
702.06	243.42
702.19	362.78
702.32	346.40
702.46	248.10
702.59	351.08
702.72	507.90
702.85	1600.93
702.99	3232.28
703.12	4280.84
703.25	4496.17
703.38	3953.16
703.51	3206.53
703.65	2354.58
703.78	1661.78
703.91	1160.91
704.04	702.16
704.17	592.16
704.31	299.59
704.44	280.86
704.57	264.48
704.70	290.23
704.83	194.26
704.96	198.95
705.10	210.65
705.23	198.95
>>>>>End Processed Spectral Data<<<<<
