SpectraSuite Data File
++++++++++++++++++++++++++++++++++++
Date: Fri Oct 04 11:33:56 GMT-05:00 2013
User: price-jones
Dark Spectrum Present: No
Reference Spectrum Present: No
Number of Sampled Component Spectra: 1
Spectrometers: USB2+H05261
Integration Time (usec): 100000 (USB2+H05261)
Spectra Averaged: 1 (USB2+H05261)
Boxcar Smoothing: 0 (USB2+H05261)
Correct for Electrical Dark: No (USB2+H05261)
Strobe/Lamp Enabled: No (USB2+H05261)
Correct for Detector Non-linearity: No (USB2+H05261)
Correct for Stray Light: No (USB2+H05261)
Number of Pixels in Processed Spectrum: 2048
>>>>>Begin Processed Spectral Data<<<<<
365.73	100.64
365.92	100.64
366.12	100.64
366.32	0.00
366.52	0.00
366.72	0.00
366.91	0.00
367.11	0.00
367.31	0.00
367.51	32.77
367.70	0.00
367.90	11.70
368.10	42.13
368.30	46.81
368.49	0.00
368.69	0.00
368.89	0.00
369.09	0.00
369.28	0.00
369.48	0.00
369.68	37.45
369.87	44.47
370.07	30.43
370.27	110.01
370.47	98.30
370.66	35.11
370.86	105.32
371.06	98.30
371.25	124.05
371.45	128.73
371.65	142.77
371.84	121.71
372.04	53.83
372.24	145.11
372.44	70.22
372.63	126.39
372.83	142.77
373.03	142.77
373.22	166.18
373.42	187.24
373.62	147.45
373.81	149.79
374.01	112.35
374.21	81.92
374.40	182.56
374.60	191.92
374.79	220.01
374.99	126.39
375.19	65.54
375.38	177.88
375.58	145.11
375.78	229.37
375.97	149.79
376.17	170.86
376.37	229.37
376.56	189.58
376.76	140.43
376.95	177.88
377.15	124.05
377.35	112.35
377.54	126.39
377.74	147.45
377.93	140.43
378.13	142.77
378.33	173.20
378.52	79.58
378.72	147.45
378.91	145.11
379.11	117.03
379.31	77.24
379.50	98.30
379.70	184.90
379.89	173.20
380.09	159.16
380.28	135.75
380.48	142.77
380.68	114.69
380.87	110.01
381.07	147.45
381.26	177.88
381.46	133.41
381.65	166.18
381.85	168.52
382.04	138.09
382.24	147.45
382.43	177.88
382.63	107.66
382.83	114.69
383.02	140.43
383.22	203.63
383.41	180.22
383.61	201.29
383.80	107.66
384.00	53.83
384.19	119.37
384.39	138.09
384.58	95.96
384.78	121.71
384.97	208.31
385.17	163.84
385.36	117.03
385.56	98.30
385.75	98.30
385.95	128.73
386.14	191.92
386.34	79.58
386.53	138.09
386.72	119.37
386.92	170.86
387.11	124.05
387.31	203.63
387.50	201.29
387.70	84.26
387.89	140.43
388.09	119.37
388.28	145.11
388.48	161.50
388.67	138.09
388.86	156.82
389.06	175.54
389.25	65.54
389.45	4.68
389.64	147.45
389.84	107.66
390.03	173.20
390.22	110.01
390.42	100.64
390.61	67.88
390.81	138.09
391.00	175.54
391.19	128.73
391.39	184.90
391.58	145.11
391.78	159.16
391.97	217.67
392.16	147.45
392.36	191.92
392.55	187.24
392.75	168.52
392.94	124.05
393.13	154.48
393.33	107.66
393.52	140.43
393.71	189.58
393.91	93.62
394.10	131.07
394.29	135.75
394.49	196.60
394.68	234.05
394.88	203.63
395.07	227.03
395.26	140.43
395.46	100.64
395.65	131.07
395.84	184.90
396.04	210.65
396.23	95.96
396.42	84.26
396.62	121.71
396.81	154.48
397.00	81.92
397.19	152.13
397.39	131.07
397.58	168.52
397.77	145.11
397.97	138.09
398.16	170.86
398.35	159.16
398.55	91.28
398.74	149.79
398.93	161.50
399.12	156.82
399.32	119.37
399.51	117.03
399.70	119.37
399.90	114.69
400.09	138.09
400.28	84.26
400.47	58.51
400.67	133.41
400.86	121.71
401.05	163.84
401.24	121.71
401.44	224.69
401.63	159.16
401.82	180.22
402.01	138.09
402.21	149.79
402.40	138.09
402.59	121.71
402.78	163.84
402.97	126.39
403.17	170.86
403.36	212.99
403.55	184.90
403.74	182.56
403.93	180.22
404.13	234.05
404.32	184.90
404.51	145.11
404.70	173.20
404.89	156.82
405.09	220.01
405.28	124.05
405.47	177.88
405.66	208.31
405.85	177.88
406.05	147.45
406.24	203.63
406.43	163.84
406.62	220.01
406.81	154.48
407.00	182.56
407.20	229.37
407.39	182.56
407.58	198.95
407.77	187.24
407.96	196.60
408.15	210.65
408.34	154.48
408.54	217.67
408.73	138.09
408.92	147.45
409.11	152.13
409.30	166.18
409.49	145.11
409.68	177.88
409.87	170.86
410.07	177.88
410.26	128.73
410.45	154.48
410.64	168.52
410.83	142.77
411.02	187.24
411.21	217.67
411.40	198.95
411.59	208.31
411.78	170.86
411.98	243.42
412.17	117.03
412.36	102.98
412.55	98.30
412.74	161.50
412.93	257.46
413.12	114.69
413.31	212.99
413.50	154.48
413.69	182.56
413.88	133.41
414.07	107.66
414.26	119.37
414.45	145.11
414.64	133.41
414.83	138.09
415.02	124.05
415.22	159.16
415.41	147.45
415.60	191.92
415.79	215.33
415.98	224.69
416.17	229.37
416.36	147.45
416.55	182.56
416.74	182.56
416.93	114.69
417.12	138.09
417.31	163.84
417.50	217.67
417.69	198.95
417.88	191.92
418.07	217.67
418.26	166.18
418.45	168.52
418.64	273.84
418.83	243.42
419.02	259.80
419.21	177.88
419.39	210.65
419.58	191.92
419.77	208.31
419.96	187.24
420.15	187.24
420.34	110.01
420.53	215.33
420.72	177.88
420.91	166.18
421.10	142.77
421.29	156.82
421.48	147.45
421.67	184.90
421.86	105.32
422.05	201.29
422.24	189.58
422.43	159.16
422.61	222.35
422.80	159.16
422.99	124.05
423.18	182.56
423.37	222.35
423.56	154.48
423.75	168.52
423.94	131.07
424.13	180.22
424.32	196.60
424.50	241.08
424.69	142.77
424.88	187.24
425.07	175.54
425.26	161.50
425.45	259.80
425.64	224.69
425.83	210.65
426.01	248.10
426.20	205.97
426.39	175.54
426.58	159.16
426.77	170.86
426.96	189.58
427.15	131.07
427.33	187.24
427.52	161.50
427.71	184.90
427.90	147.45
428.09	102.98
428.28	159.16
428.46	198.95
428.65	117.03
428.84	149.79
429.03	180.22
429.22	215.33
429.40	77.24
429.59	140.43
429.78	220.01
429.97	191.92
430.16	180.22
430.34	135.75
430.53	191.92
430.72	147.45
430.91	215.33
431.10	135.75
431.28	187.24
431.47	236.39
431.66	198.95
431.85	184.90
432.03	182.56
432.22	140.43
432.41	182.56
432.60	229.37
432.79	229.37
432.97	283.20
433.16	210.65
433.35	229.37
433.54	159.16
433.72	215.33
433.91	166.18
434.10	156.82
434.28	220.01
434.47	238.73
434.66	215.33
434.85	177.88
435.03	222.35
435.22	388.53
435.41	437.68
435.59	341.72
435.78	376.83
435.97	292.57
436.16	189.58
436.34	203.63
436.53	168.52
436.72	208.31
436.90	145.11
437.09	184.90
437.28	140.43
437.46	154.48
437.65	184.90
437.84	210.65
438.02	152.13
438.21	220.01
438.40	180.22
438.58	168.52
438.77	191.92
438.96	189.58
439.14	138.09
439.33	208.31
439.52	248.10
439.70	180.22
439.89	126.39
440.08	212.99
440.26	191.92
440.45	168.52
440.63	95.96
440.82	191.92
441.01	135.75
441.19	149.79
441.38	147.45
441.57	224.69
441.75	131.07
441.94	182.56
442.12	238.73
442.31	156.82
442.50	264.48
442.68	203.63
442.87	203.63
443.05	166.18
443.24	173.20
443.43	264.48
443.61	273.84
443.80	166.18
443.98	229.37
444.17	220.01
444.35	222.35
444.54	175.54
444.73	117.03
444.91	236.39
445.10	177.88
445.28	117.03
445.47	170.86
445.65	170.86
445.84	135.75
446.02	238.73
446.21	145.11
446.39	250.44
446.58	177.88
446.77	133.41
446.95	210.65
447.14	203.63
447.32	184.90
447.51	166.18
447.69	201.29
447.88	205.97
448.06	119.37
448.25	212.99
448.43	180.22
448.62	114.69
448.80	170.86
448.99	124.05
449.17	112.35
449.36	217.67
449.54	201.29
449.73	205.97
449.91	203.63
450.10	135.75
450.28	187.24
450.46	194.26
450.65	217.67
450.83	168.52
451.02	156.82
451.20	166.18
451.39	257.46
451.57	198.95
451.76	168.52
451.94	222.35
452.13	182.56
452.31	215.33
452.49	126.39
452.68	70.22
452.86	264.48
453.05	290.23
453.23	170.86
453.42	208.31
453.60	201.29
453.78	147.45
453.97	189.58
454.15	203.63
454.34	208.31
454.52	224.69
454.70	280.86
454.89	177.88
455.07	117.03
455.26	217.67
455.44	154.48
455.62	198.95
455.81	145.11
455.99	210.65
456.17	208.31
456.36	280.86
456.54	222.35
456.73	184.90
456.91	229.37
457.09	224.69
457.28	184.90
457.46	147.45
457.64	224.69
457.83	131.07
458.01	189.58
458.19	163.84
458.38	189.58
458.56	173.20
458.74	210.65
458.93	163.84
459.11	184.90
459.29	231.71
459.48	208.31
459.66	238.73
459.84	236.39
460.03	257.46
460.21	135.75
460.39	212.99
460.57	198.95
460.76	276.18
460.94	156.82
461.12	299.59
461.31	126.39
461.49	184.90
461.67	154.48
461.85	194.26
462.04	180.22
462.22	631.94
462.40	252.78
462.59	184.90
462.77	170.86
462.95	173.20
463.13	138.09
463.32	222.35
463.50	152.13
463.68	187.24
463.86	102.98
464.05	210.65
464.23	180.22
464.41	208.31
464.59	259.80
464.78	212.99
464.96	196.60
465.14	196.60
465.32	159.16
465.50	177.88
465.69	222.35
465.87	180.22
466.05	170.86
466.23	128.73
466.41	145.11
466.60	159.16
466.78	222.35
466.96	255.12
467.14	161.50
467.32	196.60
467.51	234.05
467.69	168.52
467.87	273.84
468.05	138.09
468.23	184.90
468.41	208.31
468.60	175.54
468.78	238.73
468.96	238.73
469.14	234.05
469.32	180.22
469.50	215.33
469.69	135.75
469.87	201.29
470.05	250.44
470.23	227.03
470.41	140.43
470.59	184.90
470.77	189.58
470.95	203.63
471.14	241.08
471.32	229.37
471.50	255.12
471.68	170.86
471.86	222.35
472.04	215.33
472.22	243.42
472.40	159.16
472.58	198.95
472.77	128.73
472.95	177.88
473.13	205.97
473.31	201.29
473.49	189.58
473.67	196.60
473.85	215.33
474.03	191.92
474.21	203.63
474.39	184.90
474.57	241.08
474.75	231.71
474.93	252.78
475.12	170.86
475.30	262.14
475.48	196.60
475.66	208.31
475.84	177.88
476.02	212.99
476.20	271.50
476.38	147.45
476.56	290.23
476.74	205.97
476.92	170.86
477.10	161.50
477.28	222.35
477.46	217.67
477.64	135.75
477.82	234.05
478.00	220.01
478.18	175.54
478.36	166.18
478.54	180.22
478.72	194.26
478.90	154.48
479.08	210.65
479.26	227.03
479.44	201.29
479.62	124.05
479.80	145.11
479.98	173.20
480.16	222.35
480.34	203.63
480.52	191.92
480.70	262.14
480.88	161.50
481.06	152.13
481.24	222.35
481.41	203.63
481.59	283.20
481.77	280.86
481.95	273.84
482.13	234.05
482.31	182.56
482.49	203.63
482.67	224.69
482.85	299.59
483.03	166.18
483.21	215.33
483.39	241.08
483.57	220.01
483.74	217.67
483.92	205.97
484.10	229.37
484.28	283.20
484.46	276.18
484.64	175.54
484.82	163.84
485.00	173.20
485.18	194.26
485.35	238.73
485.53	262.14
485.71	220.01
485.89	241.08
486.07	250.44
486.25	290.23
486.43	255.12
486.61	222.35
486.78	276.18
486.96	243.42
487.14	248.10
487.32	227.03
487.50	257.46
487.68	217.67
487.85	255.12
488.03	236.39
488.21	276.18
488.39	189.58
488.57	304.27
488.75	138.09
488.92	543.00
489.10	234.05
489.28	299.59
489.46	262.14
489.64	320.65
489.81	337.04
489.99	243.42
490.17	248.10
490.35	311.29
490.53	259.80
490.70	229.37
490.88	271.50
491.06	280.86
491.24	236.39
491.41	318.31
491.59	287.89
491.77	252.78
491.95	189.58
492.13	243.42
492.30	236.39
492.48	198.95
492.66	301.93
492.84	229.37
493.01	301.93
493.19	243.42
493.37	257.46
493.54	257.46
493.72	210.65
493.90	198.95
494.08	271.50
494.25	264.48
494.43	227.03
494.61	245.76
494.79	194.26
494.96	238.73
495.14	290.23
495.32	238.73
495.49	280.86
495.67	236.39
495.85	236.39
496.02	236.39
496.20	262.14
496.38	287.89
496.55	257.46
496.73	304.27
496.91	231.71
497.09	238.73
497.26	278.52
497.44	220.01
497.62	280.86
497.79	154.48
497.97	287.89
498.14	252.78
498.32	220.01
498.50	255.12
498.67	280.86
498.85	201.29
499.03	224.69
499.20	262.14
499.38	241.08
499.56	245.76
499.73	304.27
499.91	264.48
500.08	285.55
500.26	180.22
500.44	248.10
500.61	308.95
500.79	257.46
500.97	290.23
501.14	248.10
501.32	243.42
501.49	245.76
501.67	180.22
501.84	227.03
502.02	262.14
502.20	280.86
502.37	325.33
502.55	280.86
502.72	308.95
502.90	264.48
503.07	257.46
503.25	259.80
503.43	287.89
503.60	299.59
503.78	217.67
503.95	276.18
504.13	313.63
504.30	217.67
504.48	194.26
504.65	243.42
504.83	234.05
505.01	252.78
505.18	241.08
505.36	280.86
505.53	262.14
505.71	212.99
505.88	259.80
506.06	229.37
506.23	234.05
506.41	161.50
506.58	238.73
506.76	297.25
506.93	245.76
507.11	210.65
507.28	301.93
507.46	243.42
507.63	210.65
507.81	229.37
507.98	278.52
508.16	210.65
508.33	255.12
508.50	234.05
508.68	278.52
508.85	229.37
509.03	285.55
509.20	236.39
509.38	280.86
509.55	220.01
509.73	280.86
509.90	271.50
510.08	229.37
510.25	306.61
510.42	224.69
510.60	241.08
510.77	227.03
510.95	255.12
511.12	280.86
511.30	306.61
511.47	358.10
511.64	386.19
511.82	177.88
511.99	273.84
512.17	332.36
512.34	220.01
512.51	255.12
512.69	224.69
512.86	269.16
513.04	208.31
513.21	224.69
513.38	238.73
513.56	297.25
513.73	236.39
513.90	215.33
514.08	227.03
514.25	318.31
514.43	269.16
514.60	252.78
514.77	280.86
514.95	271.50
515.12	224.69
515.29	287.89
515.47	215.33
515.64	271.50
515.81	210.65
515.99	325.33
516.16	269.16
516.33	243.42
516.51	245.76
516.68	257.46
516.85	262.14
517.03	269.16
517.20	257.46
517.37	208.31
517.54	306.61
517.72	224.69
517.89	220.01
518.06	205.97
518.24	283.20
518.41	330.02
518.58	339.38
518.75	318.31
518.93	292.57
519.10	327.68
519.27	245.76
519.45	255.12
519.62	257.46
519.79	269.16
519.96	220.01
520.14	229.37
520.31	280.86
520.48	252.78
520.65	248.10
520.83	332.36
521.00	285.55
521.17	173.20
521.34	280.86
521.52	294.91
521.69	241.08
521.86	297.25
522.03	255.12
522.20	198.95
522.38	168.52
522.55	241.08
522.72	227.03
522.89	257.46
523.07	299.59
523.24	332.36
523.41	243.42
523.58	308.95
523.75	220.01
523.92	292.57
524.10	273.84
524.27	248.10
524.44	315.97
524.61	217.67
524.78	248.10
524.96	287.89
525.13	231.71
525.30	313.63
525.47	325.33
525.64	278.52
525.81	276.18
525.98	236.39
526.16	259.80
526.33	208.31
526.50	278.52
526.67	264.48
526.84	259.80
527.01	222.35
527.18	301.93
527.36	330.02
527.53	332.36
527.70	276.18
527.87	198.95
528.04	339.38
528.21	259.80
528.38	294.91
528.55	292.57
528.72	294.91
528.89	290.23
529.07	266.82
529.24	259.80
529.41	294.91
529.58	201.29
529.75	266.82
529.92	252.78
530.09	243.42
530.26	332.36
530.43	308.95
530.60	304.27
530.77	231.71
530.94	217.67
531.11	292.57
531.28	245.76
531.46	280.86
531.63	304.27
531.80	276.18
531.97	245.76
532.14	271.50
532.31	191.92
532.48	402.57
532.65	395.55
532.82	390.87
532.99	437.68
533.16	332.36
533.33	332.36
533.50	304.27
533.67	390.87
533.84	402.57
534.01	489.17
534.18	374.49
534.35	339.38
534.52	327.68
534.69	348.74
534.86	306.61
535.03	241.08
535.20	313.63
535.37	311.29
535.54	294.91
535.71	348.74
535.88	318.31
536.05	283.20
536.22	351.08
536.38	252.78
536.55	294.91
536.72	301.93
536.89	243.42
537.06	351.08
537.23	299.59
537.40	386.19
537.57	264.48
537.74	355.76
537.91	339.38
538.08	330.02
538.25	252.78
538.42	297.25
538.59	322.99
538.75	280.86
538.92	334.70
539.09	404.91
539.26	362.78
539.43	627.26
539.60	1139.84
539.77	1551.78
539.94	1631.35
540.11	1116.44
540.28	758.33
540.44	582.79
540.61	454.06
540.78	447.04
540.95	416.62
541.12	543.00
541.29	594.50
541.46	557.05
541.62	543.00
541.79	564.07
541.96	550.03
542.13	538.32
542.30	507.90
542.47	477.47
542.63	491.51
542.80	533.64
542.97	465.77
543.14	538.32
543.31	505.56
543.48	451.72
543.64	449.38
543.81	435.34
543.98	461.09
544.15	393.21
544.32	507.90
544.48	468.11
544.65	461.09
544.82	430.66
544.99	428.32
545.16	517.26
545.32	461.09
545.49	720.88
545.66	873.02
545.83	917.49
546.00	788.76
546.16	681.10
546.33	575.77
546.50	500.87
546.67	486.83
546.83	496.19
547.00	397.89
547.17	463.43
547.34	374.49
547.50	320.65
547.67	407.25
547.84	442.36
548.00	400.23
548.17	379.17
548.34	402.57
548.51	482.15
548.67	440.02
548.84	351.08
549.01	393.21
549.18	346.40
549.34	411.93
549.51	322.99
549.68	372.15
549.84	290.23
550.01	283.20
550.18	416.62
550.34	346.40
550.51	325.33
550.68	344.06
550.84	320.65
551.01	348.74
551.18	348.74
551.34	348.74
551.51	205.97
551.68	341.72
551.84	259.80
552.01	264.48
552.18	327.68
552.34	362.78
552.51	341.72
552.68	227.03
552.84	285.55
553.01	262.14
553.18	266.82
553.34	257.46
553.51	339.38
553.67	301.93
553.84	365.12
554.01	287.89
554.17	337.04
554.34	339.38
554.51	322.99
554.67	362.78
554.84	301.93
555.00	304.27
555.17	327.68
555.33	372.15
555.50	238.73
555.67	255.12
555.83	252.78
556.00	238.73
556.16	451.72
556.33	332.36
556.50	283.20
556.66	227.03
556.83	255.12
556.99	259.80
557.16	257.46
557.32	287.89
557.49	252.78
557.65	278.52
557.82	234.05
557.98	278.52
558.15	292.57
558.32	182.56
558.48	294.91
558.65	294.91
558.81	337.04
558.98	245.76
559.14	276.18
559.31	250.44
559.47	255.12
559.64	255.12
559.80	241.08
559.97	269.16
560.13	262.14
560.30	276.18
560.46	245.76
560.63	250.44
560.79	287.89
560.96	301.93
561.12	290.23
561.29	236.39
561.45	318.31
561.61	280.86
561.78	416.62
561.94	252.78
562.11	287.89
562.27	273.84
562.44	212.99
562.60	264.48
562.77	245.76
562.93	339.38
563.10	224.69
563.26	278.52
563.42	250.44
563.59	278.52
563.75	252.78
563.92	278.52
564.08	191.92
564.24	351.08
564.41	313.63
564.57	266.82
564.74	290.23
564.90	327.68
565.07	285.55
565.23	292.57
565.39	280.86
565.56	238.73
565.72	236.39
565.88	297.25
566.05	250.44
566.21	304.27
566.38	220.01
566.54	255.12
566.70	252.78
566.87	248.10
567.03	231.71
567.19	287.89
567.36	297.25
567.52	299.59
567.68	245.76
567.85	271.50
568.01	212.99
568.17	304.27
568.34	334.70
568.50	252.78
568.66	262.14
568.83	299.59
568.99	322.99
569.15	327.68
569.32	220.01
569.48	262.14
569.64	257.46
569.81	191.92
569.97	299.59
570.13	248.10
570.30	222.35
570.46	285.55
570.62	177.88
570.78	243.42
570.95	252.78
571.11	292.57
571.27	266.82
571.43	306.61
571.60	306.61
571.76	250.44
571.92	318.31
572.09	290.23
572.25	325.33
572.41	276.18
572.57	273.84
572.74	344.06
572.90	299.59
573.06	276.18
573.22	285.55
573.38	273.84
573.55	304.27
573.71	276.18
573.87	250.44
574.03	224.69
574.20	278.52
574.36	325.33
574.52	290.23
574.68	430.66
574.84	381.51
575.01	325.33
575.17	259.80
575.33	365.12
575.49	269.16
575.65	341.72
575.82	393.21
575.98	538.32
576.14	706.84
576.30	669.39
576.46	664.71
576.62	648.33
576.79	568.75
576.95	433.00
577.11	381.51
577.27	313.63
577.43	301.93
577.59	348.74
577.75	330.02
577.92	290.23
578.08	294.91
578.24	304.27
578.40	353.42
578.56	379.17
578.72	393.21
578.88	325.33
579.04	482.15
579.21	397.89
579.37	332.36
579.53	362.78
579.69	337.04
579.85	360.44
580.01	440.02
580.17	479.81
580.33	482.15
580.49	449.38
580.65	404.91
580.82	355.76
580.98	407.25
581.14	379.17
581.30	468.11
581.46	376.83
581.62	589.82
581.78	643.65
581.94	681.10
582.10	503.22
582.26	545.34
582.42	475.13
582.58	461.09
582.74	526.62
582.90	496.19
583.06	561.73
583.22	503.22
583.38	573.43
583.54	573.43
583.70	582.79
583.86	669.39
584.02	791.10
584.18	971.32
584.34	1228.78
584.50	3152.70
584.66	23213.43
584.82	54656.19
584.98	63739.81
585.14	60793.07
585.30	46188.13
585.46	27484.91
585.62	16952.50
585.78	7829.09
585.94	3236.96
586.10	1673.48
586.26	1018.13
586.42	844.93
586.58	784.08
586.74	695.14
586.90	716.20
587.06	610.88
587.22	699.82
587.38	613.22
587.54	1275.59
587.70	3454.63
587.86	5308.34
588.02	5998.79
588.18	4329.99
588.34	2846.09
588.49	1792.85
588.65	1247.51
588.81	690.46
588.97	444.70
589.13	423.64
589.29	369.80
589.45	346.40
589.61	346.40
589.77	531.30
589.93	472.79
590.08	510.24
590.24	491.51
590.40	486.83
590.56	493.85
590.72	454.06
590.88	444.70
591.04	383.85
591.20	421.30
591.35	411.93
591.51	355.76
591.67	397.89
591.83	402.57
591.99	428.32
592.15	402.57
592.31	393.21
592.46	381.51
592.62	421.30
592.78	390.87
592.94	458.74
593.10	395.55
593.26	407.25
593.41	458.74
593.57	444.70
593.73	660.03
593.89	2841.41
594.05	6902.24
594.20	10209.42
594.36	9575.13
594.52	6459.88
594.68	3962.53
594.84	2759.49
594.99	1495.60
595.15	819.19
595.31	472.79
595.47	454.06
595.62	428.32
595.78	409.59
595.94	306.61
596.10	442.36
596.25	418.96
596.41	393.21
596.57	355.76
596.73	376.83
596.88	610.88
597.04	1399.64
597.20	2342.88
597.36	2661.19
597.51	2108.82
597.67	1376.24
597.83	957.28
597.99	725.57
598.14	505.56
598.30	379.17
598.46	390.87
598.61	414.27
598.77	367.46
598.93	372.15
599.09	393.21
599.24	348.74
599.40	400.23
599.56	322.99
599.71	304.27
599.87	374.49
600.03	273.84
600.18	266.82
600.34	243.42
600.50	355.76
600.65	330.02
600.81	238.73
600.97	308.95
601.12	241.08
601.28	301.93
601.44	236.39
601.59	269.16
601.75	299.59
601.91	337.04
602.06	400.23
602.22	425.98
602.37	725.57
602.53	1682.85
602.69	2572.25
602.84	2605.02
603.00	2083.08
603.16	1437.09
603.31	976.00
603.47	631.94
603.62	449.38
603.78	341.72
603.94	330.02
604.09	411.93
604.25	365.12
604.40	418.96
604.56	262.14
604.71	294.91
604.87	248.10
605.03	311.29
605.18	376.83
605.34	341.72
605.49	330.02
605.65	301.93
605.80	280.86
605.96	339.38
606.12	365.12
606.27	348.74
606.43	421.30
606.58	447.04
606.74	919.83
606.89	3386.76
607.05	6562.86
607.20	8645.94
607.36	7185.44
607.51	4791.08
607.67	3138.66
607.82	2291.38
607.98	1270.91
608.13	767.70
608.29	496.19
608.44	519.60
608.60	482.15
608.75	599.18
608.91	1224.10
609.06	5191.31
609.22	11194.78
609.37	15185.40
609.53	13476.80
609.68	9027.45
609.84	5790.49
609.99	4002.32
610.15	2244.57
610.30	1294.32
610.46	924.51
610.61	905.79
610.76	959.62
610.92	1032.18
611.07	1095.37
611.23	1191.33
611.38	964.30
611.54	896.43
611.69	800.46
611.84	671.73
612.00	709.18
612.15	655.35
612.31	627.26
612.46	898.77
612.62	912.81
612.77	936.21
612.92	732.59
613.08	755.99
613.23	643.65
613.39	720.88
613.54	1004.09
613.69	4835.55
613.85	13802.14
614.00	22576.81
614.15	23674.52
614.31	16917.39
614.46	10937.32
614.62	7332.90
614.77	4571.07
614.92	2260.96
615.08	1067.28
615.23	814.51
615.38	638.97
615.54	622.58
615.69	968.98
615.84	2836.73
616.00	5069.60
616.15	6218.80
616.30	5298.97
616.46	3609.11
616.61	2408.41
616.76	1664.12
616.92	999.41
617.07	559.39
617.22	388.53
617.37	456.40
617.53	386.19
617.68	365.12
617.83	442.36
617.99	379.17
618.14	341.72
618.29	332.36
618.45	404.91
618.60	301.93
618.75	285.55
618.90	327.68
619.06	229.37
619.21	367.46
619.36	318.31
619.51	320.65
619.67	318.31
619.82	290.23
619.97	234.05
620.12	320.65
620.28	287.89
620.43	287.89
620.58	315.97
620.73	313.63
620.89	425.98
621.04	561.73
621.19	1563.48
621.34	2743.11
621.49	3817.41
621.65	3466.33
621.80	2413.09
621.95	1626.67
622.10	1231.12
622.25	739.61
622.41	454.06
622.56	334.70
622.71	374.49
622.86	278.52
623.01	299.59
623.16	404.91
623.32	304.27
623.47	355.76
623.62	264.48
623.77	290.23
623.92	348.74
624.07	360.44
624.23	236.39
624.38	308.95
624.53	287.89
624.68	362.78
624.83	367.46
624.98	332.36
625.13	311.29
625.29	306.61
625.44	381.51
625.59	388.53
625.74	416.62
625.89	622.58
626.04	2267.98
626.19	6995.86
626.34	10764.12
626.49	12238.66
626.65	8896.38
626.80	6047.94
626.95	4105.30
627.10	2597.99
627.25	1331.76
627.40	655.35
627.55	456.40
627.70	360.44
627.85	341.72
628.00	327.68
628.15	372.15
628.30	311.29
628.45	299.59
628.60	344.06
628.76	306.61
628.91	351.08
629.06	351.08
629.21	395.55
629.36	355.76
629.51	355.76
629.66	351.08
629.81	477.47
629.96	1341.13
630.11	2464.58
630.26	3255.69
630.41	2862.48
630.56	2148.61
630.71	1556.46
630.86	1018.13
631.01	828.55
631.16	538.32
631.31	514.92
631.46	372.15
631.61	280.86
631.76	280.86
631.91	337.04
632.06	325.33
632.21	283.20
632.36	271.50
632.51	320.65
632.66	397.89
632.81	1158.57
632.96	3691.02
633.10	6640.10
633.25	8250.39
633.40	6993.52
633.55	4802.78
633.70	3145.68
633.85	2275.00
634.00	1306.02
634.15	702.16
634.30	409.59
634.45	365.12
634.60	292.57
634.75	250.44
634.90	311.29
635.05	252.78
635.19	330.02
635.34	313.63
635.49	362.78
635.64	227.03
635.79	320.65
635.94	322.99
636.09	334.70
636.24	243.42
636.39	322.99
636.53	358.10
636.68	283.20
636.83	252.78
636.98	379.17
637.13	327.68
637.28	386.19
637.43	468.11
637.57	643.65
637.72	3190.15
637.87	8805.10
638.02	13865.33
638.17	15676.91
638.32	11634.80
638.46	7894.63
638.61	5268.55
638.76	3295.47
638.91	1657.10
639.06	912.81
639.20	683.44
639.35	587.47
639.50	917.49
639.65	4664.69
639.80	13500.21
639.94	21319.94
640.09	23632.39
640.24	17490.82
640.39	11850.13
640.54	7985.91
640.68	4828.53
640.83	2300.75
640.98	1032.18
641.13	653.01
641.27	486.83
641.42	351.08
641.57	414.27
641.72	362.78
641.86	351.08
642.01	285.55
642.16	210.65
642.31	212.99
642.45	315.97
642.60	374.49
642.75	245.76
642.90	266.82
643.04	238.73
643.19	304.27
643.34	294.91
643.48	285.55
643.63	299.59
643.78	304.27
643.93	290.23
644.07	250.44
644.22	278.52
644.37	227.03
644.51	308.95
644.66	269.16
644.81	236.39
644.95	397.89
645.10	227.03
645.25	231.71
645.39	273.84
645.54	201.29
645.69	262.14
645.83	203.63
645.98	313.63
646.13	212.99
646.27	322.99
646.42	208.31
646.57	266.82
646.71	308.95
646.86	243.42
647.00	304.27
647.15	241.08
647.30	252.78
647.44	231.71
647.59	203.63
647.74	231.71
647.88	234.05
648.03	196.60
648.17	327.68
648.32	224.69
648.47	318.31
648.61	264.48
648.76	327.68
648.90	231.71
649.05	215.33
649.20	299.59
649.34	222.35
649.49	280.86
649.63	297.25
649.78	308.95
649.92	433.00
650.07	1839.66
650.21	5734.31
650.36	10141.54
650.51	12049.08
650.65	9914.51
650.80	6977.14
650.94	4821.50
651.09	2951.42
651.23	1593.90
651.38	828.55
651.52	458.74
651.67	437.68
651.81	325.33
651.96	353.42
652.10	332.36
652.25	287.89
652.39	313.63
652.54	297.25
652.68	688.12
652.83	1898.17
652.97	3473.36
653.12	4435.32
653.26	3817.41
653.41	2766.51
653.55	1940.30
653.70	1343.47
653.84	816.85
653.99	517.26
654.13	330.02
654.27	255.12
654.42	173.20
654.56	306.61
654.71	287.89
654.85	264.48
655.00	245.76
655.14	180.22
655.29	287.89
655.43	327.68
655.57	236.39
655.72	205.97
655.86	217.67
656.01	189.58
656.15	280.86
656.30	245.76
656.44	191.92
656.58	196.60
656.73	262.14
656.87	147.45
657.01	208.31
657.16	271.50
657.30	255.12
657.45	264.48
657.59	238.73
657.73	273.84
657.88	196.60
658.02	287.89
658.16	229.37
658.31	262.14
658.45	250.44
658.60	159.16
658.74	224.69
658.88	304.27
659.03	184.90
659.17	348.74
659.31	943.24
659.46	2691.62
659.60	4755.97
659.74	6132.20
659.89	5355.15
660.03	3932.10
660.17	2820.35
660.32	1771.79
660.46	1013.45
660.60	554.71
660.74	468.11
660.89	325.33
661.03	262.14
661.17	259.80
661.32	220.01
661.46	187.24
661.60	255.12
661.74	318.31
661.89	273.84
662.03	208.31
662.17	245.76
662.31	222.35
662.46	241.08
662.60	135.75
662.74	238.73
662.88	227.03
663.03	285.55
663.17	198.95
663.31	299.59
663.45	212.99
663.60	255.12
663.74	163.84
663.88	217.67
664.02	234.05
664.17	203.63
664.31	147.45
664.45	266.82
664.59	203.63
664.73	229.37
664.88	187.24
665.02	163.84
665.16	266.82
665.30	318.31
665.44	205.97
665.59	278.52
665.73	238.73
665.87	257.46
666.01	208.31
666.15	238.73
666.29	266.82
666.44	292.57
666.58	245.76
666.72	175.54
666.86	262.14
667.00	430.66
667.14	479.81
667.28	1767.10
667.43	4985.34
667.57	8416.57
667.71	10850.72
667.85	9128.09
667.99	6665.85
668.13	4369.78
668.27	2616.72
668.41	1472.20
668.56	851.96
668.70	493.85
668.84	433.00
668.98	358.10
669.12	252.78
669.26	238.73
669.40	299.59
669.54	283.20
669.68	308.95
669.82	252.78
669.96	276.18
670.10	269.16
670.25	264.48
670.39	241.08
670.53	203.63
670.67	264.48
670.81	210.65
670.95	311.29
671.09	531.30
671.23	1888.81
671.37	4224.67
671.51	6155.61
671.65	6494.99
671.79	5263.86
671.93	3740.18
672.07	2331.17
672.21	1385.60
672.35	770.04
672.49	528.96
672.63	444.70
672.77	339.38
672.91	210.65
673.05	271.50
673.19	248.10
673.33	215.33
673.47	269.16
673.61	222.35
673.75	257.46
673.89	238.73
674.03	273.84
674.17	173.20
674.31	147.45
674.45	149.79
674.59	175.54
674.73	201.29
674.87	238.73
675.01	231.71
675.15	257.46
675.29	264.48
675.43	292.57
675.56	278.52
675.70	299.59
675.84	266.82
675.98	287.89
676.12	184.90
676.26	201.29
676.40	95.96
676.54	205.97
676.68	166.18
676.82	245.76
676.96	166.18
677.10	259.80
677.23	229.37
677.37	149.79
677.51	231.71
677.65	259.80
677.79	140.43
677.93	234.05
678.07	156.82
678.21	159.16
678.34	208.31
678.48	227.03
678.62	182.56
678.76	152.13
678.90	201.29
679.04	168.52
679.18	133.41
679.31	156.82
679.45	205.97
679.59	173.20
679.73	182.56
679.87	170.86
680.00	243.42
680.14	215.33
680.28	138.09
680.42	170.86
680.56	231.71
680.70	173.20
680.83	168.52
680.97	147.45
681.11	149.79
681.25	180.22
681.39	91.28
681.52	201.29
681.66	201.29
681.80	161.50
681.94	250.44
682.07	184.90
682.21	173.20
682.35	177.88
682.49	133.41
682.62	252.78
682.76	177.88
682.90	189.58
683.04	191.92
683.17	154.48
683.31	112.35
683.45	198.95
683.59	222.35
683.72	187.24
683.86	142.77
684.00	173.20
684.13	175.54
684.27	175.54
684.41	180.22
684.55	191.92
684.68	180.22
684.82	210.65
684.96	203.63
685.09	187.24
685.23	184.90
685.37	154.48
685.50	182.56
685.64	140.43
685.78	255.12
685.91	189.58
686.05	201.29
686.19	173.20
686.32	203.63
686.46	238.73
686.60	119.37
686.73	184.90
686.87	166.18
687.01	191.92
687.14	187.24
687.28	245.76
687.42	250.44
687.55	201.29
687.69	198.95
687.82	133.41
687.96	159.16
688.10	166.18
688.23	208.31
688.37	231.71
688.50	175.54
688.64	243.42
688.78	175.54
688.91	198.95
689.05	124.05
689.18	175.54
689.32	161.50
689.46	180.22
689.59	227.03
689.73	229.37
689.86	173.20
690.00	229.37
690.13	180.22
690.27	180.22
690.41	241.08
690.54	212.99
690.68	212.99
690.81	147.45
690.95	154.48
691.08	119.37
691.22	210.65
691.35	189.58
691.49	205.97
691.62	142.77
691.76	224.69
691.89	135.75
692.03	201.29
692.16	159.16
692.30	238.73
692.43	702.16
692.57	2010.52
692.70	3456.97
692.84	4442.34
692.97	4271.48
693.11	3183.13
693.24	2356.92
693.38	1549.43
693.51	1121.12
693.65	681.10
693.78	512.58
693.92	358.10
694.05	320.65
694.19	224.69
694.32	231.71
694.45	236.39
694.59	154.48
694.72	208.31
694.86	170.86
694.99	184.90
695.13	196.60
695.26	231.71
695.39	203.63
695.53	236.39
695.66	145.11
695.80	215.33
695.93	135.75
696.07	224.69
696.20	311.29
696.33	360.44
696.47	451.72
696.60	386.19
696.73	313.63
696.87	322.99
697.00	229.37
697.14	203.63
697.27	177.88
697.40	231.71
697.54	227.03
697.67	245.76
697.80	210.65
697.94	187.24
698.07	175.54
698.21	189.58
698.34	198.95
698.47	142.77
698.61	191.92
698.74	212.99
698.87	191.92
699.01	133.41
699.14	234.05
699.27	194.26
699.40	257.46
699.54	166.18
699.67	70.22
699.80	98.30
699.94	182.56
700.07	203.63
700.20	110.01
700.34	198.95
700.47	98.30
700.60	255.12
700.73	175.54
700.87	241.08
701.00	194.26
701.13	187.24
701.26	203.63
701.40	173.20
701.53	119.37
701.66	107.66
701.79	114.69
701.93	196.60
702.06	390.87
702.19	334.70
702.32	461.09
702.46	449.38
702.59	433.00
702.72	699.82
702.85	2581.61
702.99	5394.93
703.12	7798.66
703.25	9053.19
703.38	7805.69
703.51	6307.74
703.65	4720.86
703.78	3424.20
703.91	2200.10
704.04	1439.43
704.17	915.15
704.31	643.65
704.44	397.89
704.57	264.48
704.70	290.23
704.83	248.10
704.96	245.76
705.10	276.18
705.23	208.31
>>>>>End Processed Spectral Data<<<<<
