SpectraSuite Data File
++++++++++++++++++++++++++++++++++++
Date: Fri Oct 04 11:33:46 GMT-05:00 2013
User: price-jones
Dark Spectrum Present: No
Reference Spectrum Present: No
Number of Sampled Component Spectra: 1
Spectrometers: USB2+H05261
Integration Time (usec): 100000 (USB2+H05261)
Spectra Averaged: 1 (USB2+H05261)
Boxcar Smoothing: 0 (USB2+H05261)
Correct for Electrical Dark: No (USB2+H05261)
Strobe/Lamp Enabled: No (USB2+H05261)
Correct for Detector Non-linearity: No (USB2+H05261)
Correct for Stray Light: No (USB2+H05261)
Number of Pixels in Processed Spectrum: 2048
>>>>>Begin Processed Spectral Data<<<<<
365.73	124.05
365.92	124.05
366.12	124.05
366.32	0.00
366.52	0.00
366.72	0.00
366.91	0.00
367.11	0.00
367.31	51.49
367.51	0.00
367.70	0.00
367.90	16.38
368.10	0.00
368.30	0.00
368.49	0.00
368.69	23.41
368.89	0.00
369.09	0.00
369.28	0.00
369.48	0.00
369.68	28.09
369.87	23.41
370.07	44.47
370.27	100.64
370.47	84.26
370.66	70.22
370.86	56.17
371.06	163.84
371.25	77.24
371.45	117.03
371.65	149.79
371.84	107.66
372.04	147.45
372.24	91.28
372.44	138.09
372.63	154.48
372.83	250.44
373.03	51.49
373.22	128.73
373.42	105.32
373.62	187.24
373.81	135.75
374.01	154.48
374.21	133.41
374.40	121.71
374.60	154.48
374.79	124.05
374.99	166.18
375.19	126.39
375.38	189.58
375.58	182.56
375.78	121.71
375.97	133.41
376.17	198.95
376.37	147.45
376.56	241.08
376.76	142.77
376.95	149.79
377.15	191.92
377.35	159.16
377.54	152.13
377.74	119.37
377.93	107.66
378.13	102.98
378.33	112.35
378.52	145.11
378.72	154.48
378.91	70.22
379.11	107.66
379.31	107.66
379.50	98.30
379.70	102.98
379.89	189.58
380.09	128.73
380.28	126.39
380.48	168.52
380.68	98.30
380.87	98.30
381.07	124.05
381.26	142.77
381.46	140.43
381.65	191.92
381.85	84.26
382.04	208.31
382.24	102.98
382.43	149.79
382.63	220.01
382.83	138.09
383.02	145.11
383.22	238.73
383.41	138.09
383.61	180.22
383.80	142.77
384.00	145.11
384.19	124.05
384.39	131.07
384.58	88.94
384.78	105.32
384.97	126.39
385.17	175.54
385.36	145.11
385.56	177.88
385.75	131.07
385.95	133.41
386.14	149.79
386.34	194.26
386.53	81.92
386.72	98.30
386.92	147.45
387.11	91.28
387.31	156.82
387.50	163.84
387.70	121.71
387.89	44.47
388.09	191.92
388.28	114.69
388.48	135.75
388.67	170.86
388.86	95.96
389.06	156.82
389.25	161.50
389.45	194.26
389.64	241.08
389.84	135.75
390.03	145.11
390.22	142.77
390.42	117.03
390.61	182.56
390.81	86.60
391.00	98.30
391.19	224.69
391.39	184.90
391.58	201.29
391.78	84.26
391.97	191.92
392.16	140.43
392.36	145.11
392.55	159.16
392.75	74.90
392.94	208.31
393.13	170.86
393.33	98.30
393.52	156.82
393.71	133.41
393.91	100.64
394.10	173.20
394.29	168.52
394.49	135.75
394.68	138.09
394.88	175.54
395.07	222.35
395.26	152.13
395.46	121.71
395.65	198.95
395.84	117.03
396.04	210.65
396.23	248.10
396.42	149.79
396.62	142.77
396.81	140.43
397.00	147.45
397.19	124.05
397.39	222.35
397.58	173.20
397.77	117.03
397.97	182.56
398.16	102.98
398.35	126.39
398.55	170.86
398.74	138.09
398.93	170.86
399.12	131.07
399.32	126.39
399.51	110.01
399.70	159.16
399.90	91.28
400.09	184.90
400.28	257.46
400.47	154.48
400.67	159.16
400.86	159.16
401.05	189.58
401.24	149.79
401.44	203.63
401.63	184.90
401.82	133.41
402.01	149.79
402.21	180.22
402.40	196.60
402.59	184.90
402.78	163.84
402.97	60.85
403.17	154.48
403.36	166.18
403.55	131.07
403.74	184.90
403.93	173.20
404.13	290.23
404.32	147.45
404.51	177.88
404.70	184.90
404.89	173.20
405.09	159.16
405.28	156.82
405.47	159.16
405.66	142.77
405.85	194.26
406.05	187.24
406.24	224.69
406.43	154.48
406.62	222.35
406.81	177.88
407.00	166.18
407.20	180.22
407.39	187.24
407.58	184.90
407.77	175.54
407.96	154.48
408.15	173.20
408.34	184.90
408.54	180.22
408.73	173.20
408.92	196.60
409.11	142.77
409.30	168.52
409.49	152.13
409.68	177.88
409.87	112.35
410.07	201.29
410.26	145.11
410.45	121.71
410.64	138.09
410.83	88.94
411.02	177.88
411.21	126.39
411.40	184.90
411.59	149.79
411.78	119.37
411.98	166.18
412.17	81.92
412.36	156.82
412.55	182.56
412.74	152.13
412.93	170.86
413.12	131.07
413.31	257.46
413.50	189.58
413.69	128.73
413.88	187.24
414.07	222.35
414.26	205.97
414.45	131.07
414.64	196.60
414.83	215.33
415.02	248.10
415.22	173.20
415.41	147.45
415.60	156.82
415.79	145.11
415.98	201.29
416.17	145.11
416.36	161.50
416.55	166.18
416.74	194.26
416.93	156.82
417.12	208.31
417.31	147.45
417.50	173.20
417.69	238.73
417.88	191.92
418.07	170.86
418.26	154.48
418.45	154.48
418.64	203.63
418.83	217.67
419.02	205.97
419.21	191.92
419.39	187.24
419.58	203.63
419.77	227.03
419.96	210.65
420.15	229.37
420.34	220.01
420.53	107.66
420.72	198.95
420.91	107.66
421.10	145.11
421.29	124.05
421.48	201.29
421.67	182.56
421.86	168.52
422.05	184.90
422.24	145.11
422.43	180.22
422.61	210.65
422.80	196.60
422.99	156.82
423.18	217.67
423.37	184.90
423.56	142.77
423.75	173.20
423.94	222.35
424.13	205.97
424.32	140.43
424.50	175.54
424.69	131.07
424.88	224.69
425.07	98.30
425.26	196.60
425.45	257.46
425.64	227.03
425.83	294.91
426.01	208.31
426.20	198.95
426.39	117.03
426.58	203.63
426.77	142.77
426.96	191.92
427.15	159.16
427.33	166.18
427.52	238.73
427.71	168.52
427.90	126.39
428.09	149.79
428.28	161.50
428.46	250.44
428.65	156.82
428.84	283.20
429.03	163.84
429.22	133.41
429.40	159.16
429.59	147.45
429.78	227.03
429.97	154.48
430.16	128.73
430.34	229.37
430.53	203.63
430.72	184.90
430.91	238.73
431.10	203.63
431.28	212.99
431.47	191.92
431.66	84.26
431.85	133.41
432.03	140.43
432.22	215.33
432.41	241.08
432.60	252.78
432.79	189.58
432.97	276.18
433.16	212.99
433.35	257.46
433.54	126.39
433.72	227.03
433.91	189.58
434.10	203.63
434.28	269.16
434.47	236.39
434.66	187.24
434.85	189.58
435.03	220.01
435.22	297.25
435.41	454.06
435.59	395.55
435.78	273.84
435.97	222.35
436.16	191.92
436.34	117.03
436.53	196.60
436.72	189.58
436.90	273.84
437.09	220.01
437.28	182.56
437.46	234.05
437.65	198.95
437.84	177.88
438.02	245.76
438.21	238.73
438.40	177.88
438.58	184.90
438.77	170.86
438.96	250.44
439.14	191.92
439.33	269.16
439.52	191.92
439.70	224.69
439.89	170.86
440.08	184.90
440.26	222.35
440.45	222.35
440.63	170.86
440.82	212.99
441.01	168.52
441.19	168.52
441.38	205.97
441.57	191.92
441.75	236.39
441.94	201.29
442.12	259.80
442.31	220.01
442.50	180.22
442.68	259.80
442.87	159.16
443.05	215.33
443.24	191.92
443.43	215.33
443.61	182.56
443.80	255.12
443.98	161.50
444.17	191.92
444.35	187.24
444.54	177.88
444.73	187.24
444.91	217.67
445.10	177.88
445.28	198.95
445.47	173.20
445.65	149.79
445.84	124.05
446.02	220.01
446.21	121.71
446.39	152.13
446.58	180.22
446.77	124.05
446.95	276.18
447.14	154.48
447.32	224.69
447.51	255.12
447.69	234.05
447.88	217.67
448.06	189.58
448.25	243.42
448.43	189.58
448.62	227.03
448.80	208.31
448.99	227.03
449.17	149.79
449.36	133.41
449.54	180.22
449.73	175.54
449.91	243.42
450.10	257.46
450.28	236.39
450.46	245.76
450.65	259.80
450.83	198.95
451.02	266.82
451.20	156.82
451.39	191.92
451.57	189.58
451.76	212.99
451.94	236.39
452.13	266.82
452.31	201.29
452.49	189.58
452.68	121.71
452.86	227.03
453.05	262.14
453.23	163.84
453.42	166.18
453.60	238.73
453.78	231.71
453.97	205.97
454.15	191.92
454.34	131.07
454.52	177.88
454.70	227.03
454.89	196.60
455.07	159.16
455.26	215.33
455.44	271.50
455.62	210.65
455.81	138.09
455.99	248.10
456.17	269.16
456.36	229.37
456.54	194.26
456.73	187.24
456.91	170.86
457.09	170.86
457.28	201.29
457.46	257.46
457.64	196.60
457.83	224.69
458.01	201.29
458.19	231.71
458.38	154.48
458.56	234.05
458.74	215.33
458.93	227.03
459.11	201.29
459.29	180.22
459.48	182.56
459.66	222.35
459.84	198.95
460.03	227.03
460.21	210.65
460.39	231.71
460.57	259.80
460.76	273.84
460.94	177.88
461.12	222.35
461.31	266.82
461.49	182.56
461.67	177.88
461.85	159.16
462.04	180.22
462.22	620.24
462.40	145.11
462.59	236.39
462.77	175.54
462.95	252.78
463.13	189.58
463.32	177.88
463.50	161.50
463.68	299.59
463.86	276.18
464.05	229.37
464.23	184.90
464.41	187.24
464.59	131.07
464.78	220.01
464.96	196.60
465.14	229.37
465.32	184.90
465.50	191.92
465.69	252.78
465.87	180.22
466.05	245.76
466.23	124.05
466.41	161.50
466.60	222.35
466.78	173.20
466.96	198.95
467.14	220.01
467.32	201.29
467.51	126.39
467.69	161.50
467.87	212.99
468.05	203.63
468.23	245.76
468.41	257.46
468.60	245.76
468.78	208.31
468.96	194.26
469.14	245.76
469.32	222.35
469.50	252.78
469.69	255.12
469.87	191.92
470.05	205.97
470.23	161.50
470.41	196.60
470.59	236.39
470.77	220.01
470.95	208.31
471.14	210.65
471.32	229.37
471.50	243.42
471.68	250.44
471.86	205.97
472.04	210.65
472.22	182.56
472.40	159.16
472.58	271.50
472.77	220.01
472.95	159.16
473.13	220.01
473.31	208.31
473.49	198.95
473.67	262.14
473.85	234.05
474.03	191.92
474.21	187.24
474.39	227.03
474.57	196.60
474.75	203.63
474.93	194.26
475.12	264.48
475.30	177.88
475.48	255.12
475.66	210.65
475.84	194.26
476.02	170.86
476.20	283.20
476.38	175.54
476.56	271.50
476.74	297.25
476.92	304.27
477.10	205.97
477.28	264.48
477.46	205.97
477.64	283.20
477.82	212.99
478.00	243.42
478.18	236.39
478.36	203.63
478.54	138.09
478.72	198.95
478.90	229.37
479.08	292.57
479.26	234.05
479.44	163.84
479.62	252.78
479.80	208.31
479.98	135.75
480.16	222.35
480.34	241.08
480.52	257.46
480.70	227.03
480.88	224.69
481.06	217.67
481.24	201.29
481.41	210.65
481.59	250.44
481.77	210.65
481.95	229.37
482.13	252.78
482.31	262.14
482.49	243.42
482.67	283.20
482.85	273.84
483.03	259.80
483.21	257.46
483.39	264.48
483.57	271.50
483.74	273.84
483.92	255.12
484.10	248.10
484.28	299.59
484.46	308.95
484.64	187.24
484.82	259.80
485.00	271.50
485.18	248.10
485.35	220.01
485.53	222.35
485.71	327.68
485.89	184.90
486.07	227.03
486.25	334.70
486.43	327.68
486.61	313.63
486.78	351.08
486.96	161.50
487.14	182.56
487.32	236.39
487.50	238.73
487.68	285.55
487.85	215.33
488.03	262.14
488.21	280.86
488.39	301.93
488.57	341.72
488.75	238.73
488.92	517.26
489.10	276.18
489.28	290.23
489.46	301.93
489.64	360.44
489.81	334.70
489.99	313.63
490.17	196.60
490.35	259.80
490.53	201.29
490.70	250.44
490.88	332.36
491.06	243.42
491.24	248.10
491.41	278.52
491.59	250.44
491.77	231.71
491.95	292.57
492.13	262.14
492.30	238.73
492.48	308.95
492.66	245.76
492.84	196.60
493.01	290.23
493.19	243.42
493.37	234.05
493.54	313.63
493.72	236.39
493.90	203.63
494.08	304.27
494.25	266.82
494.43	280.86
494.61	243.42
494.79	292.57
494.96	273.84
495.14	224.69
495.32	278.52
495.49	299.59
495.67	294.91
495.85	304.27
496.02	217.67
496.20	304.27
496.38	332.36
496.55	224.69
496.73	252.78
496.91	315.97
497.09	332.36
497.26	229.37
497.44	299.59
497.62	283.20
497.79	322.99
497.97	259.80
498.14	285.55
498.32	264.48
498.50	287.89
498.67	222.35
498.85	306.61
499.03	344.06
499.20	266.82
499.38	290.23
499.56	187.24
499.73	397.89
499.91	252.78
500.08	255.12
500.26	215.33
500.44	285.55
500.61	257.46
500.79	315.97
500.97	280.86
501.14	297.25
501.32	280.86
501.49	348.74
501.67	210.65
501.84	241.08
502.02	224.69
502.20	273.84
502.37	278.52
502.55	269.16
502.72	217.67
502.90	327.68
503.07	325.33
503.25	292.57
503.43	220.01
503.60	234.05
503.78	252.78
503.95	203.63
504.13	191.92
504.30	255.12
504.48	367.46
504.65	255.12
504.83	306.61
505.01	278.52
505.18	252.78
505.36	250.44
505.53	210.65
505.71	278.52
505.88	327.68
506.06	236.39
506.23	308.95
506.41	217.67
506.58	318.31
506.76	320.65
506.93	304.27
507.11	255.12
507.28	257.46
507.46	299.59
507.63	292.57
507.81	255.12
507.98	285.55
508.16	269.16
508.33	306.61
508.50	290.23
508.68	339.38
508.85	212.99
509.03	222.35
509.20	308.95
509.38	297.25
509.55	299.59
509.73	271.50
509.90	271.50
510.08	273.84
510.25	344.06
510.42	351.08
510.60	280.86
510.77	212.99
510.95	269.16
511.12	358.10
511.30	353.42
511.47	337.04
511.64	379.17
511.82	332.36
511.99	285.55
512.17	353.42
512.34	304.27
512.51	266.82
512.69	294.91
512.86	322.99
513.04	243.42
513.21	306.61
513.38	330.02
513.56	346.40
513.73	259.80
513.90	252.78
514.08	322.99
514.25	283.20
514.43	234.05
514.60	315.97
514.77	337.04
514.95	346.40
515.12	311.29
515.29	259.80
515.47	273.84
515.64	341.72
515.81	320.65
515.99	358.10
516.16	273.84
516.33	276.18
516.51	215.33
516.68	236.39
516.85	285.55
517.03	243.42
517.20	241.08
517.37	245.76
517.54	297.25
517.72	334.70
517.89	273.84
518.06	313.63
518.24	262.14
518.41	348.74
518.58	372.15
518.75	278.52
518.93	278.52
519.10	313.63
519.27	266.82
519.45	294.91
519.62	360.44
519.79	325.33
519.96	271.50
520.14	255.12
520.31	224.69
520.48	255.12
520.65	257.46
520.83	322.99
521.00	285.55
521.17	255.12
521.34	287.89
521.52	320.65
521.69	287.89
521.86	325.33
522.03	304.27
522.20	360.44
522.38	313.63
522.55	290.23
522.72	271.50
522.89	315.97
523.07	257.46
523.24	311.29
523.41	327.68
523.58	250.44
523.75	318.31
523.92	294.91
524.10	351.08
524.27	351.08
524.44	269.16
524.61	287.89
524.78	351.08
524.96	297.25
525.13	227.03
525.30	273.84
525.47	355.76
525.64	358.10
525.81	259.80
525.98	241.08
526.16	266.82
526.33	229.37
526.50	294.91
526.67	337.04
526.84	341.72
527.01	220.01
527.18	273.84
527.36	243.42
527.53	203.63
527.70	365.12
527.87	241.08
528.04	297.25
528.21	348.74
528.38	344.06
528.55	294.91
528.72	278.52
528.89	297.25
529.07	344.06
529.24	341.72
529.41	379.17
529.58	337.04
529.75	276.18
529.92	353.42
530.09	327.68
530.26	330.02
530.43	346.40
530.60	306.61
530.77	301.93
530.94	276.18
531.11	360.44
531.28	372.15
531.46	369.80
531.63	327.68
531.80	334.70
531.97	294.91
532.14	304.27
532.31	346.40
532.48	330.02
532.65	425.98
532.82	425.98
532.99	372.15
533.16	327.68
533.33	379.17
533.50	330.02
533.67	362.78
533.84	360.44
534.01	430.66
534.18	386.19
534.35	358.10
534.52	400.23
534.69	372.15
534.86	358.10
535.03	271.50
535.20	351.08
535.37	259.80
535.54	332.36
535.71	428.32
535.88	346.40
536.05	414.27
536.22	334.70
536.38	285.55
536.55	266.82
536.72	292.57
536.89	376.83
537.06	322.99
537.23	236.39
537.40	353.42
537.57	348.74
537.74	376.83
537.91	407.25
538.08	367.46
538.25	344.06
538.42	353.42
538.59	369.80
538.75	379.17
538.92	376.83
539.09	353.42
539.26	351.08
539.43	472.79
539.60	653.01
539.77	943.24
539.94	961.96
540.11	880.04
540.28	622.58
540.44	468.11
540.61	461.09
540.78	442.36
540.95	554.71
541.12	571.09
541.29	535.98
541.46	683.44
541.62	592.16
541.79	606.20
541.96	559.39
542.13	531.30
542.30	479.81
542.47	594.50
542.63	447.04
542.80	491.51
542.97	463.43
543.14	564.07
543.31	519.60
543.48	482.15
543.64	440.02
543.81	531.30
543.98	475.13
544.15	475.13
544.32	498.53
544.48	498.53
544.65	498.53
544.82	550.03
544.99	484.49
545.16	554.71
545.32	479.81
545.49	695.14
545.66	1018.13
545.83	1020.47
546.00	922.17
546.16	737.27
546.33	620.24
546.50	517.26
546.67	482.15
546.83	475.13
547.00	500.87
547.17	425.98
547.34	442.36
547.50	454.06
547.67	400.23
547.84	414.27
548.00	418.96
548.17	390.87
548.34	418.96
548.51	505.56
548.67	482.15
548.84	348.74
549.01	425.98
549.18	386.19
549.34	337.04
549.51	395.55
549.68	463.43
549.84	458.74
550.01	346.40
550.18	337.04
550.34	390.87
550.51	379.17
550.68	409.59
550.84	320.65
551.01	404.91
551.18	397.89
551.34	355.76
551.51	297.25
551.68	334.70
551.84	411.93
552.01	360.44
552.18	290.23
552.34	341.72
552.51	322.99
552.68	388.53
552.84	259.80
553.01	313.63
553.18	308.95
553.34	369.80
553.51	367.46
553.67	390.87
553.84	395.55
554.01	325.33
554.17	292.57
554.34	285.55
554.51	278.52
554.67	393.21
554.84	318.31
555.00	320.65
555.17	313.63
555.33	362.78
555.50	334.70
555.67	301.93
555.83	264.48
556.00	355.76
556.16	465.77
556.33	294.91
556.50	341.72
556.66	292.57
556.83	227.03
556.99	311.29
557.16	201.29
557.32	322.99
557.49	306.61
557.65	241.08
557.82	269.16
557.98	325.33
558.15	285.55
558.32	376.83
558.48	194.26
558.65	287.89
558.81	337.04
558.98	278.52
559.14	311.29
559.31	262.14
559.47	325.33
559.64	285.55
559.80	341.72
559.97	299.59
560.13	313.63
560.30	332.36
560.46	395.55
560.63	318.31
560.79	301.93
560.96	313.63
561.12	257.46
561.29	304.27
561.45	290.23
561.61	285.55
561.78	386.19
561.94	278.52
562.11	294.91
562.27	311.29
562.44	287.89
562.60	194.26
562.77	313.63
562.93	301.93
563.10	362.78
563.26	283.20
563.42	360.44
563.59	311.29
563.75	262.14
563.92	308.95
564.08	330.02
564.24	330.02
564.41	297.25
564.57	210.65
564.74	346.40
564.90	346.40
565.07	344.06
565.23	320.65
565.39	327.68
565.56	332.36
565.72	248.10
565.88	238.73
566.05	308.95
566.21	255.12
566.38	205.97
566.54	278.52
566.70	337.04
566.87	283.20
567.03	292.57
567.19	177.88
567.36	278.52
567.52	297.25
567.68	271.50
567.85	283.20
568.01	311.29
568.17	334.70
568.34	311.29
568.50	334.70
568.66	306.61
568.83	397.89
568.99	280.86
569.15	287.89
569.32	285.55
569.48	313.63
569.64	264.48
569.81	322.99
569.97	290.23
570.13	383.85
570.30	269.16
570.46	208.31
570.62	205.97
570.78	325.33
570.95	327.68
571.11	337.04
571.27	351.08
571.43	243.42
571.60	276.18
571.76	297.25
571.92	269.16
572.09	376.83
572.25	257.46
572.41	269.16
572.57	266.82
572.74	379.17
572.90	229.37
573.06	215.33
573.22	287.89
573.38	224.69
573.55	348.74
573.71	285.55
573.87	173.20
574.03	234.05
574.20	318.31
574.36	374.49
574.52	341.72
574.68	290.23
574.84	283.20
575.01	355.76
575.17	360.44
575.33	285.55
575.49	306.61
575.65	379.17
575.82	393.21
575.98	524.28
576.14	538.32
576.30	528.96
576.46	505.56
576.62	493.85
576.79	479.81
576.95	447.04
577.11	346.40
577.27	297.25
577.43	327.68
577.59	369.80
577.75	215.33
577.92	294.91
578.08	306.61
578.24	376.83
578.40	381.51
578.56	402.57
578.72	442.36
578.88	353.42
579.04	407.25
579.21	353.42
579.37	362.78
579.53	418.96
579.69	287.89
579.85	376.83
580.01	388.53
580.17	348.74
580.33	428.32
580.49	414.27
580.65	393.21
580.82	383.85
580.98	339.38
581.14	381.51
581.30	341.72
581.46	437.68
581.62	491.51
581.78	451.72
581.94	540.66
582.10	493.85
582.26	433.00
582.42	383.85
582.58	388.53
582.74	442.36
582.90	461.09
583.06	388.53
583.22	418.96
583.38	454.06
583.54	507.90
583.70	524.28
583.86	507.90
584.02	589.82
584.18	685.78
584.34	692.80
584.50	1509.65
584.66	8887.01
584.82	25790.36
584.98	40598.93
585.14	36589.59
585.30	23187.69
585.46	13689.79
585.62	8482.10
585.78	4028.06
585.94	1811.57
586.10	1029.84
586.26	690.46
586.42	669.39
586.58	528.96
586.74	468.11
586.90	498.53
587.06	566.41
587.22	472.79
587.38	486.83
587.54	720.88
587.70	1722.63
587.86	2743.11
588.02	3169.09
588.18	2354.58
588.34	1535.39
588.49	1053.24
588.65	699.82
588.81	507.90
588.97	400.23
589.13	386.19
589.29	327.68
589.45	313.63
589.61	290.23
589.77	416.62
589.93	346.40
590.08	362.78
590.24	411.93
590.40	447.04
590.56	442.36
590.72	355.76
590.88	332.36
591.04	397.89
591.20	353.42
591.35	433.00
591.51	325.33
591.67	290.23
591.83	318.31
591.99	351.08
592.15	383.85
592.31	400.23
592.46	400.23
592.62	400.23
592.78	360.44
592.94	430.66
593.10	346.40
593.26	402.57
593.41	435.34
593.57	383.85
593.73	486.83
593.89	1345.81
594.05	3400.80
594.20	4903.42
594.36	4898.74
594.52	3225.26
594.68	2064.35
594.84	1514.33
594.99	898.77
595.15	533.64
595.31	472.79
595.47	442.36
595.62	374.49
595.78	294.91
595.94	360.44
596.10	341.72
596.25	379.17
596.41	264.48
596.57	341.72
596.73	290.23
596.88	423.64
597.04	823.87
597.20	1121.12
597.36	1479.22
597.51	1090.69
597.67	870.68
597.83	655.35
597.99	564.07
598.14	418.96
598.30	470.45
598.46	320.65
598.61	337.04
598.77	454.06
598.93	320.65
599.09	388.53
599.24	351.08
599.40	379.17
599.56	362.78
599.71	348.74
599.87	271.50
600.03	346.40
600.18	355.76
600.34	311.29
600.50	308.95
600.65	313.63
600.81	262.14
600.97	351.08
601.12	264.48
601.28	306.61
601.44	327.68
601.59	308.95
601.75	367.46
601.91	301.93
602.06	388.53
602.22	369.80
602.37	526.62
602.53	894.08
602.69	1486.24
602.84	1465.18
603.00	1224.10
603.16	919.83
603.31	685.78
603.47	599.18
603.62	418.96
603.78	294.91
603.94	322.99
604.09	278.52
604.25	369.80
604.40	325.33
604.56	341.72
604.71	376.83
604.87	322.99
605.03	234.05
605.18	344.06
605.34	330.02
605.49	362.78
605.65	414.27
605.80	315.97
605.96	322.99
606.12	376.83
606.27	358.10
606.43	327.68
606.58	376.83
606.74	587.47
606.89	1682.85
607.05	3183.13
607.20	4079.55
607.36	3632.51
607.51	2567.57
607.67	1816.26
607.82	1345.81
607.98	849.61
608.13	477.47
608.29	442.36
608.44	454.06
608.60	444.70
608.75	458.74
608.91	718.54
609.06	2422.45
609.22	5345.78
609.37	7243.96
609.53	6445.84
609.68	4643.62
609.84	3101.21
609.99	2260.96
610.15	1432.41
610.30	936.21
610.46	868.34
610.61	954.94
610.76	938.55
610.92	1078.99
611.07	1107.07
611.23	1226.44
611.38	1160.91
611.54	1062.60
611.69	873.02
611.84	791.10
612.00	695.14
612.15	697.48
612.31	692.80
612.46	695.14
612.62	706.84
612.77	734.93
612.92	664.71
613.08	730.25
613.23	610.88
613.39	582.79
613.54	678.76
613.69	2143.93
613.85	6272.64
614.00	10490.28
614.15	11702.68
614.31	8826.16
614.46	5736.65
614.62	3976.57
614.77	2457.56
614.92	1310.70
615.08	727.91
615.23	634.29
615.38	517.26
615.54	477.47
615.69	697.48
615.84	1385.60
616.00	2534.80
616.15	3208.87
616.30	2703.32
616.46	1984.77
616.61	1355.17
616.76	1076.65
616.92	711.52
617.07	423.64
617.22	351.08
617.37	367.46
617.53	358.10
617.68	365.12
617.83	348.74
617.99	437.68
618.14	332.36
618.29	400.23
618.45	332.36
618.60	344.06
618.75	322.99
618.90	299.59
619.06	301.93
619.21	320.65
619.36	334.70
619.51	337.04
619.67	332.36
619.82	344.06
619.97	341.72
620.12	418.96
620.28	269.16
620.43	330.02
620.58	433.00
620.73	332.36
620.89	337.04
621.04	442.36
621.19	898.77
621.34	1533.05
621.49	1902.86
621.65	1774.13
621.80	1362.19
621.95	1046.22
622.10	861.32
622.25	554.71
622.41	369.80
622.56	411.93
622.71	332.36
622.86	332.36
623.01	346.40
623.16	320.65
623.32	327.68
623.47	374.49
623.62	395.55
623.77	297.25
623.92	372.15
624.07	334.70
624.23	346.40
624.38	346.40
624.53	339.38
624.68	383.85
624.83	287.89
624.98	322.99
625.13	351.08
625.29	294.91
625.44	381.51
625.59	379.17
625.74	407.25
625.89	456.40
626.04	1165.59
626.19	3183.13
626.34	5474.51
626.49	6251.57
626.65	4739.58
626.80	3396.12
626.95	2340.54
627.10	1455.81
627.25	896.43
627.40	592.16
627.55	397.89
627.70	243.42
627.85	217.67
628.00	285.55
628.15	283.20
628.30	355.76
628.45	322.99
628.60	388.53
628.76	348.74
628.91	231.71
629.06	266.82
629.21	311.29
629.36	311.29
629.51	318.31
629.66	337.04
629.81	376.83
629.96	774.72
630.11	1364.53
630.26	1732.00
630.41	1650.08
630.56	1341.13
630.71	912.81
630.86	645.99
631.01	526.62
631.16	514.92
631.31	327.68
631.46	341.72
631.61	266.82
631.76	334.70
631.91	332.36
632.06	325.33
632.21	311.29
632.36	411.93
632.51	306.61
632.66	346.40
632.81	620.24
632.96	1825.62
633.10	3251.00
633.25	4119.34
633.40	3489.74
633.55	2569.91
633.70	1781.15
633.85	1287.29
634.00	777.06
634.15	437.68
634.30	374.49
634.45	292.57
634.60	250.44
634.75	236.39
634.90	297.25
635.05	318.31
635.19	262.14
635.34	264.48
635.49	313.63
635.64	248.10
635.79	287.89
635.94	280.86
636.09	339.38
636.24	292.57
636.39	360.44
636.53	390.87
636.68	322.99
636.83	283.20
636.98	273.84
637.13	346.40
637.28	334.70
637.43	369.80
637.57	507.90
637.72	1507.30
637.87	3978.91
638.02	6794.58
638.17	7658.23
638.32	5844.32
638.46	4049.13
638.61	2801.62
638.76	1736.68
638.91	898.77
639.06	543.00
639.20	440.02
639.35	510.24
639.50	580.45
639.65	2106.48
639.80	6033.90
639.94	10104.09
640.09	11454.58
640.24	8723.18
640.39	5715.59
640.54	4109.98
640.68	2516.08
640.83	1338.79
640.98	746.63
641.13	554.71
641.27	351.08
641.42	297.25
641.57	297.25
641.72	334.70
641.86	262.14
642.01	397.89
642.16	320.65
642.31	238.73
642.45	358.10
642.60	276.18
642.75	301.93
642.90	322.99
643.04	290.23
643.19	184.90
643.34	304.27
643.48	252.78
643.63	208.31
643.78	283.20
643.93	306.61
644.07	231.71
644.22	280.86
644.37	215.33
644.51	283.20
644.66	184.90
644.81	262.14
644.95	344.06
645.10	262.14
645.25	285.55
645.39	215.33
645.54	259.80
645.69	241.08
645.83	238.73
645.98	273.84
646.13	255.12
646.27	248.10
646.42	198.95
646.57	252.78
646.71	234.05
646.86	276.18
647.00	266.82
647.15	292.57
647.30	229.37
647.44	276.18
647.59	271.50
647.74	243.42
647.88	241.08
648.03	252.78
648.17	222.35
648.32	234.05
648.47	287.89
648.61	234.05
648.76	231.71
648.90	273.84
649.05	287.89
649.20	278.52
649.34	278.52
649.49	252.78
649.63	290.23
649.78	325.33
649.92	393.21
650.07	894.08
650.21	2864.82
650.36	5057.90
650.51	6106.46
650.65	5109.39
650.80	3772.94
650.94	2605.02
651.09	1692.21
651.23	896.43
651.38	596.84
651.52	393.21
651.67	304.27
651.81	369.80
651.96	369.80
652.10	304.27
652.25	360.44
652.39	229.37
652.54	252.78
652.68	390.87
652.83	1057.92
652.97	1797.53
653.12	2321.81
653.26	2064.35
653.41	1607.95
653.55	1163.25
653.70	713.86
653.84	559.39
653.99	386.19
654.13	299.59
654.27	259.80
654.42	234.05
654.56	271.50
654.71	170.86
654.85	236.39
655.00	238.73
655.14	182.56
655.29	227.03
655.43	236.39
655.57	234.05
655.72	231.71
655.86	205.97
656.01	238.73
656.15	184.90
656.30	231.71
656.44	147.45
656.58	212.99
656.73	264.48
656.87	234.05
657.01	210.65
657.16	271.50
657.30	304.27
657.45	227.03
657.59	215.33
657.73	245.76
657.88	299.59
658.02	330.02
658.16	198.95
658.31	189.58
658.45	257.46
658.60	264.48
658.74	285.55
658.88	203.63
659.03	215.33
659.17	304.27
659.31	531.30
659.46	1313.04
659.60	2441.18
659.74	3108.23
659.89	2883.54
660.03	2235.21
660.17	1556.46
660.32	1060.26
660.46	599.18
660.60	435.34
660.74	397.89
660.89	320.65
661.03	262.14
661.17	243.42
661.32	308.95
661.46	187.24
661.60	250.44
661.74	227.03
661.89	313.63
662.03	250.44
662.17	205.97
662.31	191.92
662.46	255.12
662.60	236.39
662.74	229.37
662.88	238.73
663.03	278.52
663.17	273.84
663.31	269.16
663.45	294.91
663.60	264.48
663.74	273.84
663.88	229.37
664.02	241.08
664.17	234.05
664.31	205.97
664.45	294.91
664.59	273.84
664.73	210.65
664.88	294.91
665.02	236.39
665.16	243.42
665.30	259.80
665.44	222.35
665.59	229.37
665.73	220.01
665.87	313.63
666.01	220.01
666.15	252.78
666.29	203.63
666.44	262.14
666.58	306.61
666.72	236.39
666.86	191.92
667.00	280.86
667.14	304.27
667.28	896.43
667.43	2347.56
667.57	4245.73
667.71	5671.12
667.85	4758.31
667.99	3604.42
668.13	2319.47
668.27	1526.03
668.41	940.90
668.56	543.00
668.70	479.81
668.84	388.53
668.98	238.73
669.12	217.67
669.26	264.48
669.40	290.23
669.54	315.97
669.68	330.02
669.82	290.23
669.96	250.44
670.10	241.08
670.25	217.67
670.39	304.27
670.53	245.76
670.67	292.57
670.81	159.16
670.95	280.86
671.09	383.85
671.23	1015.79
671.37	2038.61
671.51	3251.00
671.65	3585.70
671.79	2752.47
671.93	1996.48
672.07	1181.97
672.21	751.31
672.35	482.15
672.49	433.00
672.63	433.00
672.77	245.76
672.91	243.42
673.05	248.10
673.19	278.52
673.33	222.35
673.47	318.31
673.61	264.48
673.75	215.33
673.89	236.39
674.03	220.01
674.17	250.44
674.31	250.44
674.45	229.37
674.59	250.44
674.73	198.95
674.87	191.92
675.01	290.23
675.15	259.80
675.29	290.23
675.43	241.08
675.56	325.33
675.70	255.12
675.84	245.76
675.98	241.08
676.12	170.86
676.26	168.52
676.40	187.24
676.54	168.52
676.68	238.73
676.82	191.92
676.96	205.97
677.10	227.03
677.23	257.46
677.37	205.97
677.51	198.95
677.65	271.50
677.79	262.14
677.93	201.29
678.07	243.42
678.21	220.01
678.34	203.63
678.48	173.20
678.62	287.89
678.76	147.45
678.90	168.52
679.04	250.44
679.18	166.18
679.31	201.29
679.45	224.69
679.59	238.73
679.73	271.50
679.87	182.56
680.00	180.22
680.14	161.50
680.28	177.88
680.42	212.99
680.56	191.92
680.70	196.60
680.83	238.73
680.97	161.50
681.11	187.24
681.25	208.31
681.39	145.11
681.52	208.31
681.66	224.69
681.80	177.88
681.94	257.46
682.07	220.01
682.21	168.52
682.35	163.84
682.49	269.16
682.62	229.37
682.76	203.63
682.90	287.89
683.04	189.58
683.17	231.71
683.31	220.01
683.45	182.56
683.59	250.44
683.72	177.88
683.86	248.10
684.00	173.20
684.13	262.14
684.27	229.37
684.41	203.63
684.55	184.90
684.68	173.20
684.82	170.86
684.96	257.46
685.09	138.09
685.23	182.56
685.37	217.67
685.50	262.14
685.64	264.48
685.78	124.05
685.91	198.95
686.05	266.82
686.19	156.82
686.32	191.92
686.46	194.26
686.60	175.54
686.73	290.23
686.87	238.73
687.01	126.39
687.14	166.18
687.28	198.95
687.42	191.92
687.55	231.71
687.69	166.18
687.82	184.90
687.96	201.29
688.10	238.73
688.23	191.92
688.37	271.50
688.50	257.46
688.64	210.65
688.78	175.54
688.91	184.90
689.05	154.48
689.18	187.24
689.32	163.84
689.46	220.01
689.59	154.48
689.73	210.65
689.86	182.56
690.00	142.77
690.13	191.92
690.27	224.69
690.41	168.52
690.54	210.65
690.68	198.95
690.81	184.90
690.95	252.78
691.08	243.42
691.22	191.92
691.35	133.41
691.49	198.95
691.62	208.31
691.76	166.18
691.89	196.60
692.03	231.71
692.16	161.50
692.30	191.92
692.43	362.78
692.57	971.32
692.70	1933.28
692.84	2525.44
692.97	2317.13
693.11	1750.72
693.24	1294.32
693.38	903.45
693.51	641.31
693.65	521.94
693.78	294.91
693.92	332.36
694.05	224.69
694.19	198.95
694.32	191.92
694.45	91.28
694.59	198.95
694.72	159.16
694.86	133.41
694.99	149.79
695.13	168.52
695.26	236.39
695.39	159.16
695.53	248.10
695.66	217.67
695.80	177.88
695.93	189.58
696.07	182.56
696.20	236.39
696.33	241.08
696.47	355.76
696.60	322.99
696.73	299.59
696.87	259.80
697.00	248.10
697.14	227.03
697.27	196.60
697.40	243.42
697.54	227.03
697.67	215.33
697.80	154.48
697.94	121.71
698.07	208.31
698.21	229.37
698.34	215.33
698.47	79.58
698.61	196.60
698.74	154.48
698.87	100.64
699.01	191.92
699.14	126.39
699.27	189.58
699.40	273.84
699.54	163.84
699.67	138.09
699.80	119.37
699.94	163.84
700.07	220.01
700.20	140.43
700.34	194.26
700.47	119.37
700.60	182.56
700.73	215.33
700.87	220.01
701.00	135.75
701.13	187.24
701.26	184.90
701.40	152.13
701.53	177.88
701.66	245.76
701.79	145.11
701.93	189.58
702.06	248.10
702.19	292.57
702.32	337.04
702.46	266.82
702.59	318.31
702.72	447.04
702.85	1207.72
702.99	2771.19
703.12	4037.42
703.25	4442.34
703.38	3768.26
703.51	3054.40
703.65	2457.56
703.78	1851.36
703.91	1235.80
704.04	807.48
704.17	517.26
704.31	339.38
704.44	313.63
704.57	308.95
704.70	156.82
704.83	203.63
704.96	217.67
705.10	257.46
705.23	177.88
>>>>>End Processed Spectral Data<<<<<
