SpectraSuite Data File
++++++++++++++++++++++++++++++++++++
Date: Fri Oct 04 12:15:41 GMT-05:00 2013
User: price-jones
Dark Spectrum Present: No
Reference Spectrum Present: No
Number of Sampled Component Spectra: 1
Spectrometers: USB2+H05261
Integration Time (usec): 10000000 (USB2+H05261)
Spectra Averaged: 1 (USB2+H05261)
Boxcar Smoothing: 0 (USB2+H05261)
Correct for Electrical Dark: No (USB2+H05261)
Strobe/Lamp Enabled: No (USB2+H05261)
Correct for Detector Non-linearity: No (USB2+H05261)
Correct for Stray Light: No (USB2+H05261)
Number of Pixels in Processed Spectrum: 2048
>>>>>Begin Processed Spectral Data<<<<<
365.73	0.00
365.92	0.00
366.12	0.00
366.32	0.00
366.52	0.00
366.72	4402.55
366.91	2331.17
367.11	4266.80
367.31	3712.09
367.51	4252.75
367.70	4905.76
367.90	6888.20
368.10	4634.26
368.30	4882.36
368.49	2525.44
368.69	6167.31
368.89	4138.07
369.09	2700.98
369.28	3969.55
369.48	2347.56
369.68	3459.31
369.87	4510.21
370.07	3021.63
370.27	6677.55
370.47	4636.60
370.66	3716.77
370.86	5486.22
371.06	7819.73
371.25	9848.97
371.45	4360.42
371.65	6984.16
371.84	3454.63
372.04	2913.97
372.24	4903.42
372.44	3932.10
372.63	5327.06
372.83	8631.90
373.03	4596.81
373.22	3503.78
373.42	3777.62
373.62	4596.81
373.81	5516.64
374.01	6885.86
374.21	6712.66
374.40	4217.65
374.60	7220.55
374.79	4491.49
374.99	4362.76
375.19	5301.31
375.38	5837.30
375.58	4847.25
375.78	6665.85
375.97	6036.24
376.17	9827.91
376.37	4521.92
376.56	5731.97
376.76	3648.90
376.95	3552.93
377.15	6120.50
377.35	5551.75
377.54	5640.69
377.74	3684.00
377.93	3859.54
378.13	5242.80
378.33	7052.03
378.52	4620.22
378.72	7054.37
378.91	6345.19
379.11	4252.75
379.31	4126.36
379.50	3000.57
379.70	6843.73
379.89	6820.32
380.09	4205.94
380.28	3227.60
380.48	4746.61
380.68	3805.71
380.87	3136.32
381.07	5366.85
381.26	7672.28
381.46	3365.69
381.65	6008.16
381.85	3964.87
382.04	4702.14
382.24	5722.61
382.43	4706.82
382.63	3538.89
382.83	4318.29
383.02	6820.32
383.22	7548.23
383.41	3494.42
383.61	4814.48
383.80	4411.91
384.00	4587.45
384.19	4100.62
384.39	5039.17
384.58	4215.30
384.78	5720.27
384.97	5329.40
385.17	4624.90
385.36	4060.83
385.56	6408.39
385.75	3262.71
385.95	4655.33
386.14	6579.25
386.34	4187.22
386.53	5303.65
386.72	3992.95
386.92	7562.27
387.11	5837.30
387.31	6029.22
387.50	3733.15
387.70	3379.73
387.89	5093.01
388.09	3751.88
388.28	3412.50
388.48	3796.35
388.67	6633.08
388.86	4552.34
389.06	4430.63
389.25	5462.81
389.45	5308.34
389.64	4828.53
389.84	7307.15
390.03	5963.68
390.22	5252.16
390.42	4367.44
390.61	3536.55
390.81	3119.93
391.00	4683.41
391.19	7133.95
391.39	4650.64
391.58	6129.86
391.78	4971.30
391.97	5427.70
392.16	3396.12
392.36	7634.83
392.55	7204.17
392.75	4669.37
392.94	3988.27
393.13	6209.44
393.33	3272.07
393.52	4119.34
393.71	7768.24
393.91	5039.17
394.10	3496.76
394.29	3955.51
394.49	4198.92
394.68	5671.12
394.88	7248.64
395.07	6869.47
395.26	5296.63
395.46	5076.62
395.65	7129.27
395.84	5888.79
396.04	11625.44
396.23	4856.61
396.42	4229.35
396.62	5631.33
396.81	5853.68
397.00	5027.47
397.19	5483.88
397.39	4489.15
397.58	7892.29
397.77	4622.56
397.97	5151.52
398.16	4854.27
398.35	6445.84
398.55	4004.66
398.74	5294.29
398.93	7145.66
399.12	4372.12
399.32	6424.77
399.51	4985.34
399.70	6569.88
399.90	5895.81
400.09	6005.81
400.28	7522.48
400.47	4741.93
400.67	6930.33
400.86	5357.49
401.05	6527.75
401.24	7417.16
401.44	6862.45
401.63	6836.70
401.82	7662.91
402.01	4304.25
402.21	6127.52
402.40	5811.55
402.59	4945.55
402.78	4842.57
402.97	5050.88
403.17	5565.79
403.36	6036.24
403.55	5144.50
403.74	4770.01
403.93	5284.93
404.13	7889.95
404.32	4454.04
404.51	4517.23
404.70	7171.40
404.89	5034.49
405.09	9650.03
405.28	5542.39
405.47	3941.46
405.66	6752.45
405.85	7421.84
406.05	5509.62
406.24	5226.42
406.43	6061.99
406.62	6595.63
406.81	10289.00
407.00	7581.00
407.20	5774.10
407.39	5348.12
407.58	4952.57
407.77	6541.80
407.96	8259.75
408.15	7538.87
408.34	6780.53
408.54	6356.90
408.73	6148.59
408.92	5884.11
409.11	7091.82
409.30	8056.12
409.49	4496.17
409.68	5460.47
409.87	5863.04
410.07	4458.72
410.26	6043.26
410.45	5404.30
410.64	4599.15
410.83	6012.84
411.02	5102.37
411.21	7108.21
411.40	7597.38
411.59	5462.81
411.78	5172.58
411.98	5851.34
412.17	4531.28
412.36	5277.91
412.55	5301.31
412.74	7272.04
412.93	9870.04
413.12	5146.84
413.31	8175.49
413.50	6754.79
413.69	5944.96
413.88	9071.92
414.07	6408.39
414.26	6267.95
414.45	5111.73
414.64	7157.36
414.83	7246.30
415.02	6684.57
415.22	7442.90
415.41	8683.39
415.60	5277.91
415.79	5977.73
415.98	8870.63
416.17	6279.66
416.36	6305.40
416.55	5132.79
416.74	7522.48
416.93	8589.77
417.12	6003.47
417.31	5935.60
417.50	5804.53
417.69	9966.00
417.88	6518.39
418.07	4990.02
418.26	6029.22
418.45	6033.90
418.64	9767.06
418.83	7138.63
419.02	7014.59
419.21	6703.29
419.39	6590.95
419.58	5416.00
419.77	5371.53
419.96	8437.63
420.15	9790.46
420.34	6502.01
420.53	7066.08
420.72	8437.63
420.91	6853.09
421.10	6595.63
421.29	7138.63
421.48	7733.13
421.67	8444.65
421.86	5895.81
422.05	5987.09
422.24	5895.81
422.43	6956.07
422.61	4875.34
422.80	6235.19
422.99	6698.61
423.18	5863.04
423.37	9444.06
423.56	7733.13
423.75	7524.82
423.94	5181.95
424.13	6324.13
424.32	5586.86
424.50	6572.22
424.69	6324.13
424.88	9362.14
425.07	5844.32
425.26	7527.16
425.45	7925.05
425.64	5549.41
425.83	6094.76
426.01	9156.18
426.20	7288.43
426.39	5959.00
426.58	5727.29
426.77	6754.79
426.96	8774.67
427.15	7173.74
427.33	5942.62
427.52	6576.91
427.71	6672.87
427.90	7026.29
428.09	5951.98
428.28	5181.95
428.46	6059.65
428.65	7602.06
428.84	8344.01
429.03	9937.91
429.22	5722.61
429.40	4924.49
429.59	4765.33
429.78	10675.18
429.97	6040.92
430.16	5378.55
430.34	5872.40
430.53	5380.89
430.72	5907.51
430.91	8514.87
431.10	5125.77
431.28	6583.93
431.47	8329.97
431.66	7712.07
431.85	5947.30
432.03	6715.00
432.22	11800.98
432.41	6494.99
432.60	9291.93
432.79	5963.68
432.97	7124.59
433.16	6373.28
433.35	5516.64
433.54	6024.54
433.72	8002.29
433.91	8301.88
434.10	6003.47
434.28	7335.24
434.47	6258.59
434.66	8610.83
434.85	6286.68
435.03	7049.69
435.22	10452.83
435.41	10703.27
435.59	8575.72
435.78	7784.62
435.97	6450.52
436.16	9121.07
436.34	7026.29
436.53	7597.38
436.72	9399.59
436.90	8821.48
437.09	7934.42
437.28	7150.34
437.46	6487.96
437.65	8425.93
437.84	8344.01
438.02	7831.43
438.21	8236.35
438.40	6321.79
438.58	5680.48
438.77	7569.29
438.96	7562.27
439.14	6167.31
439.33	8755.94
439.52	6862.45
439.70	7225.23
439.89	9245.12
440.08	7768.24
440.26	7630.15
440.45	10672.84
440.63	8049.10
440.82	7812.71
441.01	7878.24
441.19	7234.60
441.38	7274.38
441.57	7339.92
441.75	10092.39
441.94	10155.58
442.12	7850.16
442.31	7433.54
442.50	7393.75
442.68	7258.00
442.87	7960.16
443.05	7246.30
443.24	8224.64
443.43	10565.18
443.61	10803.91
443.80	7946.12
443.98	7012.24
444.17	7307.15
444.35	9769.40
444.54	7485.03
444.73	7510.78
444.91	10565.18
445.10	6384.98
445.28	6586.27
445.47	8088.89
445.65	7602.06
445.84	6853.09
446.02	7932.08
446.21	7311.83
446.39	7110.55
446.58	8779.35
446.77	7194.81
446.95	7618.44
447.14	8781.69
447.32	11250.96
447.51	7918.03
447.69	8292.52
447.88	8198.90
448.06	11534.16
448.25	8814.46
448.43	6593.29
448.62	6509.03
448.80	9205.33
448.99	9680.46
449.17	7021.61
449.36	6977.14
449.54	10136.86
449.73	6963.09
449.91	9151.49
450.10	7578.65
450.28	13518.93
450.46	12573.36
450.65	10317.08
450.83	8997.02
451.02	7948.46
451.20	8325.29
451.39	7962.50
451.57	7822.07
451.76	7332.90
451.94	8208.26
452.13	9289.59
452.31	10427.09
452.49	8978.30
452.68	6490.31
452.86	8819.14
453.05	11875.88
453.23	8154.43
453.42	6525.41
453.60	7859.52
453.78	8835.52
453.97	6759.47
454.15	6555.84
454.34	7304.81
454.52	7206.51
454.70	11232.23
454.89	9600.88
455.07	7183.10
455.26	9200.65
455.44	9984.73
455.62	7735.47
455.81	8826.16
455.99	9296.61
456.17	9624.28
456.36	7962.50
456.54	7889.95
456.73	7784.62
456.91	7515.46
457.09	9083.62
457.28	10640.08
457.46	8280.82
457.64	10544.11
457.83	7873.56
458.01	7513.12
458.19	8678.71
458.38	7712.07
458.56	8966.59
458.74	6724.36
458.93	9137.45
459.11	8699.77
459.29	7339.92
459.48	9825.57
459.66	12123.98
459.84	10122.82
460.03	17408.90
460.21	10427.09
460.39	8292.52
460.57	11169.04
460.76	9107.02
460.94	8807.44
461.12	12154.40
461.31	11349.26
461.49	8503.17
461.67	7936.76
461.85	9149.15
462.04	8189.53
462.22	52868.02
462.40	9699.18
462.59	11133.93
462.77	7887.61
462.95	9181.92
463.13	7129.27
463.32	10668.16
463.50	9057.87
463.68	9696.84
463.86	8919.78
464.05	8042.08
464.23	11047.33
464.41	10010.47
464.59	7576.31
464.78	7929.74
464.96	7105.87
465.14	8982.98
465.32	7627.81
465.50	9966.00
465.69	10097.07
465.87	7260.34
466.05	9518.96
466.23	6949.05
466.41	8095.91
466.60	8173.15
466.78	8631.90
466.96	10668.16
467.14	9425.34
467.32	10958.39
467.51	9731.95
467.69	9928.55
467.87	12271.43
468.05	8608.49
468.23	12800.39
468.41	10569.86
468.60	8255.07
468.78	9352.78
468.96	11339.90
469.14	9954.30
469.32	6820.32
469.50	7232.26
469.69	9839.61
469.87	9029.79
470.05	8997.02
470.23	8568.70
470.41	7253.32
470.59	7770.58
470.77	9404.27
470.95	8772.33
471.14	11318.83
471.32	8592.11
471.50	12135.68
471.68	9090.64
471.86	9734.29
472.04	7801.01
472.22	9254.48
472.40	7033.31
472.58	8028.04
472.77	7351.62
472.95	8739.56
473.13	13261.48
473.31	11726.08
473.49	7447.58
473.67	7655.89
473.85	10555.82
474.03	10623.69
474.21	9254.48
474.39	12032.69
474.57	12737.20
474.75	9926.21
474.93	8231.66
475.12	7325.88
475.30	8344.01
475.48	9034.47
475.66	9294.27
475.84	8982.98
476.02	9025.11
476.20	10820.30
476.38	9364.48
476.56	15084.75
476.74	9149.15
476.92	8812.12
477.10	9350.44
477.28	11201.80
477.46	8889.35
477.64	10597.95
477.82	9699.18
478.00	9022.77
478.18	10073.67
478.36	9556.41
478.54	8334.65
478.72	8748.92
478.90	9404.27
479.08	10485.60
479.26	9991.75
479.44	9167.88
479.62	8372.10
479.80	8954.89
479.98	8346.35
480.16	8704.45
480.34	11613.74
480.52	8657.64
480.70	11021.58
480.88	8894.04
481.06	9046.17
481.24	9053.19
481.41	9425.34
481.59	11234.57
481.77	10401.34
481.95	9661.73
482.13	13245.09
482.31	10197.71
482.49	8994.68
482.67	11403.09
482.85	11854.81
483.03	11382.03
483.21	10843.70
483.39	9612.58
483.57	9919.19
483.74	13830.23
483.92	10333.47
484.10	9142.13
484.28	12514.84
484.46	16011.60
484.64	9933.23
484.82	10539.43
485.00	9668.75
485.18	10579.22
485.35	10623.69
485.53	7981.23
485.71	12318.24
485.89	7707.38
486.07	9125.75
486.25	15690.95
486.43	11456.92
486.61	11850.13
486.78	11726.08
486.96	8826.16
487.14	10384.96
487.32	10155.58
487.50	10108.77
487.68	12585.06
487.85	9806.84
488.03	12168.45
488.21	14235.14
488.39	10855.40
488.57	12182.49
488.75	10326.44
488.92	37509.43
489.10	11894.60
489.28	15880.53
489.46	10345.17
489.64	11637.14
489.81	11882.90
489.99	13151.47
490.17	11454.58
490.35	18668.11
490.53	11222.87
490.70	10345.17
490.88	13528.30
491.06	10944.34
491.24	12933.80
491.41	15063.69
491.59	12706.77
491.77	10193.03
491.95	10349.85
492.13	10757.10
492.30	12177.81
492.48	11604.38
492.66	11847.79
492.84	10904.56
493.01	12741.88
493.19	11035.63
493.37	16217.57
493.54	13511.91
493.72	13268.50
493.90	11730.76
494.08	11580.97
494.25	13710.86
494.43	13132.75
494.61	12133.34
494.79	11337.56
494.96	11185.42
495.14	13661.71
495.32	12320.58
495.49	13144.45
495.67	13373.82
495.85	12028.01
496.02	11641.82
496.20	14895.17
496.38	14066.62
496.55	12856.56
496.73	14143.86
496.91	11932.05
497.09	14773.46
497.26	12917.42
497.44	12886.99
497.62	12730.17
497.79	12847.20
497.97	13444.04
498.14	13947.25
498.32	13432.33
498.50	13851.29
498.67	12189.51
498.85	13350.42
499.03	12748.90
499.20	13305.95
499.38	13130.41
499.56	13039.12
499.73	17455.72
499.91	14913.89
500.08	14778.14
500.26	12765.28
500.44	11939.07
500.61	13685.11
500.79	12065.46
500.97	14487.92
501.14	16170.76
501.32	13228.71
501.49	16030.33
501.67	12781.67
501.84	14022.15
502.02	11583.31
502.20	17018.04
502.37	14293.65
502.55	12627.19
502.72	12964.23
502.90	15080.07
503.07	13624.26
503.25	14083.00
503.43	11286.06
503.60	12049.08
503.78	13359.78
503.95	12882.31
504.13	12112.27
504.30	14792.19
504.48	15695.63
504.65	16528.86
504.83	15002.83
505.01	12645.91
505.18	13809.16
505.36	13523.62
505.53	13479.15
505.71	12840.18
505.88	16851.86
506.06	13308.29
506.23	13554.04
506.41	12894.01
506.58	14511.32
506.76	14314.72
506.93	12966.57
507.11	14686.86
507.28	12086.53
507.46	12306.54
507.63	13944.91
507.81	12133.34
507.98	13212.32
508.16	13561.06
508.33	13984.70
508.50	15005.17
508.68	14005.77
508.85	14216.41
509.03	12870.61
509.20	13233.39
509.38	15143.27
509.55	16119.27
509.73	16397.79
509.90	16957.18
510.08	12830.82
510.25	15634.78
510.42	12706.77
510.60	13987.04
510.77	15978.84
510.95	16704.40
511.12	13441.70
511.30	15812.66
511.47	15749.46
511.64	18319.37
511.82	13912.14
511.99	13865.33
512.17	13696.82
512.34	12842.52
512.51	13355.10
512.69	13394.89
512.86	16961.86
513.04	12762.94
513.21	14588.56
513.38	13057.85
513.56	13221.69
513.73	13050.83
513.90	12315.90
514.08	12346.33
514.25	14553.45
514.43	14801.55
514.60	12477.40
514.77	13305.95
514.95	14703.25
515.12	12868.27
515.29	14956.02
515.47	14967.73
515.64	14450.47
515.81	14366.21
515.99	17530.61
516.16	15124.54
516.33	15583.29
516.51	12072.48
516.68	11075.42
516.85	12461.01
517.03	12585.06
517.20	15108.16
517.37	14890.49
517.54	15407.75
517.72	13036.78
517.89	11290.74
518.06	12042.06
518.24	18033.83
518.41	18127.45
518.58	15543.50
518.75	12751.24
518.93	14321.74
519.10	14368.55
519.27	13277.86
519.45	14541.75
519.62	14684.52
519.79	15658.18
519.96	12580.38
520.14	14846.02
520.31	17432.31
520.48	14291.31
520.65	14773.46
520.83	15939.05
521.00	15644.14
521.17	15330.51
521.34	13994.06
521.52	15199.44
521.69	14675.16
521.86	14796.87
522.03	16166.08
522.20	18333.42
522.38	13696.82
522.55	15007.52
522.72	12786.35
522.89	16280.77
523.07	19236.86
523.24	14544.09
523.41	14324.08
523.58	14001.08
523.75	14628.35
523.92	13921.51
524.10	15569.24
524.27	14721.97
524.44	14160.24
524.61	17743.60
524.78	14064.28
524.96	16369.71
525.13	15208.80
525.30	17476.78
525.47	17109.32
525.64	15131.56
525.81	15424.13
525.98	15180.71
526.16	13584.47
526.33	13142.11
526.50	12212.92
526.67	12215.26
526.84	12315.90
527.01	12744.22
527.18	15304.76
527.36	14757.08
527.53	13865.33
527.70	17240.39
527.87	14743.03
528.04	18913.87
528.21	13837.25
528.38	17535.29
528.55	17895.74
528.72	18434.06
528.89	20086.48
529.07	15316.47
529.24	15211.14
529.41	18728.97
529.58	15157.31
529.75	14272.59
529.92	16336.94
530.09	15131.56
530.26	17116.34
530.43	16137.99
530.60	15264.97
530.77	15367.96
530.94	16833.13
531.11	16428.22
531.28	14789.85
531.46	14160.24
531.63	15496.69
531.80	16016.29
531.97	16299.49
532.14	14675.16
532.31	15262.63
532.48	15438.17
532.65	15321.15
532.82	13121.04
532.99	14438.76
533.16	15094.11
533.33	15147.95
533.50	14717.29
533.67	13762.35
533.84	16304.17
534.01	15234.55
534.18	14656.43
534.35	15417.11
534.52	15726.06
534.69	20425.86
534.86	15199.44
535.03	14810.91
535.20	14871.76
535.37	17715.51
535.54	15831.38
535.71	15023.90
535.88	18693.86
536.05	14583.88
536.22	16201.19
536.38	14317.06
536.55	15410.09
536.72	17387.84
536.89	13455.74
537.06	13965.98
537.23	13891.08
537.40	14141.52
537.57	14129.81
537.74	16868.24
537.91	16566.31
538.08	14801.55
538.25	16339.28
538.42	14382.59
538.59	15630.10
538.75	14335.78
538.92	15346.89
539.09	16716.11
539.26	14366.21
539.43	18410.65
539.60	16439.92
539.77	17818.50
539.94	16589.72
540.11	16788.66
540.28	18513.64
540.44	18155.54
540.61	14663.46
540.78	14064.28
540.95	12919.76
541.12	18537.04
541.29	13687.45
541.46	18429.38
541.62	15704.99
541.79	13703.84
541.96	13418.29
542.13	14284.29
542.30	13474.46
542.47	16636.53
542.63	14345.14
542.80	15562.22
542.97	17383.16
543.14	14267.91
543.31	15852.45
543.48	14782.82
543.64	15822.02
543.81	15136.24
543.98	13837.25
544.15	13247.43
544.32	14391.95
544.48	14677.50
544.65	14281.95
544.82	13687.45
544.99	14368.55
545.16	17404.22
545.32	13771.71
545.49	15868.83
545.66	14820.27
545.83	13776.39
546.00	13142.11
546.16	14162.58
546.33	14214.07
546.50	14377.91
546.67	18050.21
546.83	16659.93
547.00	15126.88
547.17	13198.28
547.34	12994.65
547.50	14633.03
547.67	14558.13
547.84	13479.15
548.00	16297.15
548.17	13865.33
548.34	14101.73
548.51	18523.00
548.67	17249.75
548.84	14413.02
549.01	15426.47
549.18	15660.52
549.34	15587.97
549.51	15192.42
549.68	15697.97
549.84	14944.32
550.01	13296.58
550.18	24947.77
550.34	21436.97
550.51	15454.56
550.68	19611.35
550.84	13853.63
551.01	15075.39
551.18	16526.52
551.34	15073.05
551.51	14501.96
551.68	14829.63
551.84	16421.20
552.01	13769.37
552.18	14398.98
552.34	14923.26
552.51	14766.44
552.68	16360.34
552.84	14019.81
553.01	15309.44
553.18	16769.94
553.34	14354.51
553.51	12954.87
553.67	15908.62
553.84	19747.10
554.01	16313.53
554.17	16393.11
554.34	13605.53
554.51	15854.79
554.67	17453.37
554.84	16638.87
555.00	15742.44
555.17	15246.25
555.33	17027.40
555.50	15290.72
555.67	15892.24
555.83	13109.34
556.00	14946.66
556.16	32151.94
556.33	15300.08
556.50	14532.39
556.66	14590.90
556.83	13851.29
556.99	13668.73
557.16	14579.20
557.32	13729.58
557.49	13785.76
557.65	13523.62
557.82	13317.65
557.98	14473.87
558.15	13071.89
558.32	14019.81
558.48	13294.24
558.65	13589.15
558.81	15606.69
558.98	13324.67
559.14	15798.62
559.31	14586.22
559.47	15817.34
559.64	13245.09
559.80	16159.06
559.97	12692.73
560.13	14104.07
560.30	12711.45
560.46	13874.70
560.63	13982.36
560.79	14506.64
560.96	14864.74
561.12	12985.29
561.29	15293.06
561.45	13703.84
561.61	14204.71
561.78	22916.19
561.94	13720.22
562.11	13184.24
562.27	14651.75
562.44	12638.89
562.60	14099.39
562.77	13760.01
562.93	20446.92
563.10	14831.97
563.26	14153.22
563.42	16439.92
563.59	14586.22
563.75	12751.24
563.92	17181.87
564.08	14618.99
564.24	16145.02
564.41	18920.89
564.57	12191.85
564.74	12938.48
564.90	14506.64
565.07	15756.49
565.23	15566.90
565.39	13046.15
565.56	14890.49
565.72	12559.31
565.88	13132.75
566.05	12971.25
566.21	12980.61
566.38	15059.01
566.54	14293.65
566.70	13479.15
566.87	13156.15
567.03	11901.62
567.19	13996.40
567.36	15019.22
567.52	13043.81
567.68	14670.48
567.85	14831.97
568.01	12938.48
568.17	11426.50
568.34	13092.96
568.50	16395.45
568.66	11737.79
568.83	20648.21
568.99	12126.32
569.15	17034.42
569.32	12945.50
569.48	12898.69
569.64	12006.95
569.81	13179.56
569.97	12432.93
570.13	14801.55
570.30	12863.58
570.46	12772.30
570.62	12451.65
570.78	12830.82
570.95	11171.38
571.11	17184.21
571.27	17104.64
571.43	11648.85
571.60	14960.70
571.76	12271.43
571.92	13437.02
572.09	12753.58
572.25	12982.95
572.41	13696.82
572.57	12884.65
572.74	17788.07
572.90	14834.32
573.06	15220.50
573.22	14672.82
573.38	15754.15
573.55	15204.12
573.71	15625.42
573.87	14705.59
574.03	12002.27
574.20	12566.34
574.36	15651.16
574.52	12561.66
574.68	12287.81
574.84	14293.65
575.01	12762.94
575.17	14403.66
575.33	12299.52
575.49	15178.37
575.65	15330.51
575.82	15159.65
575.98	18909.19
576.14	13818.52
576.30	13336.37
576.46	13352.76
576.62	13977.68
576.79	14207.05
576.95	16264.38
577.11	12028.01
577.27	11442.88
577.43	16116.93
577.59	16388.43
577.75	14462.17
577.92	12505.48
578.08	12287.81
578.24	11578.63
578.40	15487.32
578.56	15939.05
578.72	16414.18
578.88	14803.89
579.04	12596.76
579.21	13926.19
579.37	12938.48
579.53	12699.75
579.69	15454.56
579.85	11578.63
580.01	14462.17
580.17	12245.68
580.33	12496.12
580.49	13481.49
580.65	13956.61
580.82	13429.99
580.98	12208.23
581.14	12259.73
581.30	16049.05
581.46	13621.92
581.62	16053.73
581.78	12725.49
581.94	14977.09
582.10	11611.40
582.26	13039.12
582.42	12423.56
582.58	14448.13
582.74	12765.28
582.90	13949.59
583.06	14291.31
583.22	12554.63
583.38	12315.90
583.54	12233.98
583.70	16767.60
583.86	14185.99
584.02	13776.39
584.18	17357.41
584.34	13884.06
584.50	19145.58
584.66	49928.31
584.82	60790.73
584.98	65097.32
585.14	63838.11
585.30	59671.96
585.46	51447.32
585.62	34724.19
585.78	24046.66
585.94	18174.26
586.10	14675.16
586.26	14408.34
586.42	17724.88
586.58	14469.19
586.74	13282.54
586.90	13345.73
587.06	13973.00
587.22	13554.04
587.38	11351.60
587.54	13537.66
587.70	20381.38
587.86	22981.72
588.02	20397.77
588.18	19084.73
588.34	16683.34
588.49	11260.32
588.65	11875.88
588.81	11337.56
588.97	9013.40
589.13	10384.96
589.29	11293.08
589.45	13729.58
589.61	11379.68
589.77	14286.63
589.93	10967.75
590.08	10890.51
590.24	10300.70
590.40	11927.37
590.56	13507.23
590.72	11391.39
590.88	10237.50
591.04	12025.67
591.20	10869.45
591.35	15410.09
591.51	11508.41
591.67	9940.26
591.83	10846.04
591.99	13074.23
592.15	13488.51
592.31	12475.06
592.46	11721.40
592.62	13738.94
592.78	10944.34
592.94	10565.18
593.10	10733.70
593.26	10532.41
593.41	12973.59
593.57	11899.28
593.73	11250.96
593.89	17977.65
594.05	23335.14
594.20	26544.02
594.36	28561.56
594.52	20589.69
594.68	16402.47
594.84	17741.26
594.99	17195.92
595.15	13640.64
595.31	13785.76
595.47	15807.98
595.62	11508.41
595.78	11850.13
595.94	11503.73
596.10	14281.95
596.25	12379.09
596.41	13544.68
596.57	10733.70
596.73	10885.83
596.88	12306.54
597.04	14427.06
597.20	13806.82
597.36	15545.84
597.51	13579.79
597.67	12681.02
597.83	12226.96
597.99	14347.48
598.14	12414.20
598.30	14523.02
598.46	11325.85
598.61	14457.49
598.77	12725.49
598.93	10693.91
599.09	11845.45
599.24	12723.15
599.40	14518.34
599.56	12140.36
599.71	12142.70
599.87	11508.41
600.03	12180.15
600.18	11864.18
600.34	13324.67
600.50	11108.18
600.65	10286.65
600.81	14169.60
600.97	10888.17
601.12	11871.20
601.28	14754.74
601.44	12381.43
601.59	10834.34
601.75	12402.50
601.91	11274.36
602.06	13020.40
602.22	20086.48
602.37	14181.31
602.53	14214.07
602.69	17771.69
602.84	14345.14
603.00	14820.27
603.16	15248.59
603.31	15126.88
603.47	13635.96
603.62	10359.21
603.78	12674.00
603.94	13011.04
604.09	12044.40
604.25	13689.79
604.40	13481.49
604.56	11346.92
604.71	12170.79
604.87	10555.82
605.03	11971.84
605.18	12608.47
605.34	14810.91
605.49	11941.41
605.65	11257.98
605.80	10043.24
605.96	12168.45
606.12	12943.16
606.27	14209.39
606.43	11974.18
606.58	13942.57
606.74	13186.58
606.89	18277.24
607.05	24961.81
607.20	26419.97
607.36	24339.23
607.51	18672.79
607.67	16664.61
607.82	15452.22
607.98	16664.61
608.13	13027.42
608.29	11779.92
608.44	14719.63
608.60	12437.61
608.75	15138.58
608.91	15164.33
609.06	23775.16
609.22	32456.21
609.37	35838.28
609.53	32327.48
609.68	25476.73
609.84	18970.04
609.99	16065.44
610.15	16004.58
610.30	13872.36
610.46	14815.59
610.61	12905.71
610.76	11756.51
610.92	13055.51
611.07	10534.75
611.23	18005.74
611.38	13942.57
611.54	10368.57
611.69	10445.81
611.84	11213.51
612.00	10700.93
612.15	10532.41
612.31	11150.31
612.46	11239.25
612.62	10207.08
612.77	14703.25
612.92	13418.29
613.08	15047.30
613.23	12814.43
613.39	11639.48
613.54	11208.83
613.69	19482.62
613.85	34866.96
614.00	45797.26
614.15	48463.13
614.31	37134.94
614.46	30707.83
614.62	22199.98
614.77	21191.21
614.92	12788.69
615.08	13404.25
615.23	12699.75
615.38	11826.73
615.54	10890.51
615.69	12346.33
615.84	14164.92
616.00	19204.10
616.15	19840.72
616.30	18951.32
616.46	16606.10
616.61	13043.81
616.76	14230.46
616.92	12159.08
617.07	10616.67
617.22	10356.87
617.37	10619.01
617.53	11728.42
617.68	11007.54
617.83	10913.92
617.99	13881.72
618.14	15269.66
618.29	13614.90
618.45	11246.27
618.60	10611.99
618.75	10029.20
618.90	9121.07
619.06	11618.42
619.21	15555.20
619.36	13996.40
619.51	10078.35
619.67	10167.29
619.82	10143.88
619.97	11580.97
620.12	12287.81
620.28	11747.15
620.43	10911.58
620.58	12053.76
620.73	11679.27
620.89	11281.38
621.04	12191.85
621.19	17666.36
621.34	14853.04
621.49	15541.16
621.65	16898.67
621.80	12772.30
621.95	12407.18
622.10	13605.53
622.25	9495.55
622.41	9577.47
622.56	10895.19
622.71	11220.53
622.86	12938.48
623.01	10604.97
623.16	13919.17
623.32	9266.18
623.47	11557.57
623.62	10345.17
623.77	10700.93
623.92	10251.55
624.07	9879.40
624.23	10314.74
624.38	9296.61
624.53	10658.80
624.68	12175.47
624.83	13858.31
624.98	11272.02
625.13	9797.48
625.29	9156.18
625.44	10209.42
625.59	10754.76
625.74	11782.26
625.89	13261.48
626.04	13406.59
626.19	22022.10
626.34	27908.55
626.49	31819.58
626.65	23616.01
626.80	19410.06
626.95	17703.81
627.10	12674.00
627.25	12107.59
627.40	9605.56
627.55	11569.27
627.70	9135.11
627.85	11552.88
628.00	9736.63
628.15	9116.39
628.30	10253.89
628.45	8697.43
628.60	9591.52
628.76	10164.95
628.91	9142.13
629.06	10363.89
629.21	9418.32
629.36	12245.68
629.51	7990.59
629.66	10579.22
629.81	9366.82
629.96	12786.35
630.11	15632.44
630.26	15756.49
630.41	13818.52
630.56	13811.50
630.71	9900.47
630.86	10476.24
631.01	8940.85
631.16	9549.39
631.31	13341.05
631.46	12657.62
631.61	9640.67
631.76	10623.69
631.91	9514.28
632.06	11506.07
632.21	11208.83
632.36	11262.66
632.51	9170.22
632.66	9750.67
632.81	11250.96
632.96	16945.48
633.10	22008.06
633.25	28091.11
633.40	21507.18
633.55	17956.59
633.70	14209.39
633.85	13118.70
634.00	9497.89
634.15	9497.89
634.30	10754.76
634.45	10298.36
634.60	9603.22
634.75	8241.03
634.90	8716.16
635.05	10118.14
635.19	9968.34
635.34	9364.48
635.49	10930.30
635.64	9160.86
635.79	9015.74
635.94	10984.13
636.09	11859.49
636.24	10768.80
636.39	9483.85
636.53	11485.01
636.68	8643.60
636.83	9975.36
636.98	12645.91
637.13	8667.00
637.28	10710.29
637.43	13635.96
637.57	11679.27
637.72	19096.43
637.87	26967.65
638.02	32540.47
638.17	35150.17
638.32	29078.82
638.46	22120.40
638.61	22595.53
638.76	13525.96
638.91	10855.40
639.06	9064.89
639.20	13366.80
639.35	11758.85
639.50	10553.48
639.65	24095.82
639.80	34061.82
639.94	47510.53
640.09	48243.12
640.24	40720.64
640.39	30143.76
640.54	23751.76
640.68	17319.96
640.83	15468.60
640.98	10335.81
641.13	9593.86
641.27	8620.19
641.42	8905.74
641.57	12159.08
641.72	9778.76
641.86	9441.72
642.01	9008.72
642.16	11789.28
642.31	9036.81
642.45	13350.42
642.60	12170.79
642.75	8397.84
642.90	11412.45
643.04	8444.65
643.19	8571.04
643.34	9245.12
643.48	9757.69
643.63	8879.99
643.78	12608.47
643.93	13282.54
644.07	9401.93
644.22	8720.84
644.37	7482.69
644.51	11007.54
644.66	10312.40
644.81	8788.71
644.95	11878.22
645.10	8231.66
645.25	7857.18
645.39	11627.78
645.54	8170.81
645.69	13006.36
645.83	7330.56
645.98	14878.79
646.13	7911.01
646.27	10841.36
646.42	7234.60
646.57	7866.54
646.71	8044.42
646.86	7836.11
647.00	8896.38
647.15	10473.90
647.30	7213.53
647.44	7964.84
647.59	7005.22
647.74	6548.82
647.88	9390.23
648.03	6459.88
648.17	10672.84
648.32	6794.58
648.47	9563.43
648.61	8250.39
648.76	7595.04
648.90	7740.15
649.05	8423.59
649.20	7169.06
649.34	7176.08
649.49	7026.29
649.63	8985.32
649.78	8119.32
649.92	8652.96
650.07	13151.47
650.21	18513.64
650.36	27810.25
650.51	27908.55
650.65	29532.88
650.80	20250.32
650.94	15482.64
651.09	12840.18
651.23	9816.21
651.38	8524.23
651.52	8063.15
651.67	8166.13
651.81	9359.80
651.96	11906.31
652.10	10855.40
652.25	8683.39
652.39	10209.42
652.54	9514.28
652.68	10064.30
652.83	13472.12
652.97	14883.47
653.12	17434.65
653.26	13977.68
653.41	14941.98
653.55	12491.44
653.70	9320.01
653.84	8835.52
653.99	8772.33
654.13	7335.24
654.27	8659.98
654.42	7817.39
654.56	8273.79
654.71	10736.04
654.85	6974.80
655.00	7037.99
655.14	7920.37
655.29	6616.69
655.43	9848.97
655.57	8304.22
655.72	6406.05
655.86	8936.17
656.01	8383.80
656.15	7192.47
656.30	11648.85
656.44	7026.29
656.58	6375.62
656.73	7913.35
656.87	6862.45
657.01	7850.16
657.16	12236.32
657.30	9776.42
657.45	12032.69
657.59	8688.07
657.73	6979.48
657.88	8402.52
658.02	15693.29
658.16	7782.28
658.31	8273.79
658.45	7887.61
658.60	6403.71
658.74	8526.57
658.88	7157.36
659.03	7445.24
659.17	7368.01
659.31	8458.70
659.46	12564.00
659.60	17607.85
659.74	18204.69
659.89	16858.88
660.03	14572.18
660.17	17099.95
660.32	12290.15
660.46	10881.15
660.60	8861.27
660.74	10143.88
660.89	8858.93
661.03	6752.45
661.17	7435.88
661.32	7709.72
661.46	8234.00
661.60	7698.02
661.74	9521.30
661.89	10719.65
662.03	9420.66
662.17	7581.00
662.31	9022.77
662.46	9528.32
662.60	8968.93
662.74	7674.62
662.88	9790.46
663.03	7695.68
663.17	6946.71
663.31	8692.75
663.45	8819.14
663.60	7555.25
663.74	6682.23
663.88	6017.52
664.02	8599.13
664.17	7035.65
664.31	7016.93
664.45	8479.76
664.59	7983.57
664.73	8039.74
664.88	10263.25
665.02	6888.20
665.16	7639.51
665.30	11761.19
665.44	8533.59
665.59	10752.42
665.73	8917.44
665.87	7950.80
666.01	8205.92
666.15	7183.10
666.29	6445.84
666.44	11407.77
666.58	13221.69
666.72	6829.68
666.86	7452.27
667.00	10146.22
667.14	8685.73
667.28	12664.64
667.43	17429.97
667.57	23616.01
667.71	27583.21
667.85	23494.30
667.99	20472.67
668.13	14530.05
668.27	13177.22
668.41	11602.04
668.56	8990.00
668.70	12004.61
668.84	7920.37
668.98	9195.96
669.12	6118.16
669.26	8557.00
669.40	14216.41
669.54	8697.43
669.68	10349.85
669.82	6923.30
669.96	8215.28
670.10	7939.10
670.25	9863.02
670.39	9558.75
670.53	7470.99
670.67	8950.21
670.81	6293.70
670.95	8966.59
671.09	8421.25
671.23	14663.46
671.37	17572.74
671.51	18726.63
671.65	20734.81
671.79	16133.31
671.93	14466.85
672.07	16786.32
672.21	11377.34
672.35	8552.32
672.49	7707.38
672.63	10134.52
672.77	8667.00
672.91	8769.99
673.05	7918.03
673.19	8306.56
673.33	6644.78
673.47	12659.96
673.61	8011.65
673.75	6698.61
673.89	6457.54
674.03	9174.90
674.17	7283.75
674.31	8376.78
674.45	9064.89
674.59	8386.14
674.73	7618.44
674.87	8978.30
675.01	9507.26
675.15	7368.01
675.29	10574.54
675.43	9909.83
675.56	12086.53
675.70	10827.32
675.84	7405.46
675.98	8552.32
676.12	5664.10
676.26	7424.18
676.40	5900.49
676.54	7384.39
676.68	6874.15
676.82	9839.61
676.96	6256.25
677.10	8383.80
677.23	6534.78
677.37	5989.43
677.51	7382.05
677.65	13455.74
677.79	6511.37
677.93	6380.30
678.07	6904.58
678.21	5865.38
678.34	6176.67
678.48	5891.13
678.62	8088.89
678.76	5327.06
678.90	7117.57
679.04	7562.27
679.18	6139.23
679.31	5797.51
679.45	5802.19
679.59	7822.07
679.73	7370.35
679.87	5362.17
680.00	7803.35
680.14	7721.43
680.28	8201.24
680.42	6642.44
680.56	8566.36
680.70	5989.43
680.83	7978.89
680.97	5844.32
681.11	6054.97
681.25	8816.80
681.39	6707.98
681.52	7850.16
681.66	7152.68
681.80	8439.97
681.94	5753.04
682.07	6567.54
682.21	7639.51
682.35	5563.45
682.49	5717.93
682.62	9069.58
682.76	5504.94
682.90	6693.93
683.04	7763.56
683.17	8088.89
683.31	6312.42
683.45	8545.30
683.59	9919.19
683.72	9081.28
683.86	7833.77
684.00	5898.15
684.13	9493.21
684.27	8425.93
684.41	7889.95
684.55	6890.54
684.68	6780.53
684.82	5640.69
684.96	6265.61
685.09	7115.23
685.23	5282.59
685.37	5689.84
685.50	8945.53
685.64	9177.24
685.78	5121.09
685.91	7974.21
686.05	9245.12
686.19	7258.00
686.32	6715.00
686.46	7066.08
686.60	3861.88
686.73	11531.82
686.87	8395.50
687.01	4468.08
687.14	4011.68
687.28	5055.56
687.42	5643.03
687.55	5701.54
687.69	9139.79
687.82	4851.93
687.96	5872.40
688.10	8706.79
688.23	5540.05
688.37	9591.52
688.50	7243.96
688.64	7190.13
688.78	4784.06
688.91	5294.29
689.05	5451.11
689.18	4273.82
689.32	5537.71
689.46	4961.94
689.59	6967.77
689.73	7892.29
689.86	4475.10
690.00	5614.95
690.13	5057.90
690.27	4585.11
690.41	6651.80
690.54	8070.17
690.68	6630.74
690.81	5579.84
690.95	6080.71
691.08	6670.53
691.22	5022.79
691.35	5572.82
691.49	4243.39
691.62	5600.90
691.76	4865.97
691.89	6253.91
692.03	4339.35
692.16	4208.28
692.30	6619.04
692.43	6911.60
692.57	8482.10
692.70	10223.46
692.84	14696.22
692.97	11599.70
693.11	9427.68
693.24	9097.66
693.38	6665.85
693.51	6715.00
693.65	8411.89
693.78	5502.60
693.92	4873.00
694.05	6733.72
694.19	4124.02
694.32	6228.17
694.45	4898.74
694.59	4730.22
694.72	5142.16
694.86	5242.80
694.99	6778.19
695.13	4835.55
695.26	5825.59
695.39	5509.62
695.53	10927.96
695.66	6122.84
695.80	7705.04
695.93	4638.94
696.07	5273.23
696.20	6310.08
696.33	4285.52
696.47	5327.06
696.60	5558.77
696.73	6436.47
696.87	4720.86
697.00	9687.48
697.14	5556.43
697.27	5872.40
697.40	11756.51
697.54	5078.96
697.67	6139.23
697.80	6375.62
697.94	4891.72
698.07	5865.38
698.21	4985.34
698.34	7248.64
698.47	4046.79
698.61	4322.97
698.74	4557.02
698.87	7606.74
699.01	5427.70
699.14	4648.30
699.27	6958.41
699.40	15882.88
699.54	4950.23
699.67	4276.16
699.80	4180.20
699.94	4332.33
700.07	4203.60
700.20	3772.94
700.34	5420.68
700.47	3358.67
700.60	4149.77
700.73	4968.96
700.87	8367.42
701.00	4737.24
701.13	4676.39
701.26	5533.03
701.40	5114.07
701.53	4414.25
701.66	3960.19
701.79	5188.97
701.93	5231.10
702.06	9303.63
702.19	5151.52
702.32	8411.89
702.46	5235.78
702.59	4547.66
702.72	4952.57
702.85	10452.83
702.99	14429.40
703.12	22387.22
703.25	20376.70
703.38	18094.68
703.51	18317.03
703.65	12053.76
703.78	10382.62
703.91	9563.43
704.04	9685.14
704.17	6420.09
704.31	4037.42
704.44	4329.99
704.57	5001.72
704.70	5423.02
704.83	5085.98
704.96	4961.94
705.10	5554.09
705.23	4727.88
>>>>>End Processed Spectral Data<<<<<
