SpectraSuite Data File
++++++++++++++++++++++++++++++++++++
Date: Fri Oct 04 11:33:55 GMT-05:00 2013
User: price-jones
Dark Spectrum Present: No
Reference Spectrum Present: No
Number of Sampled Component Spectra: 1
Spectrometers: USB2+H05261
Integration Time (usec): 100000 (USB2+H05261)
Spectra Averaged: 1 (USB2+H05261)
Boxcar Smoothing: 0 (USB2+H05261)
Correct for Electrical Dark: No (USB2+H05261)
Strobe/Lamp Enabled: No (USB2+H05261)
Correct for Detector Non-linearity: No (USB2+H05261)
Correct for Stray Light: No (USB2+H05261)
Number of Pixels in Processed Spectrum: 2048
>>>>>Begin Processed Spectral Data<<<<<
365.73	107.66
365.92	107.66
366.12	107.66
366.32	0.00
366.52	0.00
366.72	23.41
366.91	0.00
367.11	0.00
367.31	0.00
367.51	0.00
367.70	0.00
367.90	0.00
368.10	0.00
368.30	0.00
368.49	0.00
368.69	21.06
368.89	0.00
369.09	0.00
369.28	72.56
369.48	23.41
369.68	0.00
369.87	0.00
370.07	35.11
370.27	58.51
370.47	63.19
370.66	9.36
370.86	74.90
371.06	100.64
371.25	117.03
371.45	93.62
371.65	70.22
371.84	121.71
372.04	56.17
372.24	100.64
372.44	121.71
372.63	161.50
372.83	124.05
373.03	121.71
373.22	95.96
373.42	65.54
373.62	133.41
373.81	170.86
374.01	180.22
374.21	227.03
374.40	149.79
374.60	170.86
374.79	177.88
374.99	128.73
375.19	201.29
375.38	168.52
375.58	175.54
375.78	163.84
375.97	231.71
376.17	152.13
376.37	145.11
376.56	159.16
376.76	170.86
376.95	159.16
377.15	126.39
377.35	91.28
377.54	142.77
377.74	191.92
377.93	131.07
378.13	81.92
378.33	105.32
378.52	105.32
378.72	222.35
378.91	98.30
379.11	145.11
379.31	147.45
379.50	173.20
379.70	145.11
379.89	138.09
380.09	124.05
380.28	145.11
380.48	114.69
380.68	187.24
380.87	117.03
381.07	119.37
381.26	191.92
381.46	180.22
381.65	168.52
381.85	163.84
382.04	110.01
382.24	196.60
382.43	154.48
382.63	166.18
382.83	145.11
383.02	187.24
383.22	177.88
383.41	79.58
383.61	212.99
383.80	163.84
384.00	140.43
384.19	138.09
384.39	95.96
384.58	121.71
384.78	149.79
384.97	187.24
385.17	149.79
385.36	201.29
385.56	152.13
385.75	142.77
385.95	156.82
386.14	175.54
386.34	142.77
386.53	156.82
386.72	180.22
386.92	205.97
387.11	147.45
387.31	124.05
387.50	163.84
387.70	95.96
387.89	154.48
388.09	180.22
388.28	147.45
388.48	79.58
388.67	142.77
388.86	168.52
389.06	161.50
389.25	117.03
389.45	91.28
389.64	128.73
389.84	203.63
390.03	210.65
390.22	201.29
390.42	102.98
390.61	128.73
390.81	114.69
391.00	117.03
391.19	149.79
391.39	63.19
391.58	234.05
391.78	88.94
391.97	100.64
392.16	135.75
392.36	184.90
392.55	168.52
392.75	159.16
392.94	93.62
393.13	175.54
393.33	105.32
393.52	177.88
393.71	142.77
393.91	205.97
394.10	126.39
394.29	124.05
394.49	149.79
394.68	201.29
394.88	184.90
395.07	212.99
395.26	163.84
395.46	138.09
395.65	135.75
395.84	147.45
396.04	215.33
396.23	95.96
396.42	140.43
396.62	145.11
396.81	138.09
397.00	135.75
397.19	145.11
397.39	161.50
397.58	112.35
397.77	133.41
397.97	135.75
398.16	168.52
398.35	138.09
398.55	86.60
398.74	112.35
398.93	163.84
399.12	138.09
399.32	166.18
399.51	126.39
399.70	170.86
399.90	147.45
400.09	149.79
400.28	166.18
400.47	191.92
400.67	163.84
400.86	107.66
401.05	159.16
401.24	180.22
401.44	184.90
401.63	217.67
401.82	133.41
402.01	86.60
402.21	124.05
402.40	105.32
402.59	175.54
402.78	196.60
402.97	112.35
403.17	175.54
403.36	173.20
403.55	177.88
403.74	145.11
403.93	140.43
404.13	198.95
404.32	215.33
404.51	280.86
404.70	215.33
404.89	177.88
405.09	238.73
405.28	98.30
405.47	65.54
405.66	203.63
405.85	149.79
406.05	154.48
406.24	159.16
406.43	163.84
406.62	180.22
406.81	191.92
407.00	168.52
407.20	117.03
407.39	191.92
407.58	135.75
407.77	187.24
407.96	212.99
408.15	189.58
408.34	74.90
408.54	168.52
408.73	180.22
408.92	138.09
409.11	142.77
409.30	110.01
409.49	156.82
409.68	124.05
409.87	170.86
410.07	149.79
410.26	112.35
410.45	168.52
410.64	201.29
410.83	175.54
411.02	187.24
411.21	227.03
411.40	175.54
411.59	173.20
411.78	154.48
411.98	238.73
412.17	124.05
412.36	145.11
412.55	269.16
412.74	138.09
412.93	212.99
413.12	205.97
413.31	126.39
413.50	173.20
413.69	231.71
413.88	149.79
414.07	79.58
414.26	159.16
414.45	156.82
414.64	74.90
414.83	131.07
415.02	166.18
415.22	280.86
415.41	264.48
415.60	224.69
415.79	184.90
415.98	166.18
416.17	194.26
416.36	152.13
416.55	117.03
416.74	248.10
416.93	180.22
417.12	159.16
417.31	105.32
417.50	177.88
417.69	287.89
417.88	234.05
418.07	191.92
418.26	182.56
418.45	194.26
418.64	198.95
418.83	215.33
419.02	266.82
419.21	283.20
419.39	250.44
419.58	231.71
419.77	227.03
419.96	264.48
420.15	196.60
420.34	72.56
420.53	191.92
420.72	187.24
420.91	210.65
421.10	128.73
421.29	128.73
421.48	154.48
421.67	147.45
421.86	114.69
422.05	147.45
422.24	163.84
422.43	173.20
422.61	177.88
422.80	168.52
422.99	191.92
423.18	203.63
423.37	196.60
423.56	220.01
423.75	152.13
423.94	149.79
424.13	142.77
424.32	156.82
424.50	210.65
424.69	212.99
424.88	224.69
425.07	189.58
425.26	255.12
425.45	252.78
425.64	306.61
425.83	248.10
426.01	231.71
426.20	189.58
426.39	128.73
426.58	107.66
426.77	88.94
426.96	205.97
427.15	166.18
427.33	159.16
427.52	149.79
427.71	159.16
427.90	91.28
428.09	117.03
428.28	177.88
428.46	126.39
428.65	198.95
428.84	201.29
429.03	222.35
429.22	191.92
429.40	156.82
429.59	182.56
429.78	128.73
429.97	198.95
430.16	95.96
430.34	184.90
430.53	159.16
430.72	196.60
430.91	224.69
431.10	173.20
431.28	138.09
431.47	173.20
431.66	220.01
431.85	149.79
432.03	212.99
432.22	259.80
432.41	180.22
432.60	271.50
432.79	205.97
432.97	252.78
433.16	348.74
433.35	266.82
433.54	205.97
433.72	220.01
433.91	252.78
434.10	205.97
434.28	294.91
434.47	126.39
434.66	131.07
434.85	177.88
435.03	184.90
435.22	311.29
435.41	383.85
435.59	381.51
435.78	250.44
435.97	236.39
436.16	212.99
436.34	119.37
436.53	184.90
436.72	131.07
436.90	147.45
437.09	177.88
437.28	135.75
437.46	100.64
437.65	208.31
437.84	212.99
438.02	194.26
438.21	201.29
438.40	182.56
438.58	114.69
438.77	128.73
438.96	187.24
439.14	212.99
439.33	133.41
439.52	189.58
439.70	208.31
439.89	224.69
440.08	147.45
440.26	145.11
440.45	257.46
440.63	201.29
440.82	184.90
441.01	220.01
441.19	124.05
441.38	198.95
441.57	189.58
441.75	191.92
441.94	215.33
442.12	161.50
442.31	229.37
442.50	138.09
442.68	201.29
442.87	135.75
443.05	238.73
443.24	163.84
443.43	133.41
443.61	220.01
443.80	175.54
443.98	173.20
444.17	180.22
444.35	163.84
444.54	191.92
444.73	205.97
444.91	287.89
445.10	163.84
445.28	177.88
445.47	194.26
445.65	191.92
445.84	163.84
446.02	203.63
446.21	133.41
446.39	142.77
446.58	187.24
446.77	126.39
446.95	168.52
447.14	133.41
447.32	180.22
447.51	264.48
447.69	234.05
447.88	187.24
448.06	224.69
448.25	259.80
448.43	210.65
448.62	135.75
448.80	198.95
448.99	173.20
449.17	166.18
449.36	184.90
449.54	194.26
449.73	175.54
449.91	224.69
450.10	271.50
450.28	264.48
450.46	241.08
450.65	215.33
450.83	205.97
451.02	187.24
451.20	201.29
451.39	159.16
451.57	145.11
451.76	135.75
451.94	220.01
452.13	131.07
452.31	173.20
452.49	170.86
452.68	208.31
452.86	229.37
453.05	210.65
453.23	196.60
453.42	196.60
453.60	182.56
453.78	161.50
453.97	159.16
454.15	184.90
454.34	222.35
454.52	163.84
454.70	252.78
454.89	194.26
455.07	145.11
455.26	241.08
455.44	196.60
455.62	145.11
455.81	257.46
455.99	177.88
456.17	238.73
456.36	196.60
456.54	166.18
456.73	126.39
456.91	124.05
457.09	217.67
457.28	145.11
457.46	238.73
457.64	212.99
457.83	142.77
458.01	198.95
458.19	212.99
458.38	180.22
458.56	112.35
458.74	205.97
458.93	201.29
459.11	220.01
459.29	161.50
459.48	168.52
459.66	231.71
459.84	152.13
460.03	229.37
460.21	156.82
460.39	187.24
460.57	201.29
460.76	166.18
460.94	198.95
461.12	205.97
461.31	224.69
461.49	238.73
461.67	227.03
461.85	180.22
462.04	156.82
462.22	671.73
462.40	229.37
462.59	133.41
462.77	154.48
462.95	191.92
463.13	135.75
463.32	203.63
463.50	175.54
463.68	234.05
463.86	147.45
464.05	142.77
464.23	196.60
464.41	154.48
464.59	175.54
464.78	224.69
464.96	142.77
465.14	147.45
465.32	220.01
465.50	201.29
465.69	184.90
465.87	149.79
466.05	217.67
466.23	177.88
466.41	208.31
466.60	276.18
466.78	208.31
466.96	194.26
467.14	222.35
467.32	201.29
467.51	198.95
467.69	205.97
467.87	191.92
468.05	182.56
468.23	278.52
468.41	212.99
468.60	236.39
468.78	161.50
468.96	248.10
469.14	133.41
469.32	173.20
469.50	117.03
469.69	215.33
469.87	264.48
470.05	250.44
470.23	210.65
470.41	128.73
470.59	210.65
470.77	220.01
470.95	220.01
471.14	184.90
471.32	224.69
471.50	194.26
471.68	243.42
471.86	142.77
472.04	152.13
472.22	210.65
472.40	215.33
472.58	159.16
472.77	243.42
472.95	252.78
473.13	236.39
473.31	257.46
473.49	173.20
473.67	238.73
473.85	163.84
474.03	208.31
474.21	259.80
474.39	173.20
474.57	198.95
474.75	147.45
474.93	170.86
475.12	81.92
475.30	196.60
475.48	147.45
475.66	248.10
475.84	259.80
476.02	194.26
476.20	222.35
476.38	210.65
476.56	210.65
476.74	166.18
476.92	278.52
477.10	166.18
477.28	194.26
477.46	173.20
477.64	229.37
477.82	159.16
478.00	224.69
478.18	264.48
478.36	180.22
478.54	238.73
478.72	210.65
478.90	241.08
479.08	147.45
479.26	278.52
479.44	166.18
479.62	98.30
479.80	238.73
479.98	257.46
480.16	191.92
480.34	234.05
480.52	201.29
480.70	208.31
480.88	175.54
481.06	154.48
481.24	262.14
481.41	201.29
481.59	220.01
481.77	222.35
481.95	180.22
482.13	280.86
482.31	266.82
482.49	220.01
482.67	205.97
482.85	236.39
483.03	210.65
483.21	264.48
483.39	227.03
483.57	222.35
483.74	292.57
483.92	245.76
484.10	215.33
484.28	252.78
484.46	264.48
484.64	205.97
484.82	252.78
485.00	252.78
485.18	269.16
485.35	304.27
485.53	220.01
485.71	276.18
485.89	294.91
486.07	273.84
486.25	271.50
486.43	280.86
486.61	264.48
486.78	250.44
486.96	156.82
487.14	248.10
487.32	210.65
487.50	255.12
487.68	283.20
487.85	220.01
488.03	224.69
488.21	241.08
488.39	189.58
488.57	266.82
488.75	194.26
488.92	463.43
489.10	278.52
489.28	292.57
489.46	264.48
489.64	255.12
489.81	231.71
489.99	320.65
490.17	255.12
490.35	276.18
490.53	229.37
490.70	245.76
490.88	217.67
491.06	217.67
491.24	224.69
491.41	297.25
491.59	278.52
491.77	266.82
491.95	269.16
492.13	220.01
492.30	173.20
492.48	245.76
492.66	283.20
492.84	229.37
493.01	241.08
493.19	224.69
493.37	222.35
493.54	245.76
493.72	227.03
493.90	292.57
494.08	262.14
494.25	250.44
494.43	292.57
494.61	262.14
494.79	215.33
494.96	292.57
495.14	276.18
495.32	255.12
495.49	262.14
495.67	194.26
495.85	238.73
496.02	269.16
496.20	238.73
496.38	243.42
496.55	201.29
496.73	290.23
496.91	285.55
497.09	318.31
497.26	278.52
497.44	278.52
497.62	220.01
497.79	283.20
497.97	252.78
498.14	245.76
498.32	304.27
498.50	292.57
498.67	257.46
498.85	189.58
499.03	229.37
499.20	215.33
499.38	238.73
499.56	255.12
499.73	332.36
499.91	278.52
500.08	271.50
500.26	217.67
500.44	262.14
500.61	292.57
500.79	252.78
500.97	191.92
501.14	222.35
501.32	184.90
501.49	259.80
501.67	255.12
501.84	264.48
502.02	266.82
502.20	348.74
502.37	287.89
502.55	227.03
502.72	220.01
502.90	299.59
503.07	257.46
503.25	259.80
503.43	264.48
503.60	236.39
503.78	177.88
503.95	243.42
504.13	205.97
504.30	262.14
504.48	294.91
504.65	269.16
504.83	271.50
505.01	278.52
505.18	196.60
505.36	252.78
505.53	227.03
505.71	283.20
505.88	283.20
506.06	217.67
506.23	257.46
506.41	259.80
506.58	220.01
506.76	311.29
506.93	283.20
507.11	271.50
507.28	346.40
507.46	159.16
507.63	287.89
507.81	292.57
507.98	259.80
508.16	252.78
508.33	294.91
508.50	257.46
508.68	231.71
508.85	278.52
509.03	297.25
509.20	250.44
509.38	297.25
509.55	224.69
509.73	203.63
509.90	170.86
510.08	182.56
510.25	222.35
510.42	238.73
510.60	227.03
510.77	205.97
510.95	330.02
511.12	285.55
511.30	346.40
511.47	367.46
511.64	353.42
511.82	304.27
511.99	304.27
512.17	290.23
512.34	259.80
512.51	266.82
512.69	259.80
512.86	252.78
513.04	297.25
513.21	269.16
513.38	273.84
513.56	205.97
513.73	243.42
513.90	255.12
514.08	252.78
514.25	306.61
514.43	266.82
514.60	287.89
514.77	248.10
514.95	236.39
515.12	220.01
515.29	234.05
515.47	266.82
515.64	313.63
515.81	243.42
515.99	315.97
516.16	292.57
516.33	266.82
516.51	175.54
516.68	196.60
516.85	266.82
517.03	290.23
517.20	266.82
517.37	311.29
517.54	259.80
517.72	276.18
517.89	196.60
518.06	280.86
518.24	306.61
518.41	358.10
518.58	313.63
518.75	285.55
518.93	227.03
519.10	290.23
519.27	203.63
519.45	273.84
519.62	236.39
519.79	315.97
519.96	166.18
520.14	269.16
520.31	304.27
520.48	245.76
520.65	283.20
520.83	332.36
521.00	409.59
521.17	339.38
521.34	290.23
521.52	285.55
521.69	287.89
521.86	341.72
522.03	278.52
522.20	301.93
522.38	311.29
522.55	248.10
522.72	210.65
522.89	332.36
523.07	278.52
523.24	243.42
523.41	280.86
523.58	271.50
523.75	259.80
523.92	196.60
524.10	337.04
524.27	299.59
524.44	315.97
524.61	292.57
524.78	273.84
524.96	257.46
525.13	318.31
525.30	308.95
525.47	308.95
525.64	229.37
525.81	259.80
525.98	339.38
526.16	285.55
526.33	238.73
526.50	229.37
526.67	290.23
526.84	262.14
527.01	266.82
527.18	259.80
527.36	290.23
527.53	238.73
527.70	301.93
527.87	243.42
528.04	285.55
528.21	327.68
528.38	292.57
528.55	346.40
528.72	325.33
528.89	285.55
529.07	299.59
529.24	231.71
529.41	276.18
529.58	322.99
529.75	243.42
529.92	203.63
530.09	301.93
530.26	304.27
530.43	238.73
530.60	365.12
530.77	304.27
530.94	264.48
531.11	346.40
531.28	217.67
531.46	212.99
531.63	315.97
531.80	271.50
531.97	301.93
532.14	287.89
532.31	278.52
532.48	280.86
532.65	430.66
532.82	451.72
532.99	454.06
533.16	416.62
533.33	353.42
533.50	273.84
533.67	414.27
533.84	428.32
534.01	524.28
534.18	365.12
534.35	402.57
534.52	285.55
534.69	376.83
534.86	222.35
535.03	318.31
535.20	327.68
535.37	346.40
535.54	327.68
535.71	351.08
535.88	262.14
536.05	271.50
536.22	271.50
536.38	255.12
536.55	220.01
536.72	351.08
536.89	315.97
537.06	280.86
537.23	266.82
537.40	271.50
537.57	362.78
537.74	322.99
537.91	355.76
538.08	320.65
538.25	372.15
538.42	238.73
538.59	255.12
538.75	280.86
538.92	332.36
539.09	360.44
539.26	381.51
539.43	622.58
539.60	1273.25
539.77	1867.75
539.94	1760.08
540.11	1310.70
540.28	903.45
540.44	624.92
540.61	524.28
540.78	355.76
540.95	447.04
541.12	533.64
541.29	489.17
541.46	638.97
541.62	531.30
541.79	454.06
541.96	465.77
542.13	486.83
542.30	402.57
542.47	428.32
542.63	461.09
542.80	503.22
542.97	498.53
543.14	475.13
543.31	535.98
543.48	447.04
543.64	491.51
543.81	510.24
543.98	465.77
544.15	493.85
544.32	505.56
544.48	425.98
544.65	433.00
544.82	498.53
544.99	411.93
545.16	456.40
545.32	519.60
545.49	704.50
545.66	812.17
545.83	851.96
546.00	781.74
546.16	550.03
546.33	573.43
546.50	463.43
546.67	461.09
546.83	461.09
547.00	280.86
547.17	306.61
547.34	388.53
547.50	383.85
547.67	418.96
547.84	322.99
548.00	425.98
548.17	346.40
548.34	330.02
548.51	425.98
548.67	393.21
548.84	395.55
549.01	360.44
549.18	344.06
549.34	362.78
549.51	402.57
549.68	388.53
549.84	327.68
550.01	330.02
550.18	414.27
550.34	388.53
550.51	341.72
550.68	407.25
550.84	327.68
551.01	266.82
551.18	353.42
551.34	339.38
551.51	322.99
551.68	262.14
551.84	400.23
552.01	299.59
552.18	318.31
552.34	365.12
552.51	330.02
552.68	369.80
552.84	334.70
553.01	318.31
553.18	379.17
553.34	269.16
553.51	236.39
553.67	283.20
553.84	330.02
554.01	280.86
554.17	273.84
554.34	271.50
554.51	285.55
554.67	301.93
554.84	318.31
555.00	308.95
555.17	264.48
555.33	285.55
555.50	280.86
555.67	313.63
555.83	306.61
556.00	311.29
556.16	407.25
556.33	341.72
556.50	241.08
556.66	234.05
556.83	280.86
556.99	273.84
557.16	269.16
557.32	290.23
557.49	262.14
557.65	259.80
557.82	315.97
557.98	292.57
558.15	266.82
558.32	212.99
558.48	306.61
558.65	262.14
558.81	255.12
558.98	224.69
559.14	248.10
559.31	285.55
559.47	259.80
559.64	271.50
559.80	292.57
559.97	252.78
560.13	280.86
560.30	252.78
560.46	311.29
560.63	273.84
560.79	290.23
560.96	278.52
561.12	238.73
561.29	276.18
561.45	238.73
561.61	257.46
561.78	290.23
561.94	285.55
562.11	234.05
562.27	198.95
562.44	241.08
562.60	252.78
562.77	353.42
562.93	339.38
563.10	255.12
563.26	276.18
563.42	266.82
563.59	262.14
563.75	271.50
563.92	290.23
564.08	238.73
564.24	299.59
564.41	320.65
564.57	248.10
564.74	196.60
564.90	255.12
565.07	320.65
565.23	285.55
565.39	308.95
565.56	301.93
565.72	271.50
565.88	290.23
566.05	320.65
566.21	301.93
566.38	280.86
566.54	255.12
566.70	346.40
566.87	243.42
567.03	208.31
567.19	245.76
567.36	346.40
567.52	304.27
567.68	257.46
567.85	227.03
568.01	259.80
568.17	262.14
568.34	236.39
568.50	330.02
568.66	273.84
568.83	318.31
568.99	330.02
569.15	262.14
569.32	203.63
569.48	250.44
569.64	297.25
569.81	301.93
569.97	152.13
570.13	334.70
570.30	283.20
570.46	222.35
570.62	250.44
570.78	229.37
570.95	269.16
571.11	264.48
571.27	311.29
571.43	215.33
571.60	362.78
571.76	294.91
571.92	220.01
572.09	198.95
572.25	234.05
572.41	299.59
572.57	278.52
572.74	271.50
572.90	306.61
573.06	339.38
573.22	276.18
573.38	283.20
573.55	322.99
573.71	334.70
573.87	287.89
574.03	241.08
574.20	285.55
574.36	337.04
574.52	346.40
574.68	463.43
574.84	435.34
575.01	353.42
575.17	313.63
575.33	271.50
575.49	264.48
575.65	334.70
575.82	517.26
575.98	645.99
576.14	798.12
576.30	800.46
576.46	688.12
576.62	641.31
576.79	538.32
576.95	496.19
577.11	367.46
577.27	285.55
577.43	362.78
577.59	304.27
577.75	381.51
577.92	334.70
578.08	411.93
578.24	280.86
578.40	341.72
578.56	400.23
578.72	477.47
578.88	437.68
579.04	407.25
579.21	372.15
579.37	402.57
579.53	255.12
579.69	369.80
579.85	423.64
580.01	498.53
580.17	510.24
580.33	514.92
580.49	433.00
580.65	379.17
580.82	402.57
580.98	400.23
581.14	348.74
581.30	390.87
581.46	423.64
581.62	657.69
581.78	730.25
581.94	748.97
582.10	613.22
582.26	568.75
582.42	482.15
582.58	650.67
582.74	531.30
582.90	571.09
583.06	538.32
583.22	601.52
583.38	580.45
583.54	655.35
583.70	760.67
583.86	807.48
584.02	861.32
584.18	1055.58
584.34	1500.28
584.50	3506.12
584.66	26899.78
584.82	59278.75
584.98	65535.00
585.14	65535.00
585.30	53497.62
585.46	33661.58
585.62	20423.51
585.78	9668.75
585.94	3777.62
586.10	1802.21
586.26	1177.29
586.42	964.30
586.58	910.47
586.74	763.01
586.90	697.48
587.06	746.63
587.22	685.78
587.38	711.52
587.54	1420.71
587.70	4100.62
587.86	6441.15
588.02	7126.93
588.18	5177.26
588.34	3297.81
588.49	2071.37
588.65	1394.96
588.81	730.25
588.97	484.49
589.13	447.04
589.29	393.21
589.45	416.62
589.61	400.23
589.77	486.83
589.93	505.56
590.08	585.13
590.24	533.64
590.40	533.64
590.56	491.51
590.72	381.51
590.88	440.02
591.04	451.72
591.20	395.55
591.35	397.89
591.51	458.74
591.67	358.10
591.83	393.21
591.99	437.68
592.15	414.27
592.31	311.29
592.46	334.70
592.62	376.83
592.78	355.76
592.94	362.78
593.10	435.34
593.26	428.32
593.41	386.19
593.57	559.39
593.73	643.65
593.89	3159.72
594.05	8313.58
594.20	12266.75
594.36	11730.76
594.52	7782.28
594.68	4847.25
594.84	3185.47
594.99	1844.34
595.15	936.21
595.31	568.75
595.47	493.85
595.62	390.87
595.78	379.17
595.94	393.21
596.10	414.27
596.25	416.62
596.41	423.64
596.57	421.30
596.73	390.87
596.88	552.37
597.04	1591.56
597.20	2635.44
597.36	3141.00
597.51	2307.77
597.67	1671.14
597.83	1144.52
597.99	915.15
598.14	461.09
598.30	463.43
598.46	381.51
598.61	425.98
598.77	475.13
598.93	372.15
599.09	393.21
599.24	362.78
599.40	393.21
599.56	339.38
599.71	311.29
599.87	397.89
600.03	411.93
600.18	332.36
600.34	308.95
600.50	212.99
600.65	306.61
600.81	374.49
600.97	238.73
601.12	339.38
601.28	320.65
601.44	297.25
601.59	290.23
601.75	348.74
601.91	353.42
602.06	313.63
602.22	433.00
602.37	816.85
602.53	1884.13
602.69	2998.23
602.84	3255.69
603.00	2368.62
603.16	1647.74
603.31	1163.25
603.47	884.72
603.62	374.49
603.78	374.49
603.94	332.36
604.09	353.42
604.25	369.80
604.40	322.99
604.56	365.12
604.71	259.80
604.87	358.10
605.03	425.98
605.18	334.70
605.34	376.83
605.49	362.78
605.65	395.55
605.80	346.40
605.96	348.74
606.12	430.66
606.27	374.49
606.43	411.93
606.58	491.51
606.74	1011.11
606.89	3960.19
607.05	7810.37
607.20	10593.26
607.36	8788.71
607.51	5713.25
607.67	3920.40
607.82	2562.89
607.98	1411.34
608.13	847.27
608.29	608.54
608.44	531.30
608.60	458.74
608.75	599.18
608.91	1397.30
609.06	5846.66
609.22	13401.91
609.37	18525.34
609.53	16191.83
609.68	10871.79
609.84	6981.82
609.99	4697.46
610.15	2663.53
610.30	1352.83
610.46	976.00
610.61	952.60
610.76	968.98
610.92	968.98
611.07	1004.09
611.23	1048.56
611.38	1029.84
611.54	924.51
611.69	763.01
611.84	772.38
612.00	594.50
612.15	641.31
612.31	690.46
612.46	919.83
612.62	1027.50
612.77	933.87
612.92	821.53
613.08	781.74
613.23	795.78
613.39	788.76
613.54	1050.90
613.69	5467.49
613.85	16397.79
614.00	26700.83
614.15	28718.37
614.31	20325.21
614.46	13280.20
614.62	8903.40
614.77	5308.34
614.92	2436.50
615.08	1224.10
615.23	844.93
615.38	664.71
615.54	627.26
615.69	1074.31
615.84	3262.71
616.00	5818.57
616.15	7714.41
616.30	6382.64
616.46	4397.87
616.61	2871.84
616.76	2019.88
616.92	1214.74
617.07	629.60
617.22	428.32
617.37	313.63
617.53	402.57
617.68	379.17
617.83	348.74
617.99	449.38
618.14	477.47
618.29	423.64
618.45	299.59
618.60	414.27
618.75	374.49
618.90	325.33
619.06	252.78
619.21	334.70
619.36	463.43
619.51	280.86
619.67	322.99
619.82	348.74
619.97	411.93
620.12	318.31
620.28	339.38
620.43	341.72
620.58	376.83
620.73	374.49
620.89	402.57
621.04	645.99
621.19	1832.64
621.34	3403.14
621.49	4320.63
621.65	3915.72
621.80	2895.24
621.95	1921.58
622.10	1383.26
622.25	781.74
622.41	486.83
622.56	423.64
622.71	337.04
622.86	428.32
623.01	320.65
623.16	383.85
623.32	320.65
623.47	362.78
623.62	320.65
623.77	362.78
623.92	339.38
624.07	327.68
624.23	332.36
624.38	285.55
624.53	271.50
624.68	369.80
624.83	362.78
624.98	376.83
625.13	252.78
625.29	344.06
625.44	430.66
625.59	388.53
625.74	449.38
625.89	681.10
626.04	2670.55
626.19	7920.37
626.34	12961.89
626.49	14963.04
626.65	10927.96
626.80	7311.83
626.95	5053.22
627.10	3110.57
627.25	1586.88
627.40	732.59
627.55	519.60
627.70	386.19
627.85	444.70
628.00	332.36
628.15	367.46
628.30	374.49
628.45	278.52
628.60	262.14
628.76	271.50
628.91	283.20
629.06	287.89
629.21	330.02
629.36	376.83
629.51	330.02
629.66	404.91
629.81	566.41
629.96	1469.86
630.11	2909.29
630.26	3648.90
630.41	3485.06
630.56	2473.95
630.71	1769.44
630.86	1238.14
631.01	805.14
631.16	517.26
631.31	393.21
631.46	334.70
631.61	348.74
631.76	322.99
631.91	280.86
632.06	304.27
632.21	304.27
632.36	332.36
632.51	411.93
632.66	543.00
632.81	1280.27
632.96	4388.50
633.10	8173.15
633.25	10003.45
633.40	7981.23
633.55	5813.89
633.70	3929.76
633.85	2595.65
634.00	1404.32
634.15	699.82
634.30	526.62
634.45	454.06
634.60	388.53
634.75	283.20
634.90	353.42
635.05	341.72
635.19	365.12
635.34	259.80
635.49	322.99
635.64	339.38
635.79	250.44
635.94	320.65
636.09	292.57
636.24	301.93
636.39	339.38
636.53	367.46
636.68	379.17
636.83	388.53
636.98	379.17
637.13	383.85
637.28	416.62
637.43	503.22
637.57	774.72
637.72	3592.72
637.87	10347.51
638.02	16868.24
638.17	19304.74
638.32	13949.59
638.46	9472.15
638.61	6317.11
638.76	3801.03
638.91	1914.56
639.06	1006.43
639.20	713.86
639.35	751.31
639.50	992.39
639.65	5348.12
639.80	15889.90
639.94	25668.66
640.09	29301.17
640.24	21469.73
640.39	14413.02
640.54	9418.32
640.68	5809.21
640.83	2813.32
640.98	1331.76
641.13	744.29
641.27	599.18
641.42	461.09
641.57	435.34
641.72	383.85
641.86	315.97
642.01	360.44
642.16	344.06
642.31	271.50
642.45	339.38
642.60	257.46
642.75	294.91
642.90	220.01
643.04	224.69
643.19	325.33
643.34	255.12
643.48	262.14
643.63	280.86
643.78	231.71
643.93	278.52
644.07	285.55
644.22	217.67
644.37	227.03
644.51	315.97
644.66	222.35
644.81	236.39
644.95	264.48
645.10	222.35
645.25	308.95
645.39	297.25
645.54	264.48
645.69	332.36
645.83	208.31
645.98	278.52
646.13	236.39
646.27	285.55
646.42	269.16
646.57	234.05
646.71	234.05
646.86	196.60
647.00	205.97
647.15	386.19
647.30	227.03
647.44	227.03
647.59	255.12
647.74	238.73
647.88	287.89
648.03	259.80
648.17	311.29
648.32	227.03
648.47	245.76
648.61	208.31
648.76	250.44
648.90	250.44
649.05	184.90
649.20	285.55
649.34	297.25
649.49	283.20
649.63	255.12
649.78	397.89
649.92	479.81
650.07	2127.55
650.21	6822.66
650.36	12084.19
650.51	14768.78
650.65	12187.17
650.80	8456.36
650.94	5713.25
651.09	3475.70
651.23	1830.30
651.38	898.77
651.52	528.96
651.67	383.85
651.81	327.68
651.96	334.70
652.10	227.03
652.25	337.04
652.39	243.42
652.54	362.78
652.68	697.48
652.83	2160.31
652.97	3854.86
653.12	5427.70
653.26	4585.11
653.41	3431.23
653.55	2275.00
653.70	1577.52
653.84	873.02
653.99	535.98
654.13	341.72
654.27	285.55
654.42	252.78
654.56	280.86
654.71	360.44
654.85	266.82
655.00	222.35
655.14	212.99
655.29	208.31
655.43	236.39
655.57	229.37
655.72	203.63
655.86	255.12
656.01	180.22
656.15	196.60
656.30	266.82
656.44	191.92
656.58	222.35
656.73	234.05
656.87	236.39
657.01	269.16
657.16	229.37
657.30	346.40
657.45	301.93
657.59	222.35
657.73	210.65
657.88	271.50
658.02	330.02
658.16	198.95
658.31	212.99
658.45	273.84
658.60	234.05
658.74	170.86
658.88	304.27
659.03	255.12
659.17	341.72
659.31	983.02
659.46	3136.32
659.60	5687.50
659.74	7370.35
659.89	6604.99
660.03	4777.03
660.17	3330.58
660.32	2104.14
660.46	1196.01
660.60	615.56
660.74	472.79
660.89	330.02
661.03	311.29
661.17	290.23
661.32	248.10
661.46	238.73
661.60	243.42
661.74	262.14
661.89	262.14
662.03	278.52
662.17	175.54
662.31	276.18
662.46	180.22
662.60	266.82
662.74	245.76
662.88	250.44
663.03	297.25
663.17	234.05
663.31	262.14
663.45	269.16
663.60	231.71
663.74	175.54
663.88	203.63
664.02	182.56
664.17	208.31
664.31	264.48
664.45	212.99
664.59	163.84
664.73	222.35
664.88	306.61
665.02	189.58
665.16	306.61
665.30	276.18
665.44	212.99
665.59	330.02
665.73	250.44
665.87	318.31
666.01	255.12
666.15	227.03
666.29	205.97
666.44	315.97
666.58	332.36
666.72	339.38
666.86	280.86
667.00	381.51
667.14	456.40
667.28	1942.64
667.43	5701.54
667.57	10059.62
667.71	13018.06
667.85	11075.42
667.99	8049.10
668.13	5193.65
668.27	3038.02
668.41	1666.46
668.56	1004.09
668.70	641.31
668.84	524.28
668.98	330.02
669.12	229.37
669.26	283.20
669.40	395.55
669.54	269.16
669.68	273.84
669.82	175.54
669.96	205.97
670.10	266.82
670.25	320.65
670.39	290.23
670.53	276.18
670.67	269.16
670.81	224.69
670.95	381.51
671.09	585.13
671.23	2150.95
671.37	4823.84
671.51	7183.10
671.65	8124.00
671.79	6490.31
671.93	4334.67
672.07	2672.89
672.21	1521.35
672.35	947.92
672.49	601.52
672.63	440.02
672.77	407.25
672.91	264.48
673.05	283.20
673.19	231.71
673.33	154.48
673.47	241.08
673.61	259.80
673.75	201.29
673.89	264.48
674.03	194.26
674.17	182.56
674.31	208.31
674.45	259.80
674.59	201.29
674.73	238.73
674.87	257.46
675.01	311.29
675.15	325.33
675.29	271.50
675.43	243.42
675.56	248.10
675.70	355.76
675.84	196.60
675.98	154.48
676.12	205.97
676.26	156.82
676.40	166.18
676.54	212.99
676.68	187.24
676.82	215.33
676.96	184.90
677.10	177.88
677.23	266.82
677.37	243.42
677.51	229.37
677.65	306.61
677.79	203.63
677.93	222.35
678.07	163.84
678.21	170.86
678.34	227.03
678.48	161.50
678.62	205.97
678.76	196.60
678.90	131.07
679.04	166.18
679.18	126.39
679.31	161.50
679.45	156.82
679.59	238.73
679.73	201.29
679.87	131.07
680.00	154.48
680.14	142.77
680.28	194.26
680.42	210.65
680.56	231.71
680.70	182.56
680.83	257.46
680.97	257.46
681.11	117.03
681.25	220.01
681.39	191.92
681.52	234.05
681.66	229.37
681.80	224.69
681.94	259.80
682.07	217.67
682.21	210.65
682.35	175.54
682.49	187.24
682.62	250.44
682.76	224.69
682.90	170.86
683.04	215.33
683.17	177.88
683.31	173.20
683.45	210.65
683.59	147.45
683.72	189.58
683.86	154.48
684.00	170.86
684.13	243.42
684.27	177.88
684.41	173.20
684.55	124.05
684.68	220.01
684.82	166.18
684.96	217.67
685.09	203.63
685.23	177.88
685.37	175.54
685.50	215.33
685.64	196.60
685.78	177.88
685.91	212.99
686.05	208.31
686.19	194.26
686.32	128.73
686.46	198.95
686.60	191.92
686.73	243.42
686.87	285.55
687.01	248.10
687.14	224.69
687.28	255.12
687.42	229.37
687.55	236.39
687.69	229.37
687.82	187.24
687.96	208.31
688.10	217.67
688.23	227.03
688.37	203.63
688.50	182.56
688.64	180.22
688.78	234.05
688.91	107.66
689.05	142.77
689.18	147.45
689.32	184.90
689.46	142.77
689.59	205.97
689.73	210.65
689.86	182.56
690.00	175.54
690.13	224.69
690.27	163.84
690.41	145.11
690.54	222.35
690.68	187.24
690.81	168.52
690.95	166.18
691.08	180.22
691.22	208.31
691.35	161.50
691.49	110.01
691.62	166.18
691.76	234.05
691.89	255.12
692.03	191.92
692.16	236.39
692.30	189.58
692.43	770.04
692.57	2335.85
692.70	4030.40
692.84	5687.50
692.97	5238.12
693.11	3623.15
693.24	2792.26
693.38	1877.11
693.51	1256.87
693.65	833.23
693.78	552.37
693.92	383.85
694.05	351.08
694.19	339.38
694.32	177.88
694.45	196.60
694.59	173.20
694.72	170.86
694.86	264.48
694.99	229.37
695.13	262.14
695.26	161.50
695.39	184.90
695.53	245.76
695.66	182.56
695.80	248.10
695.93	133.41
696.07	187.24
696.20	330.02
696.33	362.78
696.47	484.49
696.60	533.64
696.73	456.40
696.87	271.50
697.00	278.52
697.14	269.16
697.27	191.92
697.40	264.48
697.54	182.56
697.67	182.56
697.80	198.95
697.94	187.24
698.07	210.65
698.21	154.48
698.34	166.18
698.47	166.18
698.61	154.48
698.74	131.07
698.87	173.20
699.01	175.54
699.14	128.73
699.27	231.71
699.40	234.05
699.54	161.50
699.67	208.31
699.80	243.42
699.94	201.29
700.07	70.22
700.20	205.97
700.34	159.16
700.47	149.79
700.60	142.77
700.73	194.26
700.87	252.78
701.00	189.58
701.13	191.92
701.26	145.11
701.40	222.35
701.53	220.01
701.66	194.26
701.79	180.22
701.93	201.29
702.06	353.42
702.19	411.93
702.32	512.58
702.46	568.75
702.59	545.34
702.72	856.64
702.85	3019.29
702.99	6356.90
703.12	9570.45
703.25	10839.02
703.38	9514.28
703.51	7555.25
703.65	5813.89
703.78	4046.79
703.91	2635.44
704.04	1624.33
704.17	1018.13
704.31	589.82
704.44	512.58
704.57	367.46
704.70	264.48
704.83	222.35
704.96	231.71
705.10	210.65
705.23	243.42
>>>>>End Processed Spectral Data<<<<<
