SpectraSuite Data File
++++++++++++++++++++++++++++++++++++
Date: Fri Oct 04 11:34:10 GMT-05:00 2013
User: price-jones
Dark Spectrum Present: No
Reference Spectrum Present: No
Number of Sampled Component Spectra: 1
Spectrometers: USB2+H05261
Integration Time (usec): 100000 (USB2+H05261)
Spectra Averaged: 1 (USB2+H05261)
Boxcar Smoothing: 0 (USB2+H05261)
Correct for Electrical Dark: No (USB2+H05261)
Strobe/Lamp Enabled: No (USB2+H05261)
Correct for Detector Non-linearity: No (USB2+H05261)
Correct for Stray Light: No (USB2+H05261)
Number of Pixels in Processed Spectrum: 2048
>>>>>Begin Processed Spectral Data<<<<<
365.73	70.22
365.92	70.22
366.12	70.22
366.32	39.79
366.52	0.00
366.72	42.13
366.91	0.00
367.11	0.00
367.31	0.00
367.51	0.00
367.70	0.00
367.90	0.00
368.10	81.92
368.30	9.36
368.49	0.00
368.69	0.00
368.89	0.00
369.09	0.00
369.28	0.00
369.48	14.04
369.68	0.00
369.87	9.36
370.07	0.00
370.27	119.37
370.47	0.00
370.66	44.47
370.86	126.39
371.06	46.81
371.25	84.26
371.45	128.73
371.65	112.35
371.84	112.35
372.04	121.71
372.24	126.39
372.44	119.37
372.63	135.75
372.83	131.07
373.03	159.16
373.22	53.83
373.42	163.84
373.62	187.24
373.81	201.29
374.01	229.37
374.21	126.39
374.40	100.64
374.60	175.54
374.79	86.60
374.99	145.11
375.19	142.77
375.38	220.01
375.58	163.84
375.78	229.37
375.97	187.24
376.17	105.32
376.37	126.39
376.56	173.20
376.76	175.54
376.95	145.11
377.15	180.22
377.35	112.35
377.54	177.88
377.74	117.03
377.93	65.54
378.13	133.41
378.33	133.41
378.52	149.79
378.72	222.35
378.91	222.35
379.11	124.05
379.31	128.73
379.50	152.13
379.70	117.03
379.89	177.88
380.09	112.35
380.28	156.82
380.48	112.35
380.68	128.73
380.87	142.77
381.07	110.01
381.26	161.50
381.46	241.08
381.65	88.94
381.85	184.90
382.04	79.58
382.24	168.52
382.43	86.60
382.63	74.90
382.83	201.29
383.02	168.52
383.22	93.62
383.41	203.63
383.61	88.94
383.80	107.66
384.00	145.11
384.19	95.96
384.39	65.54
384.58	51.49
384.78	140.43
384.97	168.52
385.17	84.26
385.36	184.90
385.56	112.35
385.75	138.09
385.95	39.79
386.14	124.05
386.34	107.66
386.53	149.79
386.72	102.98
386.92	163.84
387.11	110.01
387.31	98.30
387.50	177.88
387.70	138.09
387.89	149.79
388.09	35.11
388.28	140.43
388.48	131.07
388.67	133.41
388.86	198.95
389.06	133.41
389.25	77.24
389.45	229.37
389.64	196.60
389.84	177.88
390.03	131.07
390.22	138.09
390.42	184.90
390.61	159.16
390.81	131.07
391.00	180.22
391.19	131.07
391.39	154.48
391.58	212.99
391.78	140.43
391.97	98.30
392.16	140.43
392.36	159.16
392.55	121.71
392.75	142.77
392.94	133.41
393.13	173.20
393.33	156.82
393.52	121.71
393.71	224.69
393.91	142.77
394.10	163.84
394.29	152.13
394.49	203.63
394.68	198.95
394.88	145.11
395.07	194.26
395.26	93.62
395.46	112.35
395.65	177.88
395.84	93.62
396.04	194.26
396.23	114.69
396.42	205.97
396.62	138.09
396.81	152.13
397.00	119.37
397.19	184.90
397.39	187.24
397.58	208.31
397.77	168.52
397.97	131.07
398.16	110.01
398.35	175.54
398.55	114.69
398.74	166.18
398.93	175.54
399.12	121.71
399.32	154.48
399.51	133.41
399.70	140.43
399.90	140.43
400.09	79.58
400.28	102.98
400.47	138.09
400.67	182.56
400.86	203.63
401.05	124.05
401.24	205.97
401.44	168.52
401.63	163.84
401.82	142.77
402.01	95.96
402.21	163.84
402.40	121.71
402.59	177.88
402.78	168.52
402.97	124.05
403.17	67.88
403.36	140.43
403.55	114.69
403.74	187.24
403.93	210.65
404.13	327.68
404.32	257.46
404.51	210.65
404.70	191.92
404.89	170.86
405.09	142.77
405.28	121.71
405.47	114.69
405.66	154.48
405.85	149.79
406.05	147.45
406.24	119.37
406.43	142.77
406.62	138.09
406.81	227.03
407.00	241.08
407.20	168.52
407.39	154.48
407.58	93.62
407.77	170.86
407.96	152.13
408.15	180.22
408.34	135.75
408.54	175.54
408.73	152.13
408.92	198.95
409.11	196.60
409.30	191.92
409.49	184.90
409.68	152.13
409.87	142.77
410.07	131.07
410.26	152.13
410.45	175.54
410.64	133.41
410.83	208.31
411.02	98.30
411.21	149.79
411.40	98.30
411.59	105.32
411.78	110.01
411.98	112.35
412.17	215.33
412.36	79.58
412.55	224.69
412.74	163.84
412.93	177.88
413.12	189.58
413.31	124.05
413.50	217.67
413.69	145.11
413.88	259.80
414.07	161.50
414.26	107.66
414.45	110.01
414.64	135.75
414.83	161.50
415.02	88.94
415.22	208.31
415.41	177.88
415.60	107.66
415.79	163.84
415.98	180.22
416.17	166.18
416.36	156.82
416.55	140.43
416.74	124.05
416.93	210.65
417.12	194.26
417.31	161.50
417.50	114.69
417.69	262.14
417.88	227.03
418.07	224.69
418.26	180.22
418.45	196.60
418.64	283.20
418.83	177.88
419.02	257.46
419.21	231.71
419.39	203.63
419.58	220.01
419.77	243.42
419.96	243.42
420.15	191.92
420.34	147.45
420.53	126.39
420.72	180.22
420.91	145.11
421.10	189.58
421.29	163.84
421.48	135.75
421.67	166.18
421.86	194.26
422.05	175.54
422.24	229.37
422.43	215.33
422.61	140.43
422.80	180.22
422.99	198.95
423.18	198.95
423.37	173.20
423.56	138.09
423.75	198.95
423.94	133.41
424.13	163.84
424.32	191.92
424.50	224.69
424.69	140.43
424.88	222.35
425.07	241.08
425.26	173.20
425.45	208.31
425.64	217.67
425.83	229.37
426.01	278.52
426.20	201.29
426.39	161.50
426.58	231.71
426.77	220.01
426.96	212.99
427.15	145.11
427.33	198.95
427.52	194.26
427.71	126.39
427.90	196.60
428.09	138.09
428.28	205.97
428.46	102.98
428.65	149.79
428.84	212.99
429.03	159.16
429.22	191.92
429.40	147.45
429.59	152.13
429.78	217.67
429.97	210.65
430.16	159.16
430.34	196.60
430.53	182.56
430.72	163.84
430.91	212.99
431.10	168.52
431.28	117.03
431.47	234.05
431.66	205.97
431.85	147.45
432.03	210.65
432.22	180.22
432.41	159.16
432.60	243.42
432.79	182.56
432.97	313.63
433.16	339.38
433.35	147.45
433.54	217.67
433.72	264.48
433.91	161.50
434.10	154.48
434.28	184.90
434.47	217.67
434.66	215.33
434.85	154.48
435.03	229.37
435.22	379.17
435.41	486.83
435.59	505.56
435.78	365.12
435.97	283.20
436.16	163.84
436.34	163.84
436.53	201.29
436.72	241.08
436.90	208.31
437.09	205.97
437.28	177.88
437.46	210.65
437.65	168.52
437.84	180.22
438.02	184.90
438.21	175.54
438.40	133.41
438.58	173.20
438.77	217.67
438.96	212.99
439.14	168.52
439.33	159.16
439.52	156.82
439.70	205.97
439.89	208.31
440.08	196.60
440.26	227.03
440.45	241.08
440.63	138.09
440.82	191.92
441.01	168.52
441.19	163.84
441.38	198.95
441.57	170.86
441.75	184.90
441.94	231.71
442.12	156.82
442.31	180.22
442.50	203.63
442.68	159.16
442.87	121.71
443.05	138.09
443.24	217.67
443.43	198.95
443.61	175.54
443.80	196.60
443.98	222.35
444.17	159.16
444.35	198.95
444.54	163.84
444.73	184.90
444.91	252.78
445.10	100.64
445.28	105.32
445.47	210.65
445.65	156.82
445.84	163.84
446.02	138.09
446.21	149.79
446.39	177.88
446.58	231.71
446.77	135.75
446.95	201.29
447.14	217.67
447.32	189.58
447.51	121.71
447.69	145.11
447.88	189.58
448.06	159.16
448.25	264.48
448.43	149.79
448.62	105.32
448.80	173.20
448.99	212.99
449.17	149.79
449.36	187.24
449.54	170.86
449.73	177.88
449.91	201.29
450.10	173.20
450.28	243.42
450.46	131.07
450.65	196.60
450.83	269.16
451.02	184.90
451.20	210.65
451.39	140.43
451.57	189.58
451.76	187.24
451.94	220.01
452.13	220.01
452.31	191.92
452.49	210.65
452.68	236.39
452.86	191.92
453.05	229.37
453.23	175.54
453.42	208.31
453.60	217.67
453.78	205.97
453.97	191.92
454.15	135.75
454.34	224.69
454.52	170.86
454.70	215.33
454.89	229.37
455.07	170.86
455.26	184.90
455.44	175.54
455.62	227.03
455.81	152.13
455.99	163.84
456.17	205.97
456.36	266.82
456.54	175.54
456.73	208.31
456.91	198.95
457.09	147.45
457.28	212.99
457.46	196.60
457.64	208.31
457.83	142.77
458.01	191.92
458.19	231.71
458.38	191.92
458.56	205.97
458.74	110.01
458.93	189.58
459.11	224.69
459.29	177.88
459.48	180.22
459.66	166.18
459.84	248.10
460.03	243.42
460.21	250.44
460.39	250.44
460.57	189.58
460.76	224.69
460.94	138.09
461.12	189.58
461.31	198.95
461.49	196.60
461.67	224.69
461.85	238.73
462.04	140.43
462.22	299.59
462.40	248.10
462.59	264.48
462.77	168.52
462.95	196.60
463.13	121.71
463.32	269.16
463.50	135.75
463.68	264.48
463.86	170.86
464.05	163.84
464.23	320.65
464.41	217.67
464.59	203.63
464.78	203.63
464.96	154.48
465.14	259.80
465.32	166.18
465.50	231.71
465.69	248.10
465.87	168.52
466.05	159.16
466.23	205.97
466.41	187.24
466.60	189.58
466.78	217.67
466.96	245.76
467.14	236.39
467.32	208.31
467.51	217.67
467.69	259.80
467.87	191.92
468.05	238.73
468.23	245.76
468.41	222.35
468.60	205.97
468.78	135.75
468.96	182.56
469.14	121.71
469.32	166.18
469.50	170.86
469.69	222.35
469.87	170.86
470.05	175.54
470.23	311.29
470.41	194.26
470.59	173.20
470.77	175.54
470.95	222.35
471.14	191.92
471.32	173.20
471.50	208.31
471.68	173.20
471.86	208.31
472.04	173.20
472.22	222.35
472.40	131.07
472.58	135.75
472.77	203.63
472.95	180.22
473.13	255.12
473.31	276.18
473.49	156.82
473.67	180.22
473.85	203.63
474.03	154.48
474.21	208.31
474.39	238.73
474.57	149.79
474.75	238.73
474.93	187.24
475.12	210.65
475.30	212.99
475.48	224.69
475.66	248.10
475.84	180.22
476.02	175.54
476.20	264.48
476.38	194.26
476.56	259.80
476.74	222.35
476.92	250.44
477.10	184.90
477.28	224.69
477.46	191.92
477.64	187.24
477.82	159.16
478.00	224.69
478.18	196.60
478.36	166.18
478.54	220.01
478.72	222.35
478.90	133.41
479.08	348.74
479.26	259.80
479.44	161.50
479.62	191.92
479.80	161.50
479.98	212.99
480.16	142.77
480.34	224.69
480.52	147.45
480.70	187.24
480.88	229.37
481.06	212.99
481.24	168.52
481.41	224.69
481.59	203.63
481.77	203.63
481.95	215.33
482.13	229.37
482.31	175.54
482.49	227.03
482.67	184.90
482.85	294.91
483.03	177.88
483.21	210.65
483.39	215.33
483.57	217.67
483.74	285.55
483.92	269.16
484.10	149.79
484.28	201.29
484.46	315.97
484.64	248.10
484.82	252.78
485.00	273.84
485.18	210.65
485.35	238.73
485.53	245.76
485.71	215.33
485.89	280.86
486.07	266.82
486.25	348.74
486.43	301.93
486.61	252.78
486.78	306.61
486.96	187.24
487.14	177.88
487.32	224.69
487.50	243.42
487.68	177.88
487.85	257.46
488.03	299.59
488.21	332.36
488.39	301.93
488.57	236.39
488.75	313.63
488.92	521.94
489.10	250.44
489.28	311.29
489.46	255.12
489.64	198.95
489.81	227.03
489.99	257.46
490.17	297.25
490.35	322.99
490.53	227.03
490.70	217.67
490.88	191.92
491.06	292.57
491.24	318.31
491.41	330.02
491.59	222.35
491.77	252.78
491.95	313.63
492.13	229.37
492.30	229.37
492.48	238.73
492.66	238.73
492.84	248.10
493.01	325.33
493.19	243.42
493.37	266.82
493.54	280.86
493.72	334.70
493.90	266.82
494.08	283.20
494.25	313.63
494.43	285.55
494.61	264.48
494.79	250.44
494.96	262.14
495.14	276.18
495.32	264.48
495.49	266.82
495.67	297.25
495.85	229.37
496.02	287.89
496.20	299.59
496.38	271.50
496.55	278.52
496.73	308.95
496.91	215.33
497.09	304.27
497.26	266.82
497.44	311.29
497.62	304.27
497.79	315.97
497.97	259.80
498.14	266.82
498.32	269.16
498.50	301.93
498.67	313.63
498.85	287.89
499.03	255.12
499.20	201.29
499.38	222.35
499.56	234.05
499.73	187.24
499.91	224.69
500.08	220.01
500.26	264.48
500.44	224.69
500.61	262.14
500.79	245.76
500.97	294.91
501.14	250.44
501.32	250.44
501.49	257.46
501.67	210.65
501.84	311.29
502.02	205.97
502.20	325.33
502.37	159.16
502.55	292.57
502.72	220.01
502.90	322.99
503.07	313.63
503.25	346.40
503.43	259.80
503.60	299.59
503.78	283.20
503.95	245.76
504.13	189.58
504.30	231.71
504.48	234.05
504.65	257.46
504.83	264.48
505.01	262.14
505.18	264.48
505.36	294.91
505.53	217.67
505.71	276.18
505.88	318.31
506.06	245.76
506.23	203.63
506.41	224.69
506.58	245.76
506.76	313.63
506.93	224.69
507.11	341.72
507.28	262.14
507.46	271.50
507.63	266.82
507.81	236.39
507.98	311.29
508.16	259.80
508.33	215.33
508.50	273.84
508.68	273.84
508.85	292.57
509.03	236.39
509.20	294.91
509.38	236.39
509.55	222.35
509.73	294.91
509.90	257.46
510.08	276.18
510.25	245.76
510.42	276.18
510.60	280.86
510.77	269.16
510.95	346.40
511.12	287.89
511.30	304.27
511.47	315.97
511.64	372.15
511.82	330.02
511.99	252.78
512.17	285.55
512.34	234.05
512.51	224.69
512.69	217.67
512.86	330.02
513.04	238.73
513.21	257.46
513.38	264.48
513.56	264.48
513.73	292.57
513.90	252.78
514.08	276.18
514.25	262.14
514.43	283.20
514.60	290.23
514.77	332.36
514.95	266.82
515.12	217.67
515.29	245.76
515.47	283.20
515.64	283.20
515.81	327.68
515.99	353.42
516.16	278.52
516.33	276.18
516.51	273.84
516.68	210.65
516.85	269.16
517.03	273.84
517.20	271.50
517.37	304.27
517.54	269.16
517.72	278.52
517.89	273.84
518.06	290.23
518.24	315.97
518.41	318.31
518.58	182.56
518.75	231.71
518.93	337.04
519.10	344.06
519.27	271.50
519.45	222.35
519.62	201.29
519.79	236.39
519.96	236.39
520.14	248.10
520.31	297.25
520.48	278.52
520.65	264.48
520.83	236.39
521.00	280.86
521.17	245.76
521.34	203.63
521.52	271.50
521.69	212.99
521.86	273.84
522.03	241.08
522.20	177.88
522.38	278.52
522.55	262.14
522.72	278.52
522.89	299.59
523.07	341.72
523.24	262.14
523.41	301.93
523.58	222.35
523.75	201.29
523.92	236.39
524.10	292.57
524.27	297.25
524.44	257.46
524.61	337.04
524.78	273.84
524.96	231.71
525.13	255.12
525.30	301.93
525.47	313.63
525.64	271.50
525.81	283.20
525.98	259.80
526.16	252.78
526.33	283.20
526.50	255.12
526.67	201.29
526.84	154.48
527.01	278.52
527.18	365.12
527.36	299.59
527.53	220.01
527.70	351.08
527.87	273.84
528.04	308.95
528.21	259.80
528.38	259.80
528.55	365.12
528.72	311.29
528.89	290.23
529.07	283.20
529.24	269.16
529.41	355.76
529.58	313.63
529.75	306.61
529.92	273.84
530.09	304.27
530.26	257.46
530.43	294.91
530.60	339.38
530.77	341.72
530.94	259.80
531.11	234.05
531.28	252.78
531.46	248.10
531.63	287.89
531.80	227.03
531.97	322.99
532.14	308.95
532.31	304.27
532.48	278.52
532.65	294.91
532.82	421.30
532.99	465.77
533.16	358.10
533.33	337.04
533.50	337.04
533.67	400.23
533.84	435.34
534.01	440.02
534.18	304.27
534.35	313.63
534.52	257.46
534.69	351.08
534.86	337.04
535.03	294.91
535.20	337.04
535.37	325.33
535.54	271.50
535.71	269.16
535.88	320.65
536.05	320.65
536.22	243.42
536.38	294.91
536.55	287.89
536.72	299.59
536.89	280.86
537.06	330.02
537.23	297.25
537.40	315.97
537.57	315.97
537.74	304.27
537.91	346.40
538.08	327.68
538.25	355.76
538.42	269.16
538.59	358.10
538.75	337.04
538.92	301.93
539.09	395.55
539.26	409.59
539.43	461.09
539.60	1090.69
539.77	1327.08
539.94	1299.00
540.11	1001.75
540.28	791.10
540.44	631.94
540.61	465.77
540.78	507.90
540.95	496.19
541.12	617.90
541.29	631.94
541.46	681.10
541.62	585.13
541.79	622.58
541.96	545.34
542.13	524.28
542.30	535.98
542.47	512.58
542.63	557.05
542.80	517.26
542.97	444.70
543.14	531.30
543.31	599.18
543.48	538.32
543.64	578.11
543.81	475.13
543.98	477.47
544.15	521.94
544.32	557.05
544.48	528.96
544.65	493.85
544.82	528.96
544.99	554.71
545.16	528.96
545.32	503.22
545.49	791.10
545.66	1015.79
545.83	1137.50
546.00	1001.75
546.16	760.67
546.33	718.54
546.50	528.96
546.67	507.90
546.83	489.17
547.00	435.34
547.17	440.02
547.34	362.78
547.50	440.02
547.67	390.87
547.84	414.27
548.00	447.04
548.17	386.19
548.34	414.27
548.51	454.06
548.67	369.80
548.84	330.02
549.01	346.40
549.18	463.43
549.34	444.70
549.51	433.00
549.68	423.64
549.84	348.74
550.01	337.04
550.18	421.30
550.34	411.93
550.51	411.93
550.68	423.64
550.84	318.31
551.01	276.18
551.18	339.38
551.34	325.33
551.51	304.27
551.68	362.78
551.84	390.87
552.01	397.89
552.18	318.31
552.34	365.12
552.51	330.02
552.68	395.55
552.84	320.65
553.01	301.93
553.18	308.95
553.34	322.99
553.51	301.93
553.67	269.16
553.84	334.70
554.01	341.72
554.17	348.74
554.34	327.68
554.51	285.55
554.67	285.55
554.84	287.89
555.00	299.59
555.17	381.51
555.33	369.80
555.50	315.97
555.67	278.52
555.83	360.44
556.00	311.29
556.16	461.09
556.33	388.53
556.50	290.23
556.66	252.78
556.83	280.86
556.99	273.84
557.16	259.80
557.32	210.65
557.49	276.18
557.65	278.52
557.82	259.80
557.98	304.27
558.15	297.25
558.32	271.50
558.48	264.48
558.65	250.44
558.81	224.69
558.98	238.73
559.14	320.65
559.31	273.84
559.47	313.63
559.64	269.16
559.80	290.23
559.97	217.67
560.13	182.56
560.30	262.14
560.46	367.46
560.63	250.44
560.79	294.91
560.96	269.16
561.12	220.01
561.29	245.76
561.45	292.57
561.61	280.86
561.78	344.06
561.94	278.52
562.11	276.18
562.27	283.20
562.44	327.68
562.60	297.25
562.77	287.89
562.93	332.36
563.10	266.82
563.26	297.25
563.42	273.84
563.59	280.86
563.75	248.10
563.92	278.52
564.08	215.33
564.24	285.55
564.41	362.78
564.57	217.67
564.74	276.18
564.90	257.46
565.07	266.82
565.23	294.91
565.39	257.46
565.56	348.74
565.72	276.18
565.88	313.63
566.05	287.89
566.21	341.72
566.38	362.78
566.54	248.10
566.70	234.05
566.87	283.20
567.03	245.76
567.19	292.57
567.36	341.72
567.52	245.76
567.68	304.27
567.85	248.10
568.01	264.48
568.17	201.29
568.34	248.10
568.50	269.16
568.66	278.52
568.83	344.06
568.99	255.12
569.15	294.91
569.32	255.12
569.48	222.35
569.64	229.37
569.81	236.39
569.97	224.69
570.13	334.70
570.30	252.78
570.46	276.18
570.62	259.80
570.78	245.76
570.95	180.22
571.11	386.19
571.27	313.63
571.43	266.82
571.60	290.23
571.76	259.80
571.92	304.27
572.09	234.05
572.25	292.57
572.41	266.82
572.57	283.20
572.74	231.71
572.90	372.15
573.06	285.55
573.22	290.23
573.38	299.59
573.55	236.39
573.71	322.99
573.87	266.82
574.03	170.86
574.20	294.91
574.36	346.40
574.52	381.51
574.68	301.93
574.84	287.89
575.01	280.86
575.17	245.76
575.33	362.78
575.49	259.80
575.65	353.42
575.82	325.33
575.98	564.07
576.14	650.67
576.30	557.05
576.46	627.26
576.62	540.66
576.79	482.15
576.95	463.43
577.11	308.95
577.27	374.49
577.43	346.40
577.59	348.74
577.75	322.99
577.92	269.16
578.08	369.80
578.24	283.20
578.40	388.53
578.56	430.66
578.72	503.22
578.88	416.62
579.04	376.83
579.21	407.25
579.37	442.36
579.53	362.78
579.69	407.25
579.85	369.80
580.01	433.00
580.17	454.06
580.33	458.74
580.49	341.72
580.65	437.68
580.82	404.91
580.98	325.33
581.14	395.55
581.30	416.62
581.46	493.85
581.62	510.24
581.78	599.18
581.94	552.37
582.10	505.56
582.26	472.79
582.42	477.47
582.58	397.89
582.74	442.36
582.90	498.53
583.06	440.02
583.22	472.79
583.38	526.62
583.54	482.15
583.70	615.56
583.86	636.63
584.02	676.41
584.18	807.48
584.34	973.66
584.50	2684.59
584.66	19150.26
584.82	48200.99
584.98	58019.54
585.14	53769.13
585.30	36233.83
585.46	21633.57
585.62	13635.96
585.78	6476.26
585.94	2609.70
586.10	1397.30
586.26	905.79
586.42	868.34
586.58	613.22
586.74	674.07
586.90	624.92
587.06	613.22
587.22	594.50
587.38	573.43
587.54	1043.88
587.70	2977.16
587.86	4533.62
588.02	4798.10
588.18	3531.87
588.34	2211.81
588.49	1483.90
588.65	940.90
588.81	559.39
588.97	421.30
589.13	428.32
589.29	287.89
589.45	390.87
589.61	334.70
589.77	442.36
589.93	468.11
590.08	470.45
590.24	442.36
590.40	372.15
590.56	449.38
590.72	440.02
590.88	334.70
591.04	449.38
591.20	280.86
591.35	425.98
591.51	355.76
591.67	395.55
591.83	348.74
591.99	400.23
592.15	374.49
592.31	435.34
592.46	388.53
592.62	355.76
592.78	418.96
592.94	341.72
593.10	383.85
593.26	451.72
593.41	447.04
593.57	386.19
593.73	615.56
593.89	2579.27
594.05	6216.46
594.20	8346.35
594.36	7648.87
594.52	5109.39
594.68	3349.31
594.84	2319.47
594.99	1376.24
595.15	671.73
595.31	458.74
595.47	435.34
595.62	369.80
595.78	327.68
595.94	409.59
596.10	372.15
596.25	393.21
596.41	353.42
596.57	402.57
596.73	383.85
596.88	585.13
597.04	1263.89
597.20	1872.43
597.36	2242.23
597.51	1689.87
597.67	1123.46
597.83	884.72
597.99	674.07
598.14	505.56
598.30	360.44
598.46	369.80
598.61	421.30
598.77	292.57
598.93	311.29
599.09	327.68
599.24	365.12
599.40	353.42
599.56	351.08
599.71	292.57
599.87	315.97
600.03	341.72
600.18	318.31
600.34	285.55
600.50	308.95
600.65	245.76
600.81	313.63
600.97	229.37
601.12	369.80
601.28	320.65
601.44	299.59
601.59	257.46
601.75	402.57
601.91	301.93
602.06	292.57
602.22	428.32
602.37	648.33
602.53	1514.33
602.69	2169.68
602.84	2127.55
603.00	1626.67
603.16	1128.14
603.31	802.80
603.47	627.26
603.62	400.23
603.78	358.10
603.94	269.16
604.09	257.46
604.25	273.84
604.40	365.12
604.56	365.12
604.71	306.61
604.87	257.46
605.03	273.84
605.18	285.55
605.34	306.61
605.49	313.63
605.65	374.49
605.80	299.59
605.96	365.12
606.12	372.15
606.27	351.08
606.43	397.89
606.58	411.93
606.74	711.52
606.89	2942.05
607.05	5584.52
607.20	6874.15
607.36	5659.42
607.51	3999.98
607.67	2715.02
607.82	1806.89
607.98	1123.46
608.13	634.29
608.29	461.09
608.44	500.87
608.60	535.98
608.75	531.30
608.91	1135.16
609.06	4589.79
609.22	9460.45
609.37	11990.56
609.53	10305.38
609.68	7164.38
609.84	4905.76
609.99	3236.96
610.15	1944.99
610.30	1139.84
610.46	943.24
610.61	896.43
610.76	990.05
610.92	1130.48
611.07	1153.88
611.23	1240.48
611.38	1153.88
611.54	968.98
611.69	858.98
611.84	732.59
612.00	746.63
612.15	692.80
612.31	751.31
612.46	828.55
612.62	919.83
612.77	873.02
612.92	779.40
613.08	758.33
613.23	629.60
613.39	624.92
613.54	917.49
613.69	4327.65
613.85	11686.29
614.00	18295.97
614.15	18937.27
614.31	13338.71
614.46	8898.72
614.62	6052.63
614.77	3662.94
614.92	1732.00
615.08	997.07
615.23	702.16
615.38	585.13
615.54	547.69
615.69	947.92
615.84	2490.33
616.00	4121.68
616.15	5004.07
616.30	4060.83
616.46	2967.80
616.61	2054.99
616.76	1453.47
616.92	847.27
617.07	622.58
617.22	468.11
617.37	374.49
617.53	414.27
617.68	334.70
617.83	353.42
617.99	400.23
618.14	395.55
618.29	381.51
618.45	395.55
618.60	365.12
618.75	311.29
618.90	292.57
619.06	294.91
619.21	393.21
619.36	388.53
619.51	330.02
619.67	308.95
619.82	262.14
619.97	287.89
620.12	301.93
620.28	280.86
620.43	365.12
620.58	404.91
620.73	395.55
620.89	409.59
621.04	573.43
621.19	1409.00
621.34	2473.95
621.49	2963.12
621.65	2637.78
621.80	1968.39
621.95	1432.41
622.10	1027.50
622.25	711.52
622.41	543.00
622.56	388.53
622.71	320.65
622.86	334.70
623.01	351.08
623.16	351.08
623.32	367.46
623.47	381.51
623.62	266.82
623.77	311.29
623.92	292.57
624.07	311.29
624.23	369.80
624.38	259.80
624.53	243.42
624.68	362.78
624.83	341.72
624.98	337.04
625.13	304.27
625.29	386.19
625.44	304.27
625.59	381.51
625.74	395.55
625.89	540.66
626.04	2083.08
626.19	5666.44
626.34	9163.20
626.49	9727.27
626.65	7030.97
626.80	4954.91
626.95	3349.31
627.10	2038.61
627.25	1130.48
627.40	671.73
627.55	524.28
627.70	414.27
627.85	362.78
628.00	353.42
628.15	346.40
628.30	334.70
628.45	304.27
628.60	276.18
628.76	332.36
628.91	332.36
629.06	287.89
629.21	308.95
629.36	351.08
629.51	346.40
629.66	367.46
629.81	514.92
629.96	1184.31
630.11	2127.55
630.26	2532.46
630.41	2417.77
630.56	1699.23
630.71	1291.98
630.86	866.00
631.01	709.18
631.16	510.24
631.31	390.87
631.46	337.04
631.61	339.38
631.76	308.95
631.91	292.57
632.06	313.63
632.21	271.50
632.36	374.49
632.51	425.98
632.66	411.93
632.81	1071.97
632.96	3206.53
633.10	5495.58
633.25	6502.01
633.40	5348.12
633.55	3857.20
633.70	2647.15
633.85	1795.19
634.00	980.68
634.15	613.22
634.30	428.32
634.45	304.27
634.60	315.97
634.75	365.12
634.90	252.78
635.05	292.57
635.19	287.89
635.34	330.02
635.49	283.20
635.64	280.86
635.79	184.90
635.94	203.63
636.09	257.46
636.24	250.44
636.39	346.40
636.53	332.36
636.68	353.42
636.83	266.82
636.98	320.65
637.13	299.59
637.28	339.38
637.43	447.04
637.57	573.43
637.72	2754.81
637.87	7389.07
638.02	11351.60
638.17	11964.82
638.32	9004.04
638.46	6167.31
638.61	4262.12
638.76	2523.10
638.91	1434.75
639.06	781.74
639.20	631.94
639.35	571.09
639.50	685.78
639.65	4021.04
639.80	11566.93
639.94	17259.11
640.09	18717.26
640.24	14059.60
640.39	9399.59
640.54	6499.67
640.68	3932.10
640.83	1832.64
640.98	908.13
641.13	472.79
641.27	451.72
641.42	430.66
641.57	367.46
641.72	325.33
641.86	383.85
642.01	280.86
642.16	285.55
642.31	273.84
642.45	325.33
642.60	266.82
642.75	294.91
642.90	299.59
643.04	227.03
643.19	166.18
643.34	339.38
643.48	262.14
643.63	217.67
643.78	280.86
643.93	332.36
644.07	259.80
644.22	220.01
644.37	191.92
644.51	280.86
644.66	212.99
644.81	238.73
644.95	217.67
645.10	184.90
645.25	264.48
645.39	250.44
645.54	241.08
645.69	229.37
645.83	234.05
645.98	294.91
646.13	313.63
646.27	287.89
646.42	287.89
646.57	182.56
646.71	252.78
646.86	215.33
647.00	283.20
647.15	273.84
647.30	212.99
647.44	175.54
647.59	191.92
647.74	262.14
647.88	245.76
648.03	287.89
648.17	313.63
648.32	208.31
648.47	201.29
648.61	227.03
648.76	215.33
648.90	234.05
649.05	238.73
649.20	229.37
649.34	245.76
649.49	276.18
649.63	248.10
649.78	301.93
649.92	451.72
650.07	1629.01
650.21	4842.57
650.36	8191.88
650.51	9664.07
650.65	7896.97
650.80	5568.13
650.94	3873.59
651.09	2207.13
651.23	1348.15
651.38	685.78
651.52	435.34
651.67	332.36
651.81	315.97
651.96	344.06
652.10	283.20
652.25	241.08
652.39	322.99
652.54	231.71
652.68	706.84
652.83	1701.57
652.97	2860.13
653.12	3583.36
653.26	3021.63
653.41	2303.09
653.55	1666.46
653.70	1043.88
653.84	678.76
653.99	475.13
654.13	269.16
654.27	212.99
654.42	236.39
654.56	187.24
654.71	271.50
654.85	215.33
655.00	241.08
655.14	231.71
655.29	170.86
655.43	290.23
655.57	149.79
655.72	234.05
655.86	201.29
656.01	177.88
656.15	224.69
656.30	290.23
656.44	161.50
656.58	147.45
656.73	273.84
656.87	238.73
657.01	220.01
657.16	212.99
657.30	227.03
657.45	248.10
657.59	255.12
657.73	201.29
657.88	285.55
658.02	337.04
658.16	292.57
658.31	231.71
658.45	271.50
658.60	264.48
658.74	203.63
658.88	257.46
659.03	184.90
659.17	238.73
659.31	763.01
659.46	2270.32
659.60	4011.68
659.74	4777.03
659.89	4327.65
660.03	3194.83
660.17	2317.13
660.32	1516.67
660.46	922.17
660.60	512.58
660.74	346.40
660.89	241.08
661.03	215.33
661.17	264.48
661.32	159.16
661.46	227.03
661.60	266.82
661.74	180.22
661.89	243.42
662.03	250.44
662.17	205.97
662.31	259.80
662.46	245.76
662.60	269.16
662.74	198.95
662.88	196.60
663.03	189.58
663.17	215.33
663.31	177.88
663.45	241.08
663.60	290.23
663.74	201.29
663.88	203.63
664.02	187.24
664.17	299.59
664.31	196.60
664.45	135.75
664.59	252.78
664.73	278.52
664.88	245.76
665.02	194.26
665.16	285.55
665.30	313.63
665.44	145.11
665.59	227.03
665.73	161.50
665.87	238.73
666.01	278.52
666.15	175.54
666.29	301.93
666.44	262.14
666.58	304.27
666.72	255.12
666.86	313.63
667.00	278.52
667.14	447.04
667.28	1643.06
667.43	4315.95
667.57	6986.50
667.71	8568.70
667.85	7323.54
667.99	5411.32
668.13	3456.97
668.27	2024.56
668.41	1313.04
668.56	706.84
668.70	444.70
668.84	369.80
668.98	280.86
669.12	161.50
669.26	278.52
669.40	245.76
669.54	241.08
669.68	269.16
669.82	283.20
669.96	168.52
670.10	182.56
670.25	304.27
670.39	262.14
670.53	255.12
670.67	215.33
670.81	217.67
670.95	269.16
671.09	489.17
671.23	1671.14
671.37	3527.19
671.51	5081.30
671.65	4978.32
671.79	4117.00
671.93	2874.18
672.07	1926.26
672.21	1057.92
672.35	587.47
672.49	458.74
672.63	360.44
672.77	344.06
672.91	241.08
673.05	294.91
673.19	257.46
673.33	201.29
673.47	217.67
673.61	170.86
673.75	217.67
673.89	227.03
674.03	229.37
674.17	208.31
674.31	229.37
674.45	236.39
674.59	222.35
674.73	170.86
674.87	170.86
675.01	266.82
675.15	264.48
675.29	334.70
675.43	341.72
675.56	250.44
675.70	215.33
675.84	241.08
675.98	264.48
676.12	215.33
676.26	187.24
676.40	163.84
676.54	201.29
676.68	154.48
676.82	208.31
676.96	177.88
677.10	201.29
677.23	203.63
677.37	194.26
677.51	250.44
677.65	255.12
677.79	184.90
677.93	224.69
678.07	227.03
678.21	248.10
678.34	189.58
678.48	173.20
678.62	191.92
678.76	182.56
678.90	224.69
679.04	161.50
679.18	156.82
679.31	210.65
679.45	189.58
679.59	156.82
679.73	119.37
679.87	156.82
680.00	238.73
680.14	175.54
680.28	208.31
680.42	152.13
680.56	147.45
680.70	184.90
680.83	191.92
680.97	147.45
681.11	229.37
681.25	220.01
681.39	182.56
681.52	161.50
681.66	203.63
681.80	231.71
681.94	203.63
682.07	159.16
682.21	234.05
682.35	205.97
682.49	126.39
682.62	236.39
682.76	119.37
682.90	217.67
683.04	173.20
683.17	257.46
683.31	147.45
683.45	161.50
683.59	170.86
683.72	222.35
683.86	196.60
684.00	191.92
684.13	245.76
684.27	196.60
684.41	184.90
684.55	149.79
684.68	166.18
684.82	236.39
684.96	149.79
685.09	163.84
685.23	201.29
685.37	161.50
685.50	238.73
685.64	248.10
685.78	217.67
685.91	175.54
686.05	147.45
686.19	196.60
686.32	182.56
686.46	180.22
686.60	161.50
686.73	273.84
686.87	266.82
687.01	205.97
687.14	180.22
687.28	147.45
687.42	201.29
687.55	215.33
687.69	248.10
687.82	196.60
687.96	175.54
688.10	156.82
688.23	114.69
688.37	133.41
688.50	212.99
688.64	98.30
688.78	187.24
688.91	222.35
689.05	110.01
689.18	95.96
689.32	201.29
689.46	205.97
689.59	250.44
689.73	159.16
689.86	126.39
690.00	161.50
690.13	215.33
690.27	107.66
690.41	222.35
690.54	177.88
690.68	180.22
690.81	173.20
690.95	175.54
691.08	156.82
691.22	152.13
691.35	140.43
691.49	173.20
691.62	234.05
691.76	205.97
691.89	201.29
692.03	189.58
692.16	166.18
692.30	227.03
692.43	688.12
692.57	1741.36
692.70	2878.86
692.84	3679.32
692.97	3253.34
693.11	2509.05
693.24	1776.47
693.38	1331.76
693.51	917.49
693.65	617.90
693.78	360.44
693.92	376.83
694.05	250.44
694.19	154.48
694.32	255.12
694.45	180.22
694.59	217.67
694.72	184.90
694.86	121.71
694.99	154.48
695.13	163.84
695.26	180.22
695.39	210.65
695.53	224.69
695.66	126.39
695.80	210.65
695.93	177.88
696.07	217.67
696.20	313.63
696.33	327.68
696.47	411.93
696.60	388.53
696.73	341.72
696.87	280.86
697.00	262.14
697.14	231.71
697.27	215.33
697.40	208.31
697.54	241.08
697.67	210.65
697.80	222.35
697.94	161.50
698.07	238.73
698.21	170.86
698.34	156.82
698.47	161.50
698.61	107.66
698.74	220.01
698.87	177.88
699.01	81.92
699.14	133.41
699.27	170.86
699.40	271.50
699.54	175.54
699.67	159.16
699.80	196.60
699.94	177.88
700.07	205.97
700.20	220.01
700.34	147.45
700.47	145.11
700.60	100.64
700.73	135.75
700.87	208.31
701.00	163.84
701.13	224.69
701.26	145.11
701.40	229.37
701.53	243.42
701.66	138.09
701.79	205.97
701.93	231.71
702.06	348.74
702.19	447.04
702.32	465.77
702.46	393.21
702.59	318.31
702.72	662.37
702.85	2284.36
702.99	4608.51
703.12	6457.54
703.25	6986.50
703.38	6012.84
703.51	4603.83
703.65	3712.09
703.78	2614.38
703.91	1748.38
704.04	1095.37
704.17	767.70
704.31	437.68
704.44	365.12
704.57	287.89
704.70	243.42
704.83	170.86
704.96	177.88
705.10	224.69
705.23	191.92
>>>>>End Processed Spectral Data<<<<<
