SpectraSuite Data File
++++++++++++++++++++++++++++++++++++
Date: Fri Oct 04 12:13:33 GMT-05:00 2013
User: price-jones
Dark Spectrum Present: No
Reference Spectrum Present: No
Number of Sampled Component Spectra: 1
Spectrometers: USB2+H05261
Integration Time (usec): 10000 (USB2+H05261)
Spectra Averaged: 1 (USB2+H05261)
Boxcar Smoothing: 0 (USB2+H05261)
Correct for Electrical Dark: No (USB2+H05261)
Strobe/Lamp Enabled: No (USB2+H05261)
Correct for Detector Non-linearity: No (USB2+H05261)
Correct for Stray Light: No (USB2+H05261)
Number of Pixels in Processed Spectrum: 2048
>>>>>Begin Processed Spectral Data<<<<<
365.73	14.04
365.92	14.04
366.12	14.04
366.32	0.00
366.52	0.00
366.72	0.00
366.91	0.00
367.11	0.00
367.31	0.00
367.51	0.00
367.70	0.00
367.90	0.00
368.10	0.00
368.30	0.00
368.49	0.00
368.69	0.00
368.89	0.00
369.09	0.00
369.28	0.00
369.48	0.00
369.68	0.00
369.87	0.00
370.07	0.00
370.27	0.00
370.47	0.00
370.66	23.41
370.86	0.00
371.06	58.51
371.25	117.03
371.45	107.66
371.65	161.50
371.84	30.43
372.04	98.30
372.24	147.45
372.44	142.77
372.63	147.45
372.83	142.77
373.03	67.88
373.22	86.60
373.42	140.43
373.62	124.05
373.81	189.58
374.01	107.66
374.21	135.75
374.40	133.41
374.60	95.96
374.79	152.13
374.99	135.75
375.19	147.45
375.38	248.10
375.58	142.77
375.78	173.20
375.97	191.92
376.17	205.97
376.37	124.05
376.56	173.20
376.76	128.73
376.95	182.56
377.15	152.13
377.35	170.86
377.54	222.35
377.74	187.24
377.93	152.13
378.13	243.42
378.33	250.44
378.52	124.05
378.72	241.08
378.91	236.39
379.11	133.41
379.31	191.92
379.50	119.37
379.70	224.69
379.89	222.35
380.09	205.97
380.28	215.33
380.48	184.90
380.68	187.24
380.87	152.13
381.07	149.79
381.26	138.09
381.46	138.09
381.65	154.48
381.85	140.43
382.04	131.07
382.24	117.03
382.43	88.94
382.63	95.96
382.83	220.01
383.02	117.03
383.22	126.39
383.41	154.48
383.61	152.13
383.80	177.88
384.00	231.71
384.19	198.95
384.39	231.71
384.58	266.82
384.78	196.60
384.97	166.18
385.17	166.18
385.36	131.07
385.56	191.92
385.75	88.94
385.95	205.97
386.14	278.52
386.34	198.95
386.53	163.84
386.72	191.92
386.92	191.92
387.11	238.73
387.31	208.31
387.50	271.50
387.70	161.50
387.89	147.45
388.09	201.29
388.28	168.52
388.48	163.84
388.67	231.71
388.86	222.35
389.06	234.05
389.25	262.14
389.45	241.08
389.64	229.37
389.84	285.55
390.03	180.22
390.22	304.27
390.42	262.14
390.61	229.37
390.81	334.70
391.00	224.69
391.19	241.08
391.39	276.18
391.58	278.52
391.78	203.63
391.97	220.01
392.16	283.20
392.36	210.65
392.55	257.46
392.75	166.18
392.94	133.41
393.13	124.05
393.33	121.71
393.52	191.92
393.71	201.29
393.91	191.92
394.10	205.97
394.29	266.82
394.49	337.04
394.68	238.73
394.88	259.80
395.07	294.91
395.26	180.22
395.46	285.55
395.65	322.99
395.84	236.39
396.04	205.97
396.23	166.18
396.42	124.05
396.62	128.73
396.81	229.37
397.00	201.29
397.19	248.10
397.39	276.18
397.58	311.29
397.77	365.12
397.97	397.89
398.16	353.42
398.35	386.19
398.55	383.85
398.74	425.98
398.93	379.17
399.12	423.64
399.32	388.53
399.51	369.80
399.70	367.46
399.90	449.38
400.09	367.46
400.28	489.17
400.47	440.02
400.67	374.49
400.86	449.38
401.05	365.12
401.24	437.68
401.44	400.23
401.63	430.66
401.82	507.90
402.01	390.87
402.21	393.21
402.40	447.04
402.59	517.26
402.78	365.12
402.97	409.59
403.17	425.98
403.36	442.36
403.55	526.62
403.74	517.26
403.93	444.70
404.13	456.40
404.32	416.62
404.51	341.72
404.70	449.38
404.89	442.36
405.09	482.15
405.28	472.79
405.47	475.13
405.66	362.78
405.85	433.00
406.05	315.97
406.24	414.27
406.43	390.87
406.62	454.06
406.81	425.98
407.00	552.37
407.20	512.58
407.39	404.91
407.58	440.02
407.77	430.66
407.96	463.43
408.15	482.15
408.34	475.13
408.54	489.17
408.73	484.49
408.92	507.90
409.11	465.77
409.30	505.56
409.49	418.96
409.68	500.87
409.87	463.43
410.07	433.00
410.26	458.74
410.45	428.32
410.64	479.81
410.83	472.79
411.02	547.69
411.21	486.83
411.40	519.60
411.59	505.56
411.78	510.24
411.98	472.79
412.17	524.28
412.36	433.00
412.55	486.83
412.74	484.49
412.93	533.64
413.12	479.81
413.31	592.16
413.50	596.84
413.69	498.53
413.88	531.30
414.07	496.19
414.26	507.90
414.45	486.83
414.64	550.03
414.83	550.03
415.02	491.51
415.22	573.43
415.41	582.79
415.60	582.79
415.79	592.16
415.98	535.98
416.17	573.43
416.36	603.86
416.55	482.15
416.74	484.49
416.93	505.56
417.12	554.71
417.31	559.39
417.50	496.19
417.69	507.90
417.88	641.31
418.07	521.94
418.26	545.34
418.45	575.77
418.64	608.54
418.83	601.52
419.02	599.18
419.21	564.07
419.39	594.50
419.58	589.82
419.77	580.45
419.96	486.83
420.15	496.19
420.34	552.37
420.53	732.59
420.72	643.65
420.91	610.88
421.10	615.56
421.29	641.31
421.48	526.62
421.67	585.13
421.86	648.33
422.05	498.53
422.24	475.13
422.43	503.22
422.61	505.56
422.80	608.54
422.99	629.60
423.18	634.29
423.37	629.60
423.56	514.92
423.75	458.74
423.94	550.03
424.13	589.82
424.32	573.43
424.50	615.56
424.69	547.69
424.88	543.00
425.07	580.45
425.26	496.19
425.45	557.05
425.64	503.22
425.83	566.41
426.01	585.13
426.20	538.32
426.39	636.63
426.58	557.05
426.77	613.22
426.96	514.92
427.15	512.58
427.33	547.69
427.52	608.54
427.71	599.18
427.90	582.79
428.09	573.43
428.28	561.73
428.46	594.50
428.65	566.41
428.84	545.34
429.03	566.41
429.22	428.32
429.40	454.06
429.59	475.13
429.78	383.85
429.97	411.93
430.16	416.62
430.34	355.76
430.53	397.89
430.72	390.87
430.91	404.91
431.10	484.49
431.28	535.98
431.47	643.65
431.66	699.82
431.85	599.18
432.03	463.43
432.22	528.96
432.41	531.30
432.60	575.77
432.79	606.20
432.97	645.99
433.16	699.82
433.35	540.66
433.54	540.66
433.72	496.19
433.91	500.87
434.10	526.62
434.28	585.13
434.47	613.22
434.66	592.16
434.85	681.10
435.03	531.30
435.22	617.90
435.41	681.10
435.59	575.77
435.78	716.20
435.97	727.91
436.16	634.29
436.34	664.71
436.53	667.05
436.72	723.23
436.90	653.01
437.09	564.07
437.28	615.56
437.46	641.31
437.65	608.54
437.84	624.92
438.02	592.16
438.21	603.86
438.40	587.47
438.58	645.99
438.77	622.58
438.96	610.88
439.14	641.31
439.33	629.60
439.52	660.03
439.70	631.94
439.89	732.59
440.08	578.11
440.26	636.63
440.45	660.03
440.63	718.54
440.82	662.37
441.01	692.80
441.19	793.44
441.38	737.27
441.57	763.01
441.75	753.65
441.94	819.19
442.12	795.78
442.31	718.54
442.50	741.95
442.68	692.80
442.87	746.63
443.05	772.38
443.24	758.33
443.43	699.82
443.61	835.57
443.80	781.74
443.98	798.12
444.17	699.82
444.35	741.95
444.54	772.38
444.73	702.16
444.91	767.70
445.10	765.36
445.28	709.18
445.47	730.25
445.65	674.07
445.84	774.72
446.02	699.82
446.21	784.08
446.39	809.83
446.58	716.20
446.77	767.70
446.95	765.36
447.14	786.42
447.32	800.46
447.51	791.10
447.69	823.87
447.88	753.65
448.06	812.17
448.25	777.06
448.43	837.91
448.62	760.67
448.80	753.65
448.99	753.65
449.17	767.70
449.36	877.70
449.54	861.32
449.73	842.59
449.91	910.47
450.10	884.72
450.28	866.00
450.46	821.53
450.65	896.43
450.83	861.32
451.02	915.15
451.20	814.51
451.39	851.96
451.57	880.04
451.76	791.10
451.94	774.72
452.13	847.27
452.31	784.08
452.49	812.17
452.68	763.01
452.86	713.86
453.05	767.70
453.23	821.53
453.42	725.57
453.60	812.17
453.78	833.23
453.97	870.68
454.15	821.53
454.34	812.17
454.52	840.25
454.70	816.85
454.89	772.38
455.07	779.40
455.26	858.98
455.44	748.97
455.62	821.53
455.81	830.89
455.99	826.21
456.17	870.68
456.36	741.95
456.54	798.12
456.73	889.40
456.91	873.02
457.09	933.87
457.28	957.28
457.46	868.34
457.64	936.21
457.83	753.65
458.01	765.36
458.19	821.53
458.38	821.53
458.56	784.08
458.74	891.74
458.93	861.32
459.11	828.55
459.29	851.96
459.48	814.51
459.66	847.27
459.84	800.46
460.03	910.47
460.21	774.72
460.39	802.80
460.57	863.66
460.76	903.45
460.94	856.64
461.12	840.25
461.31	856.64
461.49	908.13
461.67	887.06
461.85	842.59
462.04	866.00
462.22	1004.09
462.40	919.83
462.59	875.36
462.77	851.96
462.95	887.06
463.13	866.00
463.32	887.06
463.50	926.85
463.68	901.11
463.86	903.45
464.05	880.04
464.23	849.61
464.41	905.79
464.59	863.66
464.78	856.64
464.96	973.66
465.14	861.32
465.32	840.25
465.50	880.04
465.69	933.87
465.87	919.83
466.05	779.40
466.23	819.19
466.41	786.42
466.60	833.23
466.78	826.21
466.96	866.00
467.14	873.02
467.32	842.59
467.51	880.04
467.69	837.91
467.87	819.19
468.05	910.47
468.23	821.53
468.41	840.25
468.60	884.72
468.78	882.38
468.96	837.91
469.14	915.15
469.32	861.32
469.50	842.59
469.69	814.51
469.87	791.10
470.05	788.76
470.23	779.40
470.41	793.44
470.59	887.06
470.77	931.53
470.95	844.93
471.14	844.93
471.32	833.23
471.50	940.90
471.68	961.96
471.86	929.19
472.04	922.17
472.22	1039.20
472.40	978.34
472.58	858.98
472.77	945.58
472.95	884.72
473.13	898.77
473.31	924.51
473.49	882.38
473.67	849.61
473.85	891.74
474.03	938.55
474.21	957.28
474.39	938.55
474.57	858.98
474.75	922.17
474.93	875.36
475.12	868.34
475.30	964.30
475.48	938.55
475.66	929.19
475.84	961.96
476.02	926.85
476.20	884.72
476.38	961.96
476.56	943.24
476.74	959.62
476.92	971.32
477.10	990.05
477.28	971.32
477.46	957.28
477.64	1032.18
477.82	1011.11
478.00	1114.10
478.18	1029.84
478.36	1071.97
478.54	1048.56
478.72	1039.20
478.90	1142.18
479.08	1043.88
479.26	1020.47
479.44	1228.78
479.62	1036.86
479.80	1097.71
479.98	1090.69
480.16	1025.15
480.34	997.07
480.52	1064.94
480.70	1018.13
480.88	1109.41
481.06	1008.77
481.24	1151.54
481.41	1170.27
481.59	1156.22
481.77	1184.31
481.95	1203.04
482.13	1088.35
482.31	1151.54
482.49	1172.61
482.67	1149.20
482.85	1174.95
483.03	1224.10
483.21	1200.69
483.39	1172.61
483.57	1245.16
483.74	1060.26
483.92	1177.29
484.10	1200.69
484.28	1142.18
484.46	1228.78
484.64	1235.80
484.82	1200.69
485.00	1198.35
485.18	1179.63
485.35	1139.84
485.53	1053.24
485.71	910.47
485.89	947.92
486.07	931.53
486.25	1111.75
486.43	1111.75
486.61	1160.91
486.78	1181.97
486.96	1165.59
487.14	1186.65
487.32	1268.57
487.50	1270.91
487.68	1160.91
487.85	1259.21
488.03	1254.53
488.21	1394.96
488.39	1261.55
488.57	1149.20
488.75	1177.29
488.92	1174.95
489.10	1327.08
489.28	1399.64
489.46	1409.00
489.64	1364.53
489.81	1483.90
489.99	1465.18
490.17	1472.20
490.35	1404.32
490.53	1359.85
490.70	1411.34
490.88	1437.09
491.06	1523.69
491.24	1378.58
491.41	1397.30
491.59	1404.32
491.77	1289.64
491.95	1378.58
492.13	1413.68
492.30	1537.73
492.48	1376.24
492.66	1533.05
492.84	1474.54
493.01	1493.26
493.19	1497.94
493.37	1497.94
493.54	1352.83
493.72	1462.83
493.90	1537.73
494.08	1502.62
494.25	1544.75
494.43	1490.92
494.61	1551.78
494.79	1575.18
494.96	1666.46
495.14	1497.94
495.32	1486.24
495.49	1474.54
495.67	1584.54
495.85	1636.03
496.02	1743.70
496.20	1558.80
496.38	1603.27
496.55	1645.40
496.73	1589.22
496.91	1661.78
497.09	1650.08
497.26	1729.66
497.44	1675.82
497.62	1589.22
497.79	1472.20
497.97	1519.01
498.14	1526.03
498.32	1675.82
498.50	1547.09
498.67	1645.40
498.85	1659.44
499.03	1689.87
499.20	1659.44
499.38	1757.74
499.56	1685.19
499.73	1523.69
499.91	1596.25
500.08	1617.31
500.26	1526.03
500.44	1561.14
500.61	1507.30
500.79	1631.35
500.97	1579.86
501.14	1568.16
501.32	1507.30
501.49	1563.48
501.67	1490.92
501.84	1621.99
502.02	1544.75
502.20	1626.67
502.37	1668.80
502.55	1650.08
502.72	1713.27
502.90	1673.48
503.07	1703.91
503.25	1554.12
503.43	1537.73
503.60	1481.56
503.78	1502.62
503.95	1500.28
504.13	1584.54
504.30	1652.42
504.48	1652.42
504.65	1582.20
504.83	1657.10
505.01	1692.21
505.18	1734.34
505.36	1750.72
505.53	1727.32
505.71	1764.76
505.88	1605.61
506.06	1816.26
506.23	1692.21
506.41	1692.21
506.58	1689.87
506.76	1589.22
506.93	1689.87
507.11	1633.69
507.28	1607.95
507.46	1645.40
507.63	1563.48
507.81	1678.16
507.98	1708.59
508.16	1682.85
508.33	1535.39
508.50	1671.14
508.68	1666.46
508.85	1724.97
509.03	1774.13
509.20	1837.32
509.38	1701.57
509.55	1668.80
509.73	1589.22
509.90	1647.74
510.08	1666.46
510.25	1746.04
510.42	1689.87
510.60	1561.14
510.77	1713.27
510.95	1741.36
511.12	1764.76
511.30	1764.76
511.47	1830.30
511.64	1734.34
511.82	1783.49
511.99	1743.70
512.17	1696.89
512.34	1699.23
512.51	1666.46
512.69	1654.76
512.86	1741.36
513.04	1727.32
513.21	1746.04
513.38	1682.85
513.56	1680.50
513.73	1694.55
513.90	1706.25
514.08	1650.08
514.25	1624.33
514.43	1701.57
514.60	1715.61
514.77	1696.89
514.95	1748.38
515.12	1771.79
515.29	1680.50
515.47	1699.23
515.64	1762.42
515.81	1657.10
515.99	1685.19
516.16	1561.14
516.33	1556.46
516.51	1458.15
516.68	1329.42
516.85	1486.24
517.03	1432.41
517.20	1556.46
517.37	1680.50
517.54	1692.21
517.72	1575.18
517.89	1488.58
518.06	1469.86
518.24	1483.90
518.41	1572.84
518.58	1722.63
518.75	1561.14
518.93	1689.87
519.10	1699.23
519.27	1589.22
519.45	1717.95
519.62	1659.44
519.79	1668.80
519.96	1748.38
520.14	1643.06
520.31	1596.25
520.48	1664.12
520.65	1549.43
520.83	1689.87
521.00	1741.36
521.17	1692.21
521.34	1673.48
521.52	1717.95
521.69	1619.65
521.86	1795.19
522.03	1809.23
522.20	1820.94
522.38	1617.31
522.55	1598.59
522.72	1591.56
522.89	1664.12
523.07	1722.63
523.24	1727.32
523.41	1739.02
523.58	1797.53
523.75	1898.17
523.92	1710.93
524.10	1753.06
524.27	1748.38
524.44	1804.55
524.61	1734.34
524.78	1760.08
524.96	1856.04
525.13	1935.62
525.30	1799.87
525.47	1753.06
525.64	1792.85
525.81	1727.32
525.98	1629.01
526.16	1668.80
526.33	1486.24
526.50	1629.01
526.67	1507.30
526.84	1570.50
527.01	1591.56
527.18	1621.99
527.36	1652.42
527.53	1703.91
527.70	1844.34
527.87	1736.68
528.04	1626.67
528.21	1760.08
528.38	1762.42
528.55	1804.55
528.72	1832.64
528.89	1856.04
529.07	1886.47
529.24	1792.85
529.41	1813.92
529.58	1783.49
529.75	1682.85
529.92	1666.46
530.09	1680.50
530.26	1837.32
530.43	1867.75
530.60	1713.27
530.77	1888.81
530.94	1760.08
531.11	1846.68
531.28	1762.42
531.46	1795.19
531.63	1797.53
531.80	1734.34
531.97	1732.00
532.14	1673.48
532.31	1577.52
532.48	1701.57
532.65	1600.93
532.82	1668.80
532.99	1720.29
533.16	1795.19
533.33	1764.76
533.50	1792.85
533.67	1767.10
533.84	1727.32
534.01	1797.53
534.18	1785.83
534.35	1654.76
534.52	1792.85
534.69	1797.53
534.86	1722.63
535.03	1844.34
535.20	1797.53
535.37	1818.60
535.54	1959.03
535.71	1863.07
535.88	1776.47
536.05	1778.81
536.22	1755.40
536.38	1724.97
536.55	1600.93
536.72	1640.72
536.89	1621.99
537.06	1640.72
537.23	1783.49
537.40	1799.87
537.57	1827.96
537.74	1802.21
537.91	1795.19
538.08	1811.57
538.25	1776.47
538.42	1795.19
538.59	1785.83
538.75	1650.08
538.92	1769.44
539.09	1722.63
539.26	1678.16
539.43	1671.14
539.60	1687.53
539.77	1708.59
539.94	1771.79
540.11	1645.40
540.28	1617.31
540.44	1652.42
540.61	1533.05
540.78	1652.42
540.95	1666.46
541.12	1544.75
541.29	1598.59
541.46	1673.48
541.62	1678.16
541.79	1699.23
541.96	1680.50
542.13	1668.80
542.30	1696.89
542.47	1715.61
542.63	1732.00
542.80	1767.10
542.97	1750.72
543.14	1671.14
543.31	1664.12
543.48	1586.88
543.64	1708.59
543.81	1818.60
543.98	1830.30
544.15	1776.47
544.32	1633.69
544.48	1666.46
544.65	1732.00
544.82	1710.93
544.99	1804.55
545.16	1607.95
545.32	1626.67
545.49	1706.25
545.66	1762.42
545.83	1671.14
546.00	1666.46
546.16	1657.10
546.33	1629.01
546.50	1741.36
546.67	1783.49
546.83	1736.68
547.00	1647.74
547.17	1598.59
547.34	1668.80
547.50	1582.20
547.67	1659.44
547.84	1551.78
548.00	1724.97
548.17	1727.32
548.34	1710.93
548.51	1680.50
548.67	1535.39
548.84	1778.81
549.01	1619.65
549.18	1734.34
549.34	1526.03
549.51	1680.50
549.68	1732.00
549.84	1664.12
550.01	1764.76
550.18	1715.61
550.34	1593.90
550.51	1720.29
550.68	1652.42
550.84	1755.40
551.01	1617.31
551.18	1593.90
551.34	1685.19
551.51	1673.48
551.68	1631.35
551.84	1668.80
552.01	1675.82
552.18	1689.87
552.34	1652.42
552.51	1526.03
552.68	1689.87
552.84	1455.81
553.01	1685.19
553.18	1600.93
553.34	1682.85
553.51	1528.37
553.67	1666.46
553.84	1724.97
554.01	1626.67
554.17	1675.82
554.34	1743.70
554.51	1743.70
554.67	1678.16
554.84	1797.53
555.00	1724.97
555.17	1708.59
555.33	1696.89
555.50	1610.29
555.67	1715.61
555.83	1671.14
556.00	1638.38
556.16	1654.76
556.33	1643.06
556.50	1589.22
556.66	1617.31
556.83	1558.80
556.99	1650.08
557.16	1703.91
557.32	1689.87
557.49	1689.87
557.65	1579.86
557.82	1598.59
557.98	1589.22
558.15	1638.38
558.32	1600.93
558.48	1504.96
558.65	1533.05
558.81	1586.88
558.98	1572.84
559.14	1509.65
559.31	1544.75
559.47	1472.20
559.64	1586.88
559.80	1582.20
559.97	1521.35
560.13	1619.65
560.30	1600.93
560.46	1673.48
560.63	1659.44
560.79	1764.76
560.96	1600.93
561.12	1570.50
561.29	1558.80
561.45	1572.84
561.61	1511.99
561.78	1582.20
561.94	1493.26
562.11	1568.16
562.27	1563.48
562.44	1621.99
562.60	1556.46
562.77	1533.05
562.93	1575.18
563.10	1696.89
563.26	1575.18
563.42	1647.74
563.59	1563.48
563.75	1626.67
563.92	1586.88
564.08	1586.88
564.24	1575.18
564.41	1582.20
564.57	1558.80
564.74	1579.86
564.90	1596.25
565.07	1565.82
565.23	1495.60
565.39	1378.58
565.56	1495.60
565.72	1469.86
565.88	1509.65
566.05	1490.92
566.21	1533.05
566.38	1593.90
566.54	1547.09
566.70	1554.12
566.87	1591.56
567.03	1437.09
567.19	1540.07
567.36	1568.16
567.52	1537.73
567.68	1469.86
567.85	1366.87
568.01	1458.15
568.17	1441.77
568.34	1394.96
568.50	1364.53
568.66	1359.85
568.83	1418.36
568.99	1493.26
569.15	1327.08
569.32	1476.88
569.48	1390.28
569.64	1423.05
569.81	1420.71
569.97	1366.87
570.13	1530.71
570.30	1362.19
570.46	1453.47
570.62	1355.17
570.78	1362.19
570.95	1334.11
571.11	1493.26
571.27	1385.60
571.43	1397.30
571.60	1427.73
571.76	1427.73
571.92	1476.88
572.09	1406.66
572.25	1497.94
572.41	1425.39
572.57	1404.32
572.74	1413.68
572.90	1427.73
573.06	1521.35
573.22	1420.71
573.38	1390.28
573.55	1376.24
573.71	1411.34
573.87	1511.99
574.03	1451.13
574.20	1315.38
574.36	1514.33
574.52	1387.94
574.68	1483.90
574.84	1357.51
575.01	1329.42
575.17	1294.32
575.33	1327.08
575.49	1268.57
575.65	1448.79
575.82	1430.07
575.98	1413.68
576.14	1299.00
576.30	1397.30
576.46	1465.18
576.62	1406.66
576.79	1366.87
576.95	1369.21
577.11	1331.76
577.27	1350.49
577.43	1329.42
577.59	1348.15
577.75	1387.94
577.92	1263.89
578.08	1364.53
578.24	1373.89
578.40	1404.32
578.56	1355.17
578.72	1387.94
578.88	1399.64
579.04	1357.51
579.21	1334.11
579.37	1345.81
579.53	1371.55
579.69	1399.64
579.85	1392.62
580.01	1334.11
580.17	1306.02
580.33	1306.02
580.49	1341.13
580.65	1378.58
580.82	1369.21
580.98	1406.66
581.14	1416.02
581.30	1343.47
581.46	1343.47
581.62	1364.53
581.78	1303.68
581.94	1376.24
582.10	1376.24
582.26	1390.28
582.42	1348.15
582.58	1385.60
582.74	1394.96
582.90	1306.02
583.06	1493.26
583.22	1416.02
583.38	1390.28
583.54	1317.72
583.70	1341.13
583.86	1352.83
584.02	1362.19
584.18	1427.73
584.34	1331.76
584.50	1371.55
584.66	1387.94
584.82	1294.32
584.98	1373.89
585.14	1427.73
585.30	1371.55
585.46	1259.21
585.62	1249.85
585.78	1364.53
585.94	1273.25
586.10	1336.45
586.26	1294.32
586.42	1266.23
586.58	1336.45
586.74	1397.30
586.90	1299.00
587.06	1378.58
587.22	1327.08
587.38	1287.29
587.54	1256.87
587.70	1284.95
587.86	1296.66
588.02	1210.06
588.18	1214.74
588.34	1130.48
588.49	1011.11
588.65	1083.67
588.81	1048.56
588.97	915.15
589.13	985.37
589.29	940.90
589.45	957.28
589.61	1057.92
589.77	1060.26
589.93	1069.62
590.08	1097.71
590.24	1114.10
590.40	1186.65
590.56	1299.00
590.72	997.07
590.88	1163.25
591.04	1107.07
591.20	1034.52
591.35	1067.28
591.51	1156.22
591.67	1167.93
591.83	1086.01
591.99	1043.88
592.15	1074.31
592.31	1076.65
592.46	1137.50
592.62	1137.50
592.78	1196.01
592.94	1165.59
593.10	1172.61
593.26	1217.08
593.41	1301.34
593.57	1160.91
593.73	1181.97
593.89	1095.37
594.05	1069.62
594.20	1132.82
594.36	1109.41
594.52	922.17
594.68	1081.33
594.84	1149.20
594.99	1167.93
595.15	1249.85
595.31	1132.82
595.47	1186.65
595.62	1219.42
595.78	1259.21
595.94	1191.33
596.10	1219.42
596.25	1172.61
596.41	1238.14
596.57	1004.09
596.73	1104.73
596.88	1125.80
597.04	1118.78
597.20	1130.48
597.36	1123.46
597.51	1078.99
597.67	1057.92
597.83	1214.74
597.99	1060.26
598.14	1263.89
598.30	1198.35
598.46	1212.40
598.61	1219.42
598.77	1160.91
598.93	1139.84
599.09	1191.33
599.24	1207.72
599.40	1224.10
599.56	1240.48
599.71	1233.46
599.87	1207.72
600.03	1081.33
600.18	1170.27
600.34	1167.93
600.50	1188.99
600.65	1259.21
600.81	1217.08
600.97	1184.31
601.12	1156.22
601.28	1121.12
601.44	1214.74
601.59	1123.46
601.75	1163.25
601.91	1196.01
602.06	1172.61
602.22	1170.27
602.37	1200.69
602.53	1238.14
602.69	1191.33
602.84	1259.21
603.00	1256.87
603.16	1219.42
603.31	1231.12
603.47	1179.63
603.62	1196.01
603.78	1231.12
603.94	1270.91
604.09	1207.72
604.25	1193.67
604.40	1149.20
604.56	1252.19
604.71	1266.23
604.87	1217.08
605.03	1291.98
605.18	1158.57
605.34	1205.38
605.49	1188.99
605.65	1210.06
605.80	1214.74
605.96	1125.80
606.12	1263.89
606.27	1231.12
606.43	1151.54
606.58	1254.53
606.74	1249.85
606.89	1242.82
607.05	1179.63
607.20	1186.65
607.36	1247.51
607.51	1167.93
607.67	1160.91
607.82	1174.95
607.98	1165.59
608.13	1256.87
608.29	1135.16
608.44	1153.88
608.60	1104.73
608.75	1163.25
608.91	1144.52
609.06	1128.14
609.22	1121.12
609.37	1128.14
609.53	1043.88
609.68	1174.95
609.84	1125.80
609.99	1132.82
610.15	1123.46
610.30	1039.20
610.46	1144.52
610.61	1146.86
610.76	1107.07
610.92	1132.82
611.07	1235.80
611.23	1144.52
611.38	1093.03
611.54	1069.62
611.69	1053.24
611.84	1123.46
612.00	1004.09
612.15	1025.15
612.31	1029.84
612.46	1111.75
612.62	1046.22
612.77	1109.41
612.92	1034.52
613.08	1130.48
613.23	1046.22
613.39	1060.26
613.54	959.62
613.69	1053.24
613.85	1076.65
614.00	954.94
614.15	1097.71
614.31	1078.99
614.46	1146.86
614.62	1174.95
614.77	1069.62
614.92	1050.90
615.08	1076.65
615.23	1036.86
615.38	1139.84
615.54	1004.09
615.69	980.68
615.84	980.68
616.00	1041.54
616.15	933.87
616.30	1020.47
616.46	997.07
616.61	1057.92
616.76	971.32
616.92	908.13
617.07	1060.26
617.22	1076.65
617.37	1036.86
617.53	1062.60
617.68	1034.52
617.83	1160.91
617.99	1095.37
618.14	1097.71
618.29	1053.24
618.45	983.02
618.60	1093.03
618.75	961.96
618.90	968.98
619.06	1100.05
619.21	1020.47
619.36	1107.07
619.51	1025.15
619.67	1062.60
619.82	1086.01
619.97	1029.84
620.12	1064.94
620.28	1029.84
620.43	1062.60
620.58	1083.67
620.73	978.34
620.89	980.68
621.04	1074.31
621.19	980.68
621.34	992.39
621.49	997.07
621.65	901.11
621.80	1029.84
621.95	968.98
622.10	978.34
622.25	1025.15
622.41	1064.94
622.56	1043.88
622.71	912.81
622.86	877.70
623.01	910.47
623.16	901.11
623.32	985.37
623.47	952.60
623.62	915.15
623.77	997.07
623.92	940.90
624.07	968.98
624.23	968.98
624.38	917.49
624.53	919.83
624.68	903.45
624.83	931.53
624.98	1123.46
625.13	929.19
625.29	910.47
625.44	896.43
625.59	950.26
625.74	980.68
625.89	997.07
626.04	821.53
626.19	898.77
626.34	959.62
626.49	987.71
626.65	847.27
626.80	898.77
626.95	950.26
627.10	901.11
627.25	858.98
627.40	910.47
627.55	767.70
627.70	823.87
627.85	894.08
628.00	887.06
628.15	875.36
628.30	870.68
628.45	866.00
628.60	889.40
628.76	891.74
628.91	910.47
629.06	924.51
629.21	882.38
629.36	854.30
629.51	837.91
629.66	910.47
629.81	816.85
629.96	873.02
630.11	903.45
630.26	908.13
630.41	880.04
630.56	875.36
630.71	819.19
630.86	873.02
631.01	887.06
631.16	889.40
631.31	858.98
631.46	856.64
631.61	894.08
631.76	802.80
631.91	833.23
632.06	849.61
632.21	926.85
632.36	901.11
632.51	823.87
632.66	854.30
632.81	863.66
632.96	912.81
633.10	880.04
633.25	898.77
633.40	833.23
633.55	863.66
633.70	844.93
633.85	926.85
634.00	884.72
634.15	887.06
634.30	823.87
634.45	833.23
634.60	905.79
634.75	997.07
634.90	816.85
635.05	926.85
635.19	873.02
635.34	854.30
635.49	861.32
635.64	840.25
635.79	882.38
635.94	873.02
636.09	837.91
636.24	868.34
636.39	809.83
636.53	840.25
636.68	863.66
636.83	774.72
636.98	805.14
637.13	854.30
637.28	861.32
637.43	884.72
637.57	812.17
637.72	896.43
637.87	847.27
638.02	812.17
638.17	812.17
638.32	814.51
638.46	844.93
638.61	938.55
638.76	812.17
638.91	812.17
639.06	866.00
639.20	884.72
639.35	849.61
639.50	812.17
639.65	833.23
639.80	847.27
639.94	777.06
640.09	854.30
640.24	795.78
640.39	751.31
640.54	816.85
640.68	777.06
640.83	847.27
640.98	739.61
641.13	784.08
641.27	786.42
641.42	873.02
641.57	788.76
641.72	805.14
641.86	791.10
642.01	802.80
642.16	828.55
642.31	835.57
642.45	866.00
642.60	837.91
642.75	753.65
642.90	788.76
643.04	765.36
643.19	795.78
643.34	898.77
643.48	908.13
643.63	763.01
643.78	709.18
643.93	739.61
644.07	793.44
644.22	732.59
644.37	774.72
644.51	713.86
644.66	779.40
644.81	802.80
644.95	737.27
645.10	739.61
645.25	695.14
645.39	688.12
645.54	800.46
645.69	758.33
645.83	671.73
645.98	699.82
646.13	744.29
646.27	734.93
646.42	763.01
646.57	657.69
646.71	636.63
646.86	650.67
647.00	650.67
647.15	683.44
647.30	704.50
647.44	683.44
647.59	732.59
647.74	709.18
647.88	716.20
648.03	575.77
648.17	655.35
648.32	671.73
648.47	784.08
648.61	615.56
648.76	678.76
648.90	622.58
649.05	669.39
649.20	629.60
649.34	643.65
649.49	615.56
649.63	636.63
649.78	720.88
649.92	681.10
650.07	603.86
650.21	674.07
650.36	739.61
650.51	699.82
650.65	763.01
650.80	770.04
650.94	730.25
651.09	770.04
651.23	676.41
651.38	676.41
651.52	587.47
651.67	596.84
651.81	645.99
651.96	704.50
652.10	610.88
652.25	674.07
652.39	755.99
652.54	739.61
652.68	777.06
652.83	704.50
652.97	660.03
653.12	741.95
653.26	617.90
653.41	739.61
653.55	755.99
653.70	660.03
653.84	636.63
653.99	716.20
654.13	664.71
654.27	645.99
654.42	653.01
654.56	596.84
654.71	629.60
654.85	573.43
655.00	606.20
655.14	561.73
655.29	620.24
655.43	578.11
655.57	601.52
655.72	585.13
655.86	512.58
656.01	475.13
656.15	561.73
656.30	519.60
656.44	514.92
656.58	617.90
656.73	744.29
656.87	655.35
657.01	596.84
657.16	622.58
657.30	695.14
657.45	664.71
657.59	685.78
657.73	690.46
657.88	704.50
658.02	678.76
658.16	657.69
658.31	674.07
658.45	580.45
658.60	573.43
658.74	718.54
658.88	622.58
659.03	702.16
659.17	678.76
659.31	617.90
659.46	676.41
659.60	657.69
659.74	702.16
659.89	601.52
660.03	667.05
660.17	727.91
660.32	720.88
660.46	713.86
660.60	624.92
660.74	681.10
660.89	678.76
661.03	795.78
661.17	589.82
661.32	617.90
661.46	657.69
661.60	660.03
661.74	650.67
661.89	739.61
662.03	683.44
662.17	671.73
662.31	669.39
662.46	751.31
662.60	678.76
662.74	711.52
662.88	671.73
663.03	638.97
663.17	645.99
663.31	650.67
663.45	624.92
663.60	669.39
663.74	606.20
663.88	674.07
664.02	608.54
664.17	664.71
664.31	641.31
664.45	653.01
664.59	657.69
664.73	676.41
664.88	655.35
665.02	645.99
665.16	638.97
665.30	641.31
665.44	596.84
665.59	669.39
665.73	622.58
665.87	606.20
666.01	578.11
666.15	592.16
666.29	638.97
666.44	603.86
666.58	669.39
666.72	603.86
666.86	657.69
667.00	643.65
667.14	636.63
667.28	624.92
667.43	578.11
667.57	613.22
667.71	582.79
667.85	594.50
667.99	681.10
668.13	620.24
668.27	624.92
668.41	610.88
668.56	550.03
668.70	627.26
668.84	660.03
668.98	676.41
669.12	641.31
669.26	510.24
669.40	610.88
669.54	620.24
669.68	657.69
669.82	629.60
669.96	528.96
670.10	550.03
670.25	571.09
670.39	587.47
670.53	596.84
670.67	561.73
670.81	585.13
670.95	554.71
671.09	535.98
671.23	543.00
671.37	550.03
671.51	648.33
671.65	599.18
671.79	519.60
671.93	566.41
672.07	671.73
672.21	629.60
672.35	585.13
672.49	585.13
672.63	554.71
672.77	610.88
672.91	664.71
673.05	669.39
673.19	540.66
673.33	524.28
673.47	571.09
673.61	531.30
673.75	482.15
673.89	531.30
674.03	533.64
674.17	491.51
674.31	528.96
674.45	669.39
674.59	550.03
674.73	526.62
674.87	603.86
675.01	447.04
675.15	507.90
675.29	510.24
675.43	510.24
675.56	538.32
675.70	573.43
675.84	535.98
675.98	463.43
676.12	465.77
676.26	543.00
676.40	458.74
676.54	543.00
676.68	535.98
676.82	461.09
676.96	496.19
677.10	554.71
677.23	468.11
677.37	512.58
677.51	507.90
677.65	482.15
677.79	465.77
677.93	517.26
678.07	533.64
678.21	477.47
678.34	472.79
678.48	503.22
678.62	468.11
678.76	409.59
678.90	472.79
679.04	454.06
679.18	545.34
679.31	489.17
679.45	496.19
679.59	425.98
679.73	477.47
679.87	580.45
680.00	535.98
680.14	395.55
680.28	477.47
680.42	477.47
680.56	547.69
680.70	550.03
680.83	533.64
680.97	491.51
681.11	472.79
681.25	463.43
681.39	447.04
681.52	461.09
681.66	456.40
681.80	358.10
681.94	435.34
682.07	444.70
682.21	414.27
682.35	416.62
682.49	447.04
682.62	463.43
682.76	470.45
682.90	477.47
683.04	458.74
683.17	440.02
683.31	491.51
683.45	461.09
683.59	430.66
683.72	461.09
683.86	395.55
684.00	433.00
684.13	416.62
684.27	468.11
684.41	395.55
684.55	479.81
684.68	404.91
684.82	402.57
684.96	379.17
685.09	390.87
685.23	344.06
685.37	500.87
685.50	411.93
685.64	353.42
685.78	402.57
685.91	484.49
686.05	458.74
686.19	442.36
686.32	355.76
686.46	388.53
686.60	308.95
686.73	334.70
686.87	217.67
687.01	184.90
687.14	189.58
687.28	234.05
687.42	287.89
687.55	341.72
687.69	344.06
687.82	255.12
687.96	313.63
688.10	386.19
688.23	341.72
688.37	407.25
688.50	287.89
688.64	360.44
688.78	308.95
688.91	339.38
689.05	341.72
689.18	400.23
689.32	290.23
689.46	245.76
689.59	304.27
689.73	334.70
689.86	355.76
690.00	388.53
690.13	280.86
690.27	278.52
690.41	259.80
690.54	369.80
690.68	294.91
690.81	346.40
690.95	395.55
691.08	315.97
691.22	393.21
691.35	315.97
691.49	285.55
691.62	339.38
691.76	306.61
691.89	259.80
692.03	271.50
692.16	292.57
692.30	255.12
692.43	278.52
692.57	278.52
692.70	330.02
692.84	245.76
692.97	320.65
693.11	248.10
693.24	276.18
693.38	257.46
693.51	271.50
693.65	262.14
693.78	224.69
693.92	262.14
694.05	217.67
694.19	290.23
694.32	245.76
694.45	322.99
694.59	262.14
694.72	215.33
694.86	201.29
694.99	187.24
695.13	238.73
695.26	264.48
695.39	292.57
695.53	362.78
695.66	348.74
695.80	255.12
695.93	217.67
696.07	299.59
696.20	348.74
696.33	259.80
696.47	196.60
696.60	208.31
696.73	297.25
696.87	177.88
697.00	292.57
697.14	255.12
697.27	257.46
697.40	276.18
697.54	334.70
697.67	266.82
697.80	248.10
697.94	189.58
698.07	297.25
698.21	245.76
698.34	297.25
698.47	245.76
698.61	271.50
698.74	245.76
698.87	348.74
699.01	227.03
699.14	177.88
699.27	205.97
699.40	283.20
699.54	229.37
699.67	203.63
699.80	285.55
699.94	212.99
700.07	262.14
700.20	203.63
700.34	273.84
700.47	231.71
700.60	234.05
700.73	220.01
700.87	264.48
701.00	189.58
701.13	177.88
701.26	177.88
701.40	252.78
701.53	163.84
701.66	191.92
701.79	161.50
701.93	248.10
702.06	238.73
702.19	210.65
702.32	266.82
702.46	119.37
702.59	187.24
702.72	259.80
702.85	248.10
702.99	250.44
703.12	222.35
703.25	243.42
703.38	259.80
703.51	248.10
703.65	215.33
703.78	187.24
703.91	191.92
704.04	201.29
704.17	227.03
704.31	203.63
704.44	241.08
704.57	243.42
704.70	184.90
704.83	215.33
704.96	285.55
705.10	194.26
705.23	215.33
>>>>>End Processed Spectral Data<<<<<
