SpectraSuite Data File
++++++++++++++++++++++++++++++++++++
Date: Fri Oct 04 11:33:45 GMT-05:00 2013
User: price-jones
Dark Spectrum Present: No
Reference Spectrum Present: No
Number of Sampled Component Spectra: 1
Spectrometers: USB2+H05261
Integration Time (usec): 100000 (USB2+H05261)
Spectra Averaged: 1 (USB2+H05261)
Boxcar Smoothing: 0 (USB2+H05261)
Correct for Electrical Dark: No (USB2+H05261)
Strobe/Lamp Enabled: No (USB2+H05261)
Correct for Detector Non-linearity: No (USB2+H05261)
Correct for Stray Light: No (USB2+H05261)
Number of Pixels in Processed Spectrum: 2048
>>>>>Begin Processed Spectral Data<<<<<
365.73	81.92
365.92	81.92
366.12	81.92
366.32	0.00
366.52	0.00
366.72	25.75
366.91	0.00
367.11	0.00
367.31	0.00
367.51	0.00
367.70	0.00
367.90	0.00
368.10	37.45
368.30	0.00
368.49	0.00
368.69	0.00
368.89	0.00
369.09	35.11
369.28	16.38
369.48	0.00
369.68	16.38
369.87	37.45
370.07	0.00
370.27	60.85
370.47	30.43
370.66	32.77
370.86	46.81
371.06	117.03
371.25	100.64
371.45	110.01
371.65	77.24
371.84	72.56
372.04	56.17
372.24	112.35
372.44	67.88
372.63	177.88
372.83	227.03
373.03	107.66
373.22	98.30
373.42	215.33
373.62	220.01
373.81	156.82
374.01	208.31
374.21	156.82
374.40	114.69
374.60	168.52
374.79	124.05
374.99	84.26
375.19	159.16
375.38	198.95
375.58	133.41
375.78	203.63
375.97	166.18
376.17	198.95
376.37	110.01
376.56	238.73
376.76	175.54
376.95	187.24
377.15	98.30
377.35	177.88
377.54	154.48
377.74	156.82
377.93	117.03
378.13	140.43
378.33	152.13
378.52	159.16
378.72	88.94
378.91	117.03
379.11	154.48
379.31	119.37
379.50	84.26
379.70	135.75
379.89	140.43
380.09	126.39
380.28	194.26
380.48	149.79
380.68	119.37
380.87	145.11
381.07	154.48
381.26	215.33
381.46	138.09
381.65	58.51
381.85	112.35
382.04	131.07
382.24	201.29
382.43	147.45
382.63	138.09
382.83	119.37
383.02	149.79
383.22	152.13
383.41	44.47
383.61	100.64
383.80	196.60
384.00	205.97
384.19	128.73
384.39	149.79
384.58	131.07
384.78	133.41
384.97	147.45
385.17	117.03
385.36	177.88
385.56	189.58
385.75	100.64
385.95	124.05
386.14	215.33
386.34	138.09
386.53	145.11
386.72	124.05
386.92	161.50
387.11	177.88
387.31	112.35
387.50	189.58
387.70	217.67
387.89	161.50
388.09	79.58
388.28	95.96
388.48	140.43
388.67	70.22
388.86	187.24
389.06	131.07
389.25	203.63
389.45	119.37
389.64	168.52
389.84	189.58
390.03	135.75
390.22	72.56
390.42	110.01
390.61	72.56
390.81	166.18
391.00	198.95
391.19	138.09
391.39	95.96
391.58	117.03
391.78	170.86
391.97	187.24
392.16	135.75
392.36	173.20
392.55	88.94
392.75	110.01
392.94	147.45
393.13	138.09
393.33	131.07
393.52	138.09
393.71	126.39
393.91	121.71
394.10	142.77
394.29	201.29
394.49	177.88
394.68	161.50
394.88	180.22
395.07	231.71
395.26	110.01
395.46	198.95
395.65	161.50
395.84	168.52
396.04	227.03
396.23	189.58
396.42	152.13
396.62	175.54
396.81	126.39
397.00	177.88
397.19	149.79
397.39	131.07
397.58	166.18
397.77	131.07
397.97	133.41
398.16	159.16
398.35	238.73
398.55	145.11
398.74	126.39
398.93	224.69
399.12	126.39
399.32	156.82
399.51	161.50
399.70	166.18
399.90	138.09
400.09	212.99
400.28	161.50
400.47	128.73
400.67	128.73
400.86	138.09
401.05	140.43
401.24	194.26
401.44	191.92
401.63	86.60
401.82	126.39
402.01	107.66
402.21	138.09
402.40	154.48
402.59	191.92
402.78	131.07
402.97	107.66
403.17	212.99
403.36	154.48
403.55	86.60
403.74	208.31
403.93	184.90
404.13	191.92
404.32	184.90
404.51	198.95
404.70	222.35
404.89	187.24
405.09	189.58
405.28	210.65
405.47	182.56
405.66	138.09
405.85	201.29
406.05	100.64
406.24	135.75
406.43	189.58
406.62	154.48
406.81	196.60
407.00	168.52
407.20	161.50
407.39	208.31
407.58	173.20
407.77	131.07
407.96	142.77
408.15	91.28
408.34	149.79
408.54	152.13
408.73	135.75
408.92	182.56
409.11	166.18
409.30	182.56
409.49	175.54
409.68	208.31
409.87	175.54
410.07	133.41
410.26	163.84
410.45	201.29
410.64	110.01
410.83	142.77
411.02	126.39
411.21	177.88
411.40	135.75
411.59	110.01
411.78	145.11
411.98	142.77
412.17	168.52
412.36	117.03
412.55	152.13
412.74	201.29
412.93	175.54
413.12	138.09
413.31	168.52
413.50	138.09
413.69	154.48
413.88	241.08
414.07	163.84
414.26	154.48
414.45	166.18
414.64	131.07
414.83	74.90
415.02	224.69
415.22	201.29
415.41	175.54
415.60	241.08
415.79	208.31
415.98	264.48
416.17	159.16
416.36	145.11
416.55	95.96
416.74	154.48
416.93	175.54
417.12	74.90
417.31	91.28
417.50	201.29
417.69	205.97
417.88	229.37
418.07	182.56
418.26	196.60
418.45	166.18
418.64	287.89
418.83	262.14
419.02	238.73
419.21	191.92
419.39	168.52
419.58	212.99
419.77	163.84
419.96	212.99
420.15	163.84
420.34	184.90
420.53	163.84
420.72	126.39
420.91	140.43
421.10	198.95
421.29	126.39
421.48	140.43
421.67	259.80
421.86	180.22
422.05	138.09
422.24	217.67
422.43	166.18
422.61	184.90
422.80	126.39
422.99	215.33
423.18	152.13
423.37	227.03
423.56	152.13
423.75	114.69
423.94	91.28
424.13	124.05
424.32	142.77
424.50	159.16
424.69	152.13
424.88	135.75
425.07	290.23
425.26	255.12
425.45	212.99
425.64	255.12
425.83	161.50
426.01	248.10
426.20	208.31
426.39	191.92
426.58	168.52
426.77	196.60
426.96	187.24
427.15	175.54
427.33	168.52
427.52	142.77
427.71	142.77
427.90	238.73
428.09	119.37
428.28	138.09
428.46	114.69
428.65	152.13
428.84	161.50
429.03	212.99
429.22	159.16
429.40	159.16
429.59	173.20
429.78	217.67
429.97	203.63
430.16	236.39
430.34	177.88
430.53	187.24
430.72	184.90
430.91	175.54
431.10	159.16
431.28	142.77
431.47	294.91
431.66	205.97
431.85	110.01
432.03	208.31
432.22	271.50
432.41	210.65
432.60	191.92
432.79	145.11
432.97	266.82
433.16	292.57
433.35	191.92
433.54	266.82
433.72	215.33
433.91	205.97
434.10	222.35
434.28	245.76
434.47	117.03
434.66	238.73
434.85	215.33
435.03	222.35
435.22	250.44
435.41	379.17
435.59	318.31
435.78	318.31
435.97	231.71
436.16	243.42
436.34	189.58
436.53	231.71
436.72	234.05
436.90	147.45
437.09	198.95
437.28	224.69
437.46	133.41
437.65	187.24
437.84	177.88
438.02	177.88
438.21	142.77
438.40	140.43
438.58	191.92
438.77	149.79
438.96	112.35
439.14	173.20
439.33	147.45
439.52	198.95
439.70	217.67
439.89	224.69
440.08	191.92
440.26	161.50
440.45	175.54
440.63	189.58
440.82	180.22
441.01	212.99
441.19	131.07
441.38	201.29
441.57	210.65
441.75	234.05
441.94	119.37
442.12	227.03
442.31	212.99
442.50	191.92
442.68	149.79
442.87	203.63
443.05	70.22
443.24	147.45
443.43	191.92
443.61	241.08
443.80	210.65
443.98	121.71
444.17	135.75
444.35	220.01
444.54	215.33
444.73	215.33
444.91	252.78
445.10	194.26
445.28	220.01
445.47	220.01
445.65	250.44
445.84	180.22
446.02	156.82
446.21	119.37
446.39	163.84
446.58	229.37
446.77	163.84
446.95	234.05
447.14	166.18
447.32	243.42
447.51	166.18
447.69	194.26
447.88	142.77
448.06	191.92
448.25	163.84
448.43	142.77
448.62	177.88
448.80	215.33
448.99	182.56
449.17	175.54
449.36	255.12
449.54	203.63
449.73	102.98
449.91	191.92
450.10	182.56
450.28	308.95
450.46	220.01
450.65	170.86
450.83	170.86
451.02	175.54
451.20	177.88
451.39	149.79
451.57	163.84
451.76	205.97
451.94	182.56
452.13	182.56
452.31	140.43
452.49	180.22
452.68	180.22
452.86	252.78
453.05	231.71
453.23	210.65
453.42	119.37
453.60	138.09
453.78	222.35
453.97	210.65
454.15	170.86
454.34	166.18
454.52	194.26
454.70	245.76
454.89	224.69
455.07	170.86
455.26	285.55
455.44	205.97
455.62	194.26
455.81	166.18
455.99	210.65
456.17	238.73
456.36	140.43
456.54	255.12
456.73	168.52
456.91	280.86
457.09	180.22
457.28	201.29
457.46	236.39
457.64	220.01
457.83	147.45
458.01	198.95
458.19	180.22
458.38	177.88
458.56	245.76
458.74	152.13
458.93	224.69
459.11	149.79
459.29	234.05
459.48	168.52
459.66	234.05
459.84	238.73
460.03	292.57
460.21	220.01
460.39	173.20
460.57	205.97
460.76	196.60
460.94	175.54
461.12	259.80
461.31	231.71
461.49	140.43
461.67	301.93
461.85	229.37
462.04	168.52
462.22	650.67
462.40	175.54
462.59	227.03
462.77	238.73
462.95	168.52
463.13	149.79
463.32	149.79
463.50	234.05
463.68	220.01
463.86	180.22
464.05	163.84
464.23	241.08
464.41	182.56
464.59	273.84
464.78	210.65
464.96	156.82
465.14	159.16
465.32	220.01
465.50	208.31
465.69	208.31
465.87	217.67
466.05	222.35
466.23	159.16
466.41	177.88
466.60	152.13
466.78	145.11
466.96	287.89
467.14	131.07
467.32	243.42
467.51	175.54
467.69	198.95
467.87	229.37
468.05	241.08
468.23	180.22
468.41	234.05
468.60	177.88
468.78	189.58
468.96	236.39
469.14	198.95
469.32	126.39
469.50	276.18
469.69	180.22
469.87	198.95
470.05	175.54
470.23	161.50
470.41	241.08
470.59	229.37
470.77	187.24
470.95	184.90
471.14	212.99
471.32	231.71
471.50	315.97
471.68	238.73
471.86	168.52
472.04	234.05
472.22	250.44
472.40	201.29
472.58	154.48
472.77	229.37
472.95	208.31
473.13	194.26
473.31	198.95
473.49	168.52
473.67	208.31
473.85	215.33
474.03	196.60
474.21	154.48
474.39	248.10
474.57	220.01
474.75	191.92
474.93	264.48
475.12	191.92
475.30	149.79
475.48	224.69
475.66	210.65
475.84	250.44
476.02	210.65
476.20	229.37
476.38	194.26
476.56	255.12
476.74	212.99
476.92	220.01
477.10	215.33
477.28	201.29
477.46	278.52
477.64	196.60
477.82	250.44
478.00	154.48
478.18	196.60
478.36	231.71
478.54	208.31
478.72	191.92
478.90	227.03
479.08	264.48
479.26	229.37
479.44	194.26
479.62	234.05
479.80	149.79
479.98	238.73
480.16	229.37
480.34	187.24
480.52	140.43
480.70	283.20
480.88	252.78
481.06	198.95
481.24	208.31
481.41	243.42
481.59	229.37
481.77	194.26
481.95	196.60
482.13	194.26
482.31	257.46
482.49	217.67
482.67	271.50
482.85	227.03
483.03	255.12
483.21	227.03
483.39	161.50
483.57	245.76
483.74	269.16
483.92	255.12
484.10	271.50
484.28	278.52
484.46	217.67
484.64	212.99
484.82	196.60
485.00	224.69
485.18	217.67
485.35	198.95
485.53	203.63
485.71	285.55
485.89	224.69
486.07	229.37
486.25	381.51
486.43	205.97
486.61	231.71
486.78	292.57
486.96	280.86
487.14	196.60
487.32	278.52
487.50	224.69
487.68	234.05
487.85	245.76
488.03	224.69
488.21	220.01
488.39	201.29
488.57	227.03
488.75	236.39
488.92	475.13
489.10	294.91
489.28	318.31
489.46	215.33
489.64	283.20
489.81	308.95
489.99	292.57
490.17	285.55
490.35	276.18
490.53	196.60
490.70	224.69
490.88	231.71
491.06	191.92
491.24	236.39
491.41	238.73
491.59	203.63
491.77	217.67
491.95	241.08
492.13	297.25
492.30	245.76
492.48	271.50
492.66	266.82
492.84	135.75
493.01	280.86
493.19	243.42
493.37	301.93
493.54	250.44
493.72	245.76
493.90	241.08
494.08	292.57
494.25	290.23
494.43	273.84
494.61	215.33
494.79	212.99
494.96	205.97
495.14	248.10
495.32	308.95
495.49	276.18
495.67	259.80
495.85	257.46
496.02	210.65
496.20	294.91
496.38	229.37
496.55	205.97
496.73	229.37
496.91	269.16
497.09	280.86
497.26	229.37
497.44	299.59
497.62	241.08
497.79	215.33
497.97	283.20
498.14	341.72
498.32	205.97
498.50	212.99
498.67	262.14
498.85	131.07
499.03	234.05
499.20	259.80
499.38	248.10
499.56	250.44
499.73	259.80
499.91	266.82
500.08	210.65
500.26	308.95
500.44	264.48
500.61	243.42
500.79	285.55
500.97	269.16
501.14	322.99
501.32	276.18
501.49	278.52
501.67	299.59
501.84	229.37
502.02	220.01
502.20	325.33
502.37	252.78
502.55	294.91
502.72	257.46
502.90	227.03
503.07	280.86
503.25	278.52
503.43	276.18
503.60	341.72
503.78	280.86
503.95	210.65
504.13	297.25
504.30	255.12
504.48	330.02
504.65	315.97
504.83	236.39
505.01	236.39
505.18	212.99
505.36	212.99
505.53	245.76
505.71	304.27
505.88	283.20
506.06	287.89
506.23	248.10
506.41	292.57
506.58	325.33
506.76	231.71
506.93	241.08
507.11	287.89
507.28	262.14
507.46	245.76
507.63	294.91
507.81	248.10
507.98	330.02
508.16	266.82
508.33	217.67
508.50	238.73
508.68	236.39
508.85	205.97
509.03	280.86
509.20	208.31
509.38	266.82
509.55	341.72
509.73	290.23
509.90	332.36
510.08	301.93
510.25	262.14
510.42	257.46
510.60	294.91
510.77	318.31
510.95	318.31
511.12	250.44
511.30	334.70
511.47	344.06
511.64	294.91
511.82	229.37
511.99	234.05
512.17	220.01
512.34	248.10
512.51	273.84
512.69	238.73
512.86	351.08
513.04	229.37
513.21	215.33
513.38	234.05
513.56	252.78
513.73	203.63
513.90	245.76
514.08	308.95
514.25	304.27
514.43	278.52
514.60	301.93
514.77	255.12
514.95	229.37
515.12	306.61
515.29	301.93
515.47	280.86
515.64	290.23
515.81	243.42
515.99	311.29
516.16	245.76
516.33	266.82
516.51	196.60
516.68	187.24
516.85	297.25
517.03	259.80
517.20	269.16
517.37	327.68
517.54	252.78
517.72	224.69
517.89	224.69
518.06	280.86
518.24	269.16
518.41	271.50
518.58	315.97
518.75	262.14
518.93	248.10
519.10	283.20
519.27	248.10
519.45	290.23
519.62	292.57
519.79	313.63
519.96	278.52
520.14	234.05
520.31	337.04
520.48	280.86
520.65	212.99
520.83	177.88
521.00	278.52
521.17	210.65
521.34	264.48
521.52	330.02
521.69	248.10
521.86	353.42
522.03	304.27
522.20	308.95
522.38	250.44
522.55	255.12
522.72	238.73
522.89	283.20
523.07	339.38
523.24	264.48
523.41	250.44
523.58	320.65
523.75	231.71
523.92	259.80
524.10	264.48
524.27	304.27
524.44	220.01
524.61	322.99
524.78	212.99
524.96	175.54
525.13	304.27
525.30	280.86
525.47	259.80
525.64	297.25
525.81	294.91
525.98	259.80
526.16	266.82
526.33	234.05
526.50	280.86
526.67	280.86
526.84	252.78
527.01	259.80
527.18	315.97
527.36	257.46
527.53	243.42
527.70	311.29
527.87	269.16
528.04	297.25
528.21	264.48
528.38	266.82
528.55	365.12
528.72	266.82
528.89	290.23
529.07	238.73
529.24	262.14
529.41	269.16
529.58	297.25
529.75	292.57
529.92	337.04
530.09	320.65
530.26	320.65
530.43	344.06
530.60	266.82
530.77	311.29
530.94	334.70
531.11	304.27
531.28	266.82
531.46	241.08
531.63	308.95
531.80	290.23
531.97	362.78
532.14	271.50
532.31	283.20
532.48	273.84
532.65	341.72
532.82	400.23
532.99	339.38
533.16	313.63
533.33	304.27
533.50	311.29
533.67	327.68
533.84	400.23
534.01	428.32
534.18	369.80
534.35	440.02
534.52	318.31
534.69	421.30
534.86	262.14
535.03	273.84
535.20	245.76
535.37	273.84
535.54	301.93
535.71	299.59
535.88	330.02
536.05	283.20
536.22	306.61
536.38	262.14
536.55	255.12
536.72	346.40
536.89	269.16
537.06	229.37
537.23	271.50
537.40	271.50
537.57	292.57
537.74	367.46
537.91	341.72
538.08	299.59
538.25	332.36
538.42	273.84
538.59	346.40
538.75	276.18
538.92	294.91
539.09	241.08
539.26	358.10
539.43	498.53
539.60	847.27
539.77	1404.32
539.94	1394.96
540.11	1006.43
540.28	678.76
540.44	533.64
540.61	507.90
540.78	510.24
540.95	435.34
541.12	407.25
541.29	531.30
541.46	575.77
541.62	543.00
541.79	496.19
541.96	507.90
542.13	538.32
542.30	458.74
542.47	456.40
542.63	444.70
542.80	437.68
542.97	409.59
543.14	449.38
543.31	491.51
543.48	470.45
543.64	489.17
543.81	484.49
543.98	428.32
544.15	395.55
544.32	512.58
544.48	451.72
544.65	360.44
544.82	423.64
544.99	416.62
545.16	461.09
545.32	423.64
545.49	683.44
545.66	894.08
545.83	844.93
546.00	727.91
546.16	645.99
546.33	468.11
546.50	498.53
546.67	395.55
546.83	374.49
547.00	362.78
547.17	344.06
547.34	341.72
547.50	344.06
547.67	416.62
547.84	437.68
548.00	402.57
548.17	367.46
548.34	344.06
548.51	360.44
548.67	383.85
548.84	315.97
549.01	388.53
549.18	341.72
549.34	311.29
549.51	360.44
549.68	322.99
549.84	369.80
550.01	294.91
550.18	440.02
550.34	397.89
550.51	318.31
550.68	411.93
550.84	259.80
551.01	299.59
551.18	287.89
551.34	320.65
551.51	315.97
551.68	294.91
551.84	372.15
552.01	332.36
552.18	283.20
552.34	311.29
552.51	299.59
552.68	315.97
552.84	224.69
553.01	285.55
553.18	266.82
553.34	257.46
553.51	308.95
553.67	315.97
553.84	386.19
554.01	304.27
554.17	322.99
554.34	276.18
554.51	248.10
554.67	355.76
554.84	311.29
555.00	351.08
555.17	290.23
555.33	301.93
555.50	255.12
555.67	315.97
555.83	299.59
556.00	344.06
556.16	411.93
556.33	348.74
556.50	283.20
556.66	294.91
556.83	294.91
556.99	283.20
557.16	234.05
557.32	231.71
557.49	266.82
557.65	358.10
557.82	252.78
557.98	271.50
558.15	280.86
558.32	334.70
558.48	245.76
558.65	243.42
558.81	264.48
558.98	255.12
559.14	365.12
559.31	337.04
559.47	280.86
559.64	266.82
559.80	271.50
559.97	250.44
560.13	245.76
560.30	224.69
560.46	292.57
560.63	241.08
560.79	243.42
560.96	241.08
561.12	224.69
561.29	297.25
561.45	264.48
561.61	322.99
561.78	287.89
561.94	278.52
562.11	273.84
562.27	191.92
562.44	203.63
562.60	278.52
562.77	241.08
562.93	297.25
563.10	367.46
563.26	278.52
563.42	294.91
563.59	276.18
563.75	271.50
563.92	311.29
564.08	332.36
564.24	311.29
564.41	290.23
564.57	283.20
564.74	220.01
564.90	264.48
565.07	313.63
565.23	318.31
565.39	262.14
565.56	220.01
565.72	294.91
565.88	297.25
566.05	245.76
566.21	308.95
566.38	238.73
566.54	386.19
566.70	231.71
566.87	308.95
567.03	222.35
567.19	262.14
567.36	306.61
567.52	318.31
567.68	266.82
567.85	290.23
568.01	224.69
568.17	224.69
568.34	201.29
568.50	353.42
568.66	231.71
568.83	297.25
568.99	269.16
569.15	313.63
569.32	229.37
569.48	304.27
569.64	236.39
569.81	250.44
569.97	276.18
570.13	245.76
570.30	250.44
570.46	250.44
570.62	294.91
570.78	273.84
570.95	259.80
571.11	327.68
571.27	322.99
571.43	234.05
571.60	276.18
571.76	292.57
571.92	273.84
572.09	243.42
572.25	243.42
572.41	311.29
572.57	269.16
572.74	266.82
572.90	287.89
573.06	212.99
573.22	332.36
573.38	301.93
573.55	273.84
573.71	304.27
573.87	287.89
574.03	229.37
574.20	236.39
574.36	351.08
574.52	320.65
574.68	327.68
574.84	311.29
575.01	212.99
575.17	283.20
575.33	276.18
575.49	273.84
575.65	351.08
575.82	358.10
575.98	557.05
576.14	557.05
576.30	575.77
576.46	575.77
576.62	535.98
576.79	369.80
576.95	355.76
577.11	390.87
577.27	308.95
577.43	409.59
577.59	353.42
577.75	304.27
577.92	360.44
578.08	276.18
578.24	262.14
578.40	362.78
578.56	433.00
578.72	393.21
578.88	369.80
579.04	334.70
579.21	299.59
579.37	276.18
579.53	402.57
579.69	435.34
579.85	308.95
580.01	430.66
580.17	454.06
580.33	351.08
580.49	313.63
580.65	360.44
580.82	390.87
580.98	367.46
581.14	386.19
581.30	395.55
581.46	348.74
581.62	479.81
581.78	594.50
581.94	615.56
582.10	552.37
582.26	493.85
582.42	397.89
582.58	372.15
582.74	430.66
582.90	444.70
583.06	477.47
583.22	428.32
583.38	538.32
583.54	514.92
583.70	561.73
583.86	552.37
584.02	711.52
584.18	753.65
584.34	912.81
584.50	2073.71
584.66	13841.93
584.82	40903.20
584.98	58351.90
585.14	56509.89
585.30	38424.57
585.46	22178.92
585.62	13715.54
585.78	6436.47
585.94	2686.94
586.10	1329.42
586.26	891.74
586.42	844.93
586.58	695.14
586.74	594.50
586.90	521.94
587.06	613.22
587.22	540.66
587.38	578.11
587.54	990.05
587.70	2487.99
587.86	4348.72
588.02	5085.98
588.18	3786.99
588.34	2286.70
588.49	1586.88
588.65	1074.31
588.81	608.54
588.97	449.38
589.13	306.61
589.29	383.85
589.45	402.57
589.61	411.93
589.77	346.40
589.93	423.64
590.08	463.43
590.24	430.66
590.40	428.32
590.56	402.57
590.72	367.46
590.88	411.93
591.04	379.17
591.20	332.36
591.35	292.57
591.51	348.74
591.67	353.42
591.83	264.48
591.99	322.99
592.15	306.61
592.31	348.74
592.46	367.46
592.62	376.83
592.78	315.97
592.94	397.89
593.10	374.49
593.26	369.80
593.41	449.38
593.57	425.98
593.73	477.47
593.89	1872.43
594.05	4854.27
594.20	8187.19
594.36	8180.17
594.52	5465.15
594.68	3489.74
594.84	2354.58
594.99	1334.11
595.15	784.08
595.31	500.87
595.47	369.80
595.62	330.02
595.78	311.29
595.94	348.74
596.10	416.62
596.25	301.93
596.41	425.98
596.57	311.29
596.73	383.85
596.88	486.83
597.04	1043.88
597.20	1703.91
597.36	2228.19
597.51	1563.48
597.67	1299.00
597.83	875.36
597.99	660.03
598.14	479.81
598.30	353.42
598.46	395.55
598.61	383.85
598.77	348.74
598.93	362.78
599.09	374.49
599.24	390.87
599.40	325.33
599.56	383.85
599.71	318.31
599.87	306.61
600.03	334.70
600.18	351.08
600.34	315.97
600.50	266.82
600.65	243.42
600.81	306.61
600.97	243.42
601.12	325.33
601.28	313.63
601.44	327.68
601.59	215.33
601.75	301.93
601.91	245.76
602.06	346.40
602.22	381.51
602.37	585.13
602.53	1256.87
602.69	2183.72
602.84	2375.64
603.00	1788.17
603.16	1247.51
603.31	866.00
603.47	643.65
603.62	421.30
603.78	280.86
603.94	381.51
604.09	287.89
604.25	348.74
604.40	339.38
604.56	320.65
604.71	386.19
604.87	304.27
605.03	322.99
605.18	297.25
605.34	308.95
605.49	379.17
605.65	341.72
605.80	276.18
605.96	337.04
606.12	346.40
606.27	367.46
606.43	266.82
606.58	397.89
606.74	641.31
606.89	2249.25
607.05	4952.57
607.20	7105.87
607.36	6310.08
607.51	4273.82
607.67	2818.00
607.82	1898.17
607.98	1088.35
608.13	617.90
608.29	561.73
608.44	418.96
608.60	491.51
608.75	559.39
608.91	889.40
609.06	3501.44
609.22	8432.95
609.37	12617.83
609.53	11318.83
609.68	7770.58
609.84	4910.44
609.99	3398.46
610.15	1902.86
610.30	1057.92
610.46	861.32
610.61	877.70
610.76	954.94
610.92	908.13
611.07	931.53
611.23	1041.54
611.38	866.00
611.54	784.08
611.69	748.97
611.84	589.82
612.00	585.13
612.15	702.16
612.31	643.65
612.46	763.01
612.62	770.04
612.77	819.19
612.92	690.46
613.08	695.14
613.23	678.76
613.39	641.31
613.54	795.78
613.69	3236.96
613.85	9830.25
614.00	17582.10
614.15	20929.07
614.31	14523.02
614.46	9460.45
614.62	6132.20
614.77	3946.14
614.92	1902.86
615.08	926.85
615.23	594.50
615.38	465.77
615.54	533.64
615.69	690.46
615.84	1989.46
616.00	3889.97
616.15	5413.66
616.30	4498.51
616.46	3087.17
616.61	1959.03
616.76	1430.07
616.92	901.11
617.07	552.37
617.22	393.21
617.37	428.32
617.53	376.83
617.68	327.68
617.83	297.25
617.99	393.21
618.14	358.10
618.29	341.72
618.45	276.18
618.60	327.68
618.75	304.27
618.90	266.82
619.06	318.31
619.21	285.55
619.36	285.55
619.51	311.29
619.67	306.61
619.82	351.08
619.97	348.74
620.12	320.65
620.28	322.99
620.43	290.23
620.58	313.63
620.73	290.23
620.89	390.87
621.04	454.06
621.19	1214.74
621.34	2242.23
621.49	3007.59
621.65	3019.29
621.80	2083.08
621.95	1341.13
622.10	1142.18
622.25	704.50
622.41	482.15
622.56	344.06
622.71	306.61
622.86	386.19
623.01	294.91
623.16	320.65
623.32	341.72
623.47	367.46
623.62	351.08
623.77	355.76
623.92	271.50
624.07	308.95
624.23	243.42
624.38	280.86
624.53	308.95
624.68	304.27
624.83	367.46
624.98	355.76
625.13	337.04
625.29	264.48
625.44	376.83
625.59	388.53
625.74	451.72
625.89	428.32
626.04	1577.52
626.19	4901.08
626.34	8645.94
626.49	10497.30
626.65	7880.58
626.80	5308.34
626.95	3494.42
627.10	2319.47
627.25	1268.57
627.40	660.03
627.55	477.47
627.70	386.19
627.85	454.06
628.00	327.68
628.15	294.91
628.30	313.63
628.45	264.48
628.60	255.12
628.76	301.93
628.91	278.52
629.06	311.29
629.21	299.59
629.36	306.61
629.51	278.52
629.66	301.93
629.81	358.10
629.96	964.30
630.11	1888.81
630.26	2867.16
630.41	2546.50
630.56	1870.09
630.71	1320.06
630.86	917.49
631.01	596.84
631.16	428.32
631.31	379.17
631.46	355.76
631.61	318.31
631.76	287.89
631.91	252.78
632.06	348.74
632.21	346.40
632.36	355.76
632.51	304.27
632.66	433.00
632.81	819.19
632.96	2656.51
633.10	5203.01
633.25	7089.48
633.40	5818.57
633.55	4028.06
633.70	2719.70
633.85	1928.60
634.00	1036.86
634.15	514.92
634.30	383.85
634.45	374.49
634.60	327.68
634.75	320.65
634.90	306.61
635.05	369.80
635.19	304.27
635.34	229.37
635.49	299.59
635.64	313.63
635.79	227.03
635.94	273.84
636.09	306.61
636.24	255.12
636.39	217.67
636.53	299.59
636.68	271.50
636.83	273.84
636.98	337.04
637.13	320.65
637.28	411.93
637.43	379.17
637.57	477.47
637.72	2078.40
637.87	6263.27
638.02	11101.16
638.17	13284.88
638.32	9956.64
638.46	6626.06
638.61	4510.21
638.76	2822.69
638.91	1455.81
639.06	830.89
639.20	627.26
639.35	554.71
639.50	692.80
639.65	3042.70
639.80	9296.61
639.94	16938.46
640.09	20812.04
640.24	15201.78
640.39	10036.22
640.54	6820.32
640.68	4032.74
640.83	1987.11
640.98	994.73
641.13	585.13
641.27	507.90
641.42	428.32
641.57	383.85
641.72	325.33
641.86	334.70
642.01	285.55
642.16	266.82
642.31	243.42
642.45	294.91
642.60	313.63
642.75	248.10
642.90	285.55
643.04	248.10
643.19	229.37
643.34	236.39
643.48	353.42
643.63	304.27
643.78	283.20
643.93	322.99
644.07	308.95
644.22	198.95
644.37	187.24
644.51	250.44
644.66	320.65
644.81	224.69
644.95	313.63
645.10	238.73
645.25	227.03
645.39	273.84
645.54	245.76
645.69	299.59
645.83	287.89
645.98	180.22
646.13	215.33
646.27	217.67
646.42	222.35
646.57	184.90
646.71	227.03
646.86	306.61
647.00	229.37
647.15	229.37
647.30	264.48
647.44	177.88
647.59	257.46
647.74	194.26
647.88	262.14
648.03	163.84
648.17	273.84
648.32	257.46
648.47	220.01
648.61	290.23
648.76	217.67
648.90	231.71
649.05	325.33
649.20	266.82
649.34	250.44
649.49	227.03
649.63	241.08
649.78	299.59
649.92	451.72
650.07	1245.16
650.21	4189.56
650.36	8224.64
650.51	10696.25
650.65	8767.65
650.80	6164.97
650.94	4189.56
651.09	2670.55
651.23	1420.71
651.38	774.72
651.52	397.89
651.67	362.78
651.81	372.15
651.96	292.57
652.10	294.91
652.25	271.50
652.39	283.20
652.54	262.14
652.68	486.83
652.83	1425.39
652.97	2679.91
653.12	3765.92
653.26	3515.48
653.41	2513.74
653.55	1736.68
653.70	1188.99
653.84	711.52
653.99	393.21
654.13	367.46
654.27	227.03
654.42	269.16
654.56	191.92
654.71	311.29
654.85	255.12
655.00	266.82
655.14	194.26
655.29	194.26
655.43	243.42
655.57	252.78
655.72	236.39
655.86	245.76
656.01	194.26
656.15	243.42
656.30	238.73
656.44	224.69
656.58	196.60
656.73	238.73
656.87	215.33
657.01	201.29
657.16	238.73
657.30	276.18
657.45	208.31
657.59	234.05
657.73	234.05
657.88	264.48
658.02	238.73
658.16	236.39
658.31	215.33
658.45	156.82
658.60	196.60
658.74	287.89
658.88	196.60
659.03	201.29
659.17	315.97
659.31	660.03
659.46	1933.28
659.60	3934.44
659.74	5305.99
659.89	4842.57
660.03	3534.21
660.17	2548.84
660.32	1610.29
660.46	908.13
660.60	566.41
660.74	346.40
660.89	241.08
661.03	311.29
661.17	255.12
661.32	236.39
661.46	276.18
661.60	212.99
661.74	241.08
661.89	294.91
662.03	205.97
662.17	215.33
662.31	238.73
662.46	210.65
662.60	187.24
662.74	175.54
662.88	283.20
663.03	297.25
663.17	255.12
663.31	271.50
663.45	290.23
663.60	250.44
663.74	128.73
663.88	210.65
664.02	238.73
664.17	152.13
664.31	187.24
664.45	173.20
664.59	266.82
664.73	215.33
664.88	231.71
665.02	215.33
665.16	322.99
665.30	271.50
665.44	215.33
665.59	250.44
665.73	276.18
665.87	224.69
666.01	238.73
666.15	215.33
666.29	255.12
666.44	287.89
666.58	266.82
666.72	238.73
666.86	257.46
667.00	220.01
667.14	341.72
667.28	1095.37
667.43	3435.91
667.57	6750.10
667.71	9207.67
667.85	7826.75
667.99	6024.54
668.13	3803.37
668.27	2349.90
668.41	1378.58
668.56	798.12
668.70	571.09
668.84	416.62
668.98	355.76
669.12	287.89
669.26	220.01
669.40	259.80
669.54	294.91
669.68	227.03
669.82	194.26
669.96	238.73
670.10	184.90
670.25	220.01
670.39	252.78
670.53	320.65
670.67	294.91
670.81	205.97
670.95	215.33
671.09	418.96
671.23	1446.45
671.37	3131.64
671.51	5104.71
671.65	5795.17
671.79	4550.00
671.93	3133.98
672.07	2069.03
672.21	1217.08
672.35	755.99
672.49	411.93
672.63	423.64
672.77	287.89
672.91	259.80
673.05	276.18
673.19	255.12
673.33	205.97
673.47	290.23
673.61	177.88
673.75	227.03
673.89	227.03
674.03	224.69
674.17	241.08
674.31	198.95
674.45	201.29
674.59	252.78
674.73	154.48
674.87	177.88
675.01	248.10
675.15	330.02
675.29	301.93
675.43	292.57
675.56	257.46
675.70	299.59
675.84	149.79
675.98	245.76
676.12	243.42
676.26	173.20
676.40	231.71
676.54	210.65
676.68	262.14
676.82	245.76
676.96	255.12
677.10	248.10
677.23	147.45
677.37	205.97
677.51	173.20
677.65	241.08
677.79	180.22
677.93	189.58
678.07	203.63
678.21	187.24
678.34	170.86
678.48	175.54
678.62	285.55
678.76	133.41
678.90	191.92
679.04	182.56
679.18	191.92
679.31	205.97
679.45	220.01
679.59	138.09
679.73	180.22
679.87	156.82
680.00	177.88
680.14	168.52
680.28	201.29
680.42	198.95
680.56	161.50
680.70	131.07
680.83	201.29
680.97	177.88
681.11	215.33
681.25	189.58
681.39	133.41
681.52	248.10
681.66	212.99
681.80	238.73
681.94	133.41
682.07	196.60
682.21	198.95
682.35	210.65
682.49	224.69
682.62	187.24
682.76	161.50
682.90	187.24
683.04	168.52
683.17	217.67
683.31	161.50
683.45	224.69
683.59	231.71
683.72	285.55
683.86	196.60
684.00	138.09
684.13	173.20
684.27	196.60
684.41	191.92
684.55	170.86
684.68	194.26
684.82	175.54
684.96	241.08
685.09	166.18
685.23	175.54
685.37	114.69
685.50	177.88
685.64	187.24
685.78	152.13
685.91	205.97
686.05	201.29
686.19	175.54
686.32	203.63
686.46	201.29
686.60	205.97
686.73	243.42
686.87	243.42
687.01	231.71
687.14	238.73
687.28	194.26
687.42	241.08
687.55	224.69
687.69	248.10
687.82	212.99
687.96	248.10
688.10	215.33
688.23	149.79
688.37	210.65
688.50	266.82
688.64	170.86
688.78	149.79
688.91	229.37
689.05	231.71
689.18	142.77
689.32	194.26
689.46	163.84
689.59	245.76
689.73	166.18
689.86	227.03
690.00	201.29
690.13	135.75
690.27	168.52
690.41	227.03
690.54	231.71
690.68	149.79
690.81	126.39
690.95	224.69
691.08	187.24
691.22	142.77
691.35	119.37
691.49	194.26
691.62	140.43
691.76	236.39
691.89	159.16
692.03	220.01
692.16	203.63
692.30	285.55
692.43	498.53
692.57	1528.37
692.70	2885.88
692.84	4074.87
692.97	4079.55
693.11	2775.88
693.24	2153.29
693.38	1385.60
693.51	1020.47
693.65	702.16
693.78	540.66
693.92	334.70
694.05	320.65
694.19	234.05
694.32	215.33
694.45	191.92
694.59	152.13
694.72	210.65
694.86	117.03
694.99	86.60
695.13	184.90
695.26	248.10
695.39	210.65
695.53	241.08
695.66	159.16
695.80	250.44
695.93	173.20
696.07	273.84
696.20	367.46
696.33	505.56
696.47	465.77
696.60	411.93
696.73	365.12
696.87	330.02
697.00	264.48
697.14	196.60
697.27	278.52
697.40	262.14
697.54	229.37
697.67	147.45
697.80	159.16
697.94	184.90
698.07	222.35
698.21	184.90
698.34	215.33
698.47	182.56
698.61	124.05
698.74	191.92
698.87	243.42
699.01	163.84
699.14	170.86
699.27	222.35
699.40	266.82
699.54	189.58
699.67	203.63
699.80	156.82
699.94	173.20
700.07	156.82
700.20	182.56
700.34	128.73
700.47	93.62
700.60	163.84
700.73	215.33
700.87	245.76
701.00	175.54
701.13	201.29
701.26	231.71
701.40	156.82
701.53	124.05
701.66	140.43
701.79	117.03
701.93	196.60
702.06	259.80
702.19	299.59
702.32	418.96
702.46	479.81
702.59	374.49
702.72	610.88
702.85	1909.88
702.99	4465.74
703.12	6455.20
703.25	7955.48
703.38	7037.99
703.51	5476.85
703.65	4257.43
703.78	3021.63
703.91	2045.63
704.04	1373.89
704.17	929.19
704.31	535.98
704.44	409.59
704.57	313.63
704.70	266.82
704.83	187.24
704.96	203.63
705.10	180.22
705.23	238.73
>>>>>End Processed Spectral Data<<<<<
