SpectraSuite Data File
++++++++++++++++++++++++++++++++++++
Date: Fri Oct 04 11:33:55 GMT-05:00 2013
User: price-jones
Dark Spectrum Present: No
Reference Spectrum Present: No
Number of Sampled Component Spectra: 1
Spectrometers: USB2+H05261
Integration Time (usec): 100000 (USB2+H05261)
Spectra Averaged: 1 (USB2+H05261)
Boxcar Smoothing: 0 (USB2+H05261)
Correct for Electrical Dark: No (USB2+H05261)
Strobe/Lamp Enabled: No (USB2+H05261)
Correct for Detector Non-linearity: No (USB2+H05261)
Correct for Stray Light: No (USB2+H05261)
Number of Pixels in Processed Spectrum: 2048
>>>>>Begin Processed Spectral Data<<<<<
365.73	28.09
365.92	28.09
366.12	28.09
366.32	0.00
366.52	0.00
366.72	49.15
366.91	0.00
367.11	0.00
367.31	0.00
367.51	46.81
367.70	4.68
367.90	9.36
368.10	0.00
368.30	0.00
368.49	0.00
368.69	0.00
368.89	0.00
369.09	4.68
369.28	42.13
369.48	0.00
369.68	0.00
369.87	67.88
370.07	105.32
370.27	63.19
370.47	21.06
370.66	0.00
370.86	72.56
371.06	145.11
371.25	88.94
371.45	77.24
371.65	117.03
371.84	131.07
372.04	65.54
372.24	149.79
372.44	131.07
372.63	102.98
372.83	126.39
373.03	152.13
373.22	88.94
373.42	180.22
373.62	191.92
373.81	182.56
374.01	166.18
374.21	93.62
374.40	147.45
374.60	227.03
374.79	135.75
374.99	154.48
375.19	138.09
375.38	173.20
375.58	168.52
375.78	257.46
375.97	189.58
376.17	159.16
376.37	163.84
376.56	159.16
376.76	100.64
376.95	112.35
377.15	145.11
377.35	177.88
377.54	191.92
377.74	133.41
377.93	208.31
378.13	126.39
378.33	60.85
378.52	142.77
378.72	105.32
378.91	133.41
379.11	149.79
379.31	173.20
379.50	131.07
379.70	77.24
379.89	149.79
380.09	170.86
380.28	117.03
380.48	170.86
380.68	166.18
380.87	124.05
381.07	112.35
381.26	86.60
381.46	149.79
381.65	88.94
381.85	156.82
382.04	102.98
382.24	205.97
382.43	112.35
382.63	152.13
382.83	170.86
383.02	159.16
383.22	110.01
383.41	147.45
383.61	100.64
383.80	100.64
384.00	114.69
384.19	51.49
384.39	98.30
384.58	145.11
384.78	201.29
384.97	180.22
385.17	124.05
385.36	107.66
385.56	196.60
385.75	161.50
385.95	187.24
386.14	88.94
386.34	184.90
386.53	198.95
386.72	145.11
386.92	170.86
387.11	88.94
387.31	138.09
387.50	156.82
387.70	79.58
387.89	161.50
388.09	161.50
388.28	114.69
388.48	159.16
388.67	119.37
388.86	187.24
389.06	142.77
389.25	170.86
389.45	110.01
389.64	39.79
389.84	161.50
390.03	259.80
390.22	107.66
390.42	107.66
390.61	124.05
390.81	53.83
391.00	133.41
391.19	217.67
391.39	166.18
391.58	145.11
391.78	170.86
391.97	110.01
392.16	112.35
392.36	102.98
392.55	175.54
392.75	124.05
392.94	161.50
393.13	156.82
393.33	112.35
393.52	119.37
393.71	145.11
393.91	77.24
394.10	112.35
394.29	84.26
394.49	133.41
394.68	184.90
394.88	208.31
395.07	161.50
395.26	224.69
395.46	212.99
395.65	163.84
395.84	114.69
396.04	229.37
396.23	119.37
396.42	126.39
396.62	133.41
396.81	142.77
397.00	121.71
397.19	168.52
397.39	173.20
397.58	121.71
397.77	147.45
397.97	91.28
398.16	124.05
398.35	138.09
398.55	128.73
398.74	189.58
398.93	100.64
399.12	180.22
399.32	140.43
399.51	224.69
399.70	147.45
399.90	173.20
400.09	234.05
400.28	182.56
400.47	58.51
400.67	124.05
400.86	121.71
401.05	119.37
401.24	161.50
401.44	72.56
401.63	124.05
401.82	154.48
402.01	117.03
402.21	203.63
402.40	147.45
402.59	133.41
402.78	196.60
402.97	119.37
403.17	145.11
403.36	222.35
403.55	147.45
403.74	177.88
403.93	189.58
404.13	250.44
404.32	177.88
404.51	252.78
404.70	210.65
404.89	138.09
405.09	110.01
405.28	166.18
405.47	112.35
405.66	147.45
405.85	177.88
406.05	161.50
406.24	121.71
406.43	170.86
406.62	135.75
406.81	166.18
407.00	152.13
407.20	161.50
407.39	105.32
407.58	152.13
407.77	152.13
407.96	166.18
408.15	194.26
408.34	95.96
408.54	210.65
408.73	215.33
408.92	159.16
409.11	159.16
409.30	159.16
409.49	227.03
409.68	107.66
409.87	196.60
410.07	105.32
410.26	187.24
410.45	138.09
410.64	159.16
410.83	201.29
411.02	159.16
411.21	191.92
411.40	245.76
411.59	114.69
411.78	159.16
411.98	255.12
412.17	110.01
412.36	91.28
412.55	173.20
412.74	198.95
412.93	166.18
413.12	145.11
413.31	212.99
413.50	196.60
413.69	210.65
413.88	180.22
414.07	156.82
414.26	110.01
414.45	196.60
414.64	145.11
414.83	198.95
415.02	191.92
415.22	210.65
415.41	166.18
415.60	133.41
415.79	208.31
415.98	168.52
416.17	184.90
416.36	271.50
416.55	177.88
416.74	154.48
416.93	231.71
417.12	145.11
417.31	117.03
417.50	170.86
417.69	318.31
417.88	191.92
418.07	156.82
418.26	152.13
418.45	241.08
418.64	290.23
418.83	297.25
419.02	252.78
419.21	191.92
419.39	184.90
419.58	224.69
419.77	224.69
419.96	196.60
420.15	306.61
420.34	147.45
420.53	140.43
420.72	227.03
420.91	117.03
421.10	175.54
421.29	166.18
421.48	224.69
421.67	142.77
421.86	119.37
422.05	182.56
422.24	135.75
422.43	182.56
422.61	196.60
422.80	133.41
422.99	201.29
423.18	107.66
423.37	217.67
423.56	220.01
423.75	159.16
423.94	140.43
424.13	201.29
424.32	140.43
424.50	159.16
424.69	147.45
424.88	191.92
425.07	210.65
425.26	236.39
425.45	194.26
425.64	259.80
425.83	250.44
426.01	222.35
426.20	208.31
426.39	152.13
426.58	124.05
426.77	147.45
426.96	205.97
427.15	152.13
427.33	236.39
427.52	231.71
427.71	177.88
427.90	215.33
428.09	110.01
428.28	114.69
428.46	145.11
428.65	175.54
428.84	220.01
429.03	159.16
429.22	161.50
429.40	215.33
429.59	145.11
429.78	180.22
429.97	168.52
430.16	231.71
430.34	117.03
430.53	177.88
430.72	168.52
430.91	227.03
431.10	142.77
431.28	198.95
431.47	241.08
431.66	264.48
431.85	100.64
432.03	217.67
432.22	191.92
432.41	149.79
432.60	243.42
432.79	271.50
432.97	416.62
433.16	285.55
433.35	311.29
433.54	220.01
433.72	250.44
433.91	201.29
434.10	222.35
434.28	217.67
434.47	203.63
434.66	175.54
434.85	187.24
435.03	236.39
435.22	360.44
435.41	353.42
435.59	353.42
435.78	231.71
435.97	250.44
436.16	264.48
436.34	166.18
436.53	180.22
436.72	208.31
436.90	205.97
437.09	189.58
437.28	100.64
437.46	154.48
437.65	215.33
437.84	189.58
438.02	194.26
438.21	154.48
438.40	189.58
438.58	156.82
438.77	138.09
438.96	196.60
439.14	161.50
439.33	166.18
439.52	168.52
439.70	117.03
439.89	266.82
440.08	180.22
440.26	189.58
440.45	170.86
440.63	112.35
440.82	191.92
441.01	231.71
441.19	58.51
441.38	198.95
441.57	156.82
441.75	124.05
441.94	173.20
442.12	170.86
442.31	234.05
442.50	168.52
442.68	126.39
442.87	217.67
443.05	177.88
443.24	266.82
443.43	227.03
443.61	170.86
443.80	241.08
443.98	191.92
444.17	161.50
444.35	238.73
444.54	280.86
444.73	236.39
444.91	231.71
445.10	177.88
445.28	168.52
445.47	208.31
445.65	210.65
445.84	198.95
446.02	276.18
446.21	140.43
446.39	149.79
446.58	184.90
446.77	208.31
446.95	234.05
447.14	175.54
447.32	229.37
447.51	128.73
447.69	224.69
447.88	210.65
448.06	266.82
448.25	177.88
448.43	222.35
448.62	156.82
448.80	205.97
448.99	180.22
449.17	182.56
449.36	222.35
449.54	180.22
449.73	243.42
449.91	198.95
450.10	182.56
450.28	287.89
450.46	198.95
450.65	175.54
450.83	297.25
451.02	191.92
451.20	159.16
451.39	217.67
451.57	231.71
451.76	147.45
451.94	133.41
452.13	201.29
452.31	283.20
452.49	217.67
452.68	182.56
452.86	180.22
453.05	187.24
453.23	222.35
453.42	173.20
453.60	182.56
453.78	173.20
453.97	217.67
454.15	236.39
454.34	142.77
454.52	205.97
454.70	224.69
454.89	241.08
455.07	149.79
455.26	173.20
455.44	133.41
455.62	220.01
455.81	194.26
455.99	163.84
456.17	276.18
456.36	135.75
456.54	210.65
456.73	142.77
456.91	175.54
457.09	100.64
457.28	184.90
457.46	210.65
457.64	234.05
457.83	215.33
458.01	194.26
458.19	250.44
458.38	72.56
458.56	229.37
458.74	182.56
458.93	168.52
459.11	175.54
459.29	224.69
459.48	177.88
459.66	236.39
459.84	257.46
460.03	238.73
460.21	198.95
460.39	194.26
460.57	227.03
460.76	168.52
460.94	168.52
461.12	264.48
461.31	245.76
461.49	161.50
461.67	212.99
461.85	191.92
462.04	184.90
462.22	622.58
462.40	271.50
462.59	220.01
462.77	220.01
462.95	208.31
463.13	166.18
463.32	212.99
463.50	175.54
463.68	196.60
463.86	156.82
464.05	189.58
464.23	231.71
464.41	173.20
464.59	255.12
464.78	168.52
464.96	161.50
465.14	149.79
465.32	175.54
465.50	166.18
465.69	166.18
465.87	112.35
466.05	156.82
466.23	142.77
466.41	180.22
466.60	175.54
466.78	177.88
466.96	168.52
467.14	208.31
467.32	255.12
467.51	205.97
467.69	177.88
467.87	217.67
468.05	175.54
468.23	152.13
468.41	205.97
468.60	212.99
468.78	220.01
468.96	245.76
469.14	259.80
469.32	245.76
469.50	124.05
469.69	210.65
469.87	210.65
470.05	241.08
470.23	262.14
470.41	245.76
470.59	163.84
470.77	175.54
470.95	208.31
471.14	217.67
471.32	208.31
471.50	297.25
471.68	241.08
471.86	217.67
472.04	198.95
472.22	173.20
472.40	168.52
472.58	227.03
472.77	105.32
472.95	182.56
473.13	292.57
473.31	280.86
473.49	248.10
473.67	273.84
473.85	252.78
474.03	189.58
474.21	220.01
474.39	231.71
474.57	264.48
474.75	161.50
474.93	210.65
475.12	212.99
475.30	152.13
475.48	236.39
475.66	156.82
475.84	170.86
476.02	175.54
476.20	189.58
476.38	203.63
476.56	257.46
476.74	177.88
476.92	217.67
477.10	273.84
477.28	222.35
477.46	250.44
477.64	227.03
477.82	161.50
478.00	154.48
478.18	161.50
478.36	135.75
478.54	222.35
478.72	147.45
478.90	229.37
479.08	180.22
479.26	203.63
479.44	163.84
479.62	203.63
479.80	224.69
479.98	173.20
480.16	227.03
480.34	184.90
480.52	180.22
480.70	163.84
480.88	140.43
481.06	191.92
481.24	201.29
481.41	196.60
481.59	224.69
481.77	191.92
481.95	194.26
482.13	262.14
482.31	238.73
482.49	220.01
482.67	245.76
482.85	229.37
483.03	287.89
483.21	283.20
483.39	276.18
483.57	245.76
483.74	266.82
483.92	217.67
484.10	184.90
484.28	266.82
484.46	220.01
484.64	210.65
484.82	351.08
485.00	306.61
485.18	308.95
485.35	236.39
485.53	161.50
485.71	243.42
485.89	229.37
486.07	140.43
486.25	330.02
486.43	191.92
486.61	280.86
486.78	311.29
486.96	271.50
487.14	210.65
487.32	191.92
487.50	231.71
487.68	278.52
487.85	222.35
488.03	248.10
488.21	245.76
488.39	194.26
488.57	304.27
488.75	264.48
488.92	498.53
489.10	294.91
489.28	241.08
489.46	266.82
489.64	266.82
489.81	245.76
489.99	227.03
490.17	248.10
490.35	320.65
490.53	252.78
490.70	299.59
490.88	227.03
491.06	250.44
491.24	283.20
491.41	290.23
491.59	166.18
491.77	220.01
491.95	241.08
492.13	266.82
492.30	269.16
492.48	217.67
492.66	262.14
492.84	250.44
493.01	210.65
493.19	285.55
493.37	301.93
493.54	229.37
493.72	283.20
493.90	264.48
494.08	280.86
494.25	285.55
494.43	210.65
494.61	243.42
494.79	241.08
494.96	252.78
495.14	299.59
495.32	252.78
495.49	236.39
495.67	187.24
495.85	285.55
496.02	196.60
496.20	283.20
496.38	234.05
496.55	222.35
496.73	241.08
496.91	299.59
497.09	203.63
497.26	170.86
497.44	264.48
497.62	175.54
497.79	241.08
497.97	187.24
498.14	264.48
498.32	231.71
498.50	280.86
498.67	203.63
498.85	299.59
499.03	297.25
499.20	234.05
499.38	360.44
499.56	250.44
499.73	273.84
499.91	269.16
500.08	248.10
500.26	238.73
500.44	227.03
500.61	259.80
500.79	266.82
500.97	306.61
501.14	262.14
501.32	276.18
501.49	369.80
501.67	227.03
501.84	271.50
502.02	175.54
502.20	227.03
502.37	276.18
502.55	229.37
502.72	234.05
502.90	124.05
503.07	299.59
503.25	297.25
503.43	273.84
503.60	187.24
503.78	234.05
503.95	229.37
504.13	241.08
504.30	262.14
504.48	191.92
504.65	269.16
504.83	259.80
505.01	212.99
505.18	301.93
505.36	248.10
505.53	234.05
505.71	208.31
505.88	208.31
506.06	280.86
506.23	269.16
506.41	161.50
506.58	236.39
506.76	248.10
506.93	252.78
507.11	285.55
507.28	191.92
507.46	227.03
507.63	248.10
507.81	290.23
507.98	208.31
508.16	229.37
508.33	311.29
508.50	332.36
508.68	212.99
508.85	264.48
509.03	322.99
509.20	229.37
509.38	252.78
509.55	252.78
509.73	236.39
509.90	227.03
510.08	231.71
510.25	231.71
510.42	269.16
510.60	276.18
510.77	259.80
510.95	273.84
511.12	269.16
511.30	337.04
511.47	367.46
511.64	299.59
511.82	299.59
511.99	308.95
512.17	248.10
512.34	285.55
512.51	201.29
512.69	166.18
512.86	292.57
513.04	355.76
513.21	220.01
513.38	215.33
513.56	304.27
513.73	173.20
513.90	224.69
514.08	236.39
514.25	255.12
514.43	285.55
514.60	234.05
514.77	318.31
514.95	285.55
515.12	243.42
515.29	292.57
515.47	283.20
515.64	175.54
515.81	362.78
515.99	308.95
516.16	297.25
516.33	266.82
516.51	252.78
516.68	250.44
516.85	196.60
517.03	248.10
517.20	191.92
517.37	217.67
517.54	299.59
517.72	250.44
517.89	255.12
518.06	212.99
518.24	252.78
518.41	337.04
518.58	273.84
518.75	273.84
518.93	229.37
519.10	276.18
519.27	271.50
519.45	257.46
519.62	238.73
519.79	205.97
519.96	318.31
520.14	292.57
520.31	320.65
520.48	308.95
520.65	243.42
520.83	241.08
521.00	231.71
521.17	276.18
521.34	227.03
521.52	182.56
521.69	259.80
521.86	290.23
522.03	280.86
522.20	273.84
522.38	283.20
522.55	243.42
522.72	224.69
522.89	245.76
523.07	294.91
523.24	255.12
523.41	278.52
523.58	313.63
523.75	292.57
523.92	248.10
524.10	304.27
524.27	351.08
524.44	271.50
524.61	276.18
524.78	203.63
524.96	257.46
525.13	243.42
525.30	294.91
525.47	276.18
525.64	346.40
525.81	290.23
525.98	332.36
526.16	259.80
526.33	187.24
526.50	259.80
526.67	320.65
526.84	224.69
527.01	168.52
527.18	341.72
527.36	346.40
527.53	301.93
527.70	255.12
527.87	308.95
528.04	315.97
528.21	220.01
528.38	234.05
528.55	393.21
528.72	351.08
528.89	283.20
529.07	315.97
529.24	299.59
529.41	341.72
529.58	318.31
529.75	191.92
529.92	341.72
530.09	266.82
530.26	308.95
530.43	320.65
530.60	304.27
530.77	297.25
530.94	313.63
531.11	301.93
531.28	266.82
531.46	292.57
531.63	208.31
531.80	250.44
531.97	264.48
532.14	257.46
532.31	292.57
532.48	273.84
532.65	376.83
532.82	341.72
532.99	437.68
533.16	358.10
533.33	334.70
533.50	351.08
533.67	353.42
533.84	470.45
534.01	521.94
534.18	388.53
534.35	339.38
534.52	301.93
534.69	325.33
534.86	287.89
535.03	269.16
535.20	238.73
535.37	325.33
535.54	322.99
535.71	210.65
535.88	320.65
536.05	234.05
536.22	285.55
536.38	332.36
536.55	271.50
536.72	250.44
536.89	269.16
537.06	294.91
537.23	313.63
537.40	318.31
537.57	327.68
537.74	330.02
537.91	271.50
538.08	243.42
538.25	358.10
538.42	313.63
538.59	334.70
538.75	290.23
538.92	337.04
539.09	264.48
539.26	388.53
539.43	608.54
539.60	1226.44
539.77	1935.62
539.94	1893.49
540.11	1291.98
540.28	873.02
540.44	622.58
540.61	465.77
540.78	402.57
540.95	393.21
541.12	538.32
541.29	526.62
541.46	505.56
541.62	510.24
541.79	535.98
541.96	564.07
542.13	496.19
542.30	449.38
542.47	503.22
542.63	470.45
542.80	486.83
542.97	571.09
543.14	486.83
543.31	498.53
543.48	510.24
543.64	486.83
543.81	596.84
543.98	428.32
544.15	477.47
544.32	416.62
544.48	423.64
544.65	442.36
544.82	454.06
544.99	528.96
545.16	454.06
545.32	479.81
545.49	690.46
545.66	844.93
545.83	987.71
546.00	849.61
546.16	578.11
546.33	521.94
546.50	458.74
546.67	449.38
546.83	379.17
547.00	407.25
547.17	407.25
547.34	435.34
547.50	430.66
547.67	348.74
547.84	428.32
548.00	409.59
548.17	440.02
548.34	400.23
548.51	372.15
548.67	479.81
548.84	458.74
549.01	320.65
549.18	374.49
549.34	383.85
549.51	346.40
549.68	313.63
549.84	304.27
550.01	397.89
550.18	397.89
550.34	454.06
550.51	337.04
550.68	367.46
550.84	320.65
551.01	407.25
551.18	376.83
551.34	283.20
551.51	315.97
551.68	266.82
551.84	346.40
552.01	285.55
552.18	332.36
552.34	348.74
552.51	327.68
552.68	400.23
552.84	311.29
553.01	252.78
553.18	276.18
553.34	334.70
553.51	325.33
553.67	283.20
553.84	285.55
554.01	243.42
554.17	337.04
554.34	276.18
554.51	276.18
554.67	376.83
554.84	315.97
555.00	290.23
555.17	280.86
555.33	266.82
555.50	313.63
555.67	297.25
555.83	294.91
556.00	311.29
556.16	468.11
556.33	355.76
556.50	306.61
556.66	292.57
556.83	149.79
556.99	339.38
557.16	306.61
557.32	182.56
557.49	264.48
557.65	264.48
557.82	297.25
557.98	245.76
558.15	217.67
558.32	297.25
558.48	259.80
558.65	229.37
558.81	283.20
558.98	306.61
559.14	341.72
559.31	255.12
559.47	285.55
559.64	210.65
559.80	287.89
559.97	241.08
560.13	304.27
560.30	266.82
560.46	304.27
560.63	241.08
560.79	229.37
560.96	341.72
561.12	220.01
561.29	311.29
561.45	231.71
561.61	201.29
561.78	393.21
561.94	238.73
562.11	205.97
562.27	262.14
562.44	166.18
562.60	299.59
562.77	205.97
562.93	402.57
563.10	266.82
563.26	255.12
563.42	243.42
563.59	236.39
563.75	208.31
563.92	297.25
564.08	290.23
564.24	341.72
564.41	355.76
564.57	184.90
564.74	245.76
564.90	280.86
565.07	351.08
565.23	369.80
565.39	280.86
565.56	285.55
565.72	271.50
565.88	262.14
566.05	348.74
566.21	285.55
566.38	334.70
566.54	325.33
566.70	201.29
566.87	334.70
567.03	266.82
567.19	320.65
567.36	271.50
567.52	243.42
567.68	285.55
567.85	252.78
568.01	212.99
568.17	304.27
568.34	301.93
568.50	297.25
568.66	283.20
568.83	315.97
568.99	308.95
569.15	320.65
569.32	222.35
569.48	187.24
569.64	262.14
569.81	229.37
569.97	220.01
570.13	250.44
570.30	290.23
570.46	259.80
570.62	243.42
570.78	273.84
570.95	189.58
571.11	315.97
571.27	264.48
571.43	276.18
571.60	308.95
571.76	262.14
571.92	346.40
572.09	299.59
572.25	372.15
572.41	238.73
572.57	194.26
572.74	330.02
572.90	301.93
573.06	360.44
573.22	266.82
573.38	266.82
573.55	315.97
573.71	313.63
573.87	287.89
574.03	271.50
574.20	234.05
574.36	311.29
574.52	332.36
574.68	346.40
574.84	475.13
575.01	243.42
575.17	257.46
575.33	301.93
575.49	287.89
575.65	327.68
575.82	372.15
575.98	634.29
576.14	793.44
576.30	856.64
576.46	755.99
576.62	641.31
576.79	510.24
576.95	454.06
577.11	372.15
577.27	313.63
577.43	337.04
577.59	308.95
577.75	308.95
577.92	346.40
578.08	315.97
578.24	339.38
578.40	339.38
578.56	404.91
578.72	433.00
578.88	379.17
579.04	400.23
579.21	435.34
579.37	290.23
579.53	348.74
579.69	395.55
579.85	407.25
580.01	512.58
580.17	484.49
580.33	454.06
580.49	461.09
580.65	435.34
580.82	449.38
580.98	379.17
581.14	353.42
581.30	440.02
581.46	596.84
581.62	676.41
581.78	727.91
581.94	716.20
582.10	592.16
582.26	528.96
582.42	580.45
582.58	458.74
582.74	533.64
582.90	575.77
583.06	578.11
583.22	594.50
583.38	554.71
583.54	585.13
583.70	746.63
583.86	809.83
584.02	880.04
584.18	1160.91
584.34	1486.24
584.50	3733.15
584.66	27527.04
584.82	59952.82
584.98	65535.00
585.14	65535.00
585.30	54890.24
585.46	34562.69
585.62	21303.56
585.78	9722.59
585.94	3847.84
586.10	1886.47
586.26	1200.69
586.42	917.49
586.58	847.27
586.74	760.67
586.90	730.25
587.06	770.04
587.22	662.37
587.38	683.44
587.54	1380.92
587.70	4105.30
587.86	6707.98
588.02	7527.16
588.18	5345.78
588.34	3447.61
588.49	2179.04
588.65	1357.51
588.81	702.16
588.97	458.74
589.13	397.89
589.29	430.66
589.45	454.06
589.61	421.30
589.77	564.07
589.93	496.19
590.08	540.66
590.24	554.71
590.40	524.28
590.56	461.09
590.72	444.70
590.88	423.64
591.04	428.32
591.20	430.66
591.35	444.70
591.51	383.85
591.67	472.79
591.83	383.85
591.99	365.12
592.15	393.21
592.31	393.21
592.46	458.74
592.62	477.47
592.78	397.89
592.94	376.83
593.10	381.51
593.26	444.70
593.41	477.47
593.57	512.58
593.73	678.76
593.89	3300.16
594.05	8451.67
594.20	12739.54
594.36	12194.19
594.52	8105.28
594.68	5111.73
594.84	3375.05
594.99	1865.41
595.15	849.61
595.31	573.43
595.47	414.27
595.62	390.87
595.78	404.91
595.94	367.46
596.10	517.26
596.25	461.09
596.41	383.85
596.57	428.32
596.73	400.23
596.88	585.13
597.04	1659.44
597.20	2747.79
597.36	3213.56
597.51	2389.69
597.67	1572.84
597.83	1191.33
597.99	854.30
598.14	580.45
598.30	416.62
598.46	409.59
598.61	388.53
598.77	461.09
598.93	355.76
599.09	372.15
599.24	379.17
599.40	301.93
599.56	313.63
599.71	362.78
599.87	308.95
600.03	290.23
600.18	285.55
600.34	304.27
600.50	346.40
600.65	266.82
600.81	327.68
600.97	264.48
601.12	243.42
601.28	308.95
601.44	255.12
601.59	344.06
601.75	367.46
601.91	311.29
602.06	330.02
602.22	433.00
602.37	847.27
602.53	1912.22
602.69	3138.66
602.84	3363.35
603.00	2396.71
603.16	1739.02
603.31	1284.95
603.47	802.80
603.62	458.74
603.78	372.15
603.94	334.70
604.09	386.19
604.25	367.46
604.40	344.06
604.56	299.59
604.71	386.19
604.87	278.52
605.03	358.10
605.18	379.17
605.34	351.08
605.49	334.70
605.65	393.21
605.80	421.30
605.96	390.87
606.12	360.44
606.27	372.15
606.43	411.93
606.58	519.60
606.74	856.64
606.89	3929.76
607.05	8156.77
607.20	10977.11
607.36	8919.78
607.51	6111.14
607.67	3789.33
607.82	2565.23
607.98	1612.63
608.13	863.66
608.29	528.96
608.44	528.96
608.60	557.05
608.75	648.33
608.91	1397.30
609.06	6012.84
609.22	13757.67
609.37	19171.33
609.53	16762.92
609.68	11070.73
609.84	7124.59
609.99	5029.81
610.15	2710.34
610.30	1413.68
610.46	1018.13
610.61	896.43
610.76	978.34
610.92	1032.18
611.07	1074.31
611.23	1170.27
611.38	1057.92
611.54	903.45
611.69	847.27
611.84	706.84
612.00	737.27
612.15	641.31
612.31	802.80
612.46	938.55
612.62	1057.92
612.77	1029.84
612.92	896.43
613.08	748.97
613.23	779.40
613.39	753.65
613.54	1034.52
613.69	5598.56
613.85	16737.17
614.00	27875.78
614.15	29827.79
614.31	21205.25
614.46	13668.73
614.62	9179.58
614.77	5502.60
614.92	2509.05
615.08	1273.25
615.23	821.53
615.38	634.29
615.54	627.26
615.69	1102.39
615.84	3391.44
616.00	5919.21
616.15	7829.09
616.30	6366.26
616.46	4407.23
616.61	2871.84
616.76	1996.48
616.92	1179.63
617.07	697.48
617.22	451.72
617.37	472.79
617.53	472.79
617.68	397.89
617.83	451.72
617.99	355.76
618.14	433.00
618.29	388.53
618.45	283.20
618.60	297.25
618.75	346.40
618.90	287.89
619.06	367.46
619.21	348.74
619.36	306.61
619.51	358.10
619.67	327.68
619.82	264.48
619.97	322.99
620.12	362.78
620.28	358.10
620.43	290.23
620.58	299.59
620.73	390.87
620.89	472.79
621.04	636.63
621.19	1799.87
621.34	3386.76
621.49	4458.72
621.65	4063.17
621.80	2977.16
621.95	2017.54
622.10	1519.01
622.25	833.23
622.41	550.03
622.56	454.06
622.71	355.76
622.86	306.61
623.01	353.42
623.16	365.12
623.32	344.06
623.47	271.50
623.62	355.76
623.77	344.06
623.92	395.55
624.07	360.44
624.23	297.25
624.38	358.10
624.53	362.78
624.68	330.02
624.83	308.95
624.98	409.59
625.13	339.38
625.29	353.42
625.44	386.19
625.59	430.66
625.74	456.40
625.89	760.67
626.04	2661.19
626.19	8147.40
626.34	13624.26
626.49	15414.77
626.65	11311.81
626.80	7641.85
626.95	5111.73
627.10	3187.81
627.25	1577.52
627.40	805.14
627.55	503.22
627.70	381.51
627.85	346.40
628.00	327.68
628.15	381.51
628.30	332.36
628.45	283.20
628.60	320.65
628.76	306.61
628.91	273.84
629.06	339.38
629.21	376.83
629.36	360.44
629.51	311.29
629.66	306.61
629.81	580.45
629.96	1586.88
630.11	2834.39
630.26	3824.44
630.41	3571.66
630.56	2586.29
630.71	1834.98
630.86	1376.24
631.01	788.76
631.16	587.47
631.31	428.32
631.46	383.85
631.61	337.04
631.76	283.20
631.91	308.95
632.06	351.08
632.21	315.97
632.36	330.02
632.51	435.34
632.66	617.90
632.81	1350.49
632.96	4320.63
633.10	8290.18
633.25	10242.18
633.40	8360.39
633.55	5902.83
633.70	3901.67
633.85	2665.87
634.00	1486.24
634.15	727.91
634.30	543.00
634.45	454.06
634.60	346.40
634.75	311.29
634.90	271.50
635.05	297.25
635.19	339.38
635.34	306.61
635.49	360.44
635.64	285.55
635.79	220.01
635.94	355.76
636.09	369.80
636.24	297.25
636.39	306.61
636.53	327.68
636.68	358.10
636.83	280.86
636.98	322.99
637.13	322.99
637.28	374.49
637.43	531.30
637.57	826.21
637.72	3667.62
637.87	10836.68
638.02	17666.36
638.17	19559.86
638.32	14626.01
638.46	9504.92
638.61	6691.59
638.76	4084.23
638.91	1984.77
639.06	1083.67
639.20	828.55
639.35	807.48
639.50	1095.37
639.65	5425.36
639.80	16187.14
639.94	26625.93
640.09	30211.64
640.24	22221.05
640.39	14890.49
640.54	9736.63
640.68	6078.37
640.83	2862.48
640.98	1397.30
641.13	828.55
641.27	465.77
641.42	468.11
641.57	379.17
641.72	409.59
641.86	332.36
642.01	344.06
642.16	334.70
642.31	315.97
642.45	376.83
642.60	269.16
642.75	327.68
642.90	325.33
643.04	243.42
643.19	250.44
643.34	243.42
643.48	273.84
643.63	241.08
643.78	344.06
643.93	234.05
644.07	234.05
644.22	189.58
644.37	283.20
644.51	290.23
644.66	330.02
644.81	205.97
644.95	236.39
645.10	301.93
645.25	189.58
645.39	241.08
645.54	236.39
645.69	297.25
645.83	287.89
645.98	301.93
646.13	227.03
646.27	278.52
646.42	215.33
646.57	332.36
646.71	243.42
646.86	215.33
647.00	205.97
647.15	259.80
647.30	198.95
647.44	243.42
647.59	262.14
647.74	241.08
647.88	168.52
648.03	292.57
648.17	313.63
648.32	229.37
648.47	294.91
648.61	362.78
648.76	306.61
648.90	255.12
649.05	358.10
649.20	344.06
649.34	259.80
649.49	346.40
649.63	285.55
649.78	299.59
649.92	578.11
650.07	2207.13
650.21	6984.16
650.36	12404.84
650.51	15407.75
650.65	12688.04
650.80	8627.21
650.94	5858.36
651.09	3763.58
651.23	1870.09
651.38	929.19
651.52	552.37
651.67	395.55
651.81	353.42
651.96	280.86
652.10	332.36
652.25	306.61
652.39	334.70
652.54	337.04
652.68	751.31
652.83	2223.51
652.97	4044.45
653.12	5654.73
653.26	4919.81
653.41	3555.27
653.55	2406.07
653.70	1558.80
653.84	957.28
653.99	571.09
654.13	437.68
654.27	311.29
654.42	344.06
654.56	259.80
654.71	250.44
654.85	187.24
655.00	280.86
655.14	194.26
655.29	255.12
655.43	255.12
655.57	229.37
655.72	210.65
655.86	227.03
656.01	189.58
656.15	198.95
656.30	210.65
656.44	201.29
656.58	182.56
656.73	248.10
656.87	224.69
657.01	276.18
657.16	187.24
657.30	320.65
657.45	245.76
657.59	271.50
657.73	175.54
657.88	250.44
658.02	393.21
658.16	203.63
658.31	238.73
658.45	301.93
658.60	212.99
658.74	266.82
658.88	339.38
659.03	208.31
659.17	351.08
659.31	966.64
659.46	3251.00
659.60	5858.36
659.74	7686.32
659.89	6583.93
660.03	4884.70
660.17	3375.05
660.32	2083.08
660.46	1221.76
660.60	664.71
660.74	496.19
660.89	320.65
661.03	278.52
661.17	318.31
661.32	227.03
661.46	248.10
661.60	182.56
661.74	248.10
661.89	292.57
662.03	266.82
662.17	191.92
662.31	245.76
662.46	182.56
662.60	290.23
662.74	210.65
662.88	250.44
663.03	280.86
663.17	198.95
663.31	189.58
663.45	243.42
663.60	175.54
663.74	285.55
663.88	194.26
664.02	236.39
664.17	250.44
664.31	257.46
664.45	227.03
664.59	248.10
664.73	266.82
664.88	252.78
665.02	180.22
665.16	140.43
665.30	210.65
665.44	205.97
665.59	285.55
665.73	367.46
665.87	222.35
666.01	145.11
666.15	229.37
666.29	180.22
666.44	292.57
666.58	351.08
666.72	224.69
666.86	264.48
667.00	318.31
667.14	505.56
667.28	1952.01
667.43	5888.79
667.57	10583.90
667.71	13624.26
667.85	11480.33
667.99	8599.13
668.13	5427.70
668.27	3073.12
668.41	1743.70
668.56	1001.75
668.70	636.63
668.84	407.25
668.98	353.42
669.12	332.36
669.26	301.93
669.40	386.19
669.54	276.18
669.68	372.15
669.82	259.80
669.96	241.08
670.10	264.48
670.25	334.70
670.39	257.46
670.53	262.14
670.67	257.46
670.81	248.10
670.95	346.40
671.09	596.84
671.23	2188.40
671.37	4947.89
671.51	7674.62
671.65	8461.04
671.79	6483.28
671.93	4500.85
672.07	2850.77
672.21	1624.33
672.35	919.83
672.49	531.30
672.63	491.51
672.77	252.78
672.91	297.25
673.05	304.27
673.19	283.20
673.33	231.71
673.47	318.31
673.61	184.90
673.75	201.29
673.89	191.92
674.03	259.80
674.17	203.63
674.31	205.97
674.45	266.82
674.59	212.99
674.73	220.01
674.87	266.82
675.01	353.42
675.15	320.65
675.29	339.38
675.43	262.14
675.56	262.14
675.70	285.55
675.84	259.80
675.98	238.73
676.12	154.48
676.26	177.88
676.40	173.20
676.54	234.05
676.68	180.22
676.82	318.31
676.96	205.97
677.10	227.03
677.23	187.24
677.37	198.95
677.51	212.99
677.65	245.76
677.79	191.92
677.93	290.23
678.07	173.20
678.21	189.58
678.34	227.03
678.48	205.97
678.62	250.44
678.76	154.48
678.90	159.16
679.04	154.48
679.18	205.97
679.31	182.56
679.45	212.99
679.59	180.22
679.73	215.33
679.87	175.54
680.00	173.20
680.14	248.10
680.28	156.82
680.42	140.43
680.56	177.88
680.70	191.92
680.83	259.80
680.97	187.24
681.11	252.78
681.25	212.99
681.39	269.16
681.52	180.22
681.66	262.14
681.80	163.84
681.94	117.03
682.07	142.77
682.21	189.58
682.35	187.24
682.49	259.80
682.62	194.26
682.76	173.20
682.90	170.86
683.04	168.52
683.17	133.41
683.31	201.29
683.45	283.20
683.59	212.99
683.72	196.60
683.86	159.16
684.00	142.77
684.13	222.35
684.27	212.99
684.41	170.86
684.55	194.26
684.68	196.60
684.82	205.97
684.96	191.92
685.09	168.52
685.23	114.69
685.37	166.18
685.50	238.73
685.64	231.71
685.78	184.90
685.91	257.46
686.05	140.43
686.19	128.73
686.32	133.41
686.46	215.33
686.60	121.71
686.73	210.65
686.87	187.24
687.01	325.33
687.14	243.42
687.28	168.52
687.42	287.89
687.55	245.76
687.69	205.97
687.82	224.69
687.96	269.16
688.10	283.20
688.23	210.65
688.37	243.42
688.50	220.01
688.64	248.10
688.78	201.29
688.91	131.07
689.05	161.50
689.18	217.67
689.32	166.18
689.46	231.71
689.59	191.92
689.73	264.48
689.86	140.43
690.00	196.60
690.13	117.03
690.27	147.45
690.41	133.41
690.54	152.13
690.68	196.60
690.81	189.58
690.95	191.92
691.08	189.58
691.22	98.30
691.35	168.52
691.49	224.69
691.62	177.88
691.76	194.26
691.89	187.24
692.03	194.26
692.16	147.45
692.30	285.55
692.43	744.29
692.57	2413.09
692.70	4475.10
692.84	5708.57
692.97	5217.05
693.11	4044.45
693.24	2850.77
693.38	1956.69
693.51	1301.34
693.65	866.00
693.78	615.56
693.92	411.93
694.05	318.31
694.19	248.10
694.32	198.95
694.45	138.09
694.59	187.24
694.72	217.67
694.86	245.76
694.99	180.22
695.13	205.97
695.26	152.13
695.39	215.33
695.53	306.61
695.66	231.71
695.80	110.01
695.93	196.60
696.07	189.58
696.20	285.55
696.33	482.15
696.47	554.71
696.60	531.30
696.73	440.02
696.87	337.04
697.00	301.93
697.14	229.37
697.27	187.24
697.40	208.31
697.54	194.26
697.67	198.95
697.80	224.69
697.94	198.95
698.07	133.41
698.21	135.75
698.34	124.05
698.47	163.84
698.61	229.37
698.74	236.39
698.87	154.48
699.01	255.12
699.14	142.77
699.27	198.95
699.40	264.48
699.54	194.26
699.67	170.86
699.80	152.13
699.94	210.65
700.07	154.48
700.20	194.26
700.34	205.97
700.47	163.84
700.60	145.11
700.73	231.71
700.87	191.92
701.00	149.79
701.13	215.33
701.26	222.35
701.40	271.50
701.53	210.65
701.66	100.64
701.79	215.33
701.93	182.56
702.06	308.95
702.19	461.09
702.32	533.64
702.46	575.77
702.59	533.64
702.72	947.92
702.85	3162.06
702.99	6829.68
703.12	9916.85
703.25	11501.39
703.38	9596.20
703.51	7716.75
703.65	5951.98
703.78	4095.94
703.91	2801.62
704.04	1727.32
704.17	1114.10
704.31	718.54
704.44	526.62
704.57	351.08
704.70	252.78
704.83	271.50
704.96	243.42
705.10	269.16
705.23	198.95
>>>>>End Processed Spectral Data<<<<<
