SpectraSuite Data File
++++++++++++++++++++++++++++++++++++
Date: Fri Oct 04 12:15:51 GMT-05:00 2013
User: price-jones
Dark Spectrum Present: No
Reference Spectrum Present: No
Number of Sampled Component Spectra: 1
Spectrometers: USB2+H05261
Integration Time (usec): 10000000 (USB2+H05261)
Spectra Averaged: 1 (USB2+H05261)
Boxcar Smoothing: 0 (USB2+H05261)
Correct for Electrical Dark: No (USB2+H05261)
Strobe/Lamp Enabled: No (USB2+H05261)
Correct for Detector Non-linearity: No (USB2+H05261)
Correct for Stray Light: No (USB2+H05261)
Number of Pixels in Processed Spectrum: 2048
>>>>>Begin Processed Spectral Data<<<<<
365.73	44.47
365.92	44.47
366.12	44.47
366.32	0.00
366.52	0.00
366.72	4348.72
366.91	2291.38
367.11	4327.65
367.31	3590.38
367.51	4320.63
367.70	4849.59
367.90	6707.98
368.10	4669.37
368.30	5043.85
368.49	2569.91
368.69	6277.32
368.89	4285.52
369.09	2750.13
369.28	3990.61
369.48	2410.75
369.68	3419.52
369.87	4547.66
370.07	3005.25
370.27	6731.38
370.47	4788.74
370.66	4381.48
370.86	6195.40
371.06	8545.30
371.25	10588.58
371.45	5076.62
371.65	7576.31
371.84	4266.80
372.04	3859.54
372.24	5671.12
372.44	4863.63
372.63	6120.50
372.83	9364.48
373.03	5172.58
373.22	4180.20
373.42	4367.44
373.62	5217.05
373.81	6197.74
374.01	7859.52
374.21	7595.04
374.40	4954.91
374.60	7934.42
374.79	5383.23
374.99	5334.08
375.19	6171.99
375.38	6785.21
375.58	5764.74
375.78	7599.72
375.97	6963.09
376.17	10892.85
376.37	5521.32
376.56	6651.80
376.76	4725.54
376.95	4526.60
377.15	7318.86
377.35	6794.58
377.54	6923.30
377.74	5048.54
377.93	5174.92
378.13	6504.35
378.33	8006.97
378.52	5776.44
378.72	8142.72
378.91	7456.95
379.11	5170.24
379.31	5163.22
379.50	4128.70
379.70	8056.12
379.89	8063.15
380.09	5371.53
380.28	4498.51
380.48	5980.07
380.68	5093.01
380.87	4278.50
381.07	6668.19
381.26	8884.67
381.46	4299.56
381.65	6958.41
381.85	5160.88
382.04	5516.64
382.24	6548.82
382.43	5310.68
382.63	4325.31
382.83	5060.24
383.02	7545.89
383.22	8439.97
383.41	4245.73
383.61	5689.84
383.80	5556.43
384.00	5860.70
384.19	5619.63
384.39	6272.64
384.58	5687.50
384.78	7068.42
384.97	6726.70
385.17	5933.26
385.36	5296.63
385.56	7379.71
385.75	4311.27
385.95	6113.48
386.14	7955.48
386.34	5502.60
386.53	6696.27
386.72	5198.33
386.92	8865.95
387.11	7159.70
387.31	7499.08
387.50	5144.50
387.70	4669.37
387.89	6279.66
388.09	5123.43
388.28	4788.74
388.48	5214.71
388.67	8093.57
388.86	6305.40
389.06	6373.28
389.25	7428.86
389.45	7246.30
389.64	6490.31
389.84	9116.39
390.03	7681.64
390.22	7213.53
390.42	6190.72
390.61	5533.03
390.81	5214.71
391.00	6958.41
391.19	9064.89
391.39	6677.55
391.58	8070.17
391.78	6717.34
391.97	7297.79
392.16	5095.35
392.36	9172.56
392.55	8608.49
392.75	5877.09
392.94	4849.59
393.13	7159.70
393.33	4381.48
393.52	5570.48
393.71	9350.44
393.91	6899.90
394.10	5249.82
394.29	6036.24
394.49	6310.08
394.68	7906.33
394.88	9671.09
395.07	9441.72
395.26	7686.32
395.46	7297.79
395.65	9273.20
395.84	7894.63
396.04	13495.53
396.23	6125.18
396.42	5500.26
396.62	6916.28
396.81	7218.21
397.00	6888.20
397.19	7503.76
397.39	7091.82
397.58	10560.50
397.77	7749.51
397.97	8255.07
398.16	8170.81
398.35	9661.73
398.55	7220.55
398.74	8582.74
398.93	10637.73
399.12	7964.84
399.32	9912.17
399.51	8519.55
399.70	10167.29
399.90	9682.80
400.09	9743.65
400.28	10892.85
400.47	8388.48
400.67	10899.87
400.86	9408.95
401.05	10551.14
401.24	11592.67
401.44	11016.90
401.63	11009.88
401.82	11747.15
402.01	8362.73
402.21	10244.52
402.40	10368.57
402.59	9146.81
402.78	8884.67
402.97	9174.90
403.17	9841.95
403.36	10689.23
403.55	9736.63
403.74	9657.05
403.93	9696.84
404.13	12088.87
404.32	8725.52
404.51	9109.36
404.70	12159.08
404.89	9856.00
405.09	14787.50
405.28	10312.40
405.47	8891.70
405.66	11557.57
405.85	12205.89
406.05	10317.08
406.24	10228.14
406.43	11164.36
406.62	11918.01
406.81	15721.38
407.00	12793.37
407.20	11035.63
407.39	10555.82
407.58	10520.71
407.77	12271.43
407.96	14373.23
408.15	13364.46
408.34	12908.05
408.54	12468.03
408.73	12587.40
408.92	12336.96
409.11	13418.29
409.30	14384.93
409.49	10462.19
409.68	11115.20
409.87	11557.57
410.07	10305.38
410.26	12308.88
410.45	12039.72
410.64	11524.80
410.83	13202.96
411.02	12343.99
411.21	14820.27
411.40	15290.72
411.59	13128.06
411.78	12854.22
411.98	13591.49
412.17	12608.47
412.36	13289.56
412.55	13563.40
412.74	15276.68
412.93	18010.42
413.12	12922.10
413.31	16837.81
413.50	15527.11
413.69	14780.48
413.88	17680.41
414.07	15068.37
414.26	14841.34
414.45	14670.48
414.64	16863.56
414.83	16898.67
415.02	16042.03
415.22	16910.37
415.41	18546.40
415.60	14939.64
415.79	16119.27
415.98	19871.15
416.17	16816.75
416.36	17085.91
416.55	15817.34
416.74	17591.47
416.93	18539.38
417.12	16376.73
417.31	16526.52
417.50	16608.44
417.69	21060.14
417.88	17025.06
418.07	15555.20
418.26	17125.70
418.45	17102.29
418.64	21488.46
418.83	18492.57
419.02	18518.32
419.21	17790.41
419.39	17654.66
419.58	16119.27
419.77	16580.36
419.96	19796.25
420.15	21530.59
420.34	18361.50
420.53	19578.58
420.72	20896.30
420.91	19782.21
421.10	19185.37
421.29	19428.79
421.48	19723.69
421.67	21514.20
421.86	18719.60
422.05	18246.82
422.24	17139.74
422.43	18129.79
422.61	16449.28
422.80	18686.84
422.99	19381.98
423.18	18068.94
423.37	21261.43
423.56	19854.76
423.75	20292.44
423.94	17305.92
424.13	18195.32
424.32	17083.57
424.50	18625.98
424.69	17813.82
424.88	21539.95
425.07	18099.36
425.26	19367.93
425.45	20016.26
425.64	17364.43
425.83	18242.14
426.01	21497.82
426.20	19641.78
426.39	18771.10
426.58	17706.15
426.77	18218.73
426.96	19800.93
427.15	18511.30
427.33	17558.70
427.52	19262.61
427.71	18857.70
427.90	19145.58
428.09	18258.52
428.28	17207.62
428.46	18122.77
428.65	19627.73
428.84	17853.61
429.03	22520.63
429.22	17605.51
429.40	16297.15
429.59	15372.64
429.78	20360.32
429.97	15412.43
430.16	15447.54
430.34	15875.85
430.53	15452.22
430.72	15819.68
430.91	19419.42
431.10	17165.49
431.28	20030.30
431.47	22771.07
431.66	21970.61
431.85	19637.09
432.03	19756.46
432.22	24748.82
432.41	19405.38
432.60	23789.20
432.79	19836.04
432.97	21785.71
433.16	20676.29
433.35	18906.85
433.54	18792.16
433.72	20524.16
433.91	20938.43
434.10	19164.31
434.28	21727.19
434.47	20851.83
434.66	23613.66
434.85	20788.64
435.03	21638.25
435.22	25055.43
435.41	25895.69
435.59	23545.79
435.78	23065.98
435.97	22115.72
436.16	24123.90
436.34	22581.49
436.53	23576.22
436.72	25135.01
436.90	23063.64
437.09	22967.68
437.28	21977.63
437.46	21551.65
437.65	23613.66
437.84	22569.79
438.02	21029.71
438.21	21563.36
438.40	20432.88
438.58	20526.50
438.77	22710.22
438.96	22658.73
439.14	22188.28
439.33	24982.88
439.52	23459.19
439.70	23367.91
439.89	24903.30
440.08	23545.79
440.26	23353.87
440.45	26934.88
440.63	24095.82
440.82	24439.87
441.01	25277.79
441.19	24070.07
441.38	24477.32
441.57	24814.36
441.75	28278.35
441.94	28130.90
442.12	25865.26
442.31	25261.40
442.50	25109.27
442.68	24699.67
442.87	26101.65
443.05	25135.01
443.24	26108.68
443.43	28779.23
443.61	29153.71
443.80	25991.65
443.98	24636.48
444.17	24978.20
444.35	28409.42
444.54	26085.27
444.73	26012.71
444.91	28730.08
445.10	23854.74
445.28	23468.55
445.47	24709.04
445.65	24322.85
445.84	23939.00
446.02	25401.83
446.21	25151.40
446.39	24786.27
446.58	25788.02
446.77	25333.96
446.95	25977.61
447.14	27431.08
447.32	30632.93
447.51	26426.99
447.69	26766.37
447.88	26176.55
448.06	29355.00
448.25	26817.86
448.43	25345.66
448.62	24673.93
448.80	27384.27
448.99	26850.63
449.17	25106.93
449.36	25331.62
449.54	28863.49
449.73	25099.90
449.91	27934.29
450.10	27367.88
450.28	33006.23
450.46	32023.21
450.65	29549.26
450.83	28404.74
451.02	27662.79
451.20	27091.70
451.39	27292.99
451.57	26789.77
451.76	26391.88
451.94	26707.85
452.13	26228.04
452.31	28500.70
452.49	25975.27
452.68	23227.48
452.86	25907.39
453.05	28613.05
453.23	26094.63
453.42	23473.23
453.60	26398.90
453.78	27700.24
453.97	25127.99
454.15	25071.82
454.34	25158.42
454.52	25127.99
454.70	28641.14
454.89	27442.78
455.07	25376.09
455.26	26864.67
455.44	28594.32
455.62	27030.85
455.81	27632.36
455.99	28318.14
456.17	28524.11
456.36	26855.31
456.54	27501.29
456.73	27550.45
456.91	27150.21
457.09	29244.99
457.28	30623.57
457.46	27632.36
457.64	29724.80
457.83	26429.33
458.01	25549.29
458.19	27178.30
458.38	25797.38
458.56	28727.74
458.74	25715.47
458.93	28332.18
459.11	27489.59
459.29	25998.67
459.48	28804.97
459.66	30450.37
459.84	29008.60
460.03	36594.28
460.21	28428.15
460.39	27744.71
460.57	30363.77
460.76	29069.45
460.94	28088.77
461.12	30972.31
461.31	30799.11
461.49	27711.94
461.67	27466.19
461.85	28350.91
462.04	28304.10
462.22	59508.12
462.40	28407.08
462.59	30663.36
462.77	27360.86
462.95	28802.63
463.13	26389.54
463.32	29996.31
463.50	27910.89
463.68	28842.42
463.86	28025.57
464.05	26930.20
464.23	28936.04
464.41	28374.31
464.59	25671.00
464.78	27201.71
464.96	25792.70
465.14	28236.22
465.32	27346.82
465.50	29312.87
465.69	29242.65
465.87	26522.95
466.05	28929.02
466.23	25144.38
466.41	26080.59
466.60	26810.84
466.78	26700.83
466.96	29062.43
467.14	27707.26
467.32	30033.75
467.51	28542.83
467.69	27510.66
467.87	30923.16
468.05	27637.05
468.23	31817.24
468.41	29172.44
468.60	26843.60
468.78	28369.63
468.96	30033.75
469.14	28746.46
469.32	25830.15
469.50	25525.88
469.69	28428.15
469.87	27637.05
470.05	26888.07
470.23	26073.57
470.41	25713.13
470.59	26267.83
470.77	27302.35
470.95	27302.35
471.14	30328.66
471.32	27379.59
471.50	32456.21
471.68	29219.25
471.86	28402.40
472.04	27587.89
472.22	28954.77
472.40	26181.23
472.58	27428.74
472.77	26445.71
472.95	28481.98
473.13	32872.82
473.31	30902.09
473.49	25944.84
473.67	26742.96
473.85	29984.60
474.03	31005.08
474.21	28931.36
474.39	32596.64
474.57	33198.16
474.75	30576.76
474.93	28037.28
475.12	26604.87
475.30	27536.40
475.48	28828.38
475.66	29635.86
475.84	28526.45
476.02	28379.00
476.20	30359.09
476.38	28975.83
476.56	33631.16
476.74	28907.96
476.92	29935.45
477.10	30216.32
477.28	32165.98
477.46	30925.50
477.64	30546.33
477.82	31255.51
478.00	31002.74
478.18	31129.12
478.36	31161.89
478.54	30302.92
478.72	30792.09
478.90	31105.72
479.08	33078.79
479.26	31880.44
479.44	31646.38
479.62	30199.93
479.80	32231.52
479.98	30614.21
480.16	32020.87
480.34	34380.13
480.52	31559.78
480.70	34267.78
480.88	32065.34
481.06	32063.00
481.24	32411.74
481.41	33228.59
481.59	35463.80
481.77	34726.53
481.95	33802.02
482.13	37291.76
482.31	33233.27
482.49	33357.32
482.67	35412.31
482.85	35732.96
483.03	35374.86
483.21	36067.66
483.39	34391.83
483.57	34216.29
483.74	36264.26
483.92	34005.64
484.10	31857.03
484.28	35632.32
484.46	39859.32
484.64	35058.88
484.82	35189.95
485.00	33764.57
485.18	34272.46
485.35	33717.76
485.53	29481.39
485.71	32816.65
485.89	27510.66
486.07	30338.02
486.25	36669.17
486.43	35105.70
486.61	34632.91
486.78	34897.39
486.96	31938.95
487.14	35117.40
487.32	35077.61
487.50	36266.60
487.68	37778.59
487.85	35253.15
488.03	39367.81
488.21	40584.89
488.39	37024.93
488.57	37139.62
488.75	35424.01
488.92	53399.32
489.10	39133.76
489.28	44002.07
489.46	38309.89
489.64	40275.94
489.81	40596.59
489.99	41209.81
490.17	39063.54
490.35	45830.03
490.53	38450.32
490.70	37469.64
490.88	40823.62
491.06	40257.21
491.24	41799.63
491.41	42794.36
491.59	39344.41
491.77	37148.98
491.95	37986.89
492.13	37848.80
492.30	41947.08
492.48	41289.39
492.66	41205.13
492.84	40926.61
493.01	41963.46
493.19	40940.65
493.37	44524.01
493.54	42274.76
493.72	42637.54
493.90	41965.81
494.08	42129.64
494.25	43964.62
494.43	42354.33
494.61	42043.04
494.79	42213.90
494.96	43377.15
495.14	43236.72
495.32	42485.40
495.49	41326.84
495.67	43873.34
495.85	43873.34
496.02	44039.52
496.20	46667.94
496.38	44210.38
496.55	45059.99
496.73	44694.87
496.91	42312.20
497.09	46731.14
497.26	43763.34
497.44	42941.81
497.62	43646.31
497.79	43035.43
497.97	42396.46
498.14	42415.19
498.32	42520.51
498.50	43374.81
498.67	44748.70
498.85	44622.31
499.03	44114.42
499.20	45275.32
499.38	45446.18
499.56	45062.33
499.73	48547.39
499.91	46611.77
500.08	44896.16
500.26	42192.84
500.44	42492.43
500.61	45041.27
500.79	42178.79
500.97	43789.08
501.14	45764.49
501.32	42742.86
501.49	45291.71
501.67	44039.52
501.84	44744.02
502.02	42852.87
502.20	47655.65
502.37	45495.33
502.55	44421.03
502.72	44353.15
502.90	46284.09
503.07	45254.26
503.25	45165.32
503.43	41373.65
503.60	40968.74
503.78	41628.77
503.95	42710.10
504.13	42953.51
504.30	46326.22
504.48	45890.88
504.65	45902.59
504.83	44580.18
505.01	44388.26
505.18	42237.31
505.36	46323.88
505.53	46461.97
505.71	44577.84
505.88	49279.98
506.06	45940.04
506.23	46838.80
506.41	44179.95
506.58	46431.55
506.76	44760.40
506.93	45411.07
507.11	46623.47
507.28	42981.60
507.46	43423.96
507.63	42787.33
507.81	42670.31
507.98	45422.78
508.16	44964.03
508.33	46167.07
508.50	46361.33
508.68	46223.24
508.85	47150.09
509.03	45642.79
509.20	45567.89
509.38	48116.73
509.55	46234.94
509.73	47398.19
509.90	48306.32
510.08	45645.13
510.25	47477.77
510.42	44657.42
510.60	45148.93
510.77	47496.49
510.95	48982.73
511.12	45808.96
511.30	48683.14
511.47	49453.18
511.64	49628.72
511.82	47285.84
511.99	46602.41
512.17	46216.22
512.34	44643.38
512.51	46515.81
512.69	44942.97
512.86	47573.73
513.04	45546.82
513.21	46665.60
513.38	44673.81
513.56	45773.86
513.73	44091.01
513.90	44671.46
514.08	42981.60
514.25	44378.90
514.43	46536.87
514.60	42677.33
514.77	44182.29
514.95	46270.05
515.12	44992.12
515.29	47646.29
515.47	47856.93
515.64	47672.03
515.81	47615.86
515.99	49020.18
516.16	45661.51
516.33	44289.96
516.51	39828.90
516.68	38843.53
516.85	39791.45
517.03	39826.56
517.20	44477.20
517.37	45443.84
517.54	47381.80
517.72	43775.04
517.89	42380.08
518.06	40217.43
518.24	45415.76
518.41	47143.07
518.58	45993.87
518.75	44275.91
518.93	45422.78
519.10	44449.11
519.27	44219.74
519.45	45666.19
519.62	47058.81
519.79	48378.87
519.96	46146.00
520.14	47138.39
520.31	47367.76
520.48	46005.57
520.65	46274.73
520.83	47309.25
521.00	46892.63
521.17	47524.58
521.34	45619.38
521.52	47079.88
521.69	47449.68
521.86	48444.41
522.03	48093.33
522.20	49825.32
522.38	44472.52
522.55	45930.67
522.72	43814.83
522.89	46096.85
523.07	49174.66
523.24	46944.12
523.41	47828.85
523.58	47707.14
523.75	48205.67
523.92	47599.47
524.10	48332.06
524.27	47927.15
524.44	45979.82
524.61	50054.70
524.78	47105.62
524.96	48193.97
525.13	48275.89
525.30	49429.77
525.47	50143.64
525.64	47122.01
525.81	47337.33
525.98	46511.13
526.16	43693.12
526.33	42745.20
526.50	39789.11
526.67	40772.13
526.84	42284.12
527.01	41727.07
527.18	46038.34
527.36	45701.30
527.53	46927.74
527.70	49029.54
527.87	47323.29
528.04	46808.37
528.21	45890.88
528.38	49485.95
528.55	50351.94
528.72	50241.94
528.89	52456.09
529.07	48907.83
529.24	47419.25
529.41	49764.47
529.58	47423.93
529.75	46260.69
529.92	48458.45
530.09	47484.79
530.26	49434.45
530.43	49488.29
530.60	48357.81
530.77	48301.64
530.94	49904.90
531.11	48512.28
531.28	47337.33
531.46	46349.63
531.63	48072.26
531.80	48390.58
531.97	48006.73
532.14	44289.96
532.31	45855.78
532.48	44516.99
532.65	45413.41
532.82	43604.18
532.99	46054.72
533.16	46504.10
533.33	46974.55
533.50	47672.03
533.67	44830.62
533.84	47084.56
534.01	44194.00
534.18	46223.24
534.35	46265.37
534.52	48311.00
534.69	51140.71
534.86	47304.57
535.03	47414.57
535.20	47327.97
535.37	50550.89
535.54	49645.10
535.71	47440.32
535.88	50188.11
536.05	47601.82
536.22	47339.68
536.38	45818.33
536.55	46983.91
536.72	47681.39
536.89	44435.07
537.06	44566.14
537.23	44641.04
537.40	44308.68
537.57	45186.38
537.74	47681.39
537.91	47571.39
538.08	46457.29
538.25	47999.71
538.42	46532.19
538.59	46003.23
538.75	44708.91
538.92	46993.28
539.09	47014.34
539.26	45867.48
539.43	47700.12
539.60	45296.39
539.77	46003.23
539.94	45488.31
540.11	46195.15
540.28	46990.94
540.44	46450.27
540.61	43484.81
540.78	43931.86
540.95	42478.38
541.12	48067.58
541.29	45020.20
541.46	47941.19
541.62	46689.01
541.79	44861.05
541.96	44128.46
542.13	45626.40
542.30	44720.62
542.47	48280.57
542.63	44514.65
542.80	46014.93
542.97	46637.51
543.14	45010.84
543.31	45771.52
543.48	46089.83
543.64	47196.90
543.81	47639.26
543.98	46155.36
544.15	45823.01
544.32	45237.87
544.48	45694.28
544.65	45741.09
544.82	45492.99
544.99	45958.76
545.16	48231.42
545.32	45029.57
545.49	46799.01
545.66	46878.59
545.83	45617.04
546.00	43800.79
546.16	44502.95
546.33	45158.30
546.50	45523.42
546.67	48612.93
546.83	46028.98
547.00	47131.37
547.17	44013.77
547.34	43253.10
547.50	44357.83
547.67	45205.11
547.84	44416.35
548.00	47023.70
548.17	45364.26
548.34	45713.00
548.51	49228.49
548.67	47842.89
548.84	45869.82
549.01	47124.35
549.18	46597.73
549.34	46436.23
549.51	46087.49
549.68	46202.18
549.84	45801.94
550.01	44039.52
550.18	52406.94
550.34	50195.13
550.51	45593.64
550.68	48208.01
550.84	43604.18
551.01	45511.72
551.18	45977.48
551.34	44863.39
551.51	45205.11
551.68	46031.32
551.84	47199.24
552.01	43545.67
552.18	45422.78
552.34	45347.88
552.51	45130.21
552.68	44596.57
552.84	44072.29
553.01	45764.49
553.18	47466.06
553.34	44858.71
553.51	43840.57
553.67	47140.73
553.84	50035.97
554.01	46972.21
554.17	46876.25
554.34	44201.02
554.51	46546.23
554.67	47686.07
554.84	47154.77
555.00	46167.07
555.17	45612.36
555.33	46653.90
555.50	44556.78
555.67	45595.98
555.83	43421.62
556.00	45024.89
556.16	55402.82
556.33	43723.55
556.50	44238.47
556.66	44615.29
556.83	43337.36
556.99	43196.93
557.16	44884.45
557.32	43438.00
557.49	44582.52
557.65	44250.17
557.82	43618.22
557.98	44428.05
558.15	42279.44
558.32	42841.17
558.48	41734.09
558.65	41572.60
558.81	43285.87
558.98	41911.97
559.14	43428.64
559.31	43208.63
559.47	44879.77
559.64	41926.02
559.80	43978.67
559.97	40832.99
560.13	42396.46
560.30	41940.06
560.46	43730.57
560.63	44065.27
560.79	44222.08
560.96	44020.80
561.12	41911.97
561.29	41827.71
561.45	40751.07
561.61	41525.78
561.78	49680.21
561.94	43035.43
562.11	42220.92
562.27	42986.28
562.44	41881.55
562.60	43129.05
562.77	43203.95
562.93	48044.18
563.10	43700.14
563.26	42543.92
563.42	44779.13
563.59	42440.93
563.75	40837.67
563.92	45284.68
564.08	43072.88
564.24	44212.72
564.41	46422.19
564.57	41132.57
564.74	41556.21
564.90	41745.80
565.07	42988.62
565.23	42993.30
565.39	40456.16
565.56	41855.80
565.72	39880.39
565.88	40388.28
566.05	40399.99
566.21	40325.09
566.38	42707.76
566.54	40940.65
566.70	41617.07
566.87	41581.96
567.03	40102.74
567.19	42148.37
567.36	42029.00
567.52	40790.86
567.68	41249.60
567.85	41287.05
568.01	39477.82
568.17	37916.68
568.34	38967.58
568.50	42139.00
568.66	37827.74
568.83	45530.44
568.99	38422.23
569.15	43054.15
569.32	39384.19
569.48	39601.86
569.64	38347.34
569.81	38562.67
569.97	37933.06
570.13	40250.19
570.30	38543.94
570.46	38267.76
570.62	38043.07
570.78	37579.64
570.95	35615.93
571.11	41170.02
571.27	42059.43
571.43	36456.18
571.60	40451.48
571.76	37556.24
571.92	39321.00
572.09	39878.05
572.25	39548.03
572.41	39409.94
572.57	38787.36
572.74	43842.92
572.90	40837.67
573.06	41085.76
573.22	39999.76
573.38	41193.43
573.55	40739.36
573.71	41909.63
573.87	41247.26
574.03	37741.14
574.20	38539.26
574.36	41120.87
574.52	38017.32
574.68	37509.43
574.84	39875.71
575.01	38022.00
575.17	38569.69
575.33	37521.13
575.49	40203.38
575.65	40322.75
575.82	39945.92
575.98	42770.95
576.14	37411.12
576.30	37813.70
576.46	38590.75
576.62	38658.63
576.79	38382.45
576.95	40753.41
577.11	36470.23
577.27	37446.23
577.43	41071.72
577.59	40259.55
577.75	38394.15
577.92	36357.88
578.08	35620.61
578.24	35651.04
578.40	39601.86
578.56	39456.75
578.72	39793.79
578.88	38815.44
579.04	36348.52
579.21	38897.36
579.37	37053.02
579.53	38096.90
579.69	39545.69
579.85	36378.95
580.01	38253.72
580.17	36259.58
580.33	36161.28
580.49	37642.84
580.65	38632.88
580.82	38483.09
580.98	36367.24
581.14	36875.14
581.30	40603.61
581.46	37862.85
581.62	40542.76
581.78	36622.36
581.94	39796.13
582.10	36481.93
582.26	38129.67
582.42	37067.06
582.58	39292.91
582.74	37081.11
582.90	39189.93
583.06	39086.95
583.22	36311.07
583.38	37027.28
583.54	37205.16
583.70	40781.49
583.86	38431.60
584.02	38057.11
584.18	42085.17
584.34	37521.13
584.50	38403.51
584.66	39213.34
584.82	40266.58
584.98	45619.38
585.14	43845.26
585.30	43229.69
585.46	39711.87
585.62	35288.26
585.78	36407.03
585.94	36903.23
586.10	36629.38
586.26	37153.66
586.42	40568.51
586.58	38433.94
586.74	36751.09
586.90	36463.21
587.06	37069.40
587.22	36596.62
587.38	33558.60
587.54	34792.06
587.70	37198.13
587.86	36582.57
588.02	33280.08
588.18	34394.17
588.34	33472.00
588.49	28168.35
588.65	29060.09
588.81	28664.54
588.97	26520.61
589.13	28259.63
589.29	29429.90
589.45	31842.99
589.61	29406.49
589.77	32889.21
589.93	30874.01
590.08	31166.57
590.24	30398.88
590.40	32701.96
590.56	34408.22
590.72	32053.64
590.88	30796.77
591.04	32631.75
591.20	31929.59
591.35	36011.48
591.51	32336.84
591.67	30075.88
591.83	31063.59
591.99	33804.36
592.15	34330.98
592.31	33727.12
592.46	32680.90
592.62	34976.97
592.78	32772.18
592.94	32657.49
593.10	32163.64
593.26	32613.02
593.41	35033.14
593.57	33464.98
593.73	31119.76
593.89	33535.20
594.05	31531.70
594.20	30558.03
594.36	33764.57
594.52	30228.02
594.68	29902.68
594.84	33860.53
594.99	35976.37
595.15	34586.10
595.31	33930.75
595.47	35498.91
595.62	32404.72
595.78	32301.73
595.94	33088.15
596.10	36126.17
596.25	33785.63
596.41	35093.99
596.57	31899.16
596.73	31541.06
596.88	33308.16
597.04	34216.29
597.20	32463.23
597.36	33310.50
597.51	31700.22
597.67	31952.99
597.83	32755.80
597.99	35463.80
598.14	34047.77
598.30	35723.60
598.46	31826.60
598.61	36102.76
598.77	33706.05
598.93	32982.83
599.09	34192.89
599.24	35290.60
599.40	37357.29
599.56	34213.95
599.71	34270.12
599.87	34408.22
600.03	34155.44
600.18	34438.64
600.34	35484.86
600.50	33010.92
600.65	33034.32
600.81	36893.86
600.97	33806.70
601.12	34227.99
601.28	37085.79
601.44	33633.50
601.59	32826.01
601.75	33266.03
601.91	33750.52
602.06	34623.54
602.22	41701.32
602.37	35075.27
602.53	34230.33
602.69	36334.48
602.84	33137.30
603.00	34305.23
603.16	36362.56
603.31	36837.69
603.47	35519.97
603.62	32961.76
603.78	34920.79
603.94	35847.64
604.09	35255.49
604.25	35613.59
604.40	34630.57
604.56	33413.49
604.71	35021.44
604.87	33420.51
605.03	34838.87
605.18	35089.31
605.34	36643.43
605.49	33516.47
605.65	33940.11
605.80	32680.90
605.96	33916.70
606.12	35299.96
606.27	36416.40
606.43	34068.84
606.58	35365.49
606.74	33551.58
606.89	34284.17
607.05	36790.88
607.20	36322.77
607.36	36659.81
607.51	34260.76
607.67	34162.46
607.82	34148.42
607.98	37029.62
608.13	34141.39
608.29	33509.45
608.44	36610.66
608.60	33949.47
608.75	36435.12
608.91	35124.42
609.06	36182.34
609.22	36416.40
609.37	34024.37
609.53	33947.13
609.68	33888.62
609.84	31630.00
609.99	31985.76
610.15	34389.49
610.30	34082.88
610.46	35292.94
610.61	34120.33
610.76	33230.93
610.92	34330.98
611.07	32217.47
611.23	38412.87
611.38	35419.33
611.54	31494.25
611.69	32144.92
611.84	32437.48
612.00	31358.50
612.15	31197.00
612.31	32119.17
612.46	31992.78
612.62	30380.15
612.77	35372.52
612.92	34010.32
613.08	34782.70
613.23	33916.70
613.39	31658.09
613.54	30499.52
613.69	31037.84
613.85	32142.58
614.00	34141.39
614.15	35447.41
614.31	33455.62
614.46	35325.71
614.62	31847.67
614.77	35803.17
614.92	31152.53
615.08	33074.11
615.23	33181.77
615.38	31732.98
615.54	30625.91
615.69	31192.32
615.84	29305.85
616.00	30902.09
616.15	29900.34
616.30	31527.02
616.46	31016.78
616.61	29619.48
616.76	32027.89
616.92	30984.01
617.07	30347.39
617.22	30885.71
617.37	30726.55
617.53	31697.88
617.68	31461.48
617.83	31665.11
617.99	34094.58
618.14	35480.18
618.29	34272.46
618.45	31218.07
618.60	30579.10
618.75	29848.85
618.90	29532.88
619.06	31372.54
619.21	35400.60
619.36	34249.06
619.51	29713.10
619.67	30050.14
619.82	30202.27
619.97	31545.74
620.12	32063.00
620.28	32025.55
620.43	30895.07
620.58	32774.52
620.73	31952.99
620.89	31103.38
621.04	31723.62
621.19	35351.45
621.34	29537.56
621.49	28926.68
621.65	31660.43
621.80	29244.99
621.95	29387.77
622.10	31646.38
622.25	28376.66
622.41	28732.42
622.56	30389.52
622.71	30335.68
622.86	31800.86
623.01	29755.23
623.16	33343.27
623.32	28481.98
623.47	31241.47
623.62	29308.19
623.77	29575.01
623.92	28809.65
624.07	28620.07
624.23	28966.47
624.38	27641.73
624.53	28804.97
624.68	29717.78
624.83	32535.79
624.98	29656.93
625.13	27400.65
625.29	26972.33
625.44	28133.24
625.59	29123.29
625.74	29778.64
625.89	31037.84
626.04	26838.92
626.19	28603.69
626.34	28987.53
626.49	31412.33
626.65	27779.82
626.80	28423.47
626.95	29378.40
627.10	26621.25
627.25	27960.04
627.40	26024.42
627.55	27606.62
627.70	24922.02
627.85	27838.33
628.00	25612.48
628.15	25792.70
628.30	27225.11
628.45	25582.06
628.60	26525.29
628.76	27220.43
628.91	26476.14
629.06	26986.38
629.21	25874.62
629.36	29088.18
629.51	24491.37
629.66	27646.41
629.81	25591.42
629.96	27992.81
630.11	28276.01
630.26	27480.23
630.41	26735.94
630.56	28334.53
630.71	25083.52
630.86	27030.85
631.01	25490.77
631.16	26389.54
631.31	29640.54
631.46	28755.82
631.61	26272.51
631.76	26609.55
631.91	25949.52
632.06	28081.75
632.21	27379.59
632.36	27840.67
632.51	25661.63
632.66	26242.09
632.81	26340.39
632.96	27702.58
633.10	27667.47
633.25	31803.20
633.40	27515.34
633.55	27601.94
633.70	26419.97
633.85	26757.00
634.00	24489.03
634.15	25947.18
634.30	27204.05
634.45	26927.86
634.60	26450.39
634.75	25064.80
634.90	25598.44
635.05	26628.27
635.19	26843.60
635.34	26558.06
635.49	27693.22
635.64	25413.54
635.79	25252.04
635.94	27065.96
636.09	28135.58
636.24	26857.65
636.39	25373.75
636.53	27901.53
636.68	25301.19
636.83	26572.10
636.98	29390.11
637.13	24854.15
637.28	27417.04
637.43	30513.56
637.57	27793.86
637.72	29699.06
637.87	28460.91
638.02	26745.30
638.17	28355.59
638.32	28856.46
638.46	27360.86
638.61	31543.40
638.76	25422.90
638.91	25142.03
639.06	24861.17
639.20	29167.76
639.35	27304.69
639.50	25322.26
639.65	30422.28
639.80	26616.57
639.94	30375.47
640.09	32421.10
640.24	30656.34
640.39	27751.73
640.54	27051.91
640.68	25839.51
640.83	27807.90
640.98	24346.25
641.13	24917.34
641.27	24379.02
641.42	24664.57
641.57	27672.15
641.72	25387.79
641.86	25661.63
642.01	24683.29
642.16	27831.31
642.31	24496.05
642.45	29673.31
642.60	28140.26
642.75	24156.67
642.90	27311.71
643.04	24102.84
643.19	24039.64
643.34	24790.95
643.48	25256.72
643.63	24362.64
643.78	27812.59
643.93	29184.14
644.07	25357.36
644.22	24196.46
644.37	23096.41
644.51	26398.90
644.66	25355.02
644.81	24112.20
644.95	26642.32
645.10	22829.59
645.25	22621.28
645.39	26998.08
645.54	22998.10
645.69	27260.22
645.83	21654.64
645.98	28800.29
646.13	22136.79
646.27	24767.55
646.42	20631.82
646.57	21781.03
646.71	21774.00
646.86	21635.91
647.00	22417.65
647.15	23419.40
647.30	19880.51
647.44	20800.34
647.59	20159.03
647.74	19552.84
647.88	22576.81
648.03	19218.14
648.17	23828.99
648.32	19463.90
648.47	23035.55
648.61	21142.06
648.76	21078.86
648.90	20732.47
649.05	21401.86
649.20	19873.49
649.34	19934.34
649.49	19639.44
649.63	21937.84
649.78	21240.36
649.92	21853.58
650.07	23939.00
650.21	22389.56
650.36	26260.81
650.51	24130.92
650.65	28142.60
650.80	23498.98
650.94	22511.27
651.09	22087.64
651.23	20435.22
651.38	20037.33
651.52	19971.79
651.67	20367.34
651.81	21954.22
651.96	24315.83
652.10	24219.86
652.25	22148.49
652.39	23573.88
652.54	23580.90
652.68	23278.97
652.83	23971.77
652.97	23129.17
653.12	24149.65
653.26	21158.44
653.41	24290.08
653.55	23391.31
653.70	21116.31
653.84	21926.14
653.99	21790.39
654.13	20414.15
654.27	21317.60
654.42	20446.92
654.56	20699.70
654.71	23267.27
654.85	19730.72
655.00	19672.20
655.14	20587.35
655.29	19105.79
655.43	22272.54
655.57	20475.01
655.72	18057.23
655.86	19372.61
656.01	18537.04
656.15	16657.59
656.30	21860.60
656.44	17420.61
656.58	17785.73
656.73	19440.49
656.87	18480.87
657.01	20196.48
657.16	24329.87
657.30	21315.26
657.45	24982.88
657.59	21783.37
657.73	20329.89
657.88	21565.70
658.02	29369.04
658.16	20830.77
658.31	21305.90
658.45	21013.33
658.60	18878.76
658.74	21469.73
658.88	20308.83
659.03	19817.32
659.17	19751.78
659.31	19728.38
659.46	20737.15
659.60	22827.24
659.74	21757.62
659.89	21654.64
660.03	21331.64
660.17	26043.14
660.32	22787.46
660.46	23110.45
660.60	21158.44
660.74	22941.93
660.89	22022.10
661.03	19765.82
661.17	20189.46
661.32	20868.22
661.46	21156.10
661.60	20870.56
661.74	22728.94
661.89	23662.82
662.03	22888.10
662.17	21174.83
662.31	22211.68
662.46	22651.70
662.60	21869.97
662.74	20477.35
662.88	22831.93
663.03	20194.14
663.17	19325.80
663.31	21385.47
663.45	21619.53
663.60	20362.66
663.74	19197.07
663.88	19037.92
664.02	21172.49
664.17	19403.04
664.31	19716.67
664.45	21406.54
664.59	20706.72
664.73	20589.69
664.88	23065.98
665.02	19314.10
665.16	20327.55
665.30	24435.19
665.44	20945.45
665.59	23946.02
665.73	21027.37
665.87	20507.77
666.01	20252.66
666.15	19047.28
666.29	18668.11
666.44	24041.98
666.58	25294.17
666.72	18897.49
666.86	19396.02
667.00	22576.81
667.14	20421.17
667.28	21694.43
667.43	20748.85
667.57	21986.99
667.71	22642.34
667.85	21610.17
667.99	22192.96
668.13	20334.57
668.27	21614.85
668.41	21525.91
668.56	20133.29
668.70	23424.08
668.84	19836.04
668.98	21474.42
669.12	17886.37
669.26	20425.86
669.40	25766.96
669.54	20645.87
669.68	22211.68
669.82	18434.06
669.96	20201.16
670.10	19358.57
670.25	21376.11
670.39	21259.09
670.53	18817.91
670.67	21130.36
670.81	18054.89
670.95	20105.20
671.09	19267.29
671.23	22871.72
671.37	22326.37
671.51	20166.06
671.65	21853.58
671.79	18881.10
671.93	19903.92
672.07	24973.52
672.21	20975.88
672.35	18806.20
672.49	18054.89
672.63	21359.73
672.77	19761.14
672.91	19873.49
673.05	18890.46
673.19	19445.17
673.33	17458.06
673.47	24030.28
673.61	19147.92
673.75	17811.48
673.89	17310.60
674.03	19899.23
674.17	18354.48
674.31	18988.77
674.45	19964.77
674.59	19178.35
674.73	18111.07
674.87	19454.53
675.01	19885.19
675.15	17516.57
675.29	21088.23
675.43	20641.18
675.56	22759.37
675.70	21675.70
675.84	18408.31
675.98	19040.26
676.12	16280.77
676.26	17975.31
676.40	16266.72
676.54	18279.58
676.68	17193.58
676.82	20018.60
676.96	16105.23
677.10	18466.83
677.23	16769.94
677.37	16156.72
677.51	17497.84
677.65	23854.74
677.79	16400.13
677.93	16521.84
678.07	16879.94
678.21	15470.94
678.34	15915.64
678.48	15941.39
678.62	18146.17
678.76	15023.90
678.90	17018.04
679.04	17317.62
679.18	15988.20
679.31	15365.62
679.45	15321.15
679.59	17233.36
679.73	16954.84
679.87	14841.34
680.00	17312.94
680.14	17102.29
680.28	17799.77
680.42	15709.68
680.56	18242.14
680.70	15241.57
680.83	17296.56
680.97	15194.76
681.11	15337.53
681.25	18768.76
681.39	15775.21
681.52	17064.85
681.66	16643.55
681.80	17582.10
681.94	14808.57
682.07	15557.54
682.21	16769.94
682.35	14406.00
682.49	14595.58
682.62	18188.30
682.76	14197.69
682.90	15096.46
683.04	16893.99
683.17	17020.38
683.31	14937.30
683.45	17600.83
683.59	18719.60
683.72	17427.63
683.86	15826.70
684.00	14164.92
684.13	17596.15
684.27	16716.11
684.41	16294.81
684.55	15211.14
684.68	14970.07
684.82	13914.48
684.96	14792.19
685.09	15150.29
685.23	13429.99
685.37	13535.32
685.50	17102.29
685.64	17165.49
685.78	13186.58
685.91	16245.66
686.05	17326.99
686.19	15218.16
686.32	14387.27
686.46	13853.63
686.60	9942.60
686.73	16856.54
686.87	12936.14
687.01	8746.58
687.14	8201.24
687.28	9633.64
687.42	10157.92
687.55	10483.26
687.69	14993.47
687.82	10604.97
687.96	12175.47
688.10	15279.02
688.23	11896.94
688.37	15969.48
688.50	13476.80
688.64	13135.09
688.78	10656.46
688.91	10890.51
689.05	11253.30
689.18	10171.97
689.32	11290.74
689.46	10974.77
689.59	12552.29
689.73	13659.37
689.86	10207.08
690.00	11569.27
690.13	10663.48
690.27	10408.36
690.41	12788.69
690.54	14008.11
690.68	12713.79
690.81	11665.23
690.95	11875.88
691.08	12891.67
691.22	10942.00
691.35	11454.58
691.49	10125.16
691.62	11714.38
691.76	10640.08
691.89	12051.42
692.03	9846.63
692.16	9745.99
692.30	12002.27
692.43	11466.28
692.57	9977.70
692.70	9909.83
692.84	12589.74
692.97	10162.61
693.11	9863.02
693.24	10881.15
693.38	9699.18
693.51	10377.94
693.65	12627.19
693.78	9643.01
693.92	9348.10
694.05	11274.36
694.19	8381.46
694.32	11054.35
694.45	9645.35
694.59	9490.87
694.72	9795.14
694.86	9973.02
694.99	11744.81
695.13	9706.20
695.26	11002.86
695.39	10181.33
695.53	15983.52
695.66	10775.83
695.80	12751.24
695.93	9291.93
696.07	9994.09
696.20	11037.97
696.33	9163.20
696.47	10296.02
696.60	10658.80
696.73	11604.38
696.87	9881.74
697.00	15363.28
697.14	10546.45
697.27	11332.87
697.40	17064.85
697.54	10111.11
697.67	11105.84
697.80	11346.92
697.94	9919.19
698.07	10832.00
698.21	9809.19
698.34	12020.99
698.47	9039.15
698.61	8671.68
698.74	9118.73
698.87	12184.83
699.01	9785.78
699.14	8784.03
699.27	11140.95
699.40	20573.31
699.54	9249.80
699.67	8657.64
699.80	8245.71
699.94	8734.88
700.07	8531.25
700.20	8021.02
700.34	9378.53
700.47	7438.22
700.60	8147.40
700.73	9231.07
700.87	12655.28
701.00	8840.20
701.13	8678.71
701.26	9671.09
701.40	9090.64
701.53	8627.21
701.66	7737.81
701.79	9423.00
701.93	9015.74
702.06	12929.12
702.19	8674.03
702.32	11784.60
702.46	8404.86
702.59	7625.47
702.72	7475.67
702.85	9425.34
702.99	8601.47
703.12	12889.33
703.25	9987.07
703.38	10099.41
703.51	12482.08
703.65	8809.78
703.78	8997.02
703.91	10356.87
704.04	11695.66
704.17	9149.15
704.31	7272.04
704.44	7957.82
704.57	8987.66
704.70	9214.69
704.83	8823.82
704.96	8774.67
705.10	9282.56
705.23	8517.21
>>>>>End Processed Spectral Data<<<<<
