SpectraSuite Data File
++++++++++++++++++++++++++++++++++++
Date: Fri Oct 04 12:14:13 GMT-05:00 2013
User: price-jones
Dark Spectrum Present: No
Reference Spectrum Present: No
Number of Sampled Component Spectra: 1
Spectrometers: USB2+H05261
Integration Time (usec): 1000000 (USB2+H05261)
Spectra Averaged: 1 (USB2+H05261)
Boxcar Smoothing: 0 (USB2+H05261)
Correct for Electrical Dark: No (USB2+H05261)
Strobe/Lamp Enabled: No (USB2+H05261)
Correct for Detector Non-linearity: No (USB2+H05261)
Correct for Stray Light: No (USB2+H05261)
Number of Pixels in Processed Spectrum: 2048
>>>>>Begin Processed Spectral Data<<<<<
365.73	0.00
365.92	0.00
366.12	0.00
366.32	0.00
366.52	0.00
366.72	341.72
366.91	58.51
367.11	241.08
367.31	205.97
367.51	315.97
367.70	290.23
367.90	479.81
368.10	304.27
368.30	348.74
368.49	112.35
368.69	442.36
368.89	278.52
369.09	208.31
369.28	250.44
369.48	156.82
369.68	229.37
369.87	273.84
370.07	220.01
370.27	580.45
370.47	470.45
370.66	330.02
370.86	463.43
371.06	648.33
371.25	894.08
371.45	393.21
371.65	678.76
371.84	360.44
372.04	262.14
372.24	479.81
372.44	388.53
372.63	540.66
372.83	805.14
373.03	512.58
373.22	355.76
373.42	437.68
373.62	465.77
373.81	510.24
374.01	622.58
374.21	704.50
374.40	437.68
374.60	770.04
374.79	503.22
374.99	407.25
375.19	554.71
375.38	507.90
375.58	458.74
375.78	720.88
375.97	648.33
376.17	1039.20
376.37	498.53
376.56	535.98
376.76	400.23
376.95	376.83
377.15	678.76
377.35	521.94
377.54	554.71
377.74	428.32
377.93	407.25
378.13	615.56
378.33	760.67
378.52	472.79
378.72	706.84
378.91	655.35
379.11	435.34
379.31	404.91
379.50	313.63
379.70	678.76
379.89	674.07
380.09	355.76
380.28	320.65
380.48	454.06
380.68	461.09
380.87	325.33
381.07	564.07
381.26	795.78
381.46	706.84
381.65	641.31
381.85	383.85
382.04	479.81
382.24	655.35
382.43	503.22
382.63	330.02
382.83	468.11
383.02	688.12
383.22	777.06
383.41	367.46
383.61	500.87
383.80	477.47
384.00	428.32
384.19	416.62
384.39	540.66
384.58	510.24
384.78	550.03
384.97	568.75
385.17	482.15
385.36	416.62
385.56	704.50
385.75	301.93
385.95	451.72
386.14	592.16
386.34	381.51
386.53	498.53
386.72	470.45
386.92	833.23
387.11	704.50
387.31	589.82
387.50	358.10
387.70	367.46
387.89	475.13
388.09	458.74
388.28	409.59
388.48	425.98
388.67	713.86
388.86	425.98
389.06	463.43
389.25	620.24
389.45	500.87
389.64	475.13
389.84	718.54
390.03	573.43
390.22	507.90
390.42	526.62
390.61	381.51
390.81	367.46
391.00	552.37
391.19	674.07
391.39	528.96
391.58	657.69
391.78	561.73
391.97	550.03
392.16	353.42
392.36	739.61
392.55	690.46
392.75	447.04
392.94	465.77
393.13	674.07
393.33	304.27
393.52	472.79
393.71	755.99
393.91	578.11
394.10	353.42
394.29	404.91
394.49	479.81
394.68	645.99
394.88	784.08
395.07	716.20
395.26	599.18
395.46	496.19
395.65	676.41
395.84	601.52
396.04	1158.57
396.23	503.22
396.42	433.00
396.62	554.71
396.81	599.18
397.00	596.84
397.19	547.69
397.39	484.49
397.58	812.17
397.77	533.64
397.97	571.09
398.16	580.45
398.35	645.99
398.55	421.30
398.74	468.11
398.93	702.16
399.12	493.85
399.32	671.73
399.51	493.85
399.70	723.23
399.90	638.97
400.09	596.84
400.28	732.59
400.47	533.64
400.67	678.76
400.86	510.24
401.05	734.93
401.24	774.72
401.44	737.27
401.63	746.63
401.82	814.51
402.01	440.02
402.21	573.43
402.40	557.05
402.59	524.28
402.78	507.90
402.97	454.06
403.17	554.71
403.36	627.26
403.55	517.26
403.74	552.37
403.93	615.56
404.13	786.42
404.32	498.53
404.51	531.30
404.70	767.70
404.89	538.32
405.09	1081.33
405.28	564.07
405.47	442.36
405.66	755.99
405.85	844.93
406.05	531.30
406.24	526.62
406.43	650.67
406.62	674.07
406.81	1121.12
407.00	823.87
407.20	695.14
407.39	531.30
407.58	430.66
407.77	664.71
407.96	847.27
408.15	741.95
408.34	713.86
408.54	599.18
408.73	660.03
408.92	662.37
409.11	774.72
409.30	760.67
409.49	404.91
409.68	613.22
409.87	566.41
410.07	465.77
410.26	631.94
410.45	582.79
410.64	472.79
410.83	592.16
411.02	535.98
411.21	739.61
411.40	858.98
411.59	564.07
411.78	594.50
411.98	573.43
412.17	524.28
412.36	573.43
412.55	557.05
412.74	716.20
412.93	1015.79
413.12	545.34
413.31	798.12
413.50	592.16
413.69	594.50
413.88	931.53
414.07	655.35
414.26	725.57
414.45	535.98
414.64	681.10
414.83	741.95
415.02	798.12
415.22	779.40
415.41	901.11
415.60	580.45
415.79	695.14
415.98	992.39
416.17	723.23
416.36	627.26
416.55	472.79
416.74	844.93
416.93	863.66
417.12	671.73
417.31	575.77
417.50	610.88
417.69	1090.69
417.88	699.82
418.07	528.96
418.26	692.80
418.45	809.83
418.64	959.62
418.83	856.64
419.02	875.36
419.21	786.42
419.39	774.72
419.58	573.43
419.77	559.39
419.96	854.30
420.15	1088.35
420.34	674.07
420.53	777.06
420.72	954.94
420.91	753.65
421.10	699.82
421.29	734.93
421.48	816.85
421.67	919.83
421.86	730.25
422.05	662.37
422.24	519.60
422.43	760.67
422.61	557.05
422.80	657.69
422.99	685.78
423.18	648.33
423.37	891.74
423.56	807.48
423.75	866.00
423.94	580.45
424.13	706.84
424.32	627.26
424.50	732.59
424.69	739.61
424.88	926.85
425.07	645.99
425.26	777.06
425.45	837.91
425.64	613.22
425.83	720.88
426.01	940.90
426.20	709.18
426.39	695.14
426.58	645.99
426.77	741.95
426.96	861.32
427.15	798.12
427.33	566.41
427.52	746.63
427.71	676.41
427.90	763.01
428.09	603.86
428.28	512.58
428.46	615.56
428.65	706.84
428.84	877.70
429.03	1029.84
429.22	711.52
429.40	519.60
429.59	557.05
429.78	1160.91
429.97	692.80
430.16	641.31
430.34	660.03
430.53	622.58
430.72	603.86
430.91	873.02
431.10	575.77
431.28	690.46
431.47	910.47
431.66	816.85
431.85	622.58
432.03	709.18
432.22	1217.08
432.41	723.23
432.60	1011.11
432.79	685.78
432.97	849.61
433.16	828.55
433.35	660.03
433.54	702.16
433.72	898.77
433.91	884.72
434.10	620.24
434.28	800.46
434.47	653.01
434.66	903.45
434.85	643.65
435.03	786.42
435.22	1130.48
435.41	1090.69
435.59	898.77
435.78	898.77
435.97	681.10
436.16	931.53
436.34	734.93
436.53	870.68
436.72	1036.86
436.90	912.81
437.09	873.02
437.28	800.46
437.46	723.23
437.65	884.72
437.84	950.26
438.02	884.72
438.21	922.17
438.40	718.54
438.58	617.90
438.77	823.87
438.96	854.30
439.14	685.78
439.33	912.81
439.52	830.89
439.70	821.53
439.89	968.98
440.08	844.93
440.26	741.95
440.45	1086.01
440.63	870.68
440.82	858.98
441.01	868.34
441.19	763.01
441.38	814.51
441.57	741.95
441.75	1081.33
441.94	1081.33
442.12	746.63
442.31	828.55
442.50	854.30
442.68	767.70
442.87	819.19
443.05	873.02
443.24	863.66
443.43	1156.22
443.61	1160.91
443.80	938.55
443.98	798.12
444.17	751.31
444.35	912.81
444.54	833.23
444.73	807.48
444.91	1071.97
445.10	711.52
445.28	709.18
445.47	837.91
445.65	751.31
445.84	660.03
446.02	814.51
446.21	765.36
446.39	638.97
446.58	968.98
446.77	791.10
446.95	786.42
447.14	910.47
447.32	1149.20
447.51	868.34
447.69	966.64
447.88	849.61
448.06	1132.82
448.25	990.05
448.43	753.65
448.62	638.97
448.80	976.00
448.99	1139.84
449.17	765.36
449.36	807.48
449.54	908.13
449.73	788.76
449.91	1008.77
450.10	755.99
450.28	1399.64
450.46	1420.71
450.65	1064.94
450.83	924.51
451.02	774.72
451.20	880.04
451.39	826.21
451.57	903.45
451.76	847.27
451.94	847.27
452.13	1006.43
452.31	1123.46
452.49	990.05
452.68	746.63
452.86	877.70
453.05	1261.55
453.23	807.48
453.42	779.40
453.60	954.94
453.78	830.89
453.97	814.51
454.15	704.50
454.34	821.53
454.52	793.44
454.70	1217.08
454.89	1041.54
455.07	723.23
455.26	1025.15
455.44	1104.73
455.62	823.87
455.81	987.71
455.99	990.05
456.17	1029.84
456.36	973.66
456.54	828.55
456.73	786.42
456.91	912.81
457.09	999.41
457.28	1193.67
457.46	901.11
457.64	1060.26
457.83	858.98
458.01	812.17
458.19	929.19
458.38	819.19
458.56	936.21
458.74	809.83
458.93	1008.77
459.11	940.90
459.29	802.80
459.48	1088.35
459.66	1277.93
459.84	1139.84
460.03	1636.03
460.21	1107.07
460.39	858.98
460.57	1207.72
460.76	1027.50
460.94	912.81
461.12	1320.06
461.31	1139.84
461.49	922.17
461.67	882.38
461.85	1053.24
462.04	891.74
462.22	5811.55
462.40	1270.91
462.59	1118.78
462.77	908.13
462.95	1001.75
463.13	760.67
463.32	1158.57
463.50	1036.86
463.68	1011.11
463.86	978.34
464.05	863.66
464.23	1160.91
464.41	1137.50
464.59	842.59
464.78	851.96
464.96	777.06
465.14	919.83
465.32	880.04
465.50	992.39
465.69	1060.26
465.87	800.46
466.05	1102.39
466.23	760.67
466.41	828.55
466.60	931.53
466.78	915.15
466.96	1137.50
467.14	1008.77
467.32	1205.38
467.51	978.34
467.69	1020.47
467.87	1165.59
468.05	976.00
468.23	1373.89
468.41	1081.33
468.60	926.85
468.78	1041.54
468.96	1268.57
469.14	1029.84
469.32	833.23
469.50	791.10
469.69	1025.15
469.87	950.26
470.05	945.58
470.23	812.17
470.41	772.38
470.59	866.00
470.77	976.00
470.95	919.83
471.14	1167.93
471.32	947.92
471.50	1205.38
471.68	922.17
471.86	1067.28
472.04	842.59
472.22	1048.56
472.40	809.83
472.58	837.91
472.77	875.36
472.95	990.05
473.13	1451.13
473.31	1242.82
473.49	915.15
473.67	898.77
473.85	1179.63
474.03	1107.07
474.21	987.71
474.39	1245.16
474.57	1432.41
474.75	1041.54
474.93	849.61
475.12	800.46
475.30	919.83
475.48	947.92
475.66	898.77
475.84	936.21
476.02	912.81
476.20	1153.88
476.38	976.00
476.56	1612.63
476.74	987.71
476.92	968.98
477.10	1123.46
477.28	1095.37
477.46	1001.75
477.64	1193.67
477.82	1001.75
478.00	992.39
478.18	1165.59
478.36	1071.97
478.54	910.47
478.72	926.85
478.90	1064.94
479.08	1100.05
479.26	1067.28
479.44	1069.62
479.62	851.96
479.80	980.68
479.98	938.55
480.16	987.71
480.34	1240.48
480.52	987.71
480.70	1245.16
480.88	966.64
481.06	910.47
481.24	973.66
481.41	1029.84
481.59	1268.57
481.77	1188.99
481.95	1050.90
482.13	1432.41
482.31	1128.14
482.49	924.51
482.67	1249.85
482.85	1308.36
483.03	1221.76
483.21	1217.08
483.39	1027.50
483.57	1100.05
483.74	1350.49
483.92	1116.44
484.10	968.98
484.28	1355.17
484.46	1736.68
484.64	1074.31
484.82	1116.44
485.00	1034.52
485.18	1139.84
485.35	1074.31
485.53	854.30
485.71	1228.78
485.89	819.19
486.07	980.68
486.25	1572.84
486.43	1179.63
486.61	1355.17
486.78	1191.33
486.96	1008.77
487.14	1179.63
487.32	1205.38
487.50	1062.60
487.68	1334.11
487.85	1032.18
488.03	1392.62
488.21	1528.37
488.39	1177.29
488.57	1299.00
488.75	1137.50
488.92	3976.57
489.10	1444.11
489.28	1750.72
489.46	1090.69
489.64	1275.59
489.81	1364.53
489.99	1455.81
490.17	1198.35
490.35	1870.09
490.53	1287.29
490.70	1170.27
490.88	1511.99
491.06	1163.25
491.24	1401.98
491.41	1600.93
491.59	1334.11
491.77	1130.48
491.95	1153.88
492.13	1177.29
492.30	1348.15
492.48	1301.34
492.66	1296.66
492.84	1165.59
493.01	1350.49
493.19	1200.69
493.37	1760.08
493.54	1441.77
493.72	1504.96
493.90	1240.48
494.08	1343.47
494.25	1584.54
494.43	1530.71
494.61	1350.49
494.79	1249.85
494.96	1167.93
495.14	1542.41
495.32	1287.29
495.49	1336.45
495.67	1413.68
495.85	1411.34
496.02	1277.93
496.20	1565.82
496.38	1607.95
496.55	1430.07
496.73	1535.39
496.91	1320.06
497.09	1591.56
497.26	1458.15
497.44	1467.52
497.62	1240.48
497.79	1378.58
497.97	1507.30
498.14	1519.01
498.32	1483.90
498.50	1474.54
498.67	1348.15
498.85	1462.83
499.03	1409.00
499.20	1427.73
499.38	1439.43
499.56	1406.66
499.73	1837.32
499.91	1554.12
500.08	1629.01
500.26	1341.13
500.44	1371.55
500.61	1530.71
500.79	1313.04
500.97	1504.96
501.14	1600.93
501.32	1579.86
501.49	1706.25
501.67	1355.17
501.84	1563.48
502.02	1238.14
502.20	1785.83
502.37	1551.78
502.55	1406.66
502.72	1462.83
502.90	1614.97
503.07	1582.20
503.25	1488.58
503.43	1291.98
503.60	1327.08
503.78	1376.24
503.95	1322.40
504.13	1301.34
504.30	1614.97
504.48	1701.57
504.65	1757.74
504.83	1619.65
505.01	1488.58
505.18	1572.84
505.36	1493.26
505.53	1497.94
505.71	1439.43
505.88	1849.02
506.06	1418.36
506.23	1598.59
506.41	1411.34
506.58	1600.93
506.76	1579.86
506.93	1416.02
507.11	1633.69
507.28	1320.06
507.46	1404.32
507.63	1652.42
507.81	1364.53
507.98	1430.07
508.16	1465.18
508.33	1563.48
508.50	1572.84
508.68	1526.03
508.85	1591.56
509.03	1535.39
509.20	1465.18
509.38	1598.59
509.55	1764.76
509.73	1813.92
509.90	1839.66
510.08	1430.07
510.25	1694.55
510.42	1399.64
510.60	1509.65
510.77	1629.01
510.95	1825.62
511.12	1455.81
511.30	1790.51
511.47	1741.36
511.64	1980.09
511.82	1519.01
511.99	1507.30
512.17	1455.81
512.34	1324.74
512.51	1401.98
512.69	1446.45
512.86	1849.02
513.04	1397.30
513.21	1584.54
513.38	1376.24
513.56	1441.77
513.73	1390.28
513.90	1371.55
514.08	1362.19
514.25	1633.69
514.43	1547.09
514.60	1500.28
514.77	1530.71
514.95	1673.48
515.12	1490.92
515.29	1645.40
515.47	1638.38
515.64	1570.50
515.81	1579.86
515.99	1893.49
516.16	1638.38
516.33	1785.83
516.51	1282.61
516.68	1193.67
516.85	1380.92
517.03	1380.92
517.20	1619.65
517.37	1710.93
517.54	1736.68
517.72	1497.94
517.89	1352.83
518.06	1306.02
518.24	1902.86
518.41	1909.88
518.58	1832.64
518.75	1448.79
518.93	1607.95
519.10	1544.75
519.27	1441.77
519.45	1591.56
519.62	1645.40
519.79	1657.10
519.96	1409.00
520.14	1748.38
520.31	1788.17
520.48	1497.94
520.65	1629.01
520.83	1720.29
521.00	1748.38
521.17	1598.59
521.34	1497.94
521.52	1664.12
521.69	1636.03
521.86	1659.44
522.03	1746.04
522.20	1895.83
522.38	1486.24
522.55	1568.16
522.72	1345.81
522.89	1811.57
523.07	2120.53
523.24	1650.08
523.41	1502.62
523.58	1579.86
523.75	1535.39
523.92	1483.90
524.10	1621.99
524.27	1610.29
524.44	1469.86
524.61	1790.51
524.78	1549.43
524.96	1771.79
525.13	1741.36
525.30	1870.09
525.47	1741.36
525.64	1673.48
525.81	1680.50
525.98	1633.69
526.16	1551.78
526.33	1420.71
526.50	1338.79
526.67	1390.28
526.84	1420.71
527.01	1376.24
527.18	1561.14
527.36	1500.28
527.53	1591.56
527.70	1802.21
527.87	1605.61
528.04	2071.37
528.21	1509.65
528.38	1851.36
528.55	1881.79
528.72	1984.77
528.89	2179.04
529.07	1682.85
529.24	1696.89
529.41	1893.49
529.58	1668.80
529.75	1596.25
529.92	1816.26
530.09	1774.13
530.26	1830.30
530.43	1755.40
530.60	1717.95
530.77	1748.38
530.94	1795.19
531.11	1776.47
531.28	1657.10
531.46	1568.16
531.63	1652.42
531.80	1722.63
531.97	1832.64
532.14	1659.44
532.31	1558.80
532.48	1727.32
532.65	1813.92
532.82	1556.46
532.99	1689.87
533.16	1612.63
533.33	1661.78
533.50	1668.80
533.67	1629.01
533.84	1827.96
534.01	1816.26
534.18	1743.70
534.35	1771.79
534.52	1643.06
534.69	2099.46
534.86	1647.74
535.03	1692.21
535.20	1575.18
535.37	1785.83
535.54	1722.63
535.71	1636.03
535.88	1820.94
536.05	1614.97
536.22	1699.23
536.38	1603.27
536.55	1654.76
536.72	1783.49
536.89	1413.68
537.06	1589.22
537.23	1558.80
537.40	1629.01
537.57	1582.20
537.74	1825.62
537.91	1790.51
538.08	1708.59
538.25	1774.13
538.42	1600.93
538.59	1706.25
538.75	1617.31
538.92	1659.44
539.09	1818.60
539.26	1577.52
539.43	2160.31
539.60	2576.93
539.77	3070.78
539.94	2892.90
540.11	2413.09
540.28	2342.88
540.44	2052.65
540.61	1661.78
540.78	1497.94
540.95	1483.90
541.12	1900.52
541.29	1497.94
541.46	1994.14
541.62	1809.23
541.79	1568.16
541.96	1523.69
542.13	1561.14
542.30	1451.13
542.47	1696.89
542.63	1575.18
542.80	1650.08
542.97	1823.28
543.14	1568.16
543.31	1732.00
543.48	1645.40
543.64	1778.81
543.81	1680.50
543.98	1500.28
544.15	1434.75
544.32	1633.69
544.48	1565.82
544.65	1612.63
544.82	1582.20
544.99	1570.50
545.16	1937.96
545.32	1568.16
545.49	1764.76
545.66	1586.88
545.83	1416.02
546.00	1495.60
546.16	1509.65
546.33	1582.20
546.50	1561.14
546.67	1858.39
546.83	1851.36
547.00	1612.63
547.17	1329.42
547.34	1472.20
547.50	1509.65
547.67	1493.26
547.84	1441.77
548.00	1748.38
548.17	1502.62
548.34	1596.25
548.51	1846.68
548.67	1811.57
548.84	1664.12
549.01	1643.06
549.18	1685.19
549.34	1760.08
549.51	1582.20
549.68	1708.59
549.84	1629.01
550.01	1378.58
550.18	2448.20
550.34	2286.70
550.51	1706.25
550.68	2097.12
550.84	1598.59
551.01	1689.87
551.18	1659.44
551.34	1591.56
551.51	1537.73
551.68	1558.80
551.84	1741.36
552.01	1469.86
552.18	1469.86
552.34	1577.52
552.51	1507.30
552.68	1818.60
552.84	1556.46
553.01	1633.69
553.18	1743.70
553.34	1476.88
553.51	1502.62
553.67	1694.55
553.84	1930.94
554.01	1842.00
554.17	1741.36
554.34	1479.22
554.51	1764.76
554.67	1830.30
554.84	1715.61
555.00	1692.21
555.17	1654.76
555.33	1809.23
555.50	1659.44
555.67	1739.02
555.83	1540.07
556.00	1682.85
556.16	3197.17
556.33	1755.40
556.50	1563.48
556.66	1582.20
556.83	1465.18
556.99	1535.39
557.16	1572.84
557.32	1439.43
557.49	1479.22
557.65	1507.30
557.82	1507.30
557.98	1589.22
558.15	1404.32
558.32	1540.07
558.48	1474.54
558.65	1636.03
558.81	1671.14
558.98	1444.11
559.14	1631.35
559.31	1591.56
559.47	1675.82
559.64	1469.86
559.80	1720.29
559.97	1483.90
560.13	1619.65
560.30	1451.13
560.46	1481.56
560.63	1476.88
560.79	1652.42
560.96	1614.97
561.12	1441.77
561.29	1589.22
561.45	1582.20
561.61	1523.69
561.78	2420.11
561.94	1570.50
562.11	1397.30
562.27	1544.75
562.44	1394.96
562.60	1526.03
562.77	1439.43
562.93	2162.66
563.10	1633.69
563.26	1540.07
563.42	1685.19
563.59	1575.18
563.75	1455.81
563.92	1820.94
564.08	1530.71
564.24	1799.87
564.41	1863.07
564.57	1315.38
564.74	1310.70
564.90	1729.66
565.07	1668.80
565.23	1612.63
565.39	1418.36
565.56	1579.86
565.72	1453.47
565.88	1434.75
566.05	1380.92
566.21	1514.33
566.38	1523.69
566.54	1549.43
566.70	1479.22
566.87	1401.98
567.03	1235.80
567.19	1425.39
567.36	1636.03
567.52	1481.56
567.68	1596.25
567.85	1551.78
568.01	1420.71
568.17	1266.23
568.34	1423.05
568.50	1694.55
568.66	1329.42
568.83	2090.10
568.99	1441.77
569.15	1760.08
569.32	1432.41
569.48	1385.60
569.64	1315.38
569.81	1504.96
569.97	1359.85
570.13	1589.22
570.30	1329.42
570.46	1343.47
570.62	1425.39
570.78	1369.21
570.95	1296.66
571.11	1802.21
571.27	1830.30
571.43	1310.70
571.60	1582.20
571.76	1397.30
571.92	1427.73
572.09	1373.89
572.25	1504.96
572.41	1509.65
572.57	1514.33
572.74	1856.04
572.90	1666.46
573.06	1710.93
573.22	1551.78
573.38	1720.29
573.55	1605.61
573.71	1673.48
573.87	1563.48
574.03	1383.26
574.20	1345.81
574.36	1774.13
574.52	1526.03
574.68	1439.43
574.84	1605.61
575.01	1455.81
575.17	1645.40
575.33	1348.15
575.49	1624.33
575.65	1685.19
575.82	1699.23
575.98	2267.98
576.14	1888.81
576.30	1895.83
576.46	1750.72
576.62	1671.14
576.79	1708.59
576.95	1790.51
577.11	1322.40
577.27	1313.04
577.43	1687.53
577.59	1753.06
577.75	1593.90
577.92	1425.39
578.08	1324.74
578.24	1289.64
578.40	1701.57
578.56	1785.83
578.72	1781.15
578.88	1673.48
579.04	1427.73
579.21	1483.90
579.37	1434.75
579.53	1479.22
579.69	1788.17
579.85	1385.60
580.01	1668.80
580.17	1549.43
580.33	1516.67
580.49	1657.10
580.65	1715.61
580.82	1549.43
580.98	1397.30
581.14	1413.68
581.30	1809.23
581.46	1717.95
581.62	2069.03
581.78	1792.85
581.94	1816.26
582.10	1706.25
582.26	1746.04
582.42	1572.84
582.58	1729.66
582.74	1575.18
582.90	1767.10
583.06	1891.15
583.22	1612.63
583.38	1664.12
583.54	1551.78
583.70	2237.55
583.86	1888.81
584.02	2073.71
584.18	2539.48
584.34	2516.08
584.50	5434.72
584.66	33322.21
584.82	59538.55
584.98	65535.00
585.14	61944.62
585.30	48823.58
585.46	31239.13
585.62	19218.14
585.78	9572.79
585.94	4690.43
586.10	2796.94
586.26	2279.68
586.42	2389.69
586.58	2085.42
586.74	1788.17
586.90	1760.08
587.06	1895.83
587.22	1813.92
587.38	1617.31
587.54	2612.04
587.70	5598.56
587.86	7716.75
588.02	7501.42
588.18	5734.31
588.34	4149.77
588.49	2827.37
588.65	2160.31
588.81	1647.74
588.97	1275.59
589.13	1308.36
589.29	1287.29
589.45	1500.28
589.61	1313.04
589.77	1706.25
589.93	1561.14
590.08	1425.39
590.24	1313.04
590.40	1392.62
590.56	1540.07
590.72	1423.05
590.88	1294.32
591.04	1418.36
591.20	1383.26
591.35	1701.57
591.51	1394.96
591.67	1320.06
591.83	1284.95
591.99	1425.39
592.15	1568.16
592.31	1490.92
592.46	1329.42
592.62	1657.10
592.78	1217.08
592.94	1299.00
593.10	1299.00
593.26	1289.64
593.41	1565.82
593.57	1502.62
593.73	1802.21
593.89	5081.30
594.05	9703.86
594.20	12608.47
594.36	11473.31
594.52	7709.72
594.68	5355.15
594.84	4081.89
594.99	2930.35
595.15	2050.31
595.31	1699.23
595.47	1844.34
595.62	1397.30
595.78	1404.32
595.94	1469.86
596.10	1591.56
596.25	1462.83
596.41	1600.93
596.57	1336.45
596.73	1338.79
596.88	1713.27
597.04	2754.81
597.20	3637.19
597.36	3815.07
597.51	3077.80
597.67	2347.56
597.83	1942.64
597.99	1933.28
598.14	1521.35
598.30	1722.63
598.46	1336.45
598.61	1537.73
598.77	1399.64
598.93	1242.82
599.09	1359.85
599.24	1409.00
599.40	1614.97
599.56	1373.89
599.71	1401.98
599.87	1355.17
600.03	1430.07
600.18	1371.55
600.34	1523.69
600.50	1221.76
600.65	1118.78
600.81	1486.24
600.97	1233.46
601.12	1432.41
601.28	1668.80
601.44	1411.34
601.59	1144.52
601.75	1390.28
601.91	1233.46
602.06	1458.15
602.22	2054.99
602.37	2106.48
602.53	3110.57
602.69	4222.33
602.84	4018.70
603.00	3335.26
603.16	2810.98
603.31	2410.75
603.47	1907.54
603.62	1289.64
603.78	1411.34
603.94	1458.15
604.09	1469.86
604.25	1516.67
604.40	1467.52
604.56	1418.36
604.71	1479.22
604.87	1306.02
605.03	1366.87
605.18	1390.28
605.34	1568.16
605.49	1371.55
605.65	1357.51
605.80	1200.69
605.96	1430.07
606.12	1420.71
606.27	1657.10
606.43	1469.86
606.58	1671.14
606.74	2427.14
606.89	5621.97
607.05	8992.34
607.20	10658.80
607.36	8697.43
607.51	6401.37
607.67	4741.93
607.82	3447.61
607.98	2579.27
608.13	1849.02
608.29	1502.62
608.44	1664.12
608.60	1600.93
608.75	1792.85
608.91	2729.06
609.06	8484.44
609.22	15122.20
609.37	17881.69
609.53	15337.53
609.68	10539.43
609.84	7112.89
609.99	5078.96
610.15	3335.26
610.30	2244.57
610.46	1916.90
610.61	1605.61
610.76	1350.49
610.92	1575.18
611.07	1331.76
611.23	1942.64
611.38	1638.38
611.54	1277.93
611.69	1329.42
611.84	1235.80
612.00	1273.25
612.15	1352.83
612.31	1570.50
612.46	1640.72
612.62	1612.63
612.77	1919.24
612.92	1799.87
613.08	1987.11
613.23	1654.76
613.39	1610.29
613.54	2040.95
613.69	7894.63
613.85	19019.19
614.00	26993.40
614.15	27527.04
614.31	19541.13
614.46	13481.49
614.62	9275.54
614.77	6125.18
614.92	3126.96
615.08	2176.70
615.23	1755.40
615.38	1502.62
615.54	1509.65
615.69	2080.74
615.84	4374.46
616.00	6836.70
616.15	7850.16
616.30	6553.50
616.46	4954.91
616.61	3489.74
616.76	2846.09
616.92	1879.45
617.07	1455.81
617.22	1366.87
617.37	1252.19
617.53	1371.55
617.68	1303.68
617.83	1378.58
617.99	1645.40
618.14	1753.06
618.29	1610.29
618.45	1310.70
618.60	1231.12
618.75	1160.91
618.90	1057.92
619.06	1252.19
619.21	1771.79
619.36	1514.33
619.51	1245.16
619.67	1156.22
619.82	1144.52
619.97	1357.51
620.12	1355.17
620.28	1390.28
620.43	1287.29
620.58	1378.58
620.73	1310.70
620.89	1341.13
621.04	1647.74
621.19	3342.28
621.34	4133.39
621.49	4903.42
621.65	4669.37
621.80	3393.78
621.95	2712.68
622.10	2286.70
622.25	1530.71
622.41	1320.06
622.56	1245.16
622.71	1359.85
622.86	1469.86
623.01	1139.84
623.16	1488.58
623.32	1071.97
623.47	1322.40
623.62	1093.03
623.77	1233.46
623.92	1181.97
624.07	1196.01
624.23	1200.69
624.38	1069.62
624.53	1235.80
624.68	1345.81
624.83	1535.39
624.98	1310.70
625.13	1100.05
625.29	1013.45
625.44	1193.67
625.59	1289.64
625.74	1327.08
625.89	1710.93
626.04	3918.06
626.19	9399.59
626.34	13776.39
626.49	14808.57
626.65	10860.09
626.80	7803.35
626.95	5795.17
627.10	3625.49
627.25	2370.96
627.40	1416.02
627.55	1387.94
627.70	1144.52
627.85	1329.42
628.00	1097.71
628.15	1067.28
628.30	1240.48
628.45	952.60
628.60	1125.80
628.76	1078.99
628.91	1174.95
629.06	1181.97
629.21	1095.37
629.36	1390.28
629.51	1015.79
629.66	1259.21
629.81	1327.08
629.96	2523.10
630.11	4095.94
630.26	4587.45
630.41	4095.94
630.56	3192.49
630.71	2319.47
630.86	1865.41
631.01	1401.98
631.16	1259.21
631.31	1586.88
631.46	1425.39
631.61	1207.72
631.76	1268.57
631.91	1165.59
632.06	1380.92
632.21	1214.74
632.36	1348.15
632.51	1210.06
632.66	1380.92
632.81	2396.71
632.96	5764.74
633.10	8896.38
633.25	10822.64
633.40	8503.17
633.55	6190.72
633.70	4369.78
633.85	3232.28
634.00	1998.82
634.15	1465.18
634.30	1308.36
634.45	1259.21
634.60	1144.52
634.75	1041.54
634.90	1086.01
635.05	1207.72
635.19	1228.78
635.34	1025.15
635.49	1310.70
635.64	1053.24
635.79	1064.94
635.94	1287.29
636.09	1282.61
636.24	1280.27
636.39	1179.63
636.53	1345.81
636.68	1104.73
636.83	1256.87
636.98	1451.13
637.13	1078.99
637.28	1343.47
637.43	1589.22
637.57	1785.83
637.72	5497.92
637.87	12435.27
638.02	18235.11
638.17	18934.93
638.32	13987.04
638.46	9715.56
638.61	7267.36
638.76	4447.02
638.91	2551.18
639.06	1610.29
639.20	1893.49
639.35	1701.57
639.50	2012.86
639.65	8205.92
639.80	19227.50
639.94	27892.16
640.09	29055.41
640.24	22167.21
640.39	15372.64
640.54	10178.99
640.68	6436.47
640.83	3585.70
640.98	2038.61
641.13	1462.83
641.27	1240.48
641.42	1109.41
641.57	1455.81
641.72	1170.27
641.86	1174.95
642.01	1121.12
642.16	1387.94
642.31	1100.05
642.45	1526.03
642.60	1420.71
642.75	999.41
642.90	1259.21
643.04	1013.45
643.19	943.24
643.34	1074.31
643.48	1177.29
643.63	943.24
643.78	1397.30
643.93	1448.79
644.07	1104.73
644.22	1006.43
644.37	856.64
644.51	1217.08
644.66	1165.59
644.81	1048.56
644.95	1266.23
645.10	1039.20
645.25	922.17
645.39	1249.85
645.54	940.90
645.69	1399.64
645.83	894.08
645.98	1502.62
646.13	971.32
646.27	1207.72
646.42	844.93
646.57	968.98
646.71	1011.11
646.86	940.90
647.00	1057.92
647.15	1163.25
647.30	830.89
647.44	968.98
647.59	826.21
647.74	755.99
647.88	1032.18
648.03	753.65
648.17	1144.52
648.32	786.42
648.47	1048.56
648.61	915.15
648.76	938.55
648.90	910.47
649.05	896.43
649.20	821.53
649.34	912.81
649.49	774.72
649.63	1006.43
649.78	959.62
649.92	1357.51
650.07	3456.97
650.21	8498.49
650.36	13781.07
650.51	15208.80
650.65	12889.33
650.80	9186.60
650.94	6188.38
651.09	4154.45
651.23	2403.73
651.38	1516.67
651.52	1174.95
651.67	1088.35
651.81	1046.22
651.96	1378.58
652.10	1158.57
652.25	1001.75
652.39	1177.29
652.54	1116.44
652.68	1647.74
652.83	3180.79
652.97	4964.28
653.12	5888.79
653.26	4997.04
653.41	4051.47
653.55	3075.46
653.70	2134.57
653.84	1673.48
653.99	1172.61
654.13	966.64
654.27	1001.75
654.42	894.08
654.56	973.66
654.71	1078.99
654.85	758.33
655.00	814.51
655.14	936.21
655.29	800.46
655.43	1036.86
655.57	966.64
655.72	856.64
655.86	1013.45
656.01	1013.45
656.15	884.72
656.30	1266.23
656.44	800.46
656.58	725.57
656.73	770.04
656.87	791.10
657.01	882.38
657.16	1217.08
657.30	1144.52
657.45	1301.34
657.59	990.05
657.73	788.76
657.88	987.71
658.02	1589.22
658.16	926.85
658.31	961.96
658.45	894.08
658.60	739.61
658.74	966.64
658.88	835.57
659.03	905.79
659.17	983.02
659.31	1696.89
659.46	3948.48
659.60	6408.39
659.74	7782.28
659.89	6916.28
660.03	5179.61
660.17	4224.67
660.32	2738.43
660.46	1872.43
660.60	1425.39
660.74	1226.44
660.89	1064.94
661.03	901.11
661.17	880.04
661.32	919.83
661.46	950.26
661.60	880.04
661.74	959.62
661.89	1217.08
662.03	1006.43
662.17	908.13
662.31	936.21
662.46	1069.62
662.60	952.60
662.74	854.30
662.88	1015.79
663.03	929.19
663.17	891.74
663.31	973.66
663.45	964.30
663.60	873.02
663.74	774.72
663.88	692.80
664.02	961.96
664.17	765.36
664.31	809.83
664.45	959.62
664.59	957.28
664.73	894.08
664.88	1097.71
665.02	833.23
665.16	987.71
665.30	1184.31
665.44	947.92
665.59	1121.12
665.73	997.07
665.87	992.39
666.01	964.30
666.15	809.83
666.29	763.01
666.44	1210.06
666.58	1406.66
666.72	786.42
666.86	828.55
667.00	1193.67
667.14	1179.63
667.28	3033.33
667.43	7136.29
667.57	11145.63
667.71	13336.37
667.85	11171.38
667.99	8425.93
668.13	5628.99
668.27	3557.61
668.41	2335.85
668.56	1549.43
668.70	1584.54
668.84	1053.24
668.98	1118.78
669.12	828.55
669.26	933.87
669.40	1502.62
669.54	950.26
669.68	1088.35
669.82	821.53
669.96	905.79
670.10	933.87
670.25	1095.37
670.39	1060.26
670.53	814.51
670.67	1067.28
670.81	716.20
670.95	936.21
671.09	1364.53
671.23	3473.36
671.37	5942.62
671.51	7662.91
671.65	8437.63
671.79	6366.26
671.93	4723.20
672.07	3557.61
672.21	2134.57
672.35	1509.65
672.49	1231.12
672.63	1240.48
672.77	1076.65
672.91	1004.09
673.05	847.27
673.19	887.06
673.33	704.50
673.47	1219.42
673.61	877.70
673.75	746.63
673.89	709.18
674.03	999.41
674.17	830.89
674.31	891.74
674.45	908.13
674.59	903.45
674.73	898.77
674.87	997.07
675.01	1132.82
675.15	887.06
675.29	1177.29
675.43	1114.10
675.56	1137.50
675.70	1032.18
675.84	856.64
675.98	933.87
676.12	662.37
676.26	842.59
676.40	624.92
676.54	781.74
676.68	861.32
676.82	1041.54
676.96	671.73
677.10	898.77
677.23	833.23
677.37	631.94
677.51	894.08
677.65	1394.96
677.79	690.46
677.93	608.54
678.07	755.99
678.21	676.41
678.34	704.50
678.48	557.05
678.62	779.40
678.76	538.32
678.90	791.10
679.04	772.38
679.18	662.37
679.31	657.69
679.45	622.58
679.59	798.12
679.73	830.89
679.87	648.33
680.00	884.72
680.14	805.14
680.28	898.77
680.42	744.29
680.56	880.04
680.70	660.03
680.83	821.53
680.97	627.26
681.11	706.84
681.25	952.60
681.39	732.59
681.52	784.08
681.66	748.97
681.80	863.66
681.94	634.29
682.07	772.38
682.21	816.85
682.35	596.84
682.49	629.60
682.62	1032.18
682.76	547.69
682.90	702.16
683.04	905.79
683.17	861.32
683.31	692.80
683.45	966.64
683.59	1064.94
683.72	919.83
683.86	842.59
684.00	692.80
684.13	985.37
684.27	823.87
684.41	842.59
684.55	805.14
684.68	692.80
684.82	615.56
684.96	690.46
685.09	821.53
685.23	592.16
685.37	575.77
685.50	929.19
685.64	1041.54
685.78	554.71
685.91	856.64
686.05	1041.54
686.19	807.48
686.32	706.84
686.46	718.54
686.60	538.32
686.73	1214.74
686.87	945.58
687.01	503.22
687.14	526.62
687.28	620.24
687.42	561.73
687.55	662.37
687.69	950.26
687.82	552.37
687.96	592.16
688.10	898.77
688.23	615.56
688.37	1090.69
688.50	791.10
688.64	732.59
688.78	540.66
688.91	503.22
689.05	559.39
689.18	468.11
689.32	564.07
689.46	550.03
689.59	699.82
689.73	814.51
689.86	510.24
690.00	599.18
690.13	571.09
690.27	484.49
690.41	704.50
690.54	840.25
690.68	732.59
690.81	592.16
690.95	641.31
691.08	732.59
691.22	564.07
691.35	641.31
691.49	561.73
691.62	599.18
691.76	603.86
691.89	643.65
692.03	489.17
692.16	475.13
692.30	748.97
692.43	1329.42
692.57	3012.27
692.70	4449.36
692.84	5877.09
692.97	5296.63
693.11	3899.33
693.24	3019.29
693.38	2076.06
693.51	1526.03
693.65	1394.96
693.78	952.60
693.92	763.01
694.05	809.83
694.19	514.92
694.32	746.63
694.45	587.47
694.59	564.07
694.72	613.22
694.86	552.37
694.99	704.50
695.13	613.22
695.26	697.48
695.39	643.65
695.53	1167.93
695.66	737.27
695.80	821.53
695.93	592.16
696.07	697.48
696.20	849.61
696.33	755.99
696.47	807.48
696.60	868.34
696.73	866.00
696.87	699.82
697.00	1186.65
697.14	699.82
697.27	695.14
697.40	1247.51
697.54	606.20
697.67	681.10
697.80	664.71
697.94	521.94
698.07	575.77
698.21	531.30
698.34	669.39
698.47	465.77
698.61	421.30
698.74	550.03
698.87	788.76
699.01	578.11
699.14	622.58
699.27	765.36
699.40	1575.18
699.54	559.39
699.67	430.66
699.80	433.00
699.94	472.79
700.07	498.53
700.20	458.74
700.34	603.86
700.47	381.51
700.60	400.23
700.73	512.58
700.87	901.11
701.00	430.66
701.13	496.19
701.26	578.11
701.40	585.13
701.53	454.06
701.66	475.13
701.79	655.35
701.93	720.88
702.06	1055.58
702.19	807.48
702.32	1151.54
702.46	938.55
702.59	819.19
702.72	1308.36
702.85	4039.76
702.99	7236.94
703.12	9905.15
703.25	10698.59
703.38	8973.61
703.51	7693.34
703.65	5849.00
703.78	4166.15
703.91	3012.27
704.04	2181.38
704.17	1486.24
704.31	842.59
704.44	678.76
704.57	606.20
704.70	631.94
704.83	645.99
704.96	557.05
705.10	695.14
705.23	521.94
>>>>>End Processed Spectral Data<<<<<
