SpectraSuite Data File
++++++++++++++++++++++++++++++++++++
Date: Fri Oct 04 11:33:56 GMT-05:00 2013
User: price-jones
Dark Spectrum Present: No
Reference Spectrum Present: No
Number of Sampled Component Spectra: 1
Spectrometers: USB2+H05261
Integration Time (usec): 100000 (USB2+H05261)
Spectra Averaged: 1 (USB2+H05261)
Boxcar Smoothing: 0 (USB2+H05261)
Correct for Electrical Dark: No (USB2+H05261)
Strobe/Lamp Enabled: No (USB2+H05261)
Correct for Detector Non-linearity: No (USB2+H05261)
Correct for Stray Light: No (USB2+H05261)
Number of Pixels in Processed Spectrum: 2048
>>>>>Begin Processed Spectral Data<<<<<
365.73	142.77
365.92	142.77
366.12	142.77
366.32	0.00
366.52	0.00
366.72	0.00
366.91	0.00
367.11	0.00
367.31	0.00
367.51	0.00
367.70	0.00
367.90	0.00
368.10	0.00
368.30	0.00
368.49	0.00
368.69	0.00
368.89	0.00
369.09	0.00
369.28	0.00
369.48	0.00
369.68	0.00
369.87	79.58
370.07	11.70
370.27	91.28
370.47	81.92
370.66	58.51
370.86	112.35
371.06	152.13
371.25	138.09
371.45	39.79
371.65	102.98
371.84	32.77
372.04	70.22
372.24	135.75
372.44	131.07
372.63	77.24
372.83	187.24
373.03	154.48
373.22	88.94
373.42	84.26
373.62	79.58
373.81	149.79
374.01	241.08
374.21	138.09
374.40	133.41
374.60	133.41
374.79	124.05
374.99	182.56
375.19	138.09
375.38	184.90
375.58	163.84
375.78	205.97
375.97	138.09
376.17	191.92
376.37	147.45
376.56	212.99
376.76	138.09
376.95	159.16
377.15	74.90
377.35	135.75
377.54	112.35
377.74	128.73
377.93	121.71
378.13	156.82
378.33	119.37
378.52	215.33
378.72	147.45
378.91	147.45
379.11	210.65
379.31	220.01
379.50	133.41
379.70	159.16
379.89	222.35
380.09	107.66
380.28	93.62
380.48	170.86
380.68	77.24
380.87	166.18
381.07	236.39
381.26	191.92
381.46	170.86
381.65	191.92
381.85	117.03
382.04	182.56
382.24	201.29
382.43	203.63
382.63	128.73
382.83	117.03
383.02	180.22
383.22	163.84
383.41	93.62
383.61	105.32
383.80	203.63
384.00	88.94
384.19	121.71
384.39	147.45
384.58	138.09
384.78	121.71
384.97	107.66
385.17	220.01
385.36	175.54
385.56	173.20
385.75	159.16
385.95	110.01
386.14	177.88
386.34	138.09
386.53	131.07
386.72	142.77
386.92	182.56
387.11	154.48
387.31	88.94
387.50	65.54
387.70	163.84
387.89	170.86
388.09	135.75
388.28	184.90
388.48	173.20
388.67	112.35
388.86	102.98
389.06	98.30
389.25	121.71
389.45	133.41
389.64	180.22
389.84	156.82
390.03	180.22
390.22	159.16
390.42	138.09
390.61	147.45
390.81	187.24
391.00	168.52
391.19	138.09
391.39	91.28
391.58	140.43
391.78	147.45
391.97	102.98
392.16	121.71
392.36	250.44
392.55	152.13
392.75	180.22
392.94	100.64
393.13	98.30
393.33	79.58
393.52	112.35
393.71	163.84
393.91	168.52
394.10	194.26
394.29	177.88
394.49	114.69
394.68	154.48
394.88	203.63
395.07	149.79
395.26	135.75
395.46	198.95
395.65	131.07
395.84	166.18
396.04	222.35
396.23	149.79
396.42	182.56
396.62	107.66
396.81	166.18
397.00	98.30
397.19	152.13
397.39	100.64
397.58	173.20
397.77	140.43
397.97	147.45
398.16	105.32
398.35	138.09
398.55	168.52
398.74	182.56
398.93	117.03
399.12	84.26
399.32	198.95
399.51	133.41
399.70	114.69
399.90	203.63
400.09	84.26
400.28	154.48
400.47	140.43
400.67	74.90
400.86	163.84
401.05	133.41
401.24	198.95
401.44	154.48
401.63	149.79
401.82	210.65
402.01	152.13
402.21	161.50
402.40	210.65
402.59	135.75
402.78	180.22
402.97	145.11
403.17	138.09
403.36	210.65
403.55	161.50
403.74	166.18
403.93	187.24
404.13	184.90
404.32	135.75
404.51	156.82
404.70	198.95
404.89	170.86
405.09	231.71
405.28	142.77
405.47	112.35
405.66	140.43
405.85	189.58
406.05	191.92
406.24	203.63
406.43	222.35
406.62	196.60
406.81	203.63
407.00	161.50
407.20	112.35
407.39	154.48
407.58	191.92
407.77	173.20
407.96	215.33
408.15	203.63
408.34	198.95
408.54	161.50
408.73	241.08
408.92	177.88
409.11	135.75
409.30	208.31
409.49	166.18
409.68	77.24
409.87	142.77
410.07	154.48
410.26	184.90
410.45	67.88
410.64	124.05
410.83	156.82
411.02	147.45
411.21	203.63
411.40	205.97
411.59	133.41
411.78	133.41
411.98	95.96
412.17	163.84
412.36	114.69
412.55	152.13
412.74	145.11
412.93	238.73
413.12	154.48
413.31	149.79
413.50	152.13
413.69	191.92
413.88	166.18
414.07	280.86
414.26	187.24
414.45	187.24
414.64	194.26
414.83	210.65
415.02	173.20
415.22	152.13
415.41	208.31
415.60	114.69
415.79	184.90
415.98	245.76
416.17	210.65
416.36	147.45
416.55	147.45
416.74	238.73
416.93	187.24
417.12	222.35
417.31	198.95
417.50	152.13
417.69	250.44
417.88	194.26
418.07	220.01
418.26	224.69
418.45	222.35
418.64	234.05
418.83	238.73
419.02	243.42
419.21	159.16
419.39	287.89
419.58	212.99
419.77	191.92
419.96	208.31
420.15	224.69
420.34	187.24
420.53	163.84
420.72	220.01
420.91	145.11
421.10	70.22
421.29	140.43
421.48	203.63
421.67	154.48
421.86	180.22
422.05	243.42
422.24	173.20
422.43	194.26
422.61	163.84
422.80	173.20
422.99	124.05
423.18	154.48
423.37	212.99
423.56	138.09
423.75	184.90
423.94	252.78
424.13	147.45
424.32	173.20
424.50	100.64
424.69	231.71
424.88	187.24
425.07	198.95
425.26	147.45
425.45	255.12
425.64	248.10
425.83	215.33
426.01	175.54
426.20	189.58
426.39	180.22
426.58	138.09
426.77	210.65
426.96	217.67
427.15	196.60
427.33	159.16
427.52	161.50
427.71	133.41
427.90	236.39
428.09	177.88
428.28	191.92
428.46	173.20
428.65	105.32
428.84	198.95
429.03	161.50
429.22	194.26
429.40	121.71
429.59	119.37
429.78	224.69
429.97	210.65
430.16	241.08
430.34	119.37
430.53	156.82
430.72	138.09
430.91	161.50
431.10	163.84
431.28	173.20
431.47	170.86
431.66	161.50
431.85	163.84
432.03	93.62
432.22	255.12
432.41	166.18
432.60	210.65
432.79	173.20
432.97	271.50
433.16	259.80
433.35	262.14
433.54	128.73
433.72	170.86
433.91	191.92
434.10	187.24
434.28	220.01
434.47	217.67
434.66	222.35
434.85	173.20
435.03	203.63
435.22	376.83
435.41	493.85
435.59	428.32
435.78	299.59
435.97	229.37
436.16	234.05
436.34	220.01
436.53	166.18
436.72	292.57
436.90	191.92
437.09	215.33
437.28	107.66
437.46	175.54
437.65	161.50
437.84	166.18
438.02	180.22
438.21	184.90
438.40	133.41
438.58	159.16
438.77	217.67
438.96	278.52
439.14	102.98
439.33	212.99
439.52	102.98
439.70	163.84
439.89	166.18
440.08	212.99
440.26	159.16
440.45	194.26
440.63	198.95
440.82	191.92
441.01	180.22
441.19	203.63
441.38	189.58
441.57	194.26
441.75	208.31
441.94	245.76
442.12	177.88
442.31	156.82
442.50	259.80
442.68	173.20
442.87	161.50
443.05	175.54
443.24	175.54
443.43	212.99
443.61	198.95
443.80	166.18
443.98	140.43
444.17	77.24
444.35	194.26
444.54	163.84
444.73	126.39
444.91	212.99
445.10	187.24
445.28	170.86
445.47	215.33
445.65	112.35
445.84	147.45
446.02	182.56
446.21	212.99
446.39	191.92
446.58	184.90
446.77	156.82
446.95	166.18
447.14	276.18
447.32	208.31
447.51	229.37
447.69	154.48
447.88	140.43
448.06	259.80
448.25	198.95
448.43	203.63
448.62	152.13
448.80	208.31
448.99	163.84
449.17	170.86
449.36	189.58
449.54	208.31
449.73	241.08
449.91	152.13
450.10	145.11
450.28	191.92
450.46	205.97
450.65	149.79
450.83	180.22
451.02	252.78
451.20	196.60
451.39	248.10
451.57	175.54
451.76	220.01
451.94	145.11
452.13	243.42
452.31	241.08
452.49	184.90
452.68	110.01
452.86	210.65
453.05	234.05
453.23	236.39
453.42	210.65
453.60	198.95
453.78	128.73
453.97	248.10
454.15	124.05
454.34	234.05
454.52	210.65
454.70	241.08
454.89	210.65
455.07	184.90
455.26	175.54
455.44	159.16
455.62	177.88
455.81	177.88
455.99	177.88
456.17	138.09
456.36	187.24
456.54	187.24
456.73	182.56
456.91	184.90
457.09	208.31
457.28	131.07
457.46	177.88
457.64	161.50
457.83	159.16
458.01	138.09
458.19	182.56
458.38	147.45
458.56	189.58
458.74	255.12
458.93	191.92
459.11	189.58
459.29	250.44
459.48	180.22
459.66	266.82
459.84	285.55
460.03	271.50
460.21	138.09
460.39	194.26
460.57	229.37
460.76	138.09
460.94	145.11
461.12	201.29
461.31	180.22
461.49	189.58
461.67	128.73
461.85	170.86
462.04	243.42
462.22	587.47
462.40	229.37
462.59	177.88
462.77	189.58
462.95	205.97
463.13	166.18
463.32	231.71
463.50	189.58
463.68	208.31
463.86	198.95
464.05	180.22
464.23	236.39
464.41	187.24
464.59	198.95
464.78	156.82
464.96	119.37
465.14	173.20
465.32	231.71
465.50	189.58
465.69	191.92
465.87	201.29
466.05	280.86
466.23	177.88
466.41	168.52
466.60	203.63
466.78	196.60
466.96	194.26
467.14	147.45
467.32	145.11
467.51	173.20
467.69	140.43
467.87	227.03
468.05	234.05
468.23	306.61
468.41	145.11
468.60	154.48
468.78	234.05
468.96	212.99
469.14	163.84
469.32	161.50
469.50	131.07
469.69	180.22
469.87	208.31
470.05	177.88
470.23	220.01
470.41	168.52
470.59	161.50
470.77	163.84
470.95	154.48
471.14	217.67
471.32	189.58
471.50	234.05
471.68	191.92
471.86	191.92
472.04	210.65
472.22	229.37
472.40	163.84
472.58	147.45
472.77	205.97
472.95	147.45
473.13	285.55
473.31	222.35
473.49	110.01
473.67	117.03
473.85	182.56
474.03	243.42
474.21	227.03
474.39	278.52
474.57	205.97
474.75	245.76
474.93	234.05
475.12	182.56
475.30	177.88
475.48	198.95
475.66	187.24
475.84	189.58
476.02	126.39
476.20	220.01
476.38	217.67
476.56	205.97
476.74	203.63
476.92	114.69
477.10	294.91
477.28	201.29
477.46	212.99
477.64	201.29
477.82	112.35
478.00	238.73
478.18	191.92
478.36	191.92
478.54	215.33
478.72	210.65
478.90	191.92
479.08	248.10
479.26	187.24
479.44	250.44
479.62	205.97
479.80	215.33
479.98	241.08
480.16	205.97
480.34	215.33
480.52	220.01
480.70	212.99
480.88	236.39
481.06	154.48
481.24	177.88
481.41	175.54
481.59	198.95
481.77	222.35
481.95	234.05
482.13	234.05
482.31	241.08
482.49	191.92
482.67	287.89
482.85	163.84
483.03	208.31
483.21	208.31
483.39	203.63
483.57	262.14
483.74	161.50
483.92	227.03
484.10	264.48
484.28	248.10
484.46	304.27
484.64	255.12
484.82	271.50
485.00	245.76
485.18	248.10
485.35	215.33
485.53	121.71
485.71	196.60
485.89	210.65
486.07	273.84
486.25	238.73
486.43	255.12
486.61	287.89
486.78	220.01
486.96	259.80
487.14	194.26
487.32	224.69
487.50	245.76
487.68	257.46
487.85	170.86
488.03	182.56
488.21	252.78
488.39	283.20
488.57	271.50
488.75	208.31
488.92	489.17
489.10	271.50
489.28	234.05
489.46	306.61
489.64	224.69
489.81	292.57
489.99	201.29
490.17	227.03
490.35	252.78
490.53	257.46
490.70	243.42
490.88	280.86
491.06	318.31
491.24	311.29
491.41	264.48
491.59	266.82
491.77	243.42
491.95	166.18
492.13	229.37
492.30	297.25
492.48	257.46
492.66	212.99
492.84	245.76
493.01	250.44
493.19	234.05
493.37	308.95
493.54	255.12
493.72	283.20
493.90	287.89
494.08	245.76
494.25	315.97
494.43	248.10
494.61	194.26
494.79	283.20
494.96	224.69
495.14	264.48
495.32	231.71
495.49	236.39
495.67	290.23
495.85	198.95
496.02	222.35
496.20	266.82
496.38	290.23
496.55	208.31
496.73	191.92
496.91	243.42
497.09	308.95
497.26	215.33
497.44	299.59
497.62	255.12
497.79	198.95
497.97	292.57
498.14	271.50
498.32	264.48
498.50	217.67
498.67	231.71
498.85	257.46
499.03	175.54
499.20	292.57
499.38	266.82
499.56	325.33
499.73	358.10
499.91	212.99
500.08	245.76
500.26	231.71
500.44	245.76
500.61	273.84
500.79	222.35
500.97	229.37
501.14	212.99
501.32	212.99
501.49	269.16
501.67	243.42
501.84	222.35
502.02	231.71
502.20	311.29
502.37	156.82
502.55	212.99
502.72	287.89
502.90	252.78
503.07	290.23
503.25	313.63
503.43	203.63
503.60	191.92
503.78	301.93
503.95	266.82
504.13	224.69
504.30	189.58
504.48	248.10
504.65	294.91
504.83	198.95
505.01	238.73
505.18	241.08
505.36	252.78
505.53	266.82
505.71	173.20
505.88	271.50
506.06	205.97
506.23	224.69
506.41	222.35
506.58	215.33
506.76	273.84
506.93	243.42
507.11	250.44
507.28	224.69
507.46	231.71
507.63	173.20
507.81	325.33
507.98	299.59
508.16	280.86
508.33	222.35
508.50	292.57
508.68	285.55
508.85	215.33
509.03	269.16
509.20	290.23
509.38	266.82
509.55	294.91
509.73	259.80
509.90	269.16
510.08	290.23
510.25	208.31
510.42	210.65
510.60	341.72
510.77	234.05
510.95	255.12
511.12	327.68
511.30	283.20
511.47	255.12
511.64	372.15
511.82	313.63
511.99	325.33
512.17	231.71
512.34	287.89
512.51	208.31
512.69	269.16
512.86	212.99
513.04	250.44
513.21	156.82
513.38	210.65
513.56	191.92
513.73	222.35
513.90	262.14
514.08	243.42
514.25	301.93
514.43	304.27
514.60	234.05
514.77	227.03
514.95	248.10
515.12	257.46
515.29	313.63
515.47	229.37
515.64	252.78
515.81	304.27
515.99	248.10
516.16	325.33
516.33	210.65
516.51	241.08
516.68	252.78
516.85	163.84
517.03	189.58
517.20	252.78
517.37	205.97
517.54	222.35
517.72	301.93
517.89	175.54
518.06	208.31
518.24	224.69
518.41	299.59
518.58	266.82
518.75	255.12
518.93	255.12
519.10	224.69
519.27	273.84
519.45	273.84
519.62	330.02
519.79	257.46
519.96	299.59
520.14	311.29
520.31	320.65
520.48	238.73
520.65	231.71
520.83	334.70
521.00	292.57
521.17	234.05
521.34	236.39
521.52	325.33
521.69	238.73
521.86	205.97
522.03	360.44
522.20	306.61
522.38	189.58
522.55	252.78
522.72	196.60
522.89	269.16
523.07	344.06
523.24	294.91
523.41	285.55
523.58	259.80
523.75	208.31
523.92	229.37
524.10	255.12
524.27	311.29
524.44	315.97
524.61	294.91
524.78	301.93
524.96	243.42
525.13	222.35
525.30	278.52
525.47	243.42
525.64	292.57
525.81	255.12
525.98	283.20
526.16	201.29
526.33	180.22
526.50	248.10
526.67	327.68
526.84	196.60
527.01	276.18
527.18	273.84
527.36	278.52
527.53	175.54
527.70	334.70
527.87	351.08
528.04	236.39
528.21	313.63
528.38	306.61
528.55	344.06
528.72	292.57
528.89	297.25
529.07	243.42
529.24	292.57
529.41	334.70
529.58	280.86
529.75	353.42
529.92	306.61
530.09	234.05
530.26	318.31
530.43	234.05
530.60	306.61
530.77	283.20
530.94	346.40
531.11	222.35
531.28	301.93
531.46	306.61
531.63	320.65
531.80	318.31
531.97	255.12
532.14	250.44
532.31	285.55
532.48	287.89
532.65	358.10
532.82	475.13
532.99	444.70
533.16	351.08
533.33	355.76
533.50	264.48
533.67	334.70
533.84	390.87
534.01	418.96
534.18	369.80
534.35	285.55
534.52	381.51
534.69	301.93
534.86	308.95
535.03	290.23
535.20	264.48
535.37	320.65
535.54	313.63
535.71	264.48
535.88	250.44
536.05	276.18
536.22	358.10
536.38	276.18
536.55	351.08
536.72	308.95
536.89	243.42
537.06	262.14
537.23	304.27
537.40	287.89
537.57	358.10
537.74	285.55
537.91	297.25
538.08	348.74
538.25	353.42
538.42	334.70
538.59	301.93
538.75	292.57
538.92	337.04
539.09	301.93
539.26	374.49
539.43	491.51
539.60	954.94
539.77	1343.47
539.94	1385.60
540.11	915.15
540.28	739.61
540.44	538.32
540.61	456.40
540.78	414.27
540.95	479.81
541.12	566.41
541.29	561.73
541.46	571.09
541.62	538.32
541.79	550.03
541.96	519.60
542.13	437.68
542.30	491.51
542.47	486.83
542.63	496.19
542.80	465.77
542.97	521.94
543.14	362.78
543.31	458.74
543.48	493.85
543.64	461.09
543.81	435.34
543.98	456.40
544.15	428.32
544.32	423.64
544.48	437.68
544.65	447.04
544.82	470.45
544.99	477.47
545.16	423.64
545.32	482.15
545.49	674.07
545.66	905.79
545.83	903.45
546.00	936.21
546.16	543.00
546.33	638.97
546.50	433.00
546.67	430.66
546.83	451.72
547.00	437.68
547.17	451.72
547.34	351.08
547.50	430.66
547.67	393.21
547.84	383.85
548.00	435.34
548.17	430.66
548.34	362.78
548.51	454.06
548.67	407.25
548.84	390.87
549.01	376.83
549.18	365.12
549.34	334.70
549.51	447.04
549.68	379.17
549.84	358.10
550.01	297.25
550.18	449.38
550.34	510.24
550.51	287.89
550.68	341.72
550.84	299.59
551.01	315.97
551.18	308.95
551.34	292.57
551.51	271.50
551.68	376.83
551.84	369.80
552.01	393.21
552.18	285.55
552.34	322.99
552.51	334.70
552.68	308.95
552.84	285.55
553.01	308.95
553.18	322.99
553.34	273.84
553.51	273.84
553.67	292.57
553.84	348.74
554.01	315.97
554.17	236.39
554.34	290.23
554.51	306.61
554.67	290.23
554.84	313.63
555.00	348.74
555.17	311.29
555.33	306.61
555.50	276.18
555.67	248.10
555.83	287.89
556.00	306.61
556.16	409.59
556.33	259.80
556.50	236.39
556.66	287.89
556.83	257.46
556.99	245.76
557.16	241.08
557.32	280.86
557.49	278.52
557.65	236.39
557.82	266.82
557.98	243.42
558.15	227.03
558.32	227.03
558.48	304.27
558.65	283.20
558.81	276.18
558.98	257.46
559.14	269.16
559.31	229.37
559.47	231.71
559.64	294.91
559.80	313.63
559.97	238.73
560.13	299.59
560.30	330.02
560.46	245.76
560.63	301.93
560.79	259.80
560.96	294.91
561.12	257.46
561.29	269.16
561.45	196.60
561.61	222.35
561.78	262.14
561.94	229.37
562.11	322.99
562.27	301.93
562.44	299.59
562.60	259.80
562.77	290.23
562.93	369.80
563.10	229.37
563.26	264.48
563.42	280.86
563.59	299.59
563.75	325.33
563.92	222.35
564.08	215.33
564.24	337.04
564.41	332.36
564.57	245.76
564.74	241.08
564.90	222.35
565.07	369.80
565.23	325.33
565.39	355.76
565.56	255.12
565.72	241.08
565.88	290.23
566.05	264.48
566.21	250.44
566.38	320.65
566.54	257.46
566.70	269.16
566.87	243.42
567.03	205.97
567.19	292.57
567.36	252.78
567.52	262.14
567.68	264.48
567.85	255.12
568.01	264.48
568.17	236.39
568.34	283.20
568.50	276.18
568.66	217.67
568.83	383.85
568.99	215.33
569.15	262.14
569.32	341.72
569.48	201.29
569.64	238.73
569.81	292.57
569.97	245.76
570.13	194.26
570.30	322.99
570.46	212.99
570.62	210.65
570.78	227.03
570.95	229.37
571.11	290.23
571.27	322.99
571.43	205.97
571.60	278.52
571.76	259.80
571.92	299.59
572.09	311.29
572.25	273.84
572.41	229.37
572.57	262.14
572.74	278.52
572.90	243.42
573.06	276.18
573.22	273.84
573.38	318.31
573.55	222.35
573.71	278.52
573.87	306.61
574.03	294.91
574.20	306.61
574.36	337.04
574.52	330.02
574.68	332.36
574.84	334.70
575.01	306.61
575.17	290.23
575.33	278.52
575.49	423.64
575.65	381.51
575.82	271.50
575.98	500.87
576.14	662.37
576.30	631.94
576.46	599.18
576.62	514.92
576.79	465.77
576.95	421.30
577.11	332.36
577.27	294.91
577.43	381.51
577.59	306.61
577.75	304.27
577.92	278.52
578.08	344.06
578.24	318.31
578.40	386.19
578.56	386.19
578.72	449.38
578.88	400.23
579.04	433.00
579.21	362.78
579.37	346.40
579.53	322.99
579.69	374.49
579.85	332.36
580.01	456.40
580.17	416.62
580.33	498.53
580.49	411.93
580.65	355.76
580.82	330.02
580.98	358.10
581.14	344.06
581.30	456.40
581.46	482.15
581.62	608.54
581.78	615.56
581.94	580.45
582.10	538.32
582.26	510.24
582.42	430.66
582.58	393.21
582.74	461.09
582.90	489.17
583.06	575.77
583.22	461.09
583.38	535.98
583.54	517.26
583.70	638.97
583.86	629.60
584.02	702.16
584.18	926.85
584.34	1055.58
584.50	2899.92
584.66	20334.57
584.82	50211.51
584.98	59985.59
585.14	56767.35
585.30	39370.15
585.46	23674.52
585.62	14380.25
585.78	6808.62
585.94	2686.94
586.10	1453.47
586.26	959.62
586.42	863.66
586.58	744.29
586.74	713.86
586.90	716.20
587.06	629.60
587.22	587.47
587.38	521.94
587.54	1219.42
587.70	3070.78
587.86	4652.98
588.02	5224.08
588.18	3564.64
588.34	2312.45
588.49	1600.93
588.65	983.02
588.81	564.07
588.97	381.51
589.13	404.91
589.29	351.08
589.45	304.27
589.61	304.27
589.77	407.25
589.93	465.77
590.08	528.96
590.24	517.26
590.40	425.98
590.56	484.49
590.72	404.91
590.88	440.02
591.04	383.85
591.20	409.59
591.35	383.85
591.51	330.02
591.67	301.93
591.83	369.80
591.99	393.21
592.15	344.06
592.31	353.42
592.46	318.31
592.62	313.63
592.78	351.08
592.94	395.55
593.10	351.08
593.26	397.89
593.41	458.74
593.57	468.11
593.73	615.56
593.89	2438.84
594.05	6162.63
594.20	8816.80
594.36	8180.17
594.52	5495.58
594.68	3515.48
594.84	2452.88
594.99	1458.15
595.15	667.05
595.31	472.79
595.47	463.43
595.62	451.72
595.78	348.74
595.94	376.83
596.10	351.08
596.25	386.19
596.41	341.72
596.57	344.06
596.73	304.27
596.88	634.29
597.04	1341.13
597.20	1987.11
597.36	2197.76
597.51	1811.57
597.67	1123.46
597.83	833.23
597.99	664.71
598.14	545.34
598.30	449.38
598.46	362.78
598.61	383.85
598.77	388.53
598.93	264.48
599.09	299.59
599.24	294.91
599.40	276.18
599.56	369.80
599.71	273.84
599.87	301.93
600.03	351.08
600.18	348.74
600.34	313.63
600.50	315.97
600.65	241.08
600.81	337.04
600.97	257.46
601.12	283.20
601.28	259.80
601.44	224.69
601.59	311.29
601.75	250.44
601.91	290.23
602.06	301.93
602.22	332.36
602.37	765.36
602.53	1507.30
602.69	2244.57
602.84	2305.43
603.00	1720.29
603.16	1238.14
603.31	957.28
603.47	634.29
603.62	437.68
603.78	404.91
603.94	287.89
604.09	351.08
604.25	292.57
604.40	301.93
604.56	215.33
604.71	311.29
604.87	273.84
605.03	322.99
605.18	348.74
605.34	381.51
605.49	306.61
605.65	353.42
605.80	372.15
605.96	346.40
606.12	252.78
606.27	332.36
606.43	339.38
606.58	397.89
606.74	856.64
606.89	2949.08
607.05	5731.97
607.20	7431.20
607.36	6338.17
607.51	4322.97
607.67	2691.62
607.82	1853.70
607.98	1076.65
608.13	704.50
608.29	454.06
608.44	477.47
608.60	454.06
608.75	510.24
608.91	1029.84
609.06	4648.30
609.22	9671.09
609.37	12959.55
609.53	11492.03
609.68	7779.94
609.84	5032.15
609.99	3358.67
610.15	1959.03
610.30	1193.67
610.46	870.68
610.61	795.78
610.76	877.70
610.92	999.41
611.07	971.32
611.23	1095.37
611.38	971.32
611.54	954.94
611.69	870.68
611.84	634.29
612.00	636.63
612.15	606.20
612.31	662.37
612.46	812.17
612.62	786.42
612.77	821.53
612.92	763.01
613.08	758.33
613.23	610.88
613.39	678.76
613.54	901.11
613.69	4227.01
613.85	12131.00
614.00	19389.00
614.15	20414.15
614.31	14157.90
614.46	9762.37
614.62	6356.90
614.77	3995.29
614.92	1820.94
615.08	985.37
615.23	667.05
615.38	498.53
615.54	491.51
615.69	943.24
615.84	2597.99
616.00	4339.35
616.15	5453.45
616.30	4477.44
616.46	3089.51
616.61	2183.72
616.76	1481.56
616.92	889.40
617.07	617.90
617.22	449.38
617.37	451.72
617.53	383.85
617.68	348.74
617.83	395.55
617.99	379.17
618.14	386.19
618.29	344.06
618.45	353.42
618.60	330.02
618.75	299.59
618.90	287.89
619.06	299.59
619.21	315.97
619.36	318.31
619.51	292.57
619.67	313.63
619.82	306.61
619.97	320.65
620.12	360.44
620.28	358.10
620.43	379.17
620.58	318.31
620.73	367.46
620.89	369.80
621.04	587.47
621.19	1380.92
621.34	2546.50
621.49	3122.27
621.65	2913.97
621.80	2064.35
621.95	1437.09
622.10	1083.67
622.25	706.84
622.41	435.34
622.56	355.76
622.71	381.51
622.86	346.40
623.01	334.70
623.16	287.89
623.32	318.31
623.47	294.91
623.62	325.33
623.77	283.20
623.92	273.84
624.07	269.16
624.23	287.89
624.38	339.38
624.53	390.87
624.68	362.78
624.83	437.68
624.98	365.12
625.13	332.36
625.29	346.40
625.44	222.35
625.59	348.74
625.74	369.80
625.89	580.45
626.04	2080.74
626.19	5926.24
626.34	9420.66
626.49	10464.54
626.65	7801.01
626.80	5275.57
626.95	3506.12
627.10	2373.30
627.25	1210.06
627.40	657.69
627.55	521.94
627.70	383.85
627.85	290.23
628.00	313.63
628.15	322.99
628.30	325.33
628.45	334.70
628.60	297.25
628.76	262.14
628.91	297.25
629.06	297.25
629.21	292.57
629.36	346.40
629.51	273.84
629.66	304.27
629.81	393.21
629.96	1200.69
630.11	2118.18
630.26	2841.41
630.41	2438.84
630.56	1853.70
630.71	1359.85
630.86	973.66
631.01	615.56
631.16	500.87
631.31	367.46
631.46	283.20
631.61	355.76
631.76	360.44
631.91	360.44
632.06	322.99
632.21	376.83
632.36	433.00
632.51	372.15
632.66	435.34
632.81	1034.52
632.96	3274.41
633.10	5795.17
633.25	7054.37
633.40	5746.02
633.55	4201.26
633.70	2740.77
633.85	1881.79
634.00	959.62
634.15	585.13
634.30	414.27
634.45	332.36
634.60	278.52
634.75	318.31
634.90	299.59
635.05	325.33
635.19	269.16
635.34	182.56
635.49	308.95
635.64	308.95
635.79	327.68
635.94	290.23
636.09	301.93
636.24	351.08
636.39	344.06
636.53	325.33
636.68	269.16
636.83	290.23
636.98	301.93
637.13	308.95
637.28	330.02
637.43	404.91
637.57	613.22
637.72	2885.88
637.87	7702.70
638.02	11901.62
638.17	13097.64
638.32	9753.01
638.46	6747.76
638.61	4652.98
638.76	2780.56
638.91	1465.18
639.06	828.55
639.20	589.82
639.35	596.84
639.50	835.57
639.65	3995.29
639.80	11644.17
639.94	18085.32
640.09	20081.80
640.24	14949.00
640.39	10356.87
640.54	6906.92
640.68	4280.84
640.83	2047.97
640.98	987.71
641.13	664.71
641.27	437.68
641.42	367.46
641.57	362.78
641.72	313.63
641.86	318.31
642.01	306.61
642.16	348.74
642.31	320.65
642.45	315.97
642.60	287.89
642.75	266.82
642.90	266.82
643.04	269.16
643.19	292.57
643.34	252.78
643.48	222.35
643.63	177.88
643.78	231.71
643.93	297.25
644.07	224.69
644.22	259.80
644.37	227.03
644.51	292.57
644.66	215.33
644.81	222.35
644.95	320.65
645.10	250.44
645.25	238.73
645.39	290.23
645.54	259.80
645.69	315.97
645.83	135.75
645.98	327.68
646.13	205.97
646.27	318.31
646.42	231.71
646.57	212.99
646.71	241.08
646.86	217.67
647.00	229.37
647.15	276.18
647.30	184.90
647.44	271.50
647.59	184.90
647.74	208.31
647.88	301.93
648.03	259.80
648.17	255.12
648.32	229.37
648.47	241.08
648.61	283.20
648.76	245.76
648.90	224.69
649.05	259.80
649.20	194.26
649.34	184.90
649.49	311.29
649.63	271.50
649.78	299.59
649.92	498.53
650.07	1614.97
650.21	4971.30
650.36	8571.04
650.51	10340.49
650.65	8549.98
650.80	6017.52
650.94	4079.55
651.09	2567.57
651.23	1425.39
651.38	765.36
651.52	505.56
651.67	320.65
651.81	346.40
651.96	259.80
652.10	278.52
652.25	297.25
652.39	306.61
652.54	341.72
652.68	575.77
652.83	1727.32
652.97	2892.90
653.12	3707.41
653.26	3316.54
653.41	2581.61
653.55	1710.93
653.70	1226.44
653.84	683.44
653.99	454.06
654.13	278.52
654.27	285.55
654.42	262.14
654.56	231.71
654.71	175.54
654.85	301.93
655.00	159.16
655.14	201.29
655.29	212.99
655.43	264.48
655.57	241.08
655.72	203.63
655.86	168.52
656.01	170.86
656.15	189.58
656.30	231.71
656.44	220.01
656.58	149.79
656.73	231.71
656.87	187.24
657.01	191.92
657.16	273.84
657.30	255.12
657.45	290.23
657.59	208.31
657.73	194.26
657.88	203.63
658.02	283.20
658.16	283.20
658.31	238.73
658.45	220.01
658.60	191.92
658.74	187.24
658.88	227.03
659.03	217.67
659.17	318.31
659.31	798.12
659.46	2415.43
659.60	4236.37
659.74	5219.39
659.89	4711.50
660.03	3309.52
660.17	2499.69
660.32	1591.56
660.46	964.30
660.60	531.30
660.74	355.76
660.89	327.68
661.03	220.01
661.17	187.24
661.32	229.37
661.46	215.33
661.60	243.42
661.74	234.05
661.89	220.01
662.03	215.33
662.17	257.46
662.31	241.08
662.46	191.92
662.60	280.86
662.74	222.35
662.88	280.86
663.03	208.31
663.17	201.29
663.31	257.46
663.45	271.50
663.60	210.65
663.74	229.37
663.88	259.80
664.02	238.73
664.17	205.97
664.31	156.82
664.45	269.16
664.59	262.14
664.73	217.67
664.88	257.46
665.02	245.76
665.16	278.52
665.30	255.12
665.44	315.97
665.59	217.67
665.73	215.33
665.87	231.71
666.01	224.69
666.15	159.16
666.29	231.71
666.44	234.05
666.58	337.04
666.72	248.10
666.86	229.37
667.00	325.33
667.14	416.62
667.28	1519.01
667.43	4276.16
667.57	7248.64
667.71	9071.92
667.85	7761.22
667.99	5666.44
668.13	3688.68
668.27	2260.96
668.41	1247.51
668.56	772.38
668.70	528.96
668.84	388.53
668.98	327.68
669.12	304.27
669.26	322.99
669.40	322.99
669.54	231.71
669.68	257.46
669.82	210.65
669.96	278.52
670.10	248.10
670.25	180.22
670.39	182.56
670.53	210.65
670.67	217.67
670.81	257.46
670.95	313.63
671.09	458.74
671.23	1650.08
671.37	3705.07
671.51	5181.95
671.65	5694.52
671.79	4533.62
671.93	3157.38
672.07	1963.71
672.21	1104.73
672.35	727.91
672.49	514.92
672.63	374.49
672.77	283.20
672.91	257.46
673.05	231.71
673.19	271.50
673.33	184.90
673.47	301.93
673.61	332.36
673.75	245.76
673.89	205.97
674.03	278.52
674.17	236.39
674.31	262.14
674.45	212.99
674.59	198.95
674.73	205.97
674.87	273.84
675.01	250.44
675.15	315.97
675.29	287.89
675.43	248.10
675.56	255.12
675.70	252.78
675.84	161.50
675.98	222.35
676.12	166.18
676.26	205.97
676.40	208.31
676.54	117.03
676.68	201.29
676.82	220.01
676.96	196.60
677.10	224.69
677.23	175.54
677.37	191.92
677.51	255.12
677.65	224.69
677.79	147.45
677.93	124.05
678.07	194.26
678.21	220.01
678.34	138.09
678.48	147.45
678.62	191.92
678.76	201.29
678.90	257.46
679.04	147.45
679.18	145.11
679.31	201.29
679.45	273.84
679.59	208.31
679.73	205.97
679.87	156.82
680.00	198.95
680.14	203.63
680.28	248.10
680.42	119.37
680.56	229.37
680.70	163.84
680.83	201.29
680.97	131.07
681.11	175.54
681.25	189.58
681.39	175.54
681.52	205.97
681.66	196.60
681.80	220.01
681.94	182.56
682.07	187.24
682.21	212.99
682.35	217.67
682.49	217.67
682.62	229.37
682.76	121.71
682.90	238.73
683.04	175.54
683.17	196.60
683.31	170.86
683.45	180.22
683.59	224.69
683.72	177.88
683.86	196.60
684.00	234.05
684.13	159.16
684.27	177.88
684.41	220.01
684.55	173.20
684.68	222.35
684.82	191.92
684.96	173.20
685.09	156.82
685.23	203.63
685.37	182.56
685.50	220.01
685.64	208.31
685.78	196.60
685.91	212.99
686.05	215.33
686.19	203.63
686.32	70.22
686.46	215.33
686.60	79.58
686.73	269.16
686.87	236.39
687.01	248.10
687.14	255.12
687.28	215.33
687.42	184.90
687.55	112.35
687.69	299.59
687.82	234.05
687.96	170.86
688.10	194.26
688.23	133.41
688.37	182.56
688.50	208.31
688.64	229.37
688.78	208.31
688.91	145.11
689.05	156.82
689.18	194.26
689.32	224.69
689.46	152.13
689.59	278.52
689.73	191.92
689.86	276.18
690.00	306.61
690.13	159.16
690.27	184.90
690.41	252.78
690.54	203.63
690.68	245.76
690.81	163.84
690.95	210.65
691.08	220.01
691.22	231.71
691.35	173.20
691.49	191.92
691.62	262.14
691.76	166.18
691.89	227.03
692.03	170.86
692.16	131.07
692.30	243.42
692.43	610.88
692.57	1746.04
692.70	3016.95
692.84	3929.76
692.97	3602.08
693.11	2689.28
693.24	1863.07
693.38	1528.37
693.51	992.39
693.65	716.20
693.78	458.74
693.92	337.04
694.05	236.39
694.19	212.99
694.32	245.76
694.45	145.11
694.59	201.29
694.72	112.35
694.86	156.82
694.99	145.11
695.13	224.69
695.26	184.90
695.39	191.92
695.53	285.55
695.66	217.67
695.80	198.95
695.93	168.52
696.07	205.97
696.20	339.38
696.33	313.63
696.47	386.19
696.60	395.55
696.73	351.08
696.87	203.63
697.00	353.42
697.14	168.52
697.27	250.44
697.40	220.01
697.54	182.56
697.67	154.48
697.80	205.97
697.94	98.30
698.07	208.31
698.21	175.54
698.34	203.63
698.47	166.18
698.61	168.52
698.74	117.03
698.87	117.03
699.01	140.43
699.14	210.65
699.27	161.50
699.40	236.39
699.54	180.22
699.67	182.56
699.80	112.35
699.94	135.75
700.07	145.11
700.20	154.48
700.34	177.88
700.47	147.45
700.60	140.43
700.73	133.41
700.87	163.84
701.00	208.31
701.13	201.29
701.26	173.20
701.40	161.50
701.53	191.92
701.66	173.20
701.79	191.92
701.93	262.14
702.06	315.97
702.19	330.02
702.32	447.04
702.46	425.98
702.59	402.57
702.72	678.76
702.85	2319.47
702.99	4805.12
703.12	6906.92
703.25	7405.46
703.38	6637.76
703.51	5313.02
703.65	4170.83
703.78	2855.45
703.91	1891.15
704.04	1210.06
704.17	889.40
704.31	477.47
704.44	322.99
704.57	257.46
704.70	208.31
704.83	215.33
704.96	203.63
705.10	166.18
705.23	250.44
>>>>>End Processed Spectral Data<<<<<
