SpectraSuite Data File
++++++++++++++++++++++++++++++++++++
Date: Fri Oct 04 11:33:45 GMT-05:00 2013
User: price-jones
Dark Spectrum Present: No
Reference Spectrum Present: No
Number of Sampled Component Spectra: 1
Spectrometers: USB2+H05261
Integration Time (usec): 100000 (USB2+H05261)
Spectra Averaged: 1 (USB2+H05261)
Boxcar Smoothing: 0 (USB2+H05261)
Correct for Electrical Dark: No (USB2+H05261)
Strobe/Lamp Enabled: No (USB2+H05261)
Correct for Detector Non-linearity: No (USB2+H05261)
Correct for Stray Light: No (USB2+H05261)
Number of Pixels in Processed Spectrum: 2048
>>>>>Begin Processed Spectral Data<<<<<
365.73	72.56
365.92	72.56
366.12	72.56
366.32	0.00
366.52	0.00
366.72	7.02
366.91	0.00
367.11	9.36
367.31	0.00
367.51	0.00
367.70	0.00
367.90	0.00
368.10	0.00
368.30	0.00
368.49	0.00
368.69	9.36
368.89	0.00
369.09	0.00
369.28	42.13
369.48	7.02
369.68	0.00
369.87	46.81
370.07	11.70
370.27	16.38
370.47	9.36
370.66	32.77
370.86	93.62
371.06	81.92
371.25	121.71
371.45	65.54
371.65	128.73
371.84	84.26
372.04	23.41
372.24	182.56
372.44	81.92
372.63	86.60
372.83	156.82
373.03	140.43
373.22	152.13
373.42	51.49
373.62	182.56
373.81	166.18
374.01	152.13
374.21	114.69
374.40	222.35
374.60	147.45
374.79	222.35
374.99	126.39
375.19	98.30
375.38	154.48
375.58	182.56
375.78	163.84
375.97	273.84
376.17	180.22
376.37	124.05
376.56	133.41
376.76	229.37
376.95	154.48
377.15	245.76
377.35	133.41
377.54	170.86
377.74	124.05
377.93	191.92
378.13	88.94
378.33	224.69
378.52	168.52
378.72	124.05
378.91	84.26
379.11	175.54
379.31	110.01
379.50	152.13
379.70	163.84
379.89	182.56
380.09	138.09
380.28	60.85
380.48	77.24
380.68	175.54
380.87	140.43
381.07	133.41
381.26	205.97
381.46	159.16
381.65	227.03
381.85	173.20
382.04	133.41
382.24	159.16
382.43	198.95
382.63	77.24
382.83	182.56
383.02	107.66
383.22	189.58
383.41	133.41
383.61	217.67
383.80	84.26
384.00	102.98
384.19	110.01
384.39	88.94
384.58	121.71
384.78	152.13
384.97	149.79
385.17	152.13
385.36	72.56
385.56	124.05
385.75	152.13
385.95	105.32
386.14	110.01
386.34	131.07
386.53	107.66
386.72	100.64
386.92	110.01
387.11	140.43
387.31	145.11
387.50	86.60
387.70	88.94
387.89	119.37
388.09	154.48
388.28	88.94
388.48	156.82
388.67	156.82
388.86	126.39
389.06	131.07
389.25	191.92
389.45	149.79
389.64	168.52
389.84	152.13
390.03	58.51
390.22	238.73
390.42	154.48
390.61	163.84
390.81	201.29
391.00	145.11
391.19	166.18
391.39	191.92
391.58	140.43
391.78	170.86
391.97	161.50
392.16	39.79
392.36	159.16
392.55	276.18
392.75	81.92
392.94	140.43
393.13	138.09
393.33	180.22
393.52	161.50
393.71	229.37
393.91	121.71
394.10	156.82
394.29	84.26
394.49	231.71
394.68	245.76
394.88	140.43
395.07	220.01
395.26	107.66
395.46	126.39
395.65	227.03
395.84	205.97
396.04	222.35
396.23	140.43
396.42	114.69
396.62	187.24
396.81	159.16
397.00	217.67
397.19	194.26
397.39	159.16
397.58	161.50
397.77	170.86
397.97	154.48
398.16	180.22
398.35	100.64
398.55	88.94
398.74	187.24
398.93	133.41
399.12	166.18
399.32	133.41
399.51	149.79
399.70	117.03
399.90	159.16
400.09	159.16
400.28	196.60
400.47	149.79
400.67	220.01
400.86	161.50
401.05	159.16
401.24	168.52
401.44	121.71
401.63	220.01
401.82	138.09
402.01	135.75
402.21	208.31
402.40	128.73
402.59	173.20
402.78	131.07
402.97	119.37
403.17	152.13
403.36	156.82
403.55	121.71
403.74	135.75
403.93	175.54
404.13	231.71
404.32	255.12
404.51	236.39
404.70	227.03
404.89	175.54
405.09	166.18
405.28	145.11
405.47	105.32
405.66	119.37
405.85	161.50
406.05	161.50
406.24	147.45
406.43	163.84
406.62	145.11
406.81	126.39
407.00	168.52
407.20	170.86
407.39	224.69
407.58	194.26
407.77	187.24
407.96	238.73
408.15	168.52
408.34	168.52
408.54	191.92
408.73	168.52
408.92	215.33
409.11	170.86
409.30	217.67
409.49	65.54
409.68	124.05
409.87	140.43
410.07	166.18
410.26	159.16
410.45	180.22
410.64	231.71
410.83	128.73
411.02	149.79
411.21	220.01
411.40	149.79
411.59	161.50
411.78	182.56
411.98	189.58
412.17	215.33
412.36	128.73
412.55	154.48
412.74	196.60
412.93	241.08
413.12	102.98
413.31	182.56
413.50	189.58
413.69	191.92
413.88	191.92
414.07	208.31
414.26	110.01
414.45	114.69
414.64	187.24
414.83	168.52
415.02	208.31
415.22	191.92
415.41	159.16
415.60	203.63
415.79	177.88
415.98	210.65
416.17	241.08
416.36	138.09
416.55	159.16
416.74	135.75
416.93	203.63
417.12	117.03
417.31	131.07
417.50	187.24
417.69	320.65
417.88	159.16
418.07	203.63
418.26	196.60
418.45	182.56
418.64	297.25
418.83	217.67
419.02	292.57
419.21	166.18
419.39	248.10
419.58	182.56
419.77	245.76
419.96	203.63
420.15	124.05
420.34	229.37
420.53	161.50
420.72	173.20
420.91	145.11
421.10	159.16
421.29	231.71
421.48	156.82
421.67	210.65
421.86	117.03
422.05	187.24
422.24	154.48
422.43	177.88
422.61	147.45
422.80	138.09
422.99	95.96
423.18	210.65
423.37	217.67
423.56	147.45
423.75	154.48
423.94	121.71
424.13	163.84
424.32	175.54
424.50	215.33
424.69	166.18
424.88	168.52
425.07	212.99
425.26	203.63
425.45	238.73
425.64	269.16
425.83	313.63
426.01	273.84
426.20	145.11
426.39	170.86
426.58	166.18
426.77	159.16
426.96	201.29
427.15	135.75
427.33	128.73
427.52	140.43
427.71	140.43
427.90	215.33
428.09	161.50
428.28	128.73
428.46	212.99
428.65	166.18
428.84	126.39
429.03	217.67
429.22	126.39
429.40	91.28
429.59	133.41
429.78	184.90
429.97	203.63
430.16	133.41
430.34	222.35
430.53	154.48
430.72	182.56
430.91	222.35
431.10	177.88
431.28	159.16
431.47	191.92
431.66	208.31
431.85	147.45
432.03	203.63
432.22	180.22
432.41	161.50
432.60	166.18
432.79	184.90
432.97	330.02
433.16	353.42
433.35	259.80
433.54	215.33
433.72	222.35
433.91	234.05
434.10	212.99
434.28	234.05
434.47	187.24
434.66	196.60
434.85	182.56
435.03	248.10
435.22	367.46
435.41	313.63
435.59	304.27
435.78	294.91
435.97	227.03
436.16	210.65
436.34	170.86
436.53	159.16
436.72	222.35
436.90	196.60
437.09	121.71
437.28	194.26
437.46	220.01
437.65	203.63
437.84	243.42
438.02	147.45
438.21	198.95
438.40	159.16
438.58	173.20
438.77	175.54
438.96	177.88
439.14	156.82
439.33	149.79
439.52	170.86
439.70	205.97
439.89	161.50
440.08	163.84
440.26	217.67
440.45	308.95
440.63	205.97
440.82	177.88
441.01	124.05
441.19	210.65
441.38	138.09
441.57	189.58
441.75	236.39
441.94	177.88
442.12	175.54
442.31	168.52
442.50	203.63
442.68	187.24
442.87	180.22
443.05	168.52
443.24	152.13
443.43	234.05
443.61	210.65
443.80	203.63
443.98	203.63
444.17	220.01
444.35	212.99
444.54	152.13
444.73	163.84
444.91	175.54
445.10	184.90
445.28	173.20
445.47	149.79
445.65	250.44
445.84	180.22
446.02	220.01
446.21	159.16
446.39	203.63
446.58	236.39
446.77	180.22
446.95	152.13
447.14	227.03
447.32	175.54
447.51	128.73
447.69	248.10
447.88	194.26
448.06	278.52
448.25	243.42
448.43	138.09
448.62	191.92
448.80	196.60
448.99	205.97
449.17	156.82
449.36	152.13
449.54	184.90
449.73	145.11
449.91	248.10
450.10	266.82
450.28	283.20
450.46	245.76
450.65	250.44
450.83	154.48
451.02	175.54
451.20	201.29
451.39	173.20
451.57	189.58
451.76	243.42
451.94	198.95
452.13	273.84
452.31	266.82
452.49	189.58
452.68	138.09
452.86	135.75
453.05	259.80
453.23	191.92
453.42	168.52
453.60	168.52
453.78	208.31
453.97	119.37
454.15	161.50
454.34	224.69
454.52	224.69
454.70	252.78
454.89	138.09
455.07	191.92
455.26	236.39
455.44	177.88
455.62	217.67
455.81	198.95
455.99	248.10
456.17	175.54
456.36	189.58
456.54	147.45
456.73	149.79
456.91	191.92
457.09	126.39
457.28	215.33
457.46	201.29
457.64	290.23
457.83	227.03
458.01	163.84
458.19	212.99
458.38	229.37
458.56	238.73
458.74	287.89
458.93	250.44
459.11	173.20
459.29	205.97
459.48	236.39
459.66	252.78
459.84	273.84
460.03	285.55
460.21	170.86
460.39	241.08
460.57	149.79
460.76	271.50
460.94	159.16
461.12	278.52
461.31	241.08
461.49	198.95
461.67	241.08
461.85	154.48
462.04	222.35
462.22	685.78
462.40	152.13
462.59	159.16
462.77	135.75
462.95	229.37
463.13	229.37
463.32	245.76
463.50	229.37
463.68	264.48
463.86	182.56
464.05	187.24
464.23	173.20
464.41	184.90
464.59	227.03
464.78	149.79
464.96	138.09
465.14	231.71
465.32	161.50
465.50	203.63
465.69	217.67
465.87	149.79
466.05	194.26
466.23	191.92
466.41	217.67
466.60	173.20
466.78	198.95
466.96	243.42
467.14	182.56
467.32	203.63
467.51	217.67
467.69	175.54
467.87	173.20
468.05	229.37
468.23	259.80
468.41	163.84
468.60	252.78
468.78	154.48
468.96	191.92
469.14	189.58
469.32	142.77
469.50	182.56
469.69	166.18
469.87	173.20
470.05	133.41
470.23	154.48
470.41	262.14
470.59	269.16
470.77	238.73
470.95	227.03
471.14	208.31
471.32	222.35
471.50	243.42
471.68	201.29
471.86	191.92
472.04	220.01
472.22	191.92
472.40	182.56
472.58	259.80
472.77	184.90
472.95	194.26
473.13	210.65
473.31	180.22
473.49	217.67
473.67	147.45
473.85	208.31
474.03	194.26
474.21	210.65
474.39	220.01
474.57	252.78
474.75	154.48
474.93	212.99
475.12	243.42
475.30	215.33
475.48	180.22
475.66	215.33
475.84	147.45
476.02	161.50
476.20	175.54
476.38	198.95
476.56	280.86
476.74	231.71
476.92	154.48
477.10	222.35
477.28	198.95
477.46	147.45
477.64	210.65
477.82	229.37
478.00	269.16
478.18	217.67
478.36	189.58
478.54	243.42
478.72	173.20
478.90	201.29
479.08	210.65
479.26	212.99
479.44	194.26
479.62	198.95
479.80	196.60
479.98	210.65
480.16	173.20
480.34	142.77
480.52	215.33
480.70	201.29
480.88	133.41
481.06	175.54
481.24	128.73
481.41	248.10
481.59	201.29
481.77	196.60
481.95	177.88
482.13	280.86
482.31	173.20
482.49	184.90
482.67	224.69
482.85	266.82
483.03	203.63
483.21	196.60
483.39	212.99
483.57	276.18
483.74	205.97
483.92	201.29
484.10	205.97
484.28	184.90
484.46	238.73
484.64	229.37
484.82	180.22
485.00	194.26
485.18	182.56
485.35	182.56
485.53	203.63
485.71	287.89
485.89	215.33
486.07	224.69
486.25	292.57
486.43	231.71
486.61	229.37
486.78	250.44
486.96	224.69
487.14	177.88
487.32	184.90
487.50	276.18
487.68	227.03
487.85	212.99
488.03	224.69
488.21	264.48
488.39	276.18
488.57	308.95
488.75	236.39
488.92	489.17
489.10	304.27
489.28	320.65
489.46	152.13
489.64	283.20
489.81	241.08
489.99	252.78
490.17	280.86
490.35	327.68
490.53	201.29
490.70	210.65
490.88	173.20
491.06	175.54
491.24	285.55
491.41	283.20
491.59	252.78
491.77	203.63
491.95	198.95
492.13	222.35
492.30	187.24
492.48	201.29
492.66	301.93
492.84	189.58
493.01	227.03
493.19	217.67
493.37	278.52
493.54	220.01
493.72	238.73
493.90	210.65
494.08	194.26
494.25	313.63
494.43	299.59
494.61	294.91
494.79	315.97
494.96	297.25
495.14	236.39
495.32	269.16
495.49	245.76
495.67	234.05
495.85	187.24
496.02	177.88
496.20	266.82
496.38	276.18
496.55	222.35
496.73	248.10
496.91	220.01
497.09	243.42
497.26	168.52
497.44	238.73
497.62	283.20
497.79	287.89
497.97	304.27
498.14	292.57
498.32	259.80
498.50	264.48
498.67	224.69
498.85	217.67
499.03	222.35
499.20	252.78
499.38	191.92
499.56	236.39
499.73	266.82
499.91	229.37
500.08	320.65
500.26	170.86
500.44	287.89
500.61	231.71
500.79	287.89
500.97	224.69
501.14	229.37
501.32	290.23
501.49	315.97
501.67	245.76
501.84	259.80
502.02	236.39
502.20	271.50
502.37	285.55
502.55	189.58
502.72	227.03
502.90	280.86
503.07	297.25
503.25	278.52
503.43	241.08
503.60	269.16
503.78	266.82
503.95	248.10
504.13	250.44
504.30	299.59
504.48	262.14
504.65	227.03
504.83	297.25
505.01	234.05
505.18	266.82
505.36	217.67
505.53	215.33
505.71	220.01
505.88	255.12
506.06	283.20
506.23	273.84
506.41	177.88
506.58	280.86
506.76	238.73
506.93	220.01
507.11	313.63
507.28	234.05
507.46	266.82
507.63	299.59
507.81	322.99
507.98	262.14
508.16	262.14
508.33	264.48
508.50	292.57
508.68	271.50
508.85	322.99
509.03	280.86
509.20	264.48
509.38	259.80
509.55	294.91
509.73	290.23
509.90	301.93
510.08	306.61
510.25	344.06
510.42	210.65
510.60	196.60
510.77	283.20
510.95	339.38
511.12	252.78
511.30	224.69
511.47	325.33
511.64	266.82
511.82	248.10
511.99	292.57
512.17	315.97
512.34	238.73
512.51	290.23
512.69	262.14
512.86	212.99
513.04	229.37
513.21	308.95
513.38	271.50
513.56	266.82
513.73	301.93
513.90	266.82
514.08	252.78
514.25	266.82
514.43	259.80
514.60	252.78
514.77	271.50
514.95	285.55
515.12	266.82
515.29	243.42
515.47	306.61
515.64	257.46
515.81	292.57
515.99	294.91
516.16	276.18
516.33	278.52
516.51	269.16
516.68	168.52
516.85	220.01
517.03	248.10
517.20	330.02
517.37	285.55
517.54	339.38
517.72	196.60
517.89	285.55
518.06	236.39
518.24	215.33
518.41	341.72
518.58	304.27
518.75	344.06
518.93	339.38
519.10	236.39
519.27	325.33
519.45	283.20
519.62	297.25
519.79	271.50
519.96	273.84
520.14	318.31
520.31	259.80
520.48	259.80
520.65	259.80
520.83	322.99
521.00	318.31
521.17	283.20
521.34	236.39
521.52	236.39
521.69	290.23
521.86	278.52
522.03	205.97
522.20	327.68
522.38	320.65
522.55	299.59
522.72	187.24
522.89	269.16
523.07	273.84
523.24	198.95
523.41	278.52
523.58	292.57
523.75	248.10
523.92	271.50
524.10	285.55
524.27	327.68
524.44	262.14
524.61	299.59
524.78	266.82
524.96	266.82
525.13	231.71
525.30	245.76
525.47	276.18
525.64	297.25
525.81	278.52
525.98	220.01
526.16	161.50
526.33	262.14
526.50	177.88
526.67	210.65
526.84	205.97
527.01	175.54
527.18	287.89
527.36	285.55
527.53	222.35
527.70	278.52
527.87	243.42
528.04	297.25
528.21	243.42
528.38	297.25
528.55	231.71
528.72	299.59
528.89	318.31
529.07	243.42
529.24	264.48
529.41	355.76
529.58	280.86
529.75	245.76
529.92	234.05
530.09	290.23
530.26	372.15
530.43	266.82
530.60	283.20
530.77	227.03
530.94	332.36
531.11	257.46
531.28	287.89
531.46	264.48
531.63	313.63
531.80	252.78
531.97	304.27
532.14	334.70
532.31	229.37
532.48	322.99
532.65	388.53
532.82	470.45
532.99	540.66
533.16	409.59
533.33	344.06
533.50	304.27
533.67	397.89
533.84	468.11
534.01	547.69
534.18	402.57
534.35	433.00
534.52	311.29
534.69	337.04
534.86	330.02
535.03	341.72
535.20	315.97
535.37	276.18
535.54	273.84
535.71	243.42
535.88	322.99
536.05	322.99
536.22	341.72
536.38	290.23
536.55	245.76
536.72	311.29
536.89	269.16
537.06	348.74
537.23	262.14
537.40	290.23
537.57	241.08
537.74	346.40
537.91	351.08
538.08	344.06
538.25	304.27
538.42	287.89
538.59	334.70
538.75	318.31
538.92	330.02
539.09	313.63
539.26	271.50
539.43	601.52
539.60	1196.01
539.77	1881.79
539.94	2113.50
540.11	1418.36
540.28	887.06
540.44	669.39
540.61	552.37
540.78	456.40
540.95	402.57
541.12	503.22
541.29	484.49
541.46	500.87
541.62	528.96
541.79	500.87
541.96	463.43
542.13	440.02
542.30	430.66
542.47	482.15
542.63	388.53
542.80	524.28
542.97	479.81
543.14	393.21
543.31	458.74
543.48	458.74
543.64	468.11
543.81	376.83
543.98	404.91
544.15	400.23
544.32	423.64
544.48	484.49
544.65	437.68
544.82	451.72
544.99	402.57
545.16	461.09
545.32	447.04
545.49	650.67
545.66	837.91
545.83	809.83
546.00	699.82
546.16	592.16
546.33	496.19
546.50	425.98
546.67	484.49
546.83	433.00
547.00	407.25
547.17	337.04
547.34	367.46
547.50	386.19
547.67	369.80
547.84	379.17
548.00	337.04
548.17	351.08
548.34	418.96
548.51	463.43
548.67	400.23
548.84	393.21
549.01	362.78
549.18	362.78
549.34	365.12
549.51	425.98
549.68	313.63
549.84	355.76
550.01	290.23
550.18	433.00
550.34	353.42
550.51	315.97
550.68	435.34
550.84	297.25
551.01	266.82
551.18	287.89
551.34	259.80
551.51	327.68
551.68	334.70
551.84	348.74
552.01	280.86
552.18	297.25
552.34	220.01
552.51	337.04
552.68	285.55
552.84	306.61
553.01	252.78
553.18	287.89
553.34	255.12
553.51	236.39
553.67	308.95
553.84	325.33
554.01	252.78
554.17	297.25
554.34	177.88
554.51	344.06
554.67	330.02
554.84	353.42
555.00	283.20
555.17	280.86
555.33	287.89
555.50	332.36
555.67	372.15
555.83	285.55
556.00	250.44
556.16	444.70
556.33	346.40
556.50	205.97
556.66	234.05
556.83	297.25
556.99	308.95
557.16	299.59
557.32	269.16
557.49	229.37
557.65	229.37
557.82	217.67
557.98	259.80
558.15	210.65
558.32	318.31
558.48	266.82
558.65	262.14
558.81	271.50
558.98	280.86
559.14	280.86
559.31	308.95
559.47	292.57
559.64	264.48
559.80	278.52
559.97	234.05
560.13	271.50
560.30	208.31
560.46	287.89
560.63	372.15
560.79	313.63
560.96	308.95
561.12	224.69
561.29	271.50
561.45	264.48
561.61	248.10
561.78	388.53
561.94	259.80
562.11	229.37
562.27	287.89
562.44	325.33
562.60	283.20
562.77	285.55
562.93	372.15
563.10	252.78
563.26	259.80
563.42	292.57
563.59	313.63
563.75	297.25
563.92	271.50
564.08	334.70
564.24	299.59
564.41	287.89
564.57	238.73
564.74	241.08
564.90	266.82
565.07	346.40
565.23	287.89
565.39	348.74
565.56	374.49
565.72	285.55
565.88	271.50
566.05	348.74
566.21	351.08
566.38	257.46
566.54	266.82
566.70	283.20
566.87	250.44
567.03	250.44
567.19	334.70
567.36	257.46
567.52	264.48
567.68	381.51
567.85	304.27
568.01	330.02
568.17	236.39
568.34	266.82
568.50	276.18
568.66	208.31
568.83	362.78
568.99	311.29
569.15	262.14
569.32	313.63
569.48	276.18
569.64	280.86
569.81	212.99
569.97	269.16
570.13	269.16
570.30	210.65
570.46	308.95
570.62	210.65
570.78	203.63
570.95	255.12
571.11	339.38
571.27	358.10
571.43	332.36
571.60	299.59
571.76	292.57
571.92	290.23
572.09	285.55
572.25	325.33
572.41	266.82
572.57	255.12
572.74	301.93
572.90	353.42
573.06	290.23
573.22	313.63
573.38	315.97
573.55	259.80
573.71	264.48
573.87	264.48
574.03	276.18
574.20	313.63
574.36	339.38
574.52	355.76
574.68	386.19
574.84	315.97
575.01	322.99
575.17	271.50
575.33	292.57
575.49	271.50
575.65	271.50
575.82	318.31
575.98	648.33
576.14	819.19
576.30	922.17
576.46	781.74
576.62	653.01
576.79	575.77
576.95	505.56
577.11	411.93
577.27	435.34
577.43	402.57
577.59	374.49
577.75	390.87
577.92	299.59
578.08	337.04
578.24	229.37
578.40	372.15
578.56	414.27
578.72	477.47
578.88	430.66
579.04	355.76
579.21	362.78
579.37	337.04
579.53	400.23
579.69	376.83
579.85	308.95
580.01	451.72
580.17	463.43
580.33	393.21
580.49	498.53
580.65	475.13
580.82	461.09
580.98	393.21
581.14	400.23
581.30	442.36
581.46	510.24
581.62	711.52
581.78	751.31
581.94	751.31
582.10	657.69
582.26	564.07
582.42	482.15
582.58	601.52
582.74	458.74
582.90	552.37
583.06	622.58
583.22	573.43
583.38	578.11
583.54	704.50
583.70	697.48
583.86	901.11
584.02	971.32
584.18	1151.54
584.34	1458.15
584.50	3227.60
584.66	23129.17
584.82	58960.44
584.98	65535.00
585.14	65535.00
585.30	62815.30
585.46	38726.50
585.62	23566.85
585.78	11033.29
585.94	4311.27
586.10	2118.18
586.26	1331.76
586.42	1062.60
586.58	931.53
586.74	908.13
586.90	842.59
587.06	793.44
587.22	730.25
587.38	711.52
587.54	1174.95
587.70	3969.55
587.86	7199.49
588.02	9001.70
588.18	6401.37
588.34	3810.39
588.49	2616.72
588.65	1584.54
588.81	847.27
588.97	500.87
589.13	451.72
589.29	430.66
589.45	372.15
589.61	386.19
589.77	519.60
589.93	545.34
590.08	561.73
590.24	557.05
590.40	475.13
590.56	437.68
590.72	463.43
590.88	404.91
591.04	440.02
591.20	503.22
591.35	465.77
591.51	449.38
591.67	379.17
591.83	414.27
591.99	444.70
592.15	416.62
592.31	381.51
592.46	353.42
592.62	360.44
592.78	411.93
592.94	437.68
593.10	465.77
593.26	425.98
593.41	416.62
593.57	524.28
593.73	634.29
593.89	2775.88
594.05	7913.35
594.20	14277.27
594.36	14546.43
594.52	9495.55
594.68	5572.82
594.84	3775.28
594.99	2059.67
595.15	964.30
595.31	606.20
595.47	414.27
595.62	337.04
595.78	451.72
595.94	428.32
596.10	440.02
596.25	322.99
596.41	528.96
596.57	395.55
596.73	369.80
596.88	557.05
597.04	1600.93
597.20	2871.84
597.36	3735.50
597.51	2766.51
597.67	1837.32
597.83	1301.34
597.99	898.77
598.14	620.24
598.30	435.34
598.46	400.23
598.61	411.93
598.77	344.06
598.93	339.38
599.09	407.25
599.24	376.83
599.40	266.82
599.56	395.55
599.71	395.55
599.87	355.76
600.03	262.14
600.18	367.46
600.34	266.82
600.50	315.97
600.65	280.86
600.81	320.65
600.97	294.91
601.12	259.80
601.28	362.78
601.44	355.76
601.59	285.55
601.75	301.93
601.91	306.61
602.06	311.29
602.22	393.21
602.37	849.61
602.53	1926.26
602.69	3384.41
602.84	3850.18
603.00	2738.43
603.16	1799.87
603.31	1343.47
603.47	880.04
603.62	599.18
603.78	447.04
603.94	367.46
604.09	388.53
604.25	332.36
604.40	313.63
604.56	339.38
604.71	257.46
604.87	304.27
605.03	381.51
605.18	334.70
605.34	393.21
605.49	395.55
605.65	425.98
605.80	369.80
605.96	435.34
606.12	442.36
606.27	433.00
606.43	400.23
606.58	456.40
606.74	919.83
606.89	3574.00
607.05	8329.97
607.20	12505.48
607.36	10576.88
607.51	7180.76
607.67	4449.36
607.82	3066.10
607.98	1680.50
608.13	873.02
608.29	624.92
608.44	585.13
608.60	620.24
608.75	685.78
608.91	1270.91
609.06	5401.96
609.22	13631.28
609.37	21518.89
609.53	19197.07
609.68	12793.37
609.84	8013.99
609.99	5390.25
610.15	2857.79
610.30	1462.83
610.46	1057.92
610.61	868.34
610.76	954.94
610.92	978.34
611.07	990.05
611.23	1062.60
611.38	896.43
611.54	933.87
611.69	777.06
611.84	732.59
612.00	671.73
612.15	627.26
612.31	753.65
612.46	901.11
612.62	1104.73
612.77	1151.54
612.92	908.13
613.08	821.53
613.23	861.32
613.39	835.57
613.54	1034.52
613.69	5062.58
613.85	16262.04
614.00	29823.11
614.15	36151.91
614.31	25050.75
614.46	15712.02
614.62	10373.25
614.77	6291.36
614.92	2970.14
615.08	1444.11
615.23	880.04
615.38	723.23
615.54	648.33
615.69	1076.65
615.84	3040.36
616.00	6406.05
616.15	8982.98
616.30	7571.63
616.46	5069.60
616.61	3328.24
616.76	2394.37
616.92	1200.69
617.07	739.61
617.22	435.34
617.37	440.02
617.53	390.87
617.68	322.99
617.83	404.91
617.99	414.27
618.14	486.83
618.29	306.61
618.45	262.14
618.60	355.76
618.75	351.08
618.90	311.29
619.06	337.04
619.21	353.42
619.36	327.68
619.51	264.48
619.67	337.04
619.82	348.74
619.97	351.08
620.12	425.98
620.28	327.68
620.43	395.55
620.58	341.72
620.73	341.72
620.89	362.78
621.04	547.69
621.19	1678.16
621.34	3513.14
621.49	5125.77
621.65	4770.01
621.80	3391.44
621.95	2242.23
622.10	1444.11
622.25	957.28
622.41	545.34
622.56	461.09
622.71	376.83
622.86	395.55
623.01	355.76
623.16	379.17
623.32	306.61
623.47	388.53
623.62	266.82
623.77	313.63
623.92	290.23
624.07	280.86
624.23	339.38
624.38	327.68
624.53	334.70
624.68	374.49
624.83	381.51
624.98	332.36
625.13	266.82
625.29	395.55
625.44	322.99
625.59	397.89
625.74	461.09
625.89	615.56
626.04	2403.73
626.19	7648.87
626.34	14691.54
626.49	19178.35
626.65	13525.96
626.80	8655.30
626.95	5874.74
627.10	3693.37
627.25	1823.28
627.40	851.96
627.55	622.58
627.70	456.40
627.85	397.89
628.00	383.85
628.15	358.10
628.30	346.40
628.45	304.27
628.60	353.42
628.76	313.63
628.91	313.63
629.06	306.61
629.21	393.21
629.36	374.49
629.51	362.78
629.66	351.08
629.81	601.52
629.96	1432.41
630.11	3028.65
630.26	4629.58
630.41	4327.65
630.56	3009.93
630.71	2050.31
630.86	1516.67
631.01	910.47
631.16	528.96
631.31	470.45
631.46	372.15
631.61	311.29
631.76	353.42
631.91	320.65
632.06	386.19
632.21	437.68
632.36	353.42
632.51	458.74
632.66	521.94
632.81	1266.23
632.96	4191.90
633.10	8828.50
633.25	12250.36
633.40	9989.41
633.55	6970.12
633.70	4423.61
633.85	2956.10
634.00	1619.65
634.15	807.48
634.30	557.05
634.45	428.32
634.60	461.09
634.75	337.04
634.90	376.83
635.05	365.12
635.19	362.78
635.34	369.80
635.49	276.18
635.64	334.70
635.79	308.95
635.94	332.36
636.09	294.91
636.24	320.65
636.39	304.27
636.53	428.32
636.68	353.42
636.83	318.31
636.98	437.68
637.13	388.53
637.28	440.02
637.43	568.75
637.57	777.06
637.72	3262.71
637.87	10485.60
638.02	19332.82
638.17	23824.31
638.32	16898.67
638.46	11290.74
638.61	7461.63
638.76	4461.06
638.91	2204.78
639.06	1144.52
639.20	847.27
639.35	777.06
639.50	1029.84
639.65	4830.87
639.80	15087.09
639.94	28556.88
640.09	35510.61
640.24	25771.64
640.39	17048.46
640.54	11169.04
640.68	6834.36
640.83	3358.67
640.98	1561.14
641.13	889.40
641.27	641.31
641.42	559.39
641.57	454.06
641.72	461.09
641.86	376.83
642.01	362.78
642.16	414.27
642.31	372.15
642.45	367.46
642.60	315.97
642.75	320.65
642.90	255.12
643.04	278.52
643.19	315.97
643.34	245.76
643.48	355.76
643.63	238.73
643.78	182.56
643.93	334.70
644.07	379.17
644.22	287.89
644.37	297.25
644.51	313.63
644.66	287.89
644.81	264.48
644.95	341.72
645.10	262.14
645.25	297.25
645.39	318.31
645.54	248.10
645.69	299.59
645.83	217.67
645.98	325.33
646.13	255.12
646.27	322.99
646.42	205.97
646.57	210.65
646.71	238.73
646.86	184.90
647.00	205.97
647.15	276.18
647.30	241.08
647.44	215.33
647.59	241.08
647.74	168.52
647.88	283.20
648.03	243.42
648.17	238.73
648.32	250.44
648.47	224.69
648.61	322.99
648.76	304.27
648.90	283.20
649.05	285.55
649.20	220.01
649.34	224.69
649.49	250.44
649.63	407.25
649.78	360.44
649.92	517.26
650.07	2062.01
650.21	6761.81
650.36	13561.06
650.51	18911.53
650.65	15197.10
650.80	10424.75
650.94	6698.61
651.09	4395.53
651.23	2193.08
651.38	1153.88
651.52	622.58
651.67	477.47
651.81	332.36
651.96	433.00
652.10	367.46
652.25	365.12
652.39	322.99
652.54	358.10
652.68	690.46
652.83	2125.21
652.97	4479.79
653.12	6375.62
653.26	5811.55
653.41	4243.39
653.55	2773.53
653.70	1900.52
653.84	1071.97
653.99	580.45
654.13	386.19
654.27	276.18
654.42	203.63
654.56	330.02
654.71	320.65
654.85	224.69
655.00	217.67
655.14	231.71
655.29	191.92
655.43	278.52
655.57	278.52
655.72	217.67
655.86	294.91
656.01	135.75
656.15	252.78
656.30	320.65
656.44	217.67
656.58	180.22
656.73	229.37
656.87	222.35
657.01	177.88
657.16	264.48
657.30	278.52
657.45	322.99
657.59	287.89
657.73	205.97
657.88	201.29
658.02	290.23
658.16	297.25
658.31	245.76
658.45	250.44
658.60	196.60
658.74	248.10
658.88	231.71
659.03	273.84
659.17	386.19
659.31	926.85
659.46	3047.38
659.60	6066.67
659.74	8945.53
659.89	8163.79
660.03	5947.30
660.17	4025.72
660.32	2532.46
660.46	1479.22
660.60	777.06
660.74	498.53
660.89	393.21
661.03	315.97
661.17	273.84
661.32	269.16
661.46	245.76
661.60	297.25
661.74	315.97
661.89	292.57
662.03	297.25
662.17	278.52
662.31	276.18
662.46	266.82
662.60	255.12
662.74	208.31
662.88	255.12
663.03	311.29
663.17	294.91
663.31	184.90
663.45	248.10
663.60	257.46
663.74	222.35
663.88	290.23
664.02	248.10
664.17	262.14
664.31	250.44
664.45	203.63
664.59	252.78
664.73	224.69
664.88	259.80
665.02	318.31
665.16	205.97
665.30	369.80
665.44	224.69
665.59	238.73
665.73	266.82
665.87	287.89
666.01	252.78
666.15	243.42
666.29	278.52
666.44	276.18
666.58	374.49
666.72	334.70
666.86	297.25
667.00	374.49
667.14	484.49
667.28	1846.68
667.43	5703.89
667.57	11552.88
667.71	15822.02
667.85	13490.85
667.99	9865.36
668.13	6509.03
668.27	3688.68
668.41	2097.12
668.56	1200.69
668.70	748.97
668.84	454.06
668.98	437.68
669.12	344.06
669.26	276.18
669.40	315.97
669.54	285.55
669.68	299.59
669.82	252.78
669.96	182.56
670.10	217.67
670.25	241.08
670.39	294.91
670.53	301.93
670.67	238.73
670.81	304.27
670.95	369.80
671.09	510.24
671.23	2045.63
671.37	5128.11
671.51	8409.54
671.65	10108.77
671.79	7749.51
671.93	5598.56
672.07	3307.18
672.21	1884.13
672.35	1191.33
672.49	727.91
672.63	524.28
672.77	411.93
672.91	283.20
673.05	210.65
673.19	297.25
673.33	217.67
673.47	241.08
673.61	170.86
673.75	257.46
673.89	220.01
674.03	161.50
674.17	231.71
674.31	264.48
674.45	187.24
674.59	205.97
674.73	201.29
674.87	236.39
675.01	292.57
675.15	330.02
675.29	374.49
675.43	339.38
675.56	334.70
675.70	269.16
675.84	201.29
675.98	208.31
676.12	210.65
676.26	161.50
676.40	117.03
676.54	210.65
676.68	245.76
676.82	304.27
676.96	208.31
677.10	194.26
677.23	245.76
677.37	210.65
677.51	227.03
677.65	280.86
677.79	161.50
677.93	212.99
678.07	212.99
678.21	220.01
678.34	145.11
678.48	236.39
678.62	198.95
678.76	177.88
678.90	248.10
679.04	236.39
679.18	259.80
679.31	126.39
679.45	145.11
679.59	205.97
679.73	280.86
679.87	147.45
680.00	159.16
680.14	243.42
680.28	243.42
680.42	191.92
680.56	203.63
680.70	194.26
680.83	234.05
680.97	152.13
681.11	159.16
681.25	210.65
681.39	189.58
681.52	194.26
681.66	224.69
681.80	264.48
681.94	210.65
682.07	163.84
682.21	283.20
682.35	166.18
682.49	257.46
682.62	208.31
682.76	163.84
682.90	208.31
683.04	187.24
683.17	227.03
683.31	112.35
683.45	163.84
683.59	194.26
683.72	234.05
683.86	250.44
684.00	187.24
684.13	222.35
684.27	161.50
684.41	149.79
684.55	259.80
684.68	175.54
684.82	112.35
684.96	210.65
685.09	170.86
685.23	227.03
685.37	215.33
685.50	189.58
685.64	215.33
685.78	182.56
685.91	147.45
686.05	191.92
686.19	131.07
686.32	241.08
686.46	203.63
686.60	159.16
686.73	191.92
686.87	243.42
687.01	297.25
687.14	245.76
687.28	236.39
687.42	168.52
687.55	168.52
687.69	184.90
687.82	222.35
687.96	257.46
688.10	166.18
688.23	210.65
688.37	220.01
688.50	177.88
688.64	210.65
688.78	175.54
688.91	234.05
689.05	149.79
689.18	203.63
689.32	196.60
689.46	248.10
689.59	222.35
689.73	163.84
689.86	210.65
690.00	198.95
690.13	182.56
690.27	163.84
690.41	152.13
690.54	163.84
690.68	110.01
690.81	245.76
690.95	189.58
691.08	156.82
691.22	241.08
691.35	182.56
691.49	149.79
691.62	262.14
691.76	198.95
691.89	159.16
692.03	238.73
692.16	245.76
692.30	334.70
692.43	695.14
692.57	2410.75
692.70	4961.94
692.84	6899.90
692.97	6719.68
693.11	4861.29
693.24	3529.53
693.38	2480.97
693.51	1600.93
693.65	1034.52
693.78	802.80
693.92	489.17
694.05	409.59
694.19	325.33
694.32	184.90
694.45	227.03
694.59	187.24
694.72	166.18
694.86	198.95
694.99	215.33
695.13	290.23
695.26	248.10
695.39	161.50
695.53	269.16
695.66	156.82
695.80	234.05
695.93	210.65
696.07	208.31
696.20	440.02
696.33	482.15
696.47	601.52
696.60	550.03
696.73	428.32
696.87	358.10
697.00	318.31
697.14	229.37
697.27	175.54
697.40	334.70
697.54	234.05
697.67	224.69
697.80	182.56
697.94	191.92
698.07	201.29
698.21	231.71
698.34	191.92
698.47	168.52
698.61	203.63
698.74	196.60
698.87	245.76
699.01	189.58
699.14	149.79
699.27	152.13
699.40	273.84
699.54	196.60
699.67	121.71
699.80	126.39
699.94	142.77
700.07	135.75
700.20	145.11
700.34	224.69
700.47	215.33
700.60	294.91
700.73	170.86
700.87	236.39
701.00	166.18
701.13	191.92
701.26	189.58
701.40	227.03
701.53	224.69
701.66	187.24
701.79	215.33
701.93	269.16
702.06	386.19
702.19	449.38
702.32	573.43
702.46	643.65
702.59	519.60
702.72	912.81
702.85	3110.57
702.99	7105.87
703.12	11346.92
703.25	13935.55
703.38	11932.05
703.51	9533.00
703.65	7419.50
703.78	5355.15
703.91	3428.88
704.04	2218.83
704.17	1317.72
704.31	763.01
704.44	557.05
704.57	404.91
704.70	365.12
704.83	252.78
704.96	248.10
705.10	201.29
705.23	280.86
>>>>>End Processed Spectral Data<<<<<
