SpectraSuite Data File
++++++++++++++++++++++++++++++++++++
Date: Fri Oct 04 11:34:04 GMT-05:00 2013
User: price-jones
Dark Spectrum Present: No
Reference Spectrum Present: No
Number of Sampled Component Spectra: 1
Spectrometers: USB2+H05261
Integration Time (usec): 100000 (USB2+H05261)
Spectra Averaged: 1 (USB2+H05261)
Boxcar Smoothing: 0 (USB2+H05261)
Correct for Electrical Dark: No (USB2+H05261)
Strobe/Lamp Enabled: No (USB2+H05261)
Correct for Detector Non-linearity: No (USB2+H05261)
Correct for Stray Light: No (USB2+H05261)
Number of Pixels in Processed Spectrum: 2048
>>>>>Begin Processed Spectral Data<<<<<
365.73	42.13
365.92	42.13
366.12	42.13
366.32	9.36
366.52	0.00
366.72	74.90
366.91	0.00
367.11	0.00
367.31	0.00
367.51	0.00
367.70	0.00
367.90	70.22
368.10	0.00
368.30	0.00
368.49	0.00
368.69	7.02
368.89	0.00
369.09	0.00
369.28	0.00
369.48	0.00
369.68	0.00
369.87	0.00
370.07	49.15
370.27	88.94
370.47	44.47
370.66	7.02
370.86	84.26
371.06	145.11
371.25	77.24
371.45	98.30
371.65	128.73
371.84	21.06
372.04	112.35
372.24	147.45
372.44	126.39
372.63	74.90
372.83	79.58
373.03	131.07
373.22	222.35
373.42	117.03
373.62	163.84
373.81	180.22
374.01	191.92
374.21	180.22
374.40	184.90
374.60	191.92
374.79	177.88
374.99	187.24
375.19	234.05
375.38	121.71
375.58	159.16
375.78	215.33
375.97	196.60
376.17	210.65
376.37	88.94
376.56	177.88
376.76	98.30
376.95	133.41
377.15	149.79
377.35	126.39
377.54	56.17
377.74	84.26
377.93	88.94
378.13	191.92
378.33	152.13
378.52	86.60
378.72	133.41
378.91	154.48
379.11	121.71
379.31	180.22
379.50	93.62
379.70	159.16
379.89	203.63
380.09	128.73
380.28	138.09
380.48	112.35
380.68	95.96
380.87	39.79
381.07	121.71
381.26	142.77
381.46	168.52
381.65	154.48
381.85	100.64
382.04	77.24
382.24	166.18
382.43	74.90
382.63	128.73
382.83	131.07
383.02	135.75
383.22	81.92
383.41	93.62
383.61	175.54
383.80	152.13
384.00	152.13
384.19	112.35
384.39	119.37
384.58	156.82
384.78	156.82
384.97	124.05
385.17	112.35
385.36	177.88
385.56	182.56
385.75	156.82
385.95	133.41
386.14	126.39
386.34	145.11
386.53	154.48
386.72	79.58
386.92	135.75
387.11	124.05
387.31	166.18
387.50	63.19
387.70	152.13
387.89	152.13
388.09	147.45
388.28	110.01
388.48	124.05
388.67	145.11
388.86	145.11
389.06	119.37
389.25	245.76
389.45	184.90
389.64	163.84
389.84	173.20
390.03	142.77
390.22	112.35
390.42	46.81
390.61	161.50
390.81	135.75
391.00	133.41
391.19	191.92
391.39	145.11
391.58	220.01
391.78	159.16
391.97	39.79
392.16	175.54
392.36	121.71
392.55	128.73
392.75	212.99
392.94	95.96
393.13	170.86
393.33	70.22
393.52	39.79
393.71	224.69
393.91	175.54
394.10	138.09
394.29	208.31
394.49	163.84
394.68	220.01
394.88	241.08
395.07	189.58
395.26	163.84
395.46	189.58
395.65	145.11
395.84	124.05
396.04	166.18
396.23	124.05
396.42	142.77
396.62	159.16
396.81	152.13
397.00	102.98
397.19	140.43
397.39	182.56
397.58	177.88
397.77	175.54
397.97	149.79
398.16	187.24
398.35	161.50
398.55	128.73
398.74	114.69
398.93	135.75
399.12	175.54
399.32	201.29
399.51	205.97
399.70	140.43
399.90	102.98
400.09	105.32
400.28	147.45
400.47	175.54
400.67	138.09
400.86	163.84
401.05	163.84
401.24	114.69
401.44	194.26
401.63	166.18
401.82	182.56
402.01	152.13
402.21	159.16
402.40	173.20
402.59	149.79
402.78	138.09
402.97	177.88
403.17	208.31
403.36	145.11
403.55	180.22
403.74	236.39
403.93	215.33
404.13	311.29
404.32	205.97
404.51	262.14
404.70	208.31
404.89	163.84
405.09	194.26
405.28	121.71
405.47	124.05
405.66	117.03
405.85	168.52
406.05	170.86
406.24	98.30
406.43	131.07
406.62	147.45
406.81	238.73
407.00	156.82
407.20	208.31
407.39	156.82
407.58	119.37
407.77	182.56
407.96	133.41
408.15	182.56
408.34	110.01
408.54	147.45
408.73	191.92
408.92	133.41
409.11	149.79
409.30	208.31
409.49	182.56
409.68	95.96
409.87	182.56
410.07	161.50
410.26	126.39
410.45	175.54
410.64	135.75
410.83	168.52
411.02	67.88
411.21	100.64
411.40	180.22
411.59	149.79
411.78	112.35
411.98	191.92
412.17	91.28
412.36	182.56
412.55	124.05
412.74	180.22
412.93	220.01
413.12	79.58
413.31	184.90
413.50	131.07
413.69	110.01
413.88	222.35
414.07	156.82
414.26	152.13
414.45	154.48
414.64	175.54
414.83	177.88
415.02	184.90
415.22	154.48
415.41	156.82
415.60	168.52
415.79	114.69
415.98	255.12
416.17	105.32
416.36	187.24
416.55	187.24
416.74	142.77
416.93	208.31
417.12	135.75
417.31	175.54
417.50	173.20
417.69	255.12
417.88	250.44
418.07	205.97
418.26	243.42
418.45	273.84
418.64	229.37
418.83	266.82
419.02	259.80
419.21	198.95
419.39	184.90
419.58	168.52
419.77	121.71
419.96	292.57
420.15	248.10
420.34	173.20
420.53	152.13
420.72	196.60
420.91	194.26
421.10	173.20
421.29	154.48
421.48	170.86
421.67	159.16
421.86	184.90
422.05	124.05
422.24	159.16
422.43	203.63
422.61	138.09
422.80	161.50
422.99	248.10
423.18	234.05
423.37	248.10
423.56	133.41
423.75	156.82
423.94	126.39
424.13	163.84
424.32	182.56
424.50	208.31
424.69	210.65
424.88	262.14
425.07	98.30
425.26	182.56
425.45	304.27
425.64	278.52
425.83	212.99
426.01	212.99
426.20	201.29
426.39	168.52
426.58	187.24
426.77	121.71
426.96	250.44
427.15	149.79
427.33	182.56
427.52	238.73
427.71	196.60
427.90	173.20
428.09	154.48
428.28	220.01
428.46	196.60
428.65	170.86
428.84	145.11
429.03	191.92
429.22	182.56
429.40	149.79
429.59	159.16
429.78	175.54
429.97	145.11
430.16	70.22
430.34	166.18
430.53	145.11
430.72	145.11
430.91	191.92
431.10	110.01
431.28	224.69
431.47	168.52
431.66	166.18
431.85	184.90
432.03	205.97
432.22	250.44
432.41	203.63
432.60	287.89
432.79	173.20
432.97	299.59
433.16	344.06
433.35	234.05
433.54	229.37
433.72	248.10
433.91	194.26
434.10	194.26
434.28	154.48
434.47	133.41
434.66	201.29
434.85	203.63
435.03	243.42
435.22	372.15
435.41	458.74
435.59	465.77
435.78	402.57
435.97	315.97
436.16	220.01
436.34	201.29
436.53	135.75
436.72	152.13
436.90	177.88
437.09	177.88
437.28	175.54
437.46	201.29
437.65	196.60
437.84	175.54
438.02	166.18
438.21	215.33
438.40	156.82
438.58	266.82
438.77	163.84
438.96	149.79
439.14	210.65
439.33	229.37
439.52	180.22
439.70	184.90
439.89	173.20
440.08	187.24
440.26	182.56
440.45	196.60
440.63	175.54
440.82	194.26
441.01	145.11
441.19	212.99
441.38	145.11
441.57	198.95
441.75	257.46
441.94	276.18
442.12	212.99
442.31	180.22
442.50	163.84
442.68	184.90
442.87	259.80
443.05	224.69
443.24	182.56
443.43	236.39
443.61	210.65
443.80	159.16
443.98	212.99
444.17	133.41
444.35	257.46
444.54	175.54
444.73	187.24
444.91	201.29
445.10	184.90
445.28	135.75
445.47	161.50
445.65	259.80
445.84	217.67
446.02	187.24
446.21	196.60
446.39	191.92
446.58	180.22
446.77	131.07
446.95	212.99
447.14	245.76
447.32	140.43
447.51	152.13
447.69	180.22
447.88	117.03
448.06	241.08
448.25	196.60
448.43	182.56
448.62	138.09
448.80	297.25
448.99	224.69
449.17	182.56
449.36	79.58
449.54	170.86
449.73	175.54
449.91	184.90
450.10	159.16
450.28	264.48
450.46	231.71
450.65	212.99
450.83	161.50
451.02	210.65
451.20	163.84
451.39	210.65
451.57	163.84
451.76	201.29
451.94	138.09
452.13	194.26
452.31	201.29
452.49	182.56
452.68	177.88
452.86	201.29
453.05	154.48
453.23	229.37
453.42	196.60
453.60	170.86
453.78	220.01
453.97	98.30
454.15	156.82
454.34	168.52
454.52	168.52
454.70	196.60
454.89	198.95
455.07	175.54
455.26	243.42
455.44	191.92
455.62	212.99
455.81	166.18
455.99	196.60
456.17	212.99
456.36	243.42
456.54	182.56
456.73	182.56
456.91	159.16
457.09	170.86
457.28	189.58
457.46	170.86
457.64	248.10
457.83	203.63
458.01	161.50
458.19	271.50
458.38	112.35
458.56	238.73
458.74	138.09
458.93	198.95
459.11	234.05
459.29	133.41
459.48	252.78
459.66	238.73
459.84	191.92
460.03	362.78
460.21	273.84
460.39	159.16
460.57	201.29
460.76	187.24
460.94	227.03
461.12	210.65
461.31	245.76
461.49	173.20
461.67	184.90
461.85	147.45
462.04	149.79
462.22	662.37
462.40	259.80
462.59	250.44
462.77	191.92
462.95	187.24
463.13	163.84
463.32	138.09
463.50	189.58
463.68	147.45
463.86	196.60
464.05	142.77
464.23	201.29
464.41	210.65
464.59	196.60
464.78	182.56
464.96	173.20
465.14	198.95
465.32	238.73
465.50	252.78
465.69	166.18
465.87	184.90
466.05	182.56
466.23	110.01
466.41	156.82
466.60	152.13
466.78	208.31
466.96	224.69
467.14	177.88
467.32	255.12
467.51	231.71
467.69	196.60
467.87	227.03
468.05	217.67
468.23	224.69
468.41	184.90
468.60	149.79
468.78	187.24
468.96	236.39
469.14	124.05
469.32	114.69
469.50	175.54
469.69	147.45
469.87	212.99
470.05	276.18
470.23	196.60
470.41	114.69
470.59	189.58
470.77	220.01
470.95	205.97
471.14	177.88
471.32	208.31
471.50	208.31
471.68	196.60
471.86	95.96
472.04	220.01
472.22	231.71
472.40	180.22
472.58	170.86
472.77	175.54
472.95	243.42
473.13	280.86
473.31	182.56
473.49	152.13
473.67	156.82
473.85	203.63
474.03	217.67
474.21	159.16
474.39	243.42
474.57	276.18
474.75	189.58
474.93	191.92
475.12	170.86
475.30	205.97
475.48	194.26
475.66	196.60
475.84	241.08
476.02	194.26
476.20	159.16
476.38	184.90
476.56	140.43
476.74	156.82
476.92	234.05
477.10	210.65
477.28	187.24
477.46	229.37
477.64	255.12
477.82	161.50
478.00	262.14
478.18	126.39
478.36	259.80
478.54	198.95
478.72	180.22
478.90	166.18
479.08	184.90
479.26	229.37
479.44	234.05
479.62	187.24
479.80	287.89
479.98	215.33
480.16	203.63
480.34	166.18
480.52	245.76
480.70	241.08
480.88	196.60
481.06	168.52
481.24	252.78
481.41	252.78
481.59	231.71
481.77	222.35
481.95	241.08
482.13	252.78
482.31	182.56
482.49	187.24
482.67	248.10
482.85	238.73
483.03	292.57
483.21	191.92
483.39	227.03
483.57	177.88
483.74	264.48
483.92	203.63
484.10	208.31
484.28	283.20
484.46	322.99
484.64	203.63
484.82	332.36
485.00	285.55
485.18	229.37
485.35	285.55
485.53	210.65
485.71	280.86
485.89	243.42
486.07	259.80
486.25	220.01
486.43	320.65
486.61	311.29
486.78	264.48
486.96	276.18
487.14	283.20
487.32	276.18
487.50	280.86
487.68	278.52
487.85	159.16
488.03	294.91
488.21	266.82
488.39	269.16
488.57	285.55
488.75	269.16
488.92	475.13
489.10	301.93
489.28	304.27
489.46	203.63
489.64	299.59
489.81	259.80
489.99	308.95
490.17	222.35
490.35	339.38
490.53	325.33
490.70	304.27
490.88	283.20
491.06	257.46
491.24	245.76
491.41	287.89
491.59	252.78
491.77	173.20
491.95	236.39
492.13	264.48
492.30	210.65
492.48	248.10
492.66	259.80
492.84	241.08
493.01	227.03
493.19	252.78
493.37	341.72
493.54	208.31
493.72	285.55
493.90	255.12
494.08	250.44
494.25	227.03
494.43	187.24
494.61	191.92
494.79	236.39
494.96	264.48
495.14	262.14
495.32	306.61
495.49	224.69
495.67	292.57
495.85	229.37
496.02	250.44
496.20	245.76
496.38	255.12
496.55	208.31
496.73	212.99
496.91	276.18
497.09	264.48
497.26	196.60
497.44	290.23
497.62	208.31
497.79	248.10
497.97	245.76
498.14	280.86
498.32	227.03
498.50	337.04
498.67	285.55
498.85	234.05
499.03	241.08
499.20	222.35
499.38	196.60
499.56	285.55
499.73	285.55
499.91	259.80
500.08	248.10
500.26	224.69
500.44	318.31
500.61	224.69
500.79	238.73
500.97	238.73
501.14	283.20
501.32	224.69
501.49	180.22
501.67	264.48
501.84	196.60
502.02	198.95
502.20	231.71
502.37	337.04
502.55	271.50
502.72	257.46
502.90	227.03
503.07	278.52
503.25	297.25
503.43	227.03
503.60	322.99
503.78	315.97
503.95	250.44
504.13	248.10
504.30	306.61
504.48	257.46
504.65	227.03
504.83	283.20
505.01	250.44
505.18	159.16
505.36	222.35
505.53	262.14
505.71	227.03
505.88	269.16
506.06	217.67
506.23	262.14
506.41	297.25
506.58	276.18
506.76	248.10
506.93	250.44
507.11	322.99
507.28	210.65
507.46	241.08
507.63	250.44
507.81	227.03
507.98	259.80
508.16	344.06
508.33	285.55
508.50	203.63
508.68	287.89
508.85	238.73
509.03	248.10
509.20	215.33
509.38	301.93
509.55	259.80
509.73	245.76
509.90	243.42
510.08	318.31
510.25	294.91
510.42	255.12
510.60	187.24
510.77	337.04
510.95	341.72
511.12	313.63
511.30	287.89
511.47	348.74
511.64	372.15
511.82	320.65
511.99	262.14
512.17	243.42
512.34	220.01
512.51	248.10
512.69	259.80
512.86	311.29
513.04	287.89
513.21	313.63
513.38	264.48
513.56	315.97
513.73	217.67
513.90	210.65
514.08	156.82
514.25	248.10
514.43	229.37
514.60	245.76
514.77	196.60
514.95	243.42
515.12	262.14
515.29	297.25
515.47	262.14
515.64	198.95
515.81	264.48
515.99	306.61
516.16	215.33
516.33	266.82
516.51	241.08
516.68	297.25
516.85	273.84
517.03	308.95
517.20	264.48
517.37	184.90
517.54	259.80
517.72	292.57
517.89	227.03
518.06	180.22
518.24	301.93
518.41	346.40
518.58	346.40
518.75	285.55
518.93	273.84
519.10	308.95
519.27	227.03
519.45	278.52
519.62	299.59
519.79	224.69
519.96	262.14
520.14	269.16
520.31	245.76
520.48	332.36
520.65	248.10
520.83	269.16
521.00	278.52
521.17	315.97
521.34	257.46
521.52	280.86
521.69	278.52
521.86	238.73
522.03	287.89
522.20	358.10
522.38	224.69
522.55	292.57
522.72	201.29
522.89	322.99
523.07	287.89
523.24	257.46
523.41	222.35
523.58	222.35
523.75	269.16
523.92	318.31
524.10	264.48
524.27	320.65
524.44	315.97
524.61	215.33
524.78	276.18
524.96	257.46
525.13	271.50
525.30	337.04
525.47	322.99
525.64	292.57
525.81	231.71
525.98	266.82
526.16	283.20
526.33	205.97
526.50	217.67
526.67	252.78
526.84	259.80
527.01	229.37
527.18	299.59
527.36	276.18
527.53	262.14
527.70	346.40
527.87	234.05
528.04	292.57
528.21	266.82
528.38	280.86
528.55	266.82
528.72	292.57
528.89	315.97
529.07	210.65
529.24	313.63
529.41	294.91
529.58	348.74
529.75	271.50
529.92	266.82
530.09	276.18
530.26	285.55
530.43	278.52
530.60	311.29
530.77	194.26
530.94	262.14
531.11	292.57
531.28	273.84
531.46	273.84
531.63	259.80
531.80	231.71
531.97	215.33
532.14	278.52
532.31	322.99
532.48	273.84
532.65	348.74
532.82	320.65
532.99	386.19
533.16	390.87
533.33	372.15
533.50	330.02
533.67	367.46
533.84	461.09
534.01	437.68
534.18	393.21
534.35	365.12
534.52	339.38
534.69	334.70
534.86	264.48
535.03	287.89
535.20	278.52
535.37	304.27
535.54	393.21
535.71	304.27
535.88	315.97
536.05	271.50
536.22	322.99
536.38	301.93
536.55	271.50
536.72	294.91
536.89	276.18
537.06	259.80
537.23	173.20
537.40	276.18
537.57	341.72
537.74	372.15
537.91	315.97
538.08	294.91
538.25	315.97
538.42	358.10
538.59	325.33
538.75	311.29
538.92	346.40
539.09	383.85
539.26	355.76
539.43	543.00
539.60	1090.69
539.77	1790.51
539.94	1680.50
540.11	1259.21
540.28	835.57
540.44	683.44
540.61	538.32
540.78	585.13
540.95	491.51
541.12	561.73
541.29	550.03
541.46	608.54
541.62	629.60
541.79	559.39
541.96	554.71
542.13	568.75
542.30	617.90
542.47	535.98
542.63	416.62
542.80	435.34
542.97	552.37
543.14	458.74
543.31	580.45
543.48	545.34
543.64	533.64
543.81	510.24
543.98	524.28
544.15	482.15
544.32	566.41
544.48	428.32
544.65	512.58
544.82	507.90
544.99	451.72
545.16	519.60
545.32	489.17
545.49	741.95
545.66	1001.75
545.83	1083.67
546.00	980.68
546.16	739.61
546.33	589.82
546.50	543.00
546.67	571.09
546.83	519.60
547.00	372.15
547.17	418.96
547.34	388.53
547.50	451.72
547.67	414.27
547.84	447.04
548.00	383.85
548.17	360.44
548.34	330.02
548.51	421.30
548.67	402.57
548.84	358.10
549.01	379.17
549.18	421.30
549.34	472.79
549.51	397.89
549.68	344.06
549.84	337.04
550.01	299.59
550.18	369.80
550.34	400.23
550.51	397.89
550.68	365.12
550.84	327.68
551.01	374.49
551.18	346.40
551.34	339.38
551.51	351.08
551.68	191.92
551.84	285.55
552.01	341.72
552.18	311.29
552.34	374.49
552.51	315.97
552.68	259.80
552.84	238.73
553.01	276.18
553.18	259.80
553.34	313.63
553.51	278.52
553.67	374.49
553.84	327.68
554.01	334.70
554.17	358.10
554.34	273.84
554.51	177.88
554.67	301.93
554.84	315.97
555.00	280.86
555.17	315.97
555.33	290.23
555.50	379.17
555.67	257.46
555.83	297.25
556.00	358.10
556.16	435.34
556.33	315.97
556.50	241.08
556.66	276.18
556.83	327.68
556.99	273.84
557.16	283.20
557.32	311.29
557.49	276.18
557.65	236.39
557.82	273.84
557.98	262.14
558.15	220.01
558.32	234.05
558.48	208.31
558.65	250.44
558.81	327.68
558.98	241.08
559.14	306.61
559.31	227.03
559.47	304.27
559.64	257.46
559.80	264.48
559.97	175.54
560.13	287.89
560.30	276.18
560.46	271.50
560.63	301.93
560.79	271.50
560.96	306.61
561.12	220.01
561.29	315.97
561.45	330.02
561.61	222.35
561.78	320.65
561.94	248.10
562.11	250.44
562.27	285.55
562.44	262.14
562.60	224.69
562.77	332.36
562.93	311.29
563.10	315.97
563.26	227.03
563.42	257.46
563.59	257.46
563.75	236.39
563.92	285.55
564.08	280.86
564.24	308.95
564.41	287.89
564.57	266.82
564.74	255.12
564.90	322.99
565.07	315.97
565.23	320.65
565.39	313.63
565.56	337.04
565.72	365.12
565.88	362.78
566.05	292.57
566.21	273.84
566.38	285.55
566.54	262.14
566.70	276.18
566.87	241.08
567.03	341.72
567.19	255.12
567.36	266.82
567.52	227.03
567.68	227.03
567.85	220.01
568.01	212.99
568.17	227.03
568.34	194.26
568.50	320.65
568.66	297.25
568.83	236.39
568.99	285.55
569.15	341.72
569.32	250.44
569.48	271.50
569.64	304.27
569.81	248.10
569.97	262.14
570.13	285.55
570.30	259.80
570.46	269.16
570.62	273.84
570.78	229.37
570.95	220.01
571.11	327.68
571.27	301.93
571.43	304.27
571.60	229.37
571.76	236.39
571.92	241.08
572.09	255.12
572.25	306.61
572.41	290.23
572.57	234.05
572.74	252.78
572.90	252.78
573.06	339.38
573.22	264.48
573.38	283.20
573.55	285.55
573.71	341.72
573.87	280.86
574.03	212.99
574.20	301.93
574.36	337.04
574.52	449.38
574.68	372.15
574.84	348.74
575.01	304.27
575.17	346.40
575.33	276.18
575.49	311.29
575.65	407.25
575.82	435.34
575.98	603.86
576.14	699.82
576.30	767.70
576.46	725.57
576.62	671.73
576.79	685.78
576.95	493.85
577.11	325.33
577.27	355.76
577.43	358.10
577.59	341.72
577.75	358.10
577.92	311.29
578.08	276.18
578.24	304.27
578.40	372.15
578.56	388.53
578.72	475.13
578.88	526.62
579.04	449.38
579.21	435.34
579.37	388.53
579.53	395.55
579.69	425.98
579.85	411.93
580.01	414.27
580.17	444.70
580.33	472.79
580.49	461.09
580.65	440.02
580.82	348.74
580.98	381.51
581.14	407.25
581.30	421.30
581.46	507.90
581.62	723.23
581.78	760.67
581.94	688.12
582.10	552.37
582.26	526.62
582.42	503.22
582.58	606.20
582.74	500.87
582.90	416.62
583.06	517.26
583.22	498.53
583.38	533.64
583.54	564.07
583.70	631.94
583.86	816.85
584.02	887.06
584.18	1041.54
584.34	1224.10
584.50	2970.14
584.66	22279.56
584.82	55849.86
584.98	65535.00
585.14	64053.44
585.30	50756.86
585.46	31072.95
585.62	19585.60
585.78	8847.22
585.94	3517.83
586.10	1687.53
586.26	1200.69
586.42	910.47
586.58	926.85
586.74	734.93
586.90	739.61
587.06	674.07
587.22	627.26
587.38	657.69
587.54	1212.40
587.70	3478.04
587.86	6052.63
588.02	6817.98
588.18	4837.89
588.34	3225.26
588.49	2026.90
588.65	1306.02
588.81	662.37
588.97	468.11
589.13	409.59
589.29	360.44
589.45	402.57
589.61	393.21
589.77	477.47
589.93	503.22
590.08	585.13
590.24	514.92
590.40	528.96
590.56	437.68
590.72	414.27
590.88	440.02
591.04	360.44
591.20	425.98
591.35	409.59
591.51	348.74
591.67	458.74
591.83	388.53
591.99	379.17
592.15	362.78
592.31	355.76
592.46	388.53
592.62	552.37
592.78	360.44
592.94	322.99
593.10	381.51
593.26	390.87
593.41	449.38
593.57	454.06
593.73	695.14
593.89	2740.77
594.05	7360.98
594.20	11356.28
594.36	10972.43
594.52	7204.17
594.68	4524.26
594.84	3183.13
594.99	1713.27
595.15	842.59
595.31	594.50
595.47	449.38
595.62	416.62
595.78	416.62
595.94	376.83
596.10	358.10
596.25	386.19
596.41	423.64
596.57	388.53
596.73	365.12
596.88	587.47
597.04	1378.58
597.20	2551.18
597.36	2949.08
597.51	2165.00
597.67	1469.86
597.83	1071.97
597.99	699.82
598.14	510.24
598.30	411.93
598.46	425.98
598.61	430.66
598.77	365.12
598.93	407.25
599.09	376.83
599.24	332.36
599.40	320.65
599.56	369.80
599.71	318.31
599.87	393.21
600.03	390.87
600.18	297.25
600.34	351.08
600.50	360.44
600.65	297.25
600.81	327.68
600.97	287.89
601.12	290.23
601.28	301.93
601.44	374.49
601.59	332.36
601.75	322.99
601.91	292.57
602.06	276.18
602.22	397.89
602.37	767.70
602.53	1624.33
602.69	2677.57
602.84	2920.99
603.00	2134.57
603.16	1596.25
603.31	1039.20
603.47	805.14
603.62	416.62
603.78	252.78
603.94	425.98
604.09	294.91
604.25	311.29
604.40	346.40
604.56	360.44
604.71	290.23
604.87	290.23
605.03	327.68
605.18	313.63
605.34	407.25
605.49	344.06
605.65	358.10
605.80	341.72
605.96	362.78
606.12	381.51
606.27	425.98
606.43	468.11
606.58	505.56
606.74	882.38
606.89	3365.69
607.05	6958.41
607.20	9844.29
607.36	8189.53
607.51	5542.39
607.67	3651.24
607.82	2410.75
607.98	1371.55
608.13	770.04
608.29	615.56
608.44	491.51
608.60	543.00
608.75	613.22
608.91	1224.10
609.06	5224.08
609.22	12175.47
609.37	17137.40
609.53	15314.13
609.68	10256.23
609.84	6562.86
609.99	4660.01
610.15	2569.91
610.30	1355.17
610.46	940.90
610.61	1048.56
610.76	1146.86
610.92	1191.33
611.07	1142.18
611.23	1310.70
611.38	1242.82
611.54	1093.03
611.69	919.83
611.84	816.85
612.00	758.33
612.15	681.10
612.31	767.70
612.46	873.02
612.62	945.58
612.77	992.39
612.92	866.00
613.08	849.61
613.23	772.38
613.39	763.01
613.54	1104.73
613.69	4709.16
613.85	14420.04
614.00	24851.81
614.15	27070.64
614.31	19185.37
614.46	12526.55
614.62	8629.56
614.77	5076.62
614.92	2445.86
615.08	1252.19
615.23	786.42
615.38	655.35
615.54	580.45
615.69	987.71
615.84	2928.01
616.00	5369.19
616.15	7045.01
616.30	5841.98
616.46	4114.66
616.61	2782.90
616.76	1867.75
616.92	1158.57
617.07	662.37
617.22	472.79
617.37	430.66
617.53	409.59
617.68	369.80
617.83	348.74
617.99	379.17
618.14	498.53
618.29	337.04
618.45	365.12
618.60	372.15
618.75	271.50
618.90	337.04
619.06	393.21
619.21	369.80
619.36	383.85
619.51	294.91
619.67	322.99
619.82	299.59
619.97	301.93
620.12	292.57
620.28	334.70
620.43	292.57
620.58	381.51
620.73	327.68
620.89	381.51
621.04	493.85
621.19	1614.97
621.34	3173.77
621.49	4231.69
621.65	3712.09
621.80	2661.19
621.95	1827.96
622.10	1303.68
622.25	826.21
622.41	552.37
622.56	414.27
622.71	386.19
622.86	266.82
623.01	304.27
623.16	402.57
623.32	311.29
623.47	283.20
623.62	280.86
623.77	348.74
623.92	379.17
624.07	266.82
624.23	332.36
624.38	322.99
624.53	339.38
624.68	482.15
624.83	351.08
624.98	304.27
625.13	386.19
625.29	297.25
625.44	400.23
625.59	411.93
625.74	400.23
625.89	624.92
626.04	2253.94
626.19	7183.10
626.34	12222.28
626.49	14036.19
626.65	10307.72
626.80	6967.77
626.95	4622.56
627.10	2892.90
627.25	1544.75
627.40	753.65
627.55	566.41
627.70	498.53
627.85	365.12
628.00	278.52
628.15	229.37
628.30	330.02
628.45	320.65
628.60	355.76
628.76	322.99
628.91	283.20
629.06	416.62
629.21	367.46
629.36	351.08
629.51	339.38
629.66	332.36
629.81	547.69
629.96	1306.02
630.11	2630.76
630.26	3630.17
630.41	3234.62
630.56	2392.03
630.71	1586.88
630.86	1268.57
631.01	807.48
631.16	540.66
631.31	514.92
631.46	447.04
631.61	393.21
631.76	397.89
631.91	315.97
632.06	290.23
632.21	369.80
632.36	386.19
632.51	423.64
632.66	528.96
632.81	1109.41
632.96	3833.80
633.10	7468.65
633.25	9500.23
633.40	7763.56
633.55	5392.59
633.70	3653.58
633.85	2499.69
634.00	1373.89
634.15	690.46
634.30	477.47
634.45	334.70
634.60	308.95
634.75	285.55
634.90	299.59
635.05	334.70
635.19	299.59
635.34	304.27
635.49	355.76
635.64	259.80
635.79	308.95
635.94	374.49
636.09	400.23
636.24	269.16
636.39	278.52
636.53	330.02
636.68	304.27
636.83	325.33
636.98	322.99
637.13	351.08
637.28	414.27
637.43	507.90
637.57	767.70
637.72	3197.17
637.87	9214.69
638.02	15674.57
638.17	17839.56
638.32	13170.19
638.46	8912.76
638.61	6157.95
638.76	3751.88
638.91	1905.20
639.06	1034.52
639.20	688.12
639.35	711.52
639.50	887.06
639.65	4524.26
639.80	14303.01
639.94	23711.97
640.09	27419.38
640.24	20554.58
640.39	13448.72
640.54	9095.32
640.68	5497.92
640.83	2761.83
640.98	1282.61
641.13	774.72
641.27	526.62
641.42	381.51
641.57	376.83
641.72	376.83
641.86	311.29
642.01	369.80
642.16	339.38
642.31	297.25
642.45	367.46
642.60	341.72
642.75	327.68
642.90	297.25
643.04	337.04
643.19	271.50
643.34	264.48
643.48	287.89
643.63	245.76
643.78	306.61
643.93	248.10
644.07	269.16
644.22	355.76
644.37	212.99
644.51	320.65
644.66	306.61
644.81	203.63
644.95	250.44
645.10	278.52
645.25	259.80
645.39	227.03
645.54	227.03
645.69	285.55
645.83	278.52
645.98	351.08
646.13	273.84
646.27	220.01
646.42	311.29
646.57	264.48
646.71	236.39
646.86	322.99
647.00	203.63
647.15	215.33
647.30	234.05
647.44	227.03
647.59	212.99
647.74	278.52
647.88	238.73
648.03	212.99
648.17	250.44
648.32	220.01
648.47	320.65
648.61	287.89
648.76	252.78
648.90	308.95
649.05	236.39
649.20	285.55
649.34	264.48
649.49	276.18
649.63	362.78
649.78	383.85
649.92	461.09
650.07	1827.96
650.21	6104.12
650.36	11185.42
650.51	13968.32
650.65	11690.98
650.80	8126.34
650.94	5408.98
651.09	3337.60
651.23	1809.23
651.38	966.64
651.52	585.13
651.67	402.57
651.81	339.38
651.96	318.31
652.10	297.25
652.25	264.48
652.39	355.76
652.54	318.31
652.68	599.18
652.83	1905.20
652.97	3838.48
653.12	4894.06
653.26	4538.30
653.41	3241.64
653.55	2263.30
653.70	1458.15
653.84	884.72
653.99	489.17
654.13	395.55
654.27	355.76
654.42	266.82
654.56	250.44
654.71	217.67
654.85	243.42
655.00	297.25
655.14	250.44
655.29	231.71
655.43	161.50
655.57	215.33
655.72	180.22
655.86	259.80
656.01	269.16
656.15	196.60
656.30	320.65
656.44	224.69
656.58	175.54
656.73	236.39
656.87	201.29
657.01	222.35
657.16	320.65
657.30	201.29
657.45	252.78
657.59	217.67
657.73	227.03
657.88	187.24
658.02	383.85
658.16	243.42
658.31	205.97
658.45	269.16
658.60	271.50
658.74	271.50
658.88	182.56
659.03	238.73
659.17	320.65
659.31	915.15
659.46	2832.05
659.60	5203.01
659.74	6925.65
659.89	6193.06
660.03	4716.18
660.17	3096.53
660.32	1935.62
660.46	1214.74
660.60	643.65
660.74	435.34
660.89	332.36
661.03	236.39
661.17	278.52
661.32	217.67
661.46	243.42
661.60	238.73
661.74	327.68
661.89	301.93
662.03	250.44
662.17	271.50
662.31	257.46
662.46	210.65
662.60	276.18
662.74	210.65
662.88	201.29
663.03	229.37
663.17	177.88
663.31	304.27
663.45	248.10
663.60	308.95
663.74	194.26
663.88	241.08
664.02	287.89
664.17	238.73
664.31	187.24
664.45	276.18
664.59	243.42
664.73	262.14
664.88	276.18
665.02	234.05
665.16	280.86
665.30	212.99
665.44	287.89
665.59	238.73
665.73	292.57
665.87	248.10
666.01	236.39
666.15	248.10
666.29	208.31
666.44	234.05
666.58	189.58
666.72	276.18
666.86	339.38
667.00	330.02
667.14	505.56
667.28	1650.08
667.43	5191.31
667.57	9261.50
667.71	12397.82
667.85	10420.06
667.99	7644.19
668.13	4952.57
668.27	2986.52
668.41	1603.27
668.56	854.30
668.70	608.54
668.84	451.72
668.98	393.21
669.12	304.27
669.26	259.80
669.40	344.06
669.54	278.52
669.68	339.38
669.82	315.97
669.96	198.95
670.10	250.44
670.25	304.27
670.39	217.67
670.53	229.37
670.67	294.91
670.81	215.33
670.95	266.82
671.09	540.66
671.23	1898.17
671.37	4409.57
671.51	6869.47
671.65	7590.36
671.79	5963.68
671.93	4201.26
672.07	2450.54
672.21	1493.26
672.35	788.76
672.49	545.34
672.63	390.87
672.77	337.04
672.91	222.35
673.05	313.63
673.19	217.67
673.33	175.54
673.47	294.91
673.61	280.86
673.75	182.56
673.89	222.35
674.03	210.65
674.17	238.73
674.31	198.95
674.45	262.14
674.59	212.99
674.73	154.48
674.87	299.59
675.01	264.48
675.15	264.48
675.29	276.18
675.43	217.67
675.56	280.86
675.70	217.67
675.84	248.10
675.98	241.08
676.12	138.09
676.26	184.90
676.40	168.52
676.54	215.33
676.68	231.71
676.82	220.01
676.96	245.76
677.10	201.29
677.23	110.01
677.37	234.05
677.51	159.16
677.65	280.86
677.79	170.86
677.93	114.69
678.07	208.31
678.21	245.76
678.34	187.24
678.48	142.77
678.62	208.31
678.76	156.82
678.90	215.33
679.04	198.95
679.18	119.37
679.31	168.52
679.45	138.09
679.59	142.77
679.73	269.16
679.87	177.88
680.00	184.90
680.14	161.50
680.28	212.99
680.42	182.56
680.56	184.90
680.70	266.82
680.83	210.65
680.97	208.31
681.11	217.67
681.25	152.13
681.39	255.12
681.52	194.26
681.66	198.95
681.80	159.16
681.94	177.88
682.07	168.52
682.21	112.35
682.35	227.03
682.49	210.65
682.62	215.33
682.76	163.84
682.90	152.13
683.04	215.33
683.17	238.73
683.31	168.52
683.45	215.33
683.59	184.90
683.72	220.01
683.86	159.16
684.00	133.41
684.13	161.50
684.27	212.99
684.41	114.69
684.55	222.35
684.68	128.73
684.82	142.77
684.96	236.39
685.09	264.48
685.23	121.71
685.37	177.88
685.50	175.54
685.64	208.31
685.78	156.82
685.91	212.99
686.05	245.76
686.19	168.52
686.32	187.24
686.46	198.95
686.60	163.84
686.73	217.67
686.87	191.92
687.01	252.78
687.14	236.39
687.28	215.33
687.42	252.78
687.55	191.92
687.69	201.29
687.82	203.63
687.96	191.92
688.10	231.71
688.23	105.32
688.37	250.44
688.50	191.92
688.64	177.88
688.78	156.82
688.91	189.58
689.05	168.52
689.18	114.69
689.32	220.01
689.46	220.01
689.59	229.37
689.73	264.48
689.86	212.99
690.00	177.88
690.13	205.97
690.27	175.54
690.41	138.09
690.54	203.63
690.68	229.37
690.81	201.29
690.95	145.11
691.08	224.69
691.22	191.92
691.35	238.73
691.49	215.33
691.62	227.03
691.76	217.67
691.89	184.90
692.03	198.95
692.16	266.82
692.30	292.57
692.43	688.12
692.57	2087.76
692.70	3904.01
692.84	5226.42
692.97	4697.46
693.11	3489.74
693.24	2609.70
693.38	1795.19
693.51	1266.23
693.65	910.47
693.78	573.43
693.92	496.19
694.05	339.38
694.19	262.14
694.32	259.80
694.45	205.97
694.59	154.48
694.72	184.90
694.86	131.07
694.99	238.73
695.13	138.09
695.26	205.97
695.39	173.20
695.53	255.12
695.66	191.92
695.80	231.71
695.93	166.18
696.07	212.99
696.20	301.93
696.33	393.21
696.47	489.17
696.60	491.51
696.73	280.86
696.87	299.59
697.00	325.33
697.14	306.61
697.27	259.80
697.40	252.78
697.54	212.99
697.67	131.07
697.80	187.24
697.94	184.90
698.07	210.65
698.21	215.33
698.34	273.84
698.47	166.18
698.61	280.86
698.74	210.65
698.87	149.79
699.01	198.95
699.14	180.22
699.27	145.11
699.40	273.84
699.54	145.11
699.67	142.77
699.80	201.29
699.94	147.45
700.07	119.37
700.20	194.26
700.34	273.84
700.47	110.01
700.60	196.60
700.73	154.48
700.87	140.43
701.00	189.58
701.13	166.18
701.26	121.71
701.40	243.42
701.53	222.35
701.66	252.78
701.79	243.42
701.93	222.35
702.06	308.95
702.19	325.33
702.32	472.79
702.46	463.43
702.59	617.90
702.72	835.57
702.85	2820.35
702.99	6101.78
703.12	9071.92
703.25	10200.05
703.38	8966.59
703.51	7101.19
703.65	5465.15
703.78	3906.35
703.91	2485.65
704.04	1715.61
704.17	1097.71
704.31	643.65
704.44	484.49
704.57	337.04
704.70	334.70
704.83	243.42
704.96	276.18
705.10	264.48
705.23	245.76
>>>>>End Processed Spectral Data<<<<<
