SpectraSuite Data File
++++++++++++++++++++++++++++++++++++
Date: Fri Oct 04 11:34:09 GMT-05:00 2013
User: price-jones
Dark Spectrum Present: No
Reference Spectrum Present: No
Number of Sampled Component Spectra: 1
Spectrometers: USB2+H05261
Integration Time (usec): 100000 (USB2+H05261)
Spectra Averaged: 1 (USB2+H05261)
Boxcar Smoothing: 0 (USB2+H05261)
Correct for Electrical Dark: No (USB2+H05261)
Strobe/Lamp Enabled: No (USB2+H05261)
Correct for Detector Non-linearity: No (USB2+H05261)
Correct for Stray Light: No (USB2+H05261)
Number of Pixels in Processed Spectrum: 2048
>>>>>Begin Processed Spectral Data<<<<<
365.73	44.47
365.92	44.47
366.12	44.47
366.32	42.13
366.52	0.00
366.72	14.04
366.91	2.34
367.11	0.00
367.31	2.34
367.51	0.00
367.70	0.00
367.90	0.00
368.10	0.00
368.30	0.00
368.49	0.00
368.69	0.00
368.89	0.00
369.09	0.00
369.28	4.68
369.48	28.09
369.68	0.00
369.87	16.38
370.07	2.34
370.27	39.79
370.47	93.62
370.66	37.45
370.86	81.92
371.06	133.41
371.25	140.43
371.45	53.83
371.65	142.77
371.84	72.56
372.04	135.75
372.24	102.98
372.44	126.39
372.63	51.49
372.83	77.24
373.03	110.01
373.22	121.71
373.42	119.37
373.62	170.86
373.81	154.48
374.01	140.43
374.21	227.03
374.40	142.77
374.60	196.60
374.79	161.50
374.99	189.58
375.19	163.84
375.38	212.99
375.58	65.54
375.78	168.52
375.97	184.90
376.17	154.48
376.37	149.79
376.56	117.03
376.76	112.35
376.95	114.69
377.15	100.64
377.35	117.03
377.54	154.48
377.74	70.22
377.93	100.64
378.13	107.66
378.33	154.48
378.52	175.54
378.72	196.60
378.91	177.88
379.11	154.48
379.31	154.48
379.50	156.82
379.70	152.13
379.89	208.31
380.09	140.43
380.28	131.07
380.48	100.64
380.68	110.01
380.87	131.07
381.07	156.82
381.26	170.86
381.46	126.39
381.65	212.99
381.85	161.50
382.04	142.77
382.24	100.64
382.43	112.35
382.63	126.39
382.83	102.98
383.02	149.79
383.22	198.95
383.41	114.69
383.61	182.56
383.80	212.99
384.00	159.16
384.19	35.11
384.39	135.75
384.58	182.56
384.78	119.37
384.97	105.32
385.17	128.73
385.36	114.69
385.56	156.82
385.75	121.71
385.95	102.98
386.14	117.03
386.34	159.16
386.53	168.52
386.72	194.26
386.92	191.92
387.11	114.69
387.31	198.95
387.50	156.82
387.70	98.30
387.89	124.05
388.09	149.79
388.28	117.03
388.48	128.73
388.67	124.05
388.86	124.05
389.06	177.88
389.25	173.20
389.45	133.41
389.64	196.60
389.84	149.79
390.03	156.82
390.22	126.39
390.42	107.66
390.61	119.37
390.81	175.54
391.00	205.97
391.19	210.65
391.39	147.45
391.58	227.03
391.78	53.83
391.97	128.73
392.16	128.73
392.36	208.31
392.55	156.82
392.75	168.52
392.94	126.39
393.13	100.64
393.33	128.73
393.52	65.54
393.71	152.13
393.91	110.01
394.10	184.90
394.29	133.41
394.49	222.35
394.68	217.67
394.88	215.33
395.07	168.52
395.26	166.18
395.46	168.52
395.65	112.35
395.84	135.75
396.04	189.58
396.23	105.32
396.42	187.24
396.62	107.66
396.81	163.84
397.00	145.11
397.19	210.65
397.39	159.16
397.58	196.60
397.77	166.18
397.97	194.26
398.16	112.35
398.35	152.13
398.55	149.79
398.74	170.86
398.93	133.41
399.12	166.18
399.32	112.35
399.51	91.28
399.70	163.84
399.90	126.39
400.09	231.71
400.28	131.07
400.47	131.07
400.67	175.54
400.86	170.86
401.05	117.03
401.24	163.84
401.44	184.90
401.63	156.82
401.82	152.13
402.01	65.54
402.21	182.56
402.40	131.07
402.59	180.22
402.78	138.09
402.97	98.30
403.17	173.20
403.36	142.77
403.55	180.22
403.74	161.50
403.93	168.52
404.13	301.93
404.32	241.08
404.51	290.23
404.70	196.60
404.89	131.07
405.09	217.67
405.28	112.35
405.47	98.30
405.66	229.37
405.85	177.88
406.05	133.41
406.24	117.03
406.43	154.48
406.62	175.54
406.81	212.99
407.00	198.95
407.20	156.82
407.39	170.86
407.58	154.48
407.77	259.80
407.96	161.50
408.15	201.29
408.34	128.73
408.54	168.52
408.73	187.24
408.92	161.50
409.11	184.90
409.30	182.56
409.49	170.86
409.68	140.43
409.87	131.07
410.07	177.88
410.26	187.24
410.45	119.37
410.64	121.71
410.83	168.52
411.02	215.33
411.21	133.41
411.40	72.56
411.59	168.52
411.78	119.37
411.98	191.92
412.17	135.75
412.36	102.98
412.55	170.86
412.74	241.08
412.93	208.31
413.12	95.96
413.31	182.56
413.50	145.11
413.69	152.13
413.88	196.60
414.07	177.88
414.26	114.69
414.45	159.16
414.64	168.52
414.83	170.86
415.02	159.16
415.22	166.18
415.41	215.33
415.60	133.41
415.79	191.92
415.98	191.92
416.17	182.56
416.36	234.05
416.55	187.24
416.74	117.03
416.93	135.75
417.12	173.20
417.31	182.56
417.50	250.44
417.69	306.61
417.88	257.46
418.07	194.26
418.26	194.26
418.45	245.76
418.64	191.92
418.83	212.99
419.02	241.08
419.21	257.46
419.39	222.35
419.58	184.90
419.77	224.69
419.96	252.78
420.15	191.92
420.34	231.71
420.53	173.20
420.72	177.88
420.91	243.42
421.10	198.95
421.29	245.76
421.48	175.54
421.67	198.95
421.86	191.92
422.05	142.77
422.24	227.03
422.43	229.37
422.61	180.22
422.80	187.24
422.99	168.52
423.18	175.54
423.37	175.54
423.56	156.82
423.75	154.48
423.94	220.01
424.13	166.18
424.32	159.16
424.50	177.88
424.69	203.63
424.88	131.07
425.07	131.07
425.26	255.12
425.45	320.65
425.64	215.33
425.83	187.24
426.01	205.97
426.20	159.16
426.39	161.50
426.58	187.24
426.77	166.18
426.96	210.65
427.15	180.22
427.33	138.09
427.52	208.31
427.71	147.45
427.90	170.86
428.09	243.42
428.28	163.84
428.46	152.13
428.65	196.60
428.84	184.90
429.03	224.69
429.22	112.35
429.40	140.43
429.59	191.92
429.78	175.54
429.97	131.07
430.16	133.41
430.34	250.44
430.53	191.92
430.72	117.03
430.91	163.84
431.10	135.75
431.28	166.18
431.47	208.31
431.66	210.65
431.85	196.60
432.03	138.09
432.22	229.37
432.41	234.05
432.60	257.46
432.79	145.11
432.97	337.04
433.16	365.12
433.35	173.20
433.54	227.03
433.72	241.08
433.91	205.97
434.10	224.69
434.28	236.39
434.47	255.12
434.66	138.09
434.85	163.84
435.03	222.35
435.22	367.46
435.41	435.34
435.59	545.34
435.78	369.80
435.97	313.63
436.16	236.39
436.34	196.60
436.53	227.03
436.72	248.10
436.90	189.58
437.09	208.31
437.28	149.79
437.46	175.54
437.65	128.73
437.84	131.07
438.02	173.20
438.21	220.01
438.40	156.82
438.58	201.29
438.77	180.22
438.96	212.99
439.14	86.60
439.33	180.22
439.52	217.67
439.70	194.26
439.89	210.65
440.08	203.63
440.26	191.92
440.45	149.79
440.63	194.26
440.82	173.20
441.01	210.65
441.19	198.95
441.38	189.58
441.57	163.84
441.75	234.05
441.94	142.77
442.12	156.82
442.31	114.69
442.50	203.63
442.68	177.88
442.87	198.95
443.05	163.84
443.24	194.26
443.43	156.82
443.61	205.97
443.80	159.16
443.98	161.50
444.17	124.05
444.35	248.10
444.54	203.63
444.73	173.20
444.91	194.26
445.10	198.95
445.28	170.86
445.47	72.56
445.65	177.88
445.84	152.13
446.02	262.14
446.21	168.52
446.39	208.31
446.58	250.44
446.77	168.52
446.95	154.48
447.14	177.88
447.32	168.52
447.51	245.76
447.69	163.84
447.88	224.69
448.06	285.55
448.25	215.33
448.43	168.52
448.62	184.90
448.80	124.05
448.99	208.31
449.17	191.92
449.36	236.39
449.54	220.01
449.73	168.52
449.91	220.01
450.10	168.52
450.28	252.78
450.46	203.63
450.65	191.92
450.83	168.52
451.02	152.13
451.20	187.24
451.39	196.60
451.57	168.52
451.76	138.09
451.94	290.23
452.13	220.01
452.31	236.39
452.49	201.29
452.68	145.11
452.86	177.88
453.05	290.23
453.23	191.92
453.42	145.11
453.60	177.88
453.78	248.10
453.97	187.24
454.15	168.52
454.34	173.20
454.52	259.80
454.70	273.84
454.89	161.50
455.07	231.71
455.26	170.86
455.44	170.86
455.62	170.86
455.81	163.84
455.99	140.43
456.17	161.50
456.36	180.22
456.54	149.79
456.73	220.01
456.91	220.01
457.09	227.03
457.28	201.29
457.46	156.82
457.64	177.88
457.83	187.24
458.01	227.03
458.19	142.77
458.38	224.69
458.56	222.35
458.74	198.95
458.93	245.76
459.11	238.73
459.29	252.78
459.48	187.24
459.66	210.65
459.84	231.71
460.03	250.44
460.21	236.39
460.39	173.20
460.57	175.54
460.76	189.58
460.94	262.14
461.12	231.71
461.31	205.97
461.49	138.09
461.67	198.95
461.85	170.86
462.04	234.05
462.22	376.83
462.40	248.10
462.59	250.44
462.77	231.71
462.95	205.97
463.13	133.41
463.32	168.52
463.50	180.22
463.68	196.60
463.86	194.26
464.05	182.56
464.23	217.67
464.41	220.01
464.59	217.67
464.78	177.88
464.96	170.86
465.14	217.67
465.32	187.24
465.50	229.37
465.69	182.56
465.87	248.10
466.05	292.57
466.23	133.41
466.41	177.88
466.60	175.54
466.78	259.80
466.96	166.18
467.14	145.11
467.32	250.44
467.51	257.46
467.69	217.67
467.87	208.31
468.05	152.13
468.23	205.97
468.41	205.97
468.60	257.46
468.78	234.05
468.96	205.97
469.14	234.05
469.32	205.97
469.50	163.84
469.69	124.05
469.87	215.33
470.05	196.60
470.23	208.31
470.41	205.97
470.59	182.56
470.77	173.20
470.95	191.92
471.14	227.03
471.32	177.88
471.50	231.71
471.68	184.90
471.86	217.67
472.04	220.01
472.22	212.99
472.40	152.13
472.58	220.01
472.77	203.63
472.95	238.73
473.13	227.03
473.31	236.39
473.49	208.31
473.67	173.20
473.85	203.63
474.03	191.92
474.21	241.08
474.39	224.69
474.57	245.76
474.75	248.10
474.93	159.16
475.12	154.48
475.30	203.63
475.48	266.82
475.66	248.10
475.84	180.22
476.02	236.39
476.20	276.18
476.38	255.12
476.56	283.20
476.74	201.29
476.92	145.11
477.10	175.54
477.28	198.95
477.46	170.86
477.64	238.73
477.82	173.20
478.00	177.88
478.18	269.16
478.36	245.76
478.54	217.67
478.72	191.92
478.90	201.29
479.08	238.73
479.26	266.82
479.44	212.99
479.62	227.03
479.80	259.80
479.98	243.42
480.16	159.16
480.34	250.44
480.52	173.20
480.70	189.58
480.88	212.99
481.06	243.42
481.24	173.20
481.41	180.22
481.59	210.65
481.77	238.73
481.95	276.18
482.13	262.14
482.31	255.12
482.49	173.20
482.67	287.89
482.85	212.99
483.03	205.97
483.21	264.48
483.39	243.42
483.57	198.95
483.74	264.48
483.92	262.14
484.10	250.44
484.28	243.42
484.46	327.68
484.64	236.39
484.82	245.76
485.00	334.70
485.18	273.84
485.35	308.95
485.53	243.42
485.71	311.29
485.89	273.84
486.07	187.24
486.25	271.50
486.43	283.20
486.61	308.95
486.78	301.93
486.96	205.97
487.14	175.54
487.32	266.82
487.50	243.42
487.68	278.52
487.85	285.55
488.03	332.36
488.21	348.74
488.39	252.78
488.57	227.03
488.75	198.95
488.92	496.19
489.10	297.25
489.28	231.71
489.46	280.86
489.64	283.20
489.81	215.33
489.99	266.82
490.17	252.78
490.35	346.40
490.53	231.71
490.70	196.60
490.88	252.78
491.06	243.42
491.24	252.78
491.41	301.93
491.59	191.92
491.77	290.23
491.95	311.29
492.13	301.93
492.30	203.63
492.48	248.10
492.66	304.27
492.84	135.75
493.01	341.72
493.19	227.03
493.37	337.04
493.54	339.38
493.72	243.42
493.90	271.50
494.08	229.37
494.25	264.48
494.43	308.95
494.61	257.46
494.79	208.31
494.96	212.99
495.14	280.86
495.32	266.82
495.49	208.31
495.67	245.76
495.85	257.46
496.02	278.52
496.20	194.26
496.38	299.59
496.55	325.33
496.73	308.95
496.91	236.39
497.09	292.57
497.26	210.65
497.44	285.55
497.62	327.68
497.79	255.12
497.97	308.95
498.14	248.10
498.32	264.48
498.50	297.25
498.67	243.42
498.85	255.12
499.03	248.10
499.20	236.39
499.38	285.55
499.56	271.50
499.73	250.44
499.91	271.50
500.08	210.65
500.26	140.43
500.44	227.03
500.61	236.39
500.79	227.03
500.97	271.50
501.14	259.80
501.32	287.89
501.49	220.01
501.67	229.37
501.84	215.33
502.02	224.69
502.20	255.12
502.37	255.12
502.55	308.95
502.72	262.14
502.90	264.48
503.07	227.03
503.25	327.68
503.43	278.52
503.60	299.59
503.78	250.44
503.95	332.36
504.13	241.08
504.30	266.82
504.48	308.95
504.65	191.92
504.83	287.89
505.01	252.78
505.18	248.10
505.36	250.44
505.53	231.71
505.71	187.24
505.88	273.84
506.06	224.69
506.23	259.80
506.41	311.29
506.58	297.25
506.76	180.22
506.93	243.42
507.11	236.39
507.28	285.55
507.46	182.56
507.63	245.76
507.81	304.27
507.98	280.86
508.16	243.42
508.33	208.31
508.50	252.78
508.68	280.86
508.85	262.14
509.03	170.86
509.20	201.29
509.38	231.71
509.55	304.27
509.73	304.27
509.90	320.65
510.08	266.82
510.25	224.69
510.42	220.01
510.60	234.05
510.77	304.27
510.95	210.65
511.12	355.76
511.30	327.68
511.47	287.89
511.64	346.40
511.82	292.57
511.99	238.73
512.17	269.16
512.34	257.46
512.51	229.37
512.69	241.08
512.86	266.82
513.04	339.38
513.21	250.44
513.38	299.59
513.56	245.76
513.73	238.73
513.90	301.93
514.08	278.52
514.25	327.68
514.43	245.76
514.60	152.13
514.77	224.69
514.95	344.06
515.12	271.50
515.29	227.03
515.47	210.65
515.64	285.55
515.81	243.42
515.99	325.33
516.16	252.78
516.33	212.99
516.51	215.33
516.68	266.82
516.85	266.82
517.03	229.37
517.20	252.78
517.37	318.31
517.54	276.18
517.72	262.14
517.89	238.73
518.06	205.97
518.24	234.05
518.41	320.65
518.58	262.14
518.75	245.76
518.93	280.86
519.10	273.84
519.27	196.60
519.45	234.05
519.62	344.06
519.79	292.57
519.96	208.31
520.14	262.14
520.31	248.10
520.48	322.99
520.65	362.78
520.83	250.44
521.00	299.59
521.17	306.61
521.34	301.93
521.52	271.50
521.69	266.82
521.86	280.86
522.03	386.19
522.20	292.57
522.38	205.97
522.55	236.39
522.72	220.01
522.89	311.29
523.07	241.08
523.24	255.12
523.41	276.18
523.58	301.93
523.75	217.67
523.92	266.82
524.10	248.10
524.27	346.40
524.44	308.95
524.61	224.69
524.78	257.46
524.96	273.84
525.13	306.61
525.30	332.36
525.47	273.84
525.64	292.57
525.81	208.31
525.98	353.42
526.16	257.46
526.33	257.46
526.50	198.95
526.67	255.12
526.84	224.69
527.01	287.89
527.18	299.59
527.36	381.51
527.53	299.59
527.70	322.99
527.87	294.91
528.04	297.25
528.21	297.25
528.38	315.97
528.55	208.31
528.72	334.70
528.89	278.52
529.07	283.20
529.24	341.72
529.41	325.33
529.58	215.33
529.75	280.86
529.92	325.33
530.09	243.42
530.26	393.21
530.43	315.97
530.60	325.33
530.77	269.16
530.94	325.33
531.11	369.80
531.28	241.08
531.46	301.93
531.63	376.83
531.80	245.76
531.97	273.84
532.14	337.04
532.31	348.74
532.48	409.59
532.65	395.55
532.82	482.15
532.99	390.87
533.16	348.74
533.33	341.72
533.50	337.04
533.67	407.25
533.84	524.28
534.01	547.69
534.18	386.19
534.35	428.32
534.52	341.72
534.69	367.46
534.86	374.49
535.03	320.65
535.20	322.99
535.37	266.82
535.54	308.95
535.71	299.59
535.88	365.12
536.05	341.72
536.22	339.38
536.38	283.20
536.55	283.20
536.72	313.63
536.89	269.16
537.06	304.27
537.23	346.40
537.40	304.27
537.57	386.19
537.74	294.91
537.91	411.93
538.08	290.23
538.25	358.10
538.42	355.76
538.59	365.12
538.75	327.68
538.92	355.76
539.09	332.36
539.26	362.78
539.43	587.47
539.60	1186.65
539.77	1692.21
539.94	1671.14
540.11	1196.01
540.28	901.11
540.44	627.26
540.61	477.47
540.78	535.98
540.95	524.28
541.12	608.54
541.29	564.07
541.46	671.73
541.62	667.05
541.79	610.88
541.96	648.33
542.13	608.54
542.30	535.98
542.47	608.54
542.63	510.24
542.80	510.24
542.97	582.79
543.14	528.96
543.31	573.43
543.48	587.47
543.64	575.77
543.81	580.45
543.98	505.56
544.15	547.69
544.32	496.19
544.48	528.96
544.65	566.41
544.82	538.32
544.99	507.90
545.16	514.92
545.32	503.22
545.49	807.48
545.66	971.32
545.83	1088.35
546.00	1036.86
546.16	725.57
546.33	643.65
546.50	528.96
546.67	512.58
546.83	456.40
547.00	503.22
547.17	390.87
547.34	421.30
547.50	458.74
547.67	374.49
547.84	425.98
548.00	425.98
548.17	411.93
548.34	402.57
548.51	519.60
548.67	433.00
548.84	400.23
549.01	409.59
549.18	479.81
549.34	355.76
549.51	353.42
549.68	311.29
549.84	402.57
550.01	304.27
550.18	503.22
550.34	407.25
550.51	355.76
550.68	341.72
550.84	346.40
551.01	322.99
551.18	304.27
551.34	346.40
551.51	344.06
551.68	306.61
551.84	306.61
552.01	341.72
552.18	301.93
552.34	355.76
552.51	348.74
552.68	381.51
552.84	259.80
553.01	318.31
553.18	304.27
553.34	365.12
553.51	346.40
553.67	306.61
553.84	304.27
554.01	283.20
554.17	344.06
554.34	227.03
554.51	266.82
554.67	301.93
554.84	383.85
555.00	311.29
555.17	262.14
555.33	266.82
555.50	290.23
555.67	344.06
555.83	306.61
556.00	297.25
556.16	444.70
556.33	372.15
556.50	283.20
556.66	353.42
556.83	229.37
556.99	238.73
557.16	320.65
557.32	287.89
557.49	241.08
557.65	287.89
557.82	280.86
557.98	308.95
558.15	325.33
558.32	205.97
558.48	259.80
558.65	278.52
558.81	292.57
558.98	264.48
559.14	243.42
559.31	290.23
559.47	294.91
559.64	306.61
559.80	332.36
559.97	266.82
560.13	374.49
560.30	259.80
560.46	191.92
560.63	337.04
560.79	327.68
560.96	292.57
561.12	318.31
561.29	320.65
561.45	337.04
561.61	257.46
561.78	409.59
561.94	348.74
562.11	266.82
562.27	283.20
562.44	224.69
562.60	311.29
562.77	348.74
562.93	355.76
563.10	287.89
563.26	330.02
563.42	259.80
563.59	337.04
563.75	311.29
563.92	306.61
564.08	358.10
564.24	290.23
564.41	362.78
564.57	264.48
564.74	255.12
564.90	306.61
565.07	332.36
565.23	315.97
565.39	313.63
565.56	330.02
565.72	264.48
565.88	222.35
566.05	285.55
566.21	280.86
566.38	299.59
566.54	287.89
566.70	203.63
566.87	287.89
567.03	269.16
567.19	161.50
567.36	308.95
567.52	269.16
567.68	327.68
567.85	241.08
568.01	241.08
568.17	325.33
568.34	262.14
568.50	325.33
568.66	322.99
568.83	355.76
568.99	262.14
569.15	308.95
569.32	238.73
569.48	283.20
569.64	243.42
569.81	278.52
569.97	299.59
570.13	285.55
570.30	227.03
570.46	231.71
570.62	248.10
570.78	294.91
570.95	205.97
571.11	304.27
571.27	315.97
571.43	238.73
571.60	264.48
571.76	196.60
571.92	257.46
572.09	297.25
572.25	337.04
572.41	325.33
572.57	252.78
572.74	306.61
572.90	245.76
573.06	332.36
573.22	334.70
573.38	287.89
573.55	376.83
573.71	304.27
573.87	330.02
574.03	231.71
574.20	248.10
574.36	351.08
574.52	315.97
574.68	337.04
574.84	353.42
575.01	236.39
575.17	304.27
575.33	280.86
575.49	346.40
575.65	320.65
575.82	397.89
575.98	559.39
576.14	699.82
576.30	774.72
576.46	657.69
576.62	613.22
576.79	589.82
576.95	477.47
577.11	330.02
577.27	315.97
577.43	332.36
577.59	334.70
577.75	337.04
577.92	322.99
578.08	348.74
578.24	346.40
578.40	383.85
578.56	381.51
578.72	498.53
578.88	514.92
579.04	493.85
579.21	468.11
579.37	400.23
579.53	344.06
579.69	374.49
579.85	397.89
580.01	416.62
580.17	440.02
580.33	519.60
580.49	414.27
580.65	402.57
580.82	428.32
580.98	407.25
581.14	386.19
581.30	437.68
581.46	552.37
581.62	669.39
581.78	772.38
581.94	669.39
582.10	578.11
582.26	620.24
582.42	587.47
582.58	524.28
582.74	493.85
582.90	540.66
583.06	568.75
583.22	526.62
583.38	484.49
583.54	610.88
583.70	713.86
583.86	760.67
584.02	959.62
584.18	1006.43
584.34	1392.62
584.50	3335.26
584.66	25263.74
584.82	57839.32
584.98	65535.00
585.14	63561.93
585.30	49624.04
585.46	31087.00
585.62	18881.10
585.78	8833.18
585.94	3541.23
586.10	1790.51
586.26	1296.66
586.42	957.28
586.58	828.55
586.74	753.65
586.90	664.71
587.06	802.80
587.22	720.88
587.38	744.29
587.54	1249.85
587.70	3716.77
587.86	5886.45
588.02	6747.76
588.18	4718.52
588.34	3038.02
588.49	2059.67
588.65	1329.42
588.81	702.16
588.97	463.43
589.13	344.06
589.29	430.66
589.45	397.89
589.61	414.27
589.77	517.26
589.93	552.37
590.08	547.69
590.24	564.07
590.40	500.87
590.56	510.24
590.72	437.68
590.88	461.09
591.04	430.66
591.20	447.04
591.35	400.23
591.51	411.93
591.67	390.87
591.83	404.91
591.99	447.04
592.15	388.53
592.31	444.70
592.46	461.09
592.62	418.96
592.78	388.53
592.94	411.93
593.10	498.53
593.26	404.91
593.41	493.85
593.57	503.22
593.73	636.63
593.89	3159.72
594.05	8112.30
594.20	11616.08
594.36	10808.59
594.52	7314.17
594.68	4608.51
594.84	2995.89
594.99	1778.81
595.15	856.64
595.31	601.52
595.47	503.22
595.62	334.70
595.78	379.17
595.94	351.08
596.10	421.30
596.25	451.72
596.41	449.38
596.57	320.65
596.73	362.78
596.88	587.47
597.04	1647.74
597.20	2511.39
597.36	2820.35
597.51	2218.83
597.67	1526.03
597.83	1097.71
597.99	774.72
598.14	435.34
598.30	402.57
598.46	414.27
598.61	433.00
598.77	456.40
598.93	341.72
599.09	393.21
599.24	348.74
599.40	304.27
599.56	358.10
599.71	341.72
599.87	320.65
600.03	308.95
600.18	292.57
600.34	346.40
600.50	299.59
600.65	353.42
600.81	327.68
600.97	280.86
601.12	292.57
601.28	339.38
601.44	264.48
601.59	379.17
601.75	379.17
601.91	299.59
602.06	348.74
602.22	355.76
602.37	781.74
602.53	1872.43
602.69	2778.22
602.84	2981.84
603.00	2099.46
603.16	1537.73
603.31	1123.46
603.47	847.27
603.62	535.98
603.78	425.98
603.94	362.78
604.09	365.12
604.25	334.70
604.40	332.36
604.56	374.49
604.71	411.93
604.87	341.72
605.03	341.72
605.18	252.78
605.34	351.08
605.49	444.70
605.65	367.46
605.80	365.12
605.96	451.72
606.12	341.72
606.27	348.74
606.43	299.59
606.58	388.53
606.74	945.58
606.89	3543.57
607.05	7403.11
607.20	9769.40
607.36	7887.61
607.51	5509.62
607.67	3597.40
607.82	2368.62
607.98	1427.73
608.13	851.96
608.29	631.94
608.44	505.56
608.60	493.85
608.75	718.54
608.91	1406.66
609.06	5671.12
609.22	12924.44
609.37	16896.33
609.53	14794.53
609.68	10038.56
609.84	6520.73
609.99	4489.15
610.15	2597.99
610.30	1448.79
610.46	1128.14
610.61	1095.37
610.76	1130.48
610.92	1121.12
611.07	1282.61
611.23	1397.30
611.38	1242.82
611.54	1067.28
611.69	978.34
611.84	816.85
612.00	763.01
612.15	702.16
612.31	858.98
612.46	915.15
612.62	964.30
612.77	978.34
612.92	746.63
613.08	760.67
613.23	828.55
613.39	863.66
613.54	1071.97
613.69	5413.66
613.85	15637.12
614.00	25027.35
614.15	26647.00
614.31	18740.67
614.46	12290.15
614.62	8388.48
614.77	4957.25
614.92	2417.77
615.08	1289.64
615.23	802.80
615.38	739.61
615.54	660.03
615.69	1116.44
615.84	3075.46
616.00	5694.52
616.15	7028.63
616.30	5692.18
616.46	3918.06
616.61	2871.84
616.76	1919.24
616.92	1100.05
617.07	620.24
617.22	517.26
617.37	374.49
617.53	390.87
617.68	458.74
617.83	409.59
617.99	334.70
618.14	388.53
618.29	414.27
618.45	313.63
618.60	381.51
618.75	334.70
618.90	304.27
619.06	355.76
619.21	358.10
619.36	341.72
619.51	346.40
619.67	320.65
619.82	301.93
619.97	344.06
620.12	325.33
620.28	365.12
620.43	461.09
620.58	322.99
620.73	346.40
620.89	372.15
621.04	559.39
621.19	1760.08
621.34	3239.30
621.49	4210.62
621.65	3592.72
621.80	2626.08
621.95	1860.73
622.10	1364.53
622.25	758.33
622.41	566.41
622.56	458.74
622.71	365.12
622.86	397.89
623.01	348.74
623.16	381.51
623.32	306.61
623.47	386.19
623.62	308.95
623.77	304.27
623.92	367.46
624.07	332.36
624.23	332.36
624.38	297.25
624.53	344.06
624.68	334.70
624.83	454.06
624.98	402.57
625.13	306.61
625.29	369.80
625.44	435.34
625.59	355.76
625.74	512.58
625.89	671.73
626.04	2637.78
626.19	7705.04
626.34	12383.77
626.49	13696.82
626.65	9998.77
626.80	6745.42
626.95	4517.23
627.10	2860.13
627.25	1383.26
627.40	746.63
627.55	545.34
627.70	358.10
627.85	388.53
628.00	325.33
628.15	369.80
628.30	320.65
628.45	322.99
628.60	320.65
628.76	325.33
628.91	234.05
629.06	337.04
629.21	355.76
629.36	304.27
629.51	325.33
629.66	374.49
629.81	557.05
629.96	1486.24
630.11	2743.11
630.26	3592.72
630.41	3187.81
630.56	2452.88
630.71	1713.27
630.86	1380.92
631.01	851.96
631.16	641.31
631.31	500.87
631.46	440.02
631.61	339.38
631.76	320.65
631.91	287.89
632.06	334.70
632.21	355.76
632.36	362.78
632.51	339.38
632.66	514.92
632.81	1252.19
632.96	4198.92
633.10	7606.74
633.25	9315.33
633.40	7625.47
633.55	5268.55
633.70	3499.10
633.85	2420.11
634.00	1329.42
634.15	732.59
634.30	507.90
634.45	400.23
634.60	341.72
634.75	322.99
634.90	330.02
635.05	264.48
635.19	283.20
635.34	339.38
635.49	404.91
635.64	315.97
635.79	245.76
635.94	318.31
636.09	369.80
636.24	341.72
636.39	290.23
636.53	339.38
636.68	362.78
636.83	369.80
636.98	318.31
637.13	353.42
637.28	372.15
637.43	430.66
637.57	746.63
637.72	3494.42
637.87	9937.91
638.02	16004.58
638.17	17039.10
638.32	12858.90
638.46	8629.56
638.61	5935.60
638.76	3499.10
638.91	1830.30
639.06	1046.22
639.20	653.01
639.35	732.59
639.50	992.39
639.65	5296.63
639.80	15414.77
639.94	24561.58
640.09	26771.05
640.24	19761.14
640.39	13181.90
640.54	8746.58
640.68	5413.66
640.83	2693.96
640.98	1207.72
641.13	702.16
641.27	489.17
641.42	444.70
641.57	407.25
641.72	440.02
641.86	334.70
642.01	311.29
642.16	358.10
642.31	404.91
642.45	262.14
642.60	285.55
642.75	369.80
642.90	304.27
643.04	264.48
643.19	299.59
643.34	332.36
643.48	250.44
643.63	257.46
643.78	320.65
643.93	276.18
644.07	311.29
644.22	236.39
644.37	273.84
644.51	276.18
644.66	311.29
644.81	264.48
644.95	273.84
645.10	294.91
645.25	276.18
645.39	313.63
645.54	184.90
645.69	334.70
645.83	217.67
645.98	308.95
646.13	301.93
646.27	215.33
646.42	215.33
646.57	215.33
646.71	313.63
646.86	301.93
647.00	266.82
647.15	306.61
647.30	227.03
647.44	231.71
647.59	259.80
647.74	168.52
647.88	290.23
648.03	266.82
648.17	196.60
648.32	163.84
648.47	234.05
648.61	245.76
648.76	294.91
648.90	294.91
649.05	280.86
649.20	203.63
649.34	325.33
649.49	264.48
649.63	362.78
649.78	358.10
649.92	657.69
650.07	1975.41
650.21	6539.46
650.36	11325.85
650.51	13687.45
650.65	11192.44
650.80	7908.67
650.94	5109.39
651.09	3255.69
651.23	1776.47
651.38	924.51
651.52	580.45
651.67	421.30
651.81	304.27
651.96	248.10
652.10	290.23
652.25	332.36
652.39	308.95
652.54	362.78
652.68	704.50
652.83	2101.80
652.97	3875.93
653.12	4891.72
653.26	4386.16
653.41	3192.49
653.55	2232.87
653.70	1430.07
653.84	896.43
653.99	571.09
654.13	362.78
654.27	294.91
654.42	212.99
654.56	189.58
654.71	224.69
654.85	287.89
655.00	224.69
655.14	168.52
655.29	147.45
655.43	278.52
655.57	187.24
655.72	238.73
655.86	215.33
656.01	248.10
656.15	248.10
656.30	229.37
656.44	231.71
656.58	182.56
656.73	238.73
656.87	184.90
657.01	212.99
657.16	271.50
657.30	259.80
657.45	231.71
657.59	208.31
657.73	205.97
657.88	294.91
658.02	332.36
658.16	161.50
658.31	266.82
658.45	175.54
658.60	215.33
658.74	243.42
658.88	285.55
659.03	315.97
659.17	348.74
659.31	954.94
659.46	3075.46
659.60	5558.77
659.74	6923.30
659.89	6017.52
660.03	4528.94
660.17	3084.83
660.32	1860.73
660.46	1142.18
660.60	664.71
660.74	489.17
660.89	360.44
661.03	276.18
661.17	241.08
661.32	262.14
661.46	196.60
661.60	250.44
661.74	287.89
661.89	285.55
662.03	276.18
662.17	255.12
662.31	271.50
662.46	241.08
662.60	231.71
662.74	220.01
662.88	301.93
663.03	212.99
663.17	308.95
663.31	231.71
663.45	224.69
663.60	266.82
663.74	184.90
663.88	278.52
664.02	252.78
664.17	224.69
664.31	236.39
664.45	231.71
664.59	184.90
664.73	243.42
664.88	287.89
665.02	248.10
665.16	222.35
665.30	208.31
665.44	245.76
665.59	294.91
665.73	273.84
665.87	189.58
666.01	191.92
666.15	243.42
666.29	231.71
666.44	273.84
666.58	325.33
666.72	238.73
666.86	245.76
667.00	348.74
667.14	528.96
667.28	1867.75
667.43	5701.54
667.57	9715.56
667.71	12009.29
667.85	10359.21
667.99	7466.31
668.13	4889.38
668.27	2899.92
668.41	1629.01
668.56	950.26
668.70	601.52
668.84	388.53
668.98	414.27
669.12	304.27
669.26	264.48
669.40	341.72
669.54	252.78
669.68	297.25
669.82	203.63
669.96	245.76
670.10	241.08
670.25	283.20
670.39	257.46
670.53	217.67
670.67	369.80
670.81	236.39
670.95	320.65
671.09	526.62
671.23	2078.40
671.37	4713.84
671.51	7014.59
671.65	7337.58
671.79	5731.97
671.93	4159.13
672.07	2438.84
672.21	1444.11
672.35	880.04
672.49	547.69
672.63	503.22
672.77	327.68
672.91	248.10
673.05	187.24
673.19	292.57
673.33	259.80
673.47	276.18
673.61	201.29
673.75	224.69
673.89	208.31
674.03	229.37
674.17	222.35
674.31	222.35
674.45	203.63
674.59	243.42
674.73	271.50
674.87	311.29
675.01	271.50
675.15	238.73
675.29	353.42
675.43	252.78
675.56	301.93
675.70	283.20
675.84	180.22
675.98	248.10
676.12	149.79
676.26	201.29
676.40	245.76
676.54	227.03
676.68	201.29
676.82	203.63
676.96	201.29
677.10	234.05
677.23	220.01
677.37	102.98
677.51	166.18
677.65	215.33
677.79	161.50
677.93	252.78
678.07	142.77
678.21	114.69
678.34	191.92
678.48	156.82
678.62	203.63
678.76	175.54
678.90	191.92
679.04	252.78
679.18	224.69
679.31	243.42
679.45	217.67
679.59	215.33
679.73	187.24
679.87	234.05
680.00	238.73
680.14	227.03
680.28	152.13
680.42	245.76
680.56	236.39
680.70	154.48
680.83	215.33
680.97	203.63
681.11	177.88
681.25	245.76
681.39	177.88
681.52	248.10
681.66	187.24
681.80	210.65
681.94	201.29
682.07	149.79
682.21	191.92
682.35	177.88
682.49	198.95
682.62	196.60
682.76	131.07
682.90	198.95
683.04	175.54
683.17	229.37
683.31	203.63
683.45	180.22
683.59	236.39
683.72	191.92
683.86	248.10
684.00	168.52
684.13	182.56
684.27	229.37
684.41	189.58
684.55	201.29
684.68	112.35
684.82	217.67
684.96	287.89
685.09	128.73
685.23	182.56
685.37	110.01
685.50	210.65
685.64	201.29
685.78	196.60
685.91	180.22
686.05	196.60
686.19	201.29
686.32	203.63
686.46	147.45
686.60	241.08
686.73	278.52
686.87	215.33
687.01	234.05
687.14	271.50
687.28	147.45
687.42	100.64
687.55	245.76
687.69	311.29
687.82	163.84
687.96	198.95
688.10	271.50
688.23	114.69
688.37	245.76
688.50	217.67
688.64	278.52
688.78	212.99
688.91	184.90
689.05	217.67
689.18	168.52
689.32	180.22
689.46	168.52
689.59	220.01
689.73	159.16
689.86	203.63
690.00	166.18
690.13	163.84
690.27	252.78
690.41	231.71
690.54	194.26
690.68	210.65
690.81	217.67
690.95	201.29
691.08	177.88
691.22	74.90
691.35	203.63
691.49	257.46
691.62	145.11
691.76	161.50
691.89	133.41
692.03	189.58
692.16	203.63
692.30	203.63
692.43	837.91
692.57	2324.15
692.70	3960.19
692.84	5184.29
692.97	4692.77
693.11	3545.91
693.24	2504.37
693.38	1746.04
693.51	1144.52
693.65	828.55
693.78	594.50
693.92	416.62
694.05	320.65
694.19	234.05
694.32	252.78
694.45	234.05
694.59	166.18
694.72	205.97
694.86	210.65
694.99	135.75
695.13	180.22
695.26	159.16
695.39	170.86
695.53	227.03
695.66	166.18
695.80	217.67
695.93	145.11
696.07	131.07
696.20	332.36
696.33	468.11
696.47	472.79
696.60	451.72
696.73	360.44
696.87	299.59
697.00	287.89
697.14	271.50
697.27	168.52
697.40	264.48
697.54	161.50
697.67	138.09
697.80	205.97
697.94	177.88
698.07	203.63
698.21	177.88
698.34	147.45
698.47	182.56
698.61	187.24
698.74	177.88
698.87	156.82
699.01	201.29
699.14	177.88
699.27	250.44
699.40	276.18
699.54	168.52
699.67	152.13
699.80	187.24
699.94	105.32
700.07	285.55
700.20	131.07
700.34	152.13
700.47	131.07
700.60	154.48
700.73	198.95
700.87	231.71
701.00	159.16
701.13	184.90
701.26	173.20
701.40	133.41
701.53	227.03
701.66	205.97
701.79	224.69
701.93	257.46
702.06	341.72
702.19	435.34
702.32	503.22
702.46	454.06
702.59	465.77
702.72	894.08
702.85	2960.78
702.99	6342.85
703.12	9097.66
703.25	9851.31
703.38	8718.50
703.51	6799.26
703.65	5186.63
703.78	3700.39
703.91	2377.98
704.04	1521.35
704.17	1004.09
704.31	667.05
704.44	393.21
704.57	365.12
704.70	273.84
704.83	222.35
704.96	257.46
705.10	287.89
705.23	266.82
>>>>>End Processed Spectral Data<<<<<
