SpectraSuite Data File
++++++++++++++++++++++++++++++++++++
Date: Fri Oct 04 11:42:21 GMT-05:00 2013
User: price-jones
Dark Spectrum Present: No
Reference Spectrum Present: No
Number of Sampled Component Spectra: 1
Spectrometers: USB2+H05261
Integration Time (usec): 100000 (USB2+H05261)
Spectra Averaged: 1 (USB2+H05261)
Boxcar Smoothing: 0 (USB2+H05261)
Correct for Electrical Dark: No (USB2+H05261)
Strobe/Lamp Enabled: No (USB2+H05261)
Correct for Detector Non-linearity: No (USB2+H05261)
Correct for Stray Light: No (USB2+H05261)
Number of Pixels in Processed Spectrum: 2048
>>>>>Begin Processed Spectral Data<<<<<
365.73	84.26
365.92	84.26
366.12	84.26
366.32	0.00
366.52	0.00
366.72	0.00
366.91	0.00
367.11	0.00
367.31	0.00
367.51	0.00
367.70	0.00
367.90	0.00
368.10	0.00
368.30	0.00
368.49	0.00
368.69	0.00
368.89	0.00
369.09	0.00
369.28	0.00
369.48	0.00
369.68	0.00
369.87	0.00
370.07	0.00
370.27	49.15
370.47	74.90
370.66	7.02
370.86	88.94
371.06	74.90
371.25	42.13
371.45	30.43
371.65	65.54
371.84	133.41
372.04	67.88
372.24	58.51
372.44	65.54
372.63	98.30
372.83	152.13
373.03	95.96
373.22	60.85
373.42	124.05
373.62	212.99
373.81	107.66
374.01	135.75
374.21	187.24
374.40	114.69
374.60	182.56
374.79	117.03
374.99	175.54
375.19	119.37
375.38	175.54
375.58	145.11
375.78	126.39
375.97	112.35
376.17	161.50
376.37	124.05
376.56	138.09
376.76	149.79
376.95	154.48
377.15	133.41
377.35	77.24
377.54	117.03
377.74	77.24
377.93	93.62
378.13	196.60
378.33	161.50
378.52	163.84
378.72	173.20
378.91	142.77
379.11	121.71
379.31	166.18
379.50	159.16
379.70	163.84
379.89	142.77
380.09	156.82
380.28	166.18
380.48	81.92
380.68	70.22
380.87	126.39
381.07	81.92
381.26	84.26
381.46	152.13
381.65	124.05
381.85	70.22
382.04	128.73
382.24	70.22
382.43	88.94
382.63	119.37
382.83	63.19
383.02	86.60
383.22	135.75
383.41	67.88
383.61	180.22
383.80	110.01
384.00	46.81
384.19	79.58
384.39	133.41
384.58	124.05
384.78	112.35
384.97	91.28
385.17	49.15
385.36	124.05
385.56	124.05
385.75	84.26
385.95	135.75
386.14	107.66
386.34	84.26
386.53	95.96
386.72	119.37
386.92	131.07
387.11	70.22
387.31	133.41
387.50	182.56
387.70	100.64
387.89	77.24
388.09	105.32
388.28	91.28
388.48	124.05
388.67	117.03
388.86	70.22
389.06	72.56
389.25	121.71
389.45	152.13
389.64	112.35
389.84	142.77
390.03	154.48
390.22	74.90
390.42	147.45
390.61	46.81
390.81	124.05
391.00	56.17
391.19	177.88
391.39	198.95
391.58	107.66
391.78	133.41
391.97	147.45
392.16	135.75
392.36	112.35
392.55	110.01
392.75	46.81
392.94	84.26
393.13	84.26
393.33	95.96
393.52	110.01
393.71	88.94
393.91	128.73
394.10	84.26
394.29	81.92
394.49	128.73
394.68	173.20
394.88	175.54
395.07	180.22
395.26	145.11
395.46	161.50
395.65	194.26
395.84	140.43
396.04	243.42
396.23	135.75
396.42	93.62
396.62	194.26
396.81	86.60
397.00	124.05
397.19	117.03
397.39	88.94
397.58	147.45
397.77	110.01
397.97	117.03
398.16	74.90
398.35	102.98
398.55	212.99
398.74	100.64
398.93	110.01
399.12	149.79
399.32	135.75
399.51	173.20
399.70	135.75
399.90	138.09
400.09	147.45
400.28	166.18
400.47	98.30
400.67	98.30
400.86	142.77
401.05	194.26
401.24	152.13
401.44	196.60
401.63	191.92
401.82	152.13
402.01	163.84
402.21	152.13
402.40	86.60
402.59	159.16
402.78	201.29
402.97	168.52
403.17	198.95
403.36	198.95
403.55	182.56
403.74	531.30
403.93	1565.82
404.13	3410.16
404.32	4423.61
404.51	3482.72
404.70	2179.04
404.89	835.57
405.09	351.08
405.28	250.44
405.47	114.69
405.66	163.84
405.85	245.76
406.05	210.65
406.24	264.48
406.43	210.65
406.62	149.79
406.81	236.39
407.00	311.29
407.20	444.70
407.39	624.92
407.58	606.20
407.77	461.09
407.96	297.25
408.15	145.11
408.34	177.88
408.54	147.45
408.73	159.16
408.92	161.50
409.11	147.45
409.30	187.24
409.49	159.16
409.68	91.28
409.87	210.65
410.07	196.60
410.26	210.65
410.45	198.95
410.64	173.20
410.83	154.48
411.02	145.11
411.21	163.84
411.40	152.13
411.59	124.05
411.78	161.50
411.98	147.45
412.17	252.78
412.36	208.31
412.55	163.84
412.74	203.63
412.93	212.99
413.12	142.77
413.31	224.69
413.50	217.67
413.69	173.20
413.88	205.97
414.07	217.67
414.26	194.26
414.45	262.14
414.64	177.88
414.83	166.18
415.02	88.94
415.22	173.20
415.41	217.67
415.60	180.22
415.79	224.69
415.98	203.63
416.17	154.48
416.36	156.82
416.55	173.20
416.74	259.80
416.93	205.97
417.12	217.67
417.31	212.99
417.50	224.69
417.69	294.91
417.88	248.10
418.07	191.92
418.26	205.97
418.45	175.54
418.64	278.52
418.83	194.26
419.02	194.26
419.21	163.84
419.39	264.48
419.58	205.97
419.77	170.86
419.96	248.10
420.15	208.31
420.34	203.63
420.53	229.37
420.72	245.76
420.91	266.82
421.10	135.75
421.29	201.29
421.48	203.63
421.67	266.82
421.86	229.37
422.05	266.82
422.24	236.39
422.43	222.35
422.61	201.29
422.80	245.76
422.99	234.05
423.18	245.76
423.37	285.55
423.56	236.39
423.75	271.50
423.94	283.20
424.13	189.58
424.32	194.26
424.50	227.03
424.69	215.33
424.88	231.71
425.07	266.82
425.26	257.46
425.45	297.25
425.64	304.27
425.83	266.82
426.01	315.97
426.20	292.57
426.39	255.12
426.58	262.14
426.77	236.39
426.96	280.86
427.15	283.20
427.33	271.50
427.52	220.01
427.71	227.03
427.90	287.89
428.09	196.60
428.28	322.99
428.46	320.65
428.65	266.82
428.84	276.18
429.03	320.65
429.22	243.42
429.40	259.80
429.59	231.71
429.78	292.57
429.97	290.23
430.16	262.14
430.34	285.55
430.53	339.38
430.72	215.33
430.91	315.97
431.10	262.14
431.28	297.25
431.47	201.29
431.66	337.04
431.85	250.44
432.03	325.33
432.22	313.63
432.41	285.55
432.60	297.25
432.79	264.48
432.97	383.85
433.16	407.25
433.35	372.15
433.54	444.70
433.72	416.62
433.91	447.04
434.10	524.28
434.28	636.63
434.47	683.44
434.66	655.35
434.85	978.34
435.03	2628.42
435.22	9776.42
435.41	19227.50
435.59	18237.45
435.78	11414.79
435.97	5877.09
436.16	2354.58
436.34	947.92
436.53	585.13
436.72	550.03
436.90	440.02
437.09	348.74
437.28	510.24
437.46	271.50
437.65	369.80
437.84	386.19
438.02	416.62
438.21	245.76
438.40	271.50
438.58	358.10
438.77	381.51
438.96	297.25
439.14	308.95
439.33	301.93
439.52	376.83
439.70	311.29
439.89	390.87
440.08	346.40
440.26	351.08
440.45	367.46
440.63	285.55
440.82	344.06
441.01	367.46
441.19	351.08
441.38	393.21
441.57	402.57
441.75	311.29
441.94	304.27
442.12	337.04
442.31	379.17
442.50	374.49
442.68	353.42
442.87	264.48
443.05	369.80
443.24	285.55
443.43	379.17
443.61	304.27
443.80	325.33
443.98	311.29
444.17	299.59
444.35	376.83
444.54	353.42
444.73	372.15
444.91	369.80
445.10	327.68
445.28	292.57
445.47	287.89
445.65	379.17
445.84	346.40
446.02	409.59
446.21	365.12
446.39	360.44
446.58	414.27
446.77	355.76
446.95	311.29
447.14	320.65
447.32	320.65
447.51	325.33
447.69	292.57
447.88	285.55
448.06	390.87
448.25	344.06
448.43	318.31
448.62	332.36
448.80	341.72
448.99	374.49
449.17	301.93
449.36	346.40
449.54	379.17
449.73	339.38
449.91	404.91
450.10	334.70
450.28	362.78
450.46	414.27
450.65	306.61
450.83	304.27
451.02	313.63
451.20	330.02
451.39	330.02
451.57	318.31
451.76	351.08
451.94	243.42
452.13	351.08
452.31	346.40
452.49	287.89
452.68	337.04
452.86	390.87
453.05	320.65
453.23	346.40
453.42	290.23
453.60	304.27
453.78	276.18
453.97	315.97
454.15	322.99
454.34	301.93
454.52	313.63
454.70	325.33
454.89	376.83
455.07	283.20
455.26	381.51
455.44	315.97
455.62	287.89
455.81	376.83
455.99	355.76
456.17	379.17
456.36	301.93
456.54	299.59
456.73	276.18
456.91	322.99
457.09	334.70
457.28	393.21
457.46	341.72
457.64	341.72
457.83	327.68
458.01	337.04
458.19	290.23
458.38	283.20
458.56	348.74
458.74	372.15
458.93	341.72
459.11	327.68
459.29	320.65
459.48	381.51
459.66	346.40
459.84	390.87
460.03	421.30
460.21	355.76
460.39	311.29
460.57	393.21
460.76	367.46
460.94	264.48
461.12	379.17
461.31	362.78
461.49	259.80
461.67	322.99
461.85	402.57
462.04	362.78
462.22	505.56
462.40	355.76
462.59	301.93
462.77	301.93
462.95	283.20
463.13	311.29
463.32	339.38
463.50	299.59
463.68	376.83
463.86	404.91
464.05	416.62
464.23	423.64
464.41	367.46
464.59	374.49
464.78	386.19
464.96	346.40
465.14	271.50
465.32	348.74
465.50	344.06
465.69	327.68
465.87	231.71
466.05	358.10
466.23	346.40
466.41	344.06
466.60	346.40
466.78	334.70
466.96	374.49
467.14	386.19
467.32	393.21
467.51	365.12
467.69	337.04
467.87	332.36
468.05	337.04
468.23	390.87
468.41	264.48
468.60	360.44
468.78	311.29
468.96	292.57
469.14	318.31
469.32	297.25
469.50	311.29
469.69	294.91
469.87	315.97
470.05	301.93
470.23	306.61
470.41	292.57
470.59	273.84
470.77	374.49
470.95	313.63
471.14	304.27
471.32	386.19
471.50	334.70
471.68	322.99
471.86	351.08
472.04	341.72
472.22	337.04
472.40	285.55
472.58	330.02
472.77	339.38
472.95	332.36
473.13	372.15
473.31	346.40
473.49	325.33
473.67	276.18
473.85	411.93
474.03	341.72
474.21	369.80
474.39	362.78
474.57	402.57
474.75	367.46
474.93	273.84
475.12	388.53
475.30	269.16
475.48	301.93
475.66	318.31
475.84	271.50
476.02	374.49
476.20	365.12
476.38	257.46
476.56	369.80
476.74	332.36
476.92	332.36
477.10	348.74
477.28	334.70
477.46	320.65
477.64	320.65
477.82	360.44
478.00	257.46
478.18	351.08
478.36	339.38
478.54	404.91
478.72	388.53
478.90	411.93
479.08	393.21
479.26	409.59
479.44	409.59
479.62	421.30
479.80	505.56
479.98	353.42
480.16	430.66
480.34	407.25
480.52	489.17
480.70	423.64
480.88	409.59
481.06	500.87
481.24	550.03
481.41	566.41
481.59	582.79
481.77	615.56
481.95	678.76
482.13	645.99
482.31	734.93
482.49	706.84
482.67	830.89
482.85	830.89
483.03	791.10
483.21	917.49
483.39	971.32
483.57	1025.15
483.74	1057.92
483.92	1163.25
484.10	1219.42
484.28	1355.17
484.46	1371.55
484.64	1423.05
484.82	1467.52
485.00	1572.84
485.18	1542.41
485.35	1675.82
485.53	1830.30
485.71	1933.28
485.89	1818.60
486.07	1877.11
486.25	2024.56
486.43	1935.62
486.61	2087.76
486.78	1935.62
486.96	1933.28
487.14	1991.80
487.32	2005.84
487.50	1935.62
487.68	1902.86
487.85	1947.33
488.03	1893.49
488.21	1844.34
488.39	1842.00
488.57	1844.34
488.75	1788.17
488.92	2022.22
489.10	1645.40
489.28	1685.19
489.46	1561.14
489.64	1565.82
489.81	1502.62
489.99	1540.07
490.17	1509.65
490.35	1603.27
490.53	1479.22
490.70	1448.79
490.88	1467.52
491.06	1654.76
491.24	1739.02
491.41	1727.32
491.59	1666.46
491.77	1493.26
491.95	1514.33
492.13	1383.26
492.30	1327.08
492.48	1423.05
492.66	1338.79
492.84	1366.87
493.01	1413.68
493.19	1345.81
493.37	1406.66
493.54	1280.27
493.72	1308.36
493.90	1235.80
494.08	1139.84
494.25	1196.01
494.43	1174.95
494.61	1188.99
494.79	1142.18
494.96	1086.01
495.14	1156.22
495.32	1088.35
495.49	1039.20
495.67	1191.33
495.85	1020.47
496.02	1050.90
496.20	1022.81
496.38	1039.20
496.55	1090.69
496.73	1060.26
496.91	966.64
497.09	957.28
497.26	959.62
497.44	957.28
497.62	961.96
497.79	943.24
497.97	894.08
498.14	966.64
498.32	952.60
498.50	873.02
498.67	772.38
498.85	779.40
499.03	840.25
499.20	739.61
499.38	744.29
499.56	709.18
499.73	751.31
499.91	753.65
500.08	739.61
500.26	706.84
500.44	566.41
500.61	664.71
500.79	634.29
500.97	671.73
501.14	690.46
501.32	573.43
501.49	601.52
501.67	526.62
501.84	496.19
502.02	500.87
502.20	575.77
502.37	580.45
502.55	566.41
502.72	617.90
502.90	545.34
503.07	435.34
503.25	486.83
503.43	440.02
503.60	428.32
503.78	477.47
503.95	444.70
504.13	468.11
504.30	454.06
504.48	486.83
504.65	355.76
504.83	423.64
505.01	435.34
505.18	397.89
505.36	430.66
505.53	414.27
505.71	386.19
505.88	500.87
506.06	339.38
506.23	456.40
506.41	355.76
506.58	400.23
506.76	372.15
506.93	395.55
507.11	393.21
507.28	362.78
507.46	262.14
507.63	337.04
507.81	287.89
507.98	372.15
508.16	409.59
508.33	383.85
508.50	421.30
508.68	369.80
508.85	449.38
509.03	353.42
509.20	397.89
509.38	395.55
509.55	390.87
509.73	456.40
509.90	440.02
510.08	372.15
510.25	479.81
510.42	402.57
510.60	456.40
510.77	428.32
510.95	367.46
511.12	355.76
511.30	353.42
511.47	435.34
511.64	425.98
511.82	360.44
511.99	299.59
512.17	266.82
512.34	325.33
512.51	360.44
512.69	355.76
512.86	358.10
513.04	358.10
513.21	320.65
513.38	348.74
513.56	402.57
513.73	351.08
513.90	294.91
514.08	294.91
514.25	376.83
514.43	355.76
514.60	365.12
514.77	365.12
514.95	327.68
515.12	320.65
515.29	353.42
515.47	346.40
515.64	299.59
515.81	332.36
515.99	325.33
516.16	360.44
516.33	402.57
516.51	313.63
516.68	320.65
516.85	269.16
517.03	311.29
517.20	276.18
517.37	290.23
517.54	287.89
517.72	271.50
517.89	299.59
518.06	271.50
518.24	292.57
518.41	367.46
518.58	264.48
518.75	255.12
518.93	341.72
519.10	299.59
519.27	395.55
519.45	292.57
519.62	301.93
519.79	367.46
519.96	276.18
520.14	257.46
520.31	320.65
520.48	379.17
520.65	276.18
520.83	407.25
521.00	327.68
521.17	346.40
521.34	306.61
521.52	283.20
521.69	402.57
521.86	229.37
522.03	360.44
522.20	299.59
522.38	271.50
522.55	306.61
522.72	255.12
522.89	337.04
523.07	325.33
523.24	318.31
523.41	332.36
523.58	297.25
523.75	330.02
523.92	252.78
524.10	308.95
524.27	381.51
524.44	325.33
524.61	320.65
524.78	362.78
524.96	332.36
525.13	320.65
525.30	376.83
525.47	283.20
525.64	320.65
525.81	315.97
525.98	348.74
526.16	311.29
526.33	301.93
526.50	386.19
526.67	283.20
526.84	346.40
527.01	327.68
527.18	346.40
527.36	376.83
527.53	416.62
527.70	444.70
527.87	390.87
528.04	421.30
528.21	351.08
528.38	348.74
528.55	315.97
528.72	463.43
528.89	421.30
529.07	266.82
529.24	423.64
529.41	475.13
529.58	376.83
529.75	367.46
529.92	327.68
530.09	360.44
530.26	449.38
530.43	383.85
530.60	397.89
530.77	433.00
530.94	449.38
531.11	500.87
531.28	461.09
531.46	440.02
531.63	430.66
531.80	568.75
531.97	514.92
532.14	655.35
532.31	671.73
532.48	683.44
532.65	800.46
532.82	959.62
532.99	1086.01
533.16	1226.44
533.33	1289.64
533.50	1097.71
533.67	1008.77
533.84	912.81
534.01	765.36
534.18	802.80
534.35	746.63
534.52	732.59
534.69	866.00
534.86	723.23
535.03	807.48
535.20	826.21
535.37	964.30
535.54	973.66
535.71	1071.97
535.88	1060.26
536.05	1100.05
536.22	1055.58
536.38	1191.33
536.55	1373.89
536.72	1537.73
536.89	1645.40
537.06	1860.73
537.23	2031.58
537.40	2099.46
537.57	2228.19
537.74	2415.43
537.91	2581.61
538.08	2513.74
538.25	2644.81
538.42	2539.48
538.59	2644.81
538.75	2738.43
538.92	2995.89
539.09	3080.14
539.26	3623.15
539.43	4042.11
539.60	4472.76
539.77	5027.47
539.94	5568.13
540.11	6270.30
540.28	6626.06
540.44	7438.22
540.61	8271.45
540.78	9413.63
540.95	11506.07
541.12	13577.45
541.29	15014.54
541.46	15379.66
541.62	15377.32
541.79	14637.71
541.96	13853.63
542.13	12732.51
542.30	11889.92
542.47	11311.81
542.63	10771.15
542.80	10256.23
542.97	10204.74
543.14	10076.01
543.31	10242.18
543.48	10078.35
543.64	10331.12
543.81	10354.53
543.98	10377.94
544.15	10417.72
544.32	10466.88
544.48	10399.00
544.65	10569.86
544.82	10204.74
544.99	10204.74
545.16	10527.73
545.32	11353.94
545.49	20498.41
545.66	36769.82
545.83	42506.47
546.00	35054.20
546.16	24383.70
546.33	17743.60
546.50	13319.99
546.67	10642.42
546.83	9378.53
547.00	8997.02
547.17	8538.27
547.34	8170.81
547.50	7913.35
547.67	7620.78
547.84	7405.46
548.00	7077.78
548.17	6656.48
548.34	6520.73
548.51	6310.08
548.67	5949.64
548.84	5631.33
549.01	5404.30
549.18	5338.76
549.34	5067.26
549.51	4896.40
549.68	4753.63
549.84	4538.30
550.01	4173.18
550.18	4245.73
550.34	3985.93
550.51	3896.99
550.68	3588.04
550.84	3433.57
551.01	3227.60
551.18	3009.93
551.34	2918.65
551.51	2808.64
551.68	2745.45
551.84	2684.59
552.01	2609.70
552.18	2326.49
552.34	2347.56
552.51	2340.54
552.68	2160.31
552.84	2101.80
553.01	1982.43
553.18	2008.18
553.34	1907.54
553.51	1792.85
553.67	1856.04
553.84	1802.21
554.01	1624.33
554.17	1486.24
554.34	1411.34
554.51	1362.19
554.67	1303.68
554.84	1242.82
555.00	1256.87
555.17	1046.22
555.33	1149.20
555.50	1086.01
555.67	985.37
555.83	983.02
556.00	910.47
556.16	1015.79
556.33	919.83
556.50	908.13
556.66	828.55
556.83	784.08
556.99	861.32
557.16	751.31
557.32	791.10
557.49	725.57
557.65	650.67
557.82	676.41
557.98	697.48
558.15	622.58
558.32	706.84
558.48	674.07
558.65	631.94
558.81	573.43
558.98	664.71
559.14	662.37
559.31	603.86
559.47	615.56
559.64	538.32
559.80	594.50
559.97	641.31
560.13	587.47
560.30	543.00
560.46	559.39
560.63	519.60
560.79	554.71
560.96	533.64
561.12	547.69
561.29	589.82
561.45	631.94
561.61	491.51
561.78	695.14
561.94	571.09
562.11	559.39
562.27	510.24
562.44	535.98
562.60	568.75
562.77	550.03
562.93	531.30
563.10	613.22
563.26	571.09
563.42	543.00
563.59	475.13
563.75	491.51
563.92	503.22
564.08	465.77
564.24	507.90
564.41	510.24
564.57	491.51
564.74	475.13
564.90	526.62
565.07	477.47
565.23	458.74
565.39	416.62
565.56	458.74
565.72	456.40
565.88	435.34
566.05	430.66
566.21	484.49
566.38	465.77
566.54	465.77
566.70	407.25
566.87	482.15
567.03	489.17
567.19	507.90
567.36	463.43
567.52	514.92
567.68	458.74
567.85	505.56
568.01	456.40
568.17	421.30
568.34	479.81
568.50	489.17
568.66	444.70
568.83	533.64
568.99	444.70
569.15	456.40
569.32	372.15
569.48	386.19
569.64	425.98
569.81	407.25
569.97	360.44
570.13	463.43
570.30	360.44
570.46	353.42
570.62	344.06
570.78	346.40
570.95	365.12
571.11	348.74
571.27	388.53
571.43	308.95
571.60	461.09
571.76	308.95
571.92	421.30
572.09	435.34
572.25	428.32
572.41	421.30
572.57	442.36
572.74	489.17
572.90	416.62
573.06	472.79
573.22	393.21
573.38	421.30
573.55	451.72
573.71	440.02
573.87	477.47
574.03	365.12
574.20	416.62
574.36	372.15
574.52	365.12
574.68	411.93
574.84	489.17
575.01	360.44
575.17	505.56
575.33	524.28
575.49	526.62
575.65	552.37
575.82	587.47
575.98	699.82
576.14	648.33
576.30	1554.12
576.46	4423.61
576.62	6820.32
576.79	7272.04
576.95	5144.50
577.11	3433.57
577.27	2497.35
577.43	1680.50
577.59	1109.41
577.75	1011.11
577.92	947.92
578.08	915.15
578.24	812.17
578.40	1748.38
578.56	4248.07
578.72	6471.58
578.88	6700.95
579.04	4758.31
579.21	3325.90
579.37	2595.65
579.53	2136.91
579.69	2094.78
579.85	2513.74
580.01	2670.55
580.17	2567.57
580.33	2265.64
580.49	1970.73
580.65	1816.26
580.82	1671.14
580.98	1652.42
581.14	1636.03
581.30	1846.68
581.46	1907.54
581.62	2008.18
581.78	2108.82
581.94	2312.45
582.10	2300.75
582.26	2541.82
582.42	2480.97
582.58	2630.76
582.74	2647.15
582.90	2672.89
583.06	2703.32
583.22	2700.98
583.38	2780.56
583.54	2663.53
583.70	2733.75
583.86	2607.36
584.02	2565.23
584.18	2576.93
584.34	2532.46
584.50	2581.61
584.66	2499.69
584.82	2370.96
584.98	2401.39
585.14	2242.23
585.30	2401.39
585.46	2242.23
585.62	2300.75
585.78	2312.45
585.94	2228.19
586.10	2331.17
586.26	2511.39
586.42	2855.45
586.58	3323.56
586.74	4098.28
586.90	4894.06
587.06	5060.24
587.22	4968.96
587.38	4461.06
587.54	3939.12
587.70	3260.37
587.86	2757.15
588.02	2363.94
588.18	2136.91
588.34	1949.67
588.49	1811.57
588.65	1776.47
588.81	1696.89
588.97	1666.46
589.13	1568.16
589.29	1535.39
589.45	1437.09
589.61	1486.24
589.77	1600.93
589.93	1614.97
590.08	1577.52
590.24	1659.44
590.40	1607.95
590.56	1755.40
590.72	1767.10
590.88	1739.02
591.04	1879.45
591.20	1912.22
591.35	2090.10
591.51	2078.40
591.67	2148.61
591.83	2333.51
591.99	2424.80
592.15	2665.87
592.31	2932.69
592.46	3087.17
592.62	3471.01
592.78	3709.75
592.94	3655.92
593.10	3639.53
593.26	3562.30
593.41	3215.90
593.57	2869.50
593.73	2590.97
593.89	2317.13
594.05	2172.02
594.20	1895.83
594.36	1802.21
594.52	1535.39
594.68	1504.96
594.84	1425.39
594.99	1472.20
595.15	1416.02
595.31	1423.05
595.47	1430.07
595.62	1359.85
595.78	1439.43
595.94	1380.92
596.10	1425.39
596.25	1348.15
596.41	1352.83
596.57	1301.34
596.73	1383.26
596.88	1366.87
597.04	1352.83
597.20	1448.79
597.36	1380.92
597.51	1437.09
597.67	1537.73
597.83	1565.82
597.99	1739.02
598.14	1792.85
598.30	1884.13
598.46	2005.84
598.61	2120.53
598.77	2108.82
598.93	2211.81
599.09	2221.17
599.24	2221.17
599.40	2303.09
599.56	2183.72
599.71	2047.97
599.87	1874.77
600.03	1842.00
600.18	1837.32
600.34	1624.33
600.50	1537.73
600.65	1453.47
600.81	1453.47
600.97	1343.47
601.12	1235.80
601.28	1294.32
601.44	1165.59
601.59	1067.28
601.75	1142.18
601.91	1041.54
602.06	931.53
602.22	1057.92
602.37	915.15
602.53	933.87
602.69	1001.75
602.84	924.51
603.00	933.87
603.16	985.37
603.31	1069.62
603.47	985.37
603.62	983.02
603.78	1015.79
603.94	968.98
604.09	1001.75
604.25	1121.12
604.40	1111.75
604.56	1153.88
604.71	1130.48
604.87	1226.44
605.03	1158.57
605.18	1151.54
605.34	1165.59
605.49	1240.48
605.65	1219.42
605.80	1254.53
605.96	1343.47
606.12	1357.51
606.27	1380.92
606.43	1451.13
606.58	1446.45
606.74	1530.71
606.89	1727.32
607.05	1755.40
607.20	1830.30
607.36	1909.88
607.51	2029.24
607.67	2132.23
607.82	2258.62
607.98	2490.33
608.13	2588.63
608.29	2892.90
608.44	3040.36
608.60	3148.02
608.75	3667.62
608.91	3768.26
609.06	4196.58
609.22	4601.49
609.37	5102.37
609.53	5734.31
609.68	6602.65
609.84	7339.92
609.99	8631.90
610.15	10157.92
610.30	12636.55
610.46	16229.27
610.61	20975.88
610.76	26677.43
610.92	32126.19
611.07	35356.13
611.23	36294.69
611.38	33535.20
611.54	29507.13
611.69	25455.67
611.84	21198.23
612.00	17500.19
612.15	14939.64
612.31	12915.08
612.46	11503.73
612.62	10759.44
612.77	10115.80
612.92	9638.33
613.08	9350.44
613.23	8786.37
613.39	8404.86
613.54	8259.75
613.69	8035.06
613.85	7899.31
614.00	7819.73
614.15	7864.20
614.31	7606.74
614.46	7506.10
614.62	7410.14
614.77	6939.69
614.92	6499.67
615.08	6127.52
615.23	5626.65
615.38	5172.58
615.54	4762.99
615.69	4299.56
615.84	3999.98
616.00	3705.07
616.15	3372.71
616.30	3314.20
616.46	3012.27
616.61	2932.69
616.76	2700.98
616.92	2658.85
617.07	2497.35
617.22	2312.45
617.37	2228.19
617.53	2200.10
617.68	2113.50
617.83	2031.58
617.99	1888.81
618.14	1919.24
618.29	1902.86
618.45	1818.60
618.60	1811.57
618.75	1748.38
618.90	1806.89
619.06	1717.95
619.21	1886.47
619.36	1783.49
619.51	1603.27
619.67	1844.34
619.82	1739.02
619.97	1776.47
620.12	1771.79
620.28	1774.13
620.43	1820.94
620.58	1933.28
620.73	1853.70
620.89	1956.69
621.04	1947.33
621.19	1987.11
621.34	1839.66
621.49	1804.55
621.65	1818.60
621.80	1778.81
621.95	1792.85
622.10	1771.79
622.25	1781.15
622.41	1813.92
622.56	1865.41
622.71	1872.43
622.86	1853.70
623.01	1959.03
623.16	2008.18
623.32	2001.16
623.47	2069.03
623.62	2015.20
623.77	1966.05
623.92	2064.35
624.07	2024.56
624.23	2019.88
624.38	2078.40
624.53	2040.95
624.68	2019.88
624.83	2108.82
624.98	2059.67
625.13	2150.95
625.29	1933.28
625.44	2104.14
625.59	2017.54
625.74	1982.43
625.89	2005.84
626.04	1935.62
626.19	1991.80
626.34	2188.40
626.49	2125.21
626.65	2045.63
626.80	1942.64
626.95	1830.30
627.10	1963.71
627.25	1956.69
627.40	1792.85
627.55	1898.17
627.70	1802.21
627.85	1832.64
628.00	1806.89
628.15	1776.47
628.30	1785.83
628.45	1781.15
628.60	1736.68
628.76	1811.57
628.91	1755.40
629.06	1893.49
629.21	1893.49
629.36	2005.84
629.51	1900.52
629.66	2146.27
629.81	2197.76
629.96	2422.45
630.11	2717.36
630.26	2895.24
630.41	3105.89
630.56	3482.72
630.71	3747.20
630.86	3913.38
631.01	3538.89
631.16	3433.57
631.31	3026.31
631.46	2670.55
631.61	2307.77
631.76	1813.92
631.91	1572.84
632.06	1406.66
632.21	1193.67
632.36	1153.88
632.51	990.05
632.66	952.60
632.81	830.89
632.96	781.74
633.10	758.33
633.25	847.27
633.40	711.52
633.55	671.73
633.70	685.78
633.85	601.52
634.00	674.07
634.15	620.24
634.30	622.58
634.45	634.29
634.60	585.13
634.75	561.73
634.90	631.94
635.05	557.05
635.19	592.16
635.34	552.37
635.49	564.07
635.64	629.60
635.79	610.88
635.94	594.50
636.09	592.16
636.24	493.85
636.39	545.34
636.53	517.26
636.68	519.60
636.83	442.36
636.98	468.11
637.13	514.92
637.28	493.85
637.43	547.69
637.57	496.19
637.72	554.71
637.87	573.43
638.02	369.80
638.17	463.43
638.32	447.04
638.46	433.00
638.61	505.56
638.76	496.19
638.91	395.55
639.06	472.79
639.20	498.53
639.35	475.13
639.50	376.83
639.65	440.02
639.80	402.57
639.94	407.25
640.09	444.70
640.24	451.72
640.39	425.98
640.54	472.79
640.68	409.59
640.83	430.66
640.98	451.72
641.13	351.08
641.27	386.19
641.42	425.98
641.57	397.89
641.72	397.89
641.86	454.06
642.01	397.89
642.16	437.68
642.31	430.66
642.45	433.00
642.60	468.11
642.75	435.34
642.90	430.66
643.04	418.96
643.19	465.77
643.34	435.34
643.48	414.27
643.63	409.59
643.78	395.55
643.93	456.40
644.07	451.72
644.22	449.38
644.37	409.59
644.51	428.32
644.66	409.59
644.81	440.02
644.95	428.32
645.10	423.64
645.25	344.06
645.39	430.66
645.54	409.59
645.69	409.59
645.83	339.38
645.98	521.94
646.13	395.55
646.27	358.10
646.42	322.99
646.57	386.19
646.71	430.66
646.86	400.23
647.00	308.95
647.15	404.91
647.30	367.46
647.44	390.87
647.59	402.57
647.74	320.65
647.88	355.76
648.03	390.87
648.17	449.38
648.32	386.19
648.47	383.85
648.61	386.19
648.76	418.96
648.90	437.68
649.05	489.17
649.20	484.49
649.34	454.06
649.49	552.37
649.63	573.43
649.78	755.99
649.92	821.53
650.07	985.37
650.21	1156.22
650.36	1207.72
650.51	1022.81
650.65	1071.97
650.80	924.51
650.94	828.55
651.09	770.04
651.23	643.65
651.38	594.50
651.52	554.71
651.67	447.04
651.81	543.00
651.96	540.66
652.10	486.83
652.25	507.90
652.39	479.81
652.54	489.17
652.68	514.92
652.83	568.75
652.97	641.31
653.12	624.92
653.26	580.45
653.41	599.18
653.55	547.69
653.70	514.92
653.84	411.93
653.99	423.64
654.13	430.66
654.27	428.32
654.42	367.46
654.56	402.57
654.71	395.55
654.85	402.57
655.00	449.38
655.14	353.42
655.29	404.91
655.43	337.04
655.57	381.51
655.72	311.29
655.86	463.43
656.01	367.46
656.15	383.85
656.30	458.74
656.44	320.65
656.58	287.89
656.73	306.61
656.87	339.38
657.01	381.51
657.16	358.10
657.30	397.89
657.45	510.24
657.59	535.98
657.73	435.34
657.88	447.04
658.02	482.15
658.16	454.06
658.31	365.12
658.45	390.87
658.60	388.53
658.74	327.68
658.88	330.02
659.03	372.15
659.17	257.46
659.31	280.86
659.46	320.65
659.60	351.08
659.74	257.46
659.89	308.95
660.03	294.91
660.17	311.29
660.32	330.02
660.46	322.99
660.60	306.61
660.74	351.08
660.89	301.93
661.03	290.23
661.17	285.55
661.32	451.72
661.46	451.72
661.60	409.59
661.74	535.98
661.89	585.13
662.03	648.33
662.17	727.91
662.31	741.95
662.46	678.76
662.60	608.54
662.74	645.99
662.88	543.00
663.03	482.15
663.17	461.09
663.31	461.09
663.45	416.62
663.60	393.21
663.74	308.95
663.88	414.27
664.02	390.87
664.17	395.55
664.31	388.53
664.45	287.89
664.59	287.89
664.73	273.84
664.88	217.67
665.02	315.97
665.16	346.40
665.30	334.70
665.44	290.23
665.59	297.25
665.73	325.33
665.87	308.95
666.01	320.65
666.15	306.61
666.29	348.74
666.44	346.40
666.58	425.98
666.72	283.20
666.86	285.55
667.00	287.89
667.14	297.25
667.28	252.78
667.43	313.63
667.57	325.33
667.71	273.84
667.85	287.89
667.99	332.36
668.13	320.65
668.27	255.12
668.41	322.99
668.56	248.10
668.70	327.68
668.84	285.55
668.98	250.44
669.12	332.36
669.26	290.23
669.40	337.04
669.54	271.50
669.68	250.44
669.82	276.18
669.96	273.84
670.10	313.63
670.25	241.08
670.39	351.08
670.53	313.63
670.67	248.10
670.81	285.55
670.95	334.70
671.09	236.39
671.23	269.16
671.37	294.91
671.51	266.82
671.65	341.72
671.79	243.42
671.93	337.04
672.07	294.91
672.21	215.33
672.35	283.20
672.49	191.92
672.63	245.76
672.77	297.25
672.91	224.69
673.05	278.52
673.19	182.56
673.33	327.68
673.47	290.23
673.61	259.80
673.75	241.08
673.89	273.84
674.03	180.22
674.17	184.90
674.31	243.42
674.45	280.86
674.59	264.48
674.73	248.10
674.87	292.57
675.01	259.80
675.15	210.65
675.29	318.31
675.43	241.08
675.56	241.08
675.70	297.25
675.84	184.90
675.98	212.99
676.12	168.52
676.26	332.36
676.40	215.33
676.54	241.08
676.68	229.37
676.82	248.10
676.96	262.14
677.10	339.38
677.23	229.37
677.37	166.18
677.51	234.05
677.65	250.44
677.79	227.03
677.93	210.65
678.07	229.37
678.21	208.31
678.34	217.67
678.48	292.57
678.62	198.95
678.76	238.73
678.90	301.93
679.04	276.18
679.18	241.08
679.31	292.57
679.45	147.45
679.59	266.82
679.73	262.14
679.87	285.55
680.00	203.63
680.14	224.69
680.28	252.78
680.42	294.91
680.56	299.59
680.70	210.65
680.83	264.48
680.97	318.31
681.11	269.16
681.25	259.80
681.39	236.39
681.52	276.18
681.66	243.42
681.80	250.44
681.94	238.73
682.07	191.92
682.21	266.82
682.35	154.48
682.49	215.33
682.62	257.46
682.76	196.60
682.90	196.60
683.04	264.48
683.17	234.05
683.31	191.92
683.45	224.69
683.59	257.46
683.72	159.16
683.86	266.82
684.00	198.95
684.13	243.42
684.27	194.26
684.41	229.37
684.55	173.20
684.68	198.95
684.82	166.18
684.96	311.29
685.09	168.52
685.23	201.29
685.37	208.31
685.50	170.86
685.64	269.16
685.78	255.12
685.91	224.69
686.05	227.03
686.19	231.71
686.32	264.48
686.46	285.55
686.60	252.78
686.73	435.34
686.87	376.83
687.01	320.65
687.14	339.38
687.28	393.21
687.42	393.21
687.55	402.57
687.69	458.74
687.82	372.15
687.96	355.76
688.10	463.43
688.23	414.27
688.37	294.91
688.50	320.65
688.64	297.25
688.78	322.99
688.91	383.85
689.05	273.84
689.18	262.14
689.32	215.33
689.46	227.03
689.59	266.82
689.73	194.26
689.86	182.56
690.00	170.86
690.13	124.05
690.27	212.99
690.41	292.57
690.54	248.10
690.68	184.90
690.81	175.54
690.95	166.18
691.08	184.90
691.22	166.18
691.35	154.48
691.49	224.69
691.62	159.16
691.76	159.16
691.89	170.86
692.03	187.24
692.16	140.43
692.30	227.03
692.43	105.32
692.57	257.46
692.70	131.07
692.84	212.99
692.97	248.10
693.11	285.55
693.24	259.80
693.38	332.36
693.51	325.33
693.65	414.27
693.78	330.02
693.92	358.10
694.05	250.44
694.19	250.44
694.32	313.63
694.45	294.91
694.59	182.56
694.72	138.09
694.86	271.50
694.99	210.65
695.13	163.84
695.26	182.56
695.39	142.77
695.53	236.39
695.66	173.20
695.80	140.43
695.93	170.86
696.07	215.33
696.20	177.88
696.33	147.45
696.47	170.86
696.60	184.90
696.73	215.33
696.87	135.75
697.00	138.09
697.14	189.58
697.27	105.32
697.40	208.31
697.54	234.05
697.67	175.54
697.80	119.37
697.94	142.77
698.07	135.75
698.21	184.90
698.34	175.54
698.47	163.84
698.61	180.22
698.74	163.84
698.87	215.33
699.01	152.13
699.14	126.39
699.27	156.82
699.40	250.44
699.54	117.03
699.67	124.05
699.80	191.92
699.94	154.48
700.07	133.41
700.20	114.69
700.34	229.37
700.47	128.73
700.60	110.01
700.73	121.71
700.87	105.32
701.00	163.84
701.13	177.88
701.26	124.05
701.40	140.43
701.53	114.69
701.66	135.75
701.79	187.24
701.93	138.09
702.06	154.48
702.19	170.86
702.32	170.86
702.46	184.90
702.59	88.94
702.72	86.60
702.85	161.50
702.99	140.43
703.12	220.01
703.25	147.45
703.38	182.56
703.51	182.56
703.65	154.48
703.78	173.20
703.91	189.58
704.04	142.77
704.17	180.22
704.31	140.43
704.44	189.58
704.57	191.92
704.70	205.97
704.83	248.10
704.96	182.56
705.10	198.95
705.23	236.39
>>>>>End Processed Spectral Data<<<<<
