SpectraSuite Data File
++++++++++++++++++++++++++++++++++++
Date: Fri Oct 04 11:42:18 GMT-05:00 2013
User: price-jones
Dark Spectrum Present: No
Reference Spectrum Present: No
Number of Sampled Component Spectra: 1
Spectrometers: USB2+H05261
Integration Time (usec): 100000 (USB2+H05261)
Spectra Averaged: 1 (USB2+H05261)
Boxcar Smoothing: 0 (USB2+H05261)
Correct for Electrical Dark: No (USB2+H05261)
Strobe/Lamp Enabled: No (USB2+H05261)
Correct for Detector Non-linearity: No (USB2+H05261)
Correct for Stray Light: No (USB2+H05261)
Number of Pixels in Processed Spectrum: 2048
>>>>>Begin Processed Spectral Data<<<<<
365.73	74.90
365.92	74.90
366.12	74.90
366.32	0.00
366.52	0.00
366.72	37.45
366.91	0.00
367.11	0.00
367.31	0.00
367.51	0.00
367.70	0.00
367.90	0.00
368.10	0.00
368.30	0.00
368.49	0.00
368.69	0.00
368.89	0.00
369.09	2.34
369.28	0.00
369.48	0.00
369.68	0.00
369.87	28.09
370.07	0.00
370.27	42.13
370.47	11.70
370.66	14.04
370.86	7.02
371.06	117.03
371.25	117.03
371.45	35.11
371.65	81.92
371.84	102.98
372.04	14.04
372.24	32.77
372.44	35.11
372.63	131.07
372.83	203.63
373.03	138.09
373.22	119.37
373.42	81.92
373.62	173.20
373.81	58.51
374.01	163.84
374.21	135.75
374.40	114.69
374.60	93.62
374.79	105.32
374.99	126.39
375.19	133.41
375.38	107.66
375.58	152.13
375.78	140.43
375.97	145.11
376.17	147.45
376.37	112.35
376.56	149.79
376.76	42.13
376.95	133.41
377.15	131.07
377.35	133.41
377.54	142.77
377.74	98.30
377.93	152.13
378.13	100.64
378.33	198.95
378.52	88.94
378.72	149.79
378.91	88.94
379.11	95.96
379.31	91.28
379.50	86.60
379.70	77.24
379.89	149.79
380.09	98.30
380.28	95.96
380.48	121.71
380.68	112.35
380.87	110.01
381.07	105.32
381.26	138.09
381.46	135.75
381.65	100.64
381.85	84.26
382.04	81.92
382.24	110.01
382.43	56.17
382.63	147.45
382.83	147.45
383.02	105.32
383.22	63.19
383.41	112.35
383.61	51.49
383.80	112.35
384.00	203.63
384.19	86.60
384.39	105.32
384.58	107.66
384.78	93.62
384.97	110.01
385.17	138.09
385.36	98.30
385.56	149.79
385.75	112.35
385.95	65.54
386.14	124.05
386.34	86.60
386.53	121.71
386.72	88.94
386.92	110.01
387.11	133.41
387.31	138.09
387.50	100.64
387.70	30.43
387.89	102.98
388.09	145.11
388.28	60.85
388.48	67.88
388.67	149.79
388.86	124.05
389.06	95.96
389.25	100.64
389.45	86.60
389.64	135.75
389.84	131.07
390.03	110.01
390.22	105.32
390.42	152.13
390.61	159.16
390.81	124.05
391.00	117.03
391.19	149.79
391.39	175.54
391.58	161.50
391.78	166.18
391.97	140.43
392.16	133.41
392.36	203.63
392.55	126.39
392.75	145.11
392.94	170.86
393.13	107.66
393.33	25.75
393.52	173.20
393.71	133.41
393.91	128.73
394.10	98.30
394.29	133.41
394.49	93.62
394.68	149.79
394.88	100.64
395.07	173.20
395.26	67.88
395.46	145.11
395.65	126.39
395.84	135.75
396.04	175.54
396.23	128.73
396.42	77.24
396.62	147.45
396.81	117.03
397.00	81.92
397.19	98.30
397.39	168.52
397.58	159.16
397.77	154.48
397.97	124.05
398.16	170.86
398.35	112.35
398.55	184.90
398.74	117.03
398.93	107.66
399.12	131.07
399.32	135.75
399.51	49.15
399.70	131.07
399.90	166.18
400.09	180.22
400.28	72.56
400.47	93.62
400.67	187.24
400.86	196.60
401.05	152.13
401.24	184.90
401.44	208.31
401.63	128.73
401.82	159.16
402.01	81.92
402.21	177.88
402.40	168.52
402.59	173.20
402.78	81.92
402.97	77.24
403.17	102.98
403.36	189.58
403.55	241.08
403.74	271.50
403.93	737.27
404.13	1446.45
404.32	1600.93
404.51	1416.02
404.70	884.72
404.89	440.02
405.09	299.59
405.28	145.11
405.47	208.31
405.66	140.43
405.85	156.82
406.05	112.35
406.24	140.43
406.43	131.07
406.62	182.56
406.81	93.62
407.00	248.10
407.20	266.82
407.39	365.12
407.58	351.08
407.77	252.78
407.96	271.50
408.15	126.39
408.34	131.07
408.54	161.50
408.73	107.66
408.92	135.75
409.11	208.31
409.30	177.88
409.49	72.56
409.68	117.03
409.87	131.07
410.07	145.11
410.26	177.88
410.45	126.39
410.64	121.71
410.83	110.01
411.02	161.50
411.21	170.86
411.40	170.86
411.59	102.98
411.78	154.48
411.98	124.05
412.17	112.35
412.36	140.43
412.55	70.22
412.74	149.79
412.93	166.18
413.12	147.45
413.31	133.41
413.50	189.58
413.69	149.79
413.88	135.75
414.07	189.58
414.26	121.71
414.45	114.69
414.64	133.41
414.83	140.43
415.02	220.01
415.22	154.48
415.41	248.10
415.60	105.32
415.79	149.79
415.98	145.11
416.17	152.13
416.36	152.13
416.55	147.45
416.74	119.37
416.93	224.69
417.12	201.29
417.31	175.54
417.50	205.97
417.69	224.69
417.88	224.69
418.07	166.18
418.26	184.90
418.45	191.92
418.64	210.65
418.83	159.16
419.02	119.37
419.21	180.22
419.39	194.26
419.58	124.05
419.77	177.88
419.96	203.63
420.15	191.92
420.34	168.52
420.53	152.13
420.72	224.69
420.91	201.29
421.10	175.54
421.29	168.52
421.48	205.97
421.67	234.05
421.86	236.39
422.05	182.56
422.24	175.54
422.43	234.05
422.61	142.77
422.80	154.48
422.99	264.48
423.18	196.60
423.37	177.88
423.56	147.45
423.75	222.35
423.94	184.90
424.13	154.48
424.32	198.95
424.50	175.54
424.69	210.65
424.88	212.99
425.07	220.01
425.26	194.26
425.45	241.08
425.64	231.71
425.83	203.63
426.01	156.82
426.20	154.48
426.39	147.45
426.58	128.73
426.77	243.42
426.96	234.05
427.15	173.20
427.33	147.45
427.52	184.90
427.71	217.67
427.90	187.24
428.09	159.16
428.28	159.16
428.46	252.78
428.65	194.26
428.84	198.95
429.03	273.84
429.22	308.95
429.40	166.18
429.59	203.63
429.78	208.31
429.97	149.79
430.16	156.82
430.34	142.77
430.53	187.24
430.72	95.96
430.91	273.84
431.10	264.48
431.28	163.84
431.47	224.69
431.66	187.24
431.85	191.92
432.03	248.10
432.22	205.97
432.41	189.58
432.60	205.97
432.79	222.35
432.97	245.76
433.16	252.78
433.35	271.50
433.54	236.39
433.72	236.39
433.91	280.86
434.10	262.14
434.28	365.12
434.47	339.38
434.66	423.64
434.85	493.85
435.03	1125.80
435.22	3691.02
435.41	7056.72
435.59	6462.22
435.78	4191.90
435.97	2265.64
436.16	929.19
436.34	440.02
436.53	362.78
436.72	308.95
436.90	287.89
437.09	278.52
437.28	243.42
437.46	229.37
437.65	208.31
437.84	196.60
438.02	182.56
438.21	252.78
438.40	205.97
438.58	250.44
438.77	201.29
438.96	224.69
439.14	156.82
439.33	252.78
439.52	163.84
439.70	107.66
439.89	250.44
440.08	177.88
440.26	220.01
440.45	243.42
440.63	227.03
440.82	161.50
441.01	248.10
441.19	205.97
441.38	234.05
441.57	287.89
441.75	224.69
441.94	327.68
442.12	245.76
442.31	184.90
442.50	297.25
442.68	212.99
442.87	161.50
443.05	194.26
443.24	175.54
443.43	269.16
443.61	313.63
443.80	227.03
443.98	271.50
444.17	191.92
444.35	215.33
444.54	224.69
444.73	184.90
444.91	222.35
445.10	280.86
445.28	238.73
445.47	229.37
445.65	248.10
445.84	208.31
446.02	231.71
446.21	264.48
446.39	180.22
446.58	355.76
446.77	292.57
446.95	264.48
447.14	173.20
447.32	311.29
447.51	220.01
447.69	297.25
447.88	210.65
448.06	264.48
448.25	262.14
448.43	222.35
448.62	222.35
448.80	227.03
448.99	205.97
449.17	217.67
449.36	210.65
449.54	161.50
449.73	245.76
449.91	248.10
450.10	266.82
450.28	238.73
450.46	294.91
450.65	290.23
450.83	252.78
451.02	170.86
451.20	191.92
451.39	248.10
451.57	198.95
451.76	196.60
451.94	271.50
452.13	184.90
452.31	203.63
452.49	217.67
452.68	252.78
452.86	287.89
453.05	271.50
453.23	159.16
453.42	212.99
453.60	231.71
453.78	196.60
453.97	191.92
454.15	283.20
454.34	266.82
454.52	128.73
454.70	245.76
454.89	278.52
455.07	229.37
455.26	224.69
455.44	220.01
455.62	278.52
455.81	262.14
455.99	278.52
456.17	269.16
456.36	208.31
456.54	259.80
456.73	224.69
456.91	163.84
457.09	140.43
457.28	191.92
457.46	229.37
457.64	203.63
457.83	257.46
458.01	236.39
458.19	248.10
458.38	276.18
458.56	262.14
458.74	313.63
458.93	229.37
459.11	236.39
459.29	264.48
459.48	259.80
459.66	222.35
459.84	255.12
460.03	292.57
460.21	259.80
460.39	198.95
460.57	227.03
460.76	227.03
460.94	222.35
461.12	304.27
461.31	201.29
461.49	227.03
461.67	149.79
461.85	287.89
462.04	177.88
462.22	369.80
462.40	290.23
462.59	255.12
462.77	201.29
462.95	273.84
463.13	203.63
463.32	243.42
463.50	208.31
463.68	241.08
463.86	222.35
464.05	241.08
464.23	287.89
464.41	278.52
464.59	262.14
464.78	208.31
464.96	224.69
465.14	203.63
465.32	215.33
465.50	166.18
465.69	259.80
465.87	187.24
466.05	234.05
466.23	234.05
466.41	245.76
466.60	227.03
466.78	138.09
466.96	220.01
467.14	257.46
467.32	198.95
467.51	208.31
467.69	308.95
467.87	220.01
468.05	238.73
468.23	252.78
468.41	248.10
468.60	255.12
468.78	198.95
468.96	234.05
469.14	278.52
469.32	170.86
469.50	201.29
469.69	311.29
469.87	276.18
470.05	280.86
470.23	142.77
470.41	250.44
470.59	156.82
470.77	259.80
470.95	245.76
471.14	264.48
471.32	266.82
471.50	161.50
471.68	184.90
471.86	241.08
472.04	278.52
472.22	269.16
472.40	229.37
472.58	203.63
472.77	222.35
472.95	301.93
473.13	332.36
473.31	217.67
473.49	245.76
473.67	255.12
473.85	166.18
474.03	271.50
474.21	259.80
474.39	252.78
474.57	241.08
474.75	248.10
474.93	224.69
475.12	177.88
475.30	229.37
475.48	201.29
475.66	259.80
475.84	201.29
476.02	154.48
476.20	290.23
476.38	196.60
476.56	374.49
476.74	191.92
476.92	212.99
477.10	201.29
477.28	250.44
477.46	273.84
477.64	313.63
477.82	238.73
478.00	257.46
478.18	285.55
478.36	271.50
478.54	278.52
478.72	292.57
478.90	332.36
479.08	313.63
479.26	294.91
479.44	271.50
479.62	231.71
479.80	269.16
479.98	355.76
480.16	308.95
480.34	287.89
480.52	308.95
480.70	318.31
480.88	341.72
481.06	283.20
481.24	320.65
481.41	421.30
481.59	362.78
481.77	255.12
481.95	358.10
482.13	397.89
482.31	339.38
482.49	400.23
482.67	407.25
482.85	444.70
483.03	442.36
483.21	477.47
483.39	503.22
483.57	500.87
483.74	631.94
483.92	564.07
484.10	559.39
484.28	566.41
484.46	627.26
484.64	617.90
484.82	690.46
485.00	699.82
485.18	711.52
485.35	669.39
485.53	725.57
485.71	828.55
485.89	746.63
486.07	765.36
486.25	961.96
486.43	889.40
486.61	847.27
486.78	833.23
486.96	791.10
487.14	840.25
487.32	795.78
487.50	821.53
487.68	805.14
487.85	739.61
488.03	863.66
488.21	770.04
488.39	802.80
488.57	741.95
488.75	770.04
488.92	1069.62
489.10	676.41
489.28	781.74
489.46	690.46
489.64	697.48
489.81	732.59
489.99	653.01
490.17	770.04
490.35	725.57
490.53	690.46
490.70	753.65
490.88	730.25
491.06	755.99
491.24	683.44
491.41	671.73
491.59	692.80
491.77	692.80
491.95	657.69
492.13	622.58
492.30	578.11
492.48	617.90
492.66	664.71
492.84	641.31
493.01	706.84
493.19	641.31
493.37	702.16
493.54	636.63
493.72	543.00
493.90	505.56
494.08	599.18
494.25	711.52
494.43	573.43
494.61	636.63
494.79	533.64
494.96	573.43
495.14	402.57
495.32	547.69
495.49	622.58
495.67	528.96
495.85	524.28
496.02	552.37
496.20	521.94
496.38	575.77
496.55	603.86
496.73	507.90
496.91	381.51
497.09	578.11
497.26	489.17
497.44	491.51
497.62	482.15
497.79	514.92
497.97	484.49
498.14	444.70
498.32	404.91
498.50	535.98
498.67	458.74
498.85	475.13
499.03	510.24
499.20	433.00
499.38	404.91
499.56	414.27
499.73	414.27
499.91	468.11
500.08	442.36
500.26	348.74
500.44	330.02
500.61	400.23
500.79	400.23
500.97	372.15
501.14	341.72
501.32	409.59
501.49	369.80
501.67	358.10
501.84	360.44
502.02	325.33
502.20	444.70
502.37	418.96
502.55	355.76
502.72	341.72
502.90	339.38
503.07	353.42
503.25	339.38
503.43	308.95
503.60	276.18
503.78	325.33
503.95	198.95
504.13	362.78
504.30	245.76
504.48	407.25
504.65	346.40
504.83	358.10
505.01	234.05
505.18	248.10
505.36	301.93
505.53	372.15
505.71	330.02
505.88	358.10
506.06	372.15
506.23	315.97
506.41	292.57
506.58	315.97
506.76	322.99
506.93	332.36
507.11	217.67
507.28	304.27
507.46	269.16
507.63	264.48
507.81	311.29
507.98	245.76
508.16	245.76
508.33	231.71
508.50	294.91
508.68	341.72
508.85	369.80
509.03	250.44
509.20	313.63
509.38	376.83
509.55	311.29
509.73	351.08
509.90	355.76
510.08	304.27
510.25	290.23
510.42	351.08
510.60	332.36
510.77	241.08
510.95	266.82
511.12	205.97
511.30	290.23
511.47	252.78
511.64	330.02
511.82	201.29
511.99	372.15
512.17	334.70
512.34	297.25
512.51	283.20
512.69	315.97
512.86	339.38
513.04	287.89
513.21	271.50
513.38	271.50
513.56	271.50
513.73	245.76
513.90	245.76
514.08	280.86
514.25	264.48
514.43	299.59
514.60	290.23
514.77	266.82
514.95	325.33
515.12	297.25
515.29	285.55
515.47	322.99
515.64	292.57
515.81	306.61
515.99	322.99
516.16	271.50
516.33	292.57
516.51	320.65
516.68	220.01
516.85	308.95
517.03	243.42
517.20	273.84
517.37	283.20
517.54	283.20
517.72	278.52
517.89	257.46
518.06	222.35
518.24	241.08
518.41	264.48
518.58	341.72
518.75	269.16
518.93	297.25
519.10	224.69
519.27	266.82
519.45	241.08
519.62	294.91
519.79	304.27
519.96	278.52
520.14	285.55
520.31	330.02
520.48	318.31
520.65	250.44
520.83	245.76
521.00	318.31
521.17	297.25
521.34	236.39
521.52	299.59
521.69	271.50
521.86	294.91
522.03	353.42
522.20	297.25
522.38	351.08
522.55	278.52
522.72	222.35
522.89	299.59
523.07	376.83
523.24	259.80
523.41	257.46
523.58	376.83
523.75	306.61
523.92	299.59
524.10	308.95
524.27	294.91
524.44	322.99
524.61	301.93
524.78	294.91
524.96	306.61
525.13	276.18
525.30	285.55
525.47	238.73
525.64	332.36
525.81	285.55
525.98	311.29
526.16	264.48
526.33	304.27
526.50	262.14
526.67	278.52
526.84	252.78
527.01	332.36
527.18	346.40
527.36	365.12
527.53	337.04
527.70	353.42
527.87	297.25
528.04	428.32
528.21	372.15
528.38	372.15
528.55	421.30
528.72	411.93
528.89	421.30
529.07	315.97
529.24	301.93
529.41	299.59
529.58	337.04
529.75	280.86
529.92	358.10
530.09	332.36
530.26	374.49
530.43	433.00
530.60	285.55
530.77	430.66
530.94	311.29
531.11	369.80
531.28	330.02
531.46	390.87
531.63	299.59
531.80	320.65
531.97	372.15
532.14	381.51
532.31	444.70
532.48	468.11
532.65	451.72
532.82	505.56
532.99	538.32
533.16	641.31
533.33	601.52
533.50	559.39
533.67	582.79
533.84	540.66
534.01	500.87
534.18	493.85
534.35	559.39
534.52	425.98
534.69	491.51
534.86	472.79
535.03	465.77
535.20	472.79
535.37	531.30
535.54	559.39
535.71	573.43
535.88	557.05
536.05	638.97
536.22	660.03
536.38	667.05
536.55	767.70
536.72	739.61
536.89	777.06
537.06	777.06
537.23	924.51
537.40	959.62
537.57	1041.54
537.74	1093.03
537.91	1135.16
538.08	1015.79
538.25	1114.10
538.42	1093.03
538.59	1165.59
538.75	1107.07
538.92	1238.14
539.09	1390.28
539.26	1488.58
539.43	1589.22
539.60	1842.00
539.77	2012.86
539.94	2162.66
540.11	2300.75
540.28	2511.39
540.44	2874.18
540.61	3150.36
540.78	3506.12
540.95	4126.36
541.12	4929.17
541.29	5280.25
541.46	5579.84
541.62	5533.03
541.79	5401.96
541.96	4816.82
542.13	4725.54
542.30	4451.70
542.47	4351.06
542.63	4095.94
542.80	3861.88
542.97	3913.38
543.14	3702.73
543.31	3775.28
543.48	3911.04
543.64	3971.89
543.81	3943.80
543.98	3868.91
544.15	3878.27
544.32	3983.59
544.48	4053.81
544.65	3882.95
544.82	3768.26
544.99	3749.54
545.16	3896.99
545.32	4119.34
545.49	7655.89
545.66	13104.66
545.83	14588.56
546.00	12283.13
546.16	8585.08
546.33	6333.49
546.50	5001.72
546.67	3962.53
546.83	3449.95
547.00	3283.77
547.17	3150.36
547.34	3152.70
547.50	3073.12
547.67	2902.26
547.84	2731.41
548.00	2773.53
548.17	2476.29
548.34	2471.61
548.51	2532.46
548.67	2487.99
548.84	2275.00
549.01	2071.37
549.18	2129.89
549.34	1926.26
549.51	1863.07
549.68	1907.54
549.84	1823.28
550.01	1813.92
550.18	1652.42
550.34	1666.46
550.51	1624.33
550.68	1549.43
550.84	1348.15
551.01	1315.38
551.18	1378.58
551.34	1163.25
551.51	1146.86
551.68	1284.95
551.84	1163.25
552.01	1036.86
552.18	1123.46
552.34	1076.65
552.51	1020.47
552.68	910.47
552.84	863.66
553.01	915.15
553.18	964.30
553.34	887.06
553.51	887.06
553.67	851.96
553.84	800.46
554.01	786.42
554.17	709.18
554.34	608.54
554.51	716.20
554.67	690.46
554.84	629.60
555.00	550.03
555.17	622.58
555.33	568.75
555.50	496.19
555.67	482.15
555.83	514.92
556.00	528.96
556.16	676.41
556.33	425.98
556.50	486.83
556.66	491.51
556.83	486.83
556.99	416.62
557.16	433.00
557.32	414.27
557.49	512.58
557.65	451.72
557.82	395.55
557.98	416.62
558.15	355.76
558.32	283.20
558.48	372.15
558.65	437.68
558.81	390.87
558.98	411.93
559.14	367.46
559.31	402.57
559.47	379.17
559.64	315.97
559.80	360.44
559.97	320.65
560.13	330.02
560.30	337.04
560.46	353.42
560.63	327.68
560.79	388.53
560.96	358.10
561.12	393.21
561.29	351.08
561.45	390.87
561.61	418.96
561.78	456.40
561.94	372.15
562.11	344.06
562.27	372.15
562.44	346.40
562.60	304.27
562.77	433.00
562.93	416.62
563.10	379.17
563.26	332.36
563.42	344.06
563.59	374.49
563.75	257.46
563.92	386.19
564.08	355.76
564.24	386.19
564.41	332.36
564.57	332.36
564.74	327.68
564.90	346.40
565.07	290.23
565.23	381.51
565.39	313.63
565.56	322.99
565.72	262.14
565.88	313.63
566.05	271.50
566.21	360.44
566.38	365.12
566.54	313.63
566.70	299.59
566.87	353.42
567.03	355.76
567.19	290.23
567.36	308.95
567.52	313.63
567.68	311.29
567.85	330.02
568.01	362.78
568.17	313.63
568.34	283.20
568.50	386.19
568.66	259.80
568.83	332.36
568.99	320.65
569.15	404.91
569.32	294.91
569.48	313.63
569.64	320.65
569.81	313.63
569.97	330.02
570.13	339.38
570.30	315.97
570.46	259.80
570.62	325.33
570.78	203.63
570.95	287.89
571.11	367.46
571.27	259.80
571.43	224.69
571.60	264.48
571.76	252.78
571.92	299.59
572.09	266.82
572.25	259.80
572.41	322.99
572.57	250.44
572.74	337.04
572.90	362.78
573.06	358.10
573.22	304.27
573.38	301.93
573.55	308.95
573.71	341.72
573.87	376.83
574.03	297.25
574.20	334.70
574.36	351.08
574.52	407.25
574.68	304.27
574.84	351.08
575.01	365.12
575.17	353.42
575.33	346.40
575.49	407.25
575.65	376.83
575.82	332.36
575.98	390.87
576.14	465.77
576.30	727.91
576.46	1844.34
576.62	2628.42
576.79	2656.51
576.95	1877.11
577.11	1366.87
577.27	1006.43
577.43	828.55
577.59	554.71
577.75	543.00
577.92	507.90
578.08	521.94
578.24	475.13
578.40	781.74
578.56	1736.68
578.72	2377.98
578.88	2548.84
579.04	1893.49
579.21	1369.21
579.37	1029.84
579.53	875.36
579.69	898.77
579.85	1062.60
580.01	1205.38
580.17	1121.12
580.33	1004.09
580.49	924.51
580.65	856.64
580.82	657.69
580.98	781.74
581.14	746.63
581.30	819.19
581.46	889.40
581.62	919.83
581.78	912.81
581.94	987.71
582.10	957.28
582.26	1090.69
582.42	1130.48
582.58	1139.84
582.74	1046.22
582.90	1104.73
583.06	1160.91
583.22	1252.19
583.38	1172.61
583.54	1170.27
583.70	1144.52
583.86	1135.16
584.02	1111.75
584.18	1165.59
584.34	1184.31
584.50	1011.11
584.66	1090.69
584.82	1069.62
584.98	983.02
585.14	1018.13
585.30	1067.28
585.46	1064.94
585.62	901.11
585.78	1004.09
585.94	1011.11
586.10	999.41
586.26	1062.60
586.42	1238.14
586.58	1373.89
586.74	1687.53
586.90	1771.79
587.06	2057.33
587.22	1942.64
587.38	1717.95
587.54	1537.73
587.70	1387.94
587.86	1219.42
588.02	1057.92
588.18	1015.79
588.34	903.45
588.49	866.00
588.65	723.23
588.81	784.08
588.97	770.04
589.13	730.25
589.29	709.18
589.45	685.78
589.61	723.23
589.77	683.44
589.93	704.50
590.08	788.76
590.24	678.76
590.40	730.25
590.56	763.01
590.72	793.44
590.88	746.63
591.04	807.48
591.20	830.89
591.35	873.02
591.51	779.40
591.67	936.21
591.83	901.11
591.99	1111.75
592.15	1118.78
592.31	1193.67
592.46	1217.08
592.62	1530.71
592.78	1364.53
592.94	1404.32
593.10	1460.49
593.26	1317.72
593.41	1310.70
593.57	1139.84
593.73	1025.15
593.89	1027.50
594.05	924.51
594.20	732.59
594.36	638.97
594.52	758.33
594.68	627.26
594.84	739.61
594.99	744.29
595.15	601.52
595.31	699.82
595.47	678.76
595.62	669.39
595.78	645.99
595.94	615.56
596.10	648.33
596.25	674.07
596.41	711.52
596.57	589.82
596.73	622.58
596.88	641.31
597.04	669.39
597.20	620.24
597.36	608.54
597.51	622.58
597.67	692.80
597.83	688.12
597.99	758.33
598.14	741.95
598.30	812.17
598.46	830.89
598.61	884.72
598.77	994.73
598.93	990.05
599.09	997.07
599.24	997.07
599.40	957.28
599.56	957.28
599.71	896.43
599.87	903.45
600.03	793.44
600.18	732.59
600.34	755.99
600.50	688.12
600.65	667.05
600.81	667.05
600.97	559.39
601.12	557.05
601.28	608.54
601.44	521.94
601.59	543.00
601.75	503.22
601.91	585.13
602.06	594.50
602.22	500.87
602.37	557.05
602.53	580.45
602.69	519.60
602.84	526.62
603.00	528.96
603.16	524.28
603.31	566.41
603.47	557.05
603.62	519.60
603.78	454.06
603.94	496.19
604.09	526.62
604.25	587.47
604.40	561.73
604.56	514.92
604.71	561.73
604.87	491.51
605.03	505.56
605.18	526.62
605.34	561.73
605.49	622.58
605.65	554.71
605.80	552.37
605.96	573.43
606.12	587.47
606.27	629.60
606.43	664.71
606.58	748.97
606.74	751.31
606.89	727.91
607.05	760.67
607.20	807.48
607.36	887.06
607.51	901.11
607.67	976.00
607.82	1011.11
607.98	1067.28
608.13	1048.56
608.29	1064.94
608.44	1294.32
608.60	1207.72
608.75	1416.02
608.91	1542.41
609.06	1694.55
609.22	1790.51
609.37	1858.39
609.53	2157.97
609.68	2431.82
609.84	2810.98
609.99	3272.07
610.15	3756.56
610.30	4557.02
610.46	5919.21
610.61	7648.87
610.76	9717.90
610.92	11529.48
611.07	12547.61
611.23	12924.44
611.38	11875.88
611.54	10553.48
611.69	8961.91
611.84	7592.70
612.00	6401.37
612.15	5423.02
612.31	4821.50
612.46	4285.52
612.62	4018.70
612.77	3826.78
612.92	3695.71
613.08	3456.97
613.23	3206.53
613.39	3103.55
613.54	3082.49
613.69	3049.72
613.85	2965.46
614.00	2909.29
614.15	2960.78
614.31	2883.54
614.46	2789.92
614.62	2698.64
614.77	2640.12
614.92	2438.84
615.08	2258.62
615.23	2094.78
615.38	2029.24
615.54	1823.28
615.69	1638.38
615.84	1570.50
616.00	1516.67
616.15	1383.26
616.30	1336.45
616.46	1196.01
616.61	1200.69
616.76	1095.37
616.92	1015.79
617.07	987.71
617.22	1060.26
617.37	945.58
617.53	898.77
617.68	947.92
617.83	814.51
617.99	887.06
618.14	837.91
618.29	954.94
618.45	854.30
618.60	725.57
618.75	821.53
618.90	741.95
619.06	819.19
619.21	823.87
619.36	795.78
619.51	746.63
619.67	807.48
619.82	812.17
619.97	805.14
620.12	737.27
620.28	866.00
620.43	805.14
620.58	887.06
620.73	863.66
620.89	849.61
621.04	840.25
621.19	770.04
621.34	807.48
621.49	784.08
621.65	833.23
621.80	851.96
621.95	744.29
622.10	751.31
622.25	741.95
622.41	777.06
622.56	795.78
622.71	858.98
622.86	873.02
623.01	826.21
623.16	894.08
623.32	812.17
623.47	741.95
623.62	840.25
623.77	840.25
623.92	882.38
624.07	849.61
624.23	826.21
624.38	851.96
624.53	863.66
624.68	793.44
624.83	828.55
624.98	830.89
625.13	842.59
625.29	763.01
625.44	870.68
625.59	851.96
625.74	837.91
625.89	1022.81
626.04	880.04
626.19	821.53
626.34	873.02
626.49	819.19
626.65	903.45
626.80	791.10
626.95	882.38
627.10	748.97
627.25	840.25
627.40	798.12
627.55	819.19
627.70	830.89
627.85	826.21
628.00	791.10
628.15	763.01
628.30	777.06
628.45	730.25
628.60	798.12
628.76	807.48
628.91	793.44
629.06	828.55
629.21	880.04
629.36	812.17
629.51	784.08
629.66	870.68
629.81	894.08
629.96	992.39
630.11	1149.20
630.26	1233.46
630.41	1310.70
630.56	1430.07
630.71	1427.73
630.86	1568.16
631.01	1467.52
631.16	1380.92
631.31	1284.95
631.46	1132.82
631.61	894.08
631.76	809.83
631.91	791.10
632.06	631.94
632.21	585.13
632.36	575.77
632.51	411.93
632.66	496.19
632.81	421.30
632.96	503.22
633.10	421.30
633.25	451.72
633.40	465.77
633.55	465.77
633.70	318.31
633.85	386.19
634.00	393.21
634.15	308.95
634.30	425.98
634.45	369.80
634.60	311.29
634.75	299.59
634.90	365.12
635.05	416.62
635.19	332.36
635.34	301.93
635.49	374.49
635.64	266.82
635.79	325.33
635.94	376.83
636.09	255.12
636.24	330.02
636.39	301.93
636.53	339.38
636.68	285.55
636.83	407.25
636.98	376.83
637.13	334.70
637.28	301.93
637.43	308.95
637.57	325.33
637.72	311.29
637.87	299.59
638.02	280.86
638.17	301.93
638.32	278.52
638.46	290.23
638.61	390.87
638.76	280.86
638.91	255.12
639.06	271.50
639.20	269.16
639.35	283.20
639.50	266.82
639.65	271.50
639.80	241.08
639.94	308.95
640.09	360.44
640.24	259.80
640.39	332.36
640.54	255.12
640.68	215.33
640.83	269.16
640.98	248.10
641.13	278.52
641.27	327.68
641.42	196.60
641.57	346.40
641.72	278.52
641.86	381.51
642.01	308.95
642.16	346.40
642.31	278.52
642.45	330.02
642.60	250.44
642.75	341.72
642.90	269.16
643.04	243.42
643.19	285.55
643.34	285.55
643.48	205.97
643.63	234.05
643.78	344.06
643.93	283.20
644.07	290.23
644.22	210.65
644.37	224.69
644.51	276.18
644.66	243.42
644.81	278.52
644.95	245.76
645.10	252.78
645.25	222.35
645.39	339.38
645.54	238.73
645.69	241.08
645.83	304.27
645.98	313.63
646.13	264.48
646.27	339.38
646.42	276.18
646.57	278.52
646.71	257.46
646.86	248.10
647.00	276.18
647.15	243.42
647.30	273.84
647.44	189.58
647.59	203.63
647.74	245.76
647.88	269.16
648.03	273.84
648.17	264.48
648.32	234.05
648.47	194.26
648.61	266.82
648.76	215.33
648.90	234.05
649.05	231.71
649.20	271.50
649.34	332.36
649.49	266.82
649.63	299.59
649.78	348.74
649.92	425.98
650.07	472.79
650.21	533.64
650.36	552.37
650.51	568.75
650.65	540.66
650.80	411.93
650.94	372.15
651.09	344.06
651.23	362.78
651.38	301.93
651.52	344.06
651.67	271.50
651.81	278.52
651.96	313.63
652.10	290.23
652.25	327.68
652.39	367.46
652.54	311.29
652.68	393.21
652.83	330.02
652.97	367.46
653.12	306.61
653.26	306.61
653.41	383.85
653.55	320.65
653.70	285.55
653.84	339.38
653.99	322.99
654.13	198.95
654.27	276.18
654.42	285.55
654.56	318.31
654.71	229.37
654.85	283.20
655.00	259.80
655.14	231.71
655.29	170.86
655.43	245.76
655.57	294.91
655.72	278.52
655.86	252.78
656.01	250.44
656.15	262.14
656.30	252.78
656.44	259.80
656.58	229.37
656.73	241.08
656.87	173.20
657.01	264.48
657.16	273.84
657.30	278.52
657.45	238.73
657.59	180.22
657.73	292.57
657.88	283.20
658.02	243.42
658.16	273.84
658.31	287.89
658.45	264.48
658.60	224.69
658.74	308.95
658.88	191.92
659.03	245.76
659.17	227.03
659.31	287.89
659.46	210.65
659.60	304.27
659.74	241.08
659.89	231.71
660.03	283.20
660.17	220.01
660.32	276.18
660.46	241.08
660.60	194.26
660.74	241.08
660.89	278.52
661.03	212.99
661.17	217.67
661.32	297.25
661.46	241.08
661.60	234.05
661.74	250.44
661.89	332.36
662.03	416.62
662.17	362.78
662.31	456.40
662.46	358.10
662.60	294.91
662.74	311.29
662.88	346.40
663.03	231.71
663.17	280.86
663.31	259.80
663.45	227.03
663.60	175.54
663.74	245.76
663.88	133.41
664.02	262.14
664.17	224.69
664.31	177.88
664.45	205.97
664.59	294.91
664.73	318.31
664.88	222.35
665.02	212.99
665.16	196.60
665.30	175.54
665.44	163.84
665.59	194.26
665.73	203.63
665.87	163.84
666.01	175.54
666.15	163.84
666.29	222.35
666.44	294.91
666.58	304.27
666.72	194.26
666.86	217.67
667.00	257.46
667.14	269.16
667.28	234.05
667.43	173.20
667.57	212.99
667.71	262.14
667.85	177.88
667.99	163.84
668.13	191.92
668.27	248.10
668.41	299.59
668.56	234.05
668.70	278.52
668.84	238.73
668.98	243.42
669.12	203.63
669.26	234.05
669.40	264.48
669.54	264.48
669.68	229.37
669.82	224.69
669.96	173.20
670.10	210.65
670.25	180.22
670.39	248.10
670.53	194.26
670.67	194.26
670.81	222.35
670.95	252.78
671.09	229.37
671.23	222.35
671.37	255.12
671.51	257.46
671.65	241.08
671.79	238.73
671.93	257.46
672.07	182.56
672.21	311.29
672.35	180.22
672.49	205.97
672.63	241.08
672.77	168.52
672.91	196.60
673.05	175.54
673.19	131.07
673.33	210.65
673.47	231.71
673.61	168.52
673.75	170.86
673.89	166.18
674.03	212.99
674.17	173.20
674.31	198.95
674.45	182.56
674.59	201.29
674.73	215.33
674.87	161.50
675.01	121.71
675.15	201.29
675.29	236.39
675.43	203.63
675.56	266.82
675.70	196.60
675.84	194.26
675.98	140.43
676.12	175.54
676.26	182.56
676.40	170.86
676.54	163.84
676.68	163.84
676.82	229.37
676.96	166.18
677.10	100.64
677.23	166.18
677.37	180.22
677.51	215.33
677.65	198.95
677.79	135.75
677.93	180.22
678.07	163.84
678.21	133.41
678.34	271.50
678.48	102.98
678.62	241.08
678.76	145.11
678.90	138.09
679.04	147.45
679.18	229.37
679.31	201.29
679.45	147.45
679.59	189.58
679.73	215.33
679.87	161.50
680.00	198.95
680.14	198.95
680.28	252.78
680.42	133.41
680.56	266.82
680.70	177.88
680.83	184.90
680.97	191.92
681.11	229.37
681.25	234.05
681.39	170.86
681.52	212.99
681.66	187.24
681.80	173.20
681.94	217.67
682.07	170.86
682.21	152.13
682.35	227.03
682.49	191.92
682.62	227.03
682.76	196.60
682.90	222.35
683.04	170.86
683.17	231.71
683.31	114.69
683.45	231.71
683.59	189.58
683.72	210.65
683.86	161.50
684.00	191.92
684.13	217.67
684.27	138.09
684.41	212.99
684.55	184.90
684.68	166.18
684.82	163.84
684.96	133.41
685.09	147.45
685.23	201.29
685.37	245.76
685.50	238.73
685.64	238.73
685.78	135.75
685.91	184.90
686.05	203.63
686.19	147.45
686.32	283.20
686.46	168.52
686.60	257.46
686.73	201.29
686.87	292.57
687.01	177.88
687.14	196.60
687.28	215.33
687.42	264.48
687.55	259.80
687.69	297.25
687.82	250.44
687.96	227.03
688.10	210.65
688.23	161.50
688.37	278.52
688.50	276.18
688.64	252.78
688.78	196.60
688.91	196.60
689.05	215.33
689.18	100.64
689.32	152.13
689.46	212.99
689.59	180.22
689.73	201.29
689.86	145.11
690.00	163.84
690.13	86.60
690.27	187.24
690.41	142.77
690.54	154.48
690.68	224.69
690.81	255.12
690.95	102.98
691.08	166.18
691.22	107.66
691.35	140.43
691.49	159.16
691.62	147.45
691.76	81.92
691.89	142.77
692.03	198.95
692.16	121.71
692.30	210.65
692.43	163.84
692.57	107.66
692.70	81.92
692.84	175.54
692.97	102.98
693.11	180.22
693.24	173.20
693.38	161.50
693.51	140.43
693.65	170.86
693.78	191.92
693.92	205.97
694.05	170.86
694.19	154.48
694.32	114.69
694.45	161.50
694.59	119.37
694.72	117.03
694.86	166.18
694.99	173.20
695.13	121.71
695.26	124.05
695.39	133.41
695.53	114.69
695.66	168.52
695.80	138.09
695.93	133.41
696.07	189.58
696.20	168.52
696.33	196.60
696.47	131.07
696.60	95.96
696.73	133.41
696.87	149.79
697.00	208.31
697.14	177.88
697.27	49.15
697.40	187.24
697.54	98.30
697.67	74.90
697.80	182.56
697.94	180.22
698.07	110.01
698.21	119.37
698.34	180.22
698.47	191.92
698.61	105.32
698.74	152.13
698.87	208.31
699.01	163.84
699.14	131.07
699.27	142.77
699.40	208.31
699.54	114.69
699.67	53.83
699.80	147.45
699.94	126.39
700.07	60.85
700.20	138.09
700.34	212.99
700.47	145.11
700.60	163.84
700.73	191.92
700.87	149.79
701.00	110.01
701.13	229.37
701.26	201.29
701.40	147.45
701.53	117.03
701.66	81.92
701.79	88.94
701.93	156.82
702.06	159.16
702.19	245.76
702.32	166.18
702.46	196.60
702.59	138.09
702.72	72.56
702.85	112.35
702.99	166.18
703.12	159.16
703.25	191.92
703.38	191.92
703.51	102.98
703.65	177.88
703.78	119.37
703.91	191.92
704.04	217.67
704.17	217.67
704.31	91.28
704.44	156.82
704.57	182.56
704.70	131.07
704.83	114.69
704.96	126.39
705.10	201.29
705.23	154.48
>>>>>End Processed Spectral Data<<<<<
