SpectraSuite Data File
++++++++++++++++++++++++++++++++++++
Date: Fri Oct 04 11:42:19 GMT-05:00 2013
User: price-jones
Dark Spectrum Present: No
Reference Spectrum Present: No
Number of Sampled Component Spectra: 1
Spectrometers: USB2+H05261
Integration Time (usec): 100000 (USB2+H05261)
Spectra Averaged: 1 (USB2+H05261)
Boxcar Smoothing: 0 (USB2+H05261)
Correct for Electrical Dark: No (USB2+H05261)
Strobe/Lamp Enabled: No (USB2+H05261)
Correct for Detector Non-linearity: No (USB2+H05261)
Correct for Stray Light: No (USB2+H05261)
Number of Pixels in Processed Spectrum: 2048
>>>>>Begin Processed Spectral Data<<<<<
365.73	0.00
365.92	0.00
366.12	0.00
366.32	11.70
366.52	0.00
366.72	0.00
366.91	0.00
367.11	0.00
367.31	0.00
367.51	0.00
367.70	0.00
367.90	0.00
368.10	0.00
368.30	0.00
368.49	0.00
368.69	42.13
368.89	0.00
369.09	0.00
369.28	0.00
369.48	0.00
369.68	0.00
369.87	0.00
370.07	0.00
370.27	65.54
370.47	53.83
370.66	0.00
370.86	9.36
371.06	77.24
371.25	100.64
371.45	28.09
371.65	79.58
371.84	9.36
372.04	35.11
372.24	84.26
372.44	81.92
372.63	149.79
372.83	147.45
373.03	67.88
373.22	107.66
373.42	65.54
373.62	81.92
373.81	205.97
374.01	145.11
374.21	126.39
374.40	126.39
374.60	95.96
374.79	114.69
374.99	65.54
375.19	133.41
375.38	163.84
375.58	220.01
375.78	208.31
375.97	117.03
376.17	224.69
376.37	135.75
376.56	142.77
376.76	79.58
376.95	117.03
377.15	126.39
377.35	135.75
377.54	126.39
377.74	114.69
377.93	121.71
378.13	119.37
378.33	79.58
378.52	88.94
378.72	147.45
378.91	175.54
379.11	56.17
379.31	100.64
379.50	93.62
379.70	128.73
379.89	152.13
380.09	145.11
380.28	74.90
380.48	112.35
380.68	77.24
380.87	67.88
381.07	84.26
381.26	145.11
381.46	156.82
381.65	98.30
381.85	173.20
382.04	189.58
382.24	72.56
382.43	81.92
382.63	28.09
382.83	149.79
383.02	182.56
383.22	131.07
383.41	173.20
383.61	135.75
383.80	86.60
384.00	56.17
384.19	46.81
384.39	140.43
384.58	161.50
384.78	72.56
384.97	156.82
385.17	110.01
385.36	112.35
385.56	110.01
385.75	58.51
385.95	86.60
386.14	189.58
386.34	140.43
386.53	149.79
386.72	121.71
386.92	138.09
387.11	84.26
387.31	133.41
387.50	114.69
387.70	72.56
387.89	93.62
388.09	121.71
388.28	95.96
388.48	42.13
388.67	121.71
388.86	105.32
389.06	81.92
389.25	102.98
389.45	95.96
389.64	102.98
389.84	128.73
390.03	98.30
390.22	124.05
390.42	102.98
390.61	124.05
390.81	154.48
391.00	198.95
391.19	184.90
391.39	91.28
391.58	93.62
391.78	110.01
391.97	168.52
392.16	117.03
392.36	88.94
392.55	121.71
392.75	170.86
392.94	110.01
393.13	161.50
393.33	114.69
393.52	105.32
393.71	156.82
393.91	79.58
394.10	163.84
394.29	124.05
394.49	128.73
394.68	110.01
394.88	70.22
395.07	117.03
395.26	95.96
395.46	58.51
395.65	86.60
395.84	126.39
396.04	212.99
396.23	46.81
396.42	149.79
396.62	81.92
396.81	194.26
397.00	84.26
397.19	124.05
397.39	56.17
397.58	191.92
397.77	60.85
397.97	105.32
398.16	91.28
398.35	131.07
398.55	102.98
398.74	128.73
398.93	124.05
399.12	63.19
399.32	110.01
399.51	133.41
399.70	194.26
399.90	140.43
400.09	163.84
400.28	149.79
400.47	86.60
400.67	159.16
400.86	180.22
401.05	133.41
401.24	227.03
401.44	140.43
401.63	175.54
401.82	182.56
402.01	112.35
402.21	154.48
402.40	142.77
402.59	182.56
402.78	84.26
402.97	173.20
403.17	182.56
403.36	149.79
403.55	159.16
403.74	510.24
403.93	1336.45
404.13	2752.47
404.32	3096.53
404.51	2516.08
404.70	1474.54
404.89	638.97
405.09	334.70
405.28	182.56
405.47	205.97
405.66	248.10
405.85	250.44
406.05	196.60
406.24	166.18
406.43	93.62
406.62	161.50
406.81	191.92
407.00	318.31
407.20	482.15
407.39	505.56
407.58	435.34
407.77	409.59
407.96	264.48
408.15	159.16
408.34	100.64
408.54	51.49
408.73	168.52
408.92	128.73
409.11	205.97
409.30	182.56
409.49	131.07
409.68	156.82
409.87	142.77
410.07	119.37
410.26	166.18
410.45	210.65
410.64	117.03
410.83	163.84
411.02	187.24
411.21	196.60
411.40	177.88
411.59	175.54
411.78	110.01
411.98	147.45
412.17	191.92
412.36	180.22
412.55	77.24
412.74	133.41
412.93	220.01
413.12	131.07
413.31	224.69
413.50	194.26
413.69	86.60
413.88	224.69
414.07	131.07
414.26	159.16
414.45	205.97
414.64	166.18
414.83	163.84
415.02	145.11
415.22	241.08
415.41	166.18
415.60	112.35
415.79	173.20
415.98	168.52
416.17	138.09
416.36	161.50
416.55	205.97
416.74	212.99
416.93	285.55
417.12	140.43
417.31	156.82
417.50	196.60
417.69	189.58
417.88	198.95
418.07	229.37
418.26	189.58
418.45	182.56
418.64	229.37
418.83	138.09
419.02	224.69
419.21	236.39
419.39	262.14
419.58	203.63
419.77	187.24
419.96	259.80
420.15	189.58
420.34	189.58
420.53	187.24
420.72	145.11
420.91	227.03
421.10	191.92
421.29	114.69
421.48	224.69
421.67	217.67
421.86	159.16
422.05	88.94
422.24	205.97
422.43	182.56
422.61	224.69
422.80	220.01
422.99	182.56
423.18	196.60
423.37	224.69
423.56	203.63
423.75	177.88
423.94	180.22
424.13	184.90
424.32	159.16
424.50	220.01
424.69	173.20
424.88	248.10
425.07	224.69
425.26	255.12
425.45	224.69
425.64	229.37
425.83	191.92
426.01	259.80
426.20	184.90
426.39	194.26
426.58	250.44
426.77	205.97
426.96	215.33
427.15	224.69
427.33	208.31
427.52	217.67
427.71	257.46
427.90	227.03
428.09	222.35
428.28	177.88
428.46	227.03
428.65	255.12
428.84	280.86
429.03	262.14
429.22	205.97
429.40	294.91
429.59	212.99
429.78	306.61
429.97	215.33
430.16	198.95
430.34	224.69
430.53	212.99
430.72	318.31
430.91	320.65
431.10	234.05
431.28	203.63
431.47	194.26
431.66	255.12
431.85	262.14
432.03	262.14
432.22	327.68
432.41	250.44
432.60	241.08
432.79	292.57
432.97	327.68
433.16	358.10
433.35	313.63
433.54	311.29
433.72	425.98
433.91	372.15
434.10	374.49
434.28	496.19
434.47	543.00
434.66	582.79
434.85	767.70
435.03	2258.62
435.22	7817.39
435.41	14218.75
435.59	12662.30
435.78	8287.84
435.97	4152.11
436.16	1638.38
436.34	641.31
436.53	505.56
436.72	489.17
436.90	327.68
437.09	339.38
437.28	315.97
437.46	308.95
437.65	362.78
437.84	360.44
438.02	308.95
438.21	362.78
438.40	308.95
438.58	234.05
438.77	330.02
438.96	393.21
439.14	280.86
439.33	294.91
439.52	231.71
439.70	358.10
439.89	259.80
440.08	313.63
440.26	327.68
440.45	341.72
440.63	318.31
440.82	252.78
441.01	271.50
441.19	205.97
441.38	299.59
441.57	290.23
441.75	369.80
441.94	306.61
442.12	320.65
442.31	208.31
442.50	266.82
442.68	292.57
442.87	332.36
443.05	304.27
443.24	262.14
443.43	259.80
443.61	276.18
443.80	243.42
443.98	259.80
444.17	299.59
444.35	306.61
444.54	231.71
444.73	290.23
444.91	344.06
445.10	273.84
445.28	231.71
445.47	365.12
445.65	290.23
445.84	306.61
446.02	201.29
446.21	205.97
446.39	269.16
446.58	341.72
446.77	292.57
446.95	332.36
447.14	304.27
447.32	339.38
447.51	241.08
447.69	353.42
447.88	262.14
448.06	294.91
448.25	262.14
448.43	280.86
448.62	248.10
448.80	278.52
448.99	269.16
449.17	304.27
449.36	360.44
449.54	243.42
449.73	255.12
449.91	283.20
450.10	287.89
450.28	393.21
450.46	332.36
450.65	334.70
450.83	257.46
451.02	320.65
451.20	276.18
451.39	304.27
451.57	245.76
451.76	278.52
451.94	346.40
452.13	285.55
452.31	273.84
452.49	301.93
452.68	264.48
452.86	276.18
453.05	299.59
453.23	276.18
453.42	262.14
453.60	266.82
453.78	330.02
453.97	334.70
454.15	322.99
454.34	311.29
454.52	301.93
454.70	320.65
454.89	257.46
455.07	299.59
455.26	304.27
455.44	348.74
455.62	318.31
455.81	212.99
455.99	351.08
456.17	330.02
456.36	337.04
456.54	287.89
456.73	208.31
456.91	196.60
457.09	311.29
457.28	339.38
457.46	341.72
457.64	318.31
457.83	337.04
458.01	285.55
458.19	203.63
458.38	290.23
458.56	257.46
458.74	252.78
458.93	301.93
459.11	257.46
459.29	159.16
459.48	320.65
459.66	262.14
459.84	243.42
460.03	386.19
460.21	304.27
460.39	243.42
460.57	262.14
460.76	304.27
460.94	294.91
461.12	325.33
461.31	390.87
461.49	287.89
461.67	301.93
461.85	358.10
462.04	283.20
462.22	430.66
462.40	264.48
462.59	320.65
462.77	283.20
462.95	292.57
463.13	348.74
463.32	318.31
463.50	322.99
463.68	299.59
463.86	278.52
464.05	283.20
464.23	273.84
464.41	271.50
464.59	250.44
464.78	264.48
464.96	369.80
465.14	210.65
465.32	248.10
465.50	220.01
465.69	315.97
465.87	271.50
466.05	283.20
466.23	308.95
466.41	332.36
466.60	341.72
466.78	269.16
466.96	337.04
467.14	271.50
467.32	280.86
467.51	292.57
467.69	294.91
467.87	276.18
468.05	220.01
468.23	339.38
468.41	299.59
468.60	248.10
468.78	266.82
468.96	320.65
469.14	285.55
469.32	264.48
469.50	198.95
469.69	294.91
469.87	215.33
470.05	220.01
470.23	276.18
470.41	182.56
470.59	243.42
470.77	245.76
470.95	229.37
471.14	276.18
471.32	229.37
471.50	285.55
471.68	269.16
471.86	337.04
472.04	273.84
472.22	353.42
472.40	234.05
472.58	299.59
472.77	259.80
472.95	322.99
473.13	304.27
473.31	285.55
473.49	220.01
473.67	339.38
473.85	337.04
474.03	250.44
474.21	355.76
474.39	353.42
474.57	252.78
474.75	313.63
474.93	241.08
475.12	252.78
475.30	315.97
475.48	238.73
475.66	301.93
475.84	280.86
476.02	248.10
476.20	250.44
476.38	236.39
476.56	423.64
476.74	252.78
476.92	346.40
477.10	322.99
477.28	369.80
477.46	238.73
477.64	276.18
477.82	248.10
478.00	273.84
478.18	334.70
478.36	334.70
478.54	308.95
478.72	313.63
478.90	224.69
479.08	306.61
479.26	297.25
479.44	287.89
479.62	306.61
479.80	353.42
479.98	306.61
480.16	388.53
480.34	418.96
480.52	365.12
480.70	414.27
480.88	425.98
481.06	348.74
481.24	489.17
481.41	414.27
481.59	421.30
481.77	458.74
481.95	416.62
482.13	524.28
482.31	596.84
482.49	589.82
482.67	758.33
482.85	697.48
483.03	664.71
483.21	795.78
483.39	681.10
483.57	791.10
483.74	917.49
483.92	915.15
484.10	844.93
484.28	1020.47
484.46	1055.58
484.64	1025.15
484.82	1069.62
485.00	1144.52
485.18	1277.93
485.35	1282.61
485.53	1252.19
485.71	1352.83
485.89	1420.71
486.07	1521.35
486.25	1465.18
486.43	1460.49
486.61	1629.01
486.78	1530.71
486.96	1584.54
487.14	1430.07
487.32	1540.07
487.50	1523.69
487.68	1509.65
487.85	1458.15
488.03	1416.02
488.21	1401.98
488.39	1348.15
488.57	1275.59
488.75	1207.72
488.92	1551.78
489.10	1254.53
489.28	1226.44
489.46	1181.97
489.64	1233.46
489.81	1153.88
489.99	1193.67
490.17	1146.86
490.35	1231.12
490.53	1128.14
490.70	1132.82
490.88	1184.31
491.06	1252.19
491.24	1324.74
491.41	1275.59
491.59	1149.20
491.77	1179.63
491.95	1071.97
492.13	1102.39
492.30	1123.46
492.48	1015.79
492.66	1020.47
492.84	1062.60
493.01	1020.47
493.19	1001.75
493.37	1083.67
493.54	999.41
493.72	1046.22
493.90	926.85
494.08	987.71
494.25	1020.47
494.43	868.34
494.61	926.85
494.79	933.87
494.96	945.58
495.14	842.59
495.32	830.89
495.49	861.32
495.67	821.53
495.85	847.27
496.02	812.17
496.20	826.21
496.38	854.30
496.55	781.74
496.73	746.63
496.91	798.12
497.09	765.36
497.26	692.80
497.44	727.91
497.62	650.67
497.79	737.27
497.97	753.65
498.14	746.63
498.32	692.80
498.50	683.44
498.67	720.88
498.85	746.63
499.03	660.03
499.20	685.78
499.38	622.58
499.56	627.26
499.73	634.29
499.91	615.56
500.08	587.47
500.26	550.03
500.44	517.26
500.61	545.34
500.79	514.92
500.97	503.22
501.14	540.66
501.32	498.53
501.49	592.16
501.67	435.34
501.84	514.92
502.02	535.98
502.20	468.11
502.37	440.02
502.55	517.26
502.72	486.83
502.90	489.17
503.07	416.62
503.25	489.17
503.43	411.93
503.60	355.76
503.78	444.70
503.95	372.15
504.13	369.80
504.30	374.49
504.48	369.80
504.65	425.98
504.83	341.72
505.01	294.91
505.18	430.66
505.36	334.70
505.53	388.53
505.71	402.57
505.88	339.38
506.06	348.74
506.23	304.27
506.41	283.20
506.58	311.29
506.76	327.68
506.93	308.95
507.11	315.97
507.28	372.15
507.46	318.31
507.63	327.68
507.81	372.15
507.98	311.29
508.16	447.04
508.33	388.53
508.50	306.61
508.68	351.08
508.85	388.53
509.03	346.40
509.20	430.66
509.38	442.36
509.55	376.83
509.73	390.87
509.90	325.33
510.08	283.20
510.25	430.66
510.42	376.83
510.60	320.65
510.77	367.46
510.95	386.19
511.12	330.02
511.30	299.59
511.47	278.52
511.64	327.68
511.82	334.70
511.99	379.17
512.17	306.61
512.34	341.72
512.51	409.59
512.69	353.42
512.86	369.80
513.04	280.86
513.21	355.76
513.38	322.99
513.56	339.38
513.73	315.97
513.90	290.23
514.08	241.08
514.25	346.40
514.43	346.40
514.60	367.46
514.77	287.89
514.95	292.57
515.12	325.33
515.29	245.76
515.47	292.57
515.64	341.72
515.81	243.42
515.99	407.25
516.16	245.76
516.33	283.20
516.51	332.36
516.68	287.89
516.85	217.67
517.03	362.78
517.20	346.40
517.37	271.50
517.54	273.84
517.72	308.95
517.89	301.93
518.06	285.55
518.24	355.76
518.41	334.70
518.58	278.52
518.75	330.02
518.93	297.25
519.10	285.55
519.27	220.01
519.45	304.27
519.62	243.42
519.79	311.29
519.96	278.52
520.14	266.82
520.31	327.68
520.48	229.37
520.65	264.48
520.83	252.78
521.00	341.72
521.17	339.38
521.34	264.48
521.52	301.93
521.69	287.89
521.86	360.44
522.03	315.97
522.20	383.85
522.38	358.10
522.55	365.12
522.72	344.06
522.89	283.20
523.07	372.15
523.24	259.80
523.41	299.59
523.58	271.50
523.75	306.61
523.92	313.63
524.10	353.42
524.27	255.12
524.44	266.82
524.61	313.63
524.78	383.85
524.96	341.72
525.13	287.89
525.30	346.40
525.47	273.84
525.64	238.73
525.81	367.46
525.98	383.85
526.16	299.59
526.33	252.78
526.50	327.68
526.67	264.48
526.84	318.31
527.01	362.78
527.18	301.93
527.36	390.87
527.53	381.51
527.70	376.83
527.87	348.74
528.04	308.95
528.21	299.59
528.38	290.23
528.55	454.06
528.72	322.99
528.89	390.87
529.07	318.31
529.24	461.09
529.41	390.87
529.58	311.29
529.75	301.93
529.92	381.51
530.09	407.25
530.26	358.10
530.43	414.27
530.60	327.68
530.77	381.51
530.94	423.64
531.11	496.19
531.28	369.80
531.46	395.55
531.63	512.58
531.80	418.96
531.97	550.03
532.14	599.18
532.31	561.73
532.48	613.22
532.65	638.97
532.82	737.27
532.99	856.64
533.16	943.24
533.33	959.62
533.50	898.77
533.67	753.65
533.84	681.10
534.01	624.92
534.18	550.03
534.35	587.47
534.52	664.71
534.69	631.94
534.86	695.14
535.03	662.37
535.20	739.61
535.37	779.40
535.54	727.91
535.71	744.29
535.88	805.14
536.05	863.66
536.22	908.13
536.38	964.30
536.55	1071.97
536.72	1193.67
536.89	1174.95
537.06	1294.32
537.23	1511.99
537.40	1694.55
537.57	1720.29
537.74	1764.76
537.91	1954.35
538.08	1809.23
538.25	1998.82
538.42	1837.32
538.59	2038.61
538.75	2050.31
538.92	2312.45
539.09	2380.32
539.26	2785.24
539.43	3136.32
539.60	3365.69
539.77	3705.07
539.94	4067.85
540.11	4547.66
540.28	5036.83
540.44	5336.42
540.61	5977.73
540.78	6853.09
540.95	8248.05
541.12	9778.76
541.29	10391.98
541.46	10930.30
541.62	10703.27
541.79	10331.12
541.96	9785.78
542.13	9125.75
542.30	8533.59
542.47	8086.55
542.63	7676.96
542.80	7611.42
542.97	7281.41
543.14	7204.17
543.31	7398.43
543.48	7344.60
543.64	7501.42
543.81	7581.00
543.98	7517.80
544.15	7478.01
544.32	7412.48
544.48	7478.01
544.65	7470.99
544.82	7360.98
544.99	7494.40
545.16	7845.48
545.32	8205.92
545.49	16252.68
545.66	26775.73
545.83	29242.65
546.00	23939.00
546.16	16849.52
546.33	12425.90
546.50	9364.48
546.67	7609.08
546.83	6738.40
547.00	6380.30
547.17	6228.17
547.34	5853.68
547.50	5666.44
547.67	5444.09
547.84	5142.16
548.00	5118.75
548.17	4760.65
548.34	4650.64
548.51	4566.39
548.67	4411.91
548.84	4189.56
549.01	3882.95
549.18	3819.75
549.34	3684.00
549.51	3574.00
549.68	3459.31
549.84	3314.20
550.01	3152.70
550.18	3141.00
550.34	2977.16
550.51	2759.49
550.68	2647.15
550.84	2516.08
551.01	2363.94
551.18	2298.41
551.34	2200.10
551.51	2106.48
551.68	1996.48
551.84	1987.11
552.01	1863.07
552.18	1832.64
552.34	1778.81
552.51	1640.72
552.68	1570.50
552.84	1563.48
553.01	1596.25
553.18	1448.79
553.34	1380.92
553.51	1404.32
553.67	1334.11
553.84	1289.64
554.01	1238.14
554.17	1095.37
554.34	1121.12
554.51	1114.10
554.67	1029.84
554.84	943.24
555.00	1001.75
555.17	868.34
555.33	870.68
555.50	793.44
555.67	844.93
555.83	765.36
556.00	781.74
556.16	842.59
556.33	720.88
556.50	669.39
556.66	664.71
556.83	723.23
556.99	641.31
557.16	617.90
557.32	540.66
557.49	573.43
557.65	545.34
557.82	552.37
557.98	622.58
558.15	601.52
558.32	519.60
558.48	514.92
558.65	580.45
558.81	479.81
558.98	472.79
559.14	573.43
559.31	519.60
559.47	477.47
559.64	482.15
559.80	454.06
559.97	500.87
560.13	489.17
560.30	552.37
560.46	475.13
560.63	484.49
560.79	388.53
560.96	557.05
561.12	472.79
561.29	468.11
561.45	449.38
561.61	489.17
561.78	580.45
561.94	479.81
562.11	442.36
562.27	503.22
562.44	430.66
562.60	491.51
562.77	374.49
562.93	505.56
563.10	489.17
563.26	416.62
563.42	449.38
563.59	397.89
563.75	348.74
563.92	491.51
564.08	465.77
564.24	477.47
564.41	430.66
564.57	369.80
564.74	372.15
564.90	395.55
565.07	428.32
565.23	437.68
565.39	374.49
565.56	411.93
565.72	320.65
565.88	435.34
566.05	346.40
566.21	421.30
566.38	416.62
566.54	451.72
566.70	397.89
566.87	332.36
567.03	334.70
567.19	381.51
567.36	383.85
567.52	442.36
567.68	425.98
567.85	400.23
568.01	437.68
568.17	313.63
568.34	379.17
568.50	404.91
568.66	477.47
568.83	528.96
568.99	330.02
569.15	393.21
569.32	351.08
569.48	327.68
569.64	367.46
569.81	414.27
569.97	358.10
570.13	353.42
570.30	337.04
570.46	297.25
570.62	423.64
570.78	346.40
570.95	297.25
571.11	400.23
571.27	304.27
571.43	301.93
571.60	351.08
571.76	320.65
571.92	388.53
572.09	332.36
572.25	358.10
572.41	348.74
572.57	322.99
572.74	397.89
572.90	325.33
573.06	294.91
573.22	362.78
573.38	355.76
573.55	318.31
573.71	365.12
573.87	362.78
574.03	374.49
574.20	346.40
574.36	409.59
574.52	421.30
574.68	320.65
574.84	407.25
575.01	346.40
575.17	437.68
575.33	458.74
575.49	510.24
575.65	416.62
575.82	526.62
575.98	585.13
576.14	606.20
576.30	1320.06
576.46	3812.73
576.62	4926.83
576.79	4814.48
576.95	3459.31
577.11	2235.21
577.27	1717.95
577.43	1153.88
577.59	795.78
577.75	683.44
577.92	681.10
578.08	613.22
578.24	671.73
578.40	1383.26
578.56	3389.10
578.72	4461.06
578.88	4573.41
579.04	3389.10
579.21	2445.86
579.37	1825.62
579.53	1425.39
579.69	1596.25
579.85	1795.19
580.01	2120.53
580.17	1926.26
580.33	1650.08
580.49	1444.11
580.65	1275.59
580.82	1275.59
580.98	1128.14
581.14	1221.76
581.30	1446.45
581.46	1404.32
581.62	1586.88
581.78	1472.20
581.94	1575.18
582.10	1657.10
582.26	1799.87
582.42	1783.49
582.58	1984.77
582.74	2017.54
582.90	2069.03
583.06	2064.35
583.22	1947.33
583.38	2036.27
583.54	1947.33
583.70	1989.46
583.86	2019.88
584.02	1842.00
584.18	1944.99
584.34	1930.94
584.50	1919.24
584.66	1767.10
584.82	1837.32
584.98	1830.30
585.14	1694.55
585.30	1626.67
585.46	1605.61
585.62	1589.22
585.78	1708.59
585.94	1708.59
586.10	1638.38
586.26	1879.45
586.42	2143.93
586.58	2532.46
586.74	2925.67
586.90	3517.83
587.06	3592.72
587.22	3522.51
587.38	3344.63
587.54	2712.68
587.70	2361.60
587.86	2064.35
588.02	1732.00
588.18	1643.06
588.34	1511.99
588.49	1348.15
588.65	1266.23
588.81	1247.51
588.97	1219.42
589.13	1224.10
589.29	1109.41
589.45	1146.86
589.61	1174.95
589.77	1261.55
589.93	1196.01
590.08	1193.67
590.24	1273.25
590.40	1301.34
590.56	1324.74
590.72	1329.42
590.88	1306.02
591.04	1394.96
591.20	1401.98
591.35	1514.33
591.51	1586.88
591.67	1446.45
591.83	1650.08
591.99	1874.77
592.15	1996.48
592.31	2251.60
592.46	2216.49
592.62	2422.45
592.78	2569.91
592.94	2654.17
593.10	2635.44
593.26	2572.25
593.41	2375.64
593.57	2043.29
593.73	1916.90
593.89	1657.10
594.05	1511.99
594.20	1385.60
594.36	1221.76
594.52	1235.80
594.68	1095.37
594.84	1067.28
594.99	1132.82
595.15	1029.84
595.31	1139.84
595.47	1139.84
595.62	1064.94
595.78	1041.54
595.94	1078.99
596.10	1116.44
596.25	1149.20
596.41	1055.58
596.57	1013.45
596.73	1004.09
596.88	1020.47
597.04	1029.84
597.20	1011.11
597.36	1046.22
597.51	1163.25
597.67	1137.50
597.83	1184.31
597.99	1308.36
598.14	1376.24
598.30	1483.90
598.46	1511.99
598.61	1455.81
598.77	1521.35
598.93	1645.40
599.09	1678.16
599.24	1671.14
599.40	1673.48
599.56	1666.46
599.71	1570.50
599.87	1455.81
600.03	1376.24
600.18	1303.68
600.34	1240.48
600.50	1156.22
600.65	1041.54
600.81	1055.58
600.97	952.60
601.12	978.34
601.28	901.11
601.44	940.90
601.59	800.46
601.75	816.85
601.91	847.27
602.06	777.06
602.22	786.42
602.37	816.85
602.53	695.14
602.69	866.00
602.84	727.91
603.00	781.74
603.16	739.61
603.31	744.29
603.47	746.63
603.62	774.72
603.78	819.19
603.94	805.14
604.09	847.27
604.25	833.23
604.40	802.80
604.56	837.91
604.71	943.24
604.87	840.25
605.03	919.83
605.18	966.64
605.34	983.02
605.49	926.85
605.65	954.94
605.80	919.83
605.96	1036.86
606.12	1053.24
606.27	1128.14
606.43	1034.52
606.58	1100.05
606.74	1151.54
606.89	1165.59
607.05	1306.02
607.20	1371.55
607.36	1394.96
607.51	1535.39
607.67	1650.08
607.82	1633.69
607.98	1825.62
608.13	1874.77
608.29	2005.84
608.44	2218.83
608.60	2504.37
608.75	2555.86
608.91	2764.17
609.06	3028.65
609.22	3300.16
609.37	3581.02
609.53	4128.70
609.68	4697.46
609.84	5373.87
609.99	6230.51
610.15	7421.84
610.30	9158.52
610.46	11805.66
610.61	14932.62
610.76	18808.54
610.92	22565.10
611.07	24800.32
611.23	24734.78
611.38	23140.88
611.54	20184.78
611.69	17425.29
611.84	14443.45
612.00	12051.42
612.15	10256.23
612.31	8973.61
612.46	8168.47
612.62	7552.91
612.77	7180.76
612.92	6722.02
613.08	6602.65
613.23	6064.33
613.39	5930.92
613.54	5689.84
613.69	5827.93
613.85	5666.44
614.00	5692.18
614.15	5518.98
614.31	5373.87
614.46	5401.96
614.62	5198.33
614.77	4910.44
614.92	4540.64
615.08	4273.82
615.23	3904.01
615.38	3576.34
615.54	3248.66
615.69	3035.67
615.84	2881.20
616.00	2710.34
616.15	2366.28
616.30	2279.68
616.46	2108.82
616.61	1994.14
616.76	1963.71
616.92	1760.08
617.07	1778.81
617.22	1666.46
617.37	1633.69
617.53	1629.01
617.68	1530.71
617.83	1556.46
617.99	1507.30
618.14	1392.62
618.29	1469.86
618.45	1329.42
618.60	1317.72
618.75	1219.42
618.90	1273.25
619.06	1313.04
619.21	1394.96
619.36	1254.53
619.51	1203.04
619.67	1401.98
619.82	1266.23
619.97	1404.32
620.12	1322.40
620.28	1418.36
620.43	1324.74
620.58	1404.32
620.73	1404.32
620.89	1413.68
621.04	1390.28
621.19	1462.83
621.34	1313.04
621.49	1411.34
621.65	1317.72
621.80	1277.93
621.95	1263.89
622.10	1327.08
622.25	1289.64
622.41	1331.76
622.56	1427.73
622.71	1376.24
622.86	1439.43
623.01	1514.33
623.16	1577.52
623.32	1376.24
623.47	1469.86
623.62	1437.09
623.77	1462.83
623.92	1514.33
624.07	1465.18
624.23	1514.33
624.38	1476.88
624.53	1474.54
624.68	1493.26
624.83	1420.71
624.98	1404.32
625.13	1474.54
625.29	1504.96
625.44	1554.12
625.59	1465.18
625.74	1451.13
625.89	1607.95
626.04	1462.83
626.19	1507.30
626.34	1490.92
626.49	1519.01
626.65	1416.02
626.80	1465.18
626.95	1521.35
627.10	1352.83
627.25	1399.64
627.40	1350.49
627.55	1425.39
627.70	1364.53
627.85	1359.85
628.00	1263.89
628.15	1385.60
628.30	1296.66
628.45	1352.83
628.60	1308.36
628.76	1364.53
628.91	1378.58
629.06	1359.85
629.21	1317.72
629.36	1362.19
629.51	1439.43
629.66	1519.01
629.81	1547.09
629.96	1685.19
630.11	1874.77
630.26	2172.02
630.41	2225.85
630.56	2576.93
630.71	2679.91
630.86	2698.64
631.01	2609.70
631.16	2413.09
631.31	2200.10
631.46	1930.94
631.61	1511.99
631.76	1366.87
631.91	1196.01
632.06	1128.14
632.21	854.30
632.36	805.14
632.51	809.83
632.66	753.65
632.81	655.35
632.96	676.41
633.10	624.92
633.25	627.26
633.40	631.94
633.55	596.84
633.70	557.05
633.85	503.22
634.00	543.00
634.15	585.13
634.30	479.81
634.45	358.10
634.60	524.28
634.75	566.41
634.90	500.87
635.05	484.49
635.19	526.62
635.34	411.93
635.49	388.53
635.64	435.34
635.79	461.09
635.94	404.91
636.09	496.19
636.24	395.55
636.39	454.06
636.53	379.17
636.68	374.49
636.83	409.59
636.98	414.27
637.13	386.19
637.28	430.66
637.43	435.34
637.57	379.17
637.72	386.19
637.87	425.98
638.02	374.49
638.17	383.85
638.32	365.12
638.46	292.57
638.61	369.80
638.76	348.74
638.91	353.42
639.06	299.59
639.20	407.25
639.35	402.57
639.50	344.06
639.65	442.36
639.80	423.64
639.94	292.57
640.09	449.38
640.24	411.93
640.39	358.10
640.54	425.98
640.68	411.93
640.83	437.68
640.98	344.06
641.13	315.97
641.27	416.62
641.42	344.06
641.57	397.89
641.72	381.51
641.86	409.59
642.01	362.78
642.16	327.68
642.31	358.10
642.45	341.72
642.60	404.91
642.75	411.93
642.90	360.44
643.04	334.70
643.19	447.04
643.34	386.19
643.48	372.15
643.63	330.02
643.78	442.36
643.93	327.68
644.07	355.76
644.22	416.62
644.37	315.97
644.51	341.72
644.66	346.40
644.81	318.31
644.95	299.59
645.10	348.74
645.25	369.80
645.39	362.78
645.54	334.70
645.69	423.64
645.83	292.57
645.98	332.36
646.13	301.93
646.27	313.63
646.42	304.27
646.57	285.55
646.71	318.31
646.86	304.27
647.00	374.49
647.15	327.68
647.30	287.89
647.44	330.02
647.59	257.46
647.74	313.63
647.88	283.20
648.03	318.31
648.17	304.27
648.32	390.87
648.47	318.31
648.61	367.46
648.76	325.33
648.90	301.93
649.05	369.80
649.20	355.76
649.34	393.21
649.49	409.59
649.63	524.28
649.78	566.41
649.92	636.63
650.07	718.54
650.21	695.14
650.36	856.64
650.51	727.91
650.65	704.50
650.80	699.82
650.94	653.01
651.09	575.77
651.23	550.03
651.38	526.62
651.52	379.17
651.67	416.62
651.81	479.81
651.96	423.64
652.10	283.20
652.25	362.78
652.39	353.42
652.54	482.15
652.68	449.38
652.83	454.06
652.97	447.04
653.12	449.38
653.26	437.68
653.41	442.36
653.55	379.17
653.70	313.63
653.84	327.68
653.99	402.57
654.13	292.57
654.27	367.46
654.42	276.18
654.56	348.74
654.71	402.57
654.85	383.85
655.00	238.73
655.14	320.65
655.29	290.23
655.43	360.44
655.57	287.89
655.72	224.69
655.86	276.18
656.01	348.74
656.15	304.27
656.30	313.63
656.44	299.59
656.58	290.23
656.73	259.80
656.87	332.36
657.01	297.25
657.16	318.31
657.30	409.59
657.45	346.40
657.59	355.76
657.73	376.83
657.88	458.74
658.02	376.83
658.16	416.62
658.31	374.49
658.45	304.27
658.60	362.78
658.74	290.23
658.88	285.55
659.03	332.36
659.17	215.33
659.31	278.52
659.46	142.77
659.60	175.54
659.74	313.63
659.89	320.65
660.03	222.35
660.17	257.46
660.32	170.86
660.46	189.58
660.60	283.20
660.74	257.46
660.89	262.14
661.03	278.52
661.17	212.99
661.32	311.29
661.46	313.63
661.60	318.31
661.74	470.45
661.89	519.60
662.03	557.05
662.17	594.50
662.31	566.41
662.46	550.03
662.60	615.56
662.74	470.45
662.88	430.66
663.03	285.55
663.17	393.21
663.31	372.15
663.45	393.21
663.60	346.40
663.74	215.33
663.88	292.57
664.02	311.29
664.17	271.50
664.31	276.18
664.45	360.44
664.59	262.14
664.73	280.86
664.88	269.16
665.02	205.97
665.16	184.90
665.30	210.65
665.44	227.03
665.59	315.97
665.73	257.46
665.87	257.46
666.01	208.31
666.15	245.76
666.29	241.08
666.44	304.27
666.58	259.80
666.72	210.65
666.86	304.27
667.00	315.97
667.14	250.44
667.28	287.89
667.43	273.84
667.57	297.25
667.71	259.80
667.85	297.25
667.99	308.95
668.13	266.82
668.27	248.10
668.41	276.18
668.56	266.82
668.70	306.61
668.84	262.14
668.98	220.01
669.12	205.97
669.26	201.29
669.40	264.48
669.54	245.76
669.68	271.50
669.82	238.73
669.96	210.65
670.10	222.35
670.25	259.80
670.39	245.76
670.53	276.18
670.67	198.95
670.81	210.65
670.95	243.42
671.09	283.20
671.23	313.63
671.37	203.63
671.51	285.55
671.65	280.86
671.79	236.39
671.93	322.99
672.07	292.57
672.21	182.56
672.35	227.03
672.49	325.33
672.63	334.70
672.77	234.05
672.91	243.42
673.05	187.24
673.19	175.54
673.33	208.31
673.47	299.59
673.61	285.55
673.75	168.52
673.89	194.26
674.03	248.10
674.17	220.01
674.31	198.95
674.45	196.60
674.59	182.56
674.73	212.99
674.87	255.12
675.01	248.10
675.15	224.69
675.29	285.55
675.43	173.20
675.56	250.44
675.70	257.46
675.84	271.50
675.98	287.89
676.12	224.69
676.26	131.07
676.40	187.24
676.54	250.44
676.68	173.20
676.82	177.88
676.96	166.18
677.10	210.65
677.23	161.50
677.37	175.54
677.51	276.18
677.65	248.10
677.79	208.31
677.93	184.90
678.07	236.39
678.21	196.60
678.34	243.42
678.48	147.45
678.62	259.80
678.76	182.56
678.90	227.03
679.04	250.44
679.18	140.43
679.31	182.56
679.45	222.35
679.59	208.31
679.73	220.01
679.87	177.88
680.00	173.20
680.14	257.46
680.28	220.01
680.42	208.31
680.56	259.80
680.70	231.71
680.83	180.22
680.97	257.46
681.11	285.55
681.25	205.97
681.39	252.78
681.52	175.54
681.66	229.37
681.80	140.43
681.94	149.79
682.07	191.92
682.21	236.39
682.35	163.84
682.49	170.86
682.62	234.05
682.76	149.79
682.90	194.26
683.04	222.35
683.17	180.22
683.31	133.41
683.45	264.48
683.59	259.80
683.72	250.44
683.86	194.26
684.00	245.76
684.13	152.13
684.27	201.29
684.41	215.33
684.55	259.80
684.68	210.65
684.82	175.54
684.96	210.65
685.09	212.99
685.23	156.82
685.37	182.56
685.50	224.69
685.64	257.46
685.78	203.63
685.91	227.03
686.05	271.50
686.19	215.33
686.32	259.80
686.46	271.50
686.60	241.08
686.73	311.29
686.87	306.61
687.01	222.35
687.14	294.91
687.28	358.10
687.42	346.40
687.55	271.50
687.69	311.29
687.82	297.25
687.96	367.46
688.10	304.27
688.23	248.10
688.37	358.10
688.50	313.63
688.64	297.25
688.78	243.42
688.91	201.29
689.05	264.48
689.18	248.10
689.32	198.95
689.46	161.50
689.59	217.67
689.73	201.29
689.86	166.18
690.00	191.92
690.13	180.22
690.27	128.73
690.41	238.73
690.54	201.29
690.68	147.45
690.81	205.97
690.95	238.73
691.08	138.09
691.22	175.54
691.35	124.05
691.49	119.37
691.62	182.56
691.76	128.73
691.89	154.48
692.03	100.64
692.16	70.22
692.30	234.05
692.43	117.03
692.57	126.39
692.70	79.58
692.84	149.79
692.97	163.84
693.11	208.31
693.24	191.92
693.38	287.89
693.51	259.80
693.65	271.50
693.78	271.50
693.92	271.50
694.05	220.01
694.19	224.69
694.32	266.82
694.45	196.60
694.59	201.29
694.72	175.54
694.86	142.77
694.99	166.18
695.13	112.35
695.26	191.92
695.39	210.65
695.53	222.35
695.66	110.01
695.80	163.84
695.93	145.11
696.07	159.16
696.20	212.99
696.33	168.52
696.47	201.29
696.60	145.11
696.73	119.37
696.87	112.35
697.00	203.63
697.14	114.69
697.27	124.05
697.40	98.30
697.54	131.07
697.67	152.13
697.80	128.73
697.94	138.09
698.07	189.58
698.21	217.67
698.34	203.63
698.47	102.98
698.61	70.22
698.74	126.39
698.87	163.84
699.01	152.13
699.14	135.75
699.27	95.96
699.40	173.20
699.54	145.11
699.67	163.84
699.80	161.50
699.94	163.84
700.07	222.35
700.20	84.26
700.34	140.43
700.47	112.35
700.60	177.88
700.73	259.80
700.87	255.12
701.00	98.30
701.13	133.41
701.26	107.66
701.40	100.64
701.53	180.22
701.66	121.71
701.79	114.69
701.93	121.71
702.06	161.50
702.19	128.73
702.32	215.33
702.46	145.11
702.59	161.50
702.72	117.03
702.85	135.75
702.99	140.43
703.12	168.52
703.25	138.09
703.38	131.07
703.51	229.37
703.65	117.03
703.78	177.88
703.91	156.82
704.04	173.20
704.17	257.46
704.31	168.52
704.44	102.98
704.57	159.16
704.70	198.95
704.83	135.75
704.96	131.07
705.10	243.42
705.23	170.86
>>>>>End Processed Spectral Data<<<<<
