SpectraSuite Data File
++++++++++++++++++++++++++++++++++++
Date: Fri Oct 04 11:41:52 GMT-05:00 2013
User: price-jones
Dark Spectrum Present: No
Reference Spectrum Present: No
Number of Sampled Component Spectra: 1
Spectrometers: USB2+H05261
Integration Time (usec): 100000 (USB2+H05261)
Spectra Averaged: 1 (USB2+H05261)
Boxcar Smoothing: 0 (USB2+H05261)
Correct for Electrical Dark: No (USB2+H05261)
Strobe/Lamp Enabled: No (USB2+H05261)
Correct for Detector Non-linearity: No (USB2+H05261)
Correct for Stray Light: No (USB2+H05261)
Number of Pixels in Processed Spectrum: 2048
>>>>>Begin Processed Spectral Data<<<<<
365.73	58.51
365.92	58.51
366.12	58.51
366.32	0.00
366.52	0.00
366.72	2.34
366.91	0.00
367.11	0.00
367.31	0.00
367.51	0.00
367.70	0.00
367.90	0.00
368.10	0.00
368.30	0.00
368.49	0.00
368.69	0.00
368.89	0.00
369.09	0.00
369.28	0.00
369.48	0.00
369.68	0.00
369.87	7.02
370.07	4.68
370.27	28.09
370.47	0.00
370.66	0.00
370.86	32.77
371.06	58.51
371.25	0.00
371.45	63.19
371.65	70.22
371.84	16.38
372.04	35.11
372.24	67.88
372.44	58.51
372.63	86.60
372.83	145.11
373.03	126.39
373.22	152.13
373.42	121.71
373.62	42.13
373.81	133.41
374.01	135.75
374.21	161.50
374.40	142.77
374.60	177.88
374.79	156.82
374.99	133.41
375.19	114.69
375.38	133.41
375.58	152.13
375.78	121.71
375.97	93.62
376.17	140.43
376.37	170.86
376.56	145.11
376.76	126.39
376.95	117.03
377.15	79.58
377.35	117.03
377.54	91.28
377.74	107.66
377.93	95.96
378.13	60.85
378.33	128.73
378.52	102.98
378.72	117.03
378.91	126.39
379.11	88.94
379.31	98.30
379.50	35.11
379.70	91.28
379.89	156.82
380.09	30.43
380.28	9.36
380.48	58.51
380.68	70.22
380.87	25.75
381.07	58.51
381.26	67.88
381.46	51.49
381.65	135.75
381.85	124.05
382.04	51.49
382.24	149.79
382.43	147.45
382.63	81.92
382.83	65.54
383.02	131.07
383.22	154.48
383.41	121.71
383.61	128.73
383.80	79.58
384.00	74.90
384.19	98.30
384.39	135.75
384.58	177.88
384.78	81.92
384.97	133.41
385.17	117.03
385.36	110.01
385.56	128.73
385.75	93.62
385.95	105.32
386.14	63.19
386.34	102.98
386.53	100.64
386.72	32.77
386.92	126.39
387.11	135.75
387.31	147.45
387.50	126.39
387.70	128.73
387.89	46.81
388.09	128.73
388.28	124.05
388.48	100.64
388.67	168.52
388.86	18.72
389.06	53.83
389.25	138.09
389.45	74.90
389.64	126.39
389.84	154.48
390.03	128.73
390.22	95.96
390.42	126.39
390.61	156.82
390.81	102.98
391.00	81.92
391.19	175.54
391.39	65.54
391.58	102.98
391.78	119.37
391.97	95.96
392.16	0.00
392.36	170.86
392.55	117.03
392.75	107.66
392.94	117.03
393.13	117.03
393.33	110.01
393.52	124.05
393.71	93.62
393.91	152.13
394.10	86.60
394.29	114.69
394.49	112.35
394.68	152.13
394.88	163.84
395.07	175.54
395.26	131.07
395.46	131.07
395.65	95.96
395.84	95.96
396.04	201.29
396.23	84.26
396.42	95.96
396.62	142.77
396.81	205.97
397.00	131.07
397.19	145.11
397.39	100.64
397.58	182.56
397.77	133.41
397.97	138.09
398.16	72.56
398.35	112.35
398.55	140.43
398.74	154.48
398.93	37.45
399.12	93.62
399.32	138.09
399.51	133.41
399.70	110.01
399.90	177.88
400.09	138.09
400.28	194.26
400.47	93.62
400.67	196.60
400.86	140.43
401.05	149.79
401.24	126.39
401.44	180.22
401.63	189.58
401.82	131.07
402.01	88.94
402.21	170.86
402.40	102.98
402.59	124.05
402.78	161.50
402.97	236.39
403.17	149.79
403.36	187.24
403.55	198.95
403.74	325.33
403.93	856.64
404.13	1493.26
404.32	1472.20
404.51	1172.61
404.70	716.20
404.89	383.85
405.09	217.67
405.28	88.94
405.47	145.11
405.66	95.96
405.85	210.65
406.05	119.37
406.24	128.73
406.43	234.05
406.62	198.95
406.81	142.77
407.00	227.03
407.20	297.25
407.39	327.68
407.58	393.21
407.77	236.39
407.96	182.56
408.15	110.01
408.34	170.86
408.54	93.62
408.73	74.90
408.92	217.67
409.11	210.65
409.30	163.84
409.49	117.03
409.68	102.98
409.87	152.13
410.07	126.39
410.26	117.03
410.45	86.60
410.64	121.71
410.83	180.22
411.02	149.79
411.21	142.77
411.40	161.50
411.59	163.84
411.78	126.39
411.98	84.26
412.17	100.64
412.36	114.69
412.55	135.75
412.74	124.05
412.93	250.44
413.12	159.16
413.31	187.24
413.50	140.43
413.69	173.20
413.88	105.32
414.07	102.98
414.26	124.05
414.45	98.30
414.64	175.54
414.83	121.71
415.02	173.20
415.22	191.92
415.41	231.71
415.60	70.22
415.79	145.11
415.98	149.79
416.17	126.39
416.36	159.16
416.55	149.79
416.74	231.71
416.93	112.35
417.12	180.22
417.31	145.11
417.50	159.16
417.69	149.79
417.88	124.05
418.07	112.35
418.26	205.97
418.45	161.50
418.64	187.24
418.83	262.14
419.02	142.77
419.21	154.48
419.39	163.84
419.58	140.43
419.77	81.92
419.96	170.86
420.15	126.39
420.34	133.41
420.53	86.60
420.72	191.92
420.91	117.03
421.10	168.52
421.29	184.90
421.48	196.60
421.67	290.23
421.86	210.65
422.05	196.60
422.24	142.77
422.43	135.75
422.61	114.69
422.80	145.11
422.99	161.50
423.18	196.60
423.37	154.48
423.56	201.29
423.75	227.03
423.94	117.03
424.13	196.60
424.32	191.92
424.50	217.67
424.69	220.01
424.88	177.88
425.07	173.20
425.26	180.22
425.45	175.54
425.64	184.90
425.83	203.63
426.01	177.88
426.20	210.65
426.39	107.66
426.58	170.86
426.77	124.05
426.96	276.18
427.15	173.20
427.33	205.97
427.52	217.67
427.71	159.16
427.90	156.82
428.09	154.48
428.28	196.60
428.46	191.92
428.65	271.50
428.84	212.99
429.03	147.45
429.22	184.90
429.40	154.48
429.59	166.18
429.78	313.63
429.97	187.24
430.16	203.63
430.34	222.35
430.53	182.56
430.72	208.31
430.91	229.37
431.10	138.09
431.28	166.18
431.47	212.99
431.66	166.18
431.85	182.56
432.03	203.63
432.22	198.95
432.41	241.08
432.60	248.10
432.79	201.29
432.97	231.71
433.16	217.67
433.35	243.42
433.54	285.55
433.72	311.29
433.91	266.82
434.10	259.80
434.28	341.72
434.47	337.04
434.66	325.33
434.85	528.96
435.03	1404.32
435.22	4496.17
435.41	6530.09
435.59	5476.85
435.78	3522.51
435.97	1797.53
436.16	788.76
436.34	379.17
436.53	236.39
436.72	255.12
436.90	224.69
437.09	276.18
437.28	194.26
437.46	290.23
437.65	182.56
437.84	290.23
438.02	236.39
438.21	322.99
438.40	166.18
438.58	100.64
438.77	248.10
438.96	257.46
439.14	236.39
439.33	224.69
439.52	217.67
439.70	182.56
439.89	173.20
440.08	194.26
440.26	306.61
440.45	273.84
440.63	262.14
440.82	257.46
441.01	220.01
441.19	222.35
441.38	205.97
441.57	290.23
441.75	224.69
441.94	313.63
442.12	168.52
442.31	212.99
442.50	201.29
442.68	163.84
442.87	149.79
443.05	248.10
443.24	201.29
443.43	241.08
443.61	212.99
443.80	294.91
443.98	180.22
444.17	173.20
444.35	229.37
444.54	238.73
444.73	191.92
444.91	278.52
445.10	201.29
445.28	248.10
445.47	306.61
445.65	259.80
445.84	198.95
446.02	170.86
446.21	196.60
446.39	243.42
446.58	245.76
446.77	182.56
446.95	224.69
447.14	212.99
447.32	299.59
447.51	234.05
447.69	184.90
447.88	149.79
448.06	177.88
448.25	191.92
448.43	236.39
448.62	194.26
448.80	201.29
448.99	220.01
449.17	210.65
449.36	196.60
449.54	234.05
449.73	187.24
449.91	154.48
450.10	217.67
450.28	276.18
450.46	294.91
450.65	271.50
450.83	217.67
451.02	189.58
451.20	208.31
451.39	301.93
451.57	224.69
451.76	224.69
451.94	215.33
452.13	212.99
452.31	297.25
452.49	180.22
452.68	227.03
452.86	128.73
453.05	334.70
453.23	215.33
453.42	170.86
453.60	215.33
453.78	220.01
453.97	245.76
454.15	156.82
454.34	252.78
454.52	201.29
454.70	348.74
454.89	191.92
455.07	238.73
455.26	177.88
455.44	138.09
455.62	229.37
455.81	271.50
455.99	234.05
456.17	229.37
456.36	168.52
456.54	147.45
456.73	220.01
456.91	227.03
457.09	280.86
457.28	243.42
457.46	220.01
457.64	271.50
457.83	215.33
458.01	287.89
458.19	208.31
458.38	201.29
458.56	299.59
458.74	166.18
458.93	217.67
459.11	203.63
459.29	191.92
459.48	243.42
459.66	250.44
459.84	217.67
460.03	304.27
460.21	224.69
460.39	255.12
460.57	170.86
460.76	245.76
460.94	194.26
461.12	248.10
461.31	257.46
461.49	215.33
461.67	205.97
461.85	229.37
462.04	250.44
462.22	578.11
462.40	264.48
462.59	224.69
462.77	227.03
462.95	234.05
463.13	173.20
463.32	231.71
463.50	189.58
463.68	212.99
463.86	269.16
464.05	161.50
464.23	243.42
464.41	304.27
464.59	201.29
464.78	238.73
464.96	231.71
465.14	231.71
465.32	208.31
465.50	212.99
465.69	210.65
465.87	220.01
466.05	184.90
466.23	161.50
466.41	175.54
466.60	231.71
466.78	318.31
466.96	198.95
467.14	220.01
467.32	301.93
467.51	290.23
467.69	194.26
467.87	250.44
468.05	180.22
468.23	191.92
468.41	187.24
468.60	278.52
468.78	243.42
468.96	231.71
469.14	231.71
469.32	154.48
469.50	215.33
469.69	285.55
469.87	191.92
470.05	156.82
470.23	198.95
470.41	163.84
470.59	189.58
470.77	227.03
470.95	175.54
471.14	212.99
471.32	208.31
471.50	273.84
471.68	175.54
471.86	248.10
472.04	245.76
472.22	259.80
472.40	175.54
472.58	198.95
472.77	212.99
472.95	119.37
473.13	217.67
473.31	283.20
473.49	278.52
473.67	210.65
473.85	248.10
474.03	266.82
474.21	273.84
474.39	217.67
474.57	259.80
474.75	259.80
474.93	163.84
475.12	243.42
475.30	227.03
475.48	196.60
475.66	210.65
475.84	229.37
476.02	245.76
476.20	276.18
476.38	243.42
476.56	259.80
476.74	184.90
476.92	177.88
477.10	220.01
477.28	245.76
477.46	248.10
477.64	201.29
477.82	248.10
478.00	201.29
478.18	231.71
478.36	191.92
478.54	163.84
478.72	262.14
478.90	273.84
479.08	245.76
479.26	236.39
479.44	208.31
479.62	121.71
479.80	339.38
479.98	269.16
480.16	189.58
480.34	255.12
480.52	194.26
480.70	301.93
480.88	285.55
481.06	301.93
481.24	262.14
481.41	241.08
481.59	358.10
481.77	325.33
481.95	308.95
482.13	264.48
482.31	341.72
482.49	332.36
482.67	409.59
482.85	416.62
483.03	461.09
483.21	451.72
483.39	428.32
483.57	397.89
483.74	458.74
483.92	465.77
484.10	533.64
484.28	552.37
484.46	514.92
484.64	550.03
484.82	599.18
485.00	615.56
485.18	543.00
485.35	648.33
485.53	599.18
485.71	664.71
485.89	676.41
486.07	774.72
486.25	755.99
486.43	706.84
486.61	683.44
486.78	692.80
486.96	683.44
487.14	676.41
487.32	727.91
487.50	716.20
487.68	732.59
487.85	608.54
488.03	765.36
488.21	678.76
488.39	678.76
488.57	674.07
488.75	723.23
488.92	985.37
489.10	793.44
489.28	664.71
489.46	606.20
489.64	594.50
489.81	575.77
489.99	660.03
490.17	582.79
490.35	688.12
490.53	559.39
490.70	617.90
490.88	716.20
491.06	578.11
491.24	678.76
491.41	660.03
491.59	660.03
491.77	538.32
491.95	491.51
492.13	526.62
492.30	589.82
492.48	599.18
492.66	535.98
492.84	465.77
493.01	524.28
493.19	489.17
493.37	545.34
493.54	496.19
493.72	538.32
493.90	538.32
494.08	463.43
494.25	484.49
494.43	472.79
494.61	479.81
494.79	470.45
494.96	397.89
495.14	559.39
495.32	524.28
495.49	484.49
495.67	470.45
495.85	510.24
496.02	435.34
496.20	465.77
496.38	449.38
496.55	489.17
496.73	421.30
496.91	379.17
497.09	397.89
497.26	388.53
497.44	435.34
497.62	423.64
497.79	437.68
497.97	463.43
498.14	468.11
498.32	409.59
498.50	454.06
498.67	325.33
498.85	390.87
499.03	365.12
499.20	444.70
499.38	304.27
499.56	400.23
499.73	423.64
499.91	372.15
500.08	433.00
500.26	369.80
500.44	369.80
500.61	411.93
500.79	327.68
500.97	379.17
501.14	372.15
501.32	339.38
501.49	351.08
501.67	283.20
501.84	308.95
502.02	283.20
502.20	334.70
502.37	299.59
502.55	374.49
502.72	332.36
502.90	374.49
503.07	339.38
503.25	257.46
503.43	262.14
503.60	234.05
503.78	334.70
503.95	259.80
504.13	236.39
504.30	337.04
504.48	287.89
504.65	348.74
504.83	294.91
505.01	283.20
505.18	313.63
505.36	294.91
505.53	220.01
505.71	262.14
505.88	358.10
506.06	217.67
506.23	250.44
506.41	308.95
506.58	285.55
506.76	348.74
506.93	266.82
507.11	344.06
507.28	315.97
507.46	241.08
507.63	257.46
507.81	255.12
507.98	259.80
508.16	280.86
508.33	245.76
508.50	327.68
508.68	320.65
508.85	280.86
509.03	311.29
509.20	203.63
509.38	271.50
509.55	301.93
509.73	318.31
509.90	299.59
510.08	292.57
510.25	322.99
510.42	173.20
510.60	262.14
510.77	278.52
510.95	220.01
511.12	348.74
511.30	227.03
511.47	271.50
511.64	362.78
511.82	222.35
511.99	304.27
512.17	255.12
512.34	280.86
512.51	212.99
512.69	290.23
512.86	257.46
513.04	264.48
513.21	280.86
513.38	222.35
513.56	255.12
513.73	163.84
513.90	201.29
514.08	243.42
514.25	229.37
514.43	163.84
514.60	220.01
514.77	255.12
514.95	290.23
515.12	217.67
515.29	220.01
515.47	299.59
515.64	245.76
515.81	222.35
515.99	238.73
516.16	234.05
516.33	266.82
516.51	224.69
516.68	227.03
516.85	306.61
517.03	203.63
517.20	205.97
517.37	222.35
517.54	266.82
517.72	208.31
517.89	215.33
518.06	236.39
518.24	234.05
518.41	320.65
518.58	285.55
518.75	259.80
518.93	227.03
519.10	262.14
519.27	215.33
519.45	318.31
519.62	238.73
519.79	245.76
519.96	269.16
520.14	264.48
520.31	278.52
520.48	229.37
520.65	250.44
520.83	273.84
521.00	259.80
521.17	285.55
521.34	189.58
521.52	269.16
521.69	278.52
521.86	217.67
522.03	234.05
522.20	259.80
522.38	210.65
522.55	198.95
522.72	210.65
522.89	278.52
523.07	355.76
523.24	245.76
523.41	245.76
523.58	262.14
523.75	318.31
523.92	170.86
524.10	269.16
524.27	304.27
524.44	276.18
524.61	311.29
524.78	241.08
524.96	327.68
525.13	318.31
525.30	271.50
525.47	308.95
525.64	262.14
525.81	250.44
525.98	269.16
526.16	231.71
526.33	266.82
526.50	241.08
526.67	236.39
526.84	332.36
527.01	290.23
527.18	271.50
527.36	271.50
527.53	297.25
527.70	285.55
527.87	285.55
528.04	283.20
528.21	231.71
528.38	285.55
528.55	269.16
528.72	248.10
528.89	285.55
529.07	322.99
529.24	351.08
529.41	266.82
529.58	271.50
529.75	299.59
529.92	297.25
530.09	301.93
530.26	306.61
530.43	245.76
530.60	217.67
530.77	330.02
530.94	355.76
531.11	390.87
531.28	266.82
531.46	266.82
531.63	322.99
531.80	344.06
531.97	315.97
532.14	351.08
532.31	381.51
532.48	402.57
532.65	402.57
532.82	388.53
532.99	409.59
533.16	507.90
533.33	543.00
533.50	484.49
533.67	397.89
533.84	407.25
534.01	449.38
534.18	358.10
534.35	400.23
534.52	339.38
534.69	395.55
534.86	367.46
535.03	390.87
535.20	374.49
535.37	510.24
535.54	458.74
535.71	416.62
535.88	507.90
536.05	411.93
536.22	550.03
536.38	491.51
536.55	594.50
536.72	634.29
536.89	615.56
537.06	678.76
537.23	706.84
537.40	821.53
537.57	873.02
537.74	833.23
537.91	908.13
538.08	851.96
538.25	809.83
538.42	931.53
538.59	924.51
538.75	966.64
538.92	1006.43
539.09	1137.50
539.26	1081.33
539.43	1327.08
539.60	1488.58
539.77	1682.85
539.94	1865.41
540.11	1853.70
540.28	2179.04
540.44	2125.21
540.61	2389.69
540.78	2822.69
540.95	3335.26
541.12	3936.78
541.29	4257.43
541.46	4231.69
541.62	4283.18
541.79	4236.37
541.96	3843.16
542.13	3651.24
542.30	3527.19
542.47	3389.10
542.63	3162.06
542.80	3176.11
542.97	3173.77
543.14	3143.34
543.31	3021.63
543.48	3124.62
543.64	3089.51
543.81	2972.48
543.98	3056.74
544.15	3148.02
544.32	3187.81
544.48	3157.38
544.65	3047.38
544.82	3019.29
544.99	3061.42
545.16	3192.49
545.32	3468.67
545.49	7016.93
545.66	9823.23
545.83	10586.24
546.00	8805.10
546.16	6331.15
546.33	4786.40
546.50	3639.53
546.67	3049.72
546.83	2675.23
547.00	2579.27
547.17	2377.98
547.34	2361.60
547.50	2291.38
547.67	2246.91
547.84	2146.27
548.00	2200.10
548.17	1973.07
548.34	2008.18
548.51	1905.20
548.67	1748.38
548.84	1741.36
549.01	1652.42
549.18	1643.06
549.34	1540.07
549.51	1647.74
549.68	1591.56
549.84	1411.34
550.01	1261.55
550.18	1369.21
550.34	1233.46
550.51	1308.36
550.68	1207.72
550.84	1071.97
551.01	1109.41
551.18	1057.92
551.34	1018.13
551.51	954.94
551.68	896.43
551.84	936.21
552.01	931.53
552.18	849.61
552.34	851.96
552.51	720.88
552.68	800.46
552.84	786.42
553.01	730.25
553.18	678.76
553.34	709.18
553.51	716.20
553.67	685.78
553.84	660.03
554.01	608.54
554.17	645.99
554.34	585.13
554.51	585.13
554.67	568.75
554.84	500.87
555.00	472.79
555.17	376.83
555.33	458.74
555.50	449.38
555.67	437.68
555.83	442.36
556.00	423.64
556.16	545.34
556.33	468.11
556.50	330.02
556.66	341.72
556.83	404.91
556.99	433.00
557.16	376.83
557.32	367.46
557.49	325.33
557.65	369.80
557.82	308.95
557.98	351.08
558.15	383.85
558.32	365.12
558.48	386.19
558.65	292.57
558.81	351.08
558.98	381.51
559.14	355.76
559.31	383.85
559.47	346.40
559.64	315.97
559.80	376.83
559.97	304.27
560.13	299.59
560.30	297.25
560.46	308.95
560.63	374.49
560.79	367.46
560.96	332.36
561.12	332.36
561.29	362.78
561.45	252.78
561.61	280.86
561.78	315.97
561.94	322.99
562.11	320.65
562.27	358.10
562.44	252.78
562.60	308.95
562.77	308.95
562.93	383.85
563.10	322.99
563.26	330.02
563.42	315.97
563.59	304.27
563.75	367.46
563.92	355.76
564.08	330.02
564.24	369.80
564.41	355.76
564.57	243.42
564.74	252.78
564.90	313.63
565.07	269.16
565.23	297.25
565.39	276.18
565.56	264.48
565.72	341.72
565.88	255.12
566.05	306.61
566.21	224.69
566.38	283.20
566.54	306.61
566.70	294.91
566.87	278.52
567.03	241.08
567.19	369.80
567.36	299.59
567.52	304.27
567.68	332.36
567.85	212.99
568.01	287.89
568.17	196.60
568.34	337.04
568.50	283.20
568.66	210.65
568.83	348.74
568.99	318.31
569.15	381.51
569.32	236.39
569.48	273.84
569.64	210.65
569.81	273.84
569.97	269.16
570.13	243.42
570.30	245.76
570.46	241.08
570.62	262.14
570.78	294.91
570.95	215.33
571.11	301.93
571.27	276.18
571.43	278.52
571.60	245.76
571.76	266.82
571.92	283.20
572.09	252.78
572.25	285.55
572.41	194.26
572.57	304.27
572.74	315.97
572.90	273.84
573.06	330.02
573.22	290.23
573.38	224.69
573.55	259.80
573.71	243.42
573.87	234.05
574.03	367.46
574.20	266.82
574.36	297.25
574.52	224.69
574.68	238.73
574.84	276.18
575.01	313.63
575.17	241.08
575.33	238.73
575.49	327.68
575.65	320.65
575.82	358.10
575.98	400.23
576.14	362.78
576.30	807.48
576.46	1521.35
576.62	1984.77
576.79	1940.30
576.95	1509.65
577.11	1076.65
577.27	711.52
577.43	568.75
577.59	545.34
577.75	442.36
577.92	379.17
578.08	465.77
578.24	395.55
578.40	772.38
578.56	1483.90
578.72	1919.24
578.88	1867.75
579.04	1359.85
579.21	1025.15
579.37	837.91
579.53	695.14
579.69	739.61
579.85	837.91
580.01	950.26
580.17	873.02
580.33	753.65
580.49	720.88
580.65	613.22
580.82	608.54
580.98	702.16
581.14	627.26
581.30	655.35
581.46	662.37
581.62	709.18
581.78	758.33
581.94	746.63
582.10	800.46
582.26	880.04
582.42	842.59
582.58	889.40
582.74	908.13
582.90	873.02
583.06	877.70
583.22	966.64
583.38	849.61
583.54	851.96
583.70	884.72
583.86	940.90
584.02	917.49
584.18	816.85
584.34	856.64
584.50	856.64
584.66	861.32
584.82	786.42
584.98	854.30
585.14	779.40
585.30	800.46
585.46	718.54
585.62	720.88
585.78	737.27
585.94	737.27
586.10	812.17
586.26	812.17
586.42	1008.77
586.58	1055.58
586.74	1238.14
586.90	1394.96
587.06	1535.39
587.22	1511.99
587.38	1299.00
587.54	1210.06
587.70	992.39
587.86	952.60
588.02	716.20
588.18	781.74
588.34	702.16
588.49	648.33
588.65	589.82
588.81	697.48
588.97	606.20
589.13	641.31
589.29	547.69
589.45	596.84
589.61	564.07
589.77	638.97
589.93	596.84
590.08	596.84
590.24	557.05
590.40	601.52
590.56	608.54
590.72	568.75
590.88	613.22
591.04	770.04
591.20	770.04
591.35	795.78
591.51	692.80
591.67	779.40
591.83	842.59
591.99	851.96
592.15	910.47
592.31	950.26
592.46	931.53
592.62	1043.88
592.78	1039.20
592.94	1156.22
593.10	1123.46
593.26	1025.15
593.41	964.30
593.57	945.58
593.73	842.59
593.89	800.46
594.05	634.29
594.20	594.50
594.36	641.31
594.52	594.50
594.68	514.92
594.84	486.83
594.99	486.83
595.15	578.11
595.31	545.34
595.47	575.77
595.62	514.92
595.78	433.00
595.94	514.92
596.10	561.73
596.25	496.19
596.41	512.58
596.57	461.09
596.73	484.49
596.88	505.56
597.04	470.45
597.20	496.19
597.36	512.58
597.51	519.60
597.67	517.26
597.83	517.26
597.99	627.26
598.14	592.16
598.30	594.50
598.46	535.98
598.61	667.05
598.77	718.54
598.93	791.10
599.09	737.27
599.24	748.97
599.40	763.01
599.56	716.20
599.71	634.29
599.87	629.60
600.03	627.26
600.18	615.56
600.34	617.90
600.50	491.51
600.65	468.11
600.81	512.58
600.97	507.90
601.12	477.47
601.28	587.47
601.44	456.40
601.59	369.80
601.75	496.19
601.91	496.19
602.06	451.72
602.22	500.87
602.37	416.62
602.53	337.04
602.69	395.55
602.84	440.02
603.00	461.09
603.16	374.49
603.31	491.51
603.47	465.77
603.62	451.72
603.78	437.68
603.94	498.53
604.09	482.15
604.25	440.02
604.40	383.85
604.56	463.43
604.71	414.27
604.87	437.68
605.03	456.40
605.18	402.57
605.34	458.74
605.49	489.17
605.65	456.40
605.80	472.79
605.96	486.83
606.12	554.71
606.27	568.75
606.43	547.69
606.58	594.50
606.74	571.09
606.89	535.98
607.05	692.80
607.20	622.58
607.36	514.92
607.51	573.43
607.67	645.99
607.82	748.97
607.98	828.55
608.13	802.80
608.29	917.49
608.44	945.58
608.60	1050.90
608.75	1123.46
608.91	1174.95
609.06	1163.25
609.22	1329.42
609.37	1376.24
609.53	1591.56
609.68	1856.04
609.84	2083.08
609.99	2326.49
610.15	2895.24
610.30	3428.88
610.46	4421.27
610.61	5668.78
610.76	6956.07
610.92	8351.03
611.07	9107.02
611.23	8985.32
611.38	8486.78
611.54	7456.95
611.69	6155.61
611.84	5078.96
612.00	4423.61
612.15	3819.75
612.31	3440.59
612.46	3070.78
612.62	2902.26
612.77	2752.47
612.92	2605.02
613.08	2506.71
613.23	2324.15
613.39	2293.72
613.54	2193.08
613.69	2132.23
613.85	2111.16
614.00	2176.70
614.15	2099.46
614.31	2073.71
614.46	2050.31
614.62	2022.22
614.77	1872.43
614.92	1741.36
615.08	1699.23
615.23	1554.12
615.38	1401.98
615.54	1259.21
615.69	1301.34
615.84	1142.18
616.00	1029.84
616.15	973.66
616.30	828.55
616.46	910.47
616.61	851.96
616.76	929.19
616.92	833.23
617.07	699.82
617.22	858.98
617.37	739.61
617.53	727.91
617.68	648.33
617.83	636.63
617.99	667.05
618.14	685.78
618.29	592.16
618.45	681.10
618.60	655.35
618.75	613.22
618.90	573.43
619.06	622.58
619.21	552.37
619.36	582.79
619.51	568.75
619.67	550.03
619.82	575.77
619.97	638.97
620.12	575.77
620.28	720.88
620.43	596.84
620.58	622.58
620.73	664.71
620.89	655.35
621.04	681.10
621.19	713.86
621.34	601.52
621.49	540.66
621.65	547.69
621.80	634.29
621.95	634.29
622.10	641.31
622.25	538.32
622.41	578.11
622.56	606.20
622.71	578.11
622.86	730.25
623.01	617.90
623.16	653.01
623.32	699.82
623.47	641.31
623.62	645.99
623.77	732.59
623.92	608.54
624.07	587.47
624.23	662.37
624.38	711.52
624.53	725.57
624.68	702.16
624.83	695.14
624.98	636.63
625.13	681.10
625.29	711.52
625.44	545.34
625.59	613.22
625.74	683.44
625.89	730.25
626.04	615.56
626.19	620.24
626.34	660.03
626.49	678.76
626.65	688.12
626.80	676.41
626.95	645.99
627.10	587.47
627.25	664.71
627.40	557.05
627.55	685.78
627.70	603.86
627.85	653.01
628.00	608.54
628.15	641.31
628.30	603.86
628.45	578.11
628.60	702.16
628.76	580.45
628.91	571.09
629.06	620.24
629.21	594.50
629.36	681.10
629.51	718.54
629.66	671.73
629.81	702.16
629.96	699.82
630.11	821.53
630.26	901.11
630.41	931.53
630.56	1074.31
630.71	1034.52
630.86	1121.12
631.01	1088.35
631.16	990.05
631.31	924.51
631.46	732.59
631.61	725.57
631.76	688.12
631.91	599.18
632.06	447.04
632.21	428.32
632.36	430.66
632.51	374.49
632.66	299.59
632.81	381.51
632.96	308.95
633.10	311.29
633.25	397.89
633.40	306.61
633.55	372.15
633.70	292.57
633.85	327.68
634.00	283.20
634.15	262.14
634.30	250.44
634.45	299.59
634.60	292.57
634.75	294.91
634.90	168.52
635.05	311.29
635.19	311.29
635.34	304.27
635.49	273.84
635.64	280.86
635.79	315.97
635.94	259.80
636.09	250.44
636.24	220.01
636.39	241.08
636.53	304.27
636.68	285.55
636.83	287.89
636.98	255.12
637.13	264.48
637.28	283.20
637.43	285.55
637.57	266.82
637.72	308.95
637.87	276.18
638.02	278.52
638.17	320.65
638.32	308.95
638.46	297.25
638.61	283.20
638.76	149.79
638.91	262.14
639.06	217.67
639.20	287.89
639.35	278.52
639.50	191.92
639.65	313.63
639.80	215.33
639.94	355.76
640.09	344.06
640.24	351.08
640.39	245.76
640.54	257.46
640.68	245.76
640.83	177.88
640.98	220.01
641.13	194.26
641.27	191.92
641.42	170.86
641.57	259.80
641.72	222.35
641.86	259.80
642.01	283.20
642.16	262.14
642.31	220.01
642.45	285.55
642.60	306.61
642.75	238.73
642.90	257.46
643.04	238.73
643.19	212.99
643.34	245.76
643.48	248.10
643.63	255.12
643.78	311.29
643.93	285.55
644.07	266.82
644.22	236.39
644.37	224.69
644.51	224.69
644.66	271.50
644.81	180.22
644.95	292.57
645.10	236.39
645.25	135.75
645.39	227.03
645.54	257.46
645.69	299.59
645.83	224.69
645.98	262.14
646.13	243.42
646.27	297.25
646.42	252.78
646.57	166.18
646.71	201.29
646.86	180.22
647.00	255.12
647.15	257.46
647.30	168.52
647.44	227.03
647.59	184.90
647.74	191.92
647.88	245.76
648.03	140.43
648.17	220.01
648.32	241.08
648.47	243.42
648.61	325.33
648.76	182.56
648.90	194.26
649.05	285.55
649.20	203.63
649.34	191.92
649.49	266.82
649.63	297.25
649.78	308.95
649.92	362.78
650.07	409.59
650.21	402.57
650.36	449.38
650.51	362.78
650.65	437.68
650.80	353.42
650.94	327.68
651.09	308.95
651.23	252.78
651.38	292.57
651.52	238.73
651.67	238.73
651.81	231.71
651.96	280.86
652.10	294.91
652.25	236.39
652.39	248.10
652.54	278.52
652.68	306.61
652.83	308.95
652.97	325.33
653.12	280.86
653.26	266.82
653.41	299.59
653.55	250.44
653.70	262.14
653.84	201.29
653.99	248.10
654.13	217.67
654.27	198.95
654.42	159.16
654.56	220.01
654.71	266.82
654.85	229.37
655.00	168.52
655.14	175.54
655.29	269.16
655.43	180.22
655.57	257.46
655.72	187.24
655.86	259.80
656.01	217.67
656.15	163.84
656.30	175.54
656.44	189.58
656.58	140.43
656.73	245.76
656.87	266.82
657.01	229.37
657.16	294.91
657.30	285.55
657.45	287.89
657.59	220.01
657.73	234.05
657.88	173.20
658.02	320.65
658.16	175.54
658.31	205.97
658.45	212.99
658.60	203.63
658.74	177.88
658.88	184.90
659.03	224.69
659.17	224.69
659.31	229.37
659.46	168.52
659.60	283.20
659.74	210.65
659.89	198.95
660.03	154.48
660.17	210.65
660.32	145.11
660.46	149.79
660.60	220.01
660.74	175.54
660.89	203.63
661.03	177.88
661.17	215.33
661.32	224.69
661.46	220.01
661.60	287.89
661.74	255.12
661.89	318.31
662.03	280.86
662.17	365.12
662.31	304.27
662.46	337.04
662.60	278.52
662.74	276.18
662.88	318.31
663.03	191.92
663.17	269.16
663.31	262.14
663.45	131.07
663.60	205.97
663.74	215.33
663.88	168.52
664.02	168.52
664.17	222.35
664.31	187.24
664.45	236.39
664.59	177.88
664.73	114.69
664.88	168.52
665.02	205.97
665.16	210.65
665.30	220.01
665.44	271.50
665.59	196.60
665.73	198.95
665.87	205.97
666.01	205.97
666.15	114.69
666.29	177.88
666.44	212.99
666.58	301.93
666.72	215.33
666.86	217.67
667.00	262.14
667.14	215.33
667.28	264.48
667.43	140.43
667.57	180.22
667.71	243.42
667.85	222.35
667.99	306.61
668.13	224.69
668.27	210.65
668.41	161.50
668.56	156.82
668.70	231.71
668.84	203.63
668.98	184.90
669.12	159.16
669.26	182.56
669.40	210.65
669.54	180.22
669.68	128.73
669.82	191.92
669.96	208.31
670.10	194.26
670.25	168.52
670.39	257.46
670.53	198.95
670.67	220.01
670.81	189.58
670.95	163.84
671.09	196.60
671.23	210.65
671.37	205.97
671.51	170.86
671.65	220.01
671.79	243.42
671.93	180.22
672.07	292.57
672.21	255.12
672.35	222.35
672.49	203.63
672.63	140.43
672.77	135.75
672.91	142.77
673.05	187.24
673.19	201.29
673.33	196.60
673.47	205.97
673.61	215.33
673.75	121.71
673.89	154.48
674.03	191.92
674.17	184.90
674.31	215.33
674.45	203.63
674.59	156.82
674.73	187.24
674.87	182.56
675.01	238.73
675.15	138.09
675.29	189.58
675.43	205.97
675.56	217.67
675.70	243.42
675.84	154.48
675.98	205.97
676.12	182.56
676.26	133.41
676.40	112.35
676.54	175.54
676.68	147.45
676.82	189.58
676.96	105.32
677.10	196.60
677.23	184.90
677.37	156.82
677.51	149.79
677.65	156.82
677.79	175.54
677.93	173.20
678.07	210.65
678.21	159.16
678.34	271.50
678.48	196.60
678.62	128.73
678.76	177.88
678.90	149.79
679.04	241.08
679.18	147.45
679.31	117.03
679.45	135.75
679.59	147.45
679.73	121.71
679.87	145.11
680.00	156.82
680.14	220.01
680.28	182.56
680.42	152.13
680.56	166.18
680.70	170.86
680.83	203.63
680.97	105.32
681.11	161.50
681.25	224.69
681.39	175.54
681.52	241.08
681.66	154.48
681.80	189.58
681.94	194.26
682.07	133.41
682.21	189.58
682.35	173.20
682.49	149.79
682.62	276.18
682.76	95.96
682.90	166.18
683.04	250.44
683.17	215.33
683.31	220.01
683.45	152.13
683.59	231.71
683.72	145.11
683.86	212.99
684.00	159.16
684.13	215.33
684.27	182.56
684.41	131.07
684.55	180.22
684.68	170.86
684.82	88.94
684.96	166.18
685.09	161.50
685.23	170.86
685.37	170.86
685.50	201.29
685.64	180.22
685.78	145.11
685.91	173.20
686.05	191.92
686.19	154.48
686.32	182.56
686.46	196.60
686.60	255.12
686.73	280.86
686.87	215.33
687.01	191.92
687.14	189.58
687.28	234.05
687.42	224.69
687.55	205.97
687.69	201.29
687.82	198.95
687.96	131.07
688.10	159.16
688.23	145.11
688.37	142.77
688.50	273.84
688.64	231.71
688.78	159.16
688.91	201.29
689.05	117.03
689.18	142.77
689.32	187.24
689.46	159.16
689.59	177.88
689.73	203.63
689.86	30.43
690.00	126.39
690.13	142.77
690.27	126.39
690.41	175.54
690.54	173.20
690.68	198.95
690.81	154.48
690.95	131.07
691.08	154.48
691.22	156.82
691.35	194.26
691.49	212.99
691.62	128.73
691.76	58.51
691.89	112.35
692.03	91.28
692.16	126.39
692.30	182.56
692.43	142.77
692.57	135.75
692.70	149.79
692.84	74.90
692.97	163.84
693.11	95.96
693.24	182.56
693.38	194.26
693.51	203.63
693.65	215.33
693.78	161.50
693.92	191.92
694.05	234.05
694.19	189.58
694.32	152.13
694.45	159.16
694.59	191.92
694.72	194.26
694.86	147.45
694.99	142.77
695.13	138.09
695.26	105.32
695.39	114.69
695.53	203.63
695.66	110.01
695.80	117.03
695.93	42.13
696.07	53.83
696.20	147.45
696.33	205.97
696.47	161.50
696.60	86.60
696.73	142.77
696.87	175.54
697.00	161.50
697.14	70.22
697.27	156.82
697.40	173.20
697.54	161.50
697.67	182.56
697.80	184.90
697.94	119.37
698.07	140.43
698.21	138.09
698.34	107.66
698.47	112.35
698.61	119.37
698.74	84.26
698.87	180.22
699.01	100.64
699.14	131.07
699.27	107.66
699.40	245.76
699.54	112.35
699.67	159.16
699.80	163.84
699.94	100.64
700.07	166.18
700.20	119.37
700.34	93.62
700.47	84.26
700.60	131.07
700.73	175.54
700.87	168.52
701.00	67.88
701.13	58.51
701.26	93.62
701.40	142.77
701.53	110.01
701.66	173.20
701.79	159.16
701.93	114.69
702.06	177.88
702.19	100.64
702.32	154.48
702.46	117.03
702.59	156.82
702.72	86.60
702.85	133.41
702.99	121.71
703.12	156.82
703.25	67.88
703.38	100.64
703.51	138.09
703.65	156.82
703.78	126.39
703.91	198.95
704.04	227.03
704.17	119.37
704.31	32.77
704.44	168.52
704.57	140.43
704.70	124.05
704.83	152.13
704.96	177.88
705.10	142.77
705.23	114.69
>>>>>End Processed Spectral Data<<<<<
