SpectraSuite Data File
++++++++++++++++++++++++++++++++++++
Date: Fri Oct 04 11:41:39 GMT-05:00 2013
User: price-jones
Dark Spectrum Present: No
Reference Spectrum Present: No
Number of Sampled Component Spectra: 1
Spectrometers: USB2+H05261
Integration Time (usec): 100000 (USB2+H05261)
Spectra Averaged: 1 (USB2+H05261)
Boxcar Smoothing: 0 (USB2+H05261)
Correct for Electrical Dark: No (USB2+H05261)
Strobe/Lamp Enabled: No (USB2+H05261)
Correct for Detector Non-linearity: No (USB2+H05261)
Correct for Stray Light: No (USB2+H05261)
Number of Pixels in Processed Spectrum: 2048
>>>>>Begin Processed Spectral Data<<<<<
365.73	114.69
365.92	114.69
366.12	114.69
366.32	0.00
366.52	0.00
366.72	35.11
366.91	0.00
367.11	0.00
367.31	0.00
367.51	0.00
367.70	0.00
367.90	0.00
368.10	4.68
368.30	0.00
368.49	0.00
368.69	0.00
368.89	0.00
369.09	0.00
369.28	0.00
369.48	0.00
369.68	7.02
369.87	35.11
370.07	0.00
370.27	0.00
370.47	35.11
370.66	0.00
370.86	39.79
371.06	53.83
371.25	95.96
371.45	42.13
371.65	117.03
371.84	21.06
372.04	84.26
372.24	93.62
372.44	105.32
372.63	110.01
372.83	77.24
373.03	156.82
373.22	56.17
373.42	95.96
373.62	145.11
373.81	98.30
374.01	191.92
374.21	100.64
374.40	105.32
374.60	159.16
374.79	140.43
374.99	117.03
375.19	140.43
375.38	147.45
375.58	163.84
375.78	154.48
375.97	117.03
376.17	177.88
376.37	177.88
376.56	168.52
376.76	152.13
376.95	105.32
377.15	152.13
377.35	173.20
377.54	152.13
377.74	121.71
377.93	149.79
378.13	198.95
378.33	93.62
378.52	147.45
378.72	238.73
378.91	173.20
379.11	86.60
379.31	140.43
379.50	98.30
379.70	79.58
379.89	67.88
380.09	168.52
380.28	142.77
380.48	128.73
380.68	102.98
380.87	145.11
381.07	77.24
381.26	177.88
381.46	145.11
381.65	105.32
381.85	135.75
382.04	112.35
382.24	147.45
382.43	121.71
382.63	126.39
382.83	112.35
383.02	128.73
383.22	159.16
383.41	107.66
383.61	126.39
383.80	126.39
384.00	102.98
384.19	161.50
384.39	194.26
384.58	70.22
384.78	154.48
384.97	131.07
385.17	65.54
385.36	84.26
385.56	133.41
385.75	168.52
385.95	182.56
386.14	124.05
386.34	42.13
386.53	81.92
386.72	39.79
386.92	72.56
387.11	135.75
387.31	168.52
387.50	184.90
387.70	140.43
387.89	70.22
388.09	88.94
388.28	112.35
388.48	70.22
388.67	133.41
388.86	95.96
389.06	135.75
389.25	91.28
389.45	138.09
389.64	112.35
389.84	196.60
390.03	145.11
390.22	98.30
390.42	112.35
390.61	177.88
390.81	128.73
391.00	110.01
391.19	131.07
391.39	51.49
391.58	124.05
391.78	194.26
391.97	135.75
392.16	189.58
392.36	147.45
392.55	88.94
392.75	138.09
392.94	161.50
393.13	180.22
393.33	114.69
393.52	133.41
393.71	138.09
393.91	114.69
394.10	128.73
394.29	91.28
394.49	32.77
394.68	145.11
394.88	112.35
395.07	133.41
395.26	105.32
395.46	84.26
395.65	182.56
395.84	138.09
396.04	205.97
396.23	154.48
396.42	117.03
396.62	112.35
396.81	107.66
397.00	124.05
397.19	161.50
397.39	63.19
397.58	210.65
397.77	128.73
397.97	128.73
398.16	175.54
398.35	121.71
398.55	149.79
398.74	191.92
398.93	187.24
399.12	128.73
399.32	102.98
399.51	102.98
399.70	173.20
399.90	203.63
400.09	133.41
400.28	201.29
400.47	198.95
400.67	112.35
400.86	220.01
401.05	152.13
401.24	91.28
401.44	173.20
401.63	138.09
401.82	231.71
402.01	124.05
402.21	121.71
402.40	124.05
402.59	107.66
402.78	126.39
402.97	196.60
403.17	131.07
403.36	203.63
403.55	154.48
403.74	142.77
403.93	217.67
404.13	294.91
404.32	276.18
404.51	280.86
404.70	330.02
404.89	184.90
405.09	229.37
405.28	112.35
405.47	100.64
405.66	156.82
405.85	138.09
406.05	147.45
406.24	180.22
406.43	147.45
406.62	170.86
406.81	170.86
407.00	177.88
407.20	173.20
407.39	91.28
407.58	142.77
407.77	177.88
407.96	187.24
408.15	163.84
408.34	145.11
408.54	112.35
408.73	112.35
408.92	135.75
409.11	114.69
409.30	210.65
409.49	149.79
409.68	98.30
409.87	133.41
410.07	102.98
410.26	189.58
410.45	135.75
410.64	131.07
410.83	205.97
411.02	180.22
411.21	117.03
411.40	196.60
411.59	184.90
411.78	100.64
411.98	203.63
412.17	184.90
412.36	149.79
412.55	217.67
412.74	201.29
412.93	196.60
413.12	128.73
413.31	159.16
413.50	147.45
413.69	184.90
413.88	152.13
414.07	175.54
414.26	182.56
414.45	205.97
414.64	156.82
414.83	91.28
415.02	231.71
415.22	95.96
415.41	269.16
415.60	201.29
415.79	217.67
415.98	163.84
416.17	243.42
416.36	182.56
416.55	189.58
416.74	224.69
416.93	222.35
417.12	154.48
417.31	182.56
417.50	257.46
417.69	194.26
417.88	105.32
418.07	184.90
418.26	166.18
418.45	147.45
418.64	243.42
418.83	177.88
419.02	163.84
419.21	161.50
419.39	138.09
419.58	126.39
419.77	227.03
419.96	152.13
420.15	220.01
420.34	238.73
420.53	133.41
420.72	182.56
420.91	236.39
421.10	210.65
421.29	177.88
421.48	210.65
421.67	262.14
421.86	236.39
422.05	187.24
422.24	138.09
422.43	217.67
422.61	212.99
422.80	145.11
422.99	159.16
423.18	201.29
423.37	304.27
423.56	194.26
423.75	220.01
423.94	42.13
424.13	229.37
424.32	210.65
424.50	187.24
424.69	222.35
424.88	126.39
425.07	191.92
425.26	168.52
425.45	205.97
425.64	81.92
425.83	142.77
426.01	208.31
426.20	184.90
426.39	248.10
426.58	205.97
426.77	124.05
426.96	210.65
427.15	198.95
427.33	198.95
427.52	194.26
427.71	175.54
427.90	191.92
428.09	203.63
428.28	194.26
428.46	168.52
428.65	222.35
428.84	191.92
429.03	173.20
429.22	170.86
429.40	168.52
429.59	142.77
429.78	238.73
429.97	91.28
430.16	147.45
430.34	182.56
430.53	184.90
430.72	168.52
430.91	187.24
431.10	231.71
431.28	191.92
431.47	182.56
431.66	187.24
431.85	189.58
432.03	182.56
432.22	191.92
432.41	215.33
432.60	229.37
432.79	81.92
432.97	201.29
433.16	184.90
433.35	194.26
433.54	196.60
433.72	227.03
433.91	201.29
434.10	238.73
434.28	283.20
434.47	196.60
434.66	168.52
434.85	220.01
435.03	292.57
435.22	725.57
435.41	1282.61
435.59	1263.89
435.78	1015.79
435.97	587.47
436.16	395.55
436.34	163.84
436.53	229.37
436.72	262.14
436.90	191.92
437.09	238.73
437.28	201.29
437.46	194.26
437.65	166.18
437.84	170.86
438.02	194.26
438.21	220.01
438.40	203.63
438.58	205.97
438.77	222.35
438.96	184.90
439.14	140.43
439.33	241.08
439.52	201.29
439.70	210.65
439.89	175.54
440.08	140.43
440.26	229.37
440.45	196.60
440.63	236.39
440.82	208.31
441.01	203.63
441.19	243.42
441.38	229.37
441.57	262.14
441.75	269.16
441.94	330.02
442.12	241.08
442.31	180.22
442.50	203.63
442.68	182.56
442.87	191.92
443.05	278.52
443.24	215.33
443.43	306.61
443.61	177.88
443.80	222.35
443.98	149.79
444.17	121.71
444.35	203.63
444.54	220.01
444.73	175.54
444.91	229.37
445.10	243.42
445.28	231.71
445.47	180.22
445.65	229.37
445.84	184.90
446.02	276.18
446.21	182.56
446.39	222.35
446.58	250.44
446.77	220.01
446.95	222.35
447.14	311.29
447.32	182.56
447.51	189.58
447.69	175.54
447.88	184.90
448.06	273.84
448.25	238.73
448.43	205.97
448.62	133.41
448.80	259.80
448.99	205.97
449.17	187.24
449.36	234.05
449.54	294.91
449.73	133.41
449.91	203.63
450.10	229.37
450.28	337.04
450.46	294.91
450.65	234.05
450.83	245.76
451.02	238.73
451.20	147.45
451.39	245.76
451.57	224.69
451.76	156.82
451.94	229.37
452.13	210.65
452.31	308.95
452.49	220.01
452.68	152.13
452.86	156.82
453.05	304.27
453.23	133.41
453.42	170.86
453.60	255.12
453.78	236.39
453.97	135.75
454.15	203.63
454.34	196.60
454.52	243.42
454.70	280.86
454.89	259.80
455.07	205.97
455.26	290.23
455.44	292.57
455.62	142.77
455.81	287.89
455.99	234.05
456.17	194.26
456.36	215.33
456.54	208.31
456.73	156.82
456.91	236.39
457.09	191.92
457.28	248.10
457.46	241.08
457.64	224.69
457.83	175.54
458.01	196.60
458.19	180.22
458.38	145.11
458.56	231.71
458.74	252.78
458.93	229.37
459.11	301.93
459.29	177.88
459.48	224.69
459.66	269.16
459.84	269.16
460.03	339.38
460.21	234.05
460.39	318.31
460.57	299.59
460.76	264.48
460.94	269.16
461.12	257.46
461.31	301.93
461.49	191.92
461.67	276.18
461.85	191.92
462.04	217.67
462.22	416.62
462.40	224.69
462.59	280.86
462.77	170.86
462.95	215.33
463.13	236.39
463.32	259.80
463.50	236.39
463.68	227.03
463.86	236.39
464.05	271.50
464.23	285.55
464.41	217.67
464.59	255.12
464.78	332.36
464.96	187.24
465.14	222.35
465.32	301.93
465.50	266.82
465.69	220.01
465.87	234.05
466.05	227.03
466.23	222.35
466.41	227.03
466.60	212.99
466.78	339.38
466.96	285.55
467.14	196.60
467.32	248.10
467.51	217.67
467.69	255.12
467.87	255.12
468.05	278.52
468.23	320.65
468.41	224.69
468.60	205.97
468.78	266.82
468.96	238.73
469.14	245.76
469.32	215.33
469.50	245.76
469.69	208.31
469.87	229.37
470.05	297.25
470.23	215.33
470.41	177.88
470.59	208.31
470.77	259.80
470.95	278.52
471.14	273.84
471.32	276.18
471.50	276.18
471.68	184.90
471.86	229.37
472.04	208.31
472.22	255.12
472.40	238.73
472.58	222.35
472.77	212.99
472.95	177.88
473.13	208.31
473.31	287.89
473.49	252.78
473.67	294.91
473.85	255.12
474.03	266.82
474.21	198.95
474.39	210.65
474.57	273.84
474.75	304.27
474.93	205.97
475.12	203.63
475.30	320.65
475.48	236.39
475.66	266.82
475.84	252.78
476.02	252.78
476.20	259.80
476.38	138.09
476.56	311.29
476.74	252.78
476.92	250.44
477.10	238.73
477.28	257.46
477.46	217.67
477.64	264.48
477.82	156.82
478.00	285.55
478.18	222.35
478.36	222.35
478.54	210.65
478.72	250.44
478.90	325.33
479.08	287.89
479.26	196.60
479.44	276.18
479.62	262.14
479.80	318.31
479.98	231.71
480.16	327.68
480.34	325.33
480.52	250.44
480.70	276.18
480.88	220.01
481.06	278.52
481.24	229.37
481.41	299.59
481.59	290.23
481.77	308.95
481.95	341.72
482.13	322.99
482.31	325.33
482.49	271.50
482.67	280.86
482.85	290.23
483.03	269.16
483.21	301.93
483.39	285.55
483.57	414.27
483.74	313.63
483.92	351.08
484.10	339.38
484.28	287.89
484.46	362.78
484.64	294.91
484.82	353.42
485.00	374.49
485.18	369.80
485.35	318.31
485.53	341.72
485.71	397.89
485.89	337.04
486.07	369.80
486.25	444.70
486.43	334.70
486.61	442.36
486.78	381.51
486.96	330.02
487.14	463.43
487.32	383.85
487.50	402.57
487.68	411.93
487.85	411.93
488.03	367.46
488.21	433.00
488.39	411.93
488.57	442.36
488.75	386.19
488.92	692.80
489.10	421.30
489.28	442.36
489.46	334.70
489.64	379.17
489.81	315.97
489.99	414.27
490.17	393.21
490.35	468.11
490.53	425.98
490.70	332.36
490.88	402.57
491.06	447.04
491.24	435.34
491.41	440.02
491.59	409.59
491.77	484.49
491.95	372.15
492.13	355.76
492.30	388.53
492.48	353.42
492.66	369.80
492.84	397.89
493.01	411.93
493.19	334.70
493.37	414.27
493.54	383.85
493.72	379.17
493.90	365.12
494.08	360.44
494.25	381.51
494.43	414.27
494.61	390.87
494.79	315.97
494.96	397.89
495.14	388.53
495.32	411.93
495.49	440.02
495.67	386.19
495.85	411.93
496.02	390.87
496.20	346.40
496.38	416.62
496.55	416.62
496.73	397.89
496.91	397.89
497.09	330.02
497.26	351.08
497.44	355.76
497.62	409.59
497.79	369.80
497.97	407.25
498.14	374.49
498.32	351.08
498.50	341.72
498.67	407.25
498.85	369.80
499.03	397.89
499.20	351.08
499.38	411.93
499.56	348.74
499.73	423.64
499.91	362.78
500.08	374.49
500.26	337.04
500.44	297.25
500.61	369.80
500.79	449.38
500.97	308.95
501.14	472.79
501.32	376.83
501.49	418.96
501.67	341.72
501.84	397.89
502.02	344.06
502.20	435.34
502.37	386.19
502.55	283.20
502.72	376.83
502.90	334.70
503.07	376.83
503.25	339.38
503.43	313.63
503.60	257.46
503.78	372.15
503.95	341.72
504.13	367.46
504.30	374.49
504.48	332.36
504.65	358.10
504.83	325.33
505.01	404.91
505.18	376.83
505.36	318.31
505.53	280.86
505.71	379.17
505.88	369.80
506.06	372.15
506.23	437.68
506.41	337.04
506.58	383.85
506.76	339.38
506.93	339.38
507.11	362.78
507.28	325.33
507.46	327.68
507.63	332.36
507.81	376.83
507.98	334.70
508.16	283.20
508.33	416.62
508.50	248.10
508.68	325.33
508.85	332.36
509.03	341.72
509.20	374.49
509.38	276.18
509.55	390.87
509.73	353.42
509.90	416.62
510.08	344.06
510.25	358.10
510.42	346.40
510.60	376.83
510.77	322.99
510.95	353.42
511.12	383.85
511.30	397.89
511.47	404.91
511.64	348.74
511.82	358.10
511.99	351.08
512.17	353.42
512.34	325.33
512.51	381.51
512.69	318.31
512.86	374.49
513.04	353.42
513.21	362.78
513.38	346.40
513.56	294.91
513.73	308.95
513.90	334.70
514.08	388.53
514.25	376.83
514.43	418.96
514.60	444.70
514.77	245.76
514.95	301.93
515.12	395.55
515.29	362.78
515.47	430.66
515.64	360.44
515.81	332.36
515.99	444.70
516.16	325.33
516.33	416.62
516.51	292.57
516.68	264.48
516.85	299.59
517.03	315.97
517.20	344.06
517.37	423.64
517.54	304.27
517.72	341.72
517.89	358.10
518.06	273.84
518.24	456.40
518.41	402.57
518.58	383.85
518.75	367.46
518.93	393.21
519.10	372.15
519.27	365.12
519.45	372.15
519.62	297.25
519.79	339.38
519.96	330.02
520.14	374.49
520.31	369.80
520.48	339.38
520.65	330.02
520.83	360.44
521.00	358.10
521.17	430.66
521.34	365.12
521.52	330.02
521.69	381.51
521.86	407.25
522.03	440.02
522.20	369.80
522.38	372.15
522.55	322.99
522.72	351.08
522.89	369.80
523.07	397.89
523.24	458.74
523.41	320.65
523.58	388.53
523.75	414.27
523.92	393.21
524.10	374.49
524.27	381.51
524.44	416.62
524.61	409.59
524.78	330.02
524.96	379.17
525.13	346.40
525.30	388.53
525.47	430.66
525.64	397.89
525.81	339.38
525.98	341.72
526.16	351.08
526.33	351.08
526.50	428.32
526.67	430.66
526.84	383.85
527.01	353.42
527.18	372.15
527.36	327.68
527.53	330.02
527.70	374.49
527.87	369.80
528.04	435.34
528.21	393.21
528.38	348.74
528.55	425.98
528.72	433.00
528.89	409.59
529.07	423.64
529.24	402.57
529.41	402.57
529.58	397.89
529.75	393.21
529.92	411.93
530.09	360.44
530.26	353.42
530.43	337.04
530.60	344.06
530.77	411.93
530.94	407.25
531.11	348.74
531.28	489.17
531.46	374.49
531.63	334.70
531.80	402.57
531.97	423.64
532.14	358.10
532.31	318.31
532.48	414.27
532.65	451.72
532.82	421.30
532.99	486.83
533.16	440.02
533.33	491.51
533.50	435.34
533.67	418.96
533.84	360.44
534.01	395.55
534.18	402.57
534.35	383.85
534.52	346.40
534.69	400.23
534.86	348.74
535.03	465.77
535.20	435.34
535.37	456.40
535.54	528.96
535.71	390.87
535.88	461.09
536.05	465.77
536.22	430.66
536.38	507.90
536.55	430.66
536.72	550.03
536.89	425.98
537.06	484.49
537.23	456.40
537.40	444.70
537.57	547.69
537.74	601.52
537.91	552.37
538.08	557.05
538.25	589.82
538.42	585.13
538.59	566.41
538.75	507.90
538.92	601.52
539.09	606.20
539.26	641.31
539.43	641.31
539.60	751.31
539.77	753.65
539.94	711.52
540.11	851.96
540.28	863.66
540.44	868.34
540.61	931.53
540.78	1074.31
540.95	1247.51
541.12	1369.21
541.29	1397.30
541.46	1561.14
541.62	1575.18
541.79	1451.13
541.96	1462.83
542.13	1511.99
542.30	1327.08
542.47	1357.51
542.63	1317.72
542.80	1357.51
542.97	1284.95
543.14	1165.59
543.31	1277.93
543.48	1196.01
543.64	1373.89
543.81	1249.85
543.98	1252.19
544.15	1263.89
544.32	1245.16
544.48	1263.89
544.65	1284.95
544.82	1275.59
544.99	1235.80
545.16	1219.42
545.32	1331.76
545.49	1863.07
545.66	2944.39
545.83	3684.00
546.00	3276.75
546.16	2176.70
546.33	1736.68
546.50	1329.42
546.67	1256.87
546.83	1067.28
547.00	1025.15
547.17	978.34
547.34	961.96
547.50	884.72
547.67	950.26
547.84	877.70
548.00	910.47
548.17	910.47
548.34	856.64
548.51	898.77
548.67	819.19
548.84	760.67
549.01	844.93
549.18	812.17
549.34	741.95
549.51	807.48
549.68	734.93
549.84	727.91
550.01	671.73
550.18	795.78
550.34	734.93
550.51	671.73
550.68	732.59
550.84	606.20
551.01	685.78
551.18	519.60
551.34	594.50
551.51	573.43
551.68	585.13
551.84	606.20
552.01	552.37
552.18	528.96
552.34	521.94
552.51	538.32
552.68	465.77
552.84	507.90
553.01	496.19
553.18	491.51
553.34	428.32
553.51	458.74
553.67	463.43
553.84	543.00
554.01	468.11
554.17	468.11
554.34	393.21
554.51	451.72
554.67	561.73
554.84	449.38
555.00	477.47
555.17	400.23
555.33	400.23
555.50	383.85
555.67	362.78
555.83	358.10
556.00	383.85
556.16	543.00
556.33	442.36
556.50	334.70
556.66	416.62
556.83	397.89
556.99	327.68
557.16	388.53
557.32	383.85
557.49	294.91
557.65	355.76
557.82	315.97
557.98	376.83
558.15	304.27
558.32	383.85
558.48	383.85
558.65	395.55
558.81	367.46
558.98	376.83
559.14	383.85
559.31	425.98
559.47	407.25
559.64	379.17
559.80	393.21
559.97	362.78
560.13	379.17
560.30	351.08
560.46	416.62
560.63	341.72
560.79	367.46
560.96	496.19
561.12	315.97
561.29	362.78
561.45	397.89
561.61	365.12
561.78	430.66
561.94	358.10
562.11	393.21
562.27	311.29
562.44	308.95
562.60	444.70
562.77	339.38
562.93	400.23
563.10	355.76
563.26	381.51
563.42	285.55
563.59	379.17
563.75	332.36
563.92	397.89
564.08	428.32
564.24	418.96
564.41	395.55
564.57	322.99
564.74	269.16
564.90	386.19
565.07	369.80
565.23	379.17
565.39	325.33
565.56	397.89
565.72	243.42
565.88	313.63
566.05	327.68
566.21	362.78
566.38	458.74
566.54	353.42
566.70	430.66
566.87	416.62
567.03	248.10
567.19	369.80
567.36	433.00
567.52	341.72
567.68	390.87
567.85	351.08
568.01	327.68
568.17	283.20
568.34	348.74
568.50	301.93
568.66	393.21
568.83	414.27
568.99	313.63
569.15	416.62
569.32	411.93
569.48	299.59
569.64	351.08
569.81	383.85
569.97	344.06
570.13	381.51
570.30	339.38
570.46	308.95
570.62	379.17
570.78	283.20
570.95	337.04
571.11	322.99
571.27	351.08
571.43	341.72
571.60	353.42
571.76	348.74
571.92	334.70
572.09	334.70
572.25	297.25
572.41	414.27
572.57	407.25
572.74	407.25
572.90	341.72
573.06	414.27
573.22	397.89
573.38	388.53
573.55	308.95
573.71	456.40
573.87	447.04
574.03	299.59
574.20	388.53
574.36	390.87
574.52	297.25
574.68	337.04
574.84	362.78
575.01	365.12
575.17	325.33
575.33	236.39
575.49	365.12
575.65	395.55
575.82	395.55
575.98	332.36
576.14	358.10
576.30	468.11
576.46	610.88
576.62	821.53
576.79	954.94
576.95	805.14
577.11	636.63
577.27	482.15
577.43	472.79
577.59	428.32
577.75	383.85
577.92	423.64
578.08	306.61
578.24	358.10
578.40	477.47
578.56	685.78
578.72	784.08
578.88	882.38
579.04	711.52
579.21	615.56
579.37	601.52
579.53	503.22
579.69	430.66
579.85	505.56
580.01	543.00
580.17	486.83
580.33	482.15
580.49	442.36
580.65	552.37
580.82	486.83
580.98	475.13
581.14	369.80
581.30	533.64
581.46	430.66
581.62	543.00
581.78	517.26
581.94	533.64
582.10	407.25
582.26	510.24
582.42	578.11
582.58	594.50
582.74	575.77
582.90	517.26
583.06	477.47
583.22	538.32
583.38	543.00
583.54	512.58
583.70	568.75
583.86	571.09
584.02	627.26
584.18	601.52
584.34	596.84
584.50	470.45
584.66	543.00
584.82	465.77
584.98	540.66
585.14	456.40
585.30	608.54
585.46	472.79
585.62	500.87
585.78	540.66
585.94	500.87
586.10	482.15
586.26	531.30
586.42	608.54
586.58	606.20
586.74	645.99
586.90	706.84
587.06	774.72
587.22	746.63
587.38	730.25
587.54	648.33
587.70	564.07
587.86	592.16
588.02	442.36
588.18	521.94
588.34	514.92
588.49	318.31
588.65	428.32
588.81	414.27
588.97	362.78
589.13	409.59
589.29	360.44
589.45	386.19
589.61	425.98
589.77	428.32
589.93	362.78
590.08	360.44
590.24	390.87
590.40	397.89
590.56	416.62
590.72	458.74
590.88	463.43
591.04	407.25
591.20	358.10
591.35	454.06
591.51	449.38
591.67	472.79
591.83	505.56
591.99	402.57
592.15	510.24
592.31	500.87
592.46	610.88
592.62	582.79
592.78	547.69
592.94	557.05
593.10	538.32
593.26	552.37
593.41	557.05
593.57	449.38
593.73	463.43
593.89	479.81
594.05	369.80
594.20	470.45
594.36	400.23
594.52	348.74
594.68	418.96
594.84	404.91
594.99	393.21
595.15	383.85
595.31	381.51
595.47	411.93
595.62	297.25
595.78	372.15
595.94	304.27
596.10	369.80
596.25	367.46
596.41	334.70
596.57	435.34
596.73	435.34
596.88	344.06
597.04	449.38
597.20	358.10
597.36	418.96
597.51	379.17
597.67	344.06
597.83	435.34
597.99	400.23
598.14	376.83
598.30	456.40
598.46	344.06
598.61	479.81
598.77	472.79
598.93	451.72
599.09	493.85
599.24	461.09
599.40	538.32
599.56	400.23
599.71	566.41
599.87	458.74
600.03	416.62
600.18	428.32
600.34	339.38
600.50	381.51
600.65	414.27
600.81	390.87
600.97	360.44
601.12	388.53
601.28	381.51
601.44	416.62
601.59	374.49
601.75	325.33
601.91	388.53
602.06	346.40
602.22	425.98
602.37	397.89
602.53	330.02
602.69	407.25
602.84	341.72
603.00	299.59
603.16	346.40
603.31	374.49
603.47	402.57
603.62	409.59
603.78	362.78
603.94	374.49
604.09	367.46
604.25	369.80
604.40	475.13
604.56	372.15
604.71	369.80
604.87	341.72
605.03	318.31
605.18	330.02
605.34	442.36
605.49	332.36
605.65	332.36
605.80	365.12
605.96	334.70
606.12	351.08
606.27	461.09
606.43	479.81
606.58	447.04
606.74	418.96
606.89	463.43
607.05	425.98
607.20	337.04
607.36	447.04
607.51	458.74
607.67	437.68
607.82	428.32
607.98	447.04
608.13	418.96
608.29	449.38
608.44	514.92
608.60	547.69
608.75	594.50
608.91	620.24
609.06	648.33
609.22	746.63
609.37	645.99
609.53	730.25
609.68	868.34
609.84	837.91
609.99	954.94
610.15	1116.44
610.30	1210.06
610.46	1511.99
610.61	1998.82
610.76	2487.99
610.92	2895.24
611.07	3169.09
611.23	3286.11
611.38	3124.62
611.54	2747.79
611.69	2354.58
611.84	2038.61
612.00	1682.85
612.15	1486.24
612.31	1284.95
612.46	1245.16
612.62	1174.95
612.77	1125.80
612.92	1086.01
613.08	1039.20
613.23	940.90
613.39	971.32
613.54	961.96
613.69	929.19
613.85	905.79
614.00	917.49
614.15	971.32
614.31	866.00
614.46	1008.77
614.62	849.61
614.77	805.14
614.92	828.55
615.08	770.04
615.23	786.42
615.38	706.84
615.54	723.23
615.69	559.39
615.84	559.39
616.00	540.66
616.15	465.77
616.30	573.43
616.46	521.94
616.61	486.83
616.76	538.32
616.92	465.77
617.07	425.98
617.22	421.30
617.37	447.04
617.53	482.15
617.68	397.89
617.83	454.06
617.99	496.19
618.14	428.32
618.29	402.57
618.45	400.23
618.60	470.45
618.75	444.70
618.90	411.93
619.06	454.06
619.21	521.94
619.36	411.93
619.51	454.06
619.67	395.55
619.82	416.62
619.97	409.59
620.12	402.57
620.28	358.10
620.43	390.87
620.58	407.25
620.73	470.45
620.89	390.87
621.04	372.15
621.19	444.70
621.34	395.55
621.49	332.36
621.65	435.34
621.80	346.40
621.95	416.62
622.10	463.43
622.25	456.40
622.41	449.38
622.56	388.53
622.71	444.70
622.86	430.66
623.01	437.68
623.16	463.43
623.32	440.02
623.47	423.64
623.62	388.53
623.77	423.64
623.92	397.89
624.07	390.87
624.23	440.02
624.38	421.30
624.53	493.85
624.68	491.51
624.83	393.21
624.98	409.59
625.13	416.62
625.29	330.02
625.44	407.25
625.59	461.09
625.74	355.76
625.89	395.55
626.04	374.49
626.19	430.66
626.34	437.68
626.49	458.74
626.65	369.80
626.80	376.83
626.95	517.26
627.10	489.17
627.25	423.64
627.40	395.55
627.55	388.53
627.70	414.27
627.85	369.80
628.00	365.12
628.15	390.87
628.30	472.79
628.45	400.23
628.60	339.38
628.76	372.15
628.91	353.42
629.06	362.78
629.21	454.06
629.36	421.30
629.51	374.49
629.66	411.93
629.81	411.93
629.96	444.70
630.11	353.42
630.26	435.34
630.41	500.87
630.56	566.41
630.71	528.96
630.86	566.41
631.01	603.86
631.16	528.96
631.31	528.96
631.46	526.62
631.61	463.43
631.76	416.62
631.91	358.10
632.06	362.78
632.21	367.46
632.36	351.08
632.51	346.40
632.66	271.50
632.81	255.12
632.96	341.72
633.10	280.86
633.25	353.42
633.40	250.44
633.55	280.86
633.70	222.35
633.85	330.02
634.00	325.33
634.15	285.55
634.30	313.63
634.45	262.14
634.60	269.16
634.75	252.78
634.90	248.10
635.05	266.82
635.19	222.35
635.34	259.80
635.49	250.44
635.64	229.37
635.79	189.58
635.94	283.20
636.09	276.18
636.24	252.78
636.39	257.46
636.53	269.16
636.68	297.25
636.83	248.10
636.98	266.82
637.13	283.20
637.28	266.82
637.43	297.25
637.57	278.52
637.72	334.70
637.87	273.84
638.02	287.89
638.17	212.99
638.32	299.59
638.46	264.48
638.61	332.36
638.76	241.08
638.91	173.20
639.06	215.33
639.20	257.46
639.35	355.76
639.50	287.89
639.65	266.82
639.80	297.25
639.94	259.80
640.09	318.31
640.24	285.55
640.39	297.25
640.54	304.27
640.68	264.48
640.83	245.76
640.98	255.12
641.13	201.29
641.27	278.52
641.42	227.03
641.57	297.25
641.72	266.82
641.86	198.95
642.01	266.82
642.16	304.27
642.31	238.73
642.45	287.89
642.60	217.67
642.75	198.95
642.90	337.04
643.04	259.80
643.19	212.99
643.34	236.39
643.48	250.44
643.63	234.05
643.78	224.69
643.93	297.25
644.07	208.31
644.22	245.76
644.37	313.63
644.51	315.97
644.66	222.35
644.81	297.25
644.95	241.08
645.10	278.52
645.25	182.56
645.39	332.36
645.54	238.73
645.69	294.91
645.83	220.01
645.98	341.72
646.13	212.99
646.27	236.39
646.42	231.71
646.57	196.60
646.71	252.78
646.86	257.46
647.00	215.33
647.15	208.31
647.30	131.07
647.44	215.33
647.59	276.18
647.74	229.37
647.88	208.31
648.03	180.22
648.17	234.05
648.32	234.05
648.47	320.65
648.61	248.10
648.76	184.90
648.90	154.48
649.05	262.14
649.20	269.16
649.34	238.73
649.49	241.08
649.63	285.55
649.78	234.05
649.92	264.48
650.07	259.80
650.21	250.44
650.36	304.27
650.51	234.05
650.65	330.02
650.80	346.40
650.94	252.78
651.09	276.18
651.23	280.86
651.38	191.92
651.52	142.77
651.67	257.46
651.81	191.92
651.96	283.20
652.10	259.80
652.25	217.67
652.39	234.05
652.54	187.24
652.68	269.16
652.83	257.46
652.97	236.39
653.12	252.78
653.26	252.78
653.41	257.46
653.55	259.80
653.70	217.67
653.84	198.95
653.99	201.29
654.13	208.31
654.27	266.82
654.42	280.86
654.56	215.33
654.71	287.89
654.85	245.76
655.00	231.71
655.14	145.11
655.29	187.24
655.43	201.29
655.57	227.03
655.72	173.20
655.86	212.99
656.01	227.03
656.15	220.01
656.30	283.20
656.44	266.82
656.58	173.20
656.73	234.05
656.87	252.78
657.01	238.73
657.16	236.39
657.30	264.48
657.45	252.78
657.59	262.14
657.73	220.01
657.88	238.73
658.02	269.16
658.16	248.10
658.31	194.26
658.45	203.63
658.60	154.48
658.74	208.31
658.88	243.42
659.03	135.75
659.17	170.86
659.31	180.22
659.46	133.41
659.60	259.80
659.74	205.97
659.89	217.67
660.03	248.10
660.17	280.86
660.32	208.31
660.46	177.88
660.60	177.88
660.74	243.42
660.89	208.31
661.03	135.75
661.17	212.99
661.32	220.01
661.46	210.65
661.60	292.57
661.74	229.37
661.89	271.50
662.03	283.20
662.17	229.37
662.31	287.89
662.46	266.82
662.60	161.50
662.74	189.58
662.88	241.08
663.03	234.05
663.17	273.84
663.31	269.16
663.45	224.69
663.60	257.46
663.74	163.84
663.88	177.88
664.02	196.60
664.17	250.44
664.31	173.20
664.45	194.26
664.59	264.48
664.73	215.33
664.88	159.16
665.02	191.92
665.16	201.29
665.30	194.26
665.44	217.67
665.59	283.20
665.73	194.26
665.87	229.37
666.01	210.65
666.15	156.82
666.29	182.56
666.44	292.57
666.58	266.82
666.72	126.39
666.86	168.52
667.00	259.80
667.14	259.80
667.28	313.63
667.43	191.92
667.57	210.65
667.71	217.67
667.85	262.14
667.99	154.48
668.13	203.63
668.27	203.63
668.41	189.58
668.56	224.69
668.70	238.73
668.84	259.80
668.98	236.39
669.12	191.92
669.26	243.42
669.40	318.31
669.54	168.52
669.68	180.22
669.82	166.18
669.96	245.76
670.10	245.76
670.25	182.56
670.39	217.67
670.53	121.71
670.67	269.16
670.81	180.22
670.95	227.03
671.09	168.52
671.23	208.31
671.37	238.73
671.51	222.35
671.65	234.05
671.79	205.97
671.93	161.50
672.07	271.50
672.21	224.69
672.35	259.80
672.49	201.29
672.63	248.10
672.77	177.88
672.91	152.13
673.05	224.69
673.19	262.14
673.33	170.86
673.47	236.39
673.61	152.13
673.75	250.44
673.89	180.22
674.03	227.03
674.17	236.39
674.31	227.03
674.45	194.26
674.59	196.60
674.73	161.50
674.87	180.22
675.01	191.92
675.15	166.18
675.29	229.37
675.43	182.56
675.56	276.18
675.70	248.10
675.84	133.41
675.98	212.99
676.12	166.18
676.26	259.80
676.40	152.13
676.54	180.22
676.68	163.84
676.82	140.43
676.96	112.35
677.10	297.25
677.23	156.82
677.37	182.56
677.51	166.18
677.65	280.86
677.79	191.92
677.93	201.29
678.07	196.60
678.21	189.58
678.34	163.84
678.48	252.78
678.62	208.31
678.76	234.05
678.90	149.79
679.04	177.88
679.18	222.35
679.31	147.45
679.45	117.03
679.59	161.50
679.73	212.99
679.87	227.03
680.00	196.60
680.14	248.10
680.28	156.82
680.42	231.71
680.56	98.30
680.70	166.18
680.83	156.82
680.97	168.52
681.11	196.60
681.25	184.90
681.39	161.50
681.52	110.01
681.66	238.73
681.80	236.39
681.94	212.99
682.07	135.75
682.21	212.99
682.35	180.22
682.49	168.52
682.62	205.97
682.76	243.42
682.90	205.97
683.04	154.48
683.17	184.90
683.31	229.37
683.45	196.60
683.59	252.78
683.72	156.82
683.86	222.35
684.00	154.48
684.13	210.65
684.27	187.24
684.41	191.92
684.55	234.05
684.68	173.20
684.82	229.37
684.96	140.43
685.09	168.52
685.23	145.11
685.37	182.56
685.50	194.26
685.64	215.33
685.78	182.56
685.91	191.92
686.05	159.16
686.19	224.69
686.32	229.37
686.46	126.39
686.60	112.35
686.73	189.58
686.87	117.03
687.01	107.66
687.14	154.48
687.28	100.64
687.42	147.45
687.55	224.69
687.69	201.29
687.82	159.16
687.96	180.22
688.10	198.95
688.23	161.50
688.37	217.67
688.50	166.18
688.64	180.22
688.78	177.88
688.91	168.52
689.05	180.22
689.18	140.43
689.32	128.73
689.46	184.90
689.59	196.60
689.73	182.56
689.86	166.18
690.00	198.95
690.13	173.20
690.27	135.75
690.41	128.73
690.54	138.09
690.68	175.54
690.81	128.73
690.95	208.31
691.08	152.13
691.22	182.56
691.35	227.03
691.49	196.60
691.62	117.03
691.76	152.13
691.89	238.73
692.03	145.11
692.16	231.71
692.30	142.77
692.43	107.66
692.57	135.75
692.70	95.96
692.84	138.09
692.97	128.73
693.11	175.54
693.24	217.67
693.38	147.45
693.51	93.62
693.65	168.52
693.78	217.67
693.92	166.18
694.05	198.95
694.19	107.66
694.32	168.52
694.45	117.03
694.59	212.99
694.72	205.97
694.86	142.77
694.99	124.05
695.13	156.82
695.26	161.50
695.39	114.69
695.53	72.56
695.66	140.43
695.80	145.11
695.93	156.82
696.07	168.52
696.20	163.84
696.33	154.48
696.47	77.24
696.60	88.94
696.73	159.16
696.87	156.82
697.00	212.99
697.14	159.16
697.27	100.64
697.40	156.82
697.54	35.11
697.67	187.24
697.80	95.96
697.94	180.22
698.07	126.39
698.21	180.22
698.34	273.84
698.47	182.56
698.61	180.22
698.74	170.86
698.87	98.30
699.01	163.84
699.14	91.28
699.27	173.20
699.40	250.44
699.54	140.43
699.67	149.79
699.80	138.09
699.94	77.24
700.07	110.01
700.20	110.01
700.34	147.45
700.47	107.66
700.60	102.98
700.73	152.13
700.87	161.50
701.00	126.39
701.13	112.35
701.26	133.41
701.40	166.18
701.53	135.75
701.66	105.32
701.79	140.43
701.93	124.05
702.06	154.48
702.19	131.07
702.32	205.97
702.46	114.69
702.59	67.88
702.72	119.37
702.85	56.17
702.99	168.52
703.12	182.56
703.25	187.24
703.38	58.51
703.51	124.05
703.65	93.62
703.78	114.69
703.91	187.24
704.04	201.29
704.17	140.43
704.31	203.63
704.44	128.73
704.57	159.16
704.70	159.16
704.83	124.05
704.96	145.11
705.10	177.88
705.23	147.45
>>>>>End Processed Spectral Data<<<<<
