SpectraSuite Data File
++++++++++++++++++++++++++++++++++++
Date: Fri Oct 04 11:41:45 GMT-05:00 2013
User: price-jones
Dark Spectrum Present: No
Reference Spectrum Present: No
Number of Sampled Component Spectra: 1
Spectrometers: USB2+H05261
Integration Time (usec): 100000 (USB2+H05261)
Spectra Averaged: 1 (USB2+H05261)
Boxcar Smoothing: 0 (USB2+H05261)
Correct for Electrical Dark: No (USB2+H05261)
Strobe/Lamp Enabled: No (USB2+H05261)
Correct for Detector Non-linearity: No (USB2+H05261)
Correct for Stray Light: No (USB2+H05261)
Number of Pixels in Processed Spectrum: 2048
>>>>>Begin Processed Spectral Data<<<<<
365.73	53.83
365.92	53.83
366.12	53.83
366.32	0.00
366.52	0.00
366.72	0.00
366.91	0.00
367.11	0.00
367.31	0.00
367.51	0.00
367.70	0.00
367.90	0.00
368.10	0.00
368.30	0.00
368.49	0.00
368.69	0.00
368.89	0.00
369.09	0.00
369.28	0.00
369.48	0.00
369.68	0.00
369.87	32.77
370.07	0.00
370.27	4.68
370.47	4.68
370.66	67.88
370.86	39.79
371.06	51.49
371.25	70.22
371.45	42.13
371.65	95.96
371.84	102.98
372.04	35.11
372.24	154.48
372.44	81.92
372.63	98.30
372.83	145.11
373.03	74.90
373.22	70.22
373.42	81.92
373.62	95.96
373.81	133.41
374.01	65.54
374.21	166.18
374.40	63.19
374.60	243.42
374.79	98.30
374.99	121.71
375.19	37.45
375.38	161.50
375.58	81.92
375.78	145.11
375.97	121.71
376.17	198.95
376.37	189.58
376.56	159.16
376.76	117.03
376.95	79.58
377.15	102.98
377.35	107.66
377.54	180.22
377.74	117.03
377.93	81.92
378.13	98.30
378.33	140.43
378.52	86.60
378.72	91.28
378.91	168.52
379.11	131.07
379.31	42.13
379.50	58.51
379.70	135.75
379.89	194.26
380.09	81.92
380.28	149.79
380.48	102.98
380.68	159.16
380.87	114.69
381.07	74.90
381.26	102.98
381.46	44.47
381.65	93.62
381.85	166.18
382.04	110.01
382.24	102.98
382.43	142.77
382.63	53.83
382.83	110.01
383.02	67.88
383.22	126.39
383.41	77.24
383.61	112.35
383.80	119.37
384.00	156.82
384.19	72.56
384.39	95.96
384.58	39.79
384.78	149.79
384.97	131.07
385.17	67.88
385.36	105.32
385.56	107.66
385.75	70.22
385.95	84.26
386.14	56.17
386.34	100.64
386.53	107.66
386.72	58.51
386.92	91.28
387.11	95.96
387.31	138.09
387.50	117.03
387.70	37.45
387.89	131.07
388.09	81.92
388.28	77.24
388.48	46.81
388.67	67.88
388.86	0.00
389.06	100.64
389.25	98.30
389.45	119.37
389.64	119.37
389.84	175.54
390.03	124.05
390.22	131.07
390.42	100.64
390.61	156.82
390.81	91.28
391.00	140.43
391.19	140.43
391.39	159.16
391.58	140.43
391.78	91.28
391.97	135.75
392.16	175.54
392.36	191.92
392.55	91.28
392.75	154.48
392.94	138.09
393.13	119.37
393.33	32.77
393.52	124.05
393.71	142.77
393.91	95.96
394.10	65.54
394.29	84.26
394.49	77.24
394.68	166.18
394.88	63.19
395.07	131.07
395.26	105.32
395.46	86.60
395.65	128.73
395.84	107.66
396.04	140.43
396.23	67.88
396.42	60.85
396.62	95.96
396.81	102.98
397.00	84.26
397.19	140.43
397.39	56.17
397.58	86.60
397.77	95.96
397.97	217.67
398.16	124.05
398.35	107.66
398.55	84.26
398.74	102.98
398.93	152.13
399.12	86.60
399.32	114.69
399.51	67.88
399.70	166.18
399.90	131.07
400.09	126.39
400.28	105.32
400.47	152.13
400.67	107.66
400.86	170.86
401.05	159.16
401.24	128.73
401.44	86.60
401.63	166.18
401.82	182.56
402.01	117.03
402.21	110.01
402.40	145.11
402.59	117.03
402.78	124.05
402.97	117.03
403.17	163.84
403.36	189.58
403.55	180.22
403.74	365.12
403.93	1043.88
404.13	2019.88
404.32	2345.22
404.51	1818.60
404.70	1086.01
404.89	519.60
405.09	292.57
405.28	175.54
405.47	133.41
405.66	205.97
405.85	93.62
406.05	107.66
406.24	100.64
406.43	177.88
406.62	224.69
406.81	217.67
407.00	266.82
407.20	334.70
407.39	376.83
407.58	339.38
407.77	241.08
407.96	280.86
408.15	220.01
408.34	210.65
408.54	168.52
408.73	159.16
408.92	126.39
409.11	128.73
409.30	152.13
409.49	112.35
409.68	91.28
409.87	184.90
410.07	100.64
410.26	142.77
410.45	131.07
410.64	168.52
410.83	205.97
411.02	110.01
411.21	156.82
411.40	184.90
411.59	201.29
411.78	161.50
411.98	159.16
412.17	196.60
412.36	182.56
412.55	168.52
412.74	173.20
412.93	168.52
413.12	114.69
413.31	107.66
413.50	159.16
413.69	173.20
413.88	222.35
414.07	135.75
414.26	119.37
414.45	110.01
414.64	154.48
414.83	250.44
415.02	177.88
415.22	159.16
415.41	238.73
415.60	166.18
415.79	142.77
415.98	182.56
416.17	189.58
416.36	163.84
416.55	124.05
416.74	194.26
416.93	152.13
417.12	131.07
417.31	173.20
417.50	140.43
417.69	231.71
417.88	159.16
418.07	173.20
418.26	210.65
418.45	184.90
418.64	194.26
418.83	161.50
419.02	170.86
419.21	196.60
419.39	126.39
419.58	140.43
419.77	152.13
419.96	149.79
420.15	227.03
420.34	184.90
420.53	217.67
420.72	257.46
420.91	159.16
421.10	98.30
421.29	224.69
421.48	191.92
421.67	142.77
421.86	236.39
422.05	196.60
422.24	220.01
422.43	112.35
422.61	194.26
422.80	173.20
422.99	210.65
423.18	170.86
423.37	257.46
423.56	175.54
423.75	163.84
423.94	236.39
424.13	154.48
424.32	72.56
424.50	180.22
424.69	241.08
424.88	243.42
425.07	205.97
425.26	203.63
425.45	184.90
425.64	168.52
425.83	191.92
426.01	210.65
426.20	238.73
426.39	173.20
426.58	198.95
426.77	159.16
426.96	220.01
427.15	135.75
427.33	159.16
427.52	227.03
427.71	189.58
427.90	259.80
428.09	140.43
428.28	227.03
428.46	173.20
428.65	227.03
428.84	264.48
429.03	173.20
429.22	222.35
429.40	220.01
429.59	201.29
429.78	278.52
429.97	210.65
430.16	121.71
430.34	182.56
430.53	182.56
430.72	173.20
430.91	196.60
431.10	187.24
431.28	191.92
431.47	229.37
431.66	222.35
431.85	238.73
432.03	170.86
432.22	255.12
432.41	262.14
432.60	287.89
432.79	196.60
432.97	229.37
433.16	276.18
433.35	341.72
433.54	308.95
433.72	397.89
433.91	290.23
434.10	318.31
434.28	383.85
434.47	278.52
434.66	500.87
434.85	699.82
435.03	1816.26
435.22	6260.93
435.41	9942.60
435.59	8954.89
435.78	5713.25
435.97	2942.05
436.16	1170.27
436.34	510.24
436.53	372.15
436.72	315.97
436.90	287.89
437.09	273.84
437.28	292.57
437.46	308.95
437.65	231.71
437.84	231.71
438.02	262.14
438.21	290.23
438.40	231.71
438.58	257.46
438.77	255.12
438.96	264.48
439.14	212.99
439.33	285.55
439.52	201.29
439.70	227.03
439.89	262.14
440.08	175.54
440.26	201.29
440.45	283.20
440.63	315.97
440.82	262.14
441.01	264.48
441.19	285.55
441.38	255.12
441.57	250.44
441.75	205.97
441.94	280.86
442.12	271.50
442.31	229.37
442.50	290.23
442.68	348.74
442.87	222.35
443.05	227.03
443.24	344.06
443.43	234.05
443.61	217.67
443.80	210.65
443.98	234.05
444.17	229.37
444.35	290.23
444.54	313.63
444.73	278.52
444.91	229.37
445.10	271.50
445.28	238.73
445.47	278.52
445.65	227.03
445.84	280.86
446.02	196.60
446.21	255.12
446.39	210.65
446.58	294.91
446.77	194.26
446.95	203.63
447.14	259.80
447.32	337.04
447.51	245.76
447.69	245.76
447.88	248.10
448.06	285.55
448.25	196.60
448.43	168.52
448.62	231.71
448.80	205.97
448.99	285.55
449.17	229.37
449.36	290.23
449.54	238.73
449.73	290.23
449.91	283.20
450.10	248.10
450.28	250.44
450.46	245.76
450.65	257.46
450.83	287.89
451.02	320.65
451.20	269.16
451.39	154.48
451.57	276.18
451.76	255.12
451.94	205.97
452.13	201.29
452.31	283.20
452.49	269.16
452.68	262.14
452.86	257.46
453.05	252.78
453.23	215.33
453.42	205.97
453.60	210.65
453.78	243.42
453.97	231.71
454.15	210.65
454.34	234.05
454.52	238.73
454.70	262.14
454.89	271.50
455.07	266.82
455.26	210.65
455.44	236.39
455.62	224.69
455.81	269.16
455.99	283.20
456.17	236.39
456.36	276.18
456.54	215.33
456.73	208.31
456.91	318.31
457.09	278.52
457.28	301.93
457.46	280.86
457.64	330.02
457.83	269.16
458.01	280.86
458.19	269.16
458.38	236.39
458.56	264.48
458.74	264.48
458.93	311.29
459.11	341.72
459.29	262.14
459.48	252.78
459.66	220.01
459.84	269.16
460.03	355.76
460.21	269.16
460.39	262.14
460.57	264.48
460.76	250.44
460.94	191.92
461.12	248.10
461.31	264.48
461.49	180.22
461.67	248.10
461.85	276.18
462.04	273.84
462.22	388.53
462.40	294.91
462.59	292.57
462.77	227.03
462.95	248.10
463.13	245.76
463.32	313.63
463.50	320.65
463.68	201.29
463.86	264.48
464.05	173.20
464.23	299.59
464.41	325.33
464.59	320.65
464.78	210.65
464.96	234.05
465.14	203.63
465.32	339.38
465.50	287.89
465.69	234.05
465.87	173.20
466.05	234.05
466.23	248.10
466.41	262.14
466.60	280.86
466.78	285.55
466.96	238.73
467.14	236.39
467.32	210.65
467.51	269.16
467.69	315.97
467.87	227.03
468.05	182.56
468.23	297.25
468.41	313.63
468.60	201.29
468.78	255.12
468.96	205.97
469.14	255.12
469.32	191.92
469.50	238.73
469.69	283.20
469.87	238.73
470.05	208.31
470.23	128.73
470.41	250.44
470.59	243.42
470.77	257.46
470.95	264.48
471.14	306.61
471.32	229.37
471.50	250.44
471.68	322.99
471.86	308.95
472.04	212.99
472.22	245.76
472.40	203.63
472.58	175.54
472.77	273.84
472.95	220.01
473.13	264.48
473.31	287.89
473.49	208.31
473.67	250.44
473.85	266.82
474.03	276.18
474.21	287.89
474.39	252.78
474.57	243.42
474.75	306.61
474.93	255.12
475.12	285.55
475.30	205.97
475.48	248.10
475.66	215.33
475.84	231.71
476.02	224.69
476.20	287.89
476.38	255.12
476.56	290.23
476.74	210.65
476.92	297.25
477.10	262.14
477.28	290.23
477.46	222.35
477.64	290.23
477.82	224.69
478.00	238.73
478.18	208.31
478.36	191.92
478.54	224.69
478.72	299.59
478.90	266.82
479.08	257.46
479.26	245.76
479.44	224.69
479.62	290.23
479.80	332.36
479.98	212.99
480.16	351.08
480.34	355.76
480.52	287.89
480.70	418.96
480.88	341.72
481.06	292.57
481.24	404.91
481.41	470.45
481.59	440.02
481.77	414.27
481.95	428.32
482.13	433.00
482.31	465.77
482.49	486.83
482.67	545.34
482.85	517.26
483.03	550.03
483.21	578.11
483.39	582.79
483.57	634.29
483.74	613.22
483.92	627.26
484.10	690.46
484.28	734.93
484.46	847.27
484.64	814.51
484.82	833.23
485.00	882.38
485.18	842.59
485.35	919.83
485.53	959.62
485.71	943.24
485.89	973.66
486.07	1020.47
486.25	987.71
486.43	1093.03
486.61	1116.44
486.78	1093.03
486.96	1034.52
487.14	1011.11
487.32	992.39
487.50	1074.31
487.68	1039.20
487.85	1137.50
488.03	1041.54
488.21	997.07
488.39	976.00
488.57	1006.43
488.75	945.58
488.92	1102.39
489.10	940.90
489.28	945.58
489.46	978.34
489.64	828.55
489.81	894.08
489.99	849.61
490.17	828.55
490.35	823.87
490.53	858.98
490.70	835.57
490.88	854.30
491.06	973.66
491.24	887.06
491.41	983.02
491.59	770.04
491.77	800.46
491.95	800.46
492.13	807.48
492.30	805.14
492.48	720.88
492.66	758.33
492.84	716.20
493.01	760.67
493.19	734.93
493.37	800.46
493.54	655.35
493.72	650.67
493.90	664.71
494.08	681.10
494.25	732.59
494.43	674.07
494.61	624.92
494.79	603.86
494.96	688.12
495.14	697.48
495.32	561.73
495.49	730.25
495.67	697.48
495.85	589.82
496.02	711.52
496.20	610.88
496.38	657.69
496.55	627.26
496.73	662.37
496.91	608.54
497.09	554.71
497.26	603.86
497.44	641.31
497.62	578.11
497.79	535.98
497.97	561.73
498.14	535.98
498.32	468.11
498.50	559.39
498.67	428.32
498.85	535.98
499.03	510.24
499.20	503.22
499.38	470.45
499.56	507.90
499.73	489.17
499.91	475.13
500.08	545.34
500.26	365.12
500.44	425.98
500.61	390.87
500.79	322.99
500.97	411.93
501.14	435.34
501.32	482.15
501.49	463.43
501.67	444.70
501.84	334.70
502.02	397.89
502.20	416.62
502.37	395.55
502.55	404.91
502.72	358.10
502.90	386.19
503.07	358.10
503.25	353.42
503.43	325.33
503.60	383.85
503.78	348.74
503.95	334.70
504.13	266.82
504.30	337.04
504.48	311.29
504.65	283.20
504.83	271.50
505.01	304.27
505.18	383.85
505.36	325.33
505.53	306.61
505.71	320.65
505.88	294.91
506.06	276.18
506.23	297.25
506.41	269.16
506.58	278.52
506.76	337.04
506.93	308.95
507.11	224.69
507.28	227.03
507.46	315.97
507.63	236.39
507.81	271.50
507.98	280.86
508.16	308.95
508.33	241.08
508.50	287.89
508.68	332.36
508.85	423.64
509.03	262.14
509.20	229.37
509.38	327.68
509.55	369.80
509.73	264.48
509.90	353.42
510.08	330.02
510.25	224.69
510.42	227.03
510.60	290.23
510.77	208.31
510.95	308.95
511.12	245.76
511.30	229.37
511.47	322.99
511.64	341.72
511.82	313.63
511.99	245.76
512.17	280.86
512.34	227.03
512.51	245.76
512.69	210.65
512.86	318.31
513.04	339.38
513.21	257.46
513.38	276.18
513.56	245.76
513.73	264.48
513.90	308.95
514.08	320.65
514.25	250.44
514.43	184.90
514.60	290.23
514.77	212.99
514.95	248.10
515.12	264.48
515.29	255.12
515.47	339.38
515.64	234.05
515.81	271.50
515.99	374.49
516.16	360.44
516.33	259.80
516.51	297.25
516.68	297.25
516.85	262.14
517.03	308.95
517.20	301.93
517.37	294.91
517.54	339.38
517.72	266.82
517.89	278.52
518.06	262.14
518.24	388.53
518.41	287.89
518.58	301.93
518.75	273.84
518.93	322.99
519.10	280.86
519.27	269.16
519.45	304.27
519.62	201.29
519.79	236.39
519.96	264.48
520.14	217.67
520.31	269.16
520.48	252.78
520.65	259.80
520.83	294.91
521.00	330.02
521.17	285.55
521.34	210.65
521.52	243.42
521.69	264.48
521.86	259.80
522.03	315.97
522.20	271.50
522.38	245.76
522.55	255.12
522.72	334.70
522.89	278.52
523.07	341.72
523.24	285.55
523.41	280.86
523.58	339.38
523.75	280.86
523.92	283.20
524.10	311.29
524.27	383.85
524.44	311.29
524.61	327.68
524.78	269.16
524.96	269.16
525.13	290.23
525.30	304.27
525.47	250.44
525.64	266.82
525.81	238.73
525.98	299.59
526.16	248.10
526.33	290.23
526.50	227.03
526.67	224.69
526.84	266.82
527.01	306.61
527.18	294.91
527.36	283.20
527.53	318.31
527.70	294.91
527.87	290.23
528.04	393.21
528.21	280.86
528.38	383.85
528.55	196.60
528.72	322.99
528.89	252.78
529.07	262.14
529.24	222.35
529.41	318.31
529.58	341.72
529.75	327.68
529.92	294.91
530.09	306.61
530.26	400.23
530.43	390.87
530.60	362.78
530.77	285.55
530.94	388.53
531.11	334.70
531.28	360.44
531.46	376.83
531.63	346.40
531.80	402.57
531.97	395.55
532.14	388.53
532.31	456.40
532.48	545.34
532.65	613.22
532.82	657.69
532.99	610.88
533.16	664.71
533.33	674.07
533.50	645.99
533.67	533.64
533.84	496.19
534.01	512.58
534.18	493.85
534.35	442.36
534.52	465.77
534.69	540.66
534.86	463.43
535.03	479.81
535.20	524.28
535.37	547.69
535.54	601.52
535.71	645.99
535.88	660.03
536.05	610.88
536.22	720.88
536.38	706.84
536.55	798.12
536.72	847.27
536.89	875.36
537.06	992.39
537.23	1048.56
537.40	1181.97
537.57	1158.57
537.74	1306.02
537.91	1294.32
538.08	1399.64
538.25	1401.98
538.42	1336.45
538.59	1369.21
538.75	1486.24
538.92	1514.33
539.09	1687.53
539.26	1806.89
539.43	2118.18
539.60	2277.34
539.77	2724.38
539.94	2827.37
540.11	3023.97
540.28	3433.57
540.44	3627.83
540.61	4037.42
540.78	4727.88
540.95	5535.37
541.12	6333.49
541.29	7234.60
541.46	7227.57
541.62	7419.50
541.79	7016.93
541.96	6621.38
542.13	5879.43
542.30	5605.58
542.47	5282.59
542.63	5195.99
542.80	5132.79
542.97	4924.49
543.14	4884.70
543.31	5032.15
543.48	4992.36
543.64	5064.92
543.81	5132.79
543.98	5081.30
544.15	5008.75
544.32	5266.21
544.48	5104.71
544.65	4968.96
544.82	4983.00
544.99	5039.17
545.16	5146.84
545.32	5591.54
545.49	11597.35
545.66	17605.51
545.83	18270.22
546.00	15405.41
546.16	10885.83
546.33	7882.92
546.50	6050.28
546.67	4978.32
546.83	4500.85
547.00	4306.59
547.17	4086.58
547.34	3819.75
547.50	3676.98
547.67	3742.52
547.84	3499.10
548.00	3389.10
548.17	3185.47
548.34	3110.57
548.51	3059.08
548.67	2984.18
548.84	2827.37
549.01	2693.96
549.18	2443.52
549.34	2427.14
549.51	2502.03
549.68	2296.07
549.84	2319.47
550.01	2085.42
550.18	2232.87
550.34	1996.48
550.51	1975.41
550.68	1879.45
550.84	1671.14
551.01	1661.78
551.18	1521.35
551.34	1427.73
551.51	1554.12
551.68	1460.49
551.84	1334.11
552.01	1371.55
552.18	1273.25
552.34	1219.42
552.51	1224.10
552.68	1231.12
552.84	1076.65
553.01	1062.60
553.18	1107.07
553.34	1001.75
553.51	976.00
553.67	990.05
553.84	929.19
554.01	903.45
554.17	889.40
554.34	809.83
554.51	767.70
554.67	669.39
554.84	704.50
555.00	755.99
555.17	711.52
555.33	683.44
555.50	657.69
555.67	610.88
555.83	643.65
556.00	521.94
556.16	695.14
556.33	620.24
556.50	531.30
556.66	505.56
556.83	521.94
556.99	540.66
557.16	545.34
557.32	538.32
557.49	451.72
557.65	369.80
557.82	407.25
557.98	423.64
558.15	484.49
558.32	510.24
558.48	430.66
558.65	428.32
558.81	496.19
558.98	353.42
559.14	383.85
559.31	383.85
559.47	442.36
559.64	411.93
559.80	411.93
559.97	414.27
560.13	414.27
560.30	386.19
560.46	376.83
560.63	358.10
560.79	416.62
560.96	346.40
561.12	348.74
561.29	437.68
561.45	393.21
561.61	423.64
561.78	535.98
561.94	447.04
562.11	414.27
562.27	372.15
562.44	388.53
562.60	285.55
562.77	428.32
562.93	486.83
563.10	456.40
563.26	322.99
563.42	407.25
563.59	362.78
563.75	404.91
563.92	435.34
564.08	292.57
564.24	393.21
564.41	332.36
564.57	287.89
564.74	341.72
564.90	400.23
565.07	404.91
565.23	315.97
565.39	285.55
565.56	297.25
565.72	327.68
565.88	299.59
566.05	304.27
566.21	351.08
566.38	337.04
566.54	337.04
566.70	386.19
566.87	308.95
567.03	304.27
567.19	318.31
567.36	379.17
567.52	294.91
567.68	348.74
567.85	381.51
568.01	332.36
568.17	372.15
568.34	372.15
568.50	311.29
568.66	374.49
568.83	400.23
568.99	276.18
569.15	322.99
569.32	315.97
569.48	278.52
569.64	313.63
569.81	269.16
569.97	315.97
570.13	341.72
570.30	339.38
570.46	360.44
570.62	341.72
570.78	304.27
570.95	280.86
571.11	285.55
571.27	355.76
571.43	299.59
571.60	292.57
571.76	358.10
571.92	362.78
572.09	341.72
572.25	360.44
572.41	245.76
572.57	332.36
572.74	322.99
572.90	332.36
573.06	311.29
573.22	311.29
573.38	313.63
573.55	400.23
573.71	402.57
573.87	337.04
574.03	337.04
574.20	306.61
574.36	330.02
574.52	273.84
574.68	287.89
574.84	341.72
575.01	301.93
575.17	379.17
575.33	346.40
575.49	346.40
575.65	451.72
575.82	362.78
575.98	498.53
576.14	505.56
576.30	1069.62
576.46	2497.35
576.62	3293.13
576.79	3166.74
576.95	2462.24
577.11	1605.61
577.27	1104.73
577.43	791.10
577.59	660.03
577.75	547.69
577.92	538.32
578.08	526.62
578.24	582.79
578.40	1001.75
578.56	2406.07
578.72	3059.08
578.88	3150.36
579.04	2354.58
579.21	1603.27
579.37	1210.06
579.53	1006.43
579.69	1188.99
579.85	1324.74
580.01	1364.53
580.17	1266.23
580.33	1163.25
580.49	1018.13
580.65	908.13
580.82	912.81
580.98	938.55
581.14	896.43
581.30	1001.75
581.46	990.05
581.62	1086.01
581.78	1149.20
581.94	1093.03
582.10	1287.29
582.26	1275.59
582.42	1324.74
582.58	1329.42
582.74	1324.74
582.90	1469.86
583.06	1460.49
583.22	1490.92
583.38	1329.42
583.54	1259.21
583.70	1322.40
583.86	1345.81
584.02	1355.17
584.18	1277.93
584.34	1343.47
584.50	1268.57
584.66	1231.12
584.82	1191.33
584.98	1174.95
585.14	1224.10
585.30	1167.93
585.46	1226.44
585.62	1064.94
585.78	1086.01
585.94	1184.31
586.10	1191.33
586.26	1275.59
586.42	1425.39
586.58	1619.65
586.74	1961.37
586.90	2277.34
587.06	2317.13
587.22	2354.58
587.38	2062.01
587.54	1907.54
587.70	1696.89
587.86	1448.79
588.02	1226.44
588.18	1109.41
588.34	1076.65
588.49	961.96
588.65	910.47
588.81	849.61
588.97	936.21
589.13	821.53
589.29	868.34
589.45	863.66
589.61	819.19
589.77	844.93
589.93	795.78
590.08	950.26
590.24	856.64
590.40	919.83
590.56	947.92
590.72	954.94
590.88	889.40
591.04	971.32
591.20	985.37
591.35	1048.56
591.51	1104.73
591.67	1130.48
591.83	1219.42
591.99	1196.01
592.15	1404.32
592.31	1481.56
592.46	1605.61
592.62	1753.06
592.78	1781.15
592.94	1776.47
593.10	1781.15
593.26	1661.78
593.41	1533.05
593.57	1380.92
593.73	1254.53
593.89	1165.59
594.05	1097.71
594.20	978.34
594.36	891.74
594.52	889.40
594.68	770.04
594.84	798.12
594.99	823.87
595.15	798.12
595.31	681.10
595.47	830.89
595.62	763.01
595.78	786.42
595.94	734.93
596.10	788.76
596.25	702.16
596.41	777.06
596.57	774.72
596.73	767.70
596.88	770.04
597.04	816.85
597.20	671.73
597.36	755.99
597.51	763.01
597.67	807.48
597.83	795.78
597.99	851.96
598.14	1020.47
598.30	1043.88
598.46	1076.65
598.61	1050.90
598.77	1074.31
598.93	1034.52
599.09	1095.37
599.24	1128.14
599.40	1179.63
599.56	1067.28
599.71	1135.16
599.87	973.66
600.03	966.64
600.18	905.79
600.34	837.91
600.50	837.91
600.65	809.83
600.81	805.14
600.97	732.59
601.12	699.82
601.28	594.50
601.44	641.31
601.59	662.37
601.75	690.46
601.91	557.05
602.06	622.58
602.22	706.84
602.37	573.43
602.53	503.22
602.69	599.18
602.84	603.86
603.00	599.18
603.16	613.22
603.31	554.71
603.47	594.50
603.62	568.75
603.78	617.90
603.94	603.86
604.09	606.20
604.25	641.31
604.40	638.97
604.56	477.47
604.71	643.65
604.87	638.97
605.03	730.25
605.18	641.31
605.34	662.37
605.49	655.35
605.65	610.88
605.80	713.86
605.96	648.33
606.12	653.01
606.27	732.59
606.43	770.04
606.58	823.87
606.74	856.64
606.89	849.61
607.05	901.11
607.20	971.32
607.36	985.37
607.51	1039.20
607.67	1125.80
607.82	1149.20
607.98	1149.20
608.13	1245.16
608.29	1441.77
608.44	1486.24
608.60	1551.78
608.75	1755.40
608.91	1907.54
609.06	2052.65
609.22	2223.51
609.37	2497.35
609.53	2825.03
609.68	3150.36
609.84	3485.06
609.99	4287.86
610.15	4770.01
610.30	5804.53
610.46	7641.85
610.61	9748.33
610.76	12273.77
610.92	14480.89
611.07	15927.35
611.23	16133.31
611.38	14885.81
611.54	13090.62
611.69	10963.07
611.84	9020.42
612.00	7611.42
612.15	6675.21
612.31	5837.30
612.46	5263.86
612.62	5029.81
612.77	4655.33
612.92	4451.70
613.08	4266.80
613.23	3929.76
613.39	3864.22
613.54	3936.78
613.69	3843.16
613.85	3665.28
614.00	3604.42
614.15	3625.49
614.31	3489.74
614.46	3407.82
614.62	3297.81
614.77	3215.90
614.92	2850.77
615.08	2785.24
615.23	2642.46
615.38	2452.88
615.54	2195.42
615.69	2036.27
615.84	1837.32
616.00	1715.61
616.15	1692.21
616.30	1605.61
616.46	1451.13
616.61	1425.39
616.76	1303.68
616.92	1245.16
617.07	1221.76
617.22	1188.99
617.37	1107.07
617.53	1074.31
617.68	1071.97
617.83	1015.79
617.99	1109.41
618.14	1008.77
618.29	971.32
618.45	968.98
618.60	915.15
618.75	891.74
618.90	835.57
619.06	950.26
619.21	908.13
619.36	964.30
619.51	863.66
619.67	908.13
619.82	870.68
619.97	922.17
620.12	861.32
620.28	992.39
620.43	994.73
620.58	997.07
620.73	968.98
620.89	1013.45
621.04	954.94
621.19	985.37
621.34	971.32
621.49	905.79
621.65	1004.09
621.80	882.38
621.95	875.36
622.10	840.25
622.25	971.32
622.41	924.51
622.56	957.28
622.71	1036.86
622.86	1011.11
623.01	1011.11
623.16	1076.65
623.32	968.98
623.47	1062.60
623.62	1043.88
623.77	980.68
623.92	1055.58
624.07	1076.65
624.23	1057.92
624.38	1041.54
624.53	1006.43
624.68	999.41
624.83	1090.69
624.98	1034.52
625.13	1071.97
625.29	1013.45
625.44	1067.28
625.59	1062.60
625.74	1123.46
625.89	1069.62
626.04	1055.58
626.19	940.90
626.34	1018.13
626.49	1109.41
626.65	1008.77
626.80	1034.52
626.95	1018.13
627.10	973.66
627.25	943.24
627.40	901.11
627.55	1011.11
627.70	968.98
627.85	933.87
628.00	978.34
628.15	880.04
628.30	983.02
628.45	851.96
628.60	866.00
628.76	854.30
628.91	896.43
629.06	882.38
629.21	992.39
629.36	1008.77
629.51	983.02
629.66	1039.20
629.81	1142.18
629.96	1212.40
630.11	1320.06
630.26	1476.88
630.41	1540.07
630.56	1790.51
630.71	1722.63
630.86	1820.94
631.01	1673.48
631.16	1605.61
631.31	1540.07
631.46	1313.04
631.61	1100.05
631.76	968.98
631.91	788.76
632.06	788.76
632.21	683.44
632.36	596.84
632.51	479.81
632.66	498.53
632.81	475.13
632.96	477.47
633.10	505.56
633.25	430.66
633.40	414.27
633.55	381.51
633.70	440.02
633.85	430.66
634.00	421.30
634.15	468.11
634.30	397.89
634.45	330.02
634.60	334.70
634.75	447.04
634.90	276.18
635.05	332.36
635.19	379.17
635.34	332.36
635.49	294.91
635.64	425.98
635.79	379.17
635.94	379.17
636.09	332.36
636.24	285.55
636.39	367.46
636.53	330.02
636.68	294.91
636.83	341.72
636.98	353.42
637.13	351.08
637.28	318.31
637.43	334.70
637.57	351.08
637.72	294.91
637.87	337.04
638.02	266.82
638.17	269.16
638.32	320.65
638.46	353.42
638.61	337.04
638.76	320.65
638.91	273.84
639.06	287.89
639.20	287.89
639.35	227.03
639.50	257.46
639.65	355.76
639.80	280.86
639.94	327.68
640.09	339.38
640.24	315.97
640.39	243.42
640.54	334.70
640.68	285.55
640.83	297.25
640.98	292.57
641.13	257.46
641.27	292.57
641.42	283.20
641.57	255.12
641.72	248.10
641.86	332.36
642.01	334.70
642.16	285.55
642.31	341.72
642.45	283.20
642.60	304.27
642.75	308.95
642.90	301.93
643.04	241.08
643.19	297.25
643.34	278.52
643.48	320.65
643.63	313.63
643.78	266.82
643.93	315.97
644.07	262.14
644.22	313.63
644.37	290.23
644.51	229.37
644.66	280.86
644.81	285.55
644.95	327.68
645.10	234.05
645.25	301.93
645.39	245.76
645.54	245.76
645.69	346.40
645.83	287.89
645.98	383.85
646.13	290.23
646.27	351.08
646.42	222.35
646.57	264.48
646.71	210.65
646.86	283.20
647.00	304.27
647.15	337.04
647.30	297.25
647.44	227.03
647.59	306.61
647.74	283.20
647.88	304.27
648.03	208.31
648.17	315.97
648.32	194.26
648.47	294.91
648.61	311.29
648.76	301.93
648.90	264.48
649.05	241.08
649.20	325.33
649.34	255.12
649.49	353.42
649.63	402.57
649.78	437.68
649.92	533.64
650.07	599.18
650.21	580.45
650.36	631.94
650.51	620.24
650.65	557.05
650.80	470.45
650.94	454.06
651.09	379.17
651.23	404.91
651.38	334.70
651.52	278.52
651.67	379.17
651.81	299.59
651.96	344.06
652.10	315.97
652.25	269.16
652.39	318.31
652.54	318.31
652.68	297.25
652.83	360.44
652.97	367.46
653.12	383.85
653.26	390.87
653.41	325.33
653.55	320.65
653.70	294.91
653.84	355.76
653.99	217.67
654.13	271.50
654.27	283.20
654.42	278.52
654.56	304.27
654.71	278.52
654.85	287.89
655.00	238.73
655.14	248.10
655.29	290.23
655.43	269.16
655.57	280.86
655.72	273.84
655.86	212.99
656.01	229.37
656.15	245.76
656.30	311.29
656.44	266.82
656.58	210.65
656.73	259.80
656.87	264.48
657.01	367.46
657.16	313.63
657.30	360.44
657.45	278.52
657.59	334.70
657.73	276.18
657.88	337.04
658.02	330.02
658.16	299.59
658.31	294.91
658.45	273.84
658.60	297.25
658.74	252.78
658.88	245.76
659.03	231.71
659.17	224.69
659.31	262.14
659.46	180.22
659.60	250.44
659.74	234.05
659.89	154.48
660.03	241.08
660.17	231.71
660.32	229.37
660.46	252.78
660.60	259.80
660.74	217.67
660.89	198.95
661.03	238.73
661.17	325.33
661.32	224.69
661.46	280.86
661.60	285.55
661.74	393.21
661.89	428.32
662.03	397.89
662.17	425.98
662.31	379.17
662.46	486.83
662.60	428.32
662.74	337.04
662.88	362.78
663.03	257.46
663.17	292.57
663.31	290.23
663.45	248.10
663.60	217.67
663.74	248.10
663.88	215.33
664.02	315.97
664.17	285.55
664.31	217.67
664.45	227.03
664.59	138.09
664.73	210.65
664.88	259.80
665.02	191.92
665.16	271.50
665.30	287.89
665.44	266.82
665.59	215.33
665.73	212.99
665.87	161.50
666.01	142.77
666.15	210.65
666.29	168.52
666.44	201.29
666.58	215.33
666.72	255.12
666.86	238.73
667.00	222.35
667.14	238.73
667.28	184.90
667.43	152.13
667.57	297.25
667.71	285.55
667.85	243.42
667.99	273.84
668.13	220.01
668.27	177.88
668.41	234.05
668.56	189.58
668.70	266.82
668.84	231.71
668.98	201.29
669.12	220.01
669.26	269.16
669.40	292.57
669.54	170.86
669.68	227.03
669.82	168.52
669.96	152.13
670.10	227.03
670.25	170.86
670.39	205.97
670.53	187.24
670.67	208.31
670.81	290.23
670.95	227.03
671.09	208.31
671.23	248.10
671.37	201.29
671.51	241.08
671.65	173.20
671.79	184.90
671.93	241.08
672.07	243.42
672.21	243.42
672.35	243.42
672.49	203.63
672.63	224.69
672.77	201.29
672.91	250.44
673.05	159.16
673.19	173.20
673.33	159.16
673.47	259.80
673.61	236.39
673.75	159.16
673.89	175.54
674.03	273.84
674.17	222.35
674.31	138.09
674.45	173.20
674.59	180.22
674.73	208.31
674.87	102.98
675.01	210.65
675.15	147.45
675.29	142.77
675.43	208.31
675.56	285.55
675.70	231.71
675.84	154.48
675.98	238.73
676.12	138.09
676.26	238.73
676.40	159.16
676.54	229.37
676.68	184.90
676.82	243.42
676.96	168.52
677.10	142.77
677.23	88.94
677.37	163.84
677.51	159.16
677.65	191.92
677.79	198.95
677.93	161.50
678.07	224.69
678.21	166.18
678.34	166.18
678.48	177.88
678.62	154.48
678.76	201.29
678.90	198.95
679.04	278.52
679.18	198.95
679.31	166.18
679.45	168.52
679.59	105.32
679.73	205.97
679.87	210.65
680.00	168.52
680.14	163.84
680.28	156.82
680.42	208.31
680.56	208.31
680.70	131.07
680.83	212.99
680.97	189.58
681.11	152.13
681.25	184.90
681.39	227.03
681.52	220.01
681.66	201.29
681.80	201.29
681.94	180.22
682.07	196.60
682.21	110.01
682.35	187.24
682.49	147.45
682.62	217.67
682.76	166.18
682.90	119.37
683.04	112.35
683.17	227.03
683.31	182.56
683.45	201.29
683.59	112.35
683.72	142.77
683.86	212.99
684.00	191.92
684.13	259.80
684.27	187.24
684.41	198.95
684.55	234.05
684.68	154.48
684.82	70.22
684.96	154.48
685.09	180.22
685.23	170.86
685.37	189.58
685.50	217.67
685.64	163.84
685.78	238.73
685.91	191.92
686.05	264.48
686.19	163.84
686.32	220.01
686.46	234.05
686.60	173.20
686.73	276.18
686.87	257.46
687.01	194.26
687.14	227.03
687.28	220.01
687.42	231.71
687.55	273.84
687.69	315.97
687.82	189.58
687.96	252.78
688.10	327.68
688.23	262.14
688.37	257.46
688.50	212.99
688.64	224.69
688.78	154.48
688.91	198.95
689.05	173.20
689.18	124.05
689.32	208.31
689.46	163.84
689.59	161.50
689.73	163.84
689.86	124.05
690.00	154.48
690.13	149.79
690.27	86.60
690.41	142.77
690.54	189.58
690.68	145.11
690.81	131.07
690.95	173.20
691.08	159.16
691.22	91.28
691.35	173.20
691.49	149.79
691.62	189.58
691.76	58.51
691.89	133.41
692.03	84.26
692.16	107.66
692.30	161.50
692.43	175.54
692.57	110.01
692.70	163.84
692.84	147.45
692.97	124.05
693.11	196.60
693.24	177.88
693.38	175.54
693.51	243.42
693.65	278.52
693.78	189.58
693.92	184.90
694.05	201.29
694.19	173.20
694.32	154.48
694.45	271.50
694.59	121.71
694.72	168.52
694.86	121.71
694.99	114.69
695.13	121.71
695.26	198.95
695.39	133.41
695.53	196.60
695.66	166.18
695.80	191.92
695.93	100.64
696.07	128.73
696.20	138.09
696.33	184.90
696.47	135.75
696.60	210.65
696.73	133.41
696.87	138.09
697.00	131.07
697.14	159.16
697.27	140.43
697.40	140.43
697.54	138.09
697.67	175.54
697.80	58.51
697.94	138.09
698.07	133.41
698.21	161.50
698.34	131.07
698.47	121.71
698.61	124.05
698.74	110.01
698.87	180.22
699.01	154.48
699.14	67.88
699.27	112.35
699.40	198.95
699.54	156.82
699.67	117.03
699.80	147.45
699.94	86.60
700.07	112.35
700.20	152.13
700.34	175.54
700.47	56.17
700.60	170.86
700.73	182.56
700.87	159.16
701.00	184.90
701.13	131.07
701.26	91.28
701.40	159.16
701.53	163.84
701.66	173.20
701.79	114.69
701.93	133.41
702.06	215.33
702.19	102.98
702.32	124.05
702.46	140.43
702.59	95.96
702.72	124.05
702.85	126.39
702.99	138.09
703.12	173.20
703.25	117.03
703.38	135.75
703.51	152.13
703.65	142.77
703.78	180.22
703.91	208.31
704.04	147.45
704.17	147.45
704.31	168.52
704.44	159.16
704.57	166.18
704.70	133.41
704.83	175.54
704.96	147.45
705.10	205.97
705.23	154.48
>>>>>End Processed Spectral Data<<<<<
