SpectraSuite Data File
++++++++++++++++++++++++++++++++++++
Date: Fri Oct 04 11:41:54 GMT-05:00 2013
User: price-jones
Dark Spectrum Present: No
Reference Spectrum Present: No
Number of Sampled Component Spectra: 1
Spectrometers: USB2+H05261
Integration Time (usec): 100000 (USB2+H05261)
Spectra Averaged: 1 (USB2+H05261)
Boxcar Smoothing: 0 (USB2+H05261)
Correct for Electrical Dark: No (USB2+H05261)
Strobe/Lamp Enabled: No (USB2+H05261)
Correct for Detector Non-linearity: No (USB2+H05261)
Correct for Stray Light: No (USB2+H05261)
Number of Pixels in Processed Spectrum: 2048
>>>>>Begin Processed Spectral Data<<<<<
365.73	0.00
365.92	0.00
366.12	0.00
366.32	0.00
366.52	0.00
366.72	9.36
366.91	0.00
367.11	0.00
367.31	0.00
367.51	0.00
367.70	0.00
367.90	0.00
368.10	0.00
368.30	14.04
368.49	0.00
368.69	0.00
368.89	0.00
369.09	0.00
369.28	0.00
369.48	0.00
369.68	0.00
369.87	14.04
370.07	25.75
370.27	0.00
370.47	30.43
370.66	81.92
370.86	107.66
371.06	79.58
371.25	121.71
371.45	35.11
371.65	0.00
371.84	56.17
372.04	65.54
372.24	79.58
372.44	102.98
372.63	88.94
372.83	138.09
373.03	117.03
373.22	138.09
373.42	67.88
373.62	51.49
373.81	110.01
374.01	114.69
374.21	163.84
374.40	60.85
374.60	117.03
374.79	135.75
374.99	102.98
375.19	119.37
375.38	88.94
375.58	114.69
375.78	163.84
375.97	147.45
376.17	250.44
376.37	135.75
376.56	77.24
376.76	110.01
376.95	42.13
377.15	117.03
377.35	180.22
377.54	168.52
377.74	112.35
377.93	110.01
378.13	77.24
378.33	140.43
378.52	131.07
378.72	170.86
378.91	98.30
379.11	77.24
379.31	131.07
379.50	65.54
379.70	98.30
379.89	98.30
380.09	60.85
380.28	74.90
380.48	138.09
380.68	65.54
380.87	124.05
381.07	147.45
381.26	119.37
381.46	142.77
381.65	133.41
381.85	81.92
382.04	124.05
382.24	107.66
382.43	53.83
382.63	16.38
382.83	128.73
383.02	210.65
383.22	177.88
383.41	98.30
383.61	86.60
383.80	91.28
384.00	105.32
384.19	124.05
384.39	135.75
384.58	95.96
384.78	133.41
384.97	145.11
385.17	63.19
385.36	81.92
385.56	128.73
385.75	79.58
385.95	91.28
386.14	145.11
386.34	170.86
386.53	128.73
386.72	121.71
386.92	156.82
387.11	170.86
387.31	98.30
387.50	102.98
387.70	110.01
387.89	152.13
388.09	100.64
388.28	112.35
388.48	119.37
388.67	173.20
388.86	100.64
389.06	152.13
389.25	79.58
389.45	79.58
389.64	100.64
389.84	145.11
390.03	51.49
390.22	152.13
390.42	93.62
390.61	81.92
390.81	81.92
391.00	124.05
391.19	196.60
391.39	72.56
391.58	121.71
391.78	72.56
391.97	166.18
392.16	175.54
392.36	84.26
392.55	56.17
392.75	107.66
392.94	124.05
393.13	203.63
393.33	44.47
393.52	98.30
393.71	203.63
393.91	91.28
394.10	147.45
394.29	147.45
394.49	37.45
394.68	37.45
394.88	201.29
395.07	149.79
395.26	163.84
395.46	222.35
395.65	187.24
395.84	145.11
396.04	163.84
396.23	117.03
396.42	105.32
396.62	152.13
396.81	100.64
397.00	93.62
397.19	138.09
397.39	93.62
397.58	131.07
397.77	159.16
397.97	124.05
398.16	163.84
398.35	60.85
398.55	100.64
398.74	128.73
398.93	133.41
399.12	173.20
399.32	138.09
399.51	133.41
399.70	182.56
399.90	154.48
400.09	191.92
400.28	152.13
400.47	63.19
400.67	126.39
400.86	81.92
401.05	168.52
401.24	168.52
401.44	98.30
401.63	128.73
401.82	168.52
402.01	173.20
402.21	67.88
402.40	114.69
402.59	102.98
402.78	191.92
402.97	145.11
403.17	168.52
403.36	159.16
403.55	198.95
403.74	383.85
403.93	788.76
404.13	1397.30
404.32	1441.77
404.51	1174.95
404.70	856.64
404.89	358.10
405.09	238.73
405.28	175.54
405.47	168.52
405.66	117.03
405.85	110.01
406.05	145.11
406.24	121.71
406.43	126.39
406.62	105.32
406.81	86.60
407.00	241.08
407.20	299.59
407.39	308.95
407.58	229.37
407.77	224.69
407.96	227.03
408.15	187.24
408.34	180.22
408.54	107.66
408.73	133.41
408.92	194.26
409.11	166.18
409.30	187.24
409.49	72.56
409.68	149.79
409.87	74.90
410.07	182.56
410.26	98.30
410.45	234.05
410.64	126.39
410.83	135.75
411.02	198.95
411.21	173.20
411.40	280.86
411.59	126.39
411.78	163.84
411.98	147.45
412.17	170.86
412.36	56.17
412.55	154.48
412.74	147.45
412.93	177.88
413.12	105.32
413.31	163.84
413.50	166.18
413.69	147.45
413.88	177.88
414.07	170.86
414.26	175.54
414.45	184.90
414.64	163.84
414.83	161.50
415.02	140.43
415.22	166.18
415.41	175.54
415.60	102.98
415.79	128.73
415.98	184.90
416.17	170.86
416.36	227.03
416.55	161.50
416.74	154.48
416.93	280.86
417.12	98.30
417.31	140.43
417.50	182.56
417.69	238.73
417.88	147.45
418.07	156.82
418.26	145.11
418.45	194.26
418.64	168.52
418.83	182.56
419.02	184.90
419.21	140.43
419.39	142.77
419.58	131.07
419.77	168.52
419.96	234.05
420.15	269.16
420.34	100.64
420.53	124.05
420.72	229.37
420.91	215.33
421.10	161.50
421.29	189.58
421.48	208.31
421.67	140.43
421.86	168.52
422.05	163.84
422.24	252.78
422.43	128.73
422.61	159.16
422.80	154.48
422.99	117.03
423.18	170.86
423.37	180.22
423.56	107.66
423.75	152.13
423.94	168.52
424.13	248.10
424.32	159.16
424.50	140.43
424.69	112.35
424.88	177.88
425.07	187.24
425.26	140.43
425.45	166.18
425.64	191.92
425.83	212.99
426.01	220.01
426.20	191.92
426.39	163.84
426.58	133.41
426.77	194.26
426.96	159.16
427.15	166.18
427.33	107.66
427.52	210.65
427.71	203.63
427.90	184.90
428.09	173.20
428.28	131.07
428.46	198.95
428.65	222.35
428.84	184.90
429.03	238.73
429.22	210.65
429.40	177.88
429.59	154.48
429.78	224.69
429.97	205.97
430.16	173.20
430.34	250.44
430.53	180.22
430.72	198.95
430.91	161.50
431.10	198.95
431.28	187.24
431.47	215.33
431.66	177.88
431.85	114.69
432.03	161.50
432.22	210.65
432.41	241.08
432.60	187.24
432.79	182.56
432.97	194.26
433.16	194.26
433.35	198.95
433.54	259.80
433.72	259.80
433.91	252.78
434.10	332.36
434.28	266.82
434.47	322.99
434.66	355.76
434.85	409.59
435.03	1411.34
435.22	4250.41
435.41	6396.68
435.59	5582.18
435.78	3630.17
435.97	1891.15
436.16	840.25
436.34	351.08
436.53	381.51
436.72	264.48
436.90	243.42
437.09	271.50
437.28	227.03
437.46	205.97
437.65	243.42
437.84	252.78
438.02	259.80
438.21	262.14
438.40	212.99
438.58	231.71
438.77	215.33
438.96	212.99
439.14	194.26
439.33	224.69
439.52	168.52
439.70	198.95
439.89	283.20
440.08	203.63
440.26	229.37
440.45	208.31
440.63	212.99
440.82	222.35
441.01	215.33
441.19	168.52
441.38	212.99
441.57	191.92
441.75	224.69
441.94	278.52
442.12	283.20
442.31	184.90
442.50	194.26
442.68	208.31
442.87	264.48
443.05	248.10
443.24	212.99
443.43	278.52
443.61	297.25
443.80	234.05
443.98	203.63
444.17	215.33
444.35	159.16
444.54	220.01
444.73	299.59
444.91	175.54
445.10	154.48
445.28	154.48
445.47	212.99
445.65	156.82
445.84	128.73
446.02	203.63
446.21	285.55
446.39	191.92
446.58	248.10
446.77	266.82
446.95	236.39
447.14	212.99
447.32	292.57
447.51	231.71
447.69	177.88
447.88	257.46
448.06	290.23
448.25	203.63
448.43	222.35
448.62	163.84
448.80	168.52
448.99	248.10
449.17	180.22
449.36	234.05
449.54	238.73
449.73	220.01
449.91	210.65
450.10	231.71
450.28	255.12
450.46	245.76
450.65	248.10
450.83	198.95
451.02	234.05
451.20	217.67
451.39	208.31
451.57	159.16
451.76	156.82
451.94	210.65
452.13	283.20
452.31	234.05
452.49	241.08
452.68	173.20
452.86	231.71
453.05	250.44
453.23	245.76
453.42	245.76
453.60	173.20
453.78	210.65
453.97	191.92
454.15	217.67
454.34	259.80
454.52	231.71
454.70	161.50
454.89	236.39
455.07	184.90
455.26	250.44
455.44	212.99
455.62	224.69
455.81	184.90
455.99	278.52
456.17	191.92
456.36	154.48
456.54	208.31
456.73	217.67
456.91	163.84
457.09	217.67
457.28	217.67
457.46	236.39
457.64	175.54
457.83	182.56
458.01	180.22
458.19	203.63
458.38	229.37
458.56	220.01
458.74	191.92
458.93	196.60
459.11	189.58
459.29	201.29
459.48	243.42
459.66	266.82
459.84	184.90
460.03	311.29
460.21	201.29
460.39	203.63
460.57	184.90
460.76	208.31
460.94	210.65
461.12	210.65
461.31	250.44
461.49	283.20
461.67	234.05
461.85	149.79
462.04	182.56
462.22	688.12
462.40	205.97
462.59	243.42
462.77	255.12
462.95	203.63
463.13	163.84
463.32	182.56
463.50	220.01
463.68	215.33
463.86	154.48
464.05	248.10
464.23	215.33
464.41	180.22
464.59	250.44
464.78	330.02
464.96	245.76
465.14	166.18
465.32	220.01
465.50	264.48
465.69	266.82
465.87	208.31
466.05	198.95
466.23	234.05
466.41	236.39
466.60	262.14
466.78	184.90
466.96	217.67
467.14	210.65
467.32	255.12
467.51	210.65
467.69	241.08
467.87	222.35
468.05	280.86
468.23	229.37
468.41	285.55
468.60	184.90
468.78	252.78
468.96	280.86
469.14	229.37
469.32	163.84
469.50	257.46
469.69	224.69
469.87	231.71
470.05	154.48
470.23	210.65
470.41	112.35
470.59	205.97
470.77	201.29
470.95	250.44
471.14	220.01
471.32	86.60
471.50	210.65
471.68	191.92
471.86	248.10
472.04	276.18
472.22	257.46
472.40	212.99
472.58	217.67
472.77	248.10
472.95	262.14
473.13	273.84
473.31	227.03
473.49	234.05
473.67	227.03
473.85	227.03
474.03	215.33
474.21	297.25
474.39	234.05
474.57	252.78
474.75	257.46
474.93	170.86
475.12	238.73
475.30	156.82
475.48	198.95
475.66	203.63
475.84	217.67
476.02	227.03
476.20	243.42
476.38	241.08
476.56	297.25
476.74	189.58
476.92	234.05
477.10	191.92
477.28	306.61
477.46	229.37
477.64	252.78
477.82	189.58
478.00	184.90
478.18	238.73
478.36	194.26
478.54	196.60
478.72	222.35
478.90	238.73
479.08	248.10
479.26	264.48
479.44	252.78
479.62	201.29
479.80	297.25
479.98	198.95
480.16	257.46
480.34	301.93
480.52	297.25
480.70	344.06
480.88	304.27
481.06	201.29
481.24	344.06
481.41	379.17
481.59	360.44
481.77	269.16
481.95	285.55
482.13	372.15
482.31	388.53
482.49	379.17
482.67	348.74
482.85	440.02
483.03	538.32
483.21	400.23
483.39	414.27
483.57	475.13
483.74	486.83
483.92	561.73
484.10	510.24
484.28	627.26
484.46	610.88
484.64	559.39
484.82	653.01
485.00	657.69
485.18	653.01
485.35	702.16
485.53	718.54
485.71	695.14
485.89	692.80
486.07	741.95
486.25	788.76
486.43	833.23
486.61	802.80
486.78	819.19
486.96	699.82
487.14	772.38
487.32	720.88
487.50	802.80
487.68	814.51
487.85	690.46
488.03	788.76
488.21	779.40
488.39	702.16
488.57	748.97
488.75	711.52
488.92	1025.15
489.10	681.10
489.28	800.46
489.46	681.10
489.64	655.35
489.81	699.82
489.99	627.26
490.17	657.69
490.35	688.12
490.53	671.73
490.70	550.03
490.88	681.10
491.06	645.99
491.24	753.65
491.41	791.10
491.59	622.58
491.77	617.90
491.95	521.94
492.13	678.76
492.30	573.43
492.48	557.05
492.66	571.09
492.84	514.92
493.01	514.92
493.19	493.85
493.37	596.84
493.54	528.96
493.72	610.88
493.90	514.92
494.08	503.22
494.25	564.07
494.43	566.41
494.61	484.49
494.79	557.05
494.96	512.58
495.14	477.47
495.32	491.51
495.49	519.60
495.67	538.32
495.85	533.64
496.02	416.62
496.20	526.62
496.38	517.26
496.55	430.66
496.73	402.57
496.91	451.72
497.09	477.47
497.26	496.19
497.44	477.47
497.62	463.43
497.79	468.11
497.97	435.34
498.14	397.89
498.32	449.38
498.50	458.74
498.67	369.80
498.85	358.10
499.03	308.95
499.20	388.53
499.38	486.83
499.56	365.12
499.73	402.57
499.91	433.00
500.08	355.76
500.26	301.93
500.44	421.30
500.61	351.08
500.79	320.65
500.97	292.57
501.14	372.15
501.32	374.49
501.49	339.38
501.67	262.14
501.84	308.95
502.02	341.72
502.20	369.80
502.37	341.72
502.55	327.68
502.72	358.10
502.90	318.31
503.07	313.63
503.25	351.08
503.43	322.99
503.60	327.68
503.78	292.57
503.95	255.12
504.13	255.12
504.30	311.29
504.48	273.84
504.65	304.27
504.83	348.74
505.01	313.63
505.18	191.92
505.36	266.82
505.53	283.20
505.71	311.29
505.88	311.29
506.06	259.80
506.23	271.50
506.41	290.23
506.58	325.33
506.76	262.14
506.93	264.48
507.11	252.78
507.28	238.73
507.46	320.65
507.63	283.20
507.81	264.48
507.98	322.99
508.16	236.39
508.33	257.46
508.50	276.18
508.68	318.31
508.85	337.04
509.03	273.84
509.20	297.25
509.38	269.16
509.55	222.35
509.73	313.63
509.90	259.80
510.08	227.03
510.25	313.63
510.42	222.35
510.60	250.44
510.77	301.93
510.95	257.46
511.12	262.14
511.30	173.20
511.47	315.97
511.64	313.63
511.82	255.12
511.99	173.20
512.17	262.14
512.34	266.82
512.51	205.97
512.69	205.97
512.86	318.31
513.04	205.97
513.21	245.76
513.38	304.27
513.56	231.71
513.73	292.57
513.90	276.18
514.08	339.38
514.25	337.04
514.43	334.70
514.60	236.39
514.77	313.63
514.95	189.58
515.12	243.42
515.29	290.23
515.47	236.39
515.64	271.50
515.81	320.65
515.99	259.80
516.16	243.42
516.33	311.29
516.51	283.20
516.68	224.69
516.85	236.39
517.03	238.73
517.20	257.46
517.37	304.27
517.54	234.05
517.72	220.01
517.89	266.82
518.06	201.29
518.24	337.04
518.41	332.36
518.58	257.46
518.75	229.37
518.93	252.78
519.10	205.97
519.27	234.05
519.45	297.25
519.62	311.29
519.79	238.73
519.96	248.10
520.14	222.35
520.31	308.95
520.48	315.97
520.65	285.55
520.83	252.78
521.00	252.78
521.17	330.02
521.34	262.14
521.52	187.24
521.69	285.55
521.86	255.12
522.03	353.42
522.20	248.10
522.38	231.71
522.55	243.42
522.72	287.89
522.89	224.69
523.07	264.48
523.24	269.16
523.41	234.05
523.58	280.86
523.75	191.92
523.92	278.52
524.10	248.10
524.27	273.84
524.44	257.46
524.61	245.76
524.78	287.89
524.96	259.80
525.13	250.44
525.30	259.80
525.47	304.27
525.64	227.03
525.81	276.18
525.98	257.46
526.16	262.14
526.33	250.44
526.50	208.31
526.67	248.10
526.84	229.37
527.01	285.55
527.18	374.49
527.36	278.52
527.53	320.65
527.70	278.52
527.87	306.61
528.04	320.65
528.21	290.23
528.38	365.12
528.55	306.61
528.72	330.02
528.89	372.15
529.07	297.25
529.24	217.67
529.41	327.68
529.58	330.02
529.75	341.72
529.92	372.15
530.09	271.50
530.26	292.57
530.43	318.31
530.60	292.57
530.77	327.68
530.94	388.53
531.11	360.44
531.28	266.82
531.46	306.61
531.63	299.59
531.80	355.76
531.97	301.93
532.14	344.06
532.31	397.89
532.48	360.44
532.65	440.02
532.82	500.87
532.99	528.96
533.16	514.92
533.33	620.24
533.50	528.96
533.67	521.94
533.84	519.60
534.01	442.36
534.18	425.98
534.35	400.23
534.52	451.72
534.69	444.70
534.86	468.11
535.03	397.89
535.20	437.68
535.37	535.98
535.54	531.30
535.71	486.83
535.88	589.82
536.05	540.66
536.22	526.62
536.38	688.12
536.55	606.20
536.72	575.77
536.89	643.65
537.06	739.61
537.23	858.98
537.40	873.02
537.57	931.53
537.74	980.68
537.91	964.30
538.08	919.83
538.25	1083.67
538.42	1004.09
538.59	1050.90
538.75	1069.62
538.92	1060.26
539.09	1263.89
539.26	1432.41
539.43	1619.65
539.60	1654.76
539.77	1753.06
539.94	1998.82
540.11	2209.47
540.28	2317.13
540.44	2499.69
540.61	2827.37
540.78	3122.27
540.95	3796.35
541.12	4337.01
541.29	4739.58
541.46	4877.68
541.62	4814.48
541.79	4683.41
541.96	4428.29
542.13	4081.89
542.30	3922.74
542.47	3660.60
542.63	3585.70
542.80	3510.80
542.97	3473.36
543.14	3478.04
543.31	3382.07
543.48	3473.36
543.64	3632.51
543.81	3534.21
543.98	3377.39
544.15	3648.90
544.32	3496.76
544.48	3501.44
544.65	3578.68
544.82	3361.01
544.99	3475.70
545.16	3506.12
545.32	3801.03
545.49	7775.26
545.66	11639.48
545.83	12311.22
546.00	10438.79
546.16	7201.83
546.33	5437.06
546.50	4025.72
546.67	3286.11
546.83	3000.57
547.00	2883.54
547.17	2827.37
547.34	2724.38
547.50	2518.42
547.67	2569.91
547.84	2326.49
548.00	2321.81
548.17	2169.68
548.34	2225.85
548.51	2076.06
548.67	2059.67
548.84	1937.96
549.01	1874.77
549.18	1856.04
549.34	1722.63
549.51	1640.72
549.68	1750.72
549.84	1540.07
550.01	1488.58
550.18	1589.22
550.34	1535.39
550.51	1338.79
550.68	1385.60
550.84	1224.10
551.01	1263.89
551.18	1261.55
551.34	1081.33
551.51	1018.13
551.68	1062.60
551.84	1008.77
552.01	999.41
552.18	947.92
552.34	945.58
552.51	847.27
552.68	781.74
552.84	802.80
553.01	779.40
553.18	816.85
553.34	713.86
553.51	760.67
553.67	727.91
553.84	695.14
554.01	676.41
554.17	720.88
554.34	617.90
554.51	521.94
554.67	711.52
554.84	526.62
555.00	484.49
555.17	472.79
555.33	528.96
555.50	493.85
555.67	463.43
555.83	425.98
556.00	379.17
556.16	571.09
556.33	454.06
556.50	423.64
556.66	433.00
556.83	404.91
556.99	435.34
557.16	449.38
557.32	433.00
557.49	491.51
557.65	346.40
557.82	278.52
557.98	365.12
558.15	304.27
558.32	320.65
558.48	404.91
558.65	322.99
558.81	379.17
558.98	353.42
559.14	365.12
559.31	407.25
559.47	355.76
559.64	301.93
559.80	334.70
559.97	322.99
560.13	285.55
560.30	266.82
560.46	318.31
560.63	280.86
560.79	332.36
560.96	294.91
561.12	351.08
561.29	360.44
561.45	362.78
561.61	362.78
561.78	325.33
561.94	304.27
562.11	332.36
562.27	369.80
562.44	332.36
562.60	315.97
562.77	374.49
562.93	393.21
563.10	372.15
563.26	320.65
563.42	374.49
563.59	337.04
563.75	259.80
563.92	334.70
564.08	360.44
564.24	334.70
564.41	325.33
564.57	334.70
564.74	250.44
564.90	238.73
565.07	383.85
565.23	337.04
565.39	306.61
565.56	248.10
565.72	325.33
565.88	266.82
566.05	297.25
566.21	273.84
566.38	313.63
566.54	299.59
566.70	348.74
566.87	301.93
567.03	280.86
567.19	315.97
567.36	308.95
567.52	334.70
567.68	294.91
567.85	259.80
568.01	294.91
568.17	229.37
568.34	320.65
568.50	355.76
568.66	337.04
568.83	313.63
568.99	315.97
569.15	294.91
569.32	292.57
569.48	276.18
569.64	238.73
569.81	308.95
569.97	330.02
570.13	315.97
570.30	304.27
570.46	262.14
570.62	322.99
570.78	243.42
570.95	245.76
571.11	290.23
571.27	255.12
571.43	271.50
571.60	273.84
571.76	255.12
571.92	294.91
572.09	259.80
572.25	173.20
572.41	318.31
572.57	304.27
572.74	313.63
572.90	217.67
573.06	280.86
573.22	306.61
573.38	355.76
573.55	304.27
573.71	299.59
573.87	330.02
574.03	215.33
574.20	313.63
574.36	304.27
574.52	236.39
574.68	332.36
574.84	292.57
575.01	346.40
575.17	379.17
575.33	362.78
575.49	337.04
575.65	330.02
575.82	304.27
575.98	376.83
576.14	367.46
576.30	823.87
576.46	1736.68
576.62	2225.85
576.79	2242.23
576.95	1675.82
577.11	1132.82
577.27	835.57
577.43	667.05
577.59	603.86
577.75	489.17
577.92	463.43
578.08	372.15
578.24	418.96
578.40	805.14
578.56	1631.35
578.72	2221.17
578.88	2029.24
579.04	1603.27
579.21	1200.69
579.37	877.70
579.53	842.59
579.69	840.25
579.85	976.00
580.01	1022.81
580.17	940.90
580.33	903.45
580.49	748.97
580.65	671.73
580.82	706.84
580.98	660.03
581.14	653.01
581.30	770.04
581.46	751.31
581.62	755.99
581.78	807.48
581.94	873.02
582.10	840.25
582.26	931.53
582.42	903.45
582.58	940.90
582.74	1027.50
582.90	1020.47
583.06	1013.45
583.22	1032.18
583.38	873.02
583.54	929.19
583.70	997.07
583.86	976.00
584.02	954.94
584.18	1088.35
584.34	898.77
584.50	898.77
584.66	849.61
584.82	968.98
584.98	1001.75
585.14	954.94
585.30	844.93
585.46	854.30
585.62	842.59
585.78	873.02
585.94	868.34
586.10	807.48
586.26	905.79
586.42	1076.65
586.58	1163.25
586.74	1418.36
586.90	1675.82
587.06	1799.87
587.22	1750.72
587.38	1514.33
587.54	1348.15
587.70	1179.63
587.86	1027.50
588.02	858.98
588.18	770.04
588.34	800.46
588.49	739.61
588.65	676.41
588.81	681.10
588.97	571.09
589.13	617.90
589.29	550.03
589.45	650.67
589.61	610.88
589.77	650.67
589.93	648.33
590.08	592.16
590.24	650.67
590.40	641.31
590.56	629.60
590.72	702.16
590.88	671.73
591.04	805.14
591.20	716.20
591.35	805.14
591.51	830.89
591.67	858.98
591.83	849.61
591.99	1015.79
592.15	961.96
592.31	1011.11
592.46	1121.12
592.62	1245.16
592.78	1350.49
592.94	1289.64
593.10	1217.08
593.26	1100.05
593.41	1018.13
593.57	940.90
593.73	903.45
593.89	866.00
594.05	798.12
594.20	704.50
594.36	662.37
594.52	624.92
594.68	589.82
594.84	573.43
594.99	603.86
595.15	571.09
595.31	543.00
595.47	589.82
595.62	557.05
595.78	554.71
595.94	524.28
596.10	573.43
596.25	624.92
596.41	594.50
596.57	510.24
596.73	505.56
596.88	458.74
597.04	580.45
597.20	484.49
597.36	589.82
597.51	587.47
597.67	578.11
597.83	627.26
597.99	545.34
598.14	669.39
598.30	692.80
598.46	648.33
598.61	798.12
598.77	777.06
598.93	858.98
599.09	854.30
599.24	816.85
599.40	800.46
599.56	800.46
599.71	711.52
599.87	713.86
600.03	674.07
600.18	688.12
600.34	683.44
600.50	592.16
600.65	540.66
600.81	603.86
600.97	489.17
601.12	540.66
601.28	578.11
601.44	468.11
601.59	430.66
601.75	428.32
601.91	468.11
602.06	409.59
602.22	535.98
602.37	465.77
602.53	444.70
602.69	418.96
602.84	409.59
603.00	430.66
603.16	447.04
603.31	386.19
603.47	444.70
603.62	407.25
603.78	484.49
603.94	528.96
604.09	449.38
604.25	482.15
604.40	463.43
604.56	505.56
604.71	489.17
604.87	475.13
605.03	409.59
605.18	498.53
605.34	500.87
605.49	472.79
605.65	479.81
605.80	500.87
605.96	489.17
606.12	592.16
606.27	601.52
606.43	533.64
606.58	629.60
606.74	573.43
606.89	641.31
607.05	711.52
607.20	730.25
607.36	636.63
607.51	734.93
607.67	741.95
607.82	908.13
607.98	903.45
608.13	964.30
608.29	999.41
608.44	1046.22
608.60	1043.88
608.75	1144.52
608.91	1263.89
609.06	1467.52
609.22	1500.28
609.37	1699.23
609.53	1961.37
609.68	2052.65
609.84	2361.60
609.99	2813.32
610.15	3314.20
610.30	4018.70
610.46	5095.35
610.61	6413.07
610.76	7995.27
610.92	9441.72
611.07	10427.09
611.23	10597.95
611.38	9792.80
611.54	8634.24
611.69	7478.01
611.84	6195.40
612.00	5165.56
612.15	4472.76
612.31	3730.81
612.46	3639.53
612.62	3307.18
612.77	3159.72
612.92	3049.72
613.08	2775.88
613.23	2794.60
613.39	2628.42
613.54	2560.55
613.69	2495.01
613.85	2361.60
614.00	2345.22
614.15	2375.64
614.31	2361.60
614.46	2310.11
614.62	2218.83
614.77	2193.08
614.92	2005.84
615.08	1867.75
615.23	1689.87
615.38	1682.85
615.54	1664.12
615.69	1420.71
615.84	1268.57
616.00	1210.06
616.15	1076.65
616.30	1088.35
616.46	1114.10
616.61	931.53
616.76	990.05
616.92	964.30
617.07	896.43
617.22	844.93
617.37	755.99
617.53	788.76
617.68	727.91
617.83	781.74
617.99	767.70
618.14	849.61
618.29	697.48
618.45	741.95
618.60	685.78
618.75	688.12
618.90	685.78
619.06	746.63
619.21	772.38
619.36	723.23
619.51	683.44
619.67	631.94
619.82	725.57
619.97	699.82
620.12	807.48
620.28	653.01
620.43	706.84
620.58	711.52
620.73	709.18
620.89	674.07
621.04	683.44
621.19	730.25
621.34	744.29
621.49	655.35
621.65	716.20
621.80	664.71
621.95	683.44
622.10	657.69
622.25	638.97
622.41	706.84
622.56	692.80
622.71	662.37
622.86	681.10
623.01	683.44
623.16	748.97
623.32	798.12
623.47	716.20
623.62	685.78
623.77	653.01
623.92	681.10
624.07	683.44
624.23	657.69
624.38	763.01
624.53	784.08
624.68	816.85
624.83	709.18
624.98	748.97
625.13	765.36
625.29	716.20
625.44	765.36
625.59	706.84
625.74	786.42
625.89	814.51
626.04	725.57
626.19	802.80
626.34	786.42
626.49	685.78
626.65	667.05
626.80	678.76
626.95	702.16
627.10	697.48
627.25	730.25
627.40	585.13
627.55	636.63
627.70	634.29
627.85	627.26
628.00	706.84
628.15	660.03
628.30	622.58
628.45	638.97
628.60	660.03
628.76	629.60
628.91	634.29
629.06	704.50
629.21	664.71
629.36	718.54
629.51	681.10
629.66	795.78
629.81	779.40
629.96	861.32
630.11	924.51
630.26	992.39
630.41	1205.38
630.56	1179.63
630.71	1235.80
630.86	1233.46
631.01	1163.25
631.16	1081.33
631.31	973.66
631.46	889.40
631.61	784.08
631.76	674.07
631.91	575.77
632.06	589.82
632.21	468.11
632.36	437.68
632.51	418.96
632.66	386.19
632.81	428.32
632.96	341.72
633.10	304.27
633.25	365.12
633.40	346.40
633.55	299.59
633.70	313.63
633.85	325.33
634.00	351.08
634.15	294.91
634.30	201.29
634.45	325.33
634.60	280.86
634.75	348.74
634.90	273.84
635.05	294.91
635.19	301.93
635.34	255.12
635.49	224.69
635.64	245.76
635.79	231.71
635.94	341.72
636.09	266.82
636.24	259.80
636.39	344.06
636.53	290.23
636.68	238.73
636.83	280.86
636.98	355.76
637.13	264.48
637.28	276.18
637.43	353.42
637.57	255.12
637.72	414.27
637.87	306.61
638.02	276.18
638.17	280.86
638.32	266.82
638.46	283.20
638.61	381.51
638.76	210.65
638.91	205.97
639.06	238.73
639.20	280.86
639.35	248.10
639.50	287.89
639.65	208.31
639.80	245.76
639.94	280.86
640.09	271.50
640.24	273.84
640.39	166.18
640.54	299.59
640.68	266.82
640.83	266.82
640.98	229.37
641.13	208.31
641.27	234.05
641.42	198.95
641.57	308.95
641.72	245.76
641.86	285.55
642.01	241.08
642.16	248.10
642.31	294.91
642.45	325.33
642.60	250.44
642.75	280.86
642.90	271.50
643.04	273.84
643.19	266.82
643.34	238.73
643.48	205.97
643.63	229.37
643.78	252.78
643.93	264.48
644.07	276.18
644.22	234.05
644.37	227.03
644.51	301.93
644.66	269.16
644.81	177.88
644.95	306.61
645.10	248.10
645.25	252.78
645.39	308.95
645.54	159.16
645.69	315.97
645.83	276.18
645.98	315.97
646.13	198.95
646.27	231.71
646.42	231.71
646.57	217.67
646.71	231.71
646.86	245.76
647.00	215.33
647.15	250.44
647.30	238.73
647.44	177.88
647.59	262.14
647.74	234.05
647.88	205.97
648.03	264.48
648.17	264.48
648.32	205.97
648.47	220.01
648.61	250.44
648.76	252.78
648.90	220.01
649.05	170.86
649.20	241.08
649.34	283.20
649.49	182.56
649.63	315.97
649.78	313.63
649.92	362.78
650.07	414.27
650.21	486.83
650.36	489.17
650.51	456.40
650.65	526.62
650.80	362.78
650.94	367.46
651.09	388.53
651.23	346.40
651.38	264.48
651.52	306.61
651.67	292.57
651.81	285.55
651.96	404.91
652.10	271.50
652.25	241.08
652.39	280.86
652.54	320.65
652.68	294.91
652.83	234.05
652.97	304.27
653.12	327.68
653.26	311.29
653.41	262.14
653.55	308.95
653.70	259.80
653.84	201.29
653.99	194.26
654.13	189.58
654.27	250.44
654.42	198.95
654.56	337.04
654.71	341.72
654.85	238.73
655.00	203.63
655.14	205.97
655.29	287.89
655.43	257.46
655.57	224.69
655.72	210.65
655.86	243.42
656.01	250.44
656.15	285.55
656.30	236.39
656.44	210.65
656.58	175.54
656.73	229.37
656.87	210.65
657.01	198.95
657.16	161.50
657.30	241.08
657.45	222.35
657.59	234.05
657.73	175.54
657.88	189.58
658.02	287.89
658.16	159.16
658.31	187.24
658.45	297.25
658.60	189.58
658.74	248.10
658.88	236.39
659.03	229.37
659.17	259.80
659.31	142.77
659.46	152.13
659.60	203.63
659.74	201.29
659.89	170.86
660.03	292.57
660.17	285.55
660.32	196.60
660.46	215.33
660.60	271.50
660.74	180.22
660.89	220.01
661.03	173.20
661.17	220.01
661.32	224.69
661.46	322.99
661.60	308.95
661.74	220.01
661.89	311.29
662.03	381.51
662.17	358.10
662.31	299.59
662.46	327.68
662.60	266.82
662.74	255.12
662.88	234.05
663.03	208.31
663.17	290.23
663.31	245.76
663.45	273.84
663.60	238.73
663.74	187.24
663.88	184.90
664.02	189.58
664.17	114.69
664.31	191.92
664.45	252.78
664.59	191.92
664.73	229.37
664.88	184.90
665.02	182.56
665.16	154.48
665.30	168.52
665.44	161.50
665.59	231.71
665.73	201.29
665.87	149.79
666.01	191.92
666.15	168.52
666.29	227.03
666.44	227.03
666.58	285.55
666.72	222.35
666.86	189.58
667.00	177.88
667.14	142.77
667.28	220.01
667.43	142.77
667.57	149.79
667.71	248.10
667.85	255.12
667.99	290.23
668.13	259.80
668.27	229.37
668.41	292.57
668.56	138.09
668.70	248.10
668.84	175.54
668.98	198.95
669.12	98.30
669.26	217.67
669.40	222.35
669.54	236.39
669.68	297.25
669.82	173.20
669.96	163.84
670.10	212.99
670.25	187.24
670.39	191.92
670.53	163.84
670.67	222.35
670.81	224.69
670.95	180.22
671.09	187.24
671.23	332.36
671.37	252.78
671.51	236.39
671.65	212.99
671.79	191.92
671.93	257.46
672.07	212.99
672.21	203.63
672.35	215.33
672.49	201.29
672.63	276.18
672.77	102.98
672.91	234.05
673.05	224.69
673.19	105.32
673.33	154.48
673.47	217.67
673.61	208.31
673.75	166.18
673.89	149.79
674.03	180.22
674.17	189.58
674.31	175.54
674.45	180.22
674.59	203.63
674.73	234.05
674.87	252.78
675.01	243.42
675.15	217.67
675.29	276.18
675.43	245.76
675.56	203.63
675.70	318.31
675.84	212.99
675.98	191.92
676.12	177.88
676.26	187.24
676.40	126.39
676.54	203.63
676.68	112.35
676.82	161.50
676.96	283.20
677.10	198.95
677.23	177.88
677.37	217.67
677.51	210.65
677.65	315.97
677.79	32.77
677.93	184.90
678.07	163.84
678.21	173.20
678.34	131.07
678.48	177.88
678.62	163.84
678.76	121.71
678.90	194.26
679.04	250.44
679.18	257.46
679.31	98.30
679.45	203.63
679.59	173.20
679.73	159.16
679.87	131.07
680.00	205.97
680.14	222.35
680.28	194.26
680.42	133.41
680.56	147.45
680.70	149.79
680.83	229.37
680.97	229.37
681.11	147.45
681.25	182.56
681.39	201.29
681.52	159.16
681.66	149.79
681.80	182.56
681.94	203.63
682.07	175.54
682.21	133.41
682.35	145.11
682.49	175.54
682.62	198.95
682.76	117.03
682.90	191.92
683.04	135.75
683.17	149.79
683.31	161.50
683.45	173.20
683.59	177.88
683.72	229.37
683.86	217.67
684.00	243.42
684.13	234.05
684.27	166.18
684.41	212.99
684.55	138.09
684.68	182.56
684.82	224.69
684.96	145.11
685.09	131.07
685.23	126.39
685.37	166.18
685.50	182.56
685.64	194.26
685.78	159.16
685.91	135.75
686.05	280.86
686.19	198.95
686.32	133.41
686.46	156.82
686.60	140.43
686.73	283.20
686.87	241.08
687.01	269.16
687.14	243.42
687.28	201.29
687.42	189.58
687.55	215.33
687.69	224.69
687.82	182.56
687.96	198.95
688.10	205.97
688.23	238.73
688.37	201.29
688.50	191.92
688.64	224.69
688.78	184.90
688.91	175.54
689.05	124.05
689.18	135.75
689.32	140.43
689.46	124.05
689.59	201.29
689.73	154.48
689.86	177.88
690.00	166.18
690.13	124.05
690.27	133.41
690.41	191.92
690.54	170.86
690.68	189.58
690.81	180.22
690.95	112.35
691.08	152.13
691.22	133.41
691.35	149.79
691.49	147.45
691.62	149.79
691.76	187.24
691.89	159.16
692.03	84.26
692.16	198.95
692.30	95.96
692.43	131.07
692.57	145.11
692.70	114.69
692.84	138.09
692.97	117.03
693.11	184.90
693.24	201.29
693.38	142.77
693.51	128.73
693.65	250.44
693.78	196.60
693.92	156.82
694.05	191.92
694.19	194.26
694.32	184.90
694.45	124.05
694.59	152.13
694.72	152.13
694.86	196.60
694.99	149.79
695.13	95.96
695.26	142.77
695.39	131.07
695.53	231.71
695.66	180.22
695.80	191.92
695.93	191.92
696.07	91.28
696.20	114.69
696.33	114.69
696.47	114.69
696.60	112.35
696.73	173.20
696.87	149.79
697.00	205.97
697.14	161.50
697.27	124.05
697.40	161.50
697.54	191.92
697.67	180.22
697.80	189.58
697.94	145.11
698.07	126.39
698.21	138.09
698.34	142.77
698.47	156.82
698.61	95.96
698.74	107.66
698.87	93.62
699.01	149.79
699.14	166.18
699.27	93.62
699.40	227.03
699.54	70.22
699.67	168.52
699.80	187.24
699.94	159.16
700.07	117.03
700.20	72.56
700.34	159.16
700.47	126.39
700.60	149.79
700.73	159.16
700.87	161.50
701.00	133.41
701.13	128.73
701.26	70.22
701.40	220.01
701.53	182.56
701.66	124.05
701.79	93.62
701.93	187.24
702.06	184.90
702.19	159.16
702.32	88.94
702.46	138.09
702.59	154.48
702.72	110.01
702.85	110.01
702.99	131.07
703.12	135.75
703.25	105.32
703.38	147.45
703.51	173.20
703.65	163.84
703.78	128.73
703.91	159.16
704.04	142.77
704.17	95.96
704.31	154.48
704.44	149.79
704.57	98.30
704.70	194.26
704.83	163.84
704.96	65.54
705.10	175.54
705.23	140.43
>>>>>End Processed Spectral Data<<<<<
