SpectraSuite Data File
++++++++++++++++++++++++++++++++++++
Date: Fri Oct 04 11:42:20 GMT-05:00 2013
User: price-jones
Dark Spectrum Present: No
Reference Spectrum Present: No
Number of Sampled Component Spectra: 1
Spectrometers: USB2+H05261
Integration Time (usec): 100000 (USB2+H05261)
Spectra Averaged: 1 (USB2+H05261)
Boxcar Smoothing: 0 (USB2+H05261)
Correct for Electrical Dark: No (USB2+H05261)
Strobe/Lamp Enabled: No (USB2+H05261)
Correct for Detector Non-linearity: No (USB2+H05261)
Correct for Stray Light: No (USB2+H05261)
Number of Pixels in Processed Spectrum: 2048
>>>>>Begin Processed Spectral Data<<<<<
365.73	32.77
365.92	32.77
366.12	32.77
366.32	0.00
366.52	0.00
366.72	0.00
366.91	0.00
367.11	0.00
367.31	0.00
367.51	0.00
367.70	0.00
367.90	0.00
368.10	0.00
368.30	0.00
368.49	0.00
368.69	0.00
368.89	28.09
369.09	0.00
369.28	0.00
369.48	4.68
369.68	14.04
369.87	49.15
370.07	0.00
370.27	0.00
370.47	16.38
370.66	39.79
370.86	14.04
371.06	112.35
371.25	142.77
371.45	86.60
371.65	107.66
371.84	0.00
372.04	72.56
372.24	77.24
372.44	56.17
372.63	107.66
372.83	114.69
373.03	102.98
373.22	65.54
373.42	72.56
373.62	81.92
373.81	105.32
374.01	102.98
374.21	166.18
374.40	138.09
374.60	177.88
374.79	149.79
374.99	126.39
375.19	105.32
375.38	93.62
375.58	91.28
375.78	98.30
375.97	135.75
376.17	201.29
376.37	126.39
376.56	88.94
376.76	110.01
376.95	84.26
377.15	173.20
377.35	131.07
377.54	138.09
377.74	42.13
377.93	79.58
378.13	135.75
378.33	201.29
378.52	234.05
378.72	154.48
378.91	86.60
379.11	161.50
379.31	86.60
379.50	46.81
379.70	163.84
379.89	163.84
380.09	175.54
380.28	88.94
380.48	60.85
380.68	131.07
380.87	56.17
381.07	77.24
381.26	119.37
381.46	140.43
381.65	161.50
381.85	131.07
382.04	133.41
382.24	131.07
382.43	93.62
382.63	93.62
382.83	98.30
383.02	119.37
383.22	105.32
383.41	189.58
383.61	79.58
383.80	95.96
384.00	114.69
384.19	30.43
384.39	133.41
384.58	35.11
384.78	152.13
384.97	58.51
385.17	189.58
385.36	175.54
385.56	156.82
385.75	67.88
385.95	60.85
386.14	135.75
386.34	140.43
386.53	138.09
386.72	86.60
386.92	114.69
387.11	70.22
387.31	32.77
387.50	93.62
387.70	88.94
387.89	145.11
388.09	124.05
388.28	152.13
388.48	107.66
388.67	135.75
388.86	135.75
389.06	63.19
389.25	154.48
389.45	86.60
389.64	91.28
389.84	114.69
390.03	159.16
390.22	124.05
390.42	86.60
390.61	147.45
390.81	58.51
391.00	159.16
391.19	126.39
391.39	117.03
391.58	135.75
391.78	56.17
391.97	187.24
392.16	133.41
392.36	114.69
392.55	126.39
392.75	93.62
392.94	126.39
393.13	168.52
393.33	133.41
393.52	112.35
393.71	208.31
393.91	112.35
394.10	170.86
394.29	124.05
394.49	67.88
394.68	124.05
394.88	161.50
395.07	149.79
395.26	140.43
395.46	107.66
395.65	161.50
395.84	121.71
396.04	201.29
396.23	98.30
396.42	105.32
396.62	163.84
396.81	201.29
397.00	133.41
397.19	156.82
397.39	156.82
397.58	42.13
397.77	105.32
397.97	110.01
398.16	79.58
398.35	191.92
398.55	121.71
398.74	114.69
398.93	180.22
399.12	147.45
399.32	110.01
399.51	149.79
399.70	191.92
399.90	105.32
400.09	102.98
400.28	156.82
400.47	112.35
400.67	191.92
400.86	166.18
401.05	173.20
401.24	149.79
401.44	173.20
401.63	161.50
401.82	184.90
402.01	175.54
402.21	177.88
402.40	198.95
402.59	154.48
402.78	126.39
402.97	191.92
403.17	203.63
403.36	257.46
403.55	217.67
403.74	566.41
403.93	1846.68
404.13	4222.33
404.32	5170.24
404.51	4315.95
404.70	2576.93
404.89	950.26
405.09	362.78
405.28	177.88
405.47	147.45
405.66	152.13
405.85	138.09
406.05	266.82
406.24	243.42
406.43	210.65
406.62	215.33
406.81	227.03
407.00	346.40
407.20	540.66
407.39	732.59
407.58	753.65
407.77	589.82
407.96	346.40
408.15	248.10
408.34	154.48
408.54	189.58
408.73	140.43
408.92	168.52
409.11	241.08
409.30	245.76
409.49	156.82
409.68	161.50
409.87	217.67
410.07	156.82
410.26	252.78
410.45	175.54
410.64	259.80
410.83	210.65
411.02	161.50
411.21	177.88
411.40	255.12
411.59	152.13
411.78	152.13
411.98	145.11
412.17	152.13
412.36	205.97
412.55	205.97
412.74	241.08
412.93	222.35
413.12	187.24
413.31	189.58
413.50	156.82
413.69	194.26
413.88	250.44
414.07	180.22
414.26	203.63
414.45	135.75
414.64	187.24
414.83	229.37
415.02	177.88
415.22	210.65
415.41	245.76
415.60	159.16
415.79	220.01
415.98	248.10
416.17	203.63
416.36	257.46
416.55	208.31
416.74	229.37
416.93	264.48
417.12	208.31
417.31	212.99
417.50	266.82
417.69	262.14
417.88	227.03
418.07	205.97
418.26	149.79
418.45	133.41
418.64	203.63
418.83	224.69
419.02	243.42
419.21	205.97
419.39	257.46
419.58	210.65
419.77	215.33
419.96	245.76
420.15	294.91
420.34	222.35
420.53	257.46
420.72	332.36
420.91	297.25
421.10	166.18
421.29	217.67
421.48	245.76
421.67	271.50
421.86	229.37
422.05	262.14
422.24	257.46
422.43	252.78
422.61	238.73
422.80	259.80
422.99	248.10
423.18	280.86
423.37	332.36
423.56	264.48
423.75	241.08
423.94	273.84
424.13	231.71
424.32	241.08
424.50	245.76
424.69	238.73
424.88	259.80
425.07	245.76
425.26	355.76
425.45	313.63
425.64	212.99
425.83	273.84
426.01	367.46
426.20	210.65
426.39	255.12
426.58	276.18
426.77	322.99
426.96	266.82
427.15	266.82
427.33	344.06
427.52	245.76
427.71	304.27
427.90	290.23
428.09	243.42
428.28	311.29
428.46	341.72
428.65	334.70
428.84	320.65
429.03	308.95
429.22	262.14
429.40	203.63
429.59	358.10
429.78	285.55
429.97	301.93
430.16	297.25
430.34	360.44
430.53	390.87
430.72	358.10
430.91	339.38
431.10	297.25
431.28	306.61
431.47	397.89
431.66	276.18
431.85	325.33
432.03	379.17
432.22	400.23
432.41	365.12
432.60	425.98
432.79	390.87
432.97	409.59
433.16	435.34
433.35	489.17
433.54	500.87
433.72	526.62
433.91	580.45
434.10	526.62
434.28	681.10
434.47	842.59
434.66	840.25
434.85	999.41
435.03	3005.25
435.22	10817.96
435.41	23220.45
435.59	22799.16
435.78	14633.03
435.97	7332.90
436.16	2848.43
436.34	1174.95
436.53	697.48
436.72	568.75
436.90	435.34
437.09	486.83
437.28	461.09
437.46	421.30
437.65	475.13
437.84	482.15
438.02	374.49
438.21	381.51
438.40	395.55
438.58	381.51
438.77	442.36
438.96	418.96
439.14	365.12
439.33	358.10
439.52	383.85
439.70	337.04
439.89	362.78
440.08	320.65
440.26	411.93
440.45	428.32
440.63	390.87
440.82	330.02
441.01	400.23
441.19	416.62
441.38	395.55
441.57	423.64
441.75	376.83
441.94	383.85
442.12	341.72
442.31	428.32
442.50	423.64
442.68	348.74
442.87	444.70
443.05	362.78
443.24	395.55
443.43	437.68
443.61	376.83
443.80	423.64
443.98	346.40
444.17	390.87
444.35	360.44
444.54	440.02
444.73	479.81
444.91	442.36
445.10	332.36
445.28	458.74
445.47	327.68
445.65	402.57
445.84	362.78
446.02	367.46
446.21	414.27
446.39	379.17
446.58	390.87
446.77	332.36
446.95	271.50
447.14	416.62
447.32	440.02
447.51	379.17
447.69	292.57
447.88	411.93
448.06	365.12
448.25	372.15
448.43	360.44
448.62	332.36
448.80	337.04
448.99	376.83
449.17	341.72
449.36	407.25
449.54	299.59
449.73	383.85
449.91	428.32
450.10	418.96
450.28	456.40
450.46	428.32
450.65	458.74
450.83	353.42
451.02	337.04
451.20	442.36
451.39	395.55
451.57	365.12
451.76	383.85
451.94	395.55
452.13	449.38
452.31	376.83
452.49	416.62
452.68	365.12
452.86	369.80
453.05	465.77
453.23	407.25
453.42	341.72
453.60	344.06
453.78	407.25
453.97	397.89
454.15	348.74
454.34	383.85
454.52	301.93
454.70	374.49
454.89	341.72
455.07	294.91
455.26	322.99
455.44	414.27
455.62	339.38
455.81	369.80
455.99	372.15
456.17	341.72
456.36	383.85
456.54	383.85
456.73	334.70
456.91	367.46
457.09	397.89
457.28	404.91
457.46	388.53
457.64	397.89
457.83	425.98
458.01	393.21
458.19	346.40
458.38	383.85
458.56	458.74
458.74	353.42
458.93	395.55
459.11	308.95
459.29	372.15
459.48	386.19
459.66	423.64
459.84	395.55
460.03	423.64
460.21	421.30
460.39	386.19
460.57	365.12
460.76	425.98
460.94	348.74
461.12	393.21
461.31	346.40
461.49	308.95
461.67	276.18
461.85	381.51
462.04	372.15
462.22	484.49
462.40	407.25
462.59	367.46
462.77	369.80
462.95	407.25
463.13	416.62
463.32	332.36
463.50	386.19
463.68	411.93
463.86	365.12
464.05	337.04
464.23	404.91
464.41	411.93
464.59	442.36
464.78	416.62
464.96	383.85
465.14	435.34
465.32	325.33
465.50	301.93
465.69	365.12
465.87	393.21
466.05	334.70
466.23	271.50
466.41	306.61
466.60	393.21
466.78	407.25
466.96	418.96
467.14	383.85
467.32	376.83
467.51	355.76
467.69	362.78
467.87	339.38
468.05	308.95
468.23	433.00
468.41	383.85
468.60	292.57
468.78	257.46
468.96	351.08
469.14	344.06
469.32	332.36
469.50	311.29
469.69	308.95
469.87	320.65
470.05	318.31
470.23	365.12
470.41	266.82
470.59	374.49
470.77	292.57
470.95	327.68
471.14	383.85
471.32	280.86
471.50	346.40
471.68	358.10
471.86	444.70
472.04	341.72
472.22	318.31
472.40	367.46
472.58	367.46
472.77	372.15
472.95	418.96
473.13	430.66
473.31	330.02
473.49	278.52
473.67	334.70
473.85	393.21
474.03	381.51
474.21	397.89
474.39	411.93
474.57	346.40
474.75	250.44
474.93	376.83
475.12	334.70
475.30	369.80
475.48	318.31
475.66	376.83
475.84	315.97
476.02	339.38
476.20	376.83
476.38	362.78
476.56	404.91
476.74	386.19
476.92	332.36
477.10	383.85
477.28	339.38
477.46	381.51
477.64	423.64
477.82	393.21
478.00	397.89
478.18	393.21
478.36	383.85
478.54	367.46
478.72	472.79
478.90	337.04
479.08	421.30
479.26	470.45
479.44	458.74
479.62	524.28
479.80	472.79
479.98	451.72
480.16	472.79
480.34	489.17
480.52	463.43
480.70	484.49
480.88	526.62
481.06	596.84
481.24	521.94
481.41	622.58
481.59	671.73
481.77	702.16
481.95	763.01
482.13	786.42
482.31	823.87
482.49	896.43
482.67	947.92
482.85	1004.09
483.03	1055.58
483.21	1050.90
483.39	1184.31
483.57	1177.29
483.74	1324.74
483.92	1291.98
484.10	1390.28
484.28	1453.47
484.46	1638.38
484.64	1654.76
484.82	1769.44
485.00	1816.26
485.18	1973.07
485.35	1940.30
485.53	2047.97
485.71	2284.36
485.89	2356.92
486.07	2363.94
486.25	2352.24
486.43	2511.39
486.61	2298.41
486.78	2534.80
486.96	2279.68
487.14	2352.24
487.32	2347.56
487.50	2408.41
487.68	2377.98
487.85	2296.07
488.03	2253.94
488.21	2272.66
488.39	2235.21
488.57	2155.63
488.75	2062.01
488.92	2265.64
489.10	2017.54
489.28	1996.48
489.46	1870.09
489.64	1853.70
489.81	1940.30
489.99	1846.68
490.17	1820.94
490.35	1944.99
490.53	1788.17
490.70	1806.89
490.88	1865.41
491.06	1968.39
491.24	1998.82
491.41	2155.63
491.59	1856.04
491.77	1746.04
491.95	1710.93
492.13	1645.40
492.30	1708.59
492.48	1650.08
492.66	1582.20
492.84	1570.50
493.01	1621.99
493.19	1547.09
493.37	1626.67
493.54	1561.14
493.72	1423.05
493.90	1526.03
494.08	1362.19
494.25	1488.58
494.43	1439.43
494.61	1420.71
494.79	1427.73
494.96	1383.26
495.14	1373.89
495.32	1352.83
495.49	1252.19
495.67	1249.85
495.85	1277.93
496.02	1294.32
496.20	1268.57
496.38	1231.12
496.55	1238.14
496.73	1200.69
496.91	1102.39
497.09	1163.25
497.26	1062.60
497.44	1100.05
497.62	1205.38
497.79	1125.80
497.97	983.02
498.14	1006.43
498.32	999.41
498.50	926.85
498.67	931.53
498.85	983.02
499.03	919.83
499.20	950.26
499.38	901.11
499.56	905.79
499.73	779.40
499.91	896.43
500.08	847.27
500.26	779.40
500.44	751.31
500.61	779.40
500.79	802.80
500.97	657.69
501.14	741.95
501.32	685.78
501.49	716.20
501.67	594.50
501.84	681.10
502.02	624.92
502.20	685.78
502.37	514.92
502.55	615.56
502.72	695.14
502.90	599.18
503.07	571.09
503.25	615.56
503.43	507.90
503.60	538.32
503.78	514.92
503.95	489.17
504.13	496.19
504.30	505.56
504.48	531.30
504.65	505.56
504.83	552.37
505.01	414.27
505.18	404.91
505.36	400.23
505.53	437.68
505.71	484.49
505.88	449.38
506.06	475.13
506.23	465.77
506.41	383.85
506.58	440.02
506.76	447.04
506.93	376.83
507.11	416.62
507.28	472.79
507.46	454.06
507.63	404.91
507.81	332.36
507.98	430.66
508.16	472.79
508.33	482.15
508.50	440.02
508.68	402.57
508.85	404.91
509.03	433.00
509.20	468.11
509.38	414.27
509.55	458.74
509.73	430.66
509.90	395.55
510.08	367.46
510.25	395.55
510.42	339.38
510.60	381.51
510.77	383.85
510.95	320.65
511.12	395.55
511.30	524.28
511.47	276.18
511.64	395.55
511.82	365.12
511.99	425.98
512.17	379.17
512.34	278.52
512.51	400.23
512.69	416.62
512.86	372.15
513.04	414.27
513.21	411.93
513.38	243.42
513.56	404.91
513.73	397.89
513.90	362.78
514.08	397.89
514.25	379.17
514.43	306.61
514.60	339.38
514.77	390.87
514.95	362.78
515.12	337.04
515.29	404.91
515.47	362.78
515.64	376.83
515.81	400.23
515.99	437.68
516.16	428.32
516.33	325.33
516.51	379.17
516.68	292.57
516.85	444.70
517.03	320.65
517.20	388.53
517.37	355.76
517.54	273.84
517.72	388.53
517.89	304.27
518.06	280.86
518.24	367.46
518.41	379.17
518.58	325.33
518.75	269.16
518.93	367.46
519.10	341.72
519.27	320.65
519.45	269.16
519.62	337.04
519.79	308.95
519.96	327.68
520.14	376.83
520.31	327.68
520.48	355.76
520.65	318.31
520.83	374.49
521.00	416.62
521.17	390.87
521.34	306.61
521.52	301.93
521.69	297.25
521.86	365.12
522.03	308.95
522.20	416.62
522.38	311.29
522.55	301.93
522.72	337.04
522.89	353.42
523.07	416.62
523.24	362.78
523.41	269.16
523.58	276.18
523.75	341.72
523.92	278.52
524.10	327.68
524.27	339.38
524.44	344.06
524.61	409.59
524.78	311.29
524.96	351.08
525.13	409.59
525.30	428.32
525.47	355.76
525.64	409.59
525.81	393.21
525.98	327.68
526.16	325.33
526.33	287.89
526.50	386.19
526.67	376.83
526.84	374.49
527.01	397.89
527.18	458.74
527.36	454.06
527.53	472.79
527.70	491.51
527.87	416.62
528.04	461.09
528.21	416.62
528.38	425.98
528.55	383.85
528.72	414.27
528.89	444.70
529.07	425.98
529.24	379.17
529.41	461.09
529.58	393.21
529.75	407.25
529.92	421.30
530.09	421.30
530.26	437.68
530.43	435.34
530.60	526.62
530.77	449.38
530.94	465.77
531.11	486.83
531.28	486.83
531.46	484.49
531.63	491.51
531.80	582.79
531.97	510.24
532.14	653.01
532.31	692.80
532.48	931.53
532.65	1006.43
532.82	1057.92
532.99	1301.34
533.16	1355.17
533.33	1474.54
533.50	1387.94
533.67	1254.53
533.84	1090.69
534.01	863.66
534.18	896.43
534.35	821.53
534.52	889.40
534.69	947.92
534.86	1029.84
535.03	947.92
535.20	978.34
535.37	1071.97
535.54	1086.01
535.71	1151.54
535.88	1200.69
536.05	1231.12
536.22	1380.92
536.38	1460.49
536.55	1664.12
536.72	1870.09
536.89	1865.41
537.06	2169.68
537.23	2406.07
537.40	2747.79
537.57	2796.94
537.74	2960.78
537.91	3035.67
538.08	3173.77
538.25	3194.83
538.42	3295.47
538.59	3215.90
538.75	3454.63
538.92	3494.42
539.09	3899.33
539.26	4224.67
539.43	4833.21
539.60	5561.11
539.77	6066.67
539.94	6832.02
540.11	7545.89
540.28	8100.59
540.44	8819.14
540.61	9937.91
540.78	11536.50
540.95	13893.42
541.12	16327.58
541.29	18225.75
541.46	19339.85
541.62	18806.20
541.79	18349.80
541.96	16975.91
542.13	15646.48
542.30	14506.64
542.47	13841.93
542.63	13055.51
542.80	12624.85
542.97	12468.03
543.14	12224.62
543.31	12290.15
543.48	12514.84
543.64	12451.65
543.81	12596.76
543.98	13074.23
544.15	12978.27
544.32	13071.89
544.48	13198.28
544.65	12718.47
544.82	12819.11
544.99	12622.51
545.16	12987.63
545.32	13853.63
545.49	24367.32
545.66	45034.25
545.83	50976.87
546.00	43676.74
546.16	30665.70
546.33	22338.07
546.50	16807.39
546.67	13088.28
546.83	11550.54
547.00	11023.92
547.17	10576.88
547.34	10120.48
547.50	9839.61
547.67	9224.05
547.84	9008.72
548.00	8659.98
548.17	8386.14
548.34	8058.46
548.51	7712.07
548.67	7375.03
548.84	6883.52
549.01	6876.49
549.18	6359.24
549.34	5916.87
549.51	5961.34
549.68	5827.93
549.84	5591.54
550.01	5177.26
550.18	5057.90
550.34	4896.40
550.51	4540.64
550.68	4388.50
550.84	4044.45
551.01	3847.84
551.18	3721.45
551.34	3536.55
551.51	3426.54
551.68	3236.96
551.84	3290.79
552.01	2970.14
552.18	2925.67
552.34	2792.26
552.51	2733.75
552.68	2689.28
552.84	2555.86
553.01	2368.62
553.18	2413.09
553.34	2368.62
553.51	2186.06
553.67	2087.76
553.84	2167.34
554.01	1811.57
554.17	1842.00
554.34	1743.70
554.51	1509.65
554.67	1519.01
554.84	1509.65
555.00	1409.00
555.17	1334.11
555.33	1221.76
555.50	1219.42
555.67	1184.31
555.83	1064.94
556.00	1097.71
556.16	1186.65
556.33	1050.90
556.50	1022.81
556.66	1039.20
556.83	1041.54
556.99	847.27
557.16	842.59
557.32	908.13
557.49	884.72
557.65	905.79
557.82	685.78
557.98	805.14
558.15	830.89
558.32	699.82
558.48	765.36
558.65	702.16
558.81	737.27
558.98	650.67
559.14	720.88
559.31	638.97
559.47	739.61
559.64	645.99
559.80	622.58
559.97	575.77
560.13	669.39
560.30	627.26
560.46	608.54
560.63	683.44
560.79	629.60
560.96	550.03
561.12	615.56
561.29	650.67
561.45	653.01
561.61	692.80
561.78	631.94
561.94	638.97
562.11	702.16
562.27	627.26
562.44	596.84
562.60	620.24
562.77	552.37
562.93	683.44
563.10	564.07
563.26	573.43
563.42	634.29
563.59	510.24
563.75	573.43
563.92	512.58
564.08	533.64
564.24	594.50
564.41	599.18
564.57	451.72
564.74	498.53
564.90	521.94
565.07	547.69
565.23	526.62
565.39	475.13
565.56	468.11
565.72	510.24
565.88	482.15
566.05	484.49
566.21	468.11
566.38	528.96
566.54	580.45
566.70	575.77
566.87	479.81
567.03	470.45
567.19	524.28
567.36	575.77
567.52	519.60
567.68	440.02
567.85	526.62
568.01	433.00
568.17	552.37
568.34	486.83
568.50	582.79
568.66	519.60
568.83	617.90
568.99	517.26
569.15	559.39
569.32	540.66
569.48	472.79
569.64	433.00
569.81	416.62
569.97	500.87
570.13	454.06
570.30	409.59
570.46	362.78
570.62	376.83
570.78	322.99
570.95	383.85
571.11	447.04
571.27	395.55
571.43	341.72
571.60	416.62
571.76	486.83
571.92	409.59
572.09	402.57
572.25	482.15
572.41	428.32
572.57	381.51
572.74	463.43
572.90	496.19
573.06	447.04
573.22	414.27
573.38	470.45
573.55	456.40
573.71	491.51
573.87	461.09
574.03	435.34
574.20	442.36
574.36	500.87
574.52	425.98
574.68	442.36
574.84	596.84
575.01	500.87
575.17	594.50
575.33	533.64
575.49	641.31
575.65	505.56
575.82	690.46
575.98	767.70
576.14	798.12
576.30	1586.88
576.46	5188.97
576.62	8407.20
576.79	9008.72
576.95	6331.15
577.11	4109.98
577.27	2953.76
577.43	2054.99
577.59	1432.41
577.75	1165.59
577.92	1053.24
578.08	999.41
578.24	1081.33
578.40	1783.49
578.56	4877.68
578.72	7943.78
578.88	8339.33
579.04	6127.52
579.21	4173.18
579.37	3220.58
579.53	2525.44
579.69	2590.97
579.85	3080.14
580.01	3372.71
580.17	3232.28
580.33	2754.81
580.49	2361.60
580.65	2204.78
580.82	2015.20
580.98	1858.39
581.14	1937.96
581.30	2045.63
581.46	2157.97
581.62	2368.62
581.78	2457.56
581.94	2794.60
582.10	2745.45
582.26	3054.40
582.42	3148.02
582.58	3201.85
582.74	3155.04
582.90	3194.83
583.06	3321.22
583.22	3157.38
583.38	3220.58
583.54	3262.71
583.70	3204.19
583.86	3180.79
584.02	3028.65
584.18	3101.21
584.34	2986.52
584.50	3038.02
584.66	2946.73
584.82	2843.75
584.98	2970.14
585.14	2942.05
585.30	2895.24
585.46	2834.39
585.62	2684.59
585.78	2745.45
585.94	2794.60
586.10	3007.59
586.26	3052.06
586.42	3433.57
586.58	4084.23
586.74	4882.36
586.90	5891.13
587.06	6392.00
587.22	6015.18
587.38	5486.22
587.54	4688.09
587.70	4035.08
587.86	3499.10
588.02	2864.82
588.18	2682.25
588.34	2518.42
588.49	2193.08
588.65	2094.78
588.81	2003.50
588.97	1846.68
589.13	1849.02
589.29	1881.79
589.45	1790.51
589.61	1762.42
589.77	1776.47
589.93	1832.64
590.08	1884.13
590.24	1968.39
590.40	2071.37
590.56	2092.44
590.72	2024.56
590.88	2054.99
591.04	2183.72
591.20	2354.58
591.35	2401.39
591.51	2485.65
591.67	2635.44
591.83	2789.92
591.99	2923.33
592.15	3396.12
592.31	3468.67
592.46	3815.07
592.62	4198.92
592.78	4320.63
592.94	4451.70
593.10	4280.84
593.26	4241.05
593.41	3932.10
593.57	3508.46
593.73	3091.85
593.89	2904.60
594.05	2544.16
594.20	2237.55
594.36	2223.51
594.52	1991.80
594.68	1832.64
594.84	1748.38
594.99	1736.68
595.15	1753.06
595.31	1654.76
595.47	1722.63
595.62	1706.25
595.78	1680.50
595.94	1659.44
596.10	1699.23
596.25	1696.89
596.41	1650.08
596.57	1652.42
596.73	1713.27
596.88	1605.61
597.04	1624.33
597.20	1664.12
597.36	1680.50
597.51	1720.29
597.67	1856.04
597.83	1947.33
597.99	2101.80
598.14	2043.29
598.30	2214.15
598.46	2265.64
598.61	2445.86
598.77	2546.50
598.93	2658.85
599.09	2717.36
599.24	2722.04
599.40	2810.98
599.56	2761.83
599.71	2551.18
599.87	2354.58
600.03	2256.28
600.18	2176.70
600.34	1930.94
600.50	1802.21
600.65	1797.53
600.81	1755.40
600.97	1586.88
601.12	1490.92
601.28	1458.15
601.44	1362.19
601.59	1240.48
601.75	1413.68
601.91	1240.48
602.06	1294.32
602.22	1263.89
602.37	1200.69
602.53	1008.77
602.69	1191.33
602.84	999.41
603.00	1093.03
603.16	1224.10
603.31	1217.08
603.47	1170.27
603.62	1130.48
603.78	1273.25
603.94	1191.33
604.09	1296.66
604.25	1291.98
604.40	1322.40
604.56	1270.91
604.71	1303.68
604.87	1301.34
605.03	1373.89
605.18	1331.76
605.34	1467.52
605.49	1453.47
605.65	1399.64
605.80	1451.13
605.96	1558.80
606.12	1591.56
606.27	1727.32
606.43	1764.76
606.58	1867.75
606.74	1930.94
606.89	1956.69
607.05	2043.29
607.20	2097.12
607.36	2225.85
607.51	2310.11
607.67	2586.29
607.82	2785.24
607.98	2981.84
608.13	3119.93
608.29	3417.18
608.44	3721.45
608.60	3908.69
608.75	4327.65
608.91	4629.58
609.06	5064.92
609.22	5781.12
609.37	6167.31
609.53	6986.50
609.68	7789.30
609.84	9039.15
609.99	10558.16
610.15	12781.67
610.30	15522.43
610.46	19370.27
610.61	25900.37
610.76	32751.12
610.92	39218.02
611.07	43885.04
611.23	45031.91
611.38	42169.43
611.54	36905.57
611.69	31697.88
611.84	26307.62
612.00	21947.20
612.15	18417.68
612.31	16152.04
612.46	14389.61
612.62	13647.66
612.77	12886.99
612.92	12149.72
613.08	11456.92
613.23	10956.05
613.39	10310.06
613.54	10176.65
613.69	9839.61
613.85	9898.13
614.00	9839.61
614.15	9757.69
614.31	9472.15
614.46	9441.72
614.62	8901.06
614.77	8692.75
614.92	8065.49
615.08	7461.63
615.23	6988.84
615.38	6347.53
615.54	5891.13
615.69	5280.25
615.84	4908.10
616.00	4472.76
616.15	4229.35
616.30	4072.53
616.46	3655.92
616.61	3552.93
616.76	3426.54
616.92	3178.45
617.07	3124.62
617.22	2813.32
617.37	2764.17
617.53	2628.42
617.68	2539.48
617.83	2427.14
617.99	2410.75
618.14	2396.71
618.29	2300.75
618.45	2214.15
618.60	2249.25
618.75	2008.18
618.90	1989.46
619.06	2057.33
619.21	2204.78
619.36	2155.63
619.51	2094.78
619.67	2022.22
619.82	2092.44
619.97	2223.51
620.12	2094.78
620.28	2335.85
620.43	2326.49
620.58	2340.54
620.73	2190.74
620.89	2242.23
621.04	2202.44
621.19	2244.57
621.34	2291.38
621.49	2235.21
621.65	2263.30
621.80	2132.23
621.95	2120.53
622.10	2148.61
622.25	2132.23
622.41	2076.06
622.56	2354.58
622.71	2326.49
622.86	2270.32
623.01	2399.05
623.16	2429.48
623.32	2331.17
623.47	2530.12
623.62	2389.69
623.77	2452.88
623.92	2401.39
624.07	2345.22
624.23	2429.48
624.38	2417.77
624.53	2490.33
624.68	2417.77
624.83	2478.63
624.98	2452.88
625.13	2410.75
625.29	2616.72
625.44	2504.37
625.59	2448.20
625.74	2466.92
625.89	2607.36
626.04	2499.69
626.19	2420.11
626.34	2509.05
626.49	2518.42
626.65	2396.71
626.80	2445.86
626.95	2312.45
627.10	2373.30
627.25	2319.47
627.40	2298.41
627.55	2349.90
627.70	2282.02
627.85	2200.10
628.00	2169.68
628.15	2195.42
628.30	2211.81
628.45	2071.37
628.60	2300.75
628.76	2200.10
628.91	2237.55
629.06	2296.07
629.21	2380.32
629.36	2328.83
629.51	2361.60
629.66	2534.80
629.81	2722.04
629.96	2988.86
630.11	3178.45
630.26	3606.77
630.41	3857.20
630.56	4224.67
630.71	4514.89
630.86	4638.94
631.01	4592.13
631.16	4126.36
631.31	3777.62
631.46	3236.96
631.61	2684.59
631.76	2352.24
631.91	1975.41
632.06	1631.35
632.21	1563.48
632.36	1273.25
632.51	1165.59
632.66	1102.39
632.81	1071.97
632.96	1118.78
633.10	954.94
633.25	938.55
633.40	840.25
633.55	819.19
633.70	816.85
633.85	826.21
634.00	713.86
634.15	734.93
634.30	664.71
634.45	641.31
634.60	688.12
634.75	688.12
634.90	648.33
635.05	678.76
635.19	580.45
635.34	669.39
635.49	587.47
635.64	681.10
635.79	704.50
635.94	662.37
636.09	737.27
636.24	634.29
636.39	552.37
636.53	608.54
636.68	528.96
636.83	599.18
636.98	683.44
637.13	564.07
637.28	552.37
637.43	641.31
637.57	552.37
637.72	603.86
637.87	465.77
638.02	512.58
638.17	493.85
638.32	580.45
638.46	564.07
638.61	571.09
638.76	545.34
638.91	521.94
639.06	449.38
639.20	550.03
639.35	521.94
639.50	458.74
639.65	503.22
639.80	442.36
639.94	512.58
640.09	486.83
640.24	475.13
640.39	519.60
640.54	442.36
640.68	470.45
640.83	512.58
640.98	425.98
641.13	430.66
641.27	444.70
641.42	500.87
641.57	447.04
641.72	407.25
641.86	507.90
642.01	482.15
642.16	510.24
642.31	449.38
642.45	449.38
642.60	465.77
642.75	521.94
642.90	540.66
643.04	435.34
643.19	526.62
643.34	454.06
643.48	512.58
643.63	477.47
643.78	430.66
643.93	514.92
644.07	468.11
644.22	423.64
644.37	447.04
644.51	496.19
644.66	472.79
644.81	479.81
644.95	500.87
645.10	477.47
645.25	440.02
645.39	533.64
645.54	477.47
645.69	468.11
645.83	433.00
645.98	510.24
646.13	428.32
646.27	477.47
646.42	482.15
646.57	411.93
646.71	505.56
646.86	468.11
647.00	484.49
647.15	437.68
647.30	411.93
647.44	447.04
647.59	442.36
647.74	397.89
647.88	444.70
648.03	451.72
648.17	428.32
648.32	428.32
648.47	484.49
648.61	535.98
648.76	540.66
648.90	496.19
649.05	559.39
649.20	559.39
649.34	566.41
649.49	535.98
649.63	702.16
649.78	840.25
649.92	940.90
650.07	1172.61
650.21	1256.87
650.36	1392.62
650.51	1348.15
650.65	1270.91
650.80	1109.41
650.94	1069.62
651.09	1004.09
651.23	889.40
651.38	683.44
651.52	697.48
651.67	603.86
651.81	599.18
651.96	594.50
652.10	564.07
652.25	606.20
652.39	561.73
652.54	643.65
652.68	655.35
652.83	718.54
652.97	718.54
653.12	713.86
653.26	730.25
653.41	683.44
653.55	624.92
653.70	592.16
653.84	503.22
653.99	491.51
654.13	493.85
654.27	468.11
654.42	442.36
654.56	458.74
654.71	505.56
654.85	454.06
655.00	442.36
655.14	444.70
655.29	465.77
655.43	514.92
655.57	348.74
655.72	435.34
655.86	416.62
656.01	421.30
656.15	428.32
656.30	465.77
656.44	414.27
656.58	367.46
656.73	407.25
656.87	472.79
657.01	440.02
657.16	456.40
657.30	517.26
657.45	498.53
657.59	528.96
657.73	559.39
657.88	493.85
658.02	624.92
658.16	418.96
658.31	479.81
658.45	440.02
658.60	411.93
658.74	407.25
658.88	393.21
659.03	304.27
659.17	381.51
659.31	332.36
659.46	334.70
659.60	402.57
659.74	383.85
659.89	301.93
660.03	397.89
660.17	425.98
660.32	367.46
660.46	337.04
660.60	372.15
660.74	402.57
660.89	353.42
661.03	332.36
661.17	372.15
661.32	402.57
661.46	435.34
661.60	465.77
661.74	624.92
661.89	713.86
662.03	765.36
662.17	798.12
662.31	882.38
662.46	844.93
662.60	779.40
662.74	720.88
662.88	641.31
663.03	521.94
663.17	477.47
663.31	521.94
663.45	386.19
663.60	479.81
663.74	493.85
663.88	390.87
664.02	393.21
664.17	372.15
664.31	337.04
664.45	442.36
664.59	423.64
664.73	407.25
664.88	369.80
665.02	372.15
665.16	337.04
665.30	423.64
665.44	348.74
665.59	383.85
665.73	348.74
665.87	330.02
666.01	318.31
666.15	372.15
666.29	313.63
666.44	360.44
666.58	428.32
666.72	283.20
666.86	337.04
667.00	393.21
667.14	280.86
667.28	320.65
667.43	299.59
667.57	322.99
667.71	283.20
667.85	330.02
667.99	287.89
668.13	248.10
668.27	339.38
668.41	355.76
668.56	222.35
668.70	341.72
668.84	271.50
668.98	379.17
669.12	245.76
669.26	318.31
669.40	397.89
669.54	325.33
669.68	313.63
669.82	264.48
669.96	285.55
670.10	257.46
670.25	285.55
670.39	266.82
670.53	348.74
670.67	334.70
670.81	327.68
670.95	334.70
671.09	320.65
671.23	245.76
671.37	283.20
671.51	376.83
671.65	397.89
671.79	297.25
671.93	290.23
672.07	414.27
672.21	276.18
672.35	191.92
672.49	203.63
672.63	273.84
672.77	306.61
672.91	306.61
673.05	292.57
673.19	245.76
673.33	301.93
673.47	337.04
673.61	266.82
673.75	290.23
673.89	205.97
674.03	348.74
674.17	269.16
674.31	262.14
674.45	266.82
674.59	346.40
674.73	290.23
674.87	266.82
675.01	315.97
675.15	236.39
675.29	271.50
675.43	313.63
675.56	273.84
675.70	318.31
675.84	175.54
675.98	257.46
676.12	215.33
676.26	299.59
676.40	189.58
676.54	215.33
676.68	212.99
676.82	344.06
676.96	283.20
677.10	313.63
677.23	308.95
677.37	201.29
677.51	280.86
677.65	271.50
677.79	276.18
677.93	198.95
678.07	280.86
678.21	182.56
678.34	276.18
678.48	245.76
678.62	224.69
678.76	210.65
678.90	159.16
679.04	271.50
679.18	194.26
679.31	306.61
679.45	236.39
679.59	315.97
679.73	238.73
679.87	259.80
680.00	257.46
680.14	273.84
680.28	266.82
680.42	222.35
680.56	241.08
680.70	248.10
680.83	290.23
680.97	222.35
681.11	220.01
681.25	271.50
681.39	227.03
681.52	271.50
681.66	315.97
681.80	280.86
681.94	255.12
682.07	170.86
682.21	196.60
682.35	154.48
682.49	177.88
682.62	266.82
682.76	250.44
682.90	276.18
683.04	250.44
683.17	285.55
683.31	245.76
683.45	287.89
683.59	252.78
683.72	198.95
683.86	198.95
684.00	215.33
684.13	283.20
684.27	173.20
684.41	276.18
684.55	299.59
684.68	238.73
684.82	210.65
684.96	201.29
685.09	252.78
685.23	306.61
685.37	208.31
685.50	318.31
685.64	257.46
685.78	208.31
685.91	266.82
686.05	297.25
686.19	339.38
686.32	276.18
686.46	306.61
686.60	320.65
686.73	334.70
686.87	383.85
687.01	351.08
687.14	383.85
687.28	461.09
687.42	547.69
687.55	458.74
687.69	477.47
687.82	482.15
687.96	440.02
688.10	461.09
688.23	440.02
688.37	514.92
688.50	404.91
688.64	327.68
688.78	287.89
688.91	332.36
689.05	243.42
689.18	250.44
689.32	346.40
689.46	283.20
689.59	266.82
689.73	173.20
689.86	227.03
690.00	166.18
690.13	248.10
690.27	227.03
690.41	231.71
690.54	257.46
690.68	301.93
690.81	243.42
690.95	196.60
691.08	187.24
691.22	210.65
691.35	177.88
691.49	152.13
691.62	236.39
691.76	156.82
691.89	196.60
692.03	255.12
692.16	191.92
692.30	220.01
692.43	184.90
692.57	203.63
692.70	241.08
692.84	299.59
692.97	198.95
693.11	273.84
693.24	262.14
693.38	318.31
693.51	259.80
693.65	344.06
693.78	339.38
693.92	379.17
694.05	334.70
694.19	318.31
694.32	287.89
694.45	212.99
694.59	166.18
694.72	262.14
694.86	241.08
694.99	196.60
695.13	215.33
695.26	149.79
695.39	161.50
695.53	231.71
695.66	198.95
695.80	140.43
695.93	154.48
696.07	250.44
696.20	215.33
696.33	154.48
696.47	135.75
696.60	217.67
696.73	161.50
696.87	152.13
697.00	133.41
697.14	170.86
697.27	135.75
697.40	196.60
697.54	149.79
697.67	163.84
697.80	248.10
697.94	159.16
698.07	156.82
698.21	107.66
698.34	229.37
698.47	149.79
698.61	135.75
698.74	91.28
698.87	147.45
699.01	131.07
699.14	156.82
699.27	217.67
699.40	231.71
699.54	51.49
699.67	154.48
699.80	248.10
699.94	119.37
700.07	128.73
700.20	119.37
700.34	238.73
700.47	147.45
700.60	180.22
700.73	124.05
700.87	210.65
701.00	152.13
701.13	145.11
701.26	168.52
701.40	133.41
701.53	154.48
701.66	138.09
701.79	184.90
701.93	163.84
702.06	220.01
702.19	128.73
702.32	198.95
702.46	177.88
702.59	93.62
702.72	168.52
702.85	187.24
702.99	205.97
703.12	191.92
703.25	142.77
703.38	156.82
703.51	243.42
703.65	212.99
703.78	194.26
703.91	177.88
704.04	177.88
704.17	159.16
704.31	180.22
704.44	224.69
704.57	220.01
704.70	194.26
704.83	262.14
704.96	196.60
705.10	238.73
705.23	241.08
>>>>>End Processed Spectral Data<<<<<
