SpectraSuite Data File
++++++++++++++++++++++++++++++++++++
Date: Fri Oct 04 11:41:56 GMT-05:00 2013
User: price-jones
Dark Spectrum Present: No
Reference Spectrum Present: No
Number of Sampled Component Spectra: 1
Spectrometers: USB2+H05261
Integration Time (usec): 100000 (USB2+H05261)
Spectra Averaged: 1 (USB2+H05261)
Boxcar Smoothing: 0 (USB2+H05261)
Correct for Electrical Dark: No (USB2+H05261)
Strobe/Lamp Enabled: No (USB2+H05261)
Correct for Detector Non-linearity: No (USB2+H05261)
Correct for Stray Light: No (USB2+H05261)
Number of Pixels in Processed Spectrum: 2048
>>>>>Begin Processed Spectral Data<<<<<
365.73	42.13
365.92	42.13
366.12	42.13
366.32	30.43
366.52	0.00
366.72	0.00
366.91	0.00
367.11	0.00
367.31	0.00
367.51	7.02
367.70	0.00
367.90	0.00
368.10	0.00
368.30	0.00
368.49	0.00
368.69	0.00
368.89	0.00
369.09	0.00
369.28	0.00
369.48	0.00
369.68	0.00
369.87	0.00
370.07	0.00
370.27	0.00
370.47	37.45
370.66	39.79
370.86	74.90
371.06	77.24
371.25	72.56
371.45	44.47
371.65	74.90
371.84	44.47
372.04	65.54
372.24	138.09
372.44	60.85
372.63	107.66
372.83	114.69
373.03	102.98
373.22	56.17
373.42	117.03
373.62	128.73
373.81	168.52
374.01	121.71
374.21	201.29
374.40	86.60
374.60	177.88
374.79	145.11
374.99	105.32
375.19	93.62
375.38	177.88
375.58	105.32
375.78	149.79
375.97	175.54
376.17	175.54
376.37	93.62
376.56	100.64
376.76	138.09
376.95	79.58
377.15	121.71
377.35	138.09
377.54	110.01
377.74	133.41
377.93	93.62
378.13	173.20
378.33	187.24
378.52	159.16
378.72	107.66
378.91	105.32
379.11	88.94
379.31	98.30
379.50	135.75
379.70	135.75
379.89	98.30
380.09	86.60
380.28	126.39
380.48	184.90
380.68	126.39
380.87	102.98
381.07	119.37
381.26	138.09
381.46	86.60
381.65	138.09
381.85	112.35
382.04	102.98
382.24	112.35
382.43	110.01
382.63	95.96
382.83	126.39
383.02	161.50
383.22	133.41
383.41	119.37
383.61	107.66
383.80	100.64
384.00	114.69
384.19	149.79
384.39	184.90
384.58	88.94
384.78	110.01
384.97	166.18
385.17	126.39
385.36	142.77
385.56	112.35
385.75	95.96
385.95	74.90
386.14	180.22
386.34	107.66
386.53	117.03
386.72	46.81
386.92	191.92
387.11	126.39
387.31	110.01
387.50	154.48
387.70	72.56
387.89	133.41
388.09	35.11
388.28	86.60
388.48	100.64
388.67	117.03
388.86	156.82
389.06	121.71
389.25	102.98
389.45	124.05
389.64	124.05
389.84	175.54
390.03	140.43
390.22	79.58
390.42	67.88
390.61	100.64
390.81	149.79
391.00	138.09
391.19	133.41
391.39	147.45
391.58	145.11
391.78	124.05
391.97	110.01
392.16	119.37
392.36	138.09
392.55	159.16
392.75	114.69
392.94	145.11
393.13	184.90
393.33	102.98
393.52	135.75
393.71	177.88
393.91	182.56
394.10	168.52
394.29	72.56
394.49	63.19
394.68	121.71
394.88	121.71
395.07	215.33
395.26	154.48
395.46	110.01
395.65	128.73
395.84	77.24
396.04	156.82
396.23	107.66
396.42	126.39
396.62	105.32
396.81	124.05
397.00	124.05
397.19	110.01
397.39	131.07
397.58	168.52
397.77	222.35
397.97	138.09
398.16	140.43
398.35	100.64
398.55	124.05
398.74	215.33
398.93	156.82
399.12	140.43
399.32	163.84
399.51	170.86
399.70	182.56
399.90	220.01
400.09	77.24
400.28	201.29
400.47	156.82
400.67	154.48
400.86	175.54
401.05	177.88
401.24	210.65
401.44	98.30
401.63	131.07
401.82	156.82
402.01	114.69
402.21	184.90
402.40	138.09
402.59	163.84
402.78	182.56
402.97	205.97
403.17	224.69
403.36	257.46
403.55	276.18
403.74	613.22
403.93	1830.30
404.13	4278.50
404.32	5401.96
404.51	4540.64
404.70	2670.55
404.89	1022.81
405.09	428.32
405.28	262.14
405.47	168.52
405.66	187.24
405.85	198.95
406.05	215.33
406.24	182.56
406.43	215.33
406.62	227.03
406.81	271.50
407.00	262.14
407.20	510.24
407.39	751.31
407.58	798.12
407.77	552.37
407.96	306.61
408.15	198.95
408.34	189.58
408.54	191.92
408.73	227.03
408.92	168.52
409.11	187.24
409.30	278.52
409.49	114.69
409.68	147.45
409.87	138.09
410.07	149.79
410.26	170.86
410.45	238.73
410.64	142.77
410.83	131.07
411.02	133.41
411.21	147.45
411.40	102.98
411.59	163.84
411.78	187.24
411.98	238.73
412.17	145.11
412.36	163.84
412.55	135.75
412.74	201.29
412.93	189.58
413.12	154.48
413.31	205.97
413.50	180.22
413.69	166.18
413.88	224.69
414.07	203.63
414.26	205.97
414.45	86.60
414.64	205.97
414.83	227.03
415.02	191.92
415.22	145.11
415.41	315.97
415.60	208.31
415.79	205.97
415.98	262.14
416.17	191.92
416.36	210.65
416.55	243.42
416.74	142.77
416.93	262.14
417.12	215.33
417.31	147.45
417.50	147.45
417.69	248.10
417.88	241.08
418.07	264.48
418.26	191.92
418.45	227.03
418.64	285.55
418.83	205.97
419.02	248.10
419.21	220.01
419.39	306.61
419.58	210.65
419.77	245.76
419.96	304.27
420.15	234.05
420.34	217.67
420.53	262.14
420.72	271.50
420.91	276.18
421.10	217.67
421.29	250.44
421.48	259.80
421.67	320.65
421.86	255.12
422.05	283.20
422.24	227.03
422.43	297.25
422.61	278.52
422.80	266.82
422.99	215.33
423.18	269.16
423.37	292.57
423.56	306.61
423.75	299.59
423.94	250.44
424.13	250.44
424.32	224.69
424.50	250.44
424.69	287.89
424.88	313.63
425.07	255.12
425.26	224.69
425.45	381.51
425.64	327.68
425.83	337.04
426.01	351.08
426.20	311.29
426.39	243.42
426.58	290.23
426.77	278.52
426.96	243.42
427.15	308.95
427.33	330.02
427.52	327.68
427.71	330.02
427.90	313.63
428.09	318.31
428.28	271.50
428.46	283.20
428.65	315.97
428.84	379.17
429.03	325.33
429.22	297.25
429.40	234.05
429.59	280.86
429.78	430.66
429.97	369.80
430.16	383.85
430.34	325.33
430.53	381.51
430.72	308.95
430.91	308.95
431.10	262.14
431.28	318.31
431.47	348.74
431.66	367.46
431.85	322.99
432.03	327.68
432.22	362.78
432.41	381.51
432.60	390.87
432.79	355.76
432.97	400.23
433.16	395.55
433.35	463.43
433.54	491.51
433.72	437.68
433.91	566.41
434.10	620.24
434.28	669.39
434.47	823.87
434.66	868.34
434.85	1093.03
435.03	3045.04
435.22	11590.33
435.41	25043.73
435.59	23901.55
435.78	15122.20
435.97	7470.99
436.16	2773.53
436.34	1029.84
436.53	662.37
436.72	585.13
436.90	444.70
437.09	465.77
437.28	440.02
437.46	486.83
437.65	435.34
437.84	421.30
438.02	435.34
438.21	425.98
438.40	414.27
438.58	379.17
438.77	418.96
438.96	353.42
439.14	374.49
439.33	414.27
439.52	390.87
439.70	379.17
439.89	388.53
440.08	414.27
440.26	346.40
440.45	369.80
440.63	414.27
440.82	365.12
441.01	372.15
441.19	433.00
441.38	433.00
441.57	418.96
441.75	444.70
441.94	437.68
442.12	514.92
442.31	442.36
442.50	479.81
442.68	339.38
442.87	339.38
443.05	367.46
443.24	379.17
443.43	344.06
443.61	362.78
443.80	411.93
443.98	449.38
444.17	428.32
444.35	440.02
444.54	360.44
444.73	346.40
444.91	470.45
445.10	425.98
445.28	388.53
445.47	428.32
445.65	308.95
445.84	388.53
446.02	404.91
446.21	444.70
446.39	440.02
446.58	423.64
446.77	414.27
446.95	353.42
447.14	339.38
447.32	400.23
447.51	360.44
447.69	411.93
447.88	402.57
448.06	451.72
448.25	409.59
448.43	362.78
448.62	358.10
448.80	393.21
448.99	358.10
449.17	367.46
449.36	322.99
449.54	430.66
449.73	320.65
449.91	416.62
450.10	393.21
450.28	411.93
450.46	430.66
450.65	318.31
450.83	367.46
451.02	421.30
451.20	409.59
451.39	407.25
451.57	400.23
451.76	407.25
451.94	381.51
452.13	388.53
452.31	407.25
452.49	376.83
452.68	315.97
452.86	437.68
453.05	362.78
453.23	411.93
453.42	365.12
453.60	407.25
453.78	423.64
453.97	355.76
454.15	278.52
454.34	318.31
454.52	334.70
454.70	339.38
454.89	458.74
455.07	428.32
455.26	397.89
455.44	411.93
455.62	409.59
455.81	430.66
455.99	465.77
456.17	341.72
456.36	360.44
456.54	404.91
456.73	285.55
456.91	416.62
457.09	414.27
457.28	348.74
457.46	313.63
457.64	341.72
457.83	435.34
458.01	388.53
458.19	397.89
458.38	325.33
458.56	390.87
458.74	299.59
458.93	409.59
459.11	376.83
459.29	250.44
459.48	341.72
459.66	418.96
459.84	320.65
460.03	407.25
460.21	404.91
460.39	407.25
460.57	409.59
460.76	383.85
460.94	402.57
461.12	440.02
461.31	388.53
461.49	390.87
461.67	301.93
461.85	365.12
462.04	348.74
462.22	842.59
462.40	351.08
462.59	423.64
462.77	388.53
462.95	397.89
463.13	411.93
463.32	294.91
463.50	388.53
463.68	358.10
463.86	409.59
464.05	404.91
464.23	468.11
464.41	372.15
464.59	367.46
464.78	362.78
464.96	440.02
465.14	367.46
465.32	383.85
465.50	341.72
465.69	416.62
465.87	353.42
466.05	388.53
466.23	311.29
466.41	365.12
466.60	369.80
466.78	433.00
466.96	397.89
467.14	463.43
467.32	346.40
467.51	414.27
467.69	374.49
467.87	433.00
468.05	379.17
468.23	278.52
468.41	395.55
468.60	374.49
468.78	327.68
468.96	433.00
469.14	325.33
469.32	346.40
469.50	325.33
469.69	383.85
469.87	454.06
470.05	386.19
470.23	292.57
470.41	332.36
470.59	351.08
470.77	379.17
470.95	367.46
471.14	379.17
471.32	428.32
471.50	402.57
471.68	290.23
471.86	372.15
472.04	362.78
472.22	355.76
472.40	315.97
472.58	353.42
472.77	355.76
472.95	318.31
473.13	444.70
473.31	386.19
473.49	383.85
473.67	327.68
473.85	383.85
474.03	355.76
474.21	402.57
474.39	418.96
474.57	344.06
474.75	393.21
474.93	313.63
475.12	315.97
475.30	353.42
475.48	383.85
475.66	397.89
475.84	360.44
476.02	339.38
476.20	332.36
476.38	362.78
476.56	465.77
476.74	355.76
476.92	358.10
477.10	346.40
477.28	433.00
477.46	407.25
477.64	440.02
477.82	416.62
478.00	454.06
478.18	500.87
478.36	411.93
478.54	454.06
478.72	418.96
478.90	454.06
479.08	447.04
479.26	463.43
479.44	503.22
479.62	456.40
479.80	479.81
479.98	451.72
480.16	430.66
480.34	425.98
480.52	507.90
480.70	517.26
480.88	552.37
481.06	533.64
481.24	603.86
481.41	594.50
481.59	641.31
481.77	723.23
481.95	732.59
482.13	840.25
482.31	856.64
482.49	1006.43
482.67	880.04
482.85	1011.11
483.03	1041.54
483.21	1048.56
483.39	1245.16
483.57	1324.74
483.74	1416.02
483.92	1355.17
484.10	1413.68
484.28	1654.76
484.46	1703.91
484.64	1776.47
484.82	1764.76
485.00	1905.20
485.18	2015.20
485.35	2160.31
485.53	2132.23
485.71	2345.22
485.89	2347.56
486.07	2377.98
486.25	2490.33
486.43	2560.55
486.61	2588.63
486.78	2422.45
486.96	2403.73
487.14	2441.18
487.32	2443.52
487.50	2394.37
487.68	2490.33
487.85	2464.58
488.03	2363.94
488.21	2525.44
488.39	2272.66
488.57	2293.72
488.75	2195.42
488.92	2307.77
489.10	2132.23
489.28	2047.97
489.46	2008.18
489.64	2026.90
489.81	1923.92
489.99	1994.14
490.17	1956.69
490.35	1909.88
490.53	2010.52
490.70	1788.17
490.88	1888.81
491.06	2085.42
491.24	2017.54
491.41	2062.01
491.59	1919.24
491.77	1881.79
491.95	1881.79
492.13	1682.85
492.30	1757.74
492.48	1736.68
492.66	1619.65
492.84	1668.80
493.01	1689.87
493.19	1584.54
493.37	1619.65
493.54	1547.09
493.72	1570.50
493.90	1540.07
494.08	1540.07
494.25	1526.03
494.43	1467.52
494.61	1394.96
494.79	1509.65
494.96	1357.51
495.14	1399.64
495.32	1411.34
495.49	1299.00
495.67	1301.34
495.85	1310.70
496.02	1268.57
496.20	1313.04
496.38	1299.00
496.55	1146.86
496.73	1235.80
496.91	1252.19
497.09	1181.97
497.26	1107.07
497.44	1170.27
497.62	1144.52
497.79	1111.75
497.97	1081.33
498.14	1057.92
498.32	1027.50
498.50	961.96
498.67	985.37
498.85	997.07
499.03	1006.43
499.20	894.08
499.38	898.77
499.56	933.87
499.73	912.81
499.91	901.11
500.08	858.98
500.26	884.72
500.44	805.14
500.61	821.53
500.79	709.18
500.97	802.80
501.14	730.25
501.32	748.97
501.49	695.14
501.67	692.80
501.84	650.67
502.02	594.50
502.20	760.67
502.37	662.37
502.55	519.60
502.72	526.62
502.90	620.24
503.07	631.94
503.25	535.98
503.43	547.69
503.60	552.37
503.78	428.32
503.95	507.90
504.13	543.00
504.30	540.66
504.48	589.82
504.65	514.92
504.83	498.53
505.01	456.40
505.18	479.81
505.36	416.62
505.53	447.04
505.71	486.83
505.88	517.26
506.06	447.04
506.23	500.87
506.41	461.09
506.58	451.72
506.76	461.09
506.93	454.06
507.11	386.19
507.28	381.51
507.46	411.93
507.63	330.02
507.81	374.49
507.98	440.02
508.16	400.23
508.33	440.02
508.50	454.06
508.68	425.98
508.85	514.92
509.03	486.83
509.20	505.56
509.38	433.00
509.55	367.46
509.73	449.38
509.90	416.62
510.08	414.27
510.25	433.00
510.42	428.32
510.60	479.81
510.77	386.19
510.95	456.40
511.12	461.09
511.30	418.96
511.47	503.22
511.64	428.32
511.82	362.78
511.99	346.40
512.17	374.49
512.34	346.40
512.51	400.23
512.69	339.38
512.86	482.15
513.04	376.83
513.21	306.61
513.38	351.08
513.56	344.06
513.73	299.59
513.90	283.20
514.08	306.61
514.25	339.38
514.43	428.32
514.60	341.72
514.77	304.27
514.95	407.25
515.12	344.06
515.29	397.89
515.47	315.97
515.64	325.33
515.81	320.65
515.99	341.72
516.16	252.78
516.33	421.30
516.51	362.78
516.68	400.23
516.85	287.89
517.03	299.59
517.20	355.76
517.37	332.36
517.54	315.97
517.72	344.06
517.89	280.86
518.06	304.27
518.24	470.45
518.41	416.62
518.58	334.70
518.75	318.31
518.93	388.53
519.10	355.76
519.27	330.02
519.45	271.50
519.62	311.29
519.79	348.74
519.96	299.59
520.14	337.04
520.31	341.72
520.48	259.80
520.65	332.36
520.83	306.61
521.00	259.80
521.17	358.10
521.34	327.68
521.52	304.27
521.69	346.40
521.86	208.31
522.03	327.68
522.20	318.31
522.38	327.68
522.55	315.97
522.72	339.38
522.89	353.42
523.07	395.55
523.24	381.51
523.41	360.44
523.58	372.15
523.75	355.76
523.92	301.93
524.10	337.04
524.27	355.76
524.44	362.78
524.61	414.27
524.78	339.38
524.96	388.53
525.13	306.61
525.30	411.93
525.47	433.00
525.64	362.78
525.81	400.23
525.98	346.40
526.16	376.83
526.33	362.78
526.50	351.08
526.67	393.21
526.84	404.91
527.01	390.87
527.18	454.06
527.36	383.85
527.53	341.72
527.70	468.11
527.87	456.40
528.04	475.13
528.21	411.93
528.38	407.25
528.55	425.98
528.72	430.66
528.89	517.26
529.07	365.12
529.24	430.66
529.41	491.51
529.58	390.87
529.75	428.32
529.92	493.85
530.09	528.96
530.26	454.06
530.43	528.96
530.60	491.51
530.77	521.94
530.94	521.94
531.11	470.45
531.28	489.17
531.46	547.69
531.63	566.41
531.80	599.18
531.97	533.64
532.14	660.03
532.31	770.04
532.48	994.73
532.65	922.17
532.82	1043.88
532.99	1378.58
533.16	1451.13
533.33	1556.46
533.50	1371.55
533.67	1184.31
533.84	1104.73
534.01	1050.90
534.18	929.19
534.35	887.06
534.52	856.64
534.69	983.02
534.86	945.58
535.03	1086.01
535.20	1034.52
535.37	1116.44
535.54	1212.40
535.71	1177.29
535.88	1280.27
536.05	1259.21
536.22	1483.90
536.38	1565.82
536.55	1797.53
536.72	1916.90
536.89	2040.95
537.06	2282.02
537.23	2609.70
537.40	2740.77
537.57	2974.82
537.74	3267.39
537.91	3332.92
538.08	3293.13
538.25	3421.86
538.42	3288.45
538.59	3613.79
538.75	3520.17
538.92	3824.44
539.09	4400.21
539.26	4676.39
539.43	5263.86
539.60	5909.85
539.77	6637.76
539.94	7417.16
540.11	8119.32
540.28	8805.10
540.44	9638.33
540.61	10726.68
540.78	12175.47
540.95	15103.48
541.12	18150.85
541.29	19927.32
541.46	20879.92
541.62	20418.83
541.79	19866.47
541.96	18321.71
542.13	16891.65
542.30	15550.52
542.47	14764.10
542.63	14139.18
542.80	13717.88
542.97	13493.19
543.14	13448.72
543.31	13429.99
543.48	13572.77
543.64	13605.53
543.81	13415.95
543.98	14073.64
544.15	14066.62
544.32	14083.00
544.48	13958.96
544.65	13605.53
544.82	13628.94
544.99	13884.06
545.16	13944.91
545.32	15023.90
545.49	25942.50
545.66	48409.30
545.83	54152.97
546.00	46569.64
546.16	31662.77
546.33	23105.77
546.50	17371.46
546.67	13919.17
546.83	12596.76
547.00	11946.09
547.17	11288.40
547.34	10902.22
547.50	10607.31
547.67	10066.64
547.84	9767.06
548.00	9490.87
548.17	9029.79
548.34	8800.41
548.51	8528.91
548.67	8131.02
548.84	7588.02
549.01	7253.32
549.18	7150.34
549.34	6864.79
549.51	6642.44
549.68	6136.88
549.84	5907.51
550.01	5643.03
550.18	5593.88
550.34	5284.93
550.51	4873.00
550.68	4734.90
550.84	4545.32
551.01	4299.56
551.18	4086.58
551.34	3953.16
551.51	3789.33
551.68	3672.30
551.84	3431.23
552.01	3309.52
552.18	3141.00
552.34	3173.77
552.51	2881.20
552.68	2881.20
552.84	2750.13
553.01	2698.64
553.18	2504.37
553.34	2429.48
553.51	2413.09
553.67	2377.98
553.84	2188.40
554.01	2143.93
554.17	1982.43
554.34	1823.28
554.51	1739.02
554.67	1624.33
554.84	1497.94
555.00	1516.67
555.17	1474.54
555.33	1444.11
555.50	1364.53
555.67	1294.32
555.83	1240.48
556.00	1254.53
556.16	1242.82
556.33	1071.97
556.50	1071.97
556.66	1018.13
556.83	912.81
556.99	1088.35
557.16	926.85
557.32	884.72
557.49	816.85
557.65	849.61
557.82	835.57
557.98	863.66
558.15	753.65
558.32	755.99
558.48	763.01
558.65	725.57
558.81	774.72
558.98	681.10
559.14	695.14
559.31	788.76
559.47	723.23
559.64	734.93
559.80	755.99
559.97	683.44
560.13	737.27
560.30	641.31
560.46	683.44
560.63	645.99
560.79	664.71
560.96	662.37
561.12	606.20
561.29	636.63
561.45	566.41
561.61	603.86
561.78	800.46
561.94	692.80
562.11	662.37
562.27	582.79
562.44	615.56
562.60	629.60
562.77	620.24
562.93	622.58
563.10	650.67
563.26	575.77
563.42	535.98
563.59	573.43
563.75	592.16
563.92	559.39
564.08	540.66
564.24	650.67
564.41	566.41
564.57	566.41
564.74	571.09
564.90	531.30
565.07	575.77
565.23	573.43
565.39	514.92
565.56	557.05
565.72	472.79
565.88	500.87
566.05	484.49
566.21	510.24
566.38	510.24
566.54	493.85
566.70	512.58
566.87	578.11
567.03	521.94
567.19	500.87
567.36	573.43
567.52	475.13
567.68	507.90
567.85	592.16
568.01	521.94
568.17	535.98
568.34	557.05
568.50	608.54
568.66	535.98
568.83	678.76
568.99	573.43
569.15	524.28
569.32	524.28
569.48	500.87
569.64	519.60
569.81	411.93
569.97	421.30
570.13	507.90
570.30	418.96
570.46	369.80
570.62	454.06
570.78	425.98
570.95	468.11
571.11	468.11
571.27	447.04
571.43	369.80
571.60	456.40
571.76	400.23
571.92	425.98
572.09	416.62
572.25	475.13
572.41	425.98
572.57	484.49
572.74	475.13
572.90	493.85
573.06	397.89
573.22	510.24
573.38	444.70
573.55	475.13
573.71	425.98
573.87	613.22
574.03	475.13
574.20	435.34
574.36	493.85
574.52	594.50
574.68	463.43
574.84	592.16
575.01	554.71
575.17	557.05
575.33	589.82
575.49	610.88
575.65	685.78
575.82	720.88
575.98	770.04
576.14	870.68
576.30	1802.21
576.46	5509.62
576.62	8805.10
576.79	9277.88
576.95	6839.05
577.11	4643.62
577.27	3447.61
577.43	2305.43
577.59	1399.64
577.75	1132.82
577.92	1128.14
578.08	1093.03
578.24	1184.31
578.40	1989.46
578.56	5413.66
578.72	8503.17
578.88	9179.58
579.04	6513.71
579.21	4667.03
579.37	3421.86
579.53	2789.92
579.69	2682.25
579.85	3222.92
580.01	3854.86
580.17	3506.12
580.33	2928.01
580.49	2635.44
580.65	2282.02
580.82	2106.48
580.98	2153.29
581.14	2090.10
581.30	2270.32
581.46	2387.35
581.62	2668.21
581.78	2771.19
581.94	3000.57
582.10	3042.70
582.26	3262.71
582.42	3433.57
582.58	3578.68
582.74	3616.13
582.90	3609.11
583.06	3648.90
583.22	3700.39
583.38	3529.53
583.54	3592.72
583.70	3592.72
583.86	3501.44
584.02	3346.97
584.18	3583.36
584.34	3215.90
584.50	3325.90
584.66	3255.69
584.82	3293.13
584.98	3258.03
585.14	3157.38
585.30	2998.23
585.46	3040.36
585.62	2883.54
585.78	2984.18
585.94	3023.97
586.10	3143.34
586.26	3332.92
586.42	3730.81
586.58	4411.91
586.74	5577.50
586.90	6471.58
587.06	6885.86
587.22	6780.53
587.38	5879.43
587.54	5224.08
587.70	4512.55
587.86	3875.93
588.02	3187.81
588.18	2892.90
588.34	2612.04
588.49	2401.39
588.65	2267.98
588.81	2179.04
588.97	2101.80
589.13	2120.53
589.29	2071.37
589.45	1973.07
589.61	1952.01
589.77	1963.71
589.93	2017.54
590.08	2097.12
590.24	2221.17
590.40	2186.06
590.56	2286.70
590.72	2415.43
590.88	2459.90
591.04	2410.75
591.20	2516.08
591.35	2722.04
591.51	2717.36
591.67	2864.82
591.83	3042.70
591.99	3363.35
592.15	3744.86
592.31	3997.64
592.46	4320.63
592.62	4620.22
592.78	5041.51
592.94	5144.50
593.10	5043.85
593.26	4706.82
593.41	4301.90
593.57	3847.84
593.73	3548.25
593.89	3028.65
594.05	2649.49
594.20	2455.22
594.36	2312.45
594.52	2129.89
594.68	1933.28
594.84	1982.43
594.99	1846.68
595.15	1820.94
595.31	1790.51
595.47	1900.52
595.62	1827.96
595.78	1846.68
595.94	1849.02
596.10	1905.20
596.25	1788.17
596.41	1762.42
596.57	1867.75
596.73	1797.53
596.88	1839.66
597.04	1818.60
597.20	1839.66
597.36	1834.98
597.51	1975.41
597.67	1935.62
597.83	2036.27
597.99	2172.02
598.14	2356.92
598.30	2410.75
598.46	2511.39
598.61	2761.83
598.77	2871.84
598.93	2850.77
599.09	2930.35
599.24	3098.87
599.40	3094.19
599.56	2853.11
599.71	2743.11
599.87	2665.87
600.03	2513.74
600.18	2291.38
600.34	2221.17
600.50	2090.10
600.65	1982.43
600.81	1907.54
600.97	1797.53
601.12	1724.97
601.28	1636.03
601.44	1540.07
601.59	1399.64
601.75	1451.13
601.91	1385.60
602.06	1411.34
602.22	1308.36
602.37	1299.00
602.53	1231.12
602.69	1345.81
602.84	1238.14
603.00	1165.59
603.16	1287.29
603.31	1355.17
603.47	1369.21
603.62	1303.68
603.78	1371.55
603.94	1383.26
604.09	1411.34
604.25	1401.98
604.40	1387.94
604.56	1380.92
604.71	1441.77
604.87	1526.03
605.03	1533.05
605.18	1423.05
605.34	1624.33
605.49	1603.27
605.65	1600.93
605.80	1727.32
605.96	1736.68
606.12	1727.32
606.27	1832.64
606.43	1846.68
606.58	2019.88
606.74	2064.35
606.89	2258.62
607.05	2319.47
607.20	2462.24
607.36	2476.29
607.51	2663.53
607.67	3038.02
607.82	3038.02
607.98	3272.07
608.13	3459.31
608.29	3829.12
608.44	4074.87
608.60	4470.42
608.75	4858.95
608.91	5313.02
609.06	5703.89
609.22	6363.92
609.37	6785.21
609.53	7761.22
609.68	8791.05
609.84	10057.28
609.99	11730.76
610.15	14317.06
610.30	17673.39
610.46	22291.26
610.61	29352.66
610.76	37766.88
610.92	45485.97
611.07	49284.66
611.23	49237.85
611.38	46483.04
611.54	41656.85
611.69	35143.14
611.84	29788.00
612.00	24896.28
612.15	20278.40
612.31	18146.17
612.46	16409.50
612.62	14841.34
612.77	14118.11
612.92	13483.83
613.08	12336.96
613.23	11875.88
613.39	11730.76
613.54	11124.57
613.69	11229.89
613.85	11171.38
614.00	11084.78
614.15	10555.82
614.31	10125.16
614.46	10214.10
614.62	10120.48
614.77	9621.94
614.92	9043.83
615.08	8332.31
615.23	7803.35
615.38	7148.00
615.54	6483.28
615.69	5954.32
615.84	5518.98
616.00	5100.03
616.15	4748.95
616.30	4395.53
616.46	4086.58
616.61	3934.44
616.76	3812.73
616.92	3541.23
617.07	3405.48
617.22	3068.44
617.37	3000.57
617.53	2916.31
617.68	2808.64
617.83	2703.32
617.99	2658.85
618.14	2658.85
618.29	2560.55
618.45	2434.16
618.60	2466.92
618.75	2286.70
618.90	2345.22
619.06	2370.96
619.21	2270.32
619.36	2284.36
619.51	2298.41
619.67	2193.08
619.82	2363.94
619.97	2310.11
620.12	2356.92
620.28	2492.67
620.43	2406.07
620.58	2628.42
620.73	2558.21
620.89	2647.15
621.04	2572.25
621.19	2492.67
621.34	2539.48
621.49	2389.69
621.65	2452.88
621.80	2392.03
621.95	2342.88
622.10	2385.01
622.25	2310.11
622.41	2410.75
622.56	2406.07
622.71	2628.42
622.86	2576.93
623.01	2670.55
623.16	2789.92
623.32	2658.85
623.47	2789.92
623.62	2651.83
623.77	2722.04
623.92	2665.87
624.07	2637.78
624.23	2750.13
624.38	2757.15
624.53	2733.75
624.68	2747.79
624.83	2750.13
624.98	2930.35
625.13	2654.17
625.29	2794.60
625.44	2815.66
625.59	2693.96
625.74	2796.94
625.89	2682.25
626.04	2761.83
626.19	2902.26
626.34	2672.89
626.49	2890.56
626.65	2715.02
626.80	2717.36
626.95	2682.25
627.10	2539.48
627.25	2520.76
627.40	2504.37
627.55	2644.81
627.70	2551.18
627.85	2485.65
628.00	2476.29
628.15	2420.11
628.30	2354.58
628.45	2438.84
628.60	2345.22
628.76	2462.24
628.91	2499.69
629.06	2413.09
629.21	2471.61
629.36	2647.15
629.51	2665.87
629.66	2874.18
629.81	2860.13
629.96	3276.75
630.11	3665.28
630.26	4072.53
630.41	4528.94
630.56	4997.04
630.71	5345.78
630.86	5383.23
631.01	5090.67
631.16	4723.20
631.31	4208.28
631.46	3754.22
631.61	3105.89
631.76	2616.72
631.91	2214.15
632.06	1820.94
632.21	1650.08
632.36	1458.15
632.51	1336.45
632.66	1198.35
632.81	1083.67
632.96	1095.37
633.10	1027.50
633.25	1006.43
633.40	980.68
633.55	882.38
633.70	884.72
633.85	837.91
634.00	791.10
634.15	753.65
634.30	896.43
634.45	791.10
634.60	758.33
634.75	793.44
634.90	772.38
635.05	723.23
635.19	772.38
635.34	678.76
635.49	653.01
635.64	657.69
635.79	592.16
635.94	755.99
636.09	727.91
636.24	697.48
636.39	643.65
636.53	624.92
636.68	620.24
636.83	685.78
636.98	709.18
637.13	613.22
637.28	622.58
637.43	620.24
637.57	653.01
637.72	631.94
637.87	629.60
638.02	641.31
638.17	528.96
638.32	503.22
638.46	524.28
638.61	512.58
638.76	540.66
638.91	540.66
639.06	566.41
639.20	585.13
639.35	512.58
639.50	512.58
639.65	482.15
639.80	477.47
639.94	477.47
640.09	517.26
640.24	557.05
640.39	519.60
640.54	531.30
640.68	498.53
640.83	528.96
640.98	559.39
641.13	496.19
641.27	491.51
641.42	489.17
641.57	592.16
641.72	470.45
641.86	493.85
642.01	505.56
642.16	482.15
642.31	524.28
642.45	613.22
642.60	608.54
642.75	451.72
642.90	716.20
643.04	468.11
643.19	489.17
643.34	531.30
643.48	484.49
643.63	510.24
643.78	538.32
643.93	592.16
644.07	524.28
644.22	528.96
644.37	500.87
644.51	498.53
644.66	486.83
644.81	423.64
644.95	526.62
645.10	475.13
645.25	500.87
645.39	444.70
645.54	559.39
645.69	571.09
645.83	519.60
645.98	589.82
646.13	437.68
646.27	449.38
646.42	468.11
646.57	458.74
646.71	521.94
646.86	454.06
647.00	484.49
647.15	428.32
647.30	470.45
647.44	442.36
647.59	442.36
647.74	477.47
647.88	468.11
648.03	409.59
648.17	454.06
648.32	404.91
648.47	491.51
648.61	435.34
648.76	596.84
648.90	575.77
649.05	557.05
649.20	648.33
649.34	624.92
649.49	744.29
649.63	856.64
649.78	884.72
649.92	1041.54
650.07	1385.60
650.21	1441.77
650.36	1502.62
650.51	1434.75
650.65	1387.94
650.80	1315.38
650.94	1165.59
651.09	922.17
651.23	976.00
651.38	894.08
651.52	833.23
651.67	744.29
651.81	685.78
651.96	657.69
652.10	664.71
652.25	615.56
652.39	716.20
652.54	755.99
652.68	758.33
652.83	795.78
652.97	816.85
653.12	814.51
653.26	748.97
653.41	744.29
653.55	650.67
653.70	617.90
653.84	538.32
653.99	599.18
654.13	510.24
654.27	538.32
654.42	489.17
654.56	528.96
654.71	503.22
654.85	486.83
655.00	503.22
655.14	554.71
655.29	458.74
655.43	472.79
655.57	463.43
655.72	388.53
655.86	533.64
656.01	482.15
656.15	437.68
656.30	510.24
656.44	454.06
656.58	393.21
656.73	451.72
656.87	482.15
657.01	468.11
657.16	543.00
657.30	589.82
657.45	484.49
657.59	545.34
657.73	486.83
657.88	479.81
658.02	648.33
658.16	535.98
658.31	479.81
658.45	421.30
658.60	458.74
658.74	353.42
658.88	407.25
659.03	435.34
659.17	292.57
659.31	351.08
659.46	351.08
659.60	346.40
659.74	400.23
659.89	411.93
660.03	374.49
660.17	418.96
660.32	325.33
660.46	379.17
660.60	397.89
660.74	407.25
660.89	423.64
661.03	402.57
661.17	400.23
661.32	400.23
661.46	489.17
661.60	571.09
661.74	653.01
661.89	704.50
662.03	833.23
662.17	915.15
662.31	866.00
662.46	938.55
662.60	877.70
662.74	807.48
662.88	755.99
663.03	566.41
663.17	545.34
663.31	519.60
663.45	489.17
663.60	482.15
663.74	437.68
663.88	404.91
664.02	449.38
664.17	400.23
664.31	404.91
664.45	390.87
664.59	337.04
664.73	320.65
664.88	346.40
665.02	404.91
665.16	320.65
665.30	407.25
665.44	358.10
665.59	376.83
665.73	400.23
665.87	341.72
666.01	367.46
666.15	362.78
666.29	273.84
666.44	330.02
666.58	437.68
666.72	365.12
666.86	381.51
667.00	428.32
667.14	322.99
667.28	353.42
667.43	330.02
667.57	358.10
667.71	400.23
667.85	440.02
667.99	320.65
668.13	365.12
668.27	353.42
668.41	372.15
668.56	266.82
668.70	376.83
668.84	339.38
668.98	383.85
669.12	301.93
669.26	224.69
669.40	416.62
669.54	444.70
669.68	322.99
669.82	306.61
669.96	346.40
670.10	320.65
670.25	388.53
670.39	355.76
670.53	322.99
670.67	372.15
670.81	325.33
670.95	304.27
671.09	315.97
671.23	327.68
671.37	379.17
671.51	334.70
671.65	381.51
671.79	294.91
671.93	292.57
672.07	334.70
672.21	325.33
672.35	299.59
672.49	327.68
672.63	358.10
672.77	280.86
672.91	273.84
673.05	248.10
673.19	318.31
673.33	301.93
673.47	411.93
673.61	269.16
673.75	259.80
673.89	278.52
674.03	248.10
674.17	264.48
674.31	313.63
674.45	283.20
674.59	299.59
674.73	271.50
674.87	330.02
675.01	393.21
675.15	212.99
675.29	360.44
675.43	290.23
675.56	308.95
675.70	236.39
675.84	269.16
675.98	334.70
676.12	276.18
676.26	241.08
676.40	315.97
676.54	299.59
676.68	301.93
676.82	266.82
676.96	224.69
677.10	220.01
677.23	241.08
677.37	238.73
677.51	241.08
677.65	334.70
677.79	306.61
677.93	306.61
678.07	283.20
678.21	304.27
678.34	212.99
678.48	224.69
678.62	229.37
678.76	231.71
678.90	201.29
679.04	301.93
679.18	196.60
679.31	362.78
679.45	273.84
679.59	308.95
679.73	234.05
679.87	227.03
680.00	269.16
680.14	372.15
680.28	308.95
680.42	294.91
680.56	299.59
680.70	276.18
680.83	372.15
680.97	264.48
681.11	241.08
681.25	332.36
681.39	236.39
681.52	283.20
681.66	269.16
681.80	315.97
681.94	292.57
682.07	264.48
682.21	327.68
682.35	234.05
682.49	222.35
682.62	238.73
682.76	187.24
682.90	266.82
683.04	304.27
683.17	243.42
683.31	184.90
683.45	266.82
683.59	252.78
683.72	306.61
683.86	252.78
684.00	231.71
684.13	285.55
684.27	212.99
684.41	212.99
684.55	301.93
684.68	280.86
684.82	273.84
684.96	262.14
685.09	325.33
685.23	229.37
685.37	187.24
685.50	262.14
685.64	318.31
685.78	290.23
685.91	337.04
686.05	360.44
686.19	332.36
686.32	285.55
686.46	416.62
686.60	315.97
686.73	505.56
686.87	337.04
687.01	362.78
687.14	428.32
687.28	507.90
687.42	524.28
687.55	470.45
687.69	566.41
687.82	528.96
687.96	512.58
688.10	561.73
688.23	465.77
688.37	463.43
688.50	456.40
688.64	512.58
688.78	332.36
688.91	325.33
689.05	301.93
689.18	339.38
689.32	229.37
689.46	231.71
689.59	290.23
689.73	271.50
689.86	236.39
690.00	229.37
690.13	222.35
690.27	231.71
690.41	224.69
690.54	292.57
690.68	264.48
690.81	250.44
690.95	252.78
691.08	227.03
691.22	229.37
691.35	215.33
691.49	152.13
691.62	212.99
691.76	149.79
691.89	156.82
692.03	205.97
692.16	121.71
692.30	208.31
692.43	205.97
692.57	147.45
692.70	124.05
692.84	222.35
692.97	241.08
693.11	287.89
693.24	341.72
693.38	376.83
693.51	411.93
693.65	475.13
693.78	482.15
693.92	383.85
694.05	334.70
694.19	383.85
694.32	283.20
694.45	238.73
694.59	266.82
694.72	245.76
694.86	175.54
694.99	138.09
695.13	166.18
695.26	131.07
695.39	189.58
695.53	250.44
695.66	208.31
695.80	245.76
695.93	255.12
696.07	231.71
696.20	236.39
696.33	220.01
696.47	168.52
696.60	152.13
696.73	217.67
696.87	168.52
697.00	198.95
697.14	182.56
697.27	182.56
697.40	203.63
697.54	168.52
697.67	224.69
697.80	140.43
697.94	177.88
698.07	149.79
698.21	170.86
698.34	166.18
698.47	159.16
698.61	203.63
698.74	234.05
698.87	229.37
699.01	161.50
699.14	194.26
699.27	182.56
699.40	252.78
699.54	203.63
699.67	102.98
699.80	170.86
699.94	210.65
700.07	93.62
700.20	170.86
700.34	117.03
700.47	173.20
700.60	168.52
700.73	152.13
700.87	201.29
701.00	145.11
701.13	121.71
701.26	170.86
701.40	117.03
701.53	138.09
701.66	191.92
701.79	168.52
701.93	142.77
702.06	205.97
702.19	145.11
702.32	224.69
702.46	159.16
702.59	168.52
702.72	147.45
702.85	147.45
702.99	173.20
703.12	229.37
703.25	210.65
703.38	102.98
703.51	255.12
703.65	259.80
703.78	215.33
703.91	250.44
704.04	248.10
704.17	156.82
704.31	201.29
704.44	250.44
704.57	250.44
704.70	212.99
704.83	149.79
704.96	212.99
705.10	283.20
705.23	315.97
>>>>>End Processed Spectral Data<<<<<
