SpectraSuite Data File
++++++++++++++++++++++++++++++++++++
Date: Fri Oct 04 11:42:28 GMT-05:00 2013
User: price-jones
Dark Spectrum Present: No
Reference Spectrum Present: No
Number of Sampled Component Spectra: 1
Spectrometers: USB2+H05261
Integration Time (usec): 100000 (USB2+H05261)
Spectra Averaged: 1 (USB2+H05261)
Boxcar Smoothing: 0 (USB2+H05261)
Correct for Electrical Dark: No (USB2+H05261)
Strobe/Lamp Enabled: No (USB2+H05261)
Correct for Detector Non-linearity: No (USB2+H05261)
Correct for Stray Light: No (USB2+H05261)
Number of Pixels in Processed Spectrum: 2048
>>>>>Begin Processed Spectral Data<<<<<
365.73	135.75
365.92	135.75
366.12	135.75
366.32	0.00
366.52	4.68
366.72	0.00
366.91	0.00
367.11	0.00
367.31	0.00
367.51	0.00
367.70	0.00
367.90	0.00
368.10	0.00
368.30	0.00
368.49	0.00
368.69	4.68
368.89	0.00
369.09	0.00
369.28	0.00
369.48	0.00
369.68	0.00
369.87	0.00
370.07	0.00
370.27	0.00
370.47	0.00
370.66	18.72
370.86	51.49
371.06	93.62
371.25	184.90
371.45	56.17
371.65	135.75
371.84	49.15
372.04	30.43
372.24	60.85
372.44	67.88
372.63	35.11
372.83	124.05
373.03	79.58
373.22	159.16
373.42	91.28
373.62	100.64
373.81	163.84
374.01	196.60
374.21	184.90
374.40	105.32
374.60	124.05
374.79	140.43
374.99	107.66
375.19	126.39
375.38	117.03
375.58	88.94
375.78	133.41
375.97	100.64
376.17	128.73
376.37	119.37
376.56	65.54
376.76	86.60
376.95	95.96
377.15	142.77
377.35	140.43
377.54	46.81
377.74	88.94
377.93	88.94
378.13	102.98
378.33	107.66
378.52	100.64
378.72	149.79
378.91	112.35
379.11	124.05
379.31	117.03
379.50	86.60
379.70	175.54
379.89	72.56
380.09	53.83
380.28	44.47
380.48	191.92
380.68	51.49
380.87	30.43
381.07	88.94
381.26	163.84
381.46	16.38
381.65	119.37
381.85	135.75
382.04	107.66
382.24	100.64
382.43	93.62
382.63	86.60
382.83	98.30
383.02	124.05
383.22	84.26
383.41	49.15
383.61	88.94
383.80	121.71
384.00	44.47
384.19	138.09
384.39	114.69
384.58	114.69
384.78	114.69
384.97	102.98
385.17	95.96
385.36	98.30
385.56	170.86
385.75	133.41
385.95	128.73
386.14	220.01
386.34	147.45
386.53	112.35
386.72	88.94
386.92	152.13
387.11	119.37
387.31	112.35
387.50	126.39
387.70	23.41
387.89	65.54
388.09	11.70
388.28	25.75
388.48	67.88
388.67	215.33
388.86	56.17
389.06	86.60
389.25	121.71
389.45	105.32
389.64	88.94
389.84	189.58
390.03	177.88
390.22	128.73
390.42	131.07
390.61	46.81
390.81	100.64
391.00	93.62
391.19	166.18
391.39	35.11
391.58	142.77
391.78	107.66
391.97	72.56
392.16	131.07
392.36	133.41
392.55	105.32
392.75	163.84
392.94	86.60
393.13	119.37
393.33	100.64
393.52	70.22
393.71	119.37
393.91	107.66
394.10	142.77
394.29	65.54
394.49	154.48
394.68	100.64
394.88	95.96
395.07	63.19
395.26	74.90
395.46	79.58
395.65	145.11
395.84	117.03
396.04	145.11
396.23	102.98
396.42	67.88
396.62	84.26
396.81	105.32
397.00	208.31
397.19	161.50
397.39	81.92
397.58	102.98
397.77	159.16
397.97	126.39
398.16	175.54
398.35	154.48
398.55	138.09
398.74	98.30
398.93	81.92
399.12	110.01
399.32	77.24
399.51	119.37
399.70	81.92
399.90	128.73
400.09	163.84
400.28	58.51
400.47	149.79
400.67	107.66
400.86	98.30
401.05	72.56
401.24	159.16
401.44	180.22
401.63	159.16
401.82	107.66
402.01	86.60
402.21	112.35
402.40	166.18
402.59	168.52
402.78	168.52
402.97	191.92
403.17	131.07
403.36	161.50
403.55	133.41
403.74	229.37
403.93	524.28
404.13	1015.79
404.32	1242.82
404.51	1153.88
404.70	725.57
404.89	306.61
405.09	250.44
405.28	74.90
405.47	194.26
405.66	112.35
405.85	203.63
406.05	117.03
406.24	161.50
406.43	173.20
406.62	138.09
406.81	255.12
407.00	187.24
407.20	189.58
407.39	243.42
407.58	306.61
407.77	238.73
407.96	170.86
408.15	161.50
408.34	119.37
408.54	159.16
408.73	196.60
408.92	205.97
409.11	196.60
409.30	135.75
409.49	154.48
409.68	131.07
409.87	107.66
410.07	0.00
410.26	105.32
410.45	93.62
410.64	142.77
410.83	145.11
411.02	121.71
411.21	156.82
411.40	203.63
411.59	135.75
411.78	184.90
411.98	210.65
412.17	131.07
412.36	110.01
412.55	107.66
412.74	91.28
412.93	170.86
413.12	140.43
413.31	135.75
413.50	173.20
413.69	110.01
413.88	255.12
414.07	102.98
414.26	56.17
414.45	79.58
414.64	182.56
414.83	95.96
415.02	173.20
415.22	95.96
415.41	180.22
415.60	95.96
415.79	166.18
415.98	210.65
416.17	138.09
416.36	70.22
416.55	177.88
416.74	175.54
416.93	163.84
417.12	168.52
417.31	140.43
417.50	135.75
417.69	187.24
417.88	184.90
418.07	126.39
418.26	161.50
418.45	152.13
418.64	220.01
418.83	138.09
419.02	170.86
419.21	159.16
419.39	159.16
419.58	128.73
419.77	105.32
419.96	161.50
420.15	166.18
420.34	58.51
420.53	117.03
420.72	170.86
420.91	203.63
421.10	152.13
421.29	156.82
421.48	201.29
421.67	126.39
421.86	184.90
422.05	107.66
422.24	159.16
422.43	91.28
422.61	60.85
422.80	142.77
422.99	175.54
423.18	138.09
423.37	191.92
423.56	128.73
423.75	177.88
423.94	140.43
424.13	184.90
424.32	205.97
424.50	140.43
424.69	168.52
424.88	222.35
425.07	170.86
425.26	175.54
425.45	182.56
425.64	147.45
425.83	105.32
426.01	154.48
426.20	196.60
426.39	149.79
426.58	145.11
426.77	163.84
426.96	250.44
427.15	168.52
427.33	112.35
427.52	117.03
427.71	191.92
427.90	156.82
428.09	194.26
428.28	128.73
428.46	154.48
428.65	241.08
428.84	224.69
429.03	152.13
429.22	184.90
429.40	189.58
429.59	119.37
429.78	159.16
429.97	163.84
430.16	175.54
430.34	102.98
430.53	222.35
430.72	112.35
430.91	198.95
431.10	220.01
431.28	205.97
431.47	248.10
431.66	215.33
431.85	159.16
432.03	208.31
432.22	224.69
432.41	191.92
432.60	236.39
432.79	189.58
432.97	231.71
433.16	215.33
433.35	243.42
433.54	201.29
433.72	327.68
433.91	210.65
434.10	290.23
434.28	250.44
434.47	299.59
434.66	355.76
434.85	332.36
435.03	863.66
435.22	2583.95
435.41	4903.42
435.59	5392.59
435.78	3868.91
435.97	1909.88
436.16	798.12
436.34	360.44
436.53	308.95
436.72	271.50
436.90	231.71
437.09	224.69
437.28	112.35
437.46	135.75
437.65	243.42
437.84	238.73
438.02	231.71
438.21	273.84
438.40	168.52
438.58	156.82
438.77	234.05
438.96	205.97
439.14	182.56
439.33	173.20
439.52	205.97
439.70	243.42
439.89	198.95
440.08	222.35
440.26	238.73
440.45	205.97
440.63	189.58
440.82	175.54
441.01	154.48
441.19	238.73
441.38	201.29
441.57	191.92
441.75	257.46
441.94	229.37
442.12	198.95
442.31	215.33
442.50	86.60
442.68	252.78
442.87	201.29
443.05	119.37
443.24	224.69
443.43	198.95
443.61	243.42
443.80	131.07
443.98	187.24
444.17	222.35
444.35	124.05
444.54	175.54
444.73	266.82
444.91	287.89
445.10	170.86
445.28	182.56
445.47	227.03
445.65	135.75
445.84	135.75
446.02	294.91
446.21	264.48
446.39	243.42
446.58	191.92
446.77	198.95
446.95	117.03
447.14	196.60
447.32	257.46
447.51	152.13
447.69	131.07
447.88	196.60
448.06	191.92
448.25	220.01
448.43	135.75
448.62	175.54
448.80	278.52
448.99	271.50
449.17	196.60
449.36	255.12
449.54	194.26
449.73	222.35
449.91	217.67
450.10	196.60
450.28	278.52
450.46	301.93
450.65	227.03
450.83	229.37
451.02	229.37
451.20	248.10
451.39	259.80
451.57	184.90
451.76	220.01
451.94	231.71
452.13	191.92
452.31	283.20
452.49	273.84
452.68	175.54
452.86	220.01
453.05	210.65
453.23	189.58
453.42	196.60
453.60	170.86
453.78	215.33
453.97	170.86
454.15	138.09
454.34	276.18
454.52	196.60
454.70	269.16
454.89	205.97
455.07	264.48
455.26	250.44
455.44	222.35
455.62	184.90
455.81	278.52
455.99	180.22
456.17	248.10
456.36	290.23
456.54	248.10
456.73	205.97
456.91	184.90
457.09	215.33
457.28	248.10
457.46	259.80
457.64	224.69
457.83	278.52
458.01	264.48
458.19	231.71
458.38	271.50
458.56	234.05
458.74	278.52
458.93	166.18
459.11	163.84
459.29	159.16
459.48	255.12
459.66	301.93
459.84	290.23
460.03	337.04
460.21	217.67
460.39	161.50
460.57	257.46
460.76	173.20
460.94	217.67
461.12	280.86
461.31	322.99
461.49	154.48
461.67	161.50
461.85	152.13
462.04	255.12
462.22	257.46
462.40	177.88
462.59	255.12
462.77	187.24
462.95	280.86
463.13	215.33
463.32	191.92
463.50	259.80
463.68	201.29
463.86	217.67
464.05	159.16
464.23	194.26
464.41	257.46
464.59	210.65
464.78	177.88
464.96	135.75
465.14	231.71
465.32	168.52
465.50	156.82
465.69	236.39
465.87	266.82
466.05	257.46
466.23	170.86
466.41	210.65
466.60	177.88
466.78	184.90
466.96	205.97
467.14	217.67
467.32	154.48
467.51	201.29
467.69	166.18
467.87	241.08
468.05	227.03
468.23	238.73
468.41	276.18
468.60	187.24
468.78	222.35
468.96	294.91
469.14	184.90
469.32	243.42
469.50	154.48
469.69	236.39
469.87	203.63
470.05	201.29
470.23	180.22
470.41	205.97
470.59	212.99
470.77	262.14
470.95	262.14
471.14	203.63
471.32	266.82
471.50	220.01
471.68	191.92
471.86	156.82
472.04	161.50
472.22	241.08
472.40	168.52
472.58	238.73
472.77	152.13
472.95	222.35
473.13	215.33
473.31	227.03
473.49	229.37
473.67	117.03
473.85	131.07
474.03	276.18
474.21	196.60
474.39	220.01
474.57	215.33
474.75	173.20
474.93	142.77
475.12	222.35
475.30	229.37
475.48	191.92
475.66	142.77
475.84	229.37
476.02	201.29
476.20	243.42
476.38	147.45
476.56	287.89
476.74	187.24
476.92	168.52
477.10	222.35
477.28	252.78
477.46	194.26
477.64	229.37
477.82	243.42
478.00	217.67
478.18	175.54
478.36	243.42
478.54	231.71
478.72	264.48
478.90	227.03
479.08	273.84
479.26	241.08
479.44	273.84
479.62	285.55
479.80	294.91
479.98	220.01
480.16	210.65
480.34	224.69
480.52	257.46
480.70	266.82
480.88	187.24
481.06	182.56
481.24	252.78
481.41	234.05
481.59	320.65
481.77	248.10
481.95	348.74
482.13	374.49
482.31	379.17
482.49	299.59
482.67	301.93
482.85	365.12
483.03	318.31
483.21	407.25
483.39	402.57
483.57	381.51
483.74	550.03
483.92	444.70
484.10	500.87
484.28	543.00
484.46	627.26
484.64	500.87
484.82	617.90
485.00	533.64
485.18	702.16
485.35	702.16
485.53	683.44
485.71	748.97
485.89	711.52
486.07	765.36
486.25	816.85
486.43	816.85
486.61	821.53
486.78	772.38
486.96	800.46
487.14	840.25
487.32	807.48
487.50	849.61
487.68	758.33
487.85	779.40
488.03	791.10
488.21	744.29
488.39	791.10
488.57	770.04
488.75	814.51
488.92	1111.75
489.10	837.91
489.28	741.95
489.46	758.33
489.64	777.06
489.81	711.52
489.99	753.65
490.17	763.01
490.35	800.46
490.53	748.97
490.70	664.71
490.88	737.27
491.06	685.78
491.24	753.65
491.41	795.78
491.59	704.50
491.77	655.35
491.95	730.25
492.13	678.76
492.30	641.31
492.48	622.58
492.66	599.18
492.84	601.52
493.01	711.52
493.19	655.35
493.37	620.24
493.54	655.35
493.72	631.94
493.90	585.13
494.08	580.45
494.25	601.52
494.43	559.39
494.61	507.90
494.79	610.88
494.96	500.87
495.14	594.50
495.32	599.18
495.49	573.43
495.67	592.16
495.85	538.32
496.02	505.56
496.20	617.90
496.38	634.29
496.55	489.17
496.73	575.77
496.91	552.37
497.09	514.92
497.26	500.87
497.44	510.24
497.62	528.96
497.79	512.58
497.97	545.34
498.14	547.69
498.32	440.02
498.50	418.96
498.67	449.38
498.85	344.06
499.03	463.43
499.20	449.38
499.38	379.17
499.56	449.38
499.73	404.91
499.91	433.00
500.08	383.85
500.26	362.78
500.44	388.53
500.61	416.62
500.79	355.76
500.97	315.97
501.14	369.80
501.32	362.78
501.49	299.59
501.67	276.18
501.84	294.91
502.02	215.33
502.20	348.74
502.37	379.17
502.55	292.57
502.72	245.76
502.90	334.70
503.07	327.68
503.25	285.55
503.43	212.99
503.60	250.44
503.78	287.89
503.95	215.33
504.13	201.29
504.30	238.73
504.48	287.89
504.65	271.50
504.83	290.23
505.01	248.10
505.18	241.08
505.36	341.72
505.53	252.78
505.71	264.48
505.88	353.42
506.06	262.14
506.23	264.48
506.41	278.52
506.58	194.26
506.76	234.05
506.93	259.80
507.11	224.69
507.28	255.12
507.46	210.65
507.63	259.80
507.81	201.29
507.98	276.18
508.16	269.16
508.33	252.78
508.50	276.18
508.68	292.57
508.85	292.57
509.03	285.55
509.20	257.46
509.38	266.82
509.55	238.73
509.73	217.67
509.90	250.44
510.08	266.82
510.25	280.86
510.42	241.08
510.60	159.16
510.77	327.68
510.95	292.57
511.12	224.69
511.30	245.76
511.47	255.12
511.64	311.29
511.82	231.71
511.99	283.20
512.17	264.48
512.34	215.33
512.51	273.84
512.69	280.86
512.86	255.12
513.04	311.29
513.21	264.48
513.38	320.65
513.56	182.56
513.73	182.56
513.90	257.46
514.08	205.97
514.25	290.23
514.43	304.27
514.60	166.18
514.77	241.08
514.95	227.03
515.12	208.31
515.29	220.01
515.47	290.23
515.64	234.05
515.81	238.73
515.99	271.50
516.16	271.50
516.33	229.37
516.51	285.55
516.68	257.46
516.85	156.82
517.03	297.25
517.20	248.10
517.37	278.52
517.54	234.05
517.72	308.95
517.89	234.05
518.06	250.44
518.24	273.84
518.41	212.99
518.58	269.16
518.75	194.26
518.93	180.22
519.10	231.71
519.27	203.63
519.45	196.60
519.62	252.78
519.79	271.50
519.96	231.71
520.14	194.26
520.31	245.76
520.48	294.91
520.65	280.86
520.83	194.26
521.00	252.78
521.17	255.12
521.34	287.89
521.52	259.80
521.69	227.03
521.86	285.55
522.03	234.05
522.20	271.50
522.38	248.10
522.55	266.82
522.72	175.54
522.89	231.71
523.07	238.73
523.24	299.59
523.41	280.86
523.58	266.82
523.75	210.65
523.92	285.55
524.10	191.92
524.27	198.95
524.44	234.05
524.61	283.20
524.78	187.24
524.96	283.20
525.13	215.33
525.30	252.78
525.47	280.86
525.64	304.27
525.81	264.48
525.98	215.33
526.16	273.84
526.33	222.35
526.50	201.29
526.67	154.48
526.84	156.82
527.01	257.46
527.18	287.89
527.36	236.39
527.53	269.16
527.70	290.23
527.87	173.20
528.04	320.65
528.21	290.23
528.38	250.44
528.55	325.33
528.72	262.14
528.89	325.33
529.07	318.31
529.24	266.82
529.41	337.04
529.58	304.27
529.75	236.39
529.92	278.52
530.09	301.93
530.26	360.44
530.43	238.73
530.60	257.46
530.77	276.18
530.94	259.80
531.11	234.05
531.28	283.20
531.46	229.37
531.63	276.18
531.80	245.76
531.97	278.52
532.14	266.82
532.31	229.37
532.48	414.27
532.65	320.65
532.82	386.19
532.99	425.98
533.16	409.59
533.33	465.77
533.50	440.02
533.67	423.64
533.84	374.49
534.01	362.78
534.18	344.06
534.35	402.57
534.52	344.06
534.69	365.12
534.86	372.15
535.03	388.53
535.20	409.59
535.37	395.55
535.54	437.68
535.71	365.12
535.88	407.25
536.05	402.57
536.22	411.93
536.38	411.93
536.55	423.64
536.72	503.22
536.89	496.19
537.06	456.40
537.23	568.75
537.40	669.39
537.57	648.33
537.74	720.88
537.91	840.25
538.08	847.27
538.25	856.64
538.42	983.02
538.59	1125.80
538.75	990.05
538.92	959.62
539.09	1064.94
539.26	1139.84
539.43	1261.55
539.60	1296.66
539.77	1364.53
539.94	1558.80
540.11	1584.54
540.28	1708.59
540.44	1792.85
540.61	1907.54
540.78	1968.39
540.95	2293.72
541.12	2710.34
541.29	3094.19
541.46	3559.95
541.62	3719.11
541.79	4320.63
541.96	4613.20
542.13	4861.29
542.30	4887.04
542.47	5027.47
542.63	4997.04
542.80	4968.96
542.97	4903.42
543.14	5032.15
543.31	5076.62
543.48	5135.14
543.64	4943.21
543.81	4903.42
543.98	4770.01
544.15	4587.45
544.32	4505.53
544.48	4358.08
544.65	4236.37
544.82	4182.54
544.99	3943.80
545.16	3782.31
545.32	3801.03
545.49	6162.63
545.66	9729.61
545.83	11459.26
546.00	9799.82
546.16	6333.49
546.33	4348.72
546.50	3218.24
546.67	2340.54
546.83	2169.68
547.00	1942.64
547.17	1820.94
547.34	1748.38
547.50	1661.78
547.67	1673.48
547.84	1675.82
548.00	1650.08
548.17	1671.14
548.34	1703.91
548.51	1781.15
548.67	1802.21
548.84	1696.89
549.01	1701.57
549.18	1837.32
549.34	1710.93
549.51	1685.19
549.68	1526.03
549.84	1432.41
550.01	1446.45
550.18	1401.98
550.34	1366.87
550.51	1336.45
550.68	1287.29
550.84	1181.97
551.01	1170.27
551.18	1205.38
551.34	1238.14
551.51	1156.22
551.68	1107.07
551.84	1184.31
552.01	1088.35
552.18	1193.67
552.34	1116.44
552.51	952.60
552.68	912.81
552.84	950.26
553.01	835.57
553.18	889.40
553.34	795.78
553.51	720.88
553.67	741.95
553.84	748.97
554.01	641.31
554.17	645.99
554.34	554.71
554.51	573.43
554.67	566.41
554.84	517.26
555.00	484.49
555.17	447.04
555.33	447.04
555.50	418.96
555.67	393.21
555.83	456.40
556.00	423.64
556.16	535.98
556.33	344.06
556.50	369.80
556.66	379.17
556.83	440.02
556.99	388.53
557.16	327.68
557.32	365.12
557.49	395.55
557.65	369.80
557.82	383.85
557.98	369.80
558.15	390.87
558.32	400.23
558.48	381.51
558.65	255.12
558.81	390.87
558.98	290.23
559.14	332.36
559.31	285.55
559.47	318.31
559.64	266.82
559.80	297.25
559.97	287.89
560.13	262.14
560.30	269.16
560.46	276.18
560.63	271.50
560.79	273.84
560.96	325.33
561.12	341.72
561.29	322.99
561.45	208.31
561.61	322.99
561.78	341.72
561.94	266.82
562.11	334.70
562.27	355.76
562.44	255.12
562.60	320.65
562.77	313.63
562.93	297.25
563.10	318.31
563.26	280.86
563.42	376.83
563.59	266.82
563.75	255.12
563.92	245.76
564.08	229.37
564.24	344.06
564.41	341.72
564.57	273.84
564.74	238.73
564.90	322.99
565.07	294.91
565.23	269.16
565.39	269.16
565.56	243.42
565.72	294.91
565.88	187.24
566.05	292.57
566.21	248.10
566.38	271.50
566.54	262.14
566.70	248.10
566.87	250.44
567.03	238.73
567.19	283.20
567.36	245.76
567.52	245.76
567.68	252.78
567.85	250.44
568.01	341.72
568.17	198.95
568.34	220.01
568.50	299.59
568.66	257.46
568.83	351.08
568.99	245.76
569.15	276.18
569.32	278.52
569.48	327.68
569.64	301.93
569.81	308.95
569.97	308.95
570.13	276.18
570.30	217.67
570.46	271.50
570.62	252.78
570.78	182.56
570.95	264.48
571.11	266.82
571.27	292.57
571.43	217.67
571.60	311.29
571.76	222.35
571.92	241.08
572.09	196.60
572.25	229.37
572.41	236.39
572.57	212.99
572.74	330.02
572.90	315.97
573.06	322.99
573.22	262.14
573.38	250.44
573.55	283.20
573.71	341.72
573.87	381.51
574.03	304.27
574.20	337.04
574.36	325.33
574.52	278.52
574.68	313.63
574.84	299.59
575.01	351.08
575.17	276.18
575.33	358.10
575.49	388.53
575.65	407.25
575.82	297.25
575.98	428.32
576.14	369.80
576.30	557.05
576.46	1296.66
576.62	1820.94
576.79	2066.69
576.95	1652.42
577.11	1123.46
577.27	779.40
577.43	627.26
577.59	486.83
577.75	489.17
577.92	425.98
578.08	358.10
578.24	402.57
578.40	585.13
578.56	1212.40
578.72	1797.53
578.88	2008.18
579.04	1600.93
579.21	1231.12
579.37	968.98
579.53	877.70
579.69	880.04
579.85	1027.50
580.01	1139.84
580.17	1078.99
580.33	1097.71
580.49	847.27
580.65	840.25
580.82	816.85
580.98	624.92
581.14	798.12
581.30	779.40
581.46	777.06
581.62	905.79
581.78	856.64
581.94	898.77
582.10	887.06
582.26	976.00
582.42	877.70
582.58	983.02
582.74	1095.37
582.90	1170.27
583.06	1095.37
583.22	1167.93
583.38	1163.25
583.54	1137.50
583.70	1174.95
583.86	1149.20
584.02	1086.01
584.18	1165.59
584.34	1060.26
584.50	1135.16
584.66	1022.81
584.82	926.85
584.98	938.55
585.14	880.04
585.30	875.36
585.46	861.32
585.62	905.79
585.78	910.47
585.94	875.36
586.10	917.49
586.26	964.30
586.42	1050.90
586.58	1193.67
586.74	1397.30
586.90	1603.27
587.06	1771.79
587.22	1748.38
587.38	1657.10
587.54	1589.22
587.70	1394.96
587.86	1261.55
588.02	1100.05
588.18	1093.03
588.34	1057.92
588.49	912.81
588.65	873.02
588.81	802.80
588.97	765.36
589.13	767.70
589.29	816.85
589.45	781.74
589.61	741.95
589.77	755.99
589.93	774.72
590.08	732.59
590.24	748.97
590.40	727.91
590.56	763.01
590.72	765.36
590.88	702.16
591.04	725.57
591.20	653.01
591.35	725.57
591.51	706.84
591.67	842.59
591.83	734.93
591.99	828.55
592.15	901.11
592.31	903.45
592.46	940.90
592.62	1078.99
592.78	1015.79
592.94	1139.84
593.10	1083.67
593.26	1039.20
593.41	1004.09
593.57	863.66
593.73	812.17
593.89	802.80
594.05	662.37
594.20	624.92
594.36	596.84
594.52	535.98
594.68	571.09
594.84	552.37
594.99	554.71
595.15	521.94
595.31	526.62
595.47	493.85
595.62	507.90
595.78	435.34
595.94	423.64
596.10	510.24
596.25	514.92
596.41	582.79
596.57	451.72
596.73	470.45
596.88	395.55
597.04	407.25
597.20	402.57
597.36	456.40
597.51	477.47
597.67	528.96
597.83	531.30
597.99	564.07
598.14	601.52
598.30	634.29
598.46	622.58
598.61	596.84
598.77	690.46
598.93	709.18
599.09	681.10
599.24	732.59
599.40	791.10
599.56	734.93
599.71	709.18
599.87	767.70
600.03	702.16
600.18	620.24
600.34	538.32
600.50	524.28
600.65	521.94
600.81	517.26
600.97	500.87
601.12	451.72
601.28	421.30
601.44	552.37
601.59	484.49
601.75	533.64
601.91	348.74
602.06	404.91
602.22	535.98
602.37	451.72
602.53	425.98
602.69	409.59
602.84	327.68
603.00	372.15
603.16	404.91
603.31	407.25
603.47	416.62
603.62	374.49
603.78	404.91
603.94	362.78
604.09	400.23
604.25	418.96
604.40	348.74
604.56	327.68
604.71	437.68
604.87	397.89
605.03	397.89
605.18	465.77
605.34	596.84
605.49	362.78
605.65	390.87
605.80	367.46
605.96	470.45
606.12	451.72
606.27	519.60
606.43	587.47
606.58	592.16
606.74	505.56
606.89	521.94
607.05	580.45
607.20	610.88
607.36	674.07
607.51	671.73
607.67	685.78
607.82	734.93
607.98	716.20
608.13	765.36
608.29	880.04
608.44	849.61
608.60	889.40
608.75	1097.71
608.91	990.05
609.06	1238.14
609.22	1303.68
609.37	1359.85
609.53	1511.99
609.68	1741.36
609.84	1907.54
609.99	2260.96
610.15	2768.85
610.30	3276.75
610.46	4294.88
610.61	5408.98
610.76	7061.40
610.92	8297.20
611.07	9312.99
611.23	9488.53
611.38	8990.00
611.54	7709.72
611.69	6502.01
611.84	5416.00
612.00	4557.02
612.15	3953.16
612.31	3471.01
612.46	3073.12
612.62	2906.95
612.77	2743.11
612.92	2682.25
613.08	2464.58
613.23	2434.16
613.39	2218.83
613.54	2118.18
613.69	2225.85
613.85	2115.84
614.00	2153.29
614.15	2172.02
614.31	2097.12
614.46	2143.93
614.62	1907.54
614.77	1865.41
614.92	1687.53
615.08	1591.56
615.23	1647.74
615.38	1476.88
615.54	1439.43
615.69	1336.45
615.84	1114.10
616.00	1055.58
616.15	999.41
616.30	1060.26
616.46	1048.56
616.61	873.02
616.76	931.53
616.92	847.27
617.07	894.08
617.22	849.61
617.37	823.87
617.53	812.17
617.68	830.89
617.83	744.29
617.99	645.99
618.14	805.14
618.29	765.36
618.45	739.61
618.60	812.17
618.75	732.59
618.90	753.65
619.06	727.91
619.21	763.01
619.36	779.40
619.51	763.01
619.67	849.61
619.82	842.59
619.97	835.57
620.12	844.93
620.28	870.68
620.43	828.55
620.58	901.11
620.73	877.70
620.89	807.48
621.04	926.85
621.19	884.72
621.34	774.72
621.49	744.29
621.65	795.78
621.80	753.65
621.95	793.44
622.10	758.33
622.25	770.04
622.41	650.67
622.56	706.84
622.71	711.52
622.86	725.57
623.01	751.31
623.16	751.31
623.32	662.37
623.47	699.82
623.62	671.73
623.77	622.58
623.92	580.45
624.07	617.90
624.23	660.03
624.38	683.44
624.53	624.92
624.68	622.58
624.83	746.63
624.98	718.54
625.13	596.84
625.29	507.90
625.44	631.94
625.59	641.31
625.74	641.31
625.89	573.43
626.04	571.09
626.19	575.77
626.34	575.77
626.49	575.77
626.65	531.30
626.80	615.56
626.95	578.11
627.10	585.13
627.25	566.41
627.40	486.83
627.55	620.24
627.70	535.98
627.85	573.43
628.00	580.45
628.15	568.75
628.30	582.79
628.45	461.09
628.60	545.34
628.76	592.16
628.91	561.73
629.06	617.90
629.21	599.18
629.36	566.41
629.51	585.13
629.66	629.60
629.81	613.22
629.96	718.54
630.11	805.14
630.26	912.81
630.41	978.34
630.56	1053.24
630.71	1130.48
630.86	1153.88
631.01	1086.01
631.16	1055.58
631.31	950.26
631.46	851.96
631.61	725.57
631.76	582.79
631.91	486.83
632.06	594.50
632.21	468.11
632.36	421.30
632.51	318.31
632.66	325.33
632.81	351.08
632.96	313.63
633.10	353.42
633.25	259.80
633.40	259.80
633.55	388.53
633.70	304.27
633.85	306.61
634.00	243.42
634.15	245.76
634.30	299.59
634.45	308.95
634.60	276.18
634.75	280.86
634.90	248.10
635.05	294.91
635.19	287.89
635.34	264.48
635.49	262.14
635.64	292.57
635.79	203.63
635.94	189.58
636.09	332.36
636.24	229.37
636.39	285.55
636.53	297.25
636.68	191.92
636.83	276.18
636.98	241.08
637.13	241.08
637.28	245.76
637.43	315.97
637.57	269.16
637.72	273.84
637.87	229.37
638.02	315.97
638.17	271.50
638.32	236.39
638.46	243.42
638.61	205.97
638.76	271.50
638.91	203.63
639.06	173.20
639.20	208.31
639.35	229.37
639.50	182.56
639.65	222.35
639.80	140.43
639.94	215.33
640.09	325.33
640.24	229.37
640.39	215.33
640.54	210.65
640.68	259.80
640.83	273.84
640.98	276.18
641.13	264.48
641.27	205.97
641.42	276.18
641.57	294.91
641.72	259.80
641.86	245.76
642.01	198.95
642.16	280.86
642.31	222.35
642.45	255.12
642.60	294.91
642.75	245.76
642.90	248.10
643.04	210.65
643.19	271.50
643.34	262.14
643.48	276.18
643.63	236.39
643.78	322.99
643.93	255.12
644.07	182.56
644.22	264.48
644.37	182.56
644.51	266.82
644.66	285.55
644.81	262.14
644.95	355.76
645.10	257.46
645.25	196.60
645.39	238.73
645.54	220.01
645.69	297.25
645.83	287.89
645.98	290.23
646.13	210.65
646.27	320.65
646.42	196.60
646.57	220.01
646.71	187.24
646.86	208.31
647.00	180.22
647.15	257.46
647.30	138.09
647.44	194.26
647.59	234.05
647.74	241.08
647.88	196.60
648.03	175.54
648.17	231.71
648.32	149.79
648.47	252.78
648.61	184.90
648.76	224.69
648.90	234.05
649.05	262.14
649.20	297.25
649.34	250.44
649.49	236.39
649.63	306.61
649.78	318.31
649.92	393.21
650.07	423.64
650.21	388.53
650.36	482.15
650.51	407.25
650.65	463.43
650.80	355.76
650.94	332.36
651.09	372.15
651.23	344.06
651.38	332.36
651.52	285.55
651.67	191.92
651.81	294.91
651.96	231.71
652.10	320.65
652.25	264.48
652.39	234.05
652.54	308.95
652.68	327.68
652.83	248.10
652.97	250.44
653.12	243.42
653.26	243.42
653.41	248.10
653.55	208.31
653.70	271.50
653.84	194.26
653.99	220.01
654.13	212.99
654.27	227.03
654.42	168.52
654.56	149.79
654.71	236.39
654.85	234.05
655.00	198.95
655.14	182.56
655.29	203.63
655.43	238.73
655.57	168.52
655.72	142.77
655.86	170.86
656.01	152.13
656.15	166.18
656.30	196.60
656.44	257.46
656.58	182.56
656.73	229.37
656.87	170.86
657.01	241.08
657.16	177.88
657.30	259.80
657.45	241.08
657.59	189.58
657.73	250.44
657.88	234.05
658.02	304.27
658.16	217.67
658.31	184.90
658.45	196.60
658.60	180.22
658.74	166.18
658.88	238.73
659.03	187.24
659.17	184.90
659.31	112.35
659.46	187.24
659.60	175.54
659.74	177.88
659.89	131.07
660.03	224.69
660.17	217.67
660.32	131.07
660.46	241.08
660.60	220.01
660.74	180.22
660.89	203.63
661.03	168.52
661.17	170.86
661.32	210.65
661.46	271.50
661.60	276.18
661.74	248.10
661.89	241.08
662.03	280.86
662.17	322.99
662.31	297.25
662.46	299.59
662.60	313.63
662.74	306.61
662.88	205.97
663.03	259.80
663.17	205.97
663.31	208.31
663.45	227.03
663.60	231.71
663.74	182.56
663.88	88.94
664.02	283.20
664.17	196.60
664.31	154.48
664.45	187.24
664.59	241.08
664.73	191.92
664.88	250.44
665.02	128.73
665.16	163.84
665.30	220.01
665.44	224.69
665.59	241.08
665.73	168.52
665.87	159.16
666.01	224.69
666.15	170.86
666.29	212.99
666.44	278.52
666.58	205.97
666.72	236.39
666.86	117.03
667.00	142.77
667.14	163.84
667.28	262.14
667.43	170.86
667.57	184.90
667.71	227.03
667.85	212.99
667.99	203.63
668.13	208.31
668.27	173.20
668.41	229.37
668.56	245.76
668.70	271.50
668.84	220.01
668.98	173.20
669.12	189.58
669.26	159.16
669.40	236.39
669.54	238.73
669.68	189.58
669.82	187.24
669.96	217.67
670.10	210.65
670.25	241.08
670.39	248.10
670.53	70.22
670.67	222.35
670.81	180.22
670.95	231.71
671.09	191.92
671.23	297.25
671.37	203.63
671.51	95.96
671.65	191.92
671.79	205.97
671.93	177.88
672.07	227.03
672.21	231.71
672.35	257.46
672.49	210.65
672.63	222.35
672.77	191.92
672.91	257.46
673.05	175.54
673.19	170.86
673.33	173.20
673.47	271.50
673.61	119.37
673.75	177.88
673.89	161.50
674.03	224.69
674.17	217.67
674.31	121.71
674.45	191.92
674.59	152.13
674.73	152.13
674.87	215.33
675.01	210.65
675.15	138.09
675.29	231.71
675.43	212.99
675.56	196.60
675.70	189.58
675.84	156.82
675.98	138.09
676.12	138.09
676.26	189.58
676.40	124.05
676.54	208.31
676.68	196.60
676.82	163.84
676.96	194.26
677.10	191.92
677.23	234.05
677.37	170.86
677.51	189.58
677.65	243.42
677.79	147.45
677.93	231.71
678.07	77.24
678.21	180.22
678.34	138.09
678.48	177.88
678.62	166.18
678.76	170.86
678.90	182.56
679.04	147.45
679.18	177.88
679.31	112.35
679.45	163.84
679.59	224.69
679.73	238.73
679.87	191.92
680.00	189.58
680.14	138.09
680.28	187.24
680.42	210.65
680.56	133.41
680.70	175.54
680.83	196.60
680.97	175.54
681.11	229.37
681.25	187.24
681.39	184.90
681.52	170.86
681.66	114.69
681.80	175.54
681.94	180.22
682.07	117.03
682.21	180.22
682.35	161.50
682.49	191.92
682.62	182.56
682.76	142.77
682.90	149.79
683.04	208.31
683.17	163.84
683.31	88.94
683.45	180.22
683.59	224.69
683.72	119.37
683.86	222.35
684.00	124.05
684.13	304.27
684.27	189.58
684.41	194.26
684.55	229.37
684.68	131.07
684.82	187.24
684.96	119.37
685.09	121.71
685.23	98.30
685.37	124.05
685.50	238.73
685.64	220.01
685.78	212.99
685.91	187.24
686.05	152.13
686.19	72.56
686.32	187.24
686.46	170.86
686.60	114.69
686.73	191.92
686.87	217.67
687.01	147.45
687.14	126.39
687.28	210.65
687.42	133.41
687.55	140.43
687.69	187.24
687.82	203.63
687.96	173.20
688.10	217.67
688.23	110.01
688.37	262.14
688.50	187.24
688.64	238.73
688.78	243.42
688.91	203.63
689.05	170.86
689.18	170.86
689.32	147.45
689.46	149.79
689.59	133.41
689.73	175.54
689.86	138.09
690.00	133.41
690.13	124.05
690.27	117.03
690.41	196.60
690.54	205.97
690.68	166.18
690.81	112.35
690.95	140.43
691.08	147.45
691.22	110.01
691.35	180.22
691.49	46.81
691.62	105.32
691.76	107.66
691.89	147.45
692.03	138.09
692.16	145.11
692.30	201.29
692.43	147.45
692.57	117.03
692.70	184.90
692.84	224.69
692.97	110.01
693.11	170.86
693.24	114.69
693.38	229.37
693.51	163.84
693.65	208.31
693.78	184.90
693.92	222.35
694.05	175.54
694.19	93.62
694.32	74.90
694.45	112.35
694.59	159.16
694.72	131.07
694.86	196.60
694.99	128.73
695.13	140.43
695.26	107.66
695.39	88.94
695.53	161.50
695.66	138.09
695.80	182.56
695.93	145.11
696.07	126.39
696.20	84.26
696.33	126.39
696.47	138.09
696.60	154.48
696.73	140.43
696.87	142.77
697.00	173.20
697.14	133.41
697.27	112.35
697.40	208.31
697.54	166.18
697.67	140.43
697.80	110.01
697.94	79.58
698.07	102.98
698.21	86.60
698.34	126.39
698.47	42.13
698.61	119.37
698.74	95.96
698.87	142.77
699.01	142.77
699.14	100.64
699.27	112.35
699.40	259.80
699.54	152.13
699.67	93.62
699.80	70.22
699.94	112.35
700.07	117.03
700.20	114.69
700.34	191.92
700.47	133.41
700.60	177.88
700.73	159.16
700.87	147.45
701.00	140.43
701.13	110.01
701.26	175.54
701.40	191.92
701.53	145.11
701.66	152.13
701.79	93.62
701.93	154.48
702.06	147.45
702.19	77.24
702.32	231.71
702.46	159.16
702.59	161.50
702.72	65.54
702.85	140.43
702.99	98.30
703.12	184.90
703.25	126.39
703.38	163.84
703.51	191.92
703.65	154.48
703.78	182.56
703.91	142.77
704.04	156.82
704.17	133.41
704.31	102.98
704.44	79.58
704.57	182.56
704.70	119.37
704.83	117.03
704.96	128.73
705.10	168.52
705.23	135.75
>>>>>End Processed Spectral Data<<<<<
