SpectraSuite Data File
++++++++++++++++++++++++++++++++++++
Date: Fri Oct 04 11:42:14 GMT-05:00 2013
User: price-jones
Dark Spectrum Present: No
Reference Spectrum Present: No
Number of Sampled Component Spectra: 1
Spectrometers: USB2+H05261
Integration Time (usec): 100000 (USB2+H05261)
Spectra Averaged: 1 (USB2+H05261)
Boxcar Smoothing: 0 (USB2+H05261)
Correct for Electrical Dark: No (USB2+H05261)
Strobe/Lamp Enabled: No (USB2+H05261)
Correct for Detector Non-linearity: No (USB2+H05261)
Correct for Stray Light: No (USB2+H05261)
Number of Pixels in Processed Spectrum: 2048
>>>>>Begin Processed Spectral Data<<<<<
365.73	81.92
365.92	81.92
366.12	81.92
366.32	0.00
366.52	0.00
366.72	0.00
366.91	0.00
367.11	0.00
367.31	0.00
367.51	0.00
367.70	0.00
367.90	0.00
368.10	0.00
368.30	0.00
368.49	0.00
368.69	0.00
368.89	0.00
369.09	0.00
369.28	0.00
369.48	0.00
369.68	11.70
369.87	0.00
370.07	0.00
370.27	70.22
370.47	0.00
370.66	14.04
370.86	4.68
371.06	114.69
371.25	79.58
371.45	53.83
371.65	84.26
371.84	93.62
372.04	30.43
372.24	86.60
372.44	72.56
372.63	65.54
372.83	180.22
373.03	95.96
373.22	124.05
373.42	98.30
373.62	88.94
373.81	140.43
374.01	163.84
374.21	138.09
374.40	102.98
374.60	107.66
374.79	135.75
374.99	112.35
375.19	110.01
375.38	168.52
375.58	114.69
375.78	142.77
375.97	142.77
376.17	166.18
376.37	91.28
376.56	166.18
376.76	140.43
376.95	152.13
377.15	128.73
377.35	142.77
377.54	102.98
377.74	131.07
377.93	77.24
378.13	81.92
378.33	98.30
378.52	105.32
378.72	154.48
378.91	79.58
379.11	70.22
379.31	100.64
379.50	67.88
379.70	102.98
379.89	147.45
380.09	102.98
380.28	121.71
380.48	60.85
380.68	105.32
380.87	102.98
381.07	135.75
381.26	35.11
381.46	53.83
381.65	46.81
381.85	79.58
382.04	145.11
382.24	110.01
382.43	107.66
382.63	81.92
382.83	74.90
383.02	191.92
383.22	128.73
383.41	58.51
383.61	60.85
383.80	152.13
384.00	114.69
384.19	81.92
384.39	88.94
384.58	110.01
384.78	166.18
384.97	112.35
385.17	65.54
385.36	65.54
385.56	53.83
385.75	44.47
385.95	121.71
386.14	117.03
386.34	138.09
386.53	161.50
386.72	25.75
386.92	60.85
387.11	147.45
387.31	93.62
387.50	156.82
387.70	114.69
387.89	119.37
388.09	203.63
388.28	124.05
388.48	112.35
388.67	77.24
388.86	72.56
389.06	112.35
389.25	133.41
389.45	70.22
389.64	124.05
389.84	149.79
390.03	98.30
390.22	131.07
390.42	152.13
390.61	102.98
390.81	112.35
391.00	149.79
391.19	170.86
391.39	170.86
391.58	161.50
391.78	112.35
391.97	161.50
392.16	135.75
392.36	81.92
392.55	121.71
392.75	56.17
392.94	124.05
393.13	142.77
393.33	58.51
393.52	58.51
393.71	140.43
393.91	152.13
394.10	58.51
394.29	28.09
394.49	88.94
394.68	210.65
394.88	114.69
395.07	100.64
395.26	110.01
395.46	79.58
395.65	163.84
395.84	145.11
396.04	79.58
396.23	70.22
396.42	67.88
396.62	100.64
396.81	112.35
397.00	161.50
397.19	152.13
397.39	117.03
397.58	180.22
397.77	117.03
397.97	88.94
398.16	51.49
398.35	166.18
398.55	105.32
398.74	107.66
398.93	81.92
399.12	91.28
399.32	110.01
399.51	112.35
399.70	86.60
399.90	79.58
400.09	210.65
400.28	182.56
400.47	107.66
400.67	77.24
400.86	133.41
401.05	145.11
401.24	177.88
401.44	142.77
401.63	119.37
401.82	175.54
402.01	100.64
402.21	95.96
402.40	98.30
402.59	119.37
402.78	110.01
402.97	156.82
403.17	88.94
403.36	138.09
403.55	166.18
403.74	238.73
403.93	692.80
404.13	1184.31
404.32	1308.36
404.51	1046.22
404.70	720.88
404.89	271.50
405.09	255.12
405.28	145.11
405.47	126.39
405.66	163.84
405.85	189.58
406.05	163.84
406.24	198.95
406.43	184.90
406.62	161.50
406.81	243.42
407.00	231.71
407.20	234.05
407.39	311.29
407.58	252.78
407.77	271.50
407.96	140.43
408.15	117.03
408.34	196.60
408.54	201.29
408.73	177.88
408.92	112.35
409.11	208.31
409.30	142.77
409.49	147.45
409.68	124.05
409.87	72.56
410.07	168.52
410.26	95.96
410.45	159.16
410.64	126.39
410.83	121.71
411.02	117.03
411.21	194.26
411.40	117.03
411.59	119.37
411.78	81.92
411.98	79.58
412.17	58.51
412.36	117.03
412.55	203.63
412.74	236.39
412.93	166.18
413.12	135.75
413.31	236.39
413.50	154.48
413.69	194.26
413.88	189.58
414.07	147.45
414.26	149.79
414.45	81.92
414.64	152.13
414.83	159.16
415.02	91.28
415.22	159.16
415.41	212.99
415.60	133.41
415.79	138.09
415.98	184.90
416.17	135.75
416.36	84.26
416.55	180.22
416.74	126.39
416.93	161.50
417.12	102.98
417.31	236.39
417.50	112.35
417.69	205.97
417.88	126.39
418.07	110.01
418.26	102.98
418.45	161.50
418.64	159.16
418.83	189.58
419.02	177.88
419.21	149.79
419.39	152.13
419.58	128.73
419.77	126.39
419.96	203.63
420.15	283.20
420.34	93.62
420.53	105.32
420.72	173.20
420.91	229.37
421.10	280.86
421.29	166.18
421.48	189.58
421.67	147.45
421.86	131.07
422.05	142.77
422.24	142.77
422.43	201.29
422.61	102.98
422.80	191.92
422.99	147.45
423.18	145.11
423.37	222.35
423.56	156.82
423.75	182.56
423.94	175.54
424.13	243.42
424.32	140.43
424.50	222.35
424.69	250.44
424.88	245.76
425.07	91.28
425.26	196.60
425.45	145.11
425.64	184.90
425.83	156.82
426.01	243.42
426.20	196.60
426.39	175.54
426.58	124.05
426.77	231.71
426.96	196.60
427.15	159.16
427.33	149.79
427.52	173.20
427.71	121.71
427.90	224.69
428.09	131.07
428.28	88.94
428.46	124.05
428.65	145.11
428.84	168.52
429.03	227.03
429.22	189.58
429.40	184.90
429.59	133.41
429.78	166.18
429.97	175.54
430.16	257.46
430.34	161.50
430.53	203.63
430.72	147.45
430.91	177.88
431.10	210.65
431.28	215.33
431.47	198.95
431.66	238.73
431.85	142.77
432.03	194.26
432.22	276.18
432.41	149.79
432.60	262.14
432.79	194.26
432.97	201.29
433.16	217.67
433.35	124.05
433.54	163.84
433.72	215.33
433.91	264.48
434.10	266.82
434.28	264.48
434.47	320.65
434.66	365.12
434.85	367.46
435.03	1074.31
435.22	3349.31
435.41	5746.02
435.59	5214.71
435.78	3501.44
435.97	1853.70
436.16	826.21
436.34	374.49
436.53	264.48
436.72	187.24
436.90	163.84
437.09	299.59
437.28	217.67
437.46	220.01
437.65	187.24
437.84	215.33
438.02	152.13
438.21	234.05
438.40	159.16
438.58	208.31
438.77	227.03
438.96	220.01
439.14	271.50
439.33	266.82
439.52	212.99
439.70	189.58
439.89	208.31
440.08	210.65
440.26	145.11
440.45	245.76
440.63	203.63
440.82	147.45
441.01	182.56
441.19	203.63
441.38	243.42
441.57	205.97
441.75	215.33
441.94	250.44
442.12	142.77
442.31	229.37
442.50	238.73
442.68	203.63
442.87	184.90
443.05	196.60
443.24	212.99
443.43	280.86
443.61	243.42
443.80	248.10
443.98	184.90
444.17	220.01
444.35	210.65
444.54	217.67
444.73	189.58
444.91	205.97
445.10	175.54
445.28	248.10
445.47	156.82
445.65	212.99
445.84	180.22
446.02	196.60
446.21	257.46
446.39	196.60
446.58	140.43
446.77	184.90
446.95	149.79
447.14	224.69
447.32	238.73
447.51	201.29
447.69	198.95
447.88	269.16
448.06	203.63
448.25	245.76
448.43	234.05
448.62	217.67
448.80	266.82
448.99	278.52
449.17	191.92
449.36	245.76
449.54	198.95
449.73	217.67
449.91	224.69
450.10	205.97
450.28	212.99
450.46	255.12
450.65	203.63
450.83	280.86
451.02	147.45
451.20	191.92
451.39	234.05
451.57	154.48
451.76	168.52
451.94	205.97
452.13	131.07
452.31	259.80
452.49	187.24
452.68	262.14
452.86	198.95
453.05	189.58
453.23	212.99
453.42	131.07
453.60	145.11
453.78	231.71
453.97	248.10
454.15	156.82
454.34	147.45
454.52	114.69
454.70	257.46
454.89	208.31
455.07	175.54
455.26	248.10
455.44	222.35
455.62	236.39
455.81	161.50
455.99	224.69
456.17	248.10
456.36	250.44
456.54	243.42
456.73	170.86
456.91	227.03
457.09	222.35
457.28	180.22
457.46	231.71
457.64	191.92
457.83	245.76
458.01	184.90
458.19	126.39
458.38	250.44
458.56	152.13
458.74	241.08
458.93	189.58
459.11	212.99
459.29	210.65
459.48	224.69
459.66	182.56
459.84	156.82
460.03	320.65
460.21	196.60
460.39	173.20
460.57	250.44
460.76	191.92
460.94	177.88
461.12	273.84
461.31	255.12
461.49	142.77
461.67	203.63
461.85	152.13
462.04	138.09
462.22	320.65
462.40	236.39
462.59	210.65
462.77	177.88
462.95	264.48
463.13	184.90
463.32	257.46
463.50	194.26
463.68	229.37
463.86	177.88
464.05	133.41
464.23	191.92
464.41	194.26
464.59	231.71
464.78	271.50
464.96	161.50
465.14	269.16
465.32	154.48
465.50	212.99
465.69	208.31
465.87	215.33
466.05	250.44
466.23	248.10
466.41	175.54
466.60	241.08
466.78	217.67
466.96	220.01
467.14	264.48
467.32	227.03
467.51	194.26
467.69	208.31
467.87	264.48
468.05	175.54
468.23	257.46
468.41	259.80
468.60	220.01
468.78	187.24
468.96	201.29
469.14	262.14
469.32	259.80
469.50	245.76
469.69	252.78
469.87	262.14
470.05	177.88
470.23	220.01
470.41	140.43
470.59	161.50
470.77	229.37
470.95	208.31
471.14	264.48
471.32	238.73
471.50	245.76
471.68	189.58
471.86	238.73
472.04	215.33
472.22	149.79
472.40	196.60
472.58	231.71
472.77	156.82
472.95	161.50
473.13	222.35
473.31	220.01
473.49	168.52
473.67	170.86
473.85	210.65
474.03	257.46
474.21	196.60
474.39	276.18
474.57	149.79
474.75	198.95
474.93	210.65
475.12	208.31
475.30	266.82
475.48	217.67
475.66	194.26
475.84	227.03
476.02	262.14
476.20	236.39
476.38	177.88
476.56	271.50
476.74	248.10
476.92	189.58
477.10	217.67
477.28	278.52
477.46	201.29
477.64	212.99
477.82	201.29
478.00	196.60
478.18	191.92
478.36	208.31
478.54	149.79
478.72	243.42
478.90	280.86
479.08	259.80
479.26	234.05
479.44	234.05
479.62	210.65
479.80	234.05
479.98	227.03
480.16	234.05
480.34	297.25
480.52	266.82
480.70	259.80
480.88	255.12
481.06	220.01
481.24	271.50
481.41	299.59
481.59	271.50
481.77	285.55
481.95	252.78
482.13	386.19
482.31	278.52
482.49	297.25
482.67	402.57
482.85	320.65
483.03	313.63
483.21	449.38
483.39	386.19
483.57	397.89
483.74	463.43
483.92	454.06
484.10	414.27
484.28	550.03
484.46	566.41
484.64	582.79
484.82	531.30
485.00	610.88
485.18	615.56
485.35	643.65
485.53	660.03
485.71	662.37
485.89	657.69
486.07	622.58
486.25	641.31
486.43	711.52
486.61	699.82
486.78	791.10
486.96	620.24
487.14	713.86
487.32	671.73
487.50	643.65
487.68	727.91
487.85	615.56
488.03	676.41
488.21	653.01
488.39	645.99
488.57	594.50
488.75	603.86
488.92	898.77
489.10	641.31
489.28	664.71
489.46	610.88
489.64	624.92
489.81	535.98
489.99	655.35
490.17	505.56
490.35	674.07
490.53	631.94
490.70	557.05
490.88	582.79
491.06	650.67
491.24	755.99
491.41	650.67
491.59	645.99
491.77	543.00
491.95	540.66
492.13	526.62
492.30	645.99
492.48	580.45
492.66	538.32
492.84	475.13
493.01	514.92
493.19	470.45
493.37	472.79
493.54	526.62
493.72	503.22
493.90	461.09
494.08	496.19
494.25	444.70
494.43	519.60
494.61	463.43
494.79	449.38
494.96	313.63
495.14	414.27
495.32	409.59
495.49	496.19
495.67	458.74
495.85	498.53
496.02	505.56
496.20	528.96
496.38	411.93
496.55	458.74
496.73	461.09
496.91	491.51
497.09	428.32
497.26	365.12
497.44	433.00
497.62	519.60
497.79	388.53
497.97	430.66
498.14	360.44
498.32	454.06
498.50	421.30
498.67	369.80
498.85	367.46
499.03	386.19
499.20	409.59
499.38	327.68
499.56	402.57
499.73	461.09
499.91	430.66
500.08	365.12
500.26	351.08
500.44	348.74
500.61	381.51
500.79	320.65
500.97	311.29
501.14	327.68
501.32	444.70
501.49	351.08
501.67	269.16
501.84	264.48
502.02	313.63
502.20	285.55
502.37	360.44
502.55	313.63
502.72	355.76
502.90	269.16
503.07	325.33
503.25	262.14
503.43	304.27
503.60	304.27
503.78	290.23
503.95	299.59
504.13	334.70
504.30	320.65
504.48	236.39
504.65	311.29
504.83	365.12
505.01	320.65
505.18	278.52
505.36	198.95
505.53	294.91
505.71	287.89
505.88	290.23
506.06	241.08
506.23	231.71
506.41	301.93
506.58	290.23
506.76	271.50
506.93	278.52
507.11	285.55
507.28	227.03
507.46	299.59
507.63	283.20
507.81	297.25
507.98	269.16
508.16	311.29
508.33	257.46
508.50	241.08
508.68	210.65
508.85	297.25
509.03	308.95
509.20	344.06
509.38	297.25
509.55	276.18
509.73	287.89
509.90	301.93
510.08	257.46
510.25	222.35
510.42	292.57
510.60	327.68
510.77	306.61
510.95	301.93
511.12	250.44
511.30	297.25
511.47	212.99
511.64	290.23
511.82	264.48
511.99	245.76
512.17	269.16
512.34	154.48
512.51	301.93
512.69	257.46
512.86	280.86
513.04	318.31
513.21	290.23
513.38	205.97
513.56	273.84
513.73	264.48
513.90	252.78
514.08	287.89
514.25	220.01
514.43	292.57
514.60	313.63
514.77	276.18
514.95	276.18
515.12	278.52
515.29	269.16
515.47	273.84
515.64	280.86
515.81	259.80
515.99	285.55
516.16	346.40
516.33	227.03
516.51	273.84
516.68	290.23
516.85	283.20
517.03	208.31
517.20	205.97
517.37	255.12
517.54	215.33
517.72	212.99
517.89	271.50
518.06	203.63
518.24	259.80
518.41	224.69
518.58	259.80
518.75	234.05
518.93	285.55
519.10	290.23
519.27	266.82
519.45	262.14
519.62	257.46
519.79	266.82
519.96	264.48
520.14	201.29
520.31	280.86
520.48	238.73
520.65	297.25
520.83	318.31
521.00	278.52
521.17	311.29
521.34	196.60
521.52	273.84
521.69	257.46
521.86	318.31
522.03	252.78
522.20	285.55
522.38	262.14
522.55	248.10
522.72	198.95
522.89	297.25
523.07	348.74
523.24	227.03
523.41	315.97
523.58	327.68
523.75	229.37
523.92	262.14
524.10	236.39
524.27	224.69
524.44	278.52
524.61	273.84
524.78	222.35
524.96	271.50
525.13	252.78
525.30	269.16
525.47	332.36
525.64	266.82
525.81	269.16
525.98	327.68
526.16	315.97
526.33	255.12
526.50	252.78
526.67	238.73
526.84	250.44
527.01	337.04
527.18	299.59
527.36	262.14
527.53	208.31
527.70	255.12
527.87	250.44
528.04	276.18
528.21	236.39
528.38	220.01
528.55	355.76
528.72	348.74
528.89	318.31
529.07	271.50
529.24	252.78
529.41	290.23
529.58	278.52
529.75	344.06
529.92	315.97
530.09	327.68
530.26	266.82
530.43	304.27
530.60	320.65
530.77	259.80
530.94	334.70
531.11	278.52
531.28	255.12
531.46	325.33
531.63	344.06
531.80	273.84
531.97	358.10
532.14	313.63
532.31	360.44
532.48	332.36
532.65	395.55
532.82	358.10
532.99	463.43
533.16	456.40
533.33	425.98
533.50	411.93
533.67	416.62
533.84	416.62
534.01	421.30
534.18	358.10
534.35	386.19
534.52	330.02
534.69	498.53
534.86	383.85
535.03	402.57
535.20	393.21
535.37	374.49
535.54	379.17
535.71	521.94
535.88	531.30
536.05	425.98
536.22	484.49
536.38	564.07
536.55	580.45
536.72	575.77
536.89	585.13
537.06	667.05
537.23	755.99
537.40	760.67
537.57	844.93
537.74	877.70
537.91	915.15
538.08	940.90
538.25	868.34
538.42	835.57
538.59	894.08
538.75	863.66
538.92	952.60
539.09	1104.73
539.26	1193.67
539.43	1254.53
539.60	1320.06
539.77	1558.80
539.94	1607.95
540.11	1846.68
540.28	1998.82
540.44	2174.36
540.61	2303.09
540.78	2628.42
540.95	3155.04
541.12	3826.78
541.29	3974.23
541.46	4222.33
541.62	4065.51
541.79	4117.00
541.96	3847.84
542.13	3557.61
542.30	3307.18
542.47	3276.75
542.63	3042.70
542.80	3033.33
542.97	3014.61
543.14	2862.48
543.31	3066.10
543.48	2998.23
543.64	3145.68
543.81	3026.31
543.98	3054.40
544.15	3026.31
544.32	3066.10
544.48	2986.52
544.65	2937.37
544.82	3012.27
544.99	3005.25
545.16	2988.86
545.32	3180.79
545.49	5834.96
545.66	9469.81
545.83	10696.25
546.00	9018.08
546.16	6253.91
546.33	4575.75
546.50	3599.74
546.67	3061.42
546.83	2649.49
547.00	2452.88
547.17	2466.92
547.34	2321.81
547.50	2228.19
547.67	2139.25
547.84	2157.97
548.00	1989.46
548.17	1947.33
548.34	1839.66
548.51	1916.90
548.67	1865.41
548.84	1703.91
549.01	1678.16
549.18	1673.48
549.34	1474.54
549.51	1409.00
549.68	1514.33
549.84	1420.71
550.01	1256.87
550.18	1401.98
550.34	1308.36
550.51	1149.20
550.68	1181.97
550.84	1107.07
551.01	1036.86
551.18	1074.31
551.34	945.58
551.51	983.02
551.68	915.15
551.84	887.06
552.01	952.60
552.18	849.61
552.34	875.36
552.51	716.20
552.68	725.57
552.84	699.82
553.01	826.21
553.18	697.48
553.34	814.51
553.51	711.52
553.67	737.27
553.84	711.52
554.01	594.50
554.17	692.80
554.34	458.74
554.51	545.34
554.67	573.43
554.84	475.13
555.00	505.56
555.17	484.49
555.33	589.82
555.50	507.90
555.67	461.09
555.83	440.02
556.00	437.68
556.16	582.79
556.33	435.34
556.50	409.59
556.66	477.47
556.83	383.85
556.99	325.33
557.16	397.89
557.32	339.38
557.49	386.19
557.65	451.72
557.82	402.57
557.98	266.82
558.15	341.72
558.32	322.99
558.48	358.10
558.65	365.12
558.81	381.51
558.98	376.83
559.14	461.09
559.31	365.12
559.47	372.15
559.64	332.36
559.80	313.63
559.97	330.02
560.13	334.70
560.30	243.42
560.46	346.40
560.63	322.99
560.79	334.70
560.96	327.68
561.12	304.27
561.29	315.97
561.45	351.08
561.61	266.82
561.78	409.59
561.94	257.46
562.11	262.14
562.27	383.85
562.44	271.50
562.60	435.34
562.77	301.93
562.93	337.04
563.10	315.97
563.26	325.33
563.42	334.70
563.59	360.44
563.75	313.63
563.92	327.68
564.08	297.25
564.24	306.61
564.41	355.76
564.57	287.89
564.74	250.44
564.90	341.72
565.07	411.93
565.23	341.72
565.39	411.93
565.56	252.78
565.72	273.84
565.88	367.46
566.05	212.99
566.21	290.23
566.38	271.50
566.54	325.33
566.70	304.27
566.87	280.86
567.03	292.57
567.19	330.02
567.36	318.31
567.52	255.12
567.68	301.93
567.85	322.99
568.01	271.50
568.17	315.97
568.34	348.74
568.50	269.16
568.66	287.89
568.83	367.46
568.99	290.23
569.15	285.55
569.32	337.04
569.48	332.36
569.64	344.06
569.81	287.89
569.97	250.44
570.13	304.27
570.30	250.44
570.46	231.71
570.62	271.50
570.78	344.06
570.95	271.50
571.11	337.04
571.27	355.76
571.43	327.68
571.60	313.63
571.76	299.59
571.92	266.82
572.09	301.93
572.25	313.63
572.41	292.57
572.57	245.76
572.74	301.93
572.90	278.52
573.06	257.46
573.22	264.48
573.38	299.59
573.55	252.78
573.71	315.97
573.87	287.89
574.03	299.59
574.20	182.56
574.36	330.02
574.52	320.65
574.68	243.42
574.84	264.48
575.01	285.55
575.17	355.76
575.33	322.99
575.49	365.12
575.65	308.95
575.82	379.17
575.98	423.64
576.14	386.19
576.30	669.39
576.46	1394.96
576.62	1856.04
576.79	2045.63
576.95	1568.16
577.11	1043.88
577.27	730.25
577.43	547.69
577.59	512.58
577.75	381.51
577.92	411.93
578.08	390.87
578.24	386.19
578.40	660.03
578.56	1455.81
578.72	1813.92
578.88	1834.98
579.04	1341.13
579.21	1020.47
579.37	826.21
579.53	737.27
579.69	784.08
579.85	840.25
580.01	894.08
580.17	807.48
580.33	844.93
580.49	718.54
580.65	634.29
580.82	608.54
580.98	603.86
581.14	578.11
581.30	667.05
581.46	711.52
581.62	779.40
581.78	650.67
581.94	795.78
582.10	711.52
582.26	842.59
582.42	887.06
582.58	866.00
582.74	866.00
582.90	959.62
583.06	884.72
583.22	828.55
583.38	868.34
583.54	880.04
583.70	1001.75
583.86	805.14
584.02	755.99
584.18	833.23
584.34	763.01
584.50	821.53
584.66	887.06
584.82	828.55
584.98	842.59
585.14	784.08
585.30	744.29
585.46	819.19
585.62	798.12
585.78	741.95
585.94	812.17
586.10	821.53
586.26	861.32
586.42	1029.84
586.58	1029.84
586.74	1196.01
586.90	1413.68
587.06	1418.36
587.22	1427.73
587.38	1338.79
587.54	1231.12
587.70	1032.18
587.86	889.40
588.02	774.72
588.18	819.19
588.34	802.80
588.49	610.88
588.65	566.41
588.81	575.77
588.97	538.32
589.13	688.12
589.29	587.47
589.45	514.92
589.61	589.82
589.77	580.45
589.93	580.45
590.08	585.13
590.24	561.73
590.40	634.29
590.56	641.31
590.72	554.71
590.88	641.31
591.04	697.48
591.20	772.38
591.35	676.41
591.51	653.01
591.67	669.39
591.83	770.04
591.99	823.87
592.15	880.04
592.31	945.58
592.46	971.32
592.62	1081.33
592.78	1139.84
592.94	1088.35
593.10	1050.90
593.26	994.73
593.41	990.05
593.57	873.02
593.73	840.25
593.89	821.53
594.05	716.20
594.20	496.19
594.36	573.43
594.52	573.43
594.68	489.17
594.84	610.88
594.99	603.86
595.15	547.69
595.31	566.41
595.47	545.34
595.62	510.24
595.78	500.87
595.94	493.85
596.10	543.00
596.25	503.22
596.41	512.58
596.57	564.07
596.73	526.62
596.88	437.68
597.04	540.66
597.20	442.36
597.36	571.09
597.51	517.26
597.67	526.62
597.83	519.60
597.99	589.82
598.14	601.52
598.30	627.26
598.46	718.54
598.61	690.46
598.77	751.31
598.93	739.61
599.09	711.52
599.24	793.44
599.40	741.95
599.56	739.61
599.71	657.69
599.87	835.57
600.03	753.65
600.18	603.86
600.34	566.41
600.50	564.07
600.65	531.30
600.81	479.81
600.97	503.22
601.12	535.98
601.28	528.96
601.44	489.17
601.59	500.87
601.75	472.79
601.91	430.66
602.06	402.57
602.22	503.22
602.37	376.83
602.53	393.21
602.69	425.98
602.84	402.57
603.00	423.64
603.16	416.62
603.31	449.38
603.47	454.06
603.62	418.96
603.78	449.38
603.94	395.55
604.09	449.38
604.25	400.23
604.40	470.45
604.56	461.09
604.71	496.19
604.87	463.43
605.03	484.49
605.18	526.62
605.34	416.62
605.49	517.26
605.65	498.53
605.80	437.68
605.96	498.53
606.12	496.19
606.27	535.98
606.43	535.98
606.58	568.75
606.74	533.64
606.89	629.60
607.05	606.20
607.20	683.44
607.36	587.47
607.51	636.63
607.67	671.73
607.82	809.83
607.98	788.76
608.13	812.17
608.29	863.66
608.44	884.72
608.60	976.00
608.75	1221.76
608.91	1191.33
609.06	1322.40
609.22	1301.34
609.37	1582.20
609.53	1549.43
609.68	1710.93
609.84	2066.69
609.99	2300.75
610.15	2789.92
610.30	3421.86
610.46	4210.62
610.61	5352.81
610.76	6703.29
610.92	8021.02
611.07	8877.65
611.23	8910.42
611.38	8280.82
611.54	7239.28
611.69	6523.07
611.84	5392.59
612.00	4540.64
612.15	3882.95
612.31	3400.80
612.46	3197.17
612.62	2778.22
612.77	2759.49
612.92	2675.23
613.08	2490.33
613.23	2354.58
613.39	2265.64
613.54	2242.23
613.69	2291.38
613.85	2122.87
614.00	2176.70
614.15	2040.95
614.31	2099.46
614.46	2146.27
614.62	1963.71
614.77	2064.35
614.92	1874.77
615.08	1724.97
615.23	1570.50
615.38	1390.28
615.54	1362.19
615.69	1245.16
615.84	1158.57
616.00	1121.12
616.15	1069.62
616.30	894.08
616.46	814.51
616.61	903.45
616.76	830.89
616.92	786.42
617.07	770.04
617.22	702.16
617.37	751.31
617.53	765.36
617.68	741.95
617.83	704.50
617.99	657.69
618.14	692.80
618.29	650.67
618.45	617.90
618.60	716.20
618.75	638.97
618.90	641.31
619.06	592.16
619.21	641.31
619.36	533.64
619.51	554.71
619.67	582.79
619.82	554.71
619.97	603.86
620.12	585.13
620.28	655.35
620.43	613.22
620.58	627.26
620.73	716.20
620.89	669.39
621.04	671.73
621.19	678.76
621.34	692.80
621.49	697.48
621.65	657.69
621.80	589.82
621.95	638.97
622.10	624.92
622.25	571.09
622.41	596.84
622.56	613.22
622.71	655.35
622.86	685.78
623.01	709.18
623.16	695.14
623.32	667.05
623.47	683.44
623.62	636.63
623.77	713.86
623.92	664.71
624.07	596.84
624.23	653.01
624.38	599.18
624.53	627.26
624.68	653.01
624.83	723.23
624.98	779.40
625.13	624.92
625.29	692.80
625.44	688.12
625.59	723.23
625.74	683.44
625.89	718.54
626.04	671.73
626.19	599.18
626.34	610.88
626.49	638.97
626.65	636.63
626.80	681.10
626.95	669.39
627.10	589.82
627.25	610.88
627.40	622.58
627.55	608.54
627.70	571.09
627.85	641.31
628.00	589.82
628.15	540.66
628.30	620.24
628.45	620.24
628.60	713.86
628.76	615.56
628.91	561.73
629.06	699.82
629.21	657.69
629.36	627.26
629.51	592.16
629.66	692.80
629.81	791.10
629.96	791.10
630.11	844.93
630.26	863.66
630.41	938.55
630.56	1064.94
630.71	1177.29
630.86	1057.92
631.01	1020.47
631.16	1064.94
631.31	1034.52
631.46	863.66
631.61	725.57
631.76	620.24
631.91	594.50
632.06	484.49
632.21	472.79
632.36	402.57
632.51	344.06
632.66	390.87
632.81	358.10
632.96	294.91
633.10	374.49
633.25	383.85
633.40	344.06
633.55	334.70
633.70	292.57
633.85	332.36
634.00	245.76
634.15	341.72
634.30	344.06
634.45	236.39
634.60	304.27
634.75	344.06
634.90	220.01
635.05	334.70
635.19	241.08
635.34	334.70
635.49	330.02
635.64	259.80
635.79	257.46
635.94	306.61
636.09	337.04
636.24	255.12
636.39	334.70
636.53	351.08
636.68	290.23
636.83	308.95
636.98	379.17
637.13	245.76
637.28	217.67
637.43	397.89
637.57	222.35
637.72	287.89
637.87	264.48
638.02	220.01
638.17	231.71
638.32	243.42
638.46	280.86
638.61	266.82
638.76	248.10
638.91	257.46
639.06	131.07
639.20	252.78
639.35	170.86
639.50	280.86
639.65	287.89
639.80	217.67
639.94	315.97
640.09	294.91
640.24	248.10
640.39	259.80
640.54	248.10
640.68	334.70
640.83	276.18
640.98	205.97
641.13	227.03
641.27	236.39
641.42	212.99
641.57	245.76
641.72	154.48
641.86	184.90
642.01	212.99
642.16	234.05
642.31	255.12
642.45	330.02
642.60	238.73
642.75	152.13
642.90	241.08
643.04	262.14
643.19	196.60
643.34	285.55
643.48	250.44
643.63	245.76
643.78	337.04
643.93	271.50
644.07	287.89
644.22	231.71
644.37	229.37
644.51	236.39
644.66	182.56
644.81	245.76
644.95	259.80
645.10	222.35
645.25	215.33
645.39	259.80
645.54	196.60
645.69	248.10
645.83	222.35
645.98	220.01
646.13	285.55
646.27	250.44
646.42	229.37
646.57	222.35
646.71	248.10
646.86	154.48
647.00	248.10
647.15	229.37
647.30	222.35
647.44	287.89
647.59	257.46
647.74	220.01
647.88	224.69
648.03	180.22
648.17	191.92
648.32	189.58
648.47	215.33
648.61	196.60
648.76	299.59
648.90	231.71
649.05	177.88
649.20	166.18
649.34	220.01
649.49	156.82
649.63	358.10
649.78	334.70
649.92	332.36
650.07	461.09
650.21	327.68
650.36	418.96
650.51	538.32
650.65	407.25
650.80	379.17
650.94	351.08
651.09	313.63
651.23	301.93
651.38	299.59
651.52	294.91
651.67	222.35
651.81	241.08
651.96	210.65
652.10	255.12
652.25	280.86
652.39	318.31
652.54	194.26
652.68	250.44
652.83	294.91
652.97	320.65
653.12	259.80
653.26	334.70
653.41	264.48
653.55	290.23
653.70	210.65
653.84	201.29
653.99	205.97
654.13	243.42
654.27	250.44
654.42	266.82
654.56	229.37
654.71	266.82
654.85	194.26
655.00	208.31
655.14	238.73
655.29	205.97
655.43	215.33
655.57	271.50
655.72	283.20
655.86	234.05
656.01	252.78
656.15	220.01
656.30	283.20
656.44	177.88
656.58	231.71
656.73	234.05
656.87	198.95
657.01	262.14
657.16	252.78
657.30	269.16
657.45	234.05
657.59	262.14
657.73	315.97
657.88	259.80
658.02	280.86
658.16	313.63
658.31	283.20
658.45	252.78
658.60	248.10
658.74	229.37
658.88	257.46
659.03	203.63
659.17	248.10
659.31	149.79
659.46	191.92
659.60	220.01
659.74	313.63
659.89	252.78
660.03	236.39
660.17	180.22
660.32	180.22
660.46	189.58
660.60	184.90
660.74	212.99
660.89	168.52
661.03	159.16
661.17	238.73
661.32	173.20
661.46	276.18
661.60	215.33
661.74	248.10
661.89	374.49
662.03	262.14
662.17	320.65
662.31	292.57
662.46	262.14
662.60	330.02
662.74	229.37
662.88	327.68
663.03	210.65
663.17	154.48
663.31	220.01
663.45	224.69
663.60	238.73
663.74	138.09
663.88	222.35
664.02	222.35
664.17	212.99
664.31	294.91
664.45	236.39
664.59	194.26
664.73	180.22
664.88	191.92
665.02	131.07
665.16	205.97
665.30	231.71
665.44	217.67
665.59	212.99
665.73	231.71
665.87	166.18
666.01	198.95
666.15	152.13
666.29	217.67
666.44	208.31
666.58	290.23
666.72	203.63
666.86	217.67
667.00	241.08
667.14	152.13
667.28	278.52
667.43	189.58
667.57	133.41
667.71	142.77
667.85	198.95
667.99	189.58
668.13	227.03
668.27	292.57
668.41	177.88
668.56	182.56
668.70	173.20
668.84	248.10
668.98	201.29
669.12	191.92
669.26	231.71
669.40	229.37
669.54	229.37
669.68	217.67
669.82	194.26
669.96	191.92
670.10	173.20
670.25	215.33
670.39	177.88
670.53	189.58
670.67	149.79
670.81	159.16
670.95	220.01
671.09	163.84
671.23	229.37
671.37	159.16
671.51	154.48
671.65	252.78
671.79	215.33
671.93	142.77
672.07	161.50
672.21	250.44
672.35	201.29
672.49	184.90
672.63	194.26
672.77	250.44
672.91	191.92
673.05	170.86
673.19	168.52
673.33	121.71
673.47	173.20
673.61	201.29
673.75	163.84
673.89	126.39
674.03	149.79
674.17	238.73
674.31	205.97
674.45	187.24
674.59	177.88
674.73	184.90
674.87	154.48
675.01	191.92
675.15	184.90
675.29	175.54
675.43	262.14
675.56	285.55
675.70	191.92
675.84	133.41
675.98	212.99
676.12	168.52
676.26	161.50
676.40	194.26
676.54	142.77
676.68	93.62
676.82	166.18
676.96	205.97
677.10	194.26
677.23	180.22
677.37	161.50
677.51	180.22
677.65	231.71
677.79	173.20
677.93	189.58
678.07	191.92
678.21	149.79
678.34	119.37
678.48	138.09
678.62	159.16
678.76	180.22
678.90	161.50
679.04	182.56
679.18	203.63
679.31	201.29
679.45	124.05
679.59	215.33
679.73	142.77
679.87	166.18
680.00	131.07
680.14	138.09
680.28	189.58
680.42	117.03
680.56	208.31
680.70	189.58
680.83	210.65
680.97	210.65
681.11	145.11
681.25	117.03
681.39	208.31
681.52	149.79
681.66	140.43
681.80	196.60
681.94	95.96
682.07	250.44
682.21	205.97
682.35	149.79
682.49	182.56
682.62	173.20
682.76	163.84
682.90	154.48
683.04	163.84
683.17	245.76
683.31	124.05
683.45	156.82
683.59	236.39
683.72	147.45
683.86	182.56
684.00	128.73
684.13	245.76
684.27	175.54
684.41	173.20
684.55	180.22
684.68	191.92
684.82	81.92
684.96	145.11
685.09	154.48
685.23	217.67
685.37	142.77
685.50	175.54
685.64	222.35
685.78	168.52
685.91	210.65
686.05	187.24
686.19	234.05
686.32	198.95
686.46	252.78
686.60	126.39
686.73	215.33
686.87	124.05
687.01	194.26
687.14	159.16
687.28	182.56
687.42	189.58
687.55	182.56
687.69	229.37
687.82	168.52
687.96	229.37
688.10	257.46
688.23	114.69
688.37	208.31
688.50	140.43
688.64	180.22
688.78	88.94
688.91	81.92
689.05	168.52
689.18	187.24
689.32	177.88
689.46	126.39
689.59	147.45
689.73	173.20
689.86	177.88
690.00	138.09
690.13	189.58
690.27	131.07
690.41	145.11
690.54	145.11
690.68	135.75
690.81	156.82
690.95	159.16
691.08	170.86
691.22	159.16
691.35	128.73
691.49	110.01
691.62	166.18
691.76	140.43
691.89	166.18
692.03	177.88
692.16	93.62
692.30	124.05
692.43	124.05
692.57	126.39
692.70	177.88
692.84	203.63
692.97	215.33
693.11	161.50
693.24	264.48
693.38	152.13
693.51	124.05
693.65	198.95
693.78	131.07
693.92	145.11
694.05	124.05
694.19	70.22
694.32	161.50
694.45	210.65
694.59	140.43
694.72	154.48
694.86	201.29
694.99	173.20
695.13	107.66
695.26	65.54
695.39	168.52
695.53	173.20
695.66	182.56
695.80	159.16
695.93	102.98
696.07	128.73
696.20	126.39
696.33	131.07
696.47	124.05
696.60	149.79
696.73	152.13
696.87	77.24
697.00	191.92
697.14	166.18
697.27	203.63
697.40	220.01
697.54	124.05
697.67	79.58
697.80	163.84
697.94	91.28
698.07	98.30
698.21	60.85
698.34	140.43
698.47	124.05
698.61	147.45
698.74	138.09
698.87	128.73
699.01	114.69
699.14	152.13
699.27	154.48
699.40	243.42
699.54	154.48
699.67	91.28
699.80	117.03
699.94	84.26
700.07	145.11
700.20	126.39
700.34	98.30
700.47	175.54
700.60	177.88
700.73	156.82
700.87	224.69
701.00	107.66
701.13	154.48
701.26	138.09
701.40	131.07
701.53	126.39
701.66	159.16
701.79	170.86
701.93	138.09
702.06	184.90
702.19	147.45
702.32	166.18
702.46	194.26
702.59	180.22
702.72	110.01
702.85	114.69
702.99	166.18
703.12	133.41
703.25	133.41
703.38	110.01
703.51	163.84
703.65	138.09
703.78	107.66
703.91	152.13
704.04	149.79
704.17	194.26
704.31	105.32
704.44	74.90
704.57	119.37
704.70	217.67
704.83	145.11
704.96	161.50
705.10	56.17
705.23	102.98
>>>>>End Processed Spectral Data<<<<<
